trial_nr	onset	event_type	phase	response	nr_frames	movie_index	movie_duration	movie_file	blank	onset_abs	duration
0	0.1664891242980957	stim	0		1					17.052121877670288	0.008427858352661133
0	0.14180636405944824	response	0	space						17.02743911743164	
1	0.17491698265075684	stim	0		4613					17.06054973602295	38.45710301399231
1	38.62189507484436	pulse	0	t						55.50752782821655	
1	38.632019996643066	stim	1		1716					55.51765275001526	14.308992862701416
1	40.214436769485474	pulse	1	t						57.100069522857666	
1	41.814493894577026	pulse	1	t						58.70012664794922	
1	43.414732456207275	pulse	1	t						60.30036520957947	
1	45.01495671272278	pulse	1	t						61.90058946609497	
1	46.61526155471802	pulse	1	t						63.50089430809021	
1	48.21550512313843	pulse	1	t						65.10113787651062	
1	49.81571888923645	pulse	1	t						66.70135164260864	
1	51.415977478027344	pulse	1	t						68.30161023139954	
2	52.94101285934448	fix_pre	0		10	0.0	2.5	/experiments/knapen_AOT/AOT_stimuli/rescaled_final/0179_rv.mp4	0.0	69.82664561271667	0.10005569458007812
2	53.016313552856445	pulse	0	t		0.0	2.5	/experiments/knapen_AOT/AOT_stimuli/rescaled_final/0179_rv.mp4	0.0	69.90194630622864	
2	53.04106855392456	movie	1		268	0.0	2.5	/experiments/knapen_AOT/AOT_stimuli/rescaled_final/0179_rv.mp4	0.0	69.92670130729675	2.49200177192688
2	54.6162691116333	pulse	1	t		0.0	2.5	/experiments/knapen_AOT/AOT_stimuli/rescaled_final/0179_rv.mp4	0.0	71.5019018650055	
2	55.53307032585144	fix_post	2		12	0.0	2.5	/experiments/knapen_AOT/AOT_stimuli/rescaled_final/0179_rv.mp4	0.0	72.41870307922363	0.10011792182922363
3	55.633188247680664	fix_pre	0		120	1.0	2.5	/experiments/knapen_AOT/AOT_stimuli/rescaled_final/1403_fw.mp4	0.0	72.51882100105286	1.0084130764007568
3	56.21681308746338	pulse	0	t		1.0	2.5	/experiments/knapen_AOT/AOT_stimuli/rescaled_final/1403_fw.mp4	0.0	73.10244584083557	
3	56.64160132408142	movie	1		267	1.0	2.5	/experiments/knapen_AOT/AOT_stimuli/rescaled_final/1403_fw.mp4	0.0	73.52723407745361	2.4920032024383545
3	57.815154790878296	pulse	1	t		1.0	2.5	/experiments/knapen_AOT/AOT_stimuli/rescaled_final/1403_fw.mp4	0.0	74.70078754425049	
3	59.133604526519775	fix_post	2		12	1.0	2.5	/experiments/knapen_AOT/AOT_stimuli/rescaled_final/1403_fw.mp4	0.0	76.01923727989197	0.10002589225769043
4	59.233630418777466	fix_pre	0		120	2.0	2.5	/experiments/knapen_AOT/AOT_stimuli/rescaled_final/1852_rv.mp4	0.0	76.11926317214966	1.0084755420684814
4	59.417237281799316	pulse	0	t		2.0	2.5	/experiments/knapen_AOT/AOT_stimuli/rescaled_final/1852_rv.mp4	0.0	76.30287003517151	
4	60.24210596084595	movie	1		264	2.0	2.5	/experiments/knapen_AOT/AOT_stimuli/rescaled_final/1852_rv.mp4	0.0	77.12773871421814	2.4920244216918945
4	61.016884088516235	pulse	1	t		2.0	2.5	/experiments/knapen_AOT/AOT_stimuli/rescaled_final/1852_rv.mp4	0.0	77.90251684188843	
4	62.61787414550781	pulse	1	t		2.0	2.5	/experiments/knapen_AOT/AOT_stimuli/rescaled_final/1852_rv.mp4	0.0	79.50350689888	
4	62.73413038253784	fix_post	2		12	2.0	2.5	/experiments/knapen_AOT/AOT_stimuli/rescaled_final/1852_rv.mp4	0.0	79.61976313591003	0.10002470016479492
5	62.83415508270264	fix_pre	0		120	3.0	2.5	/experiments/knapen_AOT/AOT_stimuli/rescaled_final/0312_fw.mp4	0.0	79.71978783607483	1.0085031986236572
5	63.842658281326294	movie	1		259	3.0	2.5	/experiments/knapen_AOT/AOT_stimuli/rescaled_final/0312_fw.mp4	0.0	80.72829103469849	2.492025375366211
5	64.21647024154663	pulse	1	t		3.0	2.5	/experiments/knapen_AOT/AOT_stimuli/rescaled_final/0312_fw.mp4	0.0	81.10210299491882	
5	65.81843566894531	pulse	1	t		3.0	2.5	/experiments/knapen_AOT/AOT_stimuli/rescaled_final/0312_fw.mp4	0.0	82.7040684223175	
5	66.3346836566925	fix_post	2		12	3.0	2.5	/experiments/knapen_AOT/AOT_stimuli/rescaled_final/0312_fw.mp4	0.0	83.2203164100647	0.10000371932983398
6	66.43468737602234	fix_pre	0		119	4.0	2.5	/experiments/knapen_AOT/AOT_stimuli/rescaled_final/1666_rv.mp4	0.0	83.32032012939453	1.0001654624938965
6	67.418377161026	pulse	0	t		4.0	2.5	/experiments/knapen_AOT/AOT_stimuli/rescaled_final/1666_rv.mp4	0.0	84.3040099143982	
6	67.43485283851624	movie	1		274	4.0	2.5	/experiments/knapen_AOT/AOT_stimuli/rescaled_final/1666_rv.mp4	0.0	84.32048559188843	2.500426769256592
6	69.01742577552795	pulse	1	t		4.0	2.5	/experiments/knapen_AOT/AOT_stimuli/rescaled_final/1666_rv.mp4	0.0	85.90305852890015	
6	69.93527960777283	fix_post	2		12	4.0	2.5	/experiments/knapen_AOT/AOT_stimuli/rescaled_final/1666_rv.mp4	0.0	86.82091236114502	0.10013842582702637
7	70.03541803359985	fix_pre	0		120	5.0	2.5	/experiments/knapen_AOT/AOT_stimuli/rescaled_final/0459_rv.mp4	0.0	86.92105078697205	1.008324384689331
7	70.61887383460999	pulse	0	t		5.0	2.5	/experiments/knapen_AOT/AOT_stimuli/rescaled_final/0459_rv.mp4	0.0	87.50450658798218	
7	71.04374241828918	movie	1		280	5.0	2.5	/experiments/knapen_AOT/AOT_stimuli/rescaled_final/0459_rv.mp4	0.0	87.92937517166138	2.492013454437256
7	72.21741604804993	pulse	1	t		5.0	2.5	/experiments/knapen_AOT/AOT_stimuli/rescaled_final/0459_rv.mp4	0.0	89.10304880142212	
7	73.53575587272644	fix_post	2		12	5.0	2.5	/experiments/knapen_AOT/AOT_stimuli/rescaled_final/0459_rv.mp4	0.0	90.42138862609863	0.10003042221069336
8	73.63578629493713	fix_pre	0		120	6.0	2.5	blank	1.0	90.52141904830933	1.0001623630523682
8	73.81143450737	pulse	0	t		6.0	2.5	blank	1.0	90.69706726074219	
8	74.6359486579895	movie	1		300	6.0	2.5	blank	1.0	91.5215814113617	2.5003390312194824
8	75.41128420829773	pulse	1	t		6.0	2.5	blank	1.0	92.29691696166992	
8	77.01150822639465	pulse	1	t		6.0	2.5	blank	1.0	93.89714097976685	
8	77.13628768920898	fix_post	2		12	6.0	2.5	blank	1.0	94.02192044258118	0.10008549690246582
9	77.23637318611145	fix_pre	0		120	7.0	2.5	/experiments/knapen_AOT/AOT_stimuli/rescaled_final/0718_fw.mp4	0.0	94.12200593948364	1.0084307193756104
9	78.24480390548706	movie	1		274	7.0	2.5	/experiments/knapen_AOT/AOT_stimuli/rescaled_final/0718_fw.mp4	0.0	95.13043665885925	2.4920971393585205
9	78.61173176765442	pulse	1	t		7.0	2.5	/experiments/knapen_AOT/AOT_stimuli/rescaled_final/0718_fw.mp4	0.0	95.49736452102661	
9	80.2123327255249	pulse	1	t		7.0	2.5	/experiments/knapen_AOT/AOT_stimuli/rescaled_final/0718_fw.mp4	0.0	97.0979654788971	
9	80.73690104484558	fix_post	2		12	7.0	2.5	/experiments/knapen_AOT/AOT_stimuli/rescaled_final/0718_fw.mp4	0.0	97.62253379821777	0.09998512268066406
10	80.83688616752625	fix_pre	0		118	8.0	2.5	/experiments/knapen_AOT/AOT_stimuli/rescaled_final/1810_fw.mp4	0.0	97.72251892089844	0.9917855262756348
10	81.81228184700012	pulse	0	t		8.0	2.5	/experiments/knapen_AOT/AOT_stimuli/rescaled_final/1810_fw.mp4	0.0	98.69791460037231	
10	81.82867169380188	movie	1		281	8.0	2.5	/experiments/knapen_AOT/AOT_stimuli/rescaled_final/1810_fw.mp4	0.0	98.71430444717407	2.500389575958252
10	83.41248965263367	pulse	1	t		8.0	2.5	/experiments/knapen_AOT/AOT_stimuli/rescaled_final/1810_fw.mp4	0.0	100.29812240600586	
10	84.32906126976013	fix_post	2		12	8.0	2.5	/experiments/knapen_AOT/AOT_stimuli/rescaled_final/1810_fw.mp4	0.0	101.21469402313232	0.10001778602600098
11	84.42907905578613	fix_pre	0		120	9.0	2.5	/experiments/knapen_AOT/AOT_stimuli/rescaled_final/1055_rv.mp4	0.0	101.31471180915833	1.0084826946258545
11	85.01271176338196	pulse	0	t		9.0	2.5	/experiments/knapen_AOT/AOT_stimuli/rescaled_final/1055_rv.mp4	0.0	101.89834451675415	
11	85.43756175041199	movie	1		266	9.0	2.5	/experiments/knapen_AOT/AOT_stimuli/rescaled_final/1055_rv.mp4	0.0	102.32319450378418	2.500368356704712
11	86.61293697357178	pulse	1	t		9.0	2.5	/experiments/knapen_AOT/AOT_stimuli/rescaled_final/1055_rv.mp4	0.0	103.49856972694397	
11	87.9379301071167	fix_post	2		11	9.0	2.5	/experiments/knapen_AOT/AOT_stimuli/rescaled_final/1055_rv.mp4	0.0	104.82356286048889	0.09167170524597168
12	88.02960181236267	fix_pre	0		120	10.0	2.5	/experiments/knapen_AOT/AOT_stimuli/rescaled_final/0337_rv.mp4	0.0	104.91523456573486	1.008516788482666
12	88.21315240859985	pulse	0	t		10.0	2.5	/experiments/knapen_AOT/AOT_stimuli/rescaled_final/0337_rv.mp4	0.0	105.09878516197205	
12	89.03811860084534	movie	1		284	10.0	2.5	/experiments/knapen_AOT/AOT_stimuli/rescaled_final/0337_rv.mp4	0.0	105.92375135421753	2.4920547008514404
12	89.8134593963623	pulse	1	t		10.0	2.5	/experiments/knapen_AOT/AOT_stimuli/rescaled_final/0337_rv.mp4	0.0	106.6990921497345	
12	91.41187453269958	pulse	1	t		10.0	2.5	/experiments/knapen_AOT/AOT_stimuli/rescaled_final/0337_rv.mp4	0.0	108.29750728607178	
12	91.53017330169678	fix_post	2		12	10.0	2.5	/experiments/knapen_AOT/AOT_stimuli/rescaled_final/0337_rv.mp4	0.0	108.41580605506897	0.09999513626098633
13	91.63016843795776	fix_pre	0		120	11.0	2.5	/experiments/knapen_AOT/AOT_stimuli/rescaled_final/1351_rv.mp4	0.0	108.51580119132996	1.0084834098815918
13	92.63865184783936	movie	1		268	11.0	2.5	/experiments/knapen_AOT/AOT_stimuli/rescaled_final/1351_rv.mp4	0.0	109.52428460121155	2.492044687271118
13	93.01209712028503	pulse	1	t		11.0	2.5	/experiments/knapen_AOT/AOT_stimuli/rescaled_final/1351_rv.mp4	0.0	109.89772987365723	
13	94.61345958709717	pulse	1	t		11.0	2.5	/experiments/knapen_AOT/AOT_stimuli/rescaled_final/1351_rv.mp4	0.0	111.49909234046936	
13	95.13069653511047	fix_post	2		12	11.0	2.5	/experiments/knapen_AOT/AOT_stimuli/rescaled_final/1351_rv.mp4	0.0	112.01632928848267	0.0999898910522461
14	95.23068642616272	fix_pre	0		119	12.0	2.5	blank	1.0	112.11631917953491	0.9917962551116943
14	96.21438908576965	pulse	0	t		12.0	2.5	blank	1.0	113.10002183914185	
14	96.22248268127441	movie	1		301	12.0	2.5	blank	1.0	113.1081154346466	2.508765459060669
14	97.8146300315857	pulse	1	t		12.0	2.5	blank	1.0	114.70026278495789	
14	98.73124814033508	fix_post	2		12	12.0	2.5	blank	1.0	115.61688089370728	0.10002827644348145
15	98.83127641677856	fix_pre	0		120	13.0	2.5	/experiments/knapen_AOT/AOT_stimuli/rescaled_final/1927_rv.mp4	0.0	115.71690917015076	1.0084795951843262
15	99.41485738754272	pulse	0	t		13.0	2.5	/experiments/knapen_AOT/AOT_stimuli/rescaled_final/1927_rv.mp4	0.0	116.30049014091492	
15	99.83975601196289	movie	1		268	13.0	2.5	/experiments/knapen_AOT/AOT_stimuli/rescaled_final/1927_rv.mp4	0.0	116.72538876533508	2.4919769763946533
15	101.01342415809631	pulse	1	t		13.0	2.5	/experiments/knapen_AOT/AOT_stimuli/rescaled_final/1927_rv.mp4	0.0	117.8990569114685	
15	102.33173298835754	fix_post	2		12	13.0	2.5	/experiments/knapen_AOT/AOT_stimuli/rescaled_final/1927_rv.mp4	0.0	119.21736574172974	0.10002994537353516
16	102.43176293373108	fix_pre	0		120	14.0	2.5	/experiments/knapen_AOT/AOT_stimuli/rescaled_final/1904_fw.mp4	0.0	119.31739568710327	1.008685827255249
16	102.61540293693542	pulse	0	t		14.0	2.5	/experiments/knapen_AOT/AOT_stimuli/rescaled_final/1904_fw.mp4	0.0	119.50103569030762	
16	103.44044876098633	movie	1		274	14.0	2.5	/experiments/knapen_AOT/AOT_stimuli/rescaled_final/1904_fw.mp4	0.0	120.32608151435852	2.492135524749756
16	104.21360874176025	pulse	1	t		14.0	2.5	/experiments/knapen_AOT/AOT_stimuli/rescaled_final/1904_fw.mp4	0.0	121.09924149513245	
16	105.8148558139801	pulse	1	t		14.0	2.5	/experiments/knapen_AOT/AOT_stimuli/rescaled_final/1904_fw.mp4	0.0	122.7004885673523	
16	105.93258428573608	fix_post	2		12	14.0	2.5	/experiments/knapen_AOT/AOT_stimuli/rescaled_final/1904_fw.mp4	0.0	122.81821703910828	0.0997316837310791
17	106.03231596946716	fix_pre	0		120	15.0	2.5	/experiments/knapen_AOT/AOT_stimuli/rescaled_final/0717_fw.mp4	0.0	122.91794872283936	1.0085761547088623
17	107.04089212417603	movie	1		274	15.0	2.5	/experiments/knapen_AOT/AOT_stimuli/rescaled_final/0717_fw.mp4	0.0	123.92652487754822	2.491943836212158
17	107.4139940738678	pulse	1	t		15.0	2.5	/experiments/knapen_AOT/AOT_stimuli/rescaled_final/0717_fw.mp4	0.0	124.29962682723999	
17	109.01437044143677	pulse	1	t		15.0	2.5	/experiments/knapen_AOT/AOT_stimuli/rescaled_final/0717_fw.mp4	0.0	125.90000319480896	
17	109.53283596038818	fix_post	2		12	15.0	2.5	/experiments/knapen_AOT/AOT_stimuli/rescaled_final/0717_fw.mp4	0.0	126.41846871376038	0.10001802444458008
18	109.63285398483276	fix_pre	0		119	16.0	2.5	/experiments/knapen_AOT/AOT_stimuli/rescaled_final/1194_fw.mp4	0.0	126.51848673820496	1.0001566410064697
18	110.61658525466919	pulse	0	t		16.0	2.5	/experiments/knapen_AOT/AOT_stimuli/rescaled_final/1194_fw.mp4	0.0	127.50221800804138	
18	110.63301062583923	movie	1		261	16.0	2.5	/experiments/knapen_AOT/AOT_stimuli/rescaled_final/1194_fw.mp4	0.0	127.51864337921143	2.500363349914551
18	112.2168197631836	pulse	1	t		16.0	2.5	/experiments/knapen_AOT/AOT_stimuli/rescaled_final/1194_fw.mp4	0.0	129.1024525165558	
18	113.13337397575378	fix_post	2		12	16.0	2.5	/experiments/knapen_AOT/AOT_stimuli/rescaled_final/1194_fw.mp4	0.0	130.01900672912598	0.1000220775604248
19	113.23339605331421	fix_pre	0		120	17.0	2.5	/experiments/knapen_AOT/AOT_stimuli/rescaled_final/0662_fw.mp4	0.0	130.1190288066864	1.00858473777771
19	113.81698989868164	pulse	0	t		17.0	2.5	/experiments/knapen_AOT/AOT_stimuli/rescaled_final/0662_fw.mp4	0.0	130.70262265205383	
19	114.24198079109192	movie	1		267	17.0	2.5	/experiments/knapen_AOT/AOT_stimuli/rescaled_final/0662_fw.mp4	0.0	131.1276135444641	2.4919302463531494
19	115.41646790504456	pulse	1	t		17.0	2.5	/experiments/knapen_AOT/AOT_stimuli/rescaled_final/0662_fw.mp4	0.0	132.30210065841675	
19	116.73391103744507	fix_post	2		12	17.0	2.5	/experiments/knapen_AOT/AOT_stimuli/rescaled_final/0662_fw.mp4	0.0	133.61954379081726	0.10007262229919434
20	116.83398365974426	fix_pre	0		120	18.0	2.5	/experiments/knapen_AOT/AOT_stimuli/rescaled_final/0835_rv.mp4	0.0	133.71961641311646	1.0084965229034424
20	117.0176374912262	pulse	0	t		18.0	2.5	/experiments/knapen_AOT/AOT_stimuli/rescaled_final/0835_rv.mp4	0.0	133.9032702445984	
20	117.8424801826477	movie	1		272	18.0	2.5	/experiments/knapen_AOT/AOT_stimuli/rescaled_final/0835_rv.mp4	0.0	134.7281129360199	2.49198579788208
20	118.61896586418152	pulse	1	t		18.0	2.5	/experiments/knapen_AOT/AOT_stimuli/rescaled_final/0835_rv.mp4	0.0	135.5045986175537	
20	120.21741557121277	pulse	1	t		18.0	2.5	/experiments/knapen_AOT/AOT_stimuli/rescaled_final/0835_rv.mp4	0.0	137.10304832458496	
20	120.33446598052979	fix_post	2		12	18.0	2.5	/experiments/knapen_AOT/AOT_stimuli/rescaled_final/0835_rv.mp4	0.0	137.22009873390198	0.10001468658447266
21	120.43448066711426	fix_pre	0		120	19.0	2.5	/experiments/knapen_AOT/AOT_stimuli/rescaled_final/0982_rv.mp4	0.0	137.32011342048645	1.0085270404815674
21	121.44300770759583	movie	1		264	19.0	2.5	/experiments/knapen_AOT/AOT_stimuli/rescaled_final/0982_rv.mp4	0.0	138.32864046096802	2.4919862747192383
21	121.81707763671875	pulse	1	t		19.0	2.5	/experiments/knapen_AOT/AOT_stimuli/rescaled_final/0982_rv.mp4	0.0	138.70271039009094	
21	123.4187581539154	pulse	1	t		19.0	2.5	/experiments/knapen_AOT/AOT_stimuli/rescaled_final/0982_rv.mp4	0.0	140.3043909072876	
21	123.93499398231506	fix_post	2		12	19.0	2.5	/experiments/knapen_AOT/AOT_stimuli/rescaled_final/0982_rv.mp4	0.0	140.82062673568726	0.10006165504455566
22	124.03505563735962	fix_pre	0		119	20.0	2.5	/experiments/knapen_AOT/AOT_stimuli/rescaled_final/1460_fw.mp4	0.0	140.9206883907318	1.0001437664031982
22	125.01873016357422	pulse	0	t		20.0	2.5	/experiments/knapen_AOT/AOT_stimuli/rescaled_final/1460_fw.mp4	0.0	141.9043629169464	
22	125.03519940376282	movie	1		263	20.0	2.5	/experiments/knapen_AOT/AOT_stimuli/rescaled_final/1460_fw.mp4	0.0	141.920832157135	2.5003976821899414
22	126.61826229095459	pulse	1	t		20.0	2.5	/experiments/knapen_AOT/AOT_stimuli/rescaled_final/1460_fw.mp4	0.0	143.50389504432678	
22	127.53559708595276	fix_post	2		12	20.0	2.5	/experiments/knapen_AOT/AOT_stimuli/rescaled_final/1460_fw.mp4	0.0	144.42122983932495	0.10000944137573242
23	127.63560652732849	fix_pre	0		120	21.0	2.5	blank	1.0	144.52123928070068	1.000133991241455
23	128.2192361354828	pulse	0	t		21.0	2.5	blank	1.0	145.10486888885498	
23	128.63574051856995	movie	1		300	21.0	2.5	blank	1.0	145.52137327194214	2.500325918197632
23	129.81179094314575	pulse	1	t		21.0	2.5	blank	1.0	146.69742369651794	
23	131.13606643676758	fix_post	2		12	21.0	2.5	blank	1.0	148.02169919013977	0.10002350807189941
24	131.23608994483948	fix_pre	0		120	22.0	2.5	/experiments/knapen_AOT/AOT_stimuli/rescaled_final/1667_rv.mp4	0.0	148.12172269821167	1.0085060596466064
24	131.41176223754883	pulse	0	t		22.0	2.5	/experiments/knapen_AOT/AOT_stimuli/rescaled_final/1667_rv.mp4	0.0	148.29739499092102	
24	132.24459600448608	movie	1		278	22.0	2.5	/experiments/knapen_AOT/AOT_stimuli/rescaled_final/1667_rv.mp4	0.0	149.13022875785828	2.492039918899536
24	133.0117039680481	pulse	1	t		22.0	2.5	/experiments/knapen_AOT/AOT_stimuli/rescaled_final/1667_rv.mp4	0.0	149.8973367214203	
24	134.61219263076782	pulse	1	t		22.0	2.5	/experiments/knapen_AOT/AOT_stimuli/rescaled_final/1667_rv.mp4	0.0	151.49782538414001	
24	134.73663592338562	fix_post	2		12	22.0	2.5	/experiments/knapen_AOT/AOT_stimuli/rescaled_final/1667_rv.mp4	0.0	151.6222686767578	0.10000824928283691
25	134.83664417266846	fix_pre	0		120	23.0	2.5	/experiments/knapen_AOT/AOT_stimuli/rescaled_final/1493_fw.mp4	0.0	151.72227692604065	1.0084879398345947
25	135.84513211250305	movie	1		262	23.0	2.5	/experiments/knapen_AOT/AOT_stimuli/rescaled_final/1493_fw.mp4	0.0	152.73076486587524	2.492025136947632
25	136.21224856376648	pulse	1	t		23.0	2.5	/experiments/knapen_AOT/AOT_stimuli/rescaled_final/1493_fw.mp4	0.0	153.09788131713867	
25	137.81232833862305	pulse	1	t		23.0	2.5	/experiments/knapen_AOT/AOT_stimuli/rescaled_final/1493_fw.mp4	0.0	154.69796109199524	
25	138.33715724945068	fix_post	2		12	23.0	2.5	/experiments/knapen_AOT/AOT_stimuli/rescaled_final/1493_fw.mp4	0.0	155.22279000282288	0.10001182556152344
26	138.4371690750122	fix_pre	0		118	24.0	2.5	/experiments/knapen_AOT/AOT_stimuli/rescaled_final/0662_rv.mp4	0.0	155.3228018283844	1.0002431869506836
26	139.41254568099976	pulse	0	t		24.0	2.5	/experiments/knapen_AOT/AOT_stimuli/rescaled_final/0662_rv.mp4	0.0	156.29817843437195	
26	139.4374122619629	movie	1		269	24.0	2.5	/experiments/knapen_AOT/AOT_stimuli/rescaled_final/0662_rv.mp4	0.0	156.32304501533508	2.491948127746582
26	141.01309823989868	pulse	1	t		24.0	2.5	/experiments/knapen_AOT/AOT_stimuli/rescaled_final/0662_rv.mp4	0.0	157.89873099327087	
26	141.92936038970947	fix_post	2		12	24.0	2.5	/experiments/knapen_AOT/AOT_stimuli/rescaled_final/0662_rv.mp4	0.0	158.81499314308167	0.1000220775604248
27	142.0293824672699	fix_pre	0		120	25.0	2.5	/experiments/knapen_AOT/AOT_stimuli/rescaled_final/0218_rv.mp4	0.0	158.9150152206421	1.0086100101470947
27	142.6130030155182	pulse	0	t		25.0	2.5	/experiments/knapen_AOT/AOT_stimuli/rescaled_final/0218_rv.mp4	0.0	159.49863576889038	
27	143.037992477417	movie	1		275	25.0	2.5	/experiments/knapen_AOT/AOT_stimuli/rescaled_final/0218_rv.mp4	0.0	159.92362523078918	2.4919650554656982
27	144.21257090568542	pulse	1	t		25.0	2.5	/experiments/knapen_AOT/AOT_stimuli/rescaled_final/0218_rv.mp4	0.0	161.09820365905762	
27	145.5299575328827	fix_post	2		12	25.0	2.5	/experiments/knapen_AOT/AOT_stimuli/rescaled_final/0218_rv.mp4	0.0	162.41559028625488	0.10003900527954102
28	145.62999653816223	fix_pre	0		120	26.0	2.5	/experiments/knapen_AOT/AOT_stimuli/rescaled_final/1756_rv.mp4	0.0	162.51562929153442	1.0083880424499512
28	145.81351947784424	pulse	0	t		26.0	2.5	/experiments/knapen_AOT/AOT_stimuli/rescaled_final/1756_rv.mp4	0.0	162.69915223121643	
28	146.63838458061218	movie	1		267	26.0	2.5	/experiments/knapen_AOT/AOT_stimuli/rescaled_final/1756_rv.mp4	0.0	163.52401733398438	2.4920618534088135
28	147.41368913650513	pulse	1	t		26.0	2.5	/experiments/knapen_AOT/AOT_stimuli/rescaled_final/1756_rv.mp4	0.0	164.29932188987732	
28	149.01338028907776	pulse	1	t		26.0	2.5	/experiments/knapen_AOT/AOT_stimuli/rescaled_final/1756_rv.mp4	0.0	165.89901304244995	
28	149.130446434021	fix_post	2		12	26.0	2.5	/experiments/knapen_AOT/AOT_stimuli/rescaled_final/1756_rv.mp4	0.0	166.0160791873932	0.10008835792541504
29	149.2305347919464	fix_pre	0		120	27.0	2.5	/experiments/knapen_AOT/AOT_stimuli/rescaled_final/1181_fw.mp4	0.0	166.1161675453186	1.0085077285766602
29	150.23904252052307	movie	1		267	27.0	2.5	/experiments/knapen_AOT/AOT_stimuli/rescaled_final/1181_fw.mp4	0.0	167.12467527389526	2.491981267929077
29	150.6133635044098	pulse	1	t		27.0	2.5	/experiments/knapen_AOT/AOT_stimuli/rescaled_final/1181_fw.mp4	0.0	167.49899625778198	
29	152.21229720115662	pulse	1	t		27.0	2.5	/experiments/knapen_AOT/AOT_stimuli/rescaled_final/1181_fw.mp4	0.0	169.0979299545288	
29	152.73102378845215	fix_post	2		12	27.0	2.5	/experiments/knapen_AOT/AOT_stimuli/rescaled_final/1181_fw.mp4	0.0	169.61665654182434	0.1000211238861084
30	152.83104491233826	fix_pre	0		119	28.0	2.5	blank	1.0	169.71667766571045	0.9917542934417725
30	153.81469678878784	pulse	0	t		28.0	2.5	blank	1.0	170.70032954216003	
30	153.82279920578003	movie	1		301	28.0	2.5	blank	1.0	170.70843195915222	2.508718967437744
30	155.41523098945618	pulse	1	t		28.0	2.5	blank	1.0	172.30086374282837	
30	156.33151817321777	fix_post	2		12	28.0	2.5	blank	1.0	173.21715092658997	0.10001063346862793
31	156.4315288066864	fix_pre	0		120	29.0	2.5	/experiments/knapen_AOT/AOT_stimuli/rescaled_final/0190_rv.mp4	0.0	173.3171615600586	1.0085923671722412
31	157.01539301872253	pulse	0	t		29.0	2.5	/experiments/knapen_AOT/AOT_stimuli/rescaled_final/0190_rv.mp4	0.0	173.90102577209473	
31	157.44012117385864	movie	1		279	29.0	2.5	/experiments/knapen_AOT/AOT_stimuli/rescaled_final/0190_rv.mp4	0.0	174.32575392723083	2.491994619369507
31	158.6135401725769	pulse	1	t		29.0	2.5	/experiments/knapen_AOT/AOT_stimuli/rescaled_final/0190_rv.mp4	0.0	175.4991729259491	
31	159.93211579322815	fix_post	2		12	29.0	2.5	/experiments/knapen_AOT/AOT_stimuli/rescaled_final/0190_rv.mp4	0.0	176.81774854660034	0.10010218620300293
32	160.03221797943115	fix_pre	0		120	30.0	2.5	/experiments/knapen_AOT/AOT_stimuli/rescaled_final/2059_rv.mp4	0.0	176.91785073280334	1.0083472728729248
32	160.2156217098236	pulse	0	t		30.0	2.5	/experiments/knapen_AOT/AOT_stimuli/rescaled_final/2059_rv.mp4	0.0	177.1012544631958	
32	161.04056525230408	movie	1		285	30.0	2.5	/experiments/knapen_AOT/AOT_stimuli/rescaled_final/2059_rv.mp4	0.0	177.92619800567627	2.4920339584350586
32	161.8138370513916	pulse	1	t		30.0	2.5	/experiments/knapen_AOT/AOT_stimuli/rescaled_final/2059_rv.mp4	0.0	178.6994698047638	
32	163.41394233703613	pulse	1	t		30.0	2.5	/experiments/knapen_AOT/AOT_stimuli/rescaled_final/2059_rv.mp4	0.0	180.29957509040833	
32	163.53259921073914	fix_post	2		12	30.0	2.5	/experiments/knapen_AOT/AOT_stimuli/rescaled_final/2059_rv.mp4	0.0	180.41823196411133	0.10002517700195312
33	163.6326243877411	fix_pre	0		120	31.0	2.5	/experiments/knapen_AOT/AOT_stimuli/rescaled_final/1624_rv.mp4	0.0	180.51825714111328	1.0086102485656738
33	164.64123463630676	movie	1		267	31.0	2.5	/experiments/knapen_AOT/AOT_stimuli/rescaled_final/1624_rv.mp4	0.0	181.52686738967896	2.491912841796875
33	165.01487684249878	pulse	1	t		31.0	2.5	/experiments/knapen_AOT/AOT_stimuli/rescaled_final/1624_rv.mp4	0.0	181.90050959587097	
33	166.61436915397644	pulse	1	t		31.0	2.5	/experiments/knapen_AOT/AOT_stimuli/rescaled_final/1624_rv.mp4	0.0	183.50000190734863	
33	167.13314747810364	fix_post	2		12	31.0	2.5	/experiments/knapen_AOT/AOT_stimuli/rescaled_final/1624_rv.mp4	0.0	184.01878023147583	0.10009503364562988
34	167.23324251174927	fix_pre	0		119	32.0	2.5	/experiments/knapen_AOT/AOT_stimuli/rescaled_final/0179_rv.mp4	0.0	184.11887526512146	1.0000665187835693
34	168.21684074401855	pulse	0	t		32.0	2.5	/experiments/knapen_AOT/AOT_stimuli/rescaled_final/0179_rv.mp4	0.0	185.10247349739075	
34	168.23330903053284	movie	1		274	32.0	2.5	/experiments/knapen_AOT/AOT_stimuli/rescaled_final/0179_rv.mp4	0.0	185.11894178390503	2.500372886657715
34	169.8153030872345	pulse	1	t		32.0	2.5	/experiments/knapen_AOT/AOT_stimuli/rescaled_final/0179_rv.mp4	0.0	186.7009358406067	
34	170.73368191719055	fix_post	2		12	32.0	2.5	/experiments/knapen_AOT/AOT_stimuli/rescaled_final/0179_rv.mp4	0.0	187.61931467056274	0.10006332397460938
35	170.83374524116516	fix_pre	0		120	33.0	2.5	blank	1.0	187.71937799453735	1.0000951290130615
35	171.41734290122986	pulse	0	t		33.0	2.5	blank	1.0	188.30297565460205	
35	171.83384037017822	movie	1		300	33.0	2.5	blank	1.0	188.71947312355042	2.5004723072052
35	173.01758909225464	pulse	1	t		33.0	2.5	blank	1.0	189.90322184562683	
35	174.33431267738342	fix_post	2		12	33.0	2.5	blank	1.0	191.21994543075562	0.1001443862915039
36	174.43445706367493	fix_pre	0		120	34.0	2.5	/experiments/knapen_AOT/AOT_stimuli/rescaled_final/0759_rv.mp4	0.0	191.32008981704712	1.0083324909210205
36	174.61809730529785	pulse	0	t		34.0	2.5	/experiments/knapen_AOT/AOT_stimuli/rescaled_final/0759_rv.mp4	0.0	191.50373005867004	
36	175.44278955459595	movie	1		263	34.0	2.5	/experiments/knapen_AOT/AOT_stimuli/rescaled_final/0759_rv.mp4	0.0	192.32842230796814	2.4919726848602295
36	176.21814465522766	pulse	1	t		34.0	2.5	/experiments/knapen_AOT/AOT_stimuli/rescaled_final/0759_rv.mp4	0.0	193.10377740859985	
36	177.81813383102417	pulse	1	t		34.0	2.5	/experiments/knapen_AOT/AOT_stimuli/rescaled_final/0759_rv.mp4	0.0	194.70376658439636	
36	177.93476223945618	fix_post	2		12	34.0	2.5	/experiments/knapen_AOT/AOT_stimuli/rescaled_final/0759_rv.mp4	0.0	194.82039499282837	0.1000206470489502
37	178.03478288650513	fix_pre	0		120	35.0	2.5	/experiments/knapen_AOT/AOT_stimuli/rescaled_final/0875_rv.mp4	0.0	194.92041563987732	1.0085573196411133
37	179.04334020614624	movie	1		269	35.0	2.5	/experiments/knapen_AOT/AOT_stimuli/rescaled_final/0875_rv.mp4	0.0	195.92897295951843	2.4919912815093994
37	179.41782212257385	pulse	1	t		35.0	2.5	/experiments/knapen_AOT/AOT_stimuli/rescaled_final/0875_rv.mp4	0.0	196.30345487594604	
37	181.01683068275452	pulse	1	t		35.0	2.5	/experiments/knapen_AOT/AOT_stimuli/rescaled_final/0875_rv.mp4	0.0	197.9024634361267	
37	181.53533148765564	fix_post	2		12	35.0	2.5	/experiments/knapen_AOT/AOT_stimuli/rescaled_final/0875_rv.mp4	0.0	198.42096424102783	0.10006141662597656
38	181.63539290428162	fix_pre	0		119	36.0	2.5	/experiments/knapen_AOT/AOT_stimuli/rescaled_final/0114_fw.mp4	0.0	198.5210256576538	1.0001473426818848
38	182.61905789375305	pulse	0	t		36.0	2.5	/experiments/knapen_AOT/AOT_stimuli/rescaled_final/0114_fw.mp4	0.0	199.50469064712524	
38	182.6355402469635	movie	1		283	36.0	2.5	/experiments/knapen_AOT/AOT_stimuli/rescaled_final/0114_fw.mp4	0.0	199.5211730003357	2.50030255317688
38	184.21752047538757	pulse	1	t		36.0	2.5	/experiments/knapen_AOT/AOT_stimuli/rescaled_final/0114_fw.mp4	0.0	201.10315322875977	
38	185.13584280014038	fix_post	2		12	36.0	2.5	/experiments/knapen_AOT/AOT_stimuli/rescaled_final/0114_fw.mp4	0.0	202.02147555351257	0.1000206470489502
39	185.23586344718933	fix_pre	0		120	37.0	2.5	/experiments/knapen_AOT/AOT_stimuli/rescaled_final/0286_rv.mp4	0.0	202.12149620056152	1.0084638595581055
39	185.8118917942047	pulse	0	t		37.0	2.5	/experiments/knapen_AOT/AOT_stimuli/rescaled_final/0286_rv.mp4	0.0	202.6975245475769	
39	186.24432730674744	movie	1		275	37.0	2.5	/experiments/knapen_AOT/AOT_stimuli/rescaled_final/0286_rv.mp4	0.0	203.12996006011963	2.4921231269836426
39	187.41793727874756	pulse	1	t		37.0	2.5	/experiments/knapen_AOT/AOT_stimuli/rescaled_final/0286_rv.mp4	0.0	204.30357003211975	
39	188.73645043373108	fix_post	2		12	37.0	2.5	/experiments/knapen_AOT/AOT_stimuli/rescaled_final/0286_rv.mp4	0.0	205.62208318710327	0.09994220733642578
40	188.8363926410675	fix_pre	0		120	38.0	2.5	/experiments/knapen_AOT/AOT_stimuli/rescaled_final/0295_fw.mp4	0.0	205.7220253944397	1.0085816383361816
40	189.01214957237244	pulse	0	t		38.0	2.5	/experiments/knapen_AOT/AOT_stimuli/rescaled_final/0295_fw.mp4	0.0	205.89778232574463	
40	189.8449742794037	movie	1		280	38.0	2.5	/experiments/knapen_AOT/AOT_stimuli/rescaled_final/0295_fw.mp4	0.0	206.73060703277588	2.491953134536743
40	190.61207175254822	pulse	1	t		38.0	2.5	/experiments/knapen_AOT/AOT_stimuli/rescaled_final/0295_fw.mp4	0.0	207.4977045059204	
40	192.212153673172	pulse	1	t		38.0	2.5	/experiments/knapen_AOT/AOT_stimuli/rescaled_final/0295_fw.mp4	0.0	209.0977864265442	
40	192.33692741394043	fix_post	2		12	38.0	2.5	/experiments/knapen_AOT/AOT_stimuli/rescaled_final/0295_fw.mp4	0.0	209.22256016731262	0.1000216007232666
41	192.4369490146637	fix_pre	0		120	39.0	2.5	/experiments/knapen_AOT/AOT_stimuli/rescaled_final/0646_rv.mp4	0.0	209.3225817680359	1.0084648132324219
41	193.44541382789612	movie	1		285	39.0	2.5	/experiments/knapen_AOT/AOT_stimuli/rescaled_final/0646_rv.mp4	0.0	210.3310465812683	2.4921603202819824
41	193.81237506866455	pulse	1	t		39.0	2.5	/experiments/knapen_AOT/AOT_stimuli/rescaled_final/0646_rv.mp4	0.0	210.69800782203674	
41	195.41273951530457	pulse	1	t		39.0	2.5	/experiments/knapen_AOT/AOT_stimuli/rescaled_final/0646_rv.mp4	0.0	212.29837226867676	
41	195.9375741481781	fix_post	2		12	39.0	2.5	/experiments/knapen_AOT/AOT_stimuli/rescaled_final/0646_rv.mp4	0.0	212.8232069015503	0.10001468658447266
42	196.03758883476257	fix_pre	0		118	40.0	2.5	/experiments/knapen_AOT/AOT_stimuli/rescaled_final/0675_rv.mp4	0.0	212.92322158813477	0.99173903465271
42	197.01287698745728	pulse	0	t		40.0	2.5	/experiments/knapen_AOT/AOT_stimuli/rescaled_final/0675_rv.mp4	0.0	213.89850974082947	
42	197.02932786941528	movie	1		285	40.0	2.5	/experiments/knapen_AOT/AOT_stimuli/rescaled_final/0675_rv.mp4	0.0	213.91496062278748	2.5003445148468018
42	198.61254906654358	pulse	1	t		40.0	2.5	/experiments/knapen_AOT/AOT_stimuli/rescaled_final/0675_rv.mp4	0.0	215.49818181991577	
42	199.52967238426208	fix_post	2		12	40.0	2.5	/experiments/knapen_AOT/AOT_stimuli/rescaled_final/0675_rv.mp4	0.0	216.41530513763428	0.10002303123474121
43	199.62969541549683	fix_pre	0		120	41.0	2.5	/experiments/knapen_AOT/AOT_stimuli/rescaled_final/0619_rv.mp4	0.0	216.51532816886902	1.008476734161377
43	200.21335744857788	pulse	0	t		41.0	2.5	/experiments/knapen_AOT/AOT_stimuli/rescaled_final/0619_rv.mp4	0.0	217.09899020195007	
43	200.6381721496582	movie	1		284	41.0	2.5	/experiments/knapen_AOT/AOT_stimuli/rescaled_final/0619_rv.mp4	0.0	217.5238049030304	2.4920477867126465
43	201.8137092590332	pulse	1	t		41.0	2.5	/experiments/knapen_AOT/AOT_stimuli/rescaled_final/0619_rv.mp4	0.0	218.6993420124054	
43	203.13021993637085	fix_post	2		12	41.0	2.5	/experiments/knapen_AOT/AOT_stimuli/rescaled_final/0619_rv.mp4	0.0	220.01585268974304	0.10003948211669922
44	203.23025941848755	fix_pre	0		120	42.0	2.5	blank	1.0	220.11589217185974	1.0001537799835205
44	203.41385293006897	pulse	0	t		42.0	2.5	blank	1.0	220.29948568344116	
44	204.23041319847107	movie	1		300	42.0	2.5	blank	1.0	221.11604595184326	2.5004847049713135
44	205.01406073570251	pulse	1	t		42.0	2.5	blank	1.0	221.8996934890747	
44	206.61429905891418	pulse	1	t		42.0	2.5	blank	1.0	223.49993181228638	
44	206.73089790344238	fix_post	2		12	42.0	2.5	blank	1.0	223.61653065681458	0.09987258911132812
45	206.8307704925537	fix_pre	0		120	43.0	2.5	/experiments/knapen_AOT/AOT_stimuli/rescaled_final/0074_rv.mp4	0.0	223.7164032459259	1.0085065364837646
45	207.83927702903748	movie	1		282	43.0	2.5	/experiments/knapen_AOT/AOT_stimuli/rescaled_final/0074_rv.mp4	0.0	224.72490978240967	2.492178201675415
45	208.21310925483704	pulse	1	t		43.0	2.5	/experiments/knapen_AOT/AOT_stimuli/rescaled_final/0074_rv.mp4	0.0	225.09874200820923	
45	209.81240892410278	pulse	1	t		43.0	2.5	/experiments/knapen_AOT/AOT_stimuli/rescaled_final/0074_rv.mp4	0.0	226.69804167747498	
45	210.3314552307129	fix_post	2		12	43.0	2.5	/experiments/knapen_AOT/AOT_stimuli/rescaled_final/0074_rv.mp4	0.0	227.21708798408508	0.09985089302062988
46	210.43130612373352	fix_pre	0		119	44.0	2.5	/experiments/knapen_AOT/AOT_stimuli/rescaled_final/1347_rv.mp4	0.0	227.3169388771057	1.0001564025878906
46	211.41507363319397	pulse	0	t		44.0	2.5	/experiments/knapen_AOT/AOT_stimuli/rescaled_final/1347_rv.mp4	0.0	228.30070638656616	
46	211.4314625263214	movie	1		267	44.0	2.5	/experiments/knapen_AOT/AOT_stimuli/rescaled_final/1347_rv.mp4	0.0	228.3170952796936	2.5003750324249268
46	213.01469612121582	pulse	1	t		44.0	2.5	/experiments/knapen_AOT/AOT_stimuli/rescaled_final/1347_rv.mp4	0.0	229.900328874588	
46	213.93183755874634	fix_post	2		12	44.0	2.5	/experiments/knapen_AOT/AOT_stimuli/rescaled_final/1347_rv.mp4	0.0	230.81747031211853	0.10013818740844727
47	214.03197574615479	fix_pre	0		120	45.0	2.5	/experiments/knapen_AOT/AOT_stimuli/rescaled_final/0645_fw.mp4	0.0	230.91760849952698	1.0084905624389648
47	214.61568188667297	pulse	0	t		45.0	2.5	/experiments/knapen_AOT/AOT_stimuli/rescaled_final/0645_fw.mp4	0.0	231.50131464004517	
47	215.04046630859375	movie	1		268	45.0	2.5	/experiments/knapen_AOT/AOT_stimuli/rescaled_final/0645_fw.mp4	0.0	231.92609906196594	2.491915225982666
47	216.21378588676453	pulse	1	t		45.0	2.5	/experiments/knapen_AOT/AOT_stimuli/rescaled_final/0645_fw.mp4	0.0	233.09941864013672	
47	217.53238153457642	fix_post	2		12	45.0	2.5	/experiments/knapen_AOT/AOT_stimuli/rescaled_final/0645_fw.mp4	0.0	234.4180142879486	0.10001420974731445
48	217.63239574432373	fix_pre	0		120	46.0	2.5	/experiments/knapen_AOT/AOT_stimuli/rescaled_final/1976_rv.mp4	0.0	234.51802849769592	1.008608341217041
48	217.81597328186035	pulse	0	t		46.0	2.5	/experiments/knapen_AOT/AOT_stimuli/rescaled_final/1976_rv.mp4	0.0	234.70160603523254	
48	218.64100408554077	movie	1		264	46.0	2.5	/experiments/knapen_AOT/AOT_stimuli/rescaled_final/1976_rv.mp4	0.0	235.52663683891296	2.500303268432617
48	219.4159631729126	pulse	1	t		46.0	2.5	/experiments/knapen_AOT/AOT_stimuli/rescaled_final/1976_rv.mp4	0.0	236.3015959262848	
48	221.01720714569092	pulse	1	t		46.0	2.5	/experiments/knapen_AOT/AOT_stimuli/rescaled_final/1976_rv.mp4	0.0	237.9028398990631	
48	221.1413073539734	fix_post	2		11	46.0	2.5	/experiments/knapen_AOT/AOT_stimuli/rescaled_final/1976_rv.mp4	0.0	238.02694010734558	0.09162211418151855
49	221.2329294681549	fix_pre	0		104	47.0	2.5	/experiments/knapen_AOT/AOT_stimuli/rescaled_final/1460_fw.mp4	0.0	238.1185622215271	1.0084903240203857
49	222.2414197921753	movie	1		276	47.0	2.5	/experiments/knapen_AOT/AOT_stimuli/rescaled_final/1460_fw.mp4	0.0	239.12705254554749	2.492043972015381
49	222.61695551872253	pulse	1	t		47.0	2.5	/experiments/knapen_AOT/AOT_stimuli/rescaled_final/1460_fw.mp4	0.0	239.50258827209473	
49	224.21496152877808	pulse	1	t		47.0	2.5	/experiments/knapen_AOT/AOT_stimuli/rescaled_final/1460_fw.mp4	0.0	241.10059428215027	
49	224.73346376419067	fix_post	2		12	47.0	2.5	/experiments/knapen_AOT/AOT_stimuli/rescaled_final/1460_fw.mp4	0.0	241.61909651756287	0.100006103515625
50	224.8334698677063	fix_pre	0		119	48.0	2.5	blank	1.0	241.7191026210785	0.9918386936187744
50	225.81727290153503	pulse	0	t		48.0	2.5	blank	1.0	242.70290565490723	
50	225.82530856132507	movie	1		301	48.0	2.5	blank	1.0	242.71094131469727	2.5086958408355713
50	227.41747283935547	pulse	1	t		48.0	2.5	blank	1.0	244.30310559272766	
50	228.33400440216064	fix_post	2		12	48.0	2.5	blank	1.0	245.21963715553284	0.10001444816589355
51	228.43401885032654	fix_pre	0		120	49.0	2.5	/experiments/knapen_AOT/AOT_stimuli/rescaled_final/1654_fw.mp4	0.0	245.31965160369873	1.0085155963897705
51	229.01773047447205	pulse	0	t		49.0	2.5	/experiments/knapen_AOT/AOT_stimuli/rescaled_final/1654_fw.mp4	0.0	245.90336322784424	
51	229.4425344467163	movie	1		282	49.0	2.5	/experiments/knapen_AOT/AOT_stimuli/rescaled_final/1654_fw.mp4	0.0	246.3281672000885	2.492006301879883
51	230.6161835193634	pulse	1	t		49.0	2.5	/experiments/knapen_AOT/AOT_stimuli/rescaled_final/1654_fw.mp4	0.0	247.5018162727356	
51	231.9345407485962	fix_post	2		12	49.0	2.5	/experiments/knapen_AOT/AOT_stimuli/rescaled_final/1654_fw.mp4	0.0	248.82017350196838	0.0999913215637207
52	232.0345320701599	fix_pre	0		120	50.0	2.5	/experiments/knapen_AOT/AOT_stimuli/rescaled_final/1493_fw.mp4	0.0	248.9201648235321	1.0086205005645752
52	232.21849608421326	pulse	0	t		50.0	2.5	/experiments/knapen_AOT/AOT_stimuli/rescaled_final/1493_fw.mp4	0.0	249.10412883758545	
52	233.0431525707245	movie	1		276	50.0	2.5	/experiments/knapen_AOT/AOT_stimuli/rescaled_final/1493_fw.mp4	0.0	249.92878532409668	2.4919261932373047
52	233.8161425590515	pulse	1	t		50.0	2.5	/experiments/knapen_AOT/AOT_stimuli/rescaled_final/1493_fw.mp4	0.0	250.7017753124237	
52	235.41973280906677	pulse	1	t		50.0	2.5	/experiments/knapen_AOT/AOT_stimuli/rescaled_final/1493_fw.mp4	0.0	252.30536556243896	
52	235.5350787639618	fix_post	2		12	50.0	2.5	/experiments/knapen_AOT/AOT_stimuli/rescaled_final/1493_fw.mp4	0.0	252.42071151733398	0.10002994537353516
53	235.63510870933533	fix_pre	0		120	51.0	2.5	/experiments/knapen_AOT/AOT_stimuli/rescaled_final/1618_fw.mp4	0.0	252.52074146270752	1.0085091590881348
53	236.64361786842346	movie	1		274	51.0	2.5	/experiments/knapen_AOT/AOT_stimuli/rescaled_final/1618_fw.mp4	0.0	253.52925062179565	2.4919967651367188
53	237.0177230834961	pulse	1	t		51.0	2.5	/experiments/knapen_AOT/AOT_stimuli/rescaled_final/1618_fw.mp4	0.0	253.9033558368683	
53	238.61713790893555	pulse	1	t		51.0	2.5	/experiments/knapen_AOT/AOT_stimuli/rescaled_final/1618_fw.mp4	0.0	255.50277066230774	
53	239.13561463356018	fix_post	2		12	51.0	2.5	/experiments/knapen_AOT/AOT_stimuli/rescaled_final/1618_fw.mp4	0.0	256.0212473869324	0.10001564025878906
54	239.23563027381897	fix_pre	0		118	52.0	2.5	/experiments/knapen_AOT/AOT_stimuli/rescaled_final/1428_fw.mp4	0.0	256.12126302719116	0.9918172359466553
54	240.21155643463135	pulse	0	t		52.0	2.5	/experiments/knapen_AOT/AOT_stimuli/rescaled_final/1428_fw.mp4	0.0	257.09718918800354	
54	240.22744750976562	movie	1		287	52.0	2.5	/experiments/knapen_AOT/AOT_stimuli/rescaled_final/1428_fw.mp4	0.0	257.1130802631378	2.500380754470825
54	241.8114161491394	pulse	1	t		52.0	2.5	/experiments/knapen_AOT/AOT_stimuli/rescaled_final/1428_fw.mp4	0.0	258.6970489025116	
54	242.72782826423645	fix_post	2		12	52.0	2.5	/experiments/knapen_AOT/AOT_stimuli/rescaled_final/1428_fw.mp4	0.0	259.61346101760864	0.10003399848937988
55	242.82786226272583	fix_pre	0		120	53.0	2.5	/experiments/knapen_AOT/AOT_stimuli/rescaled_final/0439_rv.mp4	0.0	259.713495016098	1.0084872245788574
55	243.41154098510742	pulse	0	t		53.0	2.5	/experiments/knapen_AOT/AOT_stimuli/rescaled_final/0439_rv.mp4	0.0	260.2971737384796	
55	243.8363494873047	movie	1		286	53.0	2.5	/experiments/knapen_AOT/AOT_stimuli/rescaled_final/0439_rv.mp4	0.0	260.7219822406769	2.492043972015381
55	245.01169300079346	pulse	1	t		53.0	2.5	/experiments/knapen_AOT/AOT_stimuli/rescaled_final/0439_rv.mp4	0.0	261.89732575416565	
55	246.32839345932007	fix_post	2		12	53.0	2.5	/experiments/knapen_AOT/AOT_stimuli/rescaled_final/0439_rv.mp4	0.0	263.21402621269226	0.10000109672546387
56	246.42839455604553	fix_pre	0		120	54.0	2.5	/experiments/knapen_AOT/AOT_stimuli/rescaled_final/0476_rv.mp4	0.0	263.3140273094177	1.0085830688476562
56	246.61193990707397	pulse	0	t		54.0	2.5	/experiments/knapen_AOT/AOT_stimuli/rescaled_final/0476_rv.mp4	0.0	263.49757266044617	
56	247.4369776248932	movie	1		264	54.0	2.5	/experiments/knapen_AOT/AOT_stimuli/rescaled_final/0476_rv.mp4	0.0	264.3226103782654	2.491941452026367
56	248.2122039794922	pulse	1	t		54.0	2.5	/experiments/knapen_AOT/AOT_stimuli/rescaled_final/0476_rv.mp4	0.0	265.0978367328644	
56	249.81250524520874	pulse	1	t		54.0	2.5	/experiments/knapen_AOT/AOT_stimuli/rescaled_final/0476_rv.mp4	0.0	266.69813799858093	
56	249.92891907691956	fix_post	2		12	54.0	2.5	/experiments/knapen_AOT/AOT_stimuli/rescaled_final/0476_rv.mp4	0.0	266.81455183029175	0.100006103515625
57	250.02892518043518	fix_pre	0		120	55.0	2.5	/experiments/knapen_AOT/AOT_stimuli/rescaled_final/1302_rv.mp4	0.0	266.9145579338074	1.0085272789001465
57	251.03745245933533	movie	1		282	55.0	2.5	/experiments/knapen_AOT/AOT_stimuli/rescaled_final/1302_rv.mp4	0.0	267.9230852127075	2.492037773132324
57	251.41267919540405	pulse	1	t		55.0	2.5	/experiments/knapen_AOT/AOT_stimuli/rescaled_final/1302_rv.mp4	0.0	268.29831194877625	
57	253.01289582252502	pulse	1	t		55.0	2.5	/experiments/knapen_AOT/AOT_stimuli/rescaled_final/1302_rv.mp4	0.0	269.8985285758972	
57	253.52949023246765	fix_post	2		12	55.0	2.5	/experiments/knapen_AOT/AOT_stimuli/rescaled_final/1302_rv.mp4	0.0	270.41512298583984	0.0999915599822998
58	253.62948179244995	fix_pre	0		119	56.0	2.5	blank	1.0	270.51511454582214	0.9918155670166016
58	254.6132776737213	pulse	0	t		56.0	2.5	blank	1.0	271.4989104270935	
58	254.62129735946655	movie	1		301	56.0	2.5	blank	1.0	271.50693011283875	2.508685827255249
58	256.21351408958435	pulse	1	t		56.0	2.5	blank	1.0	273.09914684295654	
58	257.1299831867218	fix_post	2		12	56.0	2.5	blank	1.0	274.015615940094	0.10002517700195312
59	257.23000836372375	fix_pre	0		120	57.0	2.5	/experiments/knapen_AOT/AOT_stimuli/rescaled_final/1339_fw.mp4	0.0	274.11564111709595	1.0084655284881592
59	257.8136477470398	pulse	0	t		57.0	2.5	/experiments/knapen_AOT/AOT_stimuli/rescaled_final/1339_fw.mp4	0.0	274.699280500412	
59	258.2384738922119	movie	1		277	57.0	2.5	/experiments/knapen_AOT/AOT_stimuli/rescaled_final/1339_fw.mp4	0.0	275.1241066455841	2.4920542240142822
59	259.4141843318939	pulse	1	t		57.0	2.5	/experiments/knapen_AOT/AOT_stimuli/rescaled_final/1339_fw.mp4	0.0	276.2998170852661	
59	260.7305281162262	fix_post	2		12	57.0	2.5	/experiments/knapen_AOT/AOT_stimuli/rescaled_final/1339_fw.mp4	0.0	277.6161608695984	0.10000920295715332
60	260.83053731918335	fix_pre	0		120	58.0	2.5	/experiments/knapen_AOT/AOT_stimuli/rescaled_final/1451_rv.mp4	0.0	277.71617007255554	1.0085291862487793
60	261.01408767700195	pulse	0	t		58.0	2.5	/experiments/knapen_AOT/AOT_stimuli/rescaled_final/1451_rv.mp4	0.0	277.89972043037415	
60	261.83906650543213	movie	1		276	58.0	2.5	/experiments/knapen_AOT/AOT_stimuli/rescaled_final/1451_rv.mp4	0.0	278.7246992588043	2.492011547088623
60	262.61199736595154	pulse	1	t		58.0	2.5	/experiments/knapen_AOT/AOT_stimuli/rescaled_final/1451_rv.mp4	0.0	279.49763011932373	
60	264.21331000328064	pulse	1	t		58.0	2.5	/experiments/knapen_AOT/AOT_stimuli/rescaled_final/1451_rv.mp4	0.0	281.09894275665283	
60	264.33107805252075	fix_post	2		12	58.0	2.5	/experiments/knapen_AOT/AOT_stimuli/rescaled_final/1451_rv.mp4	0.0	281.21671080589294	0.10000991821289062
61	264.43108797073364	fix_pre	0		120	59.0	2.5	/experiments/knapen_AOT/AOT_stimuli/rescaled_final/1838_fw.mp4	0.0	281.31672072410583	1.0084877014160156
61	265.43957567214966	movie	1		273	59.0	2.5	/experiments/knapen_AOT/AOT_stimuli/rescaled_final/1838_fw.mp4	0.0	282.32520842552185	2.4920711517333984
61	265.8143517971039	pulse	1	t		59.0	2.5	/experiments/knapen_AOT/AOT_stimuli/rescaled_final/1838_fw.mp4	0.0	282.6999845504761	
61	267.41317987442017	pulse	1	t		59.0	2.5	/experiments/knapen_AOT/AOT_stimuli/rescaled_final/1838_fw.mp4	0.0	284.29881262779236	
61	267.93164682388306	fix_post	2		12	59.0	2.5	/experiments/knapen_AOT/AOT_stimuli/rescaled_final/1838_fw.mp4	0.0	284.81727957725525	0.09999799728393555
62	268.031644821167	fix_pre	0		119	60.0	2.5	/experiments/knapen_AOT/AOT_stimuli/rescaled_final/0775_fw.mp4	0.0	284.9172775745392	1.0003058910369873
62	269.0153970718384	pulse	0	t		60.0	2.5	/experiments/knapen_AOT/AOT_stimuli/rescaled_final/0775_fw.mp4	0.0	285.90102982521057	
62	269.031950712204	movie	1		293	60.0	2.5	/experiments/knapen_AOT/AOT_stimuli/rescaled_final/0775_fw.mp4	0.0	285.9175834655762	2.500267267227173
62	270.61379384994507	pulse	1	t		60.0	2.5	/experiments/knapen_AOT/AOT_stimuli/rescaled_final/0775_fw.mp4	0.0	287.49942660331726	
62	271.53221797943115	fix_post	2		12	60.0	2.5	/experiments/knapen_AOT/AOT_stimuli/rescaled_final/0775_fw.mp4	0.0	288.41785073280334	0.10002446174621582
63	271.63224244117737	fix_pre	0		120	61.0	2.5	/experiments/knapen_AOT/AOT_stimuli/rescaled_final/1840_fw.mp4	0.0	288.51787519454956	1.0083975791931152
63	272.2160279750824	pulse	0	t		61.0	2.5	/experiments/knapen_AOT/AOT_stimuli/rescaled_final/1840_fw.mp4	0.0	289.1016607284546	
63	272.6406400203705	movie	1		286	61.0	2.5	/experiments/knapen_AOT/AOT_stimuli/rescaled_final/1840_fw.mp4	0.0	289.5262727737427	2.492236614227295
63	273.8139011859894	pulse	1	t		61.0	2.5	/experiments/knapen_AOT/AOT_stimuli/rescaled_final/1840_fw.mp4	0.0	290.6995339393616	
63	275.1328766345978	fix_post	2		12	61.0	2.5	/experiments/knapen_AOT/AOT_stimuli/rescaled_final/1840_fw.mp4	0.0	292.01850938796997	0.09988999366760254
64	275.2327666282654	fix_pre	0		120	62.0	2.5	/experiments/knapen_AOT/AOT_stimuli/rescaled_final/1828_rv.mp4	0.0	292.1183993816376	1.008535385131836
64	275.4163324832916	pulse	0	t		62.0	2.5	/experiments/knapen_AOT/AOT_stimuli/rescaled_final/1828_rv.mp4	0.0	292.3019652366638	
64	276.2413020133972	movie	1		282	62.0	2.5	/experiments/knapen_AOT/AOT_stimuli/rescaled_final/1828_rv.mp4	0.0	293.1269347667694	2.4919538497924805
64	277.0171813964844	pulse	1	t		62.0	2.5	/experiments/knapen_AOT/AOT_stimuli/rescaled_final/1828_rv.mp4	0.0	293.90281414985657	
64	278.6150839328766	pulse	1	t		62.0	2.5	/experiments/knapen_AOT/AOT_stimuli/rescaled_final/1828_rv.mp4	0.0	295.5007166862488	
64	278.7332558631897	fix_post	2		12	62.0	2.5	/experiments/knapen_AOT/AOT_stimuli/rescaled_final/1828_rv.mp4	0.0	295.6188886165619	0.1001286506652832
65	278.833384513855	fix_pre	0		120	63.0	2.5	blank	1.0	295.7190172672272	1.0000038146972656
65	279.83338832855225	movie	1		300	63.0	2.5	blank	1.0	296.71902108192444	2.500490188598633
65	280.2170579433441	pulse	1	t		63.0	2.5	blank	1.0	297.1026906967163	
65	281.8172678947449	pulse	1	t		63.0	2.5	blank	1.0	298.70290064811707	
65	282.3338785171509	fix_post	2		12	63.0	2.5	blank	1.0	299.21951127052307	0.09988975524902344
66	282.4337682723999	fix_pre	0		119	64.0	2.5	/experiments/knapen_AOT/AOT_stimuli/rescaled_final/1094_rv.mp4	0.0	299.3194010257721	1.0003001689910889
66	283.4174818992615	pulse	0	t		64.0	2.5	/experiments/knapen_AOT/AOT_stimuli/rescaled_final/1094_rv.mp4	0.0	300.30311465263367	
66	283.434068441391	movie	1		283	64.0	2.5	/experiments/knapen_AOT/AOT_stimuli/rescaled_final/1094_rv.mp4	0.0	300.3197011947632	2.5003364086151123
66	285.0168285369873	pulse	1	t		64.0	2.5	/experiments/knapen_AOT/AOT_stimuli/rescaled_final/1094_rv.mp4	0.0	301.9024612903595	
66	285.9344048500061	fix_post	2		12	64.0	2.5	/experiments/knapen_AOT/AOT_stimuli/rescaled_final/1094_rv.mp4	0.0	302.8200376033783	0.09993767738342285
67	286.0343425273895	fix_pre	0		120	65.0	2.5	/experiments/knapen_AOT/AOT_stimuli/rescaled_final/1921_fw.mp4	0.0	302.9199752807617	1.0084519386291504
67	286.6180465221405	pulse	0	t		65.0	2.5	/experiments/knapen_AOT/AOT_stimuli/rescaled_final/1921_fw.mp4	0.0	303.5036792755127	
67	287.0427944660187	movie	1		274	65.0	2.5	/experiments/knapen_AOT/AOT_stimuli/rescaled_final/1921_fw.mp4	0.0	303.92842721939087	2.4920670986175537
67	288.2163579463959	pulse	1	t		65.0	2.5	/experiments/knapen_AOT/AOT_stimuli/rescaled_final/1921_fw.mp4	0.0	305.10199069976807	
67	289.53486156463623	fix_post	2		12	65.0	2.5	/experiments/knapen_AOT/AOT_stimuli/rescaled_final/1921_fw.mp4	0.0	306.4204943180084	0.10005497932434082
68	289.63491654396057	fix_pre	0		120	66.0	2.5	/experiments/knapen_AOT/AOT_stimuli/rescaled_final/2063_rv.mp4	0.0	306.52054929733276	1.0084497928619385
68	289.81846809387207	pulse	0	t		66.0	2.5	/experiments/knapen_AOT/AOT_stimuli/rescaled_final/2063_rv.mp4	0.0	306.70410084724426	
68	290.6433663368225	movie	1		286	66.0	2.5	/experiments/knapen_AOT/AOT_stimuli/rescaled_final/2063_rv.mp4	0.0	307.5289990901947	2.49204683303833
68	291.41680574417114	pulse	1	t		66.0	2.5	/experiments/knapen_AOT/AOT_stimuli/rescaled_final/2063_rv.mp4	0.0	308.30243849754333	
68	293.0188641548157	pulse	1	t		66.0	2.5	/experiments/knapen_AOT/AOT_stimuli/rescaled_final/2063_rv.mp4	0.0	309.90449690818787	
68	293.13541316986084	fix_post	2		12	66.0	2.5	/experiments/knapen_AOT/AOT_stimuli/rescaled_final/2063_rv.mp4	0.0	310.02104592323303	0.10007524490356445
69	293.2354884147644	fix_pre	0		120	67.0	2.5	/experiments/knapen_AOT/AOT_stimuli/rescaled_final/2042_fw.mp4	0.0	310.1211211681366	1.0084404945373535
69	294.24392890930176	movie	1		275	67.0	2.5	/experiments/knapen_AOT/AOT_stimuli/rescaled_final/2042_fw.mp4	0.0	311.12956166267395	2.492011547088623
69	294.61847257614136	pulse	1	t		67.0	2.5	/experiments/knapen_AOT/AOT_stimuli/rescaled_final/2042_fw.mp4	0.0	311.50410532951355	
69	296.2188630104065	pulse	1	t		67.0	2.5	/experiments/knapen_AOT/AOT_stimuli/rescaled_final/2042_fw.mp4	0.0	313.1044957637787	
69	296.7359404563904	fix_post	2		12	67.0	2.5	/experiments/knapen_AOT/AOT_stimuli/rescaled_final/2042_fw.mp4	0.0	313.6215732097626	0.10001492500305176
70	296.83595538139343	fix_pre	0		119	68.0	2.5	/experiments/knapen_AOT/AOT_stimuli/rescaled_final/1618_fw.mp4	0.0	313.7215881347656	1.000157356262207
70	297.8133156299591	pulse	0	t		68.0	2.5	/experiments/knapen_AOT/AOT_stimuli/rescaled_final/1618_fw.mp4	0.0	314.6989483833313	
70	297.83611273765564	movie	1		278	68.0	2.5	/experiments/knapen_AOT/AOT_stimuli/rescaled_final/1618_fw.mp4	0.0	314.72174549102783	2.5003952980041504
70	299.41196179389954	pulse	1	t		68.0	2.5	/experiments/knapen_AOT/AOT_stimuli/rescaled_final/1618_fw.mp4	0.0	316.29759454727173	
70	300.3365080356598	fix_post	2		12	68.0	2.5	/experiments/knapen_AOT/AOT_stimuli/rescaled_final/1618_fw.mp4	0.0	317.222140789032	0.09996795654296875
71	300.43647599220276	fix_pre	0		120	69.0	2.5	/experiments/knapen_AOT/AOT_stimuli/rescaled_final/1666_fw.mp4	0.0	317.32210874557495	1.008512258529663
71	301.0118405818939	pulse	0	t		69.0	2.5	/experiments/knapen_AOT/AOT_stimuli/rescaled_final/1666_fw.mp4	0.0	317.8974733352661	
71	301.4449882507324	movie	1		278	69.0	2.5	/experiments/knapen_AOT/AOT_stimuli/rescaled_final/1666_fw.mp4	0.0	318.3306210041046	2.5003740787506104
71	302.6122453212738	pulse	1	t		69.0	2.5	/experiments/knapen_AOT/AOT_stimuli/rescaled_final/1666_fw.mp4	0.0	319.497878074646	
71	303.94536232948303	fix_post	2		11	69.0	2.5	/experiments/knapen_AOT/AOT_stimuli/rescaled_final/1666_fw.mp4	0.0	320.8309950828552	0.09168505668640137
72	304.03704738616943	fix_pre	0		120	70.0	2.5	blank	1.0	320.9226801395416	1.0001933574676514
72	304.212345123291	pulse	0	t		70.0	2.5	blank	1.0	321.0979778766632	
72	305.0372407436371	movie	1		300	70.0	2.5	blank	1.0	321.9228734970093	2.5003373622894287
72	305.8125126361847	pulse	1	t		70.0	2.5	blank	1.0	322.6981453895569	
72	307.412766456604	pulse	1	t		70.0	2.5	blank	1.0	324.2983992099762	
72	307.5375781059265	fix_post	2		12	70.0	2.5	blank	1.0	324.4232108592987	0.10000777244567871
73	307.6375858783722	fix_pre	0		120	71.0	2.5	/experiments/knapen_AOT/AOT_stimuli/rescaled_final/2177_fw.mp4	0.0	324.5232186317444	1.0084617137908936
73	308.6460475921631	movie	1		275	71.0	2.5	/experiments/knapen_AOT/AOT_stimuli/rescaled_final/2177_fw.mp4	0.0	325.5316803455353	2.4920473098754883
73	309.01223945617676	pulse	1	t		71.0	2.5	/experiments/knapen_AOT/AOT_stimuli/rescaled_final/2177_fw.mp4	0.0	325.89787220954895	
73	310.6148808002472	pulse	1	t		71.0	2.5	/experiments/knapen_AOT/AOT_stimuli/rescaled_final/2177_fw.mp4	0.0	327.5005135536194	
73	311.1380949020386	fix_post	2		12	71.0	2.5	/experiments/knapen_AOT/AOT_stimuli/rescaled_final/2177_fw.mp4	0.0	328.02372765541077	0.10000491142272949
74	311.2380998134613	fix_pre	0		118	72.0	2.5	/experiments/knapen_AOT/AOT_stimuli/rescaled_final/1719_rv.mp4	0.0	328.1237325668335	0.9918344020843506
74	312.213476896286	pulse	0	t		72.0	2.5	/experiments/knapen_AOT/AOT_stimuli/rescaled_final/1719_rv.mp4	0.0	329.0991096496582	
74	312.22993421554565	movie	1		280	72.0	2.5	/experiments/knapen_AOT/AOT_stimuli/rescaled_final/1719_rv.mp4	0.0	329.11556696891785	2.5004196166992188
74	313.81199502944946	pulse	1	t		72.0	2.5	/experiments/knapen_AOT/AOT_stimuli/rescaled_final/1719_rv.mp4	0.0	330.69762778282166	
74	314.7303538322449	fix_post	2		12	72.0	2.5	/experiments/knapen_AOT/AOT_stimuli/rescaled_final/1719_rv.mp4	0.0	331.61598658561707	0.09994864463806152
75	314.83030247688293	fix_pre	0		120	73.0	2.5	/experiments/knapen_AOT/AOT_stimuli/rescaled_final/1918_fw.mp4	0.0	331.7159352302551	1.0086085796356201
75	315.41410279273987	pulse	0	t		73.0	2.5	/experiments/knapen_AOT/AOT_stimuli/rescaled_final/1918_fw.mp4	0.0	332.29973554611206	
75	315.83891105651855	movie	1		270	73.0	2.5	/experiments/knapen_AOT/AOT_stimuli/rescaled_final/1918_fw.mp4	0.0	332.72454380989075	2.4919307231903076
75	317.0131058692932	pulse	1	t		73.0	2.5	/experiments/knapen_AOT/AOT_stimuli/rescaled_final/1918_fw.mp4	0.0	333.8987386226654	
75	318.33084177970886	fix_post	2		12	73.0	2.5	/experiments/knapen_AOT/AOT_stimuli/rescaled_final/1918_fw.mp4	0.0	335.21647453308105	0.10010385513305664
76	318.4309456348419	fix_pre	0		120	74.0	2.5	/experiments/knapen_AOT/AOT_stimuli/rescaled_final/0166_fw.mp4	0.0	335.3165783882141	1.0084466934204102
76	318.614474773407	pulse	0	t		74.0	2.5	/experiments/knapen_AOT/AOT_stimuli/rescaled_final/0166_fw.mp4	0.0	335.5001075267792	
76	319.43939232826233	movie	1		277	74.0	2.5	/experiments/knapen_AOT/AOT_stimuli/rescaled_final/0166_fw.mp4	0.0	336.3250250816345	2.4919931888580322
76	320.21318888664246	pulse	1	t		74.0	2.5	/experiments/knapen_AOT/AOT_stimuli/rescaled_final/0166_fw.mp4	0.0	337.09882164001465	
76	321.8145422935486	pulse	1	t		74.0	2.5	/experiments/knapen_AOT/AOT_stimuli/rescaled_final/0166_fw.mp4	0.0	338.7001750469208	
76	321.93138551712036	fix_post	2		12	74.0	2.5	/experiments/knapen_AOT/AOT_stimuli/rescaled_final/0166_fw.mp4	0.0	338.81701827049255	0.10000371932983398
77	322.0313892364502	fix_pre	0		120	75.0	2.5	blank	1.0	338.9170219898224	1.0001707077026367
77	323.03155994415283	movie	1		300	75.0	2.5	blank	1.0	339.917192697525	2.5003652572631836
77	323.4151372909546	pulse	1	t		75.0	2.5	blank	1.0	340.3007700443268	
77	325.0153913497925	pulse	1	t		75.0	2.5	blank	1.0	341.9010241031647	
77	325.531925201416	fix_post	2		12	75.0	2.5	blank	1.0	342.4175579547882	0.10003042221069336
78	325.6319556236267	fix_pre	0		119	76.0	2.5	/experiments/knapen_AOT/AOT_stimuli/rescaled_final/0415_fw.mp4	0.0	342.5175883769989	1.0001120567321777
78	326.61564588546753	pulse	0	t		76.0	2.5	/experiments/knapen_AOT/AOT_stimuli/rescaled_final/0415_fw.mp4	0.0	343.5012786388397	
78	326.6320676803589	movie	1		279	76.0	2.5	/experiments/knapen_AOT/AOT_stimuli/rescaled_final/0415_fw.mp4	0.0	343.5177004337311	2.5003881454467773
78	328.2141082286835	pulse	1	t		76.0	2.5	/experiments/knapen_AOT/AOT_stimuli/rescaled_final/0415_fw.mp4	0.0	345.09974098205566	
78	329.13245582580566	fix_post	2		12	76.0	2.5	/experiments/knapen_AOT/AOT_stimuli/rescaled_final/0415_fw.mp4	0.0	346.01808857917786	0.10006308555603027
79	329.2325189113617	fix_pre	0		120	77.0	2.5	/experiments/knapen_AOT/AOT_stimuli/rescaled_final/1624_rv.mp4	0.0	346.1181516647339	1.0084736347198486
79	329.8161768913269	pulse	0	t		77.0	2.5	/experiments/knapen_AOT/AOT_stimuli/rescaled_final/1624_rv.mp4	0.0	346.7018096446991	
79	330.24099254608154	movie	1		277	77.0	2.5	/experiments/knapen_AOT/AOT_stimuli/rescaled_final/1624_rv.mp4	0.0	347.12662529945374	2.4920427799224854
79	331.4157819747925	pulse	1	t		77.0	2.5	/experiments/knapen_AOT/AOT_stimuli/rescaled_final/1624_rv.mp4	0.0	348.3014147281647	
79	332.733035326004	fix_post	2		12	77.0	2.5	/experiments/knapen_AOT/AOT_stimuli/rescaled_final/1624_rv.mp4	0.0	349.6186680793762	0.09997844696044922
80	332.8330137729645	fix_pre	0		120	78.0	2.5	/experiments/knapen_AOT/AOT_stimuli/rescaled_final/1858_fw.mp4	0.0	349.71864652633667	1.008488655090332
80	333.01659202575684	pulse	0	t		78.0	2.5	/experiments/knapen_AOT/AOT_stimuli/rescaled_final/1858_fw.mp4	0.0	349.902224779129	
80	333.8415024280548	movie	1		281	78.0	2.5	/experiments/knapen_AOT/AOT_stimuli/rescaled_final/1858_fw.mp4	0.0	350.727135181427	2.4920406341552734
80	334.6164038181305	pulse	1	t		78.0	2.5	/experiments/knapen_AOT/AOT_stimuli/rescaled_final/1858_fw.mp4	0.0	351.5020365715027	
80	336.21552419662476	pulse	1	t		78.0	2.5	/experiments/knapen_AOT/AOT_stimuli/rescaled_final/1858_fw.mp4	0.0	353.10115694999695	
80	336.3335430622101	fix_post	2		12	78.0	2.5	/experiments/knapen_AOT/AOT_stimuli/rescaled_final/1858_fw.mp4	0.0	353.2191758155823	0.10001158714294434
81	336.433554649353	fix_pre	0		120	79.0	2.5	/experiments/knapen_AOT/AOT_stimuli/rescaled_final/0891_rv.mp4	0.0	353.3191874027252	1.0085396766662598
81	337.4420943260193	movie	1		278	79.0	2.5	/experiments/knapen_AOT/AOT_stimuli/rescaled_final/0891_rv.mp4	0.0	354.3277270793915	2.4921905994415283
81	337.81561827659607	pulse	1	t		79.0	2.5	/experiments/knapen_AOT/AOT_stimuli/rescaled_final/0891_rv.mp4	0.0	354.70125102996826	
81	339.4160499572754	pulse	1	t		79.0	2.5	/experiments/knapen_AOT/AOT_stimuli/rescaled_final/0891_rv.mp4	0.0	356.3016827106476	
81	339.9342849254608	fix_post	2		12	79.0	2.5	/experiments/knapen_AOT/AOT_stimuli/rescaled_final/0891_rv.mp4	0.0	356.819917678833	0.09981966018676758
82	340.0341045856476	fix_pre	0		119	80.0	2.5	/experiments/knapen_AOT/AOT_stimuli/rescaled_final/2075_rv.mp4	0.0	356.9197373390198	1.0085668563842773
82	341.01779651641846	pulse	0	t		80.0	2.5	/experiments/knapen_AOT/AOT_stimuli/rescaled_final/2075_rv.mp4	0.0	357.90342926979065	
82	341.04267144203186	movie	1		277	80.0	2.5	/experiments/knapen_AOT/AOT_stimuli/rescaled_final/2075_rv.mp4	0.0	357.92830419540405	2.491957426071167
82	342.61688113212585	pulse	1	t		80.0	2.5	/experiments/knapen_AOT/AOT_stimuli/rescaled_final/2075_rv.mp4	0.0	359.50251388549805	
82	343.534628868103	fix_post	2		12	80.0	2.5	/experiments/knapen_AOT/AOT_stimuli/rescaled_final/2075_rv.mp4	0.0	360.4202616214752	0.10005831718444824
83	343.6346871852875	fix_pre	0		120	81.0	2.5	/experiments/knapen_AOT/AOT_stimuli/rescaled_final/0286_rv.mp4	0.0	360.52031993865967	1.008467435836792
83	344.21828269958496	pulse	0	t		81.0	2.5	/experiments/knapen_AOT/AOT_stimuli/rescaled_final/0286_rv.mp4	0.0	361.10391545295715	
83	344.64315462112427	movie	1		267	81.0	2.5	/experiments/knapen_AOT/AOT_stimuli/rescaled_final/0286_rv.mp4	0.0	361.52878737449646	2.4920403957366943
83	345.81915187835693	pulse	1	t		81.0	2.5	/experiments/knapen_AOT/AOT_stimuli/rescaled_final/0286_rv.mp4	0.0	362.7047846317291	
83	347.13519501686096	fix_post	2		12	81.0	2.5	/experiments/knapen_AOT/AOT_stimuli/rescaled_final/0286_rv.mp4	0.0	364.02082777023315	0.10000133514404297
84	347.235196352005	fix_pre	0		120	82.0	2.5	/experiments/knapen_AOT/AOT_stimuli/rescaled_final/1523_fw.mp4	0.0	364.1208291053772	1.0084776878356934
84	347.41872239112854	pulse	0	t		82.0	2.5	/experiments/knapen_AOT/AOT_stimuli/rescaled_final/1523_fw.mp4	0.0	364.30435514450073	
84	348.2436740398407	movie	1		280	82.0	2.5	/experiments/knapen_AOT/AOT_stimuli/rescaled_final/1523_fw.mp4	0.0	365.1293067932129	2.4920337200164795
84	349.01853942871094	pulse	1	t		82.0	2.5	/experiments/knapen_AOT/AOT_stimuli/rescaled_final/1523_fw.mp4	0.0	365.90417218208313	
84	350.6172616481781	pulse	1	t		82.0	2.5	/experiments/knapen_AOT/AOT_stimuli/rescaled_final/1523_fw.mp4	0.0	367.5028944015503	
84	350.7357077598572	fix_post	2		12	82.0	2.5	/experiments/knapen_AOT/AOT_stimuli/rescaled_final/1523_fw.mp4	0.0	367.62134051322937	0.10004687309265137
85	350.83575463294983	fix_pre	0		120	83.0	2.5	blank	1.0	367.721387386322	1.0001239776611328
85	351.83587861061096	movie	1		300	83.0	2.5	blank	1.0	368.72151136398315	2.500420331954956
85	352.2195475101471	pulse	1	t		83.0	2.5	blank	1.0	369.1051802635193	
85	353.81972908973694	pulse	1	t		83.0	2.5	blank	1.0	370.70536184310913	
85	354.3362989425659	fix_post	2		12	83.0	2.5	blank	1.0	371.2219316959381	0.12507939338684082
87	354.46137833595276	stim	0		1712					371.34701108932495	14.268689632415771
87	355.41226387023926	pulse	0	t						372.29789662361145	
87	357.0123975276947	pulse	0	t						373.8980302810669	
87	358.61238288879395	pulse	0	t						375.49801564216614	
87	360.2124357223511	pulse	0	t						377.09806847572327	
87	361.8126633167267	pulse	0	t						378.6982960700989	
87	363.4128429889679	pulse	0	t						380.2984757423401	
87	365.01305174827576	pulse	0	t						381.89868450164795	
87	366.6132984161377	pulse	0	t						383.4989311695099	
87	368.21355509757996	pulse	0	t						385.09918785095215	
