trial_nr	onset	event_type	phase	response	nr_frames	movie_index	movie_duration	movie_file	blank	onset_abs	duration
0	0.2166910171508789	stim	0		84					22.849305152893066	0.699988842010498
0	0.9085729122161865	response	0	space						23.541187047958374	
1	0.916679859161377	stim	0		4892					23.549293994903564	40.78240513801575
1	41.689241886138916	pulse	0	t						64.3218560218811	
1	41.699084997177124	stim	1		1714					64.33169913291931	14.300843000411987
1	43.2814838886261	pulse	1	t						65.91409802436829	
1	44.881762981414795	pulse	1	t						67.51437711715698	
1	46.4820659160614	pulse	1	t						69.11468005180359	
1	48.082228899002075	pulse	1	t						70.71484303474426	
1	49.68248987197876	pulse	1	t						72.31510400772095	
1	51.28268885612488	pulse	1	t						73.91530299186707	
1	52.88290095329285	pulse	1	t						75.51551508903503	
1	54.483099937438965	pulse	1	t						77.11571407318115	
2	55.99992799758911	fix_pre	0		11	0.0	2.5	/experiments/knapen_AOT/AOT_stimuli/rescaled_final/1037_rv.mp4	0.0	78.6325421333313	0.09169197082519531
2	56.08340287208557	pulse	0	t		0.0	2.5	/experiments/knapen_AOT/AOT_stimuli/rescaled_final/1037_rv.mp4	0.0	78.71601700782776	
2	56.09161996841431	movie	1		243	0.0	2.5	/experiments/knapen_AOT/AOT_stimuli/rescaled_final/1037_rv.mp4	0.0	78.7242341041565	2.508723020553589
2	57.68426179885864	pulse	1	t		0.0	2.5	/experiments/knapen_AOT/AOT_stimuli/rescaled_final/1037_rv.mp4	0.0	80.31687593460083	
2	58.600342988967896	fix_post	2		12	0.0	2.5	/experiments/knapen_AOT/AOT_stimuli/rescaled_final/1037_rv.mp4	0.0	81.23295712471008	0.09994792938232422
3	58.70029091835022	fix_pre	0		120	1.0	2.5	/experiments/knapen_AOT/AOT_stimuli/rescaled_final/2035_fw.mp4	0.0	81.33290505409241	1.0001380443572998
3	59.28392195701599	pulse	0	t		1.0	2.5	/experiments/knapen_AOT/AOT_stimuli/rescaled_final/2035_fw.mp4	0.0	81.91653609275818	
3	59.70042896270752	movie	1		244	1.0	2.5	/experiments/knapen_AOT/AOT_stimuli/rescaled_final/2035_fw.mp4	0.0	82.3330430984497	2.500347852706909
3	60.88418388366699	pulse	1	t		1.0	2.5	/experiments/knapen_AOT/AOT_stimuli/rescaled_final/2035_fw.mp4	0.0	83.51679801940918	
3	62.20077681541443	fix_post	2		12	1.0	2.5	/experiments/knapen_AOT/AOT_stimuli/rescaled_final/2035_fw.mp4	0.0	84.83339095115662	0.10009407997131348
4	62.30087089538574	fix_pre	0		120	2.0	2.5	/experiments/knapen_AOT/AOT_stimuli/rescaled_final/1953_fw.mp4	0.0	84.93348503112793	1.0001020431518555
4	62.48439884185791	pulse	0	t		2.0	2.5	/experiments/knapen_AOT/AOT_stimuli/rescaled_final/1953_fw.mp4	0.0	85.1170129776001	
4	63.3009729385376	movie	1		243	2.0	2.5	/experiments/knapen_AOT/AOT_stimuli/rescaled_final/1953_fw.mp4	0.0	85.93358707427979	2.5003809928894043
4	64.08466696739197	pulse	1	t		2.0	2.5	/experiments/knapen_AOT/AOT_stimuli/rescaled_final/1953_fw.mp4	0.0	86.71728110313416	
4	65.68492197990417	pulse	1	t		2.0	2.5	/experiments/knapen_AOT/AOT_stimuli/rescaled_final/1953_fw.mp4	0.0	88.31753611564636	
4	65.801353931427	fix_post	2		12	2.0	2.5	/experiments/knapen_AOT/AOT_stimuli/rescaled_final/1953_fw.mp4	0.0	88.43396806716919	0.10005903244018555
5	65.90141296386719	fix_pre	0		120	3.0	2.5	/experiments/knapen_AOT/AOT_stimuli/rescaled_final/0857_fw.mp4	0.0	88.53402709960938	1.0000629425048828
5	66.90147590637207	movie	1		242	3.0	2.5	/experiments/knapen_AOT/AOT_stimuli/rescaled_final/0857_fw.mp4	0.0	89.53409004211426	2.492032051086426
5	67.28566789627075	pulse	1	t		3.0	2.5	/experiments/knapen_AOT/AOT_stimuli/rescaled_final/0857_fw.mp4	0.0	89.91828203201294	
5	68.88538694381714	pulse	1	t		3.0	2.5	/experiments/knapen_AOT/AOT_stimuli/rescaled_final/0857_fw.mp4	0.0	91.51800107955933	
5	69.3935079574585	fix_post	2		12	3.0	2.5	/experiments/knapen_AOT/AOT_stimuli/rescaled_final/0857_fw.mp4	0.0	92.02612209320068	0.10002589225769043
6	69.49353384971619	fix_pre	0		120	4.0	2.5	/experiments/knapen_AOT/AOT_stimuli/rescaled_final/0194_fw.mp4	0.0	92.12614798545837	1.0002260208129883
6	70.48559880256653	pulse	0	t		4.0	2.5	/experiments/knapen_AOT/AOT_stimuli/rescaled_final/0194_fw.mp4	0.0	93.11821293830872	
6	70.49375987052917	movie	1		249	4.0	2.5	/experiments/knapen_AOT/AOT_stimuli/rescaled_final/0194_fw.mp4	0.0	93.12637400627136	2.5086541175842285
6	72.08679294586182	pulse	1	t		4.0	2.5	/experiments/knapen_AOT/AOT_stimuli/rescaled_final/0194_fw.mp4	0.0	94.719407081604	
6	73.0024139881134	fix_post	2		12	4.0	2.5	/experiments/knapen_AOT/AOT_stimuli/rescaled_final/0194_fw.mp4	0.0	95.63502812385559	0.10004401206970215
7	73.1024580001831	fix_pre	0		120	5.0	2.5	/experiments/knapen_AOT/AOT_stimuli/rescaled_final/0825_rv.mp4	0.0	95.7350721359253	1.000140905380249
7	73.6860339641571	pulse	0	t		5.0	2.5	/experiments/knapen_AOT/AOT_stimuli/rescaled_final/0825_rv.mp4	0.0	96.31864809989929	
7	74.10259890556335	movie	1		244	5.0	2.5	/experiments/knapen_AOT/AOT_stimuli/rescaled_final/0825_rv.mp4	0.0	96.73521304130554	2.500339984893799
7	75.28633880615234	pulse	1	t		5.0	2.5	/experiments/knapen_AOT/AOT_stimuli/rescaled_final/0825_rv.mp4	0.0	97.91895294189453	
7	76.60293889045715	fix_post	2		12	5.0	2.5	/experiments/knapen_AOT/AOT_stimuli/rescaled_final/0825_rv.mp4	0.0	99.23555302619934	0.10002708435058594
8	76.70296597480774	fix_pre	0		120	6.0	2.5	/experiments/knapen_AOT/AOT_stimuli/rescaled_final/0223_fw.mp4	0.0	99.33558011054993	1.000135898590088
8	76.88660979270935	pulse	0	t		6.0	2.5	/experiments/knapen_AOT/AOT_stimuli/rescaled_final/0223_fw.mp4	0.0	99.51922392845154	
8	77.70310187339783	movie	1		243	6.0	2.5	/experiments/knapen_AOT/AOT_stimuli/rescaled_final/0223_fw.mp4	0.0	100.33571600914001	2.500380039215088
8	78.4794659614563	pulse	1	t		6.0	2.5	/experiments/knapen_AOT/AOT_stimuli/rescaled_final/0223_fw.mp4	0.0	101.11208009719849	
8	80.08698081970215	pulse	1	t		6.0	2.5	/experiments/knapen_AOT/AOT_stimuli/rescaled_final/0223_fw.mp4	0.0	102.71959495544434	
8	80.20348191261292	fix_post	2		12	6.0	2.5	/experiments/knapen_AOT/AOT_stimuli/rescaled_final/0223_fw.mp4	0.0	102.8360960483551	0.10003304481506348
9	80.30351495742798	fix_pre	0		120	7.0	2.5	blank	1.0	102.93612909317017	1.0001628398895264
9	81.3036777973175	movie	1		299	7.0	2.5	blank	1.0	103.93629193305969	2.4919910430908203
9	81.67969489097595	pulse	1	t		7.0	2.5	blank	1.0	104.31230902671814	
9	83.27991986274719	pulse	1	t		7.0	2.5	blank	1.0	105.91253399848938	
9	83.79566884040833	fix_post	2		12	7.0	2.5	blank	1.0	106.42828297615051	0.10003995895385742
10	83.89570879936218	fix_pre	0		119	8.0	2.5	/experiments/knapen_AOT/AOT_stimuli/rescaled_final/0585_rv.mp4	0.0	106.52832293510437	0.9918482303619385
10	84.87932085990906	pulse	0	t		8.0	2.5	/experiments/knapen_AOT/AOT_stimuli/rescaled_final/0585_rv.mp4	0.0	107.51193499565125	
10	84.88755702972412	movie	1		245	8.0	2.5	/experiments/knapen_AOT/AOT_stimuli/rescaled_final/0585_rv.mp4	0.0	107.52017116546631	2.5086569786071777
10	86.48022484779358	pulse	1	t		8.0	2.5	/experiments/knapen_AOT/AOT_stimuli/rescaled_final/0585_rv.mp4	0.0	109.11283898353577	
10	87.3962140083313	fix_post	2		12	8.0	2.5	/experiments/knapen_AOT/AOT_stimuli/rescaled_final/0585_rv.mp4	0.0	110.02882814407349	0.1000058650970459
11	87.49621987342834	fix_pre	0		120	9.0	2.5	/experiments/knapen_AOT/AOT_stimuli/rescaled_final/2097_fw.mp4	0.0	110.12883400917053	1.0001771450042725
11	88.07984495162964	pulse	0	t		9.0	2.5	/experiments/knapen_AOT/AOT_stimuli/rescaled_final/2097_fw.mp4	0.0	110.71245908737183	
11	88.49639701843262	movie	1		243	9.0	2.5	/experiments/knapen_AOT/AOT_stimuli/rescaled_final/2097_fw.mp4	0.0	111.1290111541748	2.5003647804260254
11	89.6801598072052	pulse	1	t		9.0	2.5	/experiments/knapen_AOT/AOT_stimuli/rescaled_final/2097_fw.mp4	0.0	112.31277394294739	
11	90.99676179885864	fix_post	2		12	9.0	2.5	/experiments/knapen_AOT/AOT_stimuli/rescaled_final/2097_fw.mp4	0.0	113.62937593460083	0.10009503364562988
12	91.09685683250427	fix_pre	0		120	10.0	2.5	/experiments/knapen_AOT/AOT_stimuli/rescaled_final/1020_fw.mp4	0.0	113.72947096824646	1.000075101852417
12	91.28034687042236	pulse	0	t		10.0	2.5	/experiments/knapen_AOT/AOT_stimuli/rescaled_final/1020_fw.mp4	0.0	113.91296100616455	
12	92.09693193435669	movie	1		245	10.0	2.5	/experiments/knapen_AOT/AOT_stimuli/rescaled_final/1020_fw.mp4	0.0	114.72954607009888	2.500369071960449
12	92.88067698478699	pulse	1	t		10.0	2.5	/experiments/knapen_AOT/AOT_stimuli/rescaled_final/1020_fw.mp4	0.0	115.51329112052917	
12	94.48080897331238	pulse	1	t		10.0	2.5	/experiments/knapen_AOT/AOT_stimuli/rescaled_final/1020_fw.mp4	0.0	117.11342310905457	
12	94.59730100631714	fix_post	2		12	10.0	2.5	/experiments/knapen_AOT/AOT_stimuli/rescaled_final/1020_fw.mp4	0.0	117.22991514205933	0.09999799728393555
13	94.69729900360107	fix_pre	0		120	11.0	2.5	/experiments/knapen_AOT/AOT_stimuli/rescaled_final/1847_rv.mp4	0.0	117.32991313934326	1.0001728534698486
13	95.69747185707092	movie	1		242	11.0	2.5	/experiments/knapen_AOT/AOT_stimuli/rescaled_final/1847_rv.mp4	0.0	118.33008599281311	2.4921250343322754
13	96.0815978050232	pulse	1	t		11.0	2.5	/experiments/knapen_AOT/AOT_stimuli/rescaled_final/1847_rv.mp4	0.0	118.71421194076538	
13	97.68122482299805	pulse	1	t		11.0	2.5	/experiments/knapen_AOT/AOT_stimuli/rescaled_final/1847_rv.mp4	0.0	120.31383895874023	
13	98.1895968914032	fix_post	2		12	11.0	2.5	/experiments/knapen_AOT/AOT_stimuli/rescaled_final/1847_rv.mp4	0.0	120.82221102714539	0.09998607635498047
14	98.28958296775818	fix_pre	0		120	12.0	2.5	/experiments/knapen_AOT/AOT_stimuli/rescaled_final/0912_fw.mp4	0.0	120.92219710350037	1.0001518726348877
14	99.28161597251892	pulse	0	t		12.0	2.5	/experiments/knapen_AOT/AOT_stimuli/rescaled_final/0912_fw.mp4	0.0	121.91423010826111	
14	99.28973484039307	movie	1		245	12.0	2.5	/experiments/knapen_AOT/AOT_stimuli/rescaled_final/0912_fw.mp4	0.0	121.92234897613525	2.508660078048706
14	100.88305401802063	pulse	1	t		12.0	2.5	/experiments/knapen_AOT/AOT_stimuli/rescaled_final/0912_fw.mp4	0.0	123.51566815376282	
14	101.79839491844177	fix_post	2		12	12.0	2.5	/experiments/knapen_AOT/AOT_stimuli/rescaled_final/0912_fw.mp4	0.0	124.43100905418396	0.10001993179321289
15	101.89841485023499	fix_pre	0		120	13.0	2.5	blank	1.0	124.53102898597717	1.0001530647277832
15	102.48201584815979	pulse	0	t		13.0	2.5	blank	1.0	125.11462998390198	
15	102.89856791496277	movie	1		300	13.0	2.5	blank	1.0	125.53118205070496	2.500361919403076
15	104.08217883110046	pulse	1	t		13.0	2.5	blank	1.0	126.71479296684265	
15	105.39892983436584	fix_post	2		12	13.0	2.5	blank	1.0	128.03154397010803	0.09999918937683105
16	105.49892902374268	fix_pre	0		120	14.0	2.5	/experiments/knapen_AOT/AOT_stimuli/rescaled_final/2160_rv.mp4	0.0	128.13154315948486	1.000147819519043
16	105.6825819015503	pulse	0	t		14.0	2.5	/experiments/knapen_AOT/AOT_stimuli/rescaled_final/2160_rv.mp4	0.0	128.31519603729248	
16	106.49907684326172	movie	1		244	14.0	2.5	/experiments/knapen_AOT/AOT_stimuli/rescaled_final/2160_rv.mp4	0.0	129.1316909790039	2.500370979309082
16	107.28279089927673	pulse	1	t		14.0	2.5	/experiments/knapen_AOT/AOT_stimuli/rescaled_final/2160_rv.mp4	0.0	129.91540503501892	
16	108.88061094284058	pulse	1	t		14.0	2.5	/experiments/knapen_AOT/AOT_stimuli/rescaled_final/2160_rv.mp4	0.0	131.51322507858276	
16	108.9994478225708	fix_post	2		12	14.0	2.5	/experiments/knapen_AOT/AOT_stimuli/rescaled_final/2160_rv.mp4	0.0	131.632061958313	0.10005307197570801
17	109.09950089454651	fix_pre	0		120	15.0	2.5	/experiments/knapen_AOT/AOT_stimuli/rescaled_final/0402_rv.mp4	0.0	131.7321150302887	1.000154972076416
17	110.09965586662292	movie	1		243	15.0	2.5	/experiments/knapen_AOT/AOT_stimuli/rescaled_final/0402_rv.mp4	0.0	132.7322700023651	2.492017984390259
17	110.4846978187561	pulse	1	t		15.0	2.5	/experiments/knapen_AOT/AOT_stimuli/rescaled_final/0402_rv.mp4	0.0	133.1173119544983	
17	112.08346581459045	pulse	1	t		15.0	2.5	/experiments/knapen_AOT/AOT_stimuli/rescaled_final/0402_rv.mp4	0.0	134.71607995033264	
17	112.59167385101318	fix_post	2		12	15.0	2.5	/experiments/knapen_AOT/AOT_stimuli/rescaled_final/0402_rv.mp4	0.0	135.22428798675537	0.10000014305114746
18	112.69167399406433	fix_pre	0		120	16.0	2.5	/experiments/knapen_AOT/AOT_stimuli/rescaled_final/0324_rv.mp4	0.0	135.32428812980652	1.00016188621521
18	113.68369483947754	pulse	0	t		16.0	2.5	/experiments/knapen_AOT/AOT_stimuli/rescaled_final/0324_rv.mp4	0.0	136.31630897521973	
18	113.69183588027954	movie	1		244	16.0	2.5	/experiments/knapen_AOT/AOT_stimuli/rescaled_final/0324_rv.mp4	0.0	136.32445001602173	2.5087361335754395
18	115.28784680366516	pulse	1	t		16.0	2.5	/experiments/knapen_AOT/AOT_stimuli/rescaled_final/0324_rv.mp4	0.0	137.92046093940735	
18	116.20057201385498	fix_post	2		9	16.0	2.5	/experiments/knapen_AOT/AOT_stimuli/rescaled_final/0324_rv.mp4	0.0	138.83318614959717	0.10002493858337402
19	116.30059695243835	fix_pre	0		120	17.0	2.5	/experiments/knapen_AOT/AOT_stimuli/rescaled_final/1134_fw.mp4	0.0	138.93321108818054	1.0000910758972168
19	116.88410496711731	pulse	0	t		17.0	2.5	/experiments/knapen_AOT/AOT_stimuli/rescaled_final/1134_fw.mp4	0.0	139.5167191028595	
19	117.30068802833557	movie	1		245	17.0	2.5	/experiments/knapen_AOT/AOT_stimuli/rescaled_final/1134_fw.mp4	0.0	139.93330216407776	2.5003879070281982
19	118.48446488380432	pulse	1	t		17.0	2.5	/experiments/knapen_AOT/AOT_stimuli/rescaled_final/1134_fw.mp4	0.0	141.1170790195465	
19	119.80107593536377	fix_post	2		12	17.0	2.5	/experiments/knapen_AOT/AOT_stimuli/rescaled_final/1134_fw.mp4	0.0	142.43369007110596	0.09997797012329102
20	119.90105390548706	fix_pre	0		120	18.0	2.5	/experiments/knapen_AOT/AOT_stimuli/rescaled_final/1687_rv.mp4	0.0	142.53366804122925	1.0001978874206543
20	120.08473992347717	pulse	0	t		18.0	2.5	/experiments/knapen_AOT/AOT_stimuli/rescaled_final/1687_rv.mp4	0.0	142.71735405921936	
20	120.90125179290771	movie	1		244	18.0	2.5	/experiments/knapen_AOT/AOT_stimuli/rescaled_final/1687_rv.mp4	0.0	143.5338659286499	2.5003371238708496
20	121.6849730014801	pulse	1	t		18.0	2.5	/experiments/knapen_AOT/AOT_stimuli/rescaled_final/1687_rv.mp4	0.0	144.3175871372223	
20	123.28516697883606	pulse	1	t		18.0	2.5	/experiments/knapen_AOT/AOT_stimuli/rescaled_final/1687_rv.mp4	0.0	145.91778111457825	
20	123.40158891677856	fix_post	2		12	18.0	2.5	/experiments/knapen_AOT/AOT_stimuli/rescaled_final/1687_rv.mp4	0.0	146.03420305252075	0.10006403923034668
21	123.50165295600891	fix_pre	0		120	19.0	2.5	blank	1.0	146.1342670917511	1.0001728534698486
21	124.50182580947876	movie	1		299	19.0	2.5	blank	1.0	147.13443994522095	2.492025136947632
21	124.88533186912537	pulse	1	t		19.0	2.5	blank	1.0	147.51794600486755	
21	126.48562097549438	pulse	1	t		19.0	2.5	blank	1.0	149.11823511123657	
21	126.99385094642639	fix_post	2		12	19.0	2.5	blank	1.0	149.62646508216858	0.09998798370361328
22	127.09383893013	fix_pre	0		120	20.0	2.5	/experiments/knapen_AOT/AOT_stimuli/rescaled_final/0223_rv.mp4	0.0	149.7264530658722	1.0001599788665771
22	128.08591198921204	pulse	0	t		20.0	2.5	/experiments/knapen_AOT/AOT_stimuli/rescaled_final/0223_rv.mp4	0.0	150.71852612495422	
22	128.09399890899658	movie	1		244	20.0	2.5	/experiments/knapen_AOT/AOT_stimuli/rescaled_final/0223_rv.mp4	0.0	150.72661304473877	2.5086779594421387
22	129.68654084205627	pulse	1	t		20.0	2.5	/experiments/knapen_AOT/AOT_stimuli/rescaled_final/0223_rv.mp4	0.0	152.31915497779846	
22	130.60267686843872	fix_post	2		12	20.0	2.5	/experiments/knapen_AOT/AOT_stimuli/rescaled_final/0223_rv.mp4	0.0	153.2352910041809	0.10000896453857422
23	130.7026858329773	fix_pre	0		120	21.0	2.5	/experiments/knapen_AOT/AOT_stimuli/rescaled_final/1258_rv.mp4	0.0	153.33529996871948	1.0001561641693115
23	131.2788689136505	pulse	0	t		21.0	2.5	/experiments/knapen_AOT/AOT_stimuli/rescaled_final/1258_rv.mp4	0.0	153.9114830493927	
23	131.7028419971466	movie	1		245	21.0	2.5	/experiments/knapen_AOT/AOT_stimuli/rescaled_final/1258_rv.mp4	0.0	154.3354561328888	2.5003528594970703
23	132.88012599945068	pulse	1	t		21.0	2.5	/experiments/knapen_AOT/AOT_stimuli/rescaled_final/1258_rv.mp4	0.0	155.51274013519287	
23	134.20319485664368	fix_post	2		12	21.0	2.5	/experiments/knapen_AOT/AOT_stimuli/rescaled_final/1258_rv.mp4	0.0	156.83580899238586	0.09999704360961914
24	134.3031919002533	fix_pre	0		120	22.0	2.5	/experiments/knapen_AOT/AOT_stimuli/rescaled_final/0182_fw.mp4	0.0	156.93580603599548	1.000204086303711
24	134.47919583320618	pulse	0	t		22.0	2.5	/experiments/knapen_AOT/AOT_stimuli/rescaled_final/0182_fw.mp4	0.0	157.11180996894836	
24	135.303395986557	movie	1		243	22.0	2.5	/experiments/knapen_AOT/AOT_stimuli/rescaled_final/0182_fw.mp4	0.0	157.9360101222992	2.500324010848999
24	136.07955598831177	pulse	1	t		22.0	2.5	/experiments/knapen_AOT/AOT_stimuli/rescaled_final/0182_fw.mp4	0.0	158.71217012405396	
24	137.68708491325378	pulse	1	t		22.0	2.5	/experiments/knapen_AOT/AOT_stimuli/rescaled_final/0182_fw.mp4	0.0	160.31969904899597	
24	137.803719997406	fix_post	2		12	22.0	2.5	/experiments/knapen_AOT/AOT_stimuli/rescaled_final/0182_fw.mp4	0.0	160.4363341331482	0.10005998611450195
25	137.9037799835205	fix_pre	0		120	23.0	2.5	/experiments/knapen_AOT/AOT_stimuli/rescaled_final/0323_fw.mp4	0.0	160.5363941192627	1.0001418590545654
25	138.90392184257507	movie	1		243	23.0	2.5	/experiments/knapen_AOT/AOT_stimuli/rescaled_final/0323_fw.mp4	0.0	161.53653597831726	2.492014169692993
25	139.27911591529846	pulse	1	t		23.0	2.5	/experiments/knapen_AOT/AOT_stimuli/rescaled_final/0323_fw.mp4	0.0	161.91173005104065	
25	140.87940096855164	pulse	1	t		23.0	2.5	/experiments/knapen_AOT/AOT_stimuli/rescaled_final/0323_fw.mp4	0.0	163.51201510429382	
25	141.39593601226807	fix_post	2		12	23.0	2.5	/experiments/knapen_AOT/AOT_stimuli/rescaled_final/0323_fw.mp4	0.0	164.02855014801025	0.10003781318664551
26	141.4959738254547	fix_pre	0		119	24.0	2.5	/experiments/knapen_AOT/AOT_stimuli/rescaled_final/0814_fw.mp4	0.0	164.1285879611969	0.991811990737915
26	142.47971391677856	pulse	0	t		24.0	2.5	/experiments/knapen_AOT/AOT_stimuli/rescaled_final/0814_fw.mp4	0.0	165.11232805252075	
26	142.48778581619263	movie	1		246	24.0	2.5	/experiments/knapen_AOT/AOT_stimuli/rescaled_final/0814_fw.mp4	0.0	165.12039995193481	2.5086920261383057
26	144.0803918838501	pulse	1	t		24.0	2.5	/experiments/knapen_AOT/AOT_stimuli/rescaled_final/0814_fw.mp4	0.0	166.71300601959229	
26	144.99647784233093	fix_post	2		12	24.0	2.5	/experiments/knapen_AOT/AOT_stimuli/rescaled_final/0814_fw.mp4	0.0	167.62909197807312	0.10001206398010254
27	145.09648990631104	fix_pre	0		120	25.0	2.5	/experiments/knapen_AOT/AOT_stimuli/rescaled_final/0012_fw.mp4	0.0	167.72910404205322	1.0001769065856934
27	145.68013501167297	pulse	0	t		25.0	2.5	/experiments/knapen_AOT/AOT_stimuli/rescaled_final/0012_fw.mp4	0.0	168.31274914741516	
27	146.09666681289673	movie	1		244	25.0	2.5	/experiments/knapen_AOT/AOT_stimuli/rescaled_final/0012_fw.mp4	0.0	168.72928094863892	2.5003490447998047
27	147.2804238796234	pulse	1	t		25.0	2.5	/experiments/knapen_AOT/AOT_stimuli/rescaled_final/0012_fw.mp4	0.0	169.9130380153656	
27	148.59701585769653	fix_post	2		12	25.0	2.5	/experiments/knapen_AOT/AOT_stimuli/rescaled_final/0012_fw.mp4	0.0	171.22962999343872	0.1000220775604248
28	148.69703793525696	fix_pre	0		120	26.0	2.5	blank	1.0	171.32965207099915	1.00022292137146
28	148.88057279586792	pulse	0	t		26.0	2.5	blank	1.0	171.5131869316101	
28	149.69726085662842	movie	1		300	26.0	2.5	blank	1.0	172.3298749923706	2.500293016433716
28	150.48088097572327	pulse	1	t		26.0	2.5	blank	1.0	173.11349511146545	
28	152.08103895187378	pulse	1	t		26.0	2.5	blank	1.0	174.71365308761597	
28	152.19755387306213	fix_post	2		12	26.0	2.5	blank	1.0	174.83016800880432	0.10006093978881836
29	152.29761481285095	fix_pre	0		120	27.0	2.5	/experiments/knapen_AOT/AOT_stimuli/rescaled_final/1614_fw.mp4	0.0	174.93022894859314	1.0002381801605225
29	153.29785299301147	movie	1		243	27.0	2.5	/experiments/knapen_AOT/AOT_stimuli/rescaled_final/1614_fw.mp4	0.0	175.93046712875366	2.491982936859131
29	153.68624186515808	pulse	1	t		27.0	2.5	/experiments/knapen_AOT/AOT_stimuli/rescaled_final/1614_fw.mp4	0.0	176.31885600090027	
29	155.28162479400635	pulse	1	t		27.0	2.5	/experiments/knapen_AOT/AOT_stimuli/rescaled_final/1614_fw.mp4	0.0	177.91423892974854	
29	155.7898359298706	fix_post	2		12	27.0	2.5	/experiments/knapen_AOT/AOT_stimuli/rescaled_final/1614_fw.mp4	0.0	178.4224500656128	0.10000491142272949
30	155.88984084129333	fix_pre	0		120	28.0	2.5	/experiments/knapen_AOT/AOT_stimuli/rescaled_final/0847_rv.mp4	0.0	178.52245497703552	1.0001051425933838
30	156.88175892829895	pulse	0	t		28.0	2.5	/experiments/knapen_AOT/AOT_stimuli/rescaled_final/0847_rv.mp4	0.0	179.51437306404114	
30	156.88994598388672	movie	1		245	28.0	2.5	/experiments/knapen_AOT/AOT_stimuli/rescaled_final/0847_rv.mp4	0.0	179.5225601196289	2.5086679458618164
30	158.48262095451355	pulse	1	t		28.0	2.5	/experiments/knapen_AOT/AOT_stimuli/rescaled_final/0847_rv.mp4	0.0	181.11523509025574	
30	159.39861392974854	fix_post	2		12	28.0	2.5	/experiments/knapen_AOT/AOT_stimuli/rescaled_final/0847_rv.mp4	0.0	182.03122806549072	0.10010600090026855
31	159.4987199306488	fix_pre	0		120	29.0	2.5	/experiments/knapen_AOT/AOT_stimuli/rescaled_final/0547_fw.mp4	0.0	182.131334066391	1.0001699924468994
31	160.08225893974304	pulse	0	t		29.0	2.5	/experiments/knapen_AOT/AOT_stimuli/rescaled_final/0547_fw.mp4	0.0	182.71487307548523	
31	160.4988899230957	movie	1		244	29.0	2.5	/experiments/knapen_AOT/AOT_stimuli/rescaled_final/0547_fw.mp4	0.0	183.1315040588379	2.500286102294922
31	161.68278193473816	pulse	1	t		29.0	2.5	/experiments/knapen_AOT/AOT_stimuli/rescaled_final/0547_fw.mp4	0.0	184.31539607048035	
31	162.99917602539062	fix_post	2		12	29.0	2.5	/experiments/knapen_AOT/AOT_stimuli/rescaled_final/0547_fw.mp4	0.0	185.6317901611328	0.10007882118225098
32	163.09925484657288	fix_pre	0		120	30.0	2.5	/experiments/knapen_AOT/AOT_stimuli/rescaled_final/0880_rv.mp4	0.0	185.73186898231506	1.0000941753387451
32	163.2827389240265	pulse	0	t		30.0	2.5	/experiments/knapen_AOT/AOT_stimuli/rescaled_final/0880_rv.mp4	0.0	185.91535305976868	
32	164.09934902191162	movie	1		244	30.0	2.5	/experiments/knapen_AOT/AOT_stimuli/rescaled_final/0880_rv.mp4	0.0	186.7319631576538	2.500377893447876
32	164.88298082351685	pulse	1	t		30.0	2.5	/experiments/knapen_AOT/AOT_stimuli/rescaled_final/0880_rv.mp4	0.0	187.51559495925903	
32	166.4851038455963	pulse	1	t		30.0	2.5	/experiments/knapen_AOT/AOT_stimuli/rescaled_final/0880_rv.mp4	0.0	189.1177179813385	
32	166.5997269153595	fix_post	2		12	30.0	2.5	/experiments/knapen_AOT/AOT_stimuli/rescaled_final/0880_rv.mp4	0.0	189.23234105110168	0.10001492500305176
33	166.69974184036255	fix_pre	0		120	31.0	2.5	/experiments/knapen_AOT/AOT_stimuli/rescaled_final/1552_fw.mp4	0.0	189.33235597610474	1.0001859664916992
33	167.69992780685425	movie	1		243	31.0	2.5	/experiments/knapen_AOT/AOT_stimuli/rescaled_final/1552_fw.mp4	0.0	190.33254194259644	2.4919650554656982
33	168.0840539932251	pulse	1	t		31.0	2.5	/experiments/knapen_AOT/AOT_stimuli/rescaled_final/1552_fw.mp4	0.0	190.71666812896729	
33	169.68380498886108	pulse	1	t		31.0	2.5	/experiments/knapen_AOT/AOT_stimuli/rescaled_final/1552_fw.mp4	0.0	192.31641912460327	
33	170.19189286231995	fix_post	2		12	31.0	2.5	/experiments/knapen_AOT/AOT_stimuli/rescaled_final/1552_fw.mp4	0.0	192.82450699806213	0.10004401206970215
34	170.29193687438965	fix_pre	0		120	32.0	2.5	/experiments/knapen_AOT/AOT_stimuli/rescaled_final/1778_fw.mp4	0.0	192.92455101013184	1.0001239776611328
34	171.28395295143127	pulse	0	t		32.0	2.5	/experiments/knapen_AOT/AOT_stimuli/rescaled_final/1778_fw.mp4	0.0	193.91656708717346	
34	171.29206085205078	movie	1		245	32.0	2.5	/experiments/knapen_AOT/AOT_stimuli/rescaled_final/1778_fw.mp4	0.0	193.92467498779297	2.508725166320801
34	172.8852880001068	pulse	1	t		32.0	2.5	/experiments/knapen_AOT/AOT_stimuli/rescaled_final/1778_fw.mp4	0.0	195.517902135849	
34	173.80078601837158	fix_post	2		9	32.0	2.5	/experiments/knapen_AOT/AOT_stimuli/rescaled_final/1778_fw.mp4	0.0	196.43340015411377	0.10001397132873535
35	173.90079998970032	fix_pre	0		120	33.0	2.5	blank	1.0	196.5334141254425	1.0001540184020996
35	174.4844949245453	pulse	0	t		33.0	2.5	blank	1.0	197.11710906028748	
35	174.90095400810242	movie	1		300	33.0	2.5	blank	1.0	197.5335681438446	2.500417947769165
35	176.08473896980286	pulse	1	t		33.0	2.5	blank	1.0	198.71735310554504	
35	177.40137195587158	fix_post	2		12	33.0	2.5	blank	1.0	200.03398609161377	0.09998893737792969
36	177.5013608932495	fix_pre	0		120	34.0	2.5	/experiments/knapen_AOT/AOT_stimuli/rescaled_final/0598_fw.mp4	0.0	200.1339750289917	1.0001959800720215
36	177.68496799468994	pulse	0	t		34.0	2.5	/experiments/knapen_AOT/AOT_stimuli/rescaled_final/0598_fw.mp4	0.0	200.31758213043213	
36	178.50155687332153	movie	1		248	34.0	2.5	/experiments/knapen_AOT/AOT_stimuli/rescaled_final/0598_fw.mp4	0.0	201.13417100906372	2.500361919403076
36	179.285080909729	pulse	1	t		34.0	2.5	/experiments/knapen_AOT/AOT_stimuli/rescaled_final/0598_fw.mp4	0.0	201.9176950454712	
36	180.88533687591553	pulse	1	t		34.0	2.5	/experiments/knapen_AOT/AOT_stimuli/rescaled_final/0598_fw.mp4	0.0	203.51795101165771	
36	181.0019187927246	fix_post	2		12	34.0	2.5	/experiments/knapen_AOT/AOT_stimuli/rescaled_final/0598_fw.mp4	0.0	203.6345329284668	0.0999760627746582
37	181.10189485549927	fix_pre	0		120	35.0	2.5	/experiments/knapen_AOT/AOT_stimuli/rescaled_final/0927_rv.mp4	0.0	203.73450899124146	1.000136137008667
37	182.10203099250793	movie	1		241	35.0	2.5	/experiments/knapen_AOT/AOT_stimuli/rescaled_final/0927_rv.mp4	0.0	204.73464512825012	2.492027997970581
37	182.48611402511597	pulse	1	t		35.0	2.5	/experiments/knapen_AOT/AOT_stimuli/rescaled_final/0927_rv.mp4	0.0	205.11872816085815	
37	184.08589696884155	pulse	1	t		35.0	2.5	/experiments/knapen_AOT/AOT_stimuli/rescaled_final/0927_rv.mp4	0.0	206.71851110458374	
37	184.59405899047852	fix_post	2		12	35.0	2.5	/experiments/knapen_AOT/AOT_stimuli/rescaled_final/0927_rv.mp4	0.0	207.2266731262207	0.1000359058380127
38	184.69409489631653	fix_pre	0		120	36.0	2.5	/experiments/knapen_AOT/AOT_stimuli/rescaled_final/2153_rv.mp4	0.0	207.32670903205872	1.0001909732818604
38	185.68606901168823	pulse	0	t		36.0	2.5	/experiments/knapen_AOT/AOT_stimuli/rescaled_final/2153_rv.mp4	0.0	208.31868314743042	
38	185.6942858695984	movie	1		244	36.0	2.5	/experiments/knapen_AOT/AOT_stimuli/rescaled_final/2153_rv.mp4	0.0	208.32690000534058	2.5086569786071777
38	187.29047393798828	pulse	1	t		36.0	2.5	/experiments/knapen_AOT/AOT_stimuli/rescaled_final/2153_rv.mp4	0.0	209.92308807373047	
38	188.20294284820557	fix_post	2		12	36.0	2.5	/experiments/knapen_AOT/AOT_stimuli/rescaled_final/2153_rv.mp4	0.0	210.83555698394775	0.100006103515625
39	188.3029489517212	fix_pre	0		120	37.0	2.5	/experiments/knapen_AOT/AOT_stimuli/rescaled_final/0646_rv.mp4	0.0	210.93556308746338	1.000143051147461
39	188.88668990135193	pulse	0	t		37.0	2.5	/experiments/knapen_AOT/AOT_stimuli/rescaled_final/0646_rv.mp4	0.0	211.51930403709412	
39	189.30309200286865	movie	1		245	37.0	2.5	/experiments/knapen_AOT/AOT_stimuli/rescaled_final/0646_rv.mp4	0.0	211.93570613861084	2.5004258155822754
39	190.4797878265381	pulse	1	t		37.0	2.5	/experiments/knapen_AOT/AOT_stimuli/rescaled_final/0646_rv.mp4	0.0	213.11240196228027	
39	191.80351781845093	fix_post	2		12	37.0	2.5	/experiments/knapen_AOT/AOT_stimuli/rescaled_final/0646_rv.mp4	0.0	214.43613195419312	0.09997200965881348
40	191.90348982810974	fix_pre	0		120	38.0	2.5	/experiments/knapen_AOT/AOT_stimuli/rescaled_final/0300_rv.mp4	0.0	214.53610396385193	1.000223159790039
40	192.07961583137512	pulse	0	t		38.0	2.5	/experiments/knapen_AOT/AOT_stimuli/rescaled_final/0300_rv.mp4	0.0	214.7122299671173	
40	192.90371298789978	movie	1		244	38.0	2.5	/experiments/knapen_AOT/AOT_stimuli/rescaled_final/0300_rv.mp4	0.0	215.53632712364197	2.5002999305725098
40	193.67990493774414	pulse	1	t		38.0	2.5	/experiments/knapen_AOT/AOT_stimuli/rescaled_final/0300_rv.mp4	0.0	216.31251907348633	
40	195.28726601600647	pulse	1	t		38.0	2.5	/experiments/knapen_AOT/AOT_stimuli/rescaled_final/0300_rv.mp4	0.0	217.91988015174866	
40	195.4040129184723	fix_post	2		12	38.0	2.5	/experiments/knapen_AOT/AOT_stimuli/rescaled_final/0300_rv.mp4	0.0	218.03662705421448	0.10001301765441895
41	195.5040259361267	fix_pre	0		119	39.0	2.5	/experiments/knapen_AOT/AOT_stimuli/rescaled_final/1035_rv.mp4	0.0	218.1366400718689	0.9918649196624756
41	196.49589085578918	movie	1		245	39.0	2.5	/experiments/knapen_AOT/AOT_stimuli/rescaled_final/1035_rv.mp4	0.0	219.12850499153137	2.500312089920044
41	196.88002681732178	pulse	1	t		39.0	2.5	/experiments/knapen_AOT/AOT_stimuli/rescaled_final/1035_rv.mp4	0.0	219.51264095306396	
41	198.47975087165833	pulse	1	t		39.0	2.5	/experiments/knapen_AOT/AOT_stimuli/rescaled_final/1035_rv.mp4	0.0	221.1123650074005	
41	198.99620294570923	fix_post	2		12	39.0	2.5	/experiments/knapen_AOT/AOT_stimuli/rescaled_final/1035_rv.mp4	0.0	221.62881708145142	0.10003900527954102
42	199.09624195098877	fix_pre	0		119	40.0	2.5	/experiments/knapen_AOT/AOT_stimuli/rescaled_final/0223_fw.mp4	0.0	221.72885608673096	0.9918079376220703
42	200.0799310207367	pulse	0	t		40.0	2.5	/experiments/knapen_AOT/AOT_stimuli/rescaled_final/0223_fw.mp4	0.0	222.71254515647888	
42	200.08804988861084	movie	1		244	40.0	2.5	/experiments/knapen_AOT/AOT_stimuli/rescaled_final/0223_fw.mp4	0.0	222.72066402435303	2.508742094039917
42	201.6806390285492	pulse	1	t		40.0	2.5	/experiments/knapen_AOT/AOT_stimuli/rescaled_final/0223_fw.mp4	0.0	224.31325316429138	
42	202.59679198265076	fix_post	2		12	40.0	2.5	/experiments/knapen_AOT/AOT_stimuli/rescaled_final/0223_fw.mp4	0.0	225.22940611839294	0.10001897811889648
43	202.69681096076965	fix_pre	0		120	41.0	2.5	/experiments/knapen_AOT/AOT_stimuli/rescaled_final/1630_rv.mp4	0.0	225.32942509651184	1.000196933746338
43	203.2804069519043	pulse	0	t		41.0	2.5	/experiments/knapen_AOT/AOT_stimuli/rescaled_final/1630_rv.mp4	0.0	225.91302108764648	
43	203.697007894516	movie	1		244	41.0	2.5	/experiments/knapen_AOT/AOT_stimuli/rescaled_final/1630_rv.mp4	0.0	226.32962203025818	2.5002739429473877
43	204.88078999519348	pulse	1	t		41.0	2.5	/experiments/knapen_AOT/AOT_stimuli/rescaled_final/1630_rv.mp4	0.0	227.51340413093567	
43	206.19728183746338	fix_post	2		12	41.0	2.5	/experiments/knapen_AOT/AOT_stimuli/rescaled_final/1630_rv.mp4	0.0	228.82989597320557	0.10006904602050781
44	206.2973508834839	fix_pre	0		120	42.0	2.5	blank	1.0	228.92996501922607	1.0001099109649658
44	206.48095798492432	pulse	0	t		42.0	2.5	blank	1.0	229.1135721206665	
44	207.29746079444885	movie	1		300	42.0	2.5	blank	1.0	229.93007493019104	2.500415086746216
44	208.08105993270874	pulse	1	t		42.0	2.5	blank	1.0	230.71367406845093	
44	209.68131279945374	pulse	1	t		42.0	2.5	blank	1.0	232.31392693519592	
44	209.79787588119507	fix_post	2		12	42.0	2.5	blank	1.0	232.43049001693726	0.10004091262817383
45	209.89791679382324	fix_pre	0		120	43.0	2.5	/experiments/knapen_AOT/AOT_stimuli/rescaled_final/2097_rv.mp4	0.0	232.53053092956543	1.0000770092010498
45	210.8979938030243	movie	1		242	43.0	2.5	/experiments/knapen_AOT/AOT_stimuli/rescaled_final/2097_rv.mp4	0.0	233.53060793876648	2.4920570850372314
45	211.2827308177948	pulse	1	t		43.0	2.5	/experiments/knapen_AOT/AOT_stimuli/rescaled_final/2097_rv.mp4	0.0	233.915344953537	
45	212.88192892074585	pulse	1	t		43.0	2.5	/experiments/knapen_AOT/AOT_stimuli/rescaled_final/2097_rv.mp4	0.0	235.51454305648804	
45	213.39005088806152	fix_post	2		12	43.0	2.5	/experiments/knapen_AOT/AOT_stimuli/rescaled_final/2097_rv.mp4	0.0	236.0226650238037	0.10004901885986328
46	213.4900999069214	fix_pre	0		120	44.0	2.5	/experiments/knapen_AOT/AOT_stimuli/rescaled_final/2071_fw.mp4	0.0	236.12271404266357	1.000128984451294
46	214.4820740222931	pulse	0	t		44.0	2.5	/experiments/knapen_AOT/AOT_stimuli/rescaled_final/2071_fw.mp4	0.0	237.11468815803528	
46	214.49022889137268	movie	1		244	44.0	2.5	/experiments/knapen_AOT/AOT_stimuli/rescaled_final/2071_fw.mp4	0.0	237.12284302711487	2.5086851119995117
46	216.08282685279846	pulse	1	t		44.0	2.5	/experiments/knapen_AOT/AOT_stimuli/rescaled_final/2071_fw.mp4	0.0	238.71544098854065	
46	216.9989140033722	fix_post	2		12	44.0	2.5	/experiments/knapen_AOT/AOT_stimuli/rescaled_final/2071_fw.mp4	0.0	239.63152813911438	0.1000218391418457
47	217.09893584251404	fix_pre	0		120	45.0	2.5	/experiments/knapen_AOT/AOT_stimuli/rescaled_final/2141_rv.mp4	0.0	239.73154997825623	1.0001859664916992
47	217.68254780769348	pulse	0	t		45.0	2.5	/experiments/knapen_AOT/AOT_stimuli/rescaled_final/2141_rv.mp4	0.0	240.31516194343567	
47	218.09912180900574	movie	1		243	45.0	2.5	/experiments/knapen_AOT/AOT_stimuli/rescaled_final/2141_rv.mp4	0.0	240.73173594474792	2.5003230571746826
47	219.28296995162964	pulse	1	t		45.0	2.5	/experiments/knapen_AOT/AOT_stimuli/rescaled_final/2141_rv.mp4	0.0	241.91558408737183	
47	220.59944486618042	fix_post	2		12	45.0	2.5	/experiments/knapen_AOT/AOT_stimuli/rescaled_final/2141_rv.mp4	0.0	243.2320590019226	0.10008502006530762
48	220.69952988624573	fix_pre	0		120	46.0	2.5	/experiments/knapen_AOT/AOT_stimuli/rescaled_final/0646_rv.mp4	0.0	243.33214402198792	1.0000801086425781
48	220.88307881355286	pulse	0	t		46.0	2.5	/experiments/knapen_AOT/AOT_stimuli/rescaled_final/0646_rv.mp4	0.0	243.51569294929504	
48	221.6996099948883	movie	1		245	46.0	2.5	/experiments/knapen_AOT/AOT_stimuli/rescaled_final/0646_rv.mp4	0.0	244.3322241306305	2.5003879070281982
48	222.48326897621155	pulse	1	t		46.0	2.5	/experiments/knapen_AOT/AOT_stimuli/rescaled_final/0646_rv.mp4	0.0	245.11588311195374	
48	224.08352088928223	pulse	1	t		46.0	2.5	/experiments/knapen_AOT/AOT_stimuli/rescaled_final/0646_rv.mp4	0.0	246.7161350250244	
48	224.1999979019165	fix_post	2		12	46.0	2.5	/experiments/knapen_AOT/AOT_stimuli/rescaled_final/0646_rv.mp4	0.0	246.8326120376587	0.10000205039978027
49	224.29999995231628	fix_pre	0		120	47.0	2.5	/experiments/knapen_AOT/AOT_stimuli/rescaled_final/1227_rv.mp4	0.0	246.93261408805847	1.000133991241455
49	225.30013394355774	movie	1		243	47.0	2.5	/experiments/knapen_AOT/AOT_stimuli/rescaled_final/1227_rv.mp4	0.0	247.93274807929993	2.492058038711548
49	225.68422293663025	pulse	1	t		47.0	2.5	/experiments/knapen_AOT/AOT_stimuli/rescaled_final/1227_rv.mp4	0.0	248.31683707237244	
49	227.28409600257874	pulse	1	t		47.0	2.5	/experiments/knapen_AOT/AOT_stimuli/rescaled_final/1227_rv.mp4	0.0	249.91671013832092	
49	227.7921919822693	fix_post	2		12	47.0	2.5	/experiments/knapen_AOT/AOT_stimuli/rescaled_final/1227_rv.mp4	0.0	250.42480611801147	0.09999585151672363
50	227.892187833786	fix_pre	0		120	48.0	2.5	/experiments/knapen_AOT/AOT_stimuli/rescaled_final/1847_fw.mp4	0.0	250.5248019695282	1.0001671314239502
50	228.88421988487244	pulse	0	t		48.0	2.5	/experiments/knapen_AOT/AOT_stimuli/rescaled_final/1847_fw.mp4	0.0	251.51683402061462	
50	228.89235496520996	movie	1		244	48.0	2.5	/experiments/knapen_AOT/AOT_stimuli/rescaled_final/1847_fw.mp4	0.0	251.52496910095215	2.5087389945983887
50	230.48866081237793	pulse	1	t		48.0	2.5	/experiments/knapen_AOT/AOT_stimuli/rescaled_final/1847_fw.mp4	0.0	253.12127494812012	
50	231.40109395980835	fix_post	2		12	48.0	2.5	/experiments/knapen_AOT/AOT_stimuli/rescaled_final/1847_fw.mp4	0.0	254.03370809555054	0.0999748706817627
51	231.5010688304901	fix_pre	0		120	49.0	2.5	blank	1.0	254.1336829662323	1.000148057937622
51	232.08461093902588	pulse	0	t		49.0	2.5	blank	1.0	254.71722507476807	
51	232.50121688842773	movie	1		300	49.0	2.5	blank	1.0	255.13383102416992	2.5004351139068604
51	233.6849489212036	pulse	1	t		49.0	2.5	blank	1.0	256.3175630569458	
51	235.0016520023346	fix_post	2		12	49.0	2.5	blank	1.0	257.6342661380768	0.1000068187713623
52	235.10165882110596	fix_pre	0		120	50.0	2.5	/experiments/knapen_AOT/AOT_stimuli/rescaled_final/0925_fw.mp4	0.0	257.73427295684814	1.0001201629638672
52	235.28517889976501	pulse	0	t		50.0	2.5	/experiments/knapen_AOT/AOT_stimuli/rescaled_final/0925_fw.mp4	0.0	257.9177930355072	
52	236.10177898406982	movie	1		241	50.0	2.5	/experiments/knapen_AOT/AOT_stimuli/rescaled_final/0925_fw.mp4	0.0	258.734393119812	2.5003318786621094
52	236.88545989990234	pulse	1	t		50.0	2.5	/experiments/knapen_AOT/AOT_stimuli/rescaled_final/0925_fw.mp4	0.0	259.51807403564453	
52	238.48570895195007	pulse	1	t		50.0	2.5	/experiments/knapen_AOT/AOT_stimuli/rescaled_final/0925_fw.mp4	0.0	261.11832308769226	
52	238.60211086273193	fix_post	2		12	50.0	2.5	/experiments/knapen_AOT/AOT_stimuli/rescaled_final/0925_fw.mp4	0.0	261.2347249984741	0.10006093978881836
53	238.70217180252075	fix_pre	0		120	51.0	2.5	/experiments/knapen_AOT/AOT_stimuli/rescaled_final/0012_rv.mp4	0.0	261.33478593826294	1.0001850128173828
53	239.70235681533813	movie	1		243	51.0	2.5	/experiments/knapen_AOT/AOT_stimuli/rescaled_final/0012_rv.mp4	0.0	262.3349709510803	2.4920260906219482
53	240.08655500411987	pulse	1	t		51.0	2.5	/experiments/knapen_AOT/AOT_stimuli/rescaled_final/0012_rv.mp4	0.0	262.71916913986206	
53	241.68614101409912	pulse	1	t		51.0	2.5	/experiments/knapen_AOT/AOT_stimuli/rescaled_final/0012_rv.mp4	0.0	264.3187551498413	
53	242.19438290596008	fix_post	2		12	51.0	2.5	/experiments/knapen_AOT/AOT_stimuli/rescaled_final/0012_rv.mp4	0.0	264.82699704170227	0.10005593299865723
54	242.29443883895874	fix_pre	0		120	52.0	2.5	/experiments/knapen_AOT/AOT_stimuli/rescaled_final/0957_fw.mp4	0.0	264.9270529747009	1.000054121017456
54	243.28639602661133	pulse	0	t		52.0	2.5	/experiments/knapen_AOT/AOT_stimuli/rescaled_final/0957_fw.mp4	0.0	265.9190101623535	
54	243.2944929599762	movie	1		244	52.0	2.5	/experiments/knapen_AOT/AOT_stimuli/rescaled_final/0957_fw.mp4	0.0	265.9271070957184	2.508807897567749
54	244.88728189468384	pulse	1	t		52.0	2.5	/experiments/knapen_AOT/AOT_stimuli/rescaled_final/0957_fw.mp4	0.0	267.519896030426	
54	245.80330085754395	fix_post	2		12	52.0	2.5	/experiments/knapen_AOT/AOT_stimuli/rescaled_final/0957_fw.mp4	0.0	268.43591499328613	0.10000300407409668
55	245.90330386161804	fix_pre	0		120	53.0	2.5	/experiments/knapen_AOT/AOT_stimuli/rescaled_final/1258_fw.mp4	0.0	268.53591799736023	1.000082015991211
55	246.4793119430542	pulse	0	t		53.0	2.5	/experiments/knapen_AOT/AOT_stimuli/rescaled_final/1258_fw.mp4	0.0	269.1119260787964	
55	246.90338587760925	movie	1		244	53.0	2.5	/experiments/knapen_AOT/AOT_stimuli/rescaled_final/1258_fw.mp4	0.0	269.53600001335144	2.5004029273986816
55	248.08018684387207	pulse	1	t		53.0	2.5	/experiments/knapen_AOT/AOT_stimuli/rescaled_final/1258_fw.mp4	0.0	270.71280097961426	
55	249.40378880500793	fix_post	2		12	53.0	2.5	/experiments/knapen_AOT/AOT_stimuli/rescaled_final/1258_fw.mp4	0.0	272.0364029407501	0.09996700286865234
56	249.5037558078766	fix_pre	0		120	54.0	2.5	/experiments/knapen_AOT/AOT_stimuli/rescaled_final/1468_fw.mp4	0.0	272.1363699436188	1.000176191329956
56	249.67987394332886	pulse	0	t		54.0	2.5	/experiments/knapen_AOT/AOT_stimuli/rescaled_final/1468_fw.mp4	0.0	272.31248807907104	
56	250.50393199920654	movie	1		243	54.0	2.5	/experiments/knapen_AOT/AOT_stimuli/rescaled_final/1468_fw.mp4	0.0	273.13654613494873	2.50036883354187
56	251.2793538570404	pulse	1	t		54.0	2.5	/experiments/knapen_AOT/AOT_stimuli/rescaled_final/1468_fw.mp4	0.0	273.9119679927826	
56	252.8794069290161	pulse	1	t		54.0	2.5	/experiments/knapen_AOT/AOT_stimuli/rescaled_final/1468_fw.mp4	0.0	275.5120210647583	
56	253.0043008327484	fix_post	2		12	54.0	2.5	/experiments/knapen_AOT/AOT_stimuli/rescaled_final/1468_fw.mp4	0.0	275.6369149684906	0.10004305839538574
57	253.1043438911438	fix_pre	0		120	55.0	2.5	blank	1.0	275.736958026886	1.000082015991211
57	254.104425907135	movie	1		299	55.0	2.5	blank	1.0	276.7370400428772	2.4920670986175537
57	254.47967386245728	pulse	1	t		55.0	2.5	blank	1.0	277.11228799819946	
57	256.0798978805542	pulse	1	t		55.0	2.5	blank	1.0	278.7125120162964	
57	256.59649300575256	fix_post	2		12	55.0	2.5	blank	1.0	279.22910714149475	0.10004782676696777
58	256.69654083251953	fix_pre	0		119	56.0	2.5	/experiments/knapen_AOT/AOT_stimuli/rescaled_final/0519_fw.mp4	0.0	279.3291549682617	0.9917900562286377
58	257.6801128387451	pulse	0	t		56.0	2.5	/experiments/knapen_AOT/AOT_stimuli/rescaled_final/0519_fw.mp4	0.0	280.3127269744873	
58	257.68833088874817	movie	1		245	56.0	2.5	/experiments/knapen_AOT/AOT_stimuli/rescaled_final/0519_fw.mp4	0.0	280.32094502449036	2.5086750984191895
58	259.2810628414154	pulse	1	t		56.0	2.5	/experiments/knapen_AOT/AOT_stimuli/rescaled_final/0519_fw.mp4	0.0	281.9136769771576	
58	260.19700598716736	fix_post	2		12	56.0	2.5	/experiments/knapen_AOT/AOT_stimuli/rescaled_final/0519_fw.mp4	0.0	282.82962012290955	0.10001087188720703
59	260.29701685905457	fix_pre	0		120	57.0	2.5	/experiments/knapen_AOT/AOT_stimuli/rescaled_final/1763_rv.mp4	0.0	282.92963099479675	1.0001630783081055
59	260.88070583343506	pulse	0	t		57.0	2.5	/experiments/knapen_AOT/AOT_stimuli/rescaled_final/1763_rv.mp4	0.0	283.51331996917725	
59	261.29717993736267	movie	1		244	57.0	2.5	/experiments/knapen_AOT/AOT_stimuli/rescaled_final/1763_rv.mp4	0.0	283.92979407310486	2.5004169940948486
59	262.480929851532	pulse	1	t		57.0	2.5	/experiments/knapen_AOT/AOT_stimuli/rescaled_final/1763_rv.mp4	0.0	285.11354398727417	
59	263.7975969314575	fix_post	2		12	57.0	2.5	/experiments/knapen_AOT/AOT_stimuli/rescaled_final/1763_rv.mp4	0.0	286.4302110671997	0.10005402565002441
60	263.89765095710754	fix_pre	0		120	58.0	2.5	/experiments/knapen_AOT/AOT_stimuli/rescaled_final/1400_rv.mp4	0.0	286.53026509284973	1.000053882598877
60	264.08107900619507	pulse	0	t		58.0	2.5	/experiments/knapen_AOT/AOT_stimuli/rescaled_final/1400_rv.mp4	0.0	286.71369314193726	
60	264.8977048397064	movie	1		244	58.0	2.5	/experiments/knapen_AOT/AOT_stimuli/rescaled_final/1400_rv.mp4	0.0	287.5303189754486	2.500375986099243
60	265.6813678741455	pulse	1	t		58.0	2.5	/experiments/knapen_AOT/AOT_stimuli/rescaled_final/1400_rv.mp4	0.0	288.3139820098877	
60	267.2816319465637	pulse	1	t		58.0	2.5	/experiments/knapen_AOT/AOT_stimuli/rescaled_final/1400_rv.mp4	0.0	289.9142460823059	
60	267.39808082580566	fix_post	2		12	58.0	2.5	/experiments/knapen_AOT/AOT_stimuli/rescaled_final/1400_rv.mp4	0.0	290.03069496154785	0.10006213188171387
61	267.4981429576874	fix_pre	0		119	59.0	2.5	/experiments/knapen_AOT/AOT_stimuli/rescaled_final/2142_fw.mp4	0.0	290.13075709342957	0.9917919635772705
61	268.48993492126465	movie	1		244	59.0	2.5	/experiments/knapen_AOT/AOT_stimuli/rescaled_final/2142_fw.mp4	0.0	291.12254905700684	2.500364065170288
61	268.8819990158081	pulse	1	t		59.0	2.5	/experiments/knapen_AOT/AOT_stimuli/rescaled_final/2142_fw.mp4	0.0	291.5146131515503	
61	270.48205399513245	pulse	1	t		59.0	2.5	/experiments/knapen_AOT/AOT_stimuli/rescaled_final/2142_fw.mp4	0.0	293.11466813087463	
61	270.99029898643494	fix_post	2		12	59.0	2.5	/experiments/knapen_AOT/AOT_stimuli/rescaled_final/2142_fw.mp4	0.0	293.6229131221771	0.10005402565002441
62	271.09035301208496	fix_pre	0		120	60.0	2.5	/experiments/knapen_AOT/AOT_stimuli/rescaled_final/1496_fw.mp4	0.0	293.72296714782715	1.0000948905944824
62	272.0822789669037	pulse	0	t		60.0	2.5	/experiments/knapen_AOT/AOT_stimuli/rescaled_final/1496_fw.mp4	0.0	294.7148931026459	
62	272.09044790267944	movie	1		247	60.0	2.5	/experiments/knapen_AOT/AOT_stimuli/rescaled_final/1496_fw.mp4	0.0	294.72306203842163	2.508734941482544
62	273.6828889846802	pulse	1	t		60.0	2.5	/experiments/knapen_AOT/AOT_stimuli/rescaled_final/1496_fw.mp4	0.0	296.31550312042236	
62	274.599182844162	fix_post	2		12	60.0	2.5	/experiments/knapen_AOT/AOT_stimuli/rescaled_final/1496_fw.mp4	0.0	297.2317969799042	0.10012602806091309
63	274.6993088722229	fix_pre	0		120	61.0	2.5	blank	1.0	297.3319230079651	1.0000231266021729
63	275.2829029560089	pulse	0	t		61.0	2.5	blank	1.0	297.9155170917511	
63	275.6993319988251	movie	1		300	61.0	2.5	blank	1.0	298.33194613456726	2.5004420280456543
63	276.8830518722534	pulse	1	t		61.0	2.5	blank	1.0	299.5156660079956	
63	278.1997740268707	fix_post	2		12	61.0	2.5	blank	1.0	300.8323881626129	0.10001683235168457
64	278.2997908592224	fix_pre	0		120	62.0	2.5	/experiments/knapen_AOT/AOT_stimuli/rescaled_final/1196_rv.mp4	0.0	300.9324049949646	1.0001211166381836
64	278.4832649230957	pulse	0	t		62.0	2.5	/experiments/knapen_AOT/AOT_stimuli/rescaled_final/1196_rv.mp4	0.0	301.1158790588379	
64	279.2999119758606	movie	1		245	62.0	2.5	/experiments/knapen_AOT/AOT_stimuli/rescaled_final/1196_rv.mp4	0.0	301.9325261116028	2.5003249645233154
64	280.0836248397827	pulse	1	t		62.0	2.5	/experiments/knapen_AOT/AOT_stimuli/rescaled_final/1196_rv.mp4	0.0	302.7162389755249	
64	281.68132185935974	pulse	1	t		62.0	2.5	/experiments/knapen_AOT/AOT_stimuli/rescaled_final/1196_rv.mp4	0.0	304.31393599510193	
64	281.8002369403839	fix_post	2		12	62.0	2.5	/experiments/knapen_AOT/AOT_stimuli/rescaled_final/1196_rv.mp4	0.0	304.4328510761261	0.10003495216369629
65	281.9002718925476	fix_pre	0		120	63.0	2.5	/experiments/knapen_AOT/AOT_stimuli/rescaled_final/1978_fw.mp4	0.0	304.5328860282898	1.0001709461212158
65	282.9004428386688	movie	1		243	63.0	2.5	/experiments/knapen_AOT/AOT_stimuli/rescaled_final/1978_fw.mp4	0.0	305.533056974411	2.492048978805542
65	283.2847058773041	pulse	1	t		63.0	2.5	/experiments/knapen_AOT/AOT_stimuli/rescaled_final/1978_fw.mp4	0.0	305.91732001304626	
65	284.88422203063965	pulse	1	t		63.0	2.5	/experiments/knapen_AOT/AOT_stimuli/rescaled_final/1978_fw.mp4	0.0	307.51683616638184	
65	285.39249181747437	fix_post	2		12	63.0	2.5	/experiments/knapen_AOT/AOT_stimuli/rescaled_final/1978_fw.mp4	0.0	308.02510595321655	0.09999299049377441
66	285.49248480796814	fix_pre	0		120	64.0	2.5	/experiments/knapen_AOT/AOT_stimuli/rescaled_final/1869_fw.mp4	0.0	308.1250989437103	1.0001180171966553
66	286.4844570159912	pulse	0	t		64.0	2.5	/experiments/knapen_AOT/AOT_stimuli/rescaled_final/1869_fw.mp4	0.0	309.1170711517334	
66	286.4926028251648	movie	1		244	64.0	2.5	/experiments/knapen_AOT/AOT_stimuli/rescaled_final/1869_fw.mp4	0.0	309.125216960907	2.508697032928467
66	288.0850319862366	pulse	1	t		64.0	2.5	/experiments/knapen_AOT/AOT_stimuli/rescaled_final/1869_fw.mp4	0.0	310.71764612197876	
66	289.00129985809326	fix_post	2		12	64.0	2.5	/experiments/knapen_AOT/AOT_stimuli/rescaled_final/1869_fw.mp4	0.0	311.63391399383545	0.10011506080627441
67	289.10141491889954	fix_pre	0		120	65.0	2.5	/experiments/knapen_AOT/AOT_stimuli/rescaled_final/0726_rv.mp4	0.0	311.7340290546417	1.000101089477539
67	289.68507194519043	pulse	0	t		65.0	2.5	/experiments/knapen_AOT/AOT_stimuli/rescaled_final/0726_rv.mp4	0.0	312.3176860809326	
67	290.1015160083771	movie	1		247	65.0	2.5	/experiments/knapen_AOT/AOT_stimuli/rescaled_final/0726_rv.mp4	0.0	312.73413014411926	2.5003559589385986
67	291.28525400161743	pulse	1	t		65.0	2.5	/experiments/knapen_AOT/AOT_stimuli/rescaled_final/0726_rv.mp4	0.0	313.9178681373596	
67	292.6018719673157	fix_post	2		9	65.0	2.5	/experiments/knapen_AOT/AOT_stimuli/rescaled_final/0726_rv.mp4	0.0	315.23448610305786	0.1000368595123291
68	292.701908826828	fix_pre	0		120	66.0	2.5	/experiments/knapen_AOT/AOT_stimuli/rescaled_final/1506_fw.mp4	0.0	315.3345229625702	1.0001170635223389
68	292.8854830265045	pulse	0	t		66.0	2.5	/experiments/knapen_AOT/AOT_stimuli/rescaled_final/1506_fw.mp4	0.0	315.5180971622467	
68	293.70202589035034	movie	1		243	66.0	2.5	/experiments/knapen_AOT/AOT_stimuli/rescaled_final/1506_fw.mp4	0.0	316.33464002609253	2.5003669261932373
68	294.4857759475708	pulse	1	t		66.0	2.5	/experiments/knapen_AOT/AOT_stimuli/rescaled_final/1506_fw.mp4	0.0	317.118390083313	
68	296.08574080467224	pulse	1	t		66.0	2.5	/experiments/knapen_AOT/AOT_stimuli/rescaled_final/1506_fw.mp4	0.0	318.71835494041443	
68	296.2023928165436	fix_post	2		12	66.0	2.5	/experiments/knapen_AOT/AOT_stimuli/rescaled_final/1506_fw.mp4	0.0	318.83500695228577	0.100006103515625
69	296.3023989200592	fix_pre	0		120	67.0	2.5	/experiments/knapen_AOT/AOT_stimuli/rescaled_final/0511_rv.mp4	0.0	318.9350130558014	1.0001718997955322
69	297.30257081985474	movie	1		244	67.0	2.5	/experiments/knapen_AOT/AOT_stimuli/rescaled_final/0511_rv.mp4	0.0	319.9351849555969	2.492030143737793
69	297.68682193756104	pulse	1	t		67.0	2.5	/experiments/knapen_AOT/AOT_stimuli/rescaled_final/0511_rv.mp4	0.0	320.3194360733032	
69	299.27909684181213	pulse	1	t		67.0	2.5	/experiments/knapen_AOT/AOT_stimuli/rescaled_final/0511_rv.mp4	0.0	321.9117109775543	
69	299.79460096359253	fix_post	2		12	67.0	2.5	/experiments/knapen_AOT/AOT_stimuli/rescaled_final/0511_rv.mp4	0.0	322.4272150993347	0.10011982917785645
70	299.8947207927704	fix_pre	0		120	68.0	2.5	blank	1.0	322.5273349285126	1.0000841617584229
70	300.8790559768677	pulse	0	t		68.0	2.5	blank	1.0	323.51167011260986	
70	300.8948049545288	movie	1		301	68.0	2.5	blank	1.0	323.527419090271	2.508723020553589
70	302.47934579849243	pulse	1	t		68.0	2.5	blank	1.0	325.1119599342346	
70	303.4035279750824	fix_post	2		12	68.0	2.5	blank	1.0	326.0361421108246	0.10000991821289062
71	303.5035378932953	fix_pre	0		120	69.0	2.5	/experiments/knapen_AOT/AOT_stimuli/rescaled_final/2142_fw.mp4	0.0	326.1361520290375	1.000133991241455
71	304.07957100868225	pulse	0	t		69.0	2.5	/experiments/knapen_AOT/AOT_stimuli/rescaled_final/2142_fw.mp4	0.0	326.71218514442444	
71	304.50367188453674	movie	1		244	69.0	2.5	/experiments/knapen_AOT/AOT_stimuli/rescaled_final/2142_fw.mp4	0.0	327.13628602027893	2.5003530979156494
71	305.6795229911804	pulse	1	t		69.0	2.5	/experiments/knapen_AOT/AOT_stimuli/rescaled_final/2142_fw.mp4	0.0	328.3121371269226	
71	307.0040249824524	fix_post	2		12	69.0	2.5	/experiments/knapen_AOT/AOT_stimuli/rescaled_final/2142_fw.mp4	0.0	329.6366391181946	0.09998893737792969
72	307.1040139198303	fix_pre	0		120	70.0	2.5	/experiments/knapen_AOT/AOT_stimuli/rescaled_final/2014_rv.mp4	0.0	329.7366280555725	1.0002200603485107
72	307.27918887138367	pulse	0	t		70.0	2.5	/experiments/knapen_AOT/AOT_stimuli/rescaled_final/2014_rv.mp4	0.0	329.91180300712585	
72	308.10423398017883	movie	1		247	70.0	2.5	/experiments/knapen_AOT/AOT_stimuli/rescaled_final/2014_rv.mp4	0.0	330.736848115921	2.500316858291626
72	308.87942600250244	pulse	1	t		70.0	2.5	/experiments/knapen_AOT/AOT_stimuli/rescaled_final/2014_rv.mp4	0.0	331.51204013824463	
72	310.4798309803009	pulse	1	t		70.0	2.5	/experiments/knapen_AOT/AOT_stimuli/rescaled_final/2014_rv.mp4	0.0	333.1124451160431	
72	310.60455083847046	fix_post	2		12	70.0	2.5	/experiments/knapen_AOT/AOT_stimuli/rescaled_final/2014_rv.mp4	0.0	333.23716497421265	0.10003209114074707
73	310.7045829296112	fix_pre	0		120	71.0	2.5	/experiments/knapen_AOT/AOT_stimuli/rescaled_final/0194_fw.mp4	0.0	333.3371970653534	1.0001709461212158
73	311.7047538757324	movie	1		246	71.0	2.5	/experiments/knapen_AOT/AOT_stimuli/rescaled_final/0194_fw.mp4	0.0	334.3373680114746	2.491987943649292
73	312.07995200157166	pulse	1	t		71.0	2.5	/experiments/knapen_AOT/AOT_stimuli/rescaled_final/0194_fw.mp4	0.0	334.71256613731384	
73	313.68022894859314	pulse	1	t		71.0	2.5	/experiments/knapen_AOT/AOT_stimuli/rescaled_final/0194_fw.mp4	0.0	336.3128430843353	
73	314.1967418193817	fix_post	2		12	71.0	2.5	/experiments/knapen_AOT/AOT_stimuli/rescaled_final/0194_fw.mp4	0.0	336.8293559551239	0.10005021095275879
74	314.2967920303345	fix_pre	0		119	72.0	2.5	/experiments/knapen_AOT/AOT_stimuli/rescaled_final/1409_rv.mp4	0.0	336.92940616607666	0.991832971572876
74	315.28044080734253	pulse	0	t		72.0	2.5	/experiments/knapen_AOT/AOT_stimuli/rescaled_final/1409_rv.mp4	0.0	337.9130549430847	
74	315.28862500190735	movie	1		244	72.0	2.5	/experiments/knapen_AOT/AOT_stimuli/rescaled_final/1409_rv.mp4	0.0	337.92123913764954	2.5086398124694824
74	316.88131380081177	pulse	1	t		72.0	2.5	/experiments/knapen_AOT/AOT_stimuli/rescaled_final/1409_rv.mp4	0.0	339.51392793655396	
74	317.79726481437683	fix_post	2		12	72.0	2.5	/experiments/knapen_AOT/AOT_stimuli/rescaled_final/1409_rv.mp4	0.0	340.429878950119	0.1000361442565918
75	317.8973009586334	fix_pre	0		120	73.0	2.5	/experiments/knapen_AOT/AOT_stimuli/rescaled_final/1778_fw.mp4	0.0	340.5299150943756	1.0001649856567383
75	318.4809830188751	pulse	0	t		73.0	2.5	/experiments/knapen_AOT/AOT_stimuli/rescaled_final/1778_fw.mp4	0.0	341.1135971546173	
75	318.89746594429016	movie	1		244	73.0	2.5	/experiments/knapen_AOT/AOT_stimuli/rescaled_final/1778_fw.mp4	0.0	341.53008008003235	2.500347852706909
75	320.081228017807	pulse	1	t		73.0	2.5	/experiments/knapen_AOT/AOT_stimuli/rescaled_final/1778_fw.mp4	0.0	342.7138421535492	
75	321.39781379699707	fix_post	2		12	73.0	2.5	/experiments/knapen_AOT/AOT_stimuli/rescaled_final/1778_fw.mp4	0.0	344.03042793273926	0.1000361442565918
76	321.49784994125366	fix_pre	0		120	74.0	2.5	/experiments/knapen_AOT/AOT_stimuli/rescaled_final/2029_rv.mp4	0.0	344.13046407699585	1.000204086303711
76	321.681391954422	pulse	0	t		74.0	2.5	/experiments/knapen_AOT/AOT_stimuli/rescaled_final/2029_rv.mp4	0.0	344.3140060901642	
76	322.4980540275574	movie	1		244	74.0	2.5	/experiments/knapen_AOT/AOT_stimuli/rescaled_final/2029_rv.mp4	0.0	345.13066816329956	2.500304937362671
76	323.2816209793091	pulse	1	t		74.0	2.5	/experiments/knapen_AOT/AOT_stimuli/rescaled_final/2029_rv.mp4	0.0	345.91423511505127	
76	324.88196182250977	pulse	1	t		74.0	2.5	/experiments/knapen_AOT/AOT_stimuli/rescaled_final/2029_rv.mp4	0.0	347.51457595825195	
76	324.99835896492004	fix_post	2		12	74.0	2.5	/experiments/knapen_AOT/AOT_stimuli/rescaled_final/2029_rv.mp4	0.0	347.63097310066223	0.09998083114624023
77	325.0983397960663	fix_pre	0		120	75.0	2.5	/experiments/knapen_AOT/AOT_stimuli/rescaled_final/1184_rv.mp4	0.0	347.7309539318085	1.0001862049102783
77	326.09852600097656	movie	1		243	75.0	2.5	/experiments/knapen_AOT/AOT_stimuli/rescaled_final/1184_rv.mp4	0.0	348.73114013671875	2.492039918899536
77	326.48268485069275	pulse	1	t		75.0	2.5	/experiments/knapen_AOT/AOT_stimuli/rescaled_final/1184_rv.mp4	0.0	349.11529898643494	
77	328.0823760032654	pulse	1	t		75.0	2.5	/experiments/knapen_AOT/AOT_stimuli/rescaled_final/1184_rv.mp4	0.0	350.71499013900757	
77	328.5905659198761	fix_post	2		12	75.0	2.5	/experiments/knapen_AOT/AOT_stimuli/rescaled_final/1184_rv.mp4	0.0	351.2231800556183	0.10003805160522461
78	328.6906039714813	fix_pre	0		120	76.0	2.5	/experiments/knapen_AOT/AOT_stimuli/rescaled_final/0738_rv.mp4	0.0	351.3232181072235	1.000154972076416
78	329.6826069355011	pulse	0	t		76.0	2.5	/experiments/knapen_AOT/AOT_stimuli/rescaled_final/0738_rv.mp4	0.0	352.3152210712433	
78	329.69075894355774	movie	1		245	76.0	2.5	/experiments/knapen_AOT/AOT_stimuli/rescaled_final/0738_rv.mp4	0.0	352.3233730792999	2.508673906326294
78	331.2843098640442	pulse	1	t		76.0	2.5	/experiments/knapen_AOT/AOT_stimuli/rescaled_final/0738_rv.mp4	0.0	353.9169239997864	
78	332.19943284988403	fix_post	2		12	76.0	2.5	/experiments/knapen_AOT/AOT_stimuli/rescaled_final/0738_rv.mp4	0.0	354.8320469856262	0.10004305839538574
79	332.2994759082794	fix_pre	0		120	77.0	2.5	blank	1.0	354.9320900440216	1.0001490116119385
79	332.88311791419983	pulse	0	t		77.0	2.5	blank	1.0	355.515732049942	
79	333.29962491989136	movie	1		300	77.0	2.5	blank	1.0	355.93223905563354	2.5003600120544434
79	334.4833378791809	pulse	1	t		77.0	2.5	blank	1.0	357.1159520149231	
79	335.7999849319458	fix_post	2		12	77.0	2.5	blank	1.0	358.432599067688	0.10001301765441895
80	335.8999979496002	fix_pre	0		120	78.0	2.5	/experiments/knapen_AOT/AOT_stimuli/rescaled_final/1762_rv.mp4	0.0	358.5326120853424	1.0001440048217773
80	336.08361983299255	pulse	0	t		78.0	2.5	/experiments/knapen_AOT/AOT_stimuli/rescaled_final/1762_rv.mp4	0.0	358.71623396873474	
80	336.900141954422	movie	1		244	78.0	2.5	/experiments/knapen_AOT/AOT_stimuli/rescaled_final/1762_rv.mp4	0.0	359.5327560901642	2.5003809928894043
80	337.6837978363037	pulse	1	t		78.0	2.5	/experiments/knapen_AOT/AOT_stimuli/rescaled_final/1762_rv.mp4	0.0	360.3164119720459	
80	339.2843189239502	pulse	1	t		78.0	2.5	/experiments/knapen_AOT/AOT_stimuli/rescaled_final/1762_rv.mp4	0.0	361.9169330596924	
80	339.4005229473114	fix_post	2		12	78.0	2.5	/experiments/knapen_AOT/AOT_stimuli/rescaled_final/1762_rv.mp4	0.0	362.0331370830536	0.09999895095825195
81	339.50052189826965	fix_pre	0		120	79.0	2.5	/experiments/knapen_AOT/AOT_stimuli/rescaled_final/0874_fw.mp4	0.0	362.13313603401184	1.0002069473266602
81	340.5007288455963	movie	1		242	79.0	2.5	/experiments/knapen_AOT/AOT_stimuli/rescaled_final/0874_fw.mp4	0.0	363.1333429813385	2.4919610023498535
81	340.8848798274994	pulse	1	t		79.0	2.5	/experiments/knapen_AOT/AOT_stimuli/rescaled_final/0874_fw.mp4	0.0	363.5174939632416	
81	342.4846558570862	pulse	1	t		79.0	2.5	/experiments/knapen_AOT/AOT_stimuli/rescaled_final/0874_fw.mp4	0.0	365.11726999282837	
81	342.99268984794617	fix_post	2		12	79.0	2.5	/experiments/knapen_AOT/AOT_stimuli/rescaled_final/0874_fw.mp4	0.0	365.62530398368835	0.10002899169921875
82	343.0927188396454	fix_pre	0		120	80.0	2.5	/experiments/knapen_AOT/AOT_stimuli/rescaled_final/0131_rv.mp4	0.0	365.7253329753876	1.0001440048217773
82	344.0848138332367	pulse	0	t		80.0	2.5	/experiments/knapen_AOT/AOT_stimuli/rescaled_final/0131_rv.mp4	0.0	366.7174279689789	
82	344.09286284446716	movie	1		244	80.0	2.5	/experiments/knapen_AOT/AOT_stimuli/rescaled_final/0131_rv.mp4	0.0	366.72547698020935	2.5087480545043945
82	345.6862778663635	pulse	1	t		80.0	2.5	/experiments/knapen_AOT/AOT_stimuli/rescaled_final/0131_rv.mp4	0.0	368.3188920021057	
82	346.60161089897156	fix_post	2		12	80.0	2.5	/experiments/knapen_AOT/AOT_stimuli/rescaled_final/0131_rv.mp4	0.0	369.23422503471375	0.10001802444458008
83	346.70162892341614	fix_pre	0		116	81.0	2.5	/experiments/knapen_AOT/AOT_stimuli/rescaled_final/0590_fw.mp4	0.0	369.3342430591583	1.0001730918884277
83	347.2851839065552	pulse	0	t		81.0	2.5	/experiments/knapen_AOT/AOT_stimuli/rescaled_final/0590_fw.mp4	0.0	369.91779804229736	
83	347.70180201530457	movie	1		245	81.0	2.5	/experiments/knapen_AOT/AOT_stimuli/rescaled_final/0590_fw.mp4	0.0	370.33441615104675	2.500311851501465
83	348.8855359554291	pulse	1	t		81.0	2.5	/experiments/knapen_AOT/AOT_stimuli/rescaled_final/0590_fw.mp4	0.0	371.51815009117126	
83	350.20211386680603	fix_post	2		12	81.0	2.5	/experiments/knapen_AOT/AOT_stimuli/rescaled_final/0590_fw.mp4	0.0	372.8347280025482	0.09999704360961914
84	350.30211091041565	fix_pre	0		120	82.0	2.5	blank	1.0	372.93472504615784	1.0001881122589111
84	350.4858078956604	pulse	0	t		82.0	2.5	blank	1.0	373.1184220314026	
84	351.30229902267456	movie	1		300	82.0	2.5	blank	1.0	373.93491315841675	2.5003559589385986
84	352.08586597442627	pulse	1	t		82.0	2.5	blank	1.0	374.71848011016846	
84	353.68615984916687	pulse	1	t		82.0	2.5	blank	1.0	376.31877398490906	
84	353.80265498161316	fix_post	2		12	82.0	2.5	blank	1.0	376.43526911735535	0.1000509262084961
85	353.90270590782166	fix_pre	0		120	83.0	2.5	/experiments/knapen_AOT/AOT_stimuli/rescaled_final/0356_fw.mp4	0.0	376.53532004356384	1.0001060962677002
85	354.90281200408936	movie	1		242	83.0	2.5	/experiments/knapen_AOT/AOT_stimuli/rescaled_final/0356_fw.mp4	0.0	377.53542613983154	2.492051839828491
85	355.2869508266449	pulse	1	t		83.0	2.5	/experiments/knapen_AOT/AOT_stimuli/rescaled_final/0356_fw.mp4	0.0	377.9195649623871	
85	356.88675689697266	pulse	1	t		83.0	2.5	/experiments/knapen_AOT/AOT_stimuli/rescaled_final/0356_fw.mp4	0.0	379.51937103271484	
85	357.39486384391785	fix_post	2		12	83.0	2.5	/experiments/knapen_AOT/AOT_stimuli/rescaled_final/0356_fw.mp4	0.0	380.02747797966003	0.100006103515625
87	357.4948699474335	stim	0		1716					380.12748408317566	14.302166938781738
87	358.4796209335327	pulse	0	t						381.1122350692749	
87	360.07985496520996	pulse	0	t						382.71246910095215	
87	361.67996287345886	pulse	0	t						384.31257700920105	
87	363.2801959514618	pulse	0	t						385.912810087204	
87	364.88037180900574	pulse	0	t						387.5129859447479	
87	366.4796359539032	pulse	0	t						389.1122500896454	
87	368.0798728466034	pulse	0	t						390.7124869823456	
87	369.6801509857178	pulse	0	t						392.31276512145996	
87	371.2804639339447	pulse	0	t						393.9130780696869	
