trial_nr	onset	event_type	phase	response	nr_frames	movie_index	movie_duration	movie_file	blank	onset_abs	duration
0	0.1582329273223877	stim	0		3133					84.87097191810608	26.12481999397278
0	26.267854928970337	response	0	space						110.98059391975403	
1	26.283052921295166	stim	0		45971					110.99579191207886	383.0896899700165
1	409.3687000274658	pulse	0	t						494.0814390182495	
1	409.37274289131165	stim	1		1717					494.08548188209534	14.308454036712646
1	410.95711398124695	pulse	1	t						495.66985297203064	
1	412.56465196609497	pulse	1	t						497.27739095687866	
1	414.1646099090576	pulse	1	t						498.8773488998413	
1	415.7646310329437	pulse	1	t						500.4773700237274	
1	417.3646149635315	pulse	1	t						502.0773539543152	
1	418.957044839859	pulse	1	t						503.6697838306427	
1	420.557049036026	pulse	1	t						505.2697880268097	
1	422.1570999622345	pulse	1	t						506.8698389530182	
2	423.6811969280243	fix_pre	0		11	0.0	2.5	/experiments/AOT/AOT_stimuli/rescaled_final/2105_rv.mp4	0.0	508.393935918808	0.12457394599914551
2	423.75718688964844	pulse	0	t		0.0	2.5	/experiments/AOT/AOT_stimuli/rescaled_final/2105_rv.mp4	0.0	508.46992588043213	
2	423.80577087402344	movie	1		240	0.0	2.5	/experiments/AOT/AOT_stimuli/rescaled_final/2105_rv.mp4	0.0	508.51850986480713	2.475337028503418
2	425.36447191238403	pulse	1	t		0.0	2.5	/experiments/AOT/AOT_stimuli/rescaled_final/2105_rv.mp4	0.0	510.0772109031677	
2	426.28110790252686	fix_post	2		12	0.0	2.5	/experiments/AOT/AOT_stimuli/rescaled_final/2105_rv.mp4	0.0	510.99384689331055	0.09987092018127441
3	426.38097882270813	fix_pre	0		120	1.0	2.5	/experiments/AOT/AOT_stimuli/rescaled_final/1950_rv.mp4	0.0	511.0937178134918	1.000133991241455
3	426.95715403556824	pulse	0	t		1.0	2.5	/experiments/AOT/AOT_stimuli/rescaled_final/1950_rv.mp4	0.0	511.66989302635193	
3	427.3811128139496	movie	1		245	1.0	2.5	/experiments/AOT/AOT_stimuli/rescaled_final/1950_rv.mp4	0.0	512.0938518047333	2.4999611377716064
3	428.5646138191223	pulse	1	t		1.0	2.5	/experiments/AOT/AOT_stimuli/rescaled_final/1950_rv.mp4	0.0	513.277352809906	
3	429.8810739517212	fix_post	2		12	1.0	2.5	/experiments/AOT/AOT_stimuli/rescaled_final/1950_rv.mp4	0.0	514.5938129425049	0.09995102882385254
4	429.98102498054504	fix_pre	0		120	2.0	2.5	/experiments/AOT/AOT_stimuli/rescaled_final/1299_rv.mp4	0.0	514.6937639713287	1.0000159740447998
4	430.1648008823395	pulse	0	t		2.0	2.5	/experiments/AOT/AOT_stimuli/rescaled_final/1299_rv.mp4	0.0	514.8775398731232	
4	430.98104095458984	movie	1		243	2.0	2.5	/experiments/AOT/AOT_stimuli/rescaled_final/1299_rv.mp4	0.0	515.6937799453735	2.499988079071045
4	431.76456785202026	pulse	1	t		2.0	2.5	/experiments/AOT/AOT_stimuli/rescaled_final/1299_rv.mp4	0.0	516.477306842804	
4	433.36274695396423	pulse	1	t		2.0	2.5	/experiments/AOT/AOT_stimuli/rescaled_final/1299_rv.mp4	0.0	518.0754859447479	
4	433.4810290336609	fix_post	2		12	2.0	2.5	/experiments/AOT/AOT_stimuli/rescaled_final/1299_rv.mp4	0.0	518.1937680244446	0.10022997856140137
5	433.5812590122223	fix_pre	0		120	3.0	2.5	/experiments/AOT/AOT_stimuli/rescaled_final/0752_fw.mp4	0.0	518.293998003006	0.9998090267181396
5	434.58106803894043	movie	1		246	3.0	2.5	/experiments/AOT/AOT_stimuli/rescaled_final/0752_fw.mp4	0.0	519.2938070297241	2.5000078678131104
5	434.96419382095337	pulse	1	t		3.0	2.5	/experiments/AOT/AOT_stimuli/rescaled_final/0752_fw.mp4	0.0	519.6769328117371	
5	436.56448101997375	pulse	1	t		3.0	2.5	/experiments/AOT/AOT_stimuli/rescaled_final/0752_fw.mp4	0.0	521.2772200107574	
5	437.08107590675354	fix_post	2		12	3.0	2.5	/experiments/AOT/AOT_stimuli/rescaled_final/0752_fw.mp4	0.0	521.7938148975372	0.09995007514953613
6	437.1810259819031	fix_pre	0		119	4.0	2.5	/experiments/AOT/AOT_stimuli/rescaled_final/0611_rv.mp4	0.0	521.8937649726868	0.9916629791259766
6	438.15692591667175	pulse	0	t		4.0	2.5	/experiments/AOT/AOT_stimuli/rescaled_final/0611_rv.mp4	0.0	522.8696649074554	
6	438.17268896102905	movie	1		245	4.0	2.5	/experiments/AOT/AOT_stimuli/rescaled_final/0611_rv.mp4	0.0	522.8854279518127	2.508234977722168
6	439.76430797576904	pulse	1	t		4.0	2.5	/experiments/AOT/AOT_stimuli/rescaled_final/0611_rv.mp4	0.0	524.4770469665527	
6	440.6809239387512	fix_post	2		12	4.0	2.5	/experiments/AOT/AOT_stimuli/rescaled_final/0611_rv.mp4	0.0	525.3936629295349	0.10014104843139648
7	440.7810649871826	fix_pre	0		120	5.0	2.5	/experiments/AOT/AOT_stimuli/rescaled_final/0002_fw.mp4	0.0	525.4938039779663	0.9998729228973389
7	441.3571879863739	pulse	0	t		5.0	2.5	/experiments/AOT/AOT_stimuli/rescaled_final/0002_fw.mp4	0.0	526.0699269771576	
7	441.78093791007996	movie	1		243	5.0	2.5	/experiments/AOT/AOT_stimuli/rescaled_final/0002_fw.mp4	0.0	526.4936769008636	2.500098943710327
7	442.96450185775757	pulse	1	t		5.0	2.5	/experiments/AOT/AOT_stimuli/rescaled_final/0002_fw.mp4	0.0	527.6772408485413	
7	444.2810368537903	fix_post	2		12	5.0	2.5	/experiments/AOT/AOT_stimuli/rescaled_final/0002_fw.mp4	0.0	528.993775844574	0.09994101524353027
8	444.3809778690338	fix_pre	0		120	6.0	2.5	blank	1.0	529.0937168598175	1.0000760555267334
8	444.5645430088043	pulse	0	t		6.0	2.5	blank	1.0	529.277281999588	
8	445.38105392456055	movie	1		300	6.0	2.5	blank	1.0	530.0937929153442	2.4994568824768066
8	446.1646399497986	pulse	1	t		6.0	2.5	blank	1.0	530.8773789405823	
8	447.76447582244873	pulse	1	t		6.0	2.5	blank	1.0	532.4772148132324	
8	447.88051080703735	fix_post	2		12	6.0	2.5	blank	1.0	532.593249797821	0.10052323341369629
9	447.98103404045105	fix_pre	0		120	7.0	2.5	/experiments/AOT/AOT_stimuli/rescaled_final/1109_fw.mp4	0.0	532.6937730312347	0.9995567798614502
9	448.9805908203125	movie	1		245	7.0	2.5	/experiments/AOT/AOT_stimuli/rescaled_final/1109_fw.mp4	0.0	533.6933298110962	2.5002851486206055
9	449.3638620376587	pulse	1	t		7.0	2.5	/experiments/AOT/AOT_stimuli/rescaled_final/1109_fw.mp4	0.0	534.0766010284424	
9	450.9572458267212	pulse	1	t		7.0	2.5	/experiments/AOT/AOT_stimuli/rescaled_final/1109_fw.mp4	0.0	535.6699848175049	
9	451.4808759689331	fix_post	2		12	7.0	2.5	/experiments/AOT/AOT_stimuli/rescaled_final/1109_fw.mp4	0.0	536.1936149597168	0.0999908447265625
10	451.58086681365967	fix_pre	0		119	8.0	2.5	/experiments/AOT/AOT_stimuli/rescaled_final/1871_fw.mp4	0.0	536.2936058044434	0.991786003112793
10	452.56446981430054	pulse	0	t		8.0	2.5	/experiments/AOT/AOT_stimuli/rescaled_final/1871_fw.mp4	0.0	537.2772088050842	
10	452.57265281677246	movie	1		248	8.0	2.5	/experiments/AOT/AOT_stimuli/rescaled_final/1871_fw.mp4	0.0	537.2853918075562	2.5082921981811523
10	454.1637918949127	pulse	1	t		8.0	2.5	/experiments/AOT/AOT_stimuli/rescaled_final/1871_fw.mp4	0.0	538.8765308856964	
10	455.0809450149536	fix_post	2		12	8.0	2.5	/experiments/AOT/AOT_stimuli/rescaled_final/1871_fw.mp4	0.0	539.7936840057373	0.10002279281616211
11	455.1809678077698	fix_pre	0		120	9.0	2.5	/experiments/AOT/AOT_stimuli/rescaled_final/0444_fw.mp4	0.0	539.8937067985535	1.0000531673431396
11	455.76437497138977	pulse	0	t		9.0	2.5	/experiments/AOT/AOT_stimuli/rescaled_final/0444_fw.mp4	0.0	540.4771139621735	
11	456.1810209751129	movie	1		244	9.0	2.5	/experiments/AOT/AOT_stimuli/rescaled_final/0444_fw.mp4	0.0	540.8937599658966	2.499964952468872
11	457.3645079135895	pulse	1	t		9.0	2.5	/experiments/AOT/AOT_stimuli/rescaled_final/0444_fw.mp4	0.0	542.0772469043732	
11	458.6809859275818	fix_post	2		12	9.0	2.5	/experiments/AOT/AOT_stimuli/rescaled_final/0444_fw.mp4	0.0	543.3937249183655	0.09984707832336426
12	458.78083300590515	fix_pre	0		120	10.0	2.5	/experiments/AOT/AOT_stimuli/rescaled_final/1558_fw.mp4	0.0	543.4935719966888	1.0000438690185547
12	458.9568610191345	pulse	0	t		10.0	2.5	/experiments/AOT/AOT_stimuli/rescaled_final/1558_fw.mp4	0.0	543.6696000099182	
12	459.7808768749237	movie	1		245	10.0	2.5	/experiments/AOT/AOT_stimuli/rescaled_final/1558_fw.mp4	0.0	544.4936158657074	2.5000290870666504
12	460.5643799304962	pulse	1	t		10.0	2.5	/experiments/AOT/AOT_stimuli/rescaled_final/1558_fw.mp4	0.0	545.2771189212799	
12	462.1604709625244	pulse	1	t		10.0	2.5	/experiments/AOT/AOT_stimuli/rescaled_final/1558_fw.mp4	0.0	546.8732099533081	
12	462.28090596199036	fix_post	2		12	10.0	2.5	/experiments/AOT/AOT_stimuli/rescaled_final/1558_fw.mp4	0.0	546.993644952774	0.10002899169921875
13	462.3809349536896	fix_pre	0		120	11.0	2.5	/experiments/AOT/AOT_stimuli/rescaled_final/0090_fw.mp4	0.0	547.0936739444733	1.0000059604644775
13	463.38094091415405	movie	1		247	11.0	2.5	/experiments/AOT/AOT_stimuli/rescaled_final/0090_fw.mp4	0.0	548.0936799049377	2.4999799728393555
13	463.7655918598175	pulse	1	t		11.0	2.5	/experiments/AOT/AOT_stimuli/rescaled_final/0090_fw.mp4	0.0	548.4783308506012	
13	465.3643789291382	pulse	1	t		11.0	2.5	/experiments/AOT/AOT_stimuli/rescaled_final/0090_fw.mp4	0.0	550.0771179199219	
13	465.8809208869934	fix_post	2		12	11.0	2.5	/experiments/AOT/AOT_stimuli/rescaled_final/0090_fw.mp4	0.0	550.5936598777771	0.09995794296264648
14	465.98087882995605	fix_pre	0		119	12.0	2.5	/experiments/AOT/AOT_stimuli/rescaled_final/0569_fw.mp4	0.0	550.6936178207397	0.9916331768035889
14	466.9643759727478	pulse	0	t		12.0	2.5	/experiments/AOT/AOT_stimuli/rescaled_final/0569_fw.mp4	0.0	551.6771149635315	
14	466.97251200675964	movie	1		249	12.0	2.5	/experiments/AOT/AOT_stimuli/rescaled_final/0569_fw.mp4	0.0	551.6852509975433	2.50839900970459
14	468.5640389919281	pulse	1	t		12.0	2.5	/experiments/AOT/AOT_stimuli/rescaled_final/0569_fw.mp4	0.0	553.2767779827118	
14	469.48091101646423	fix_post	2		12	12.0	2.5	/experiments/AOT/AOT_stimuli/rescaled_final/0569_fw.mp4	0.0	554.1936500072479	0.0999288558959961
15	469.58083987236023	fix_pre	0		120	13.0	2.5	/experiments/AOT/AOT_stimuli/rescaled_final/0444_rv.mp4	0.0	554.2935788631439	1.000046968460083
15	470.1644389629364	pulse	0	t		13.0	2.5	/experiments/AOT/AOT_stimuli/rescaled_final/0444_rv.mp4	0.0	554.8771779537201	
15	470.5808868408203	movie	1		245	13.0	2.5	/experiments/AOT/AOT_stimuli/rescaled_final/0444_rv.mp4	0.0	555.293625831604	2.5000340938568115
15	471.76439595222473	pulse	1	t		13.0	2.5	/experiments/AOT/AOT_stimuli/rescaled_final/0444_rv.mp4	0.0	556.4771349430084	
15	473.0809209346771	fix_post	2		12	13.0	2.5	/experiments/AOT/AOT_stimuli/rescaled_final/0444_rv.mp4	0.0	557.7936599254608	0.09986710548400879
16	473.18078804016113	fix_pre	0		120	14.0	2.5	blank	1.0	557.8935270309448	1.0001499652862549
16	473.3570148944855	pulse	0	t		14.0	2.5	blank	1.0	558.0697538852692	
16	474.1809380054474	movie	1		300	14.0	2.5	blank	1.0	558.8936769962311	2.4998769760131836
16	474.9568519592285	pulse	1	t		14.0	2.5	blank	1.0	559.6695909500122	
16	476.5643210411072	pulse	1	t		14.0	2.5	blank	1.0	561.2770600318909	
16	476.68081498146057	fix_post	2		12	14.0	2.5	blank	1.0	561.3935539722443	0.10001087188720703
17	476.7808258533478	fix_pre	0		120	15.0	2.5	/experiments/AOT/AOT_stimuli/rescaled_final/0051_fw.mp4	0.0	561.4935648441315	1.0001060962677002
17	477.7809319496155	movie	1		244	15.0	2.5	/experiments/AOT/AOT_stimuli/rescaled_final/0051_fw.mp4	0.0	562.4936709403992	2.4999780654907227
17	478.1640830039978	pulse	1	t		15.0	2.5	/experiments/AOT/AOT_stimuli/rescaled_final/0051_fw.mp4	0.0	562.8768219947815	
17	479.76425099372864	pulse	1	t		15.0	2.5	/experiments/AOT/AOT_stimuli/rescaled_final/0051_fw.mp4	0.0	564.4769899845123	
17	480.2809100151062	fix_post	2		12	15.0	2.5	/experiments/AOT/AOT_stimuli/rescaled_final/0051_fw.mp4	0.0	564.9936490058899	0.09992098808288574
18	480.3808310031891	fix_pre	0		119	16.0	2.5	/experiments/AOT/AOT_stimuli/rescaled_final/1767_fw.mp4	0.0	565.0935699939728	0.991663932800293
18	481.3643248081207	pulse	0	t		16.0	2.5	/experiments/AOT/AOT_stimuli/rescaled_final/1767_fw.mp4	0.0	566.0770637989044	
18	481.3724949359894	movie	1		244	16.0	2.5	/experiments/AOT/AOT_stimuli/rescaled_final/1767_fw.mp4	0.0	566.0852339267731	2.508363962173462
18	482.9639039039612	pulse	1	t		16.0	2.5	/experiments/AOT/AOT_stimuli/rescaled_final/1767_fw.mp4	0.0	567.6766428947449	
18	483.88085889816284	fix_post	2		12	16.0	2.5	/experiments/AOT/AOT_stimuli/rescaled_final/1767_fw.mp4	0.0	568.5935978889465	0.09995102882385254
19	483.9808099269867	fix_pre	0		120	17.0	2.5	/experiments/AOT/AOT_stimuli/rescaled_final/1804_rv.mp4	0.0	568.6935489177704	0.9999499320983887
19	484.5643548965454	pulse	0	t		17.0	2.5	/experiments/AOT/AOT_stimuli/rescaled_final/1804_rv.mp4	0.0	569.2770938873291	
19	484.9807598590851	movie	1		245	17.0	2.5	/experiments/AOT/AOT_stimuli/rescaled_final/1804_rv.mp4	0.0	569.6934988498688	2.5001320838928223
19	486.1643989086151	pulse	1	t		17.0	2.5	/experiments/AOT/AOT_stimuli/rescaled_final/1804_rv.mp4	0.0	570.8771378993988	
19	487.4808919429779	fix_post	2		12	17.0	2.5	/experiments/AOT/AOT_stimuli/rescaled_final/1804_rv.mp4	0.0	572.1936309337616	0.09986090660095215
20	487.58075284957886	fix_pre	0		120	18.0	2.5	/experiments/AOT/AOT_stimuli/rescaled_final/1348_rv.mp4	0.0	572.2934918403625	1.000089168548584
20	487.7642970085144	pulse	0	t		18.0	2.5	/experiments/AOT/AOT_stimuli/rescaled_final/1348_rv.mp4	0.0	572.4770359992981	
20	488.58084201812744	movie	1		245	18.0	2.5	/experiments/AOT/AOT_stimuli/rescaled_final/1348_rv.mp4	0.0	573.2935810089111	2.499974012374878
20	489.35686898231506	pulse	1	t		18.0	2.5	/experiments/AOT/AOT_stimuli/rescaled_final/1348_rv.mp4	0.0	574.0696079730988	
20	490.9628310203552	pulse	1	t		18.0	2.5	/experiments/AOT/AOT_stimuli/rescaled_final/1348_rv.mp4	0.0	575.6755700111389	
20	491.0808160305023	fix_post	2		12	18.0	2.5	/experiments/AOT/AOT_stimuli/rescaled_final/1348_rv.mp4	0.0	575.793555021286	0.09991598129272461
21	491.18073201179504	fix_pre	0		120	19.0	2.5	blank	1.0	575.8934710025787	1.000105857849121
21	492.18083786964417	movie	1		300	19.0	2.5	blank	1.0	576.8935768604279	2.4998910427093506
21	492.5643048286438	pulse	1	t		19.0	2.5	blank	1.0	577.2770438194275	
21	494.1642339229584	pulse	1	t		19.0	2.5	blank	1.0	578.8769729137421	
21	494.6807289123535	fix_post	2		12	19.0	2.5	blank	1.0	579.3934679031372	0.10003805160522461
22	494.78076696395874	fix_pre	0		119	20.0	2.5	/experiments/AOT/AOT_stimuli/rescaled_final/0569_rv.mp4	0.0	579.4935059547424	0.9916999340057373
22	495.7642819881439	pulse	0	t		20.0	2.5	/experiments/AOT/AOT_stimuli/rescaled_final/0569_rv.mp4	0.0	580.4770209789276	
22	495.7724668979645	movie	1		246	20.0	2.5	/experiments/AOT/AOT_stimuli/rescaled_final/0569_rv.mp4	0.0	580.4852058887482	2.5082590579986572
22	497.3637590408325	pulse	1	t		20.0	2.5	/experiments/AOT/AOT_stimuli/rescaled_final/0569_rv.mp4	0.0	582.0764980316162	
22	498.28072595596313	fix_post	2		12	20.0	2.5	/experiments/AOT/AOT_stimuli/rescaled_final/0569_rv.mp4	0.0	582.9934649467468	0.09996604919433594
23	498.38069200515747	fix_pre	0		120	21.0	2.5	/experiments/AOT/AOT_stimuli/rescaled_final/1157_rv.mp4	0.0	583.0934309959412	1.0001189708709717
23	498.9654848575592	pulse	0	t		21.0	2.5	/experiments/AOT/AOT_stimuli/rescaled_final/1157_rv.mp4	0.0	583.6782238483429	
23	499.38081097602844	movie	1		245	21.0	2.5	/experiments/AOT/AOT_stimuli/rescaled_final/1157_rv.mp4	0.0	584.0935499668121	2.4999029636383057
23	500.5642309188843	pulse	1	t		21.0	2.5	/experiments/AOT/AOT_stimuli/rescaled_final/1157_rv.mp4	0.0	585.276969909668	
23	501.88071393966675	fix_post	2		12	21.0	2.5	/experiments/AOT/AOT_stimuli/rescaled_final/1157_rv.mp4	0.0	586.5934529304504	0.09998607635498047
24	501.98070001602173	fix_pre	0		120	22.0	2.5	/experiments/AOT/AOT_stimuli/rescaled_final/0505_fw.mp4	0.0	586.6934390068054	0.9999818801879883
24	502.16429591178894	pulse	0	t		22.0	2.5	/experiments/AOT/AOT_stimuli/rescaled_final/0505_fw.mp4	0.0	586.8770349025726	
24	502.9806818962097	movie	1		244	22.0	2.5	/experiments/AOT/AOT_stimuli/rescaled_final/0505_fw.mp4	0.0	587.6934208869934	2.4996910095214844
24	503.76410603523254	pulse	1	t		22.0	2.5	/experiments/AOT/AOT_stimuli/rescaled_final/0505_fw.mp4	0.0	588.4768450260162	
24	505.3601770401001	pulse	1	t		22.0	2.5	/experiments/AOT/AOT_stimuli/rescaled_final/0505_fw.mp4	0.0	590.0729160308838	
24	505.4803729057312	fix_post	2		12	22.0	2.5	/experiments/AOT/AOT_stimuli/rescaled_final/0505_fw.mp4	0.0	590.1931118965149	0.10004210472106934
25	505.58041501045227	fix_pre	0		120	23.0	2.5	/experiments/AOT/AOT_stimuli/rescaled_final/0128_fw.mp4	0.0	590.293154001236	1.0000889301300049
25	506.5805039405823	movie	1		244	23.0	2.5	/experiments/AOT/AOT_stimuli/rescaled_final/0128_fw.mp4	0.0	591.293242931366	2.5002388954162598
25	506.9636468887329	pulse	1	t		23.0	2.5	/experiments/AOT/AOT_stimuli/rescaled_final/0128_fw.mp4	0.0	591.6763858795166	
25	508.55680990219116	pulse	1	t		23.0	2.5	/experiments/AOT/AOT_stimuli/rescaled_final/0128_fw.mp4	0.0	593.2695488929749	
25	509.08074283599854	fix_post	2		12	23.0	2.5	/experiments/AOT/AOT_stimuli/rescaled_final/0128_fw.mp4	0.0	593.7934818267822	0.1000070571899414
26	509.1807498931885	fix_pre	0		119	24.0	2.5	/experiments/AOT/AOT_stimuli/rescaled_final/0537_rv.mp4	0.0	593.8934888839722	0.9916589260101318
26	510.1642179489136	pulse	0	t		24.0	2.5	/experiments/AOT/AOT_stimuli/rescaled_final/0537_rv.mp4	0.0	594.8769569396973	
26	510.1724088191986	movie	1		246	24.0	2.5	/experiments/AOT/AOT_stimuli/rescaled_final/0537_rv.mp4	0.0	594.8851478099823	2.508240222930908
26	511.7635200023651	pulse	1	t		24.0	2.5	/experiments/AOT/AOT_stimuli/rescaled_final/0537_rv.mp4	0.0	596.4762589931488	
26	512.6806490421295	fix_post	2		12	24.0	2.5	/experiments/AOT/AOT_stimuli/rescaled_final/0537_rv.mp4	0.0	597.3933880329132	0.09992098808288574
27	512.7805700302124	fix_pre	0		120	25.0	2.5	/experiments/AOT/AOT_stimuli/rescaled_final/1315_rv.mp4	0.0	597.4933090209961	1.0000369548797607
27	513.364100933075	pulse	0	t		25.0	2.5	/experiments/AOT/AOT_stimuli/rescaled_final/1315_rv.mp4	0.0	598.0768399238586	
27	513.7806069850922	movie	1		247	25.0	2.5	/experiments/AOT/AOT_stimuli/rescaled_final/1315_rv.mp4	0.0	598.4933459758759	2.5000200271606445
27	514.9642169475555	pulse	1	t		25.0	2.5	/experiments/AOT/AOT_stimuli/rescaled_final/1315_rv.mp4	0.0	599.6769559383392	
27	516.2806270122528	fix_post	2		12	25.0	2.5	/experiments/AOT/AOT_stimuli/rescaled_final/1315_rv.mp4	0.0	600.9933660030365	0.1000218391418457
28	516.3806488513947	fix_pre	0		120	26.0	2.5	/experiments/AOT/AOT_stimuli/rescaled_final/1000_fw.mp4	0.0	601.0933878421783	0.9999489784240723
28	516.5641539096832	pulse	0	t		26.0	2.5	/experiments/AOT/AOT_stimuli/rescaled_final/1000_fw.mp4	0.0	601.2768929004669	
28	517.3805978298187	movie	1		247	26.0	2.5	/experiments/AOT/AOT_stimuli/rescaled_final/1000_fw.mp4	0.0	602.0933368206024	2.5000851154327393
28	518.16406083107	pulse	1	t		26.0	2.5	/experiments/AOT/AOT_stimuli/rescaled_final/1000_fw.mp4	0.0	602.8767998218536	
28	519.7605550289154	pulse	1	t		26.0	2.5	/experiments/AOT/AOT_stimuli/rescaled_final/1000_fw.mp4	0.0	604.4732940196991	
28	519.8806829452515	fix_post	2		12	26.0	2.5	/experiments/AOT/AOT_stimuli/rescaled_final/1000_fw.mp4	0.0	604.5934219360352	0.09989309310913086
29	519.9805760383606	fix_pre	0		120	27.0	2.5	blank	1.0	604.6933150291443	0.9999959468841553
29	520.9805719852448	movie	1		300	27.0	2.5	blank	1.0	605.6933109760284	2.5000159740448
29	521.3640749454498	pulse	1	t		27.0	2.5	blank	1.0	606.0768139362335	
29	522.9641149044037	pulse	1	t		27.0	2.5	blank	1.0	607.6768538951874	
29	523.4805879592896	fix_post	2		12	27.0	2.5	blank	1.0	608.1933269500732	0.10003185272216797
30	523.5806198120117	fix_pre	0		119	28.0	2.5	/experiments/AOT/AOT_stimuli/rescaled_final/0616_fw.mp4	0.0	608.2933588027954	0.9916090965270996
30	524.5640769004822	pulse	0	t		28.0	2.5	/experiments/AOT/AOT_stimuli/rescaled_final/0616_fw.mp4	0.0	609.2768158912659	
30	524.5722289085388	movie	1		244	28.0	2.5	/experiments/AOT/AOT_stimuli/rescaled_final/0616_fw.mp4	0.0	609.2849678993225	2.508362054824829
30	526.1635029315948	pulse	1	t		28.0	2.5	/experiments/AOT/AOT_stimuli/rescaled_final/0616_fw.mp4	0.0	610.8762419223785	
30	527.0805909633636	fix_post	2		12	28.0	2.5	/experiments/AOT/AOT_stimuli/rescaled_final/0616_fw.mp4	0.0	611.7933299541473	0.1000070571899414
31	527.1805980205536	fix_pre	0		120	29.0	2.5	/experiments/AOT/AOT_stimuli/rescaled_final/0505_fw.mp4	0.0	611.8933370113373	0.9999740123748779
31	527.7643029689789	pulse	0	t		29.0	2.5	/experiments/AOT/AOT_stimuli/rescaled_final/0505_fw.mp4	0.0	612.4770419597626	
31	528.1805720329285	movie	1		244	29.0	2.5	/experiments/AOT/AOT_stimuli/rescaled_final/0505_fw.mp4	0.0	612.8933110237122	2.4999988079071045
31	529.3642020225525	pulse	1	t		29.0	2.5	/experiments/AOT/AOT_stimuli/rescaled_final/0505_fw.mp4	0.0	614.0769410133362	
31	530.6805708408356	fix_post	2		12	29.0	2.5	/experiments/AOT/AOT_stimuli/rescaled_final/0505_fw.mp4	0.0	615.3933098316193	0.09996318817138672
32	530.780534029007	fix_pre	0		120	30.0	2.5	/experiments/AOT/AOT_stimuli/rescaled_final/1138_fw.mp4	0.0	615.4932730197906	0.9999878406524658
32	530.9641008377075	pulse	0	t		30.0	2.5	/experiments/AOT/AOT_stimuli/rescaled_final/1138_fw.mp4	0.0	615.6768398284912	
32	531.7805218696594	movie	1		244	30.0	2.5	/experiments/AOT/AOT_stimuli/rescaled_final/1138_fw.mp4	0.0	616.4932608604431	2.5000181198120117
32	532.5641038417816	pulse	1	t		30.0	2.5	/experiments/AOT/AOT_stimuli/rescaled_final/1138_fw.mp4	0.0	617.2768428325653	
32	534.1625528335571	pulse	1	t		30.0	2.5	/experiments/AOT/AOT_stimuli/rescaled_final/1138_fw.mp4	0.0	618.8752918243408	
32	534.2805399894714	fix_post	2		12	30.0	2.5	/experiments/AOT/AOT_stimuli/rescaled_final/1138_fw.mp4	0.0	618.9932789802551	0.10006403923034668
33	534.3806040287018	fix_pre	0		120	31.0	2.5	/experiments/AOT/AOT_stimuli/rescaled_final/1857_rv.mp4	0.0	619.0933430194855	0.9999308586120605
33	535.3805348873138	movie	1		245	31.0	2.5	/experiments/AOT/AOT_stimuli/rescaled_final/1857_rv.mp4	0.0	620.0932738780975	2.500033140182495
33	535.7636349201202	pulse	1	t		31.0	2.5	/experiments/AOT/AOT_stimuli/rescaled_final/1857_rv.mp4	0.0	620.4763739109039	
33	537.3640468120575	pulse	1	t		31.0	2.5	/experiments/AOT/AOT_stimuli/rescaled_final/1857_rv.mp4	0.0	622.0767858028412	
33	537.8805680274963	fix_post	2		12	31.0	2.5	/experiments/AOT/AOT_stimuli/rescaled_final/1857_rv.mp4	0.0	622.59330701828	0.09995698928833008
34	537.9805250167847	fix_pre	0		119	32.0	2.5	/experiments/AOT/AOT_stimuli/rescaled_final/0408_rv.mp4	0.0	622.6932640075684	0.9916679859161377
34	538.9640738964081	pulse	0	t		32.0	2.5	/experiments/AOT/AOT_stimuli/rescaled_final/0408_rv.mp4	0.0	623.6768128871918	
34	538.9721930027008	movie	1		247	32.0	2.5	/experiments/AOT/AOT_stimuli/rescaled_final/0408_rv.mp4	0.0	623.6849319934845	2.5082759857177734
34	540.5635600090027	pulse	1	t		32.0	2.5	/experiments/AOT/AOT_stimuli/rescaled_final/0408_rv.mp4	0.0	625.2762989997864	
34	541.4804689884186	fix_post	2		12	32.0	2.5	/experiments/AOT/AOT_stimuli/rescaled_final/0408_rv.mp4	0.0	626.1932079792023	0.09999895095825195
35	541.5804679393768	fix_pre	0		120	33.0	2.5	/experiments/AOT/AOT_stimuli/rescaled_final/1281_rv.mp4	0.0	626.2932069301605	1.0000419616699219
35	542.1640298366547	pulse	0	t		33.0	2.5	/experiments/AOT/AOT_stimuli/rescaled_final/1281_rv.mp4	0.0	626.8767688274384	
35	542.5805099010468	movie	1		244	33.0	2.5	/experiments/AOT/AOT_stimuli/rescaled_final/1281_rv.mp4	0.0	627.2932488918304	2.4999759197235107
35	543.7640879154205	pulse	1	t		33.0	2.5	/experiments/AOT/AOT_stimuli/rescaled_final/1281_rv.mp4	0.0	628.4768269062042	
35	545.0804858207703	fix_post	2		12	33.0	2.5	/experiments/AOT/AOT_stimuli/rescaled_final/1281_rv.mp4	0.0	629.793224811554	0.09992098808288574
36	545.1804068088531	fix_pre	0		120	34.0	2.5	blank	1.0	629.8931457996368	1.0000600814819336
36	545.3639748096466	pulse	0	t		34.0	2.5	blank	1.0	630.0767138004303	
36	546.1804668903351	movie	1		300	34.0	2.5	blank	1.0	630.8932058811188	2.4999899864196777
36	546.964047908783	pulse	1	t		34.0	2.5	blank	1.0	631.6767868995667	
36	548.5639808177948	pulse	1	t		34.0	2.5	blank	1.0	633.2767198085785	
36	548.6804568767548	fix_post	2		12	34.0	2.5	blank	1.0	633.3931958675385	0.10002303123474121
37	548.7804799079895	fix_pre	0		120	35.0	2.5	/experiments/AOT/AOT_stimuli/rescaled_final/0258_fw.mp4	0.0	633.4932188987732	1.0001139640808105
37	549.7805938720703	movie	1		244	35.0	2.5	/experiments/AOT/AOT_stimuli/rescaled_final/0258_fw.mp4	0.0	634.493332862854	2.499886989593506
37	550.1649968624115	pulse	1	t		35.0	2.5	/experiments/AOT/AOT_stimuli/rescaled_final/0258_fw.mp4	0.0	634.8777358531952	
37	551.764004945755	pulse	1	t		35.0	2.5	/experiments/AOT/AOT_stimuli/rescaled_final/0258_fw.mp4	0.0	636.4767439365387	
37	552.2804808616638	fix_post	2		12	35.0	2.5	/experiments/AOT/AOT_stimuli/rescaled_final/0258_fw.mp4	0.0	636.9932198524475	0.10007095336914062
38	552.380551815033	fix_pre	0		119	36.0	2.5	/experiments/AOT/AOT_stimuli/rescaled_final/0821_fw.mp4	0.0	637.0932908058167	0.9916050434112549
38	553.3640069961548	pulse	0	t		36.0	2.5	/experiments/AOT/AOT_stimuli/rescaled_final/0821_fw.mp4	0.0	638.0767459869385	
38	553.3721568584442	movie	1		245	36.0	2.5	/experiments/AOT/AOT_stimuli/rescaled_final/0821_fw.mp4	0.0	638.0848958492279	2.508226156234741
38	554.9635009765625	pulse	1	t		36.0	2.5	/experiments/AOT/AOT_stimuli/rescaled_final/0821_fw.mp4	0.0	639.6762399673462	
38	555.880383014679	fix_post	2		12	36.0	2.5	/experiments/AOT/AOT_stimuli/rescaled_final/0821_fw.mp4	0.0	640.5931220054626	0.10000991821289062
39	555.9803929328918	fix_pre	0		120	37.0	2.5	/experiments/AOT/AOT_stimuli/rescaled_final/1548_rv.mp4	0.0	640.6931319236755	1.0000419616699219
39	556.5639989376068	pulse	0	t		37.0	2.5	/experiments/AOT/AOT_stimuli/rescaled_final/1548_rv.mp4	0.0	641.2767379283905	
39	556.9804348945618	movie	1		244	37.0	2.5	/experiments/AOT/AOT_stimuli/rescaled_final/1548_rv.mp4	0.0	641.6931738853455	2.500033140182495
39	558.1641759872437	pulse	1	t		37.0	2.5	/experiments/AOT/AOT_stimuli/rescaled_final/1548_rv.mp4	0.0	642.8769149780273	
39	559.4804680347443	fix_post	2		12	37.0	2.5	/experiments/AOT/AOT_stimuli/rescaled_final/1548_rv.mp4	0.0	644.193207025528	0.1000218391418457
40	559.5804898738861	fix_pre	0		120	38.0	2.5	/experiments/AOT/AOT_stimuli/rescaled_final/1235_rv.mp4	0.0	644.2932288646698	0.9995551109313965
40	559.7634479999542	pulse	0	t		38.0	2.5	/experiments/AOT/AOT_stimuli/rescaled_final/1235_rv.mp4	0.0	644.4761869907379	
40	560.5800449848175	movie	1		245	38.0	2.5	/experiments/AOT/AOT_stimuli/rescaled_final/1235_rv.mp4	0.0	645.2927839756012	2.5002799034118652
40	561.3635158538818	pulse	1	t		38.0	2.5	/experiments/AOT/AOT_stimuli/rescaled_final/1235_rv.mp4	0.0	646.0762548446655	
40	562.9624419212341	pulse	1	t		38.0	2.5	/experiments/AOT/AOT_stimuli/rescaled_final/1235_rv.mp4	0.0	647.6751809120178	
40	563.0803248882294	fix_post	2		12	38.0	2.5	/experiments/AOT/AOT_stimuli/rescaled_final/1235_rv.mp4	0.0	647.7930638790131	0.10010004043579102
41	563.1804249286652	fix_pre	0		120	39.0	2.5	/experiments/AOT/AOT_stimuli/rescaled_final/0942_fw.mp4	0.0	647.8931639194489	1.0000450611114502
41	564.1804699897766	movie	1		245	39.0	2.5	/experiments/AOT/AOT_stimuli/rescaled_final/0942_fw.mp4	0.0	648.8932089805603	2.4999279975891113
41	564.5647158622742	pulse	1	t		39.0	2.5	/experiments/AOT/AOT_stimuli/rescaled_final/0942_fw.mp4	0.0	649.2774548530579	
41	566.1638419628143	pulse	1	t		39.0	2.5	/experiments/AOT/AOT_stimuli/rescaled_final/0942_fw.mp4	0.0	650.876580953598	
41	566.6803979873657	fix_post	2		12	39.0	2.5	/experiments/AOT/AOT_stimuli/rescaled_final/0942_fw.mp4	0.0	651.3931369781494	0.10004782676696777
42	566.7804458141327	fix_pre	0		119	40.0	2.5	/experiments/AOT/AOT_stimuli/rescaled_final/0905_rv.mp4	0.0	651.4931848049164	0.9916691780090332
42	567.7640500068665	pulse	0	t		40.0	2.5	/experiments/AOT/AOT_stimuli/rescaled_final/0905_rv.mp4	0.0	652.4767889976501	
42	567.7721149921417	movie	1		247	40.0	2.5	/experiments/AOT/AOT_stimuli/rescaled_final/0905_rv.mp4	0.0	652.4848539829254	2.5082359313964844
42	569.3634459972382	pulse	1	t		40.0	2.5	/experiments/AOT/AOT_stimuli/rescaled_final/0905_rv.mp4	0.0	654.0761849880219	
42	570.2803509235382	fix_post	2		12	40.0	2.5	/experiments/AOT/AOT_stimuli/rescaled_final/0905_rv.mp4	0.0	654.9930899143219	0.09965991973876953
43	570.380010843277	fix_pre	0		120	41.0	2.5	blank	1.0	655.0927498340607	1.000324010848999
43	570.9638500213623	pulse	0	t		41.0	2.5	blank	1.0	655.676589012146	
43	571.380334854126	movie	1		300	41.0	2.5	blank	1.0	656.0930738449097	2.4999489784240723
43	572.5639379024506	pulse	1	t		41.0	2.5	blank	1.0	657.2766768932343	
43	573.88028383255	fix_post	2		12	41.0	2.5	blank	1.0	658.5930228233337	0.09965920448303223
44	573.9799430370331	fix_pre	0		120	42.0	2.5	/experiments/AOT/AOT_stimuli/rescaled_final/1548_fw.mp4	0.0	658.6926820278168	1.000431776046753
44	574.1640079021454	pulse	0	t		42.0	2.5	/experiments/AOT/AOT_stimuli/rescaled_final/1548_fw.mp4	0.0	658.8767468929291	
44	574.9803748130798	movie	1		245	42.0	2.5	/experiments/AOT/AOT_stimuli/rescaled_final/1548_fw.mp4	0.0	659.6931138038635	2.4995532035827637
44	575.7638068199158	pulse	1	t		42.0	2.5	/experiments/AOT/AOT_stimuli/rescaled_final/1548_fw.mp4	0.0	660.4765458106995	
44	577.3626298904419	pulse	1	t		42.0	2.5	/experiments/AOT/AOT_stimuli/rescaled_final/1548_fw.mp4	0.0	662.0753688812256	
44	577.4799280166626	fix_post	2		12	42.0	2.5	/experiments/AOT/AOT_stimuli/rescaled_final/1548_fw.mp4	0.0	662.1926670074463	0.10038590431213379
45	577.5803139209747	fix_pre	0		120	43.0	2.5	/experiments/AOT/AOT_stimuli/rescaled_final/0697_rv.mp4	0.0	662.2930529117584	1.0000300407409668
45	578.5803439617157	movie	1		243	43.0	2.5	/experiments/AOT/AOT_stimuli/rescaled_final/0697_rv.mp4	0.0	663.2930829524994	2.499534845352173
45	578.9637138843536	pulse	1	t		43.0	2.5	/experiments/AOT/AOT_stimuli/rescaled_final/0697_rv.mp4	0.0	663.6764528751373	
45	580.563796043396	pulse	1	t		43.0	2.5	/experiments/AOT/AOT_stimuli/rescaled_final/0697_rv.mp4	0.0	665.2765350341797	
45	581.0798788070679	fix_post	2		12	43.0	2.5	/experiments/AOT/AOT_stimuli/rescaled_final/0697_rv.mp4	0.0	665.7926177978516	0.10041403770446777
46	581.1802928447723	fix_pre	0		119	44.0	2.5	/experiments/AOT/AOT_stimuli/rescaled_final/1427_fw.mp4	0.0	665.893031835556	0.9917011260986328
46	582.1637580394745	pulse	0	t		44.0	2.5	/experiments/AOT/AOT_stimuli/rescaled_final/1427_fw.mp4	0.0	666.8764970302582	
46	582.171993970871	movie	1		250	44.0	2.5	/experiments/AOT/AOT_stimuli/rescaled_final/1427_fw.mp4	0.0	666.8847329616547	2.508280038833618
46	583.7632999420166	pulse	1	t		44.0	2.5	/experiments/AOT/AOT_stimuli/rescaled_final/1427_fw.mp4	0.0	668.4760389328003	
46	584.6802740097046	fix_post	2		12	44.0	2.5	/experiments/AOT/AOT_stimuli/rescaled_final/1427_fw.mp4	0.0	669.3930130004883	0.10013580322265625
47	584.7804098129272	fix_pre	0		120	45.0	2.5	/experiments/AOT/AOT_stimuli/rescaled_final/1767_fw.mp4	0.0	669.4931488037109	0.9998760223388672
47	585.3638370037079	pulse	0	t		45.0	2.5	/experiments/AOT/AOT_stimuli/rescaled_final/1767_fw.mp4	0.0	670.0765759944916	
47	585.7802858352661	movie	1		245	45.0	2.5	/experiments/AOT/AOT_stimuli/rescaled_final/1767_fw.mp4	0.0	670.4930248260498	2.5000531673431396
47	586.9638550281525	pulse	1	t		45.0	2.5	/experiments/AOT/AOT_stimuli/rescaled_final/1767_fw.mp4	0.0	671.6765940189362	
47	588.2803390026093	fix_post	2		12	45.0	2.5	/experiments/AOT/AOT_stimuli/rescaled_final/1767_fw.mp4	0.0	672.993077993393	0.09992289543151855
48	588.3802618980408	fix_pre	0		120	46.0	2.5	/experiments/AOT/AOT_stimuli/rescaled_final/0545_fw.mp4	0.0	673.0930008888245	0.9999570846557617
48	588.5637209415436	pulse	0	t		46.0	2.5	/experiments/AOT/AOT_stimuli/rescaled_final/0545_fw.mp4	0.0	673.2764599323273	
48	589.3802189826965	movie	1		244	46.0	2.5	/experiments/AOT/AOT_stimuli/rescaled_final/0545_fw.mp4	0.0	674.0929579734802	2.5000150203704834
48	590.1637299060822	pulse	1	t		46.0	2.5	/experiments/AOT/AOT_stimuli/rescaled_final/0545_fw.mp4	0.0	674.8764688968658	
48	591.7599129676819	pulse	1	t		46.0	2.5	/experiments/AOT/AOT_stimuli/rescaled_final/0545_fw.mp4	0.0	676.4726519584656	
48	591.880234003067	fix_post	2		12	46.0	2.5	/experiments/AOT/AOT_stimuli/rescaled_final/0545_fw.mp4	0.0	676.5929729938507	0.10003995895385742
49	591.9802739620209	fix_pre	0		120	47.0	2.5	/experiments/AOT/AOT_stimuli/rescaled_final/0225_fw.mp4	0.0	676.6930129528046	1.0000200271606445
49	592.9802939891815	movie	1		243	47.0	2.5	/experiments/AOT/AOT_stimuli/rescaled_final/0225_fw.mp4	0.0	677.6930329799652	2.4995429515838623
49	593.364748954773	pulse	1	t		47.0	2.5	/experiments/AOT/AOT_stimuli/rescaled_final/0225_fw.mp4	0.0	678.0774879455566	
49	594.963761806488	pulse	1	t		47.0	2.5	/experiments/AOT/AOT_stimuli/rescaled_final/0225_fw.mp4	0.0	679.6765007972717	
49	595.4798369407654	fix_post	2		12	47.0	2.5	/experiments/AOT/AOT_stimuli/rescaled_final/0225_fw.mp4	0.0	680.1925759315491	0.10038495063781738
50	595.5802218914032	fix_pre	0		119	48.0	2.5	blank	1.0	680.2929608821869	0.9917521476745605
50	596.5637769699097	pulse	0	t		48.0	2.5	blank	1.0	681.2765159606934	
50	596.5719740390778	movie	1		301	48.0	2.5	blank	1.0	681.2847130298615	2.5082077980041504
50	598.1637380123138	pulse	1	t		48.0	2.5	blank	1.0	682.8764770030975	
50	599.0801818370819	fix_post	2		12	48.0	2.5	blank	1.0	683.7929208278656	0.10007405281066895
51	599.1802558898926	fix_pre	0		120	49.0	2.5	/experiments/AOT/AOT_stimuli/rescaled_final/2127_rv.mp4	0.0	683.8929948806763	0.9999351501464844
51	599.7637560367584	pulse	0	t		49.0	2.5	/experiments/AOT/AOT_stimuli/rescaled_final/2127_rv.mp4	0.0	684.4764950275421	
51	600.1801910400391	movie	1		247	49.0	2.5	/experiments/AOT/AOT_stimuli/rescaled_final/2127_rv.mp4	0.0	684.8929300308228	2.5000247955322266
51	601.3638248443604	pulse	1	t		49.0	2.5	/experiments/AOT/AOT_stimuli/rescaled_final/2127_rv.mp4	0.0	686.076563835144	
51	602.6802158355713	fix_post	2		12	49.0	2.5	/experiments/AOT/AOT_stimuli/rescaled_final/2127_rv.mp4	0.0	687.392954826355	0.10005712509155273
52	602.7802729606628	fix_pre	0		120	50.0	2.5	/experiments/AOT/AOT_stimuli/rescaled_final/0084_rv.mp4	0.0	687.4930119514465	1.0000040531158447
52	602.9637258052826	pulse	0	t		50.0	2.5	/experiments/AOT/AOT_stimuli/rescaled_final/0084_rv.mp4	0.0	687.6764647960663	
52	603.7802770137787	movie	1		243	50.0	2.5	/experiments/AOT/AOT_stimuli/rescaled_final/0084_rv.mp4	0.0	688.4930160045624	2.499706983566284
52	604.5637538433075	pulse	1	t		50.0	2.5	/experiments/AOT/AOT_stimuli/rescaled_final/0084_rv.mp4	0.0	689.2764928340912	
52	606.1623778343201	pulse	1	t		50.0	2.5	/experiments/AOT/AOT_stimuli/rescaled_final/0084_rv.mp4	0.0	690.8751168251038	
52	606.279983997345	fix_post	2		12	50.0	2.5	/experiments/AOT/AOT_stimuli/rescaled_final/0084_rv.mp4	0.0	690.9927229881287	0.10018181800842285
53	606.3801658153534	fix_pre	0		120	51.0	2.5	/experiments/AOT/AOT_stimuli/rescaled_final/0407_rv.mp4	0.0	691.0929048061371	1.0080440044403076
53	607.3882098197937	movie	1		243	51.0	2.5	/experiments/AOT/AOT_stimuli/rescaled_final/0407_rv.mp4	0.0	692.1009488105774	2.491981029510498
53	607.7631378173828	pulse	1	t		51.0	2.5	/experiments/AOT/AOT_stimuli/rescaled_final/0407_rv.mp4	0.0	692.4758768081665	
53	609.3636908531189	pulse	1	t		51.0	2.5	/experiments/AOT/AOT_stimuli/rescaled_final/0407_rv.mp4	0.0	694.0764298439026	
53	609.8801908493042	fix_post	2		12	51.0	2.5	/experiments/AOT/AOT_stimuli/rescaled_final/0407_rv.mp4	0.0	694.5929298400879	0.0999901294708252
54	609.980180978775	fix_pre	0		119	52.0	2.5	/experiments/AOT/AOT_stimuli/rescaled_final/0041_fw.mp4	0.0	694.6929199695587	0.9917049407958984
54	610.9637358188629	pulse	0	t		52.0	2.5	/experiments/AOT/AOT_stimuli/rescaled_final/0041_fw.mp4	0.0	695.6764748096466	
54	610.9718859195709	movie	1		248	52.0	2.5	/experiments/AOT/AOT_stimuli/rescaled_final/0041_fw.mp4	0.0	695.6846249103546	2.508268117904663
54	612.5633578300476	pulse	1	t		52.0	2.5	/experiments/AOT/AOT_stimuli/rescaled_final/0041_fw.mp4	0.0	697.2760968208313	
54	613.4801540374756	fix_post	2		12	52.0	2.5	/experiments/AOT/AOT_stimuli/rescaled_final/0041_fw.mp4	0.0	698.1928930282593	0.10000181198120117
55	613.5801558494568	fix_pre	0		120	53.0	2.5	/experiments/AOT/AOT_stimuli/rescaled_final/0360_fw.mp4	0.0	698.2928948402405	1.0000059604644775
55	614.1637749671936	pulse	0	t		53.0	2.5	/experiments/AOT/AOT_stimuli/rescaled_final/0360_fw.mp4	0.0	698.8765139579773	
55	614.5801618099213	movie	1		246	53.0	2.5	/experiments/AOT/AOT_stimuli/rescaled_final/0360_fw.mp4	0.0	699.292900800705	2.499697208404541
55	615.7638549804688	pulse	1	t		53.0	2.5	/experiments/AOT/AOT_stimuli/rescaled_final/0360_fw.mp4	0.0	700.4765939712524	
55	617.0798590183258	fix_post	2		12	53.0	2.5	/experiments/AOT/AOT_stimuli/rescaled_final/0360_fw.mp4	0.0	701.7925980091095	0.1000368595123291
56	617.1798958778381	fix_pre	0		120	54.0	2.5	/experiments/AOT/AOT_stimuli/rescaled_final/0806_rv.mp4	0.0	701.8926348686218	1.0000860691070557
56	617.3633940219879	pulse	0	t		54.0	2.5	/experiments/AOT/AOT_stimuli/rescaled_final/0806_rv.mp4	0.0	702.0761330127716	
56	618.1799819469452	movie	1		243	54.0	2.5	/experiments/AOT/AOT_stimuli/rescaled_final/0806_rv.mp4	0.0	702.8927209377289	2.500319004058838
56	618.9634439945221	pulse	1	t		54.0	2.5	/experiments/AOT/AOT_stimuli/rescaled_final/0806_rv.mp4	0.0	703.6761829853058	
56	620.5621728897095	pulse	1	t		54.0	2.5	/experiments/AOT/AOT_stimuli/rescaled_final/0806_rv.mp4	0.0	705.2749118804932	
56	620.680300951004	fix_post	2		12	54.0	2.5	/experiments/AOT/AOT_stimuli/rescaled_final/0806_rv.mp4	0.0	705.3930399417877	0.0998690128326416
57	620.7801699638367	fix_pre	0		120	55.0	2.5	blank	1.0	705.4929089546204	0.999945878982544
57	621.7801158428192	movie	1		300	55.0	2.5	blank	1.0	706.4928548336029	2.499965190887451
57	622.1637408733368	pulse	1	t		55.0	2.5	blank	1.0	706.8764798641205	
57	623.7636239528656	pulse	1	t		55.0	2.5	blank	1.0	708.4763629436493	
57	624.2800810337067	fix_post	2		12	55.0	2.5	blank	1.0	708.9928200244904	0.09996891021728516
58	624.380049943924	fix_pre	0		119	56.0	2.5	/experiments/AOT/AOT_stimuli/rescaled_final/1155_fw.mp4	0.0	709.0927889347076	0.991757869720459
58	625.3637099266052	pulse	0	t		56.0	2.5	/experiments/AOT/AOT_stimuli/rescaled_final/1155_fw.mp4	0.0	710.0764489173889	
58	625.3718078136444	movie	1		247	56.0	2.5	/experiments/AOT/AOT_stimuli/rescaled_final/1155_fw.mp4	0.0	710.0845468044281	2.5082180500030518
58	626.963681936264	pulse	1	t		56.0	2.5	/experiments/AOT/AOT_stimuli/rescaled_final/1155_fw.mp4	0.0	711.6764209270477	
58	627.8800258636475	fix_post	2		12	56.0	2.5	/experiments/AOT/AOT_stimuli/rescaled_final/1155_fw.mp4	0.0	712.5927648544312	0.10008096694946289
59	627.9801068305969	fix_pre	0		120	57.0	2.5	/experiments/AOT/AOT_stimuli/rescaled_final/0569_fw.mp4	0.0	712.6928458213806	0.999953031539917
59	628.5635769367218	pulse	0	t		57.0	2.5	/experiments/AOT/AOT_stimuli/rescaled_final/0569_fw.mp4	0.0	713.2763159275055	
59	628.9800598621368	movie	1		247	57.0	2.5	/experiments/AOT/AOT_stimuli/rescaled_final/0569_fw.mp4	0.0	713.6927988529205	2.500046968460083
59	630.1636168956757	pulse	1	t		57.0	2.5	/experiments/AOT/AOT_stimuli/rescaled_final/0569_fw.mp4	0.0	714.8763558864594	
59	631.4801068305969	fix_post	2		12	57.0	2.5	/experiments/AOT/AOT_stimuli/rescaled_final/0569_fw.mp4	0.0	716.1928458213806	0.09993410110473633
60	631.5800409317017	fix_pre	0		120	58.0	2.5	/experiments/AOT/AOT_stimuli/rescaled_final/1863_fw.mp4	0.0	716.2927799224854	1.000096082687378
60	631.7635889053345	pulse	0	t		58.0	2.5	/experiments/AOT/AOT_stimuli/rescaled_final/1863_fw.mp4	0.0	716.4763278961182	
60	632.580137014389	movie	1		247	58.0	2.5	/experiments/AOT/AOT_stimuli/rescaled_final/1863_fw.mp4	0.0	717.2928760051727	2.4999399185180664
60	633.3636260032654	pulse	1	t		58.0	2.5	/experiments/AOT/AOT_stimuli/rescaled_final/1863_fw.mp4	0.0	718.0763649940491	
60	634.9636030197144	pulse	1	t		58.0	2.5	/experiments/AOT/AOT_stimuli/rescaled_final/1863_fw.mp4	0.0	719.676342010498	
60	635.0800769329071	fix_post	2		12	58.0	2.5	/experiments/AOT/AOT_stimuli/rescaled_final/1863_fw.mp4	0.0	719.7928159236908	0.09995698928833008
61	635.1800339221954	fix_pre	0		120	59.0	2.5	/experiments/AOT/AOT_stimuli/rescaled_final/2112_fw.mp4	0.0	719.8927729129791	1.0000770092010498
61	636.1801109313965	movie	1		247	59.0	2.5	/experiments/AOT/AOT_stimuli/rescaled_final/2112_fw.mp4	0.0	720.8928499221802	2.4999029636383057
61	636.5636160373688	pulse	1	t		59.0	2.5	/experiments/AOT/AOT_stimuli/rescaled_final/2112_fw.mp4	0.0	721.2763550281525	
61	638.1635398864746	pulse	1	t		59.0	2.5	/experiments/AOT/AOT_stimuli/rescaled_final/2112_fw.mp4	0.0	722.8762788772583	
61	638.6800138950348	fix_post	2		12	59.0	2.5	/experiments/AOT/AOT_stimuli/rescaled_final/2112_fw.mp4	0.0	723.3927528858185	0.10003113746643066
62	638.7800450325012	fix_pre	0		119	60.0	2.5	/experiments/AOT/AOT_stimuli/rescaled_final/0914_rv.mp4	0.0	723.4927840232849	0.9916539192199707
62	639.7634978294373	pulse	0	t		60.0	2.5	/experiments/AOT/AOT_stimuli/rescaled_final/0914_rv.mp4	0.0	724.476236820221	
62	639.7716989517212	movie	1		247	60.0	2.5	/experiments/AOT/AOT_stimuli/rescaled_final/0914_rv.mp4	0.0	724.4844379425049	2.5083038806915283
62	641.3633370399475	pulse	1	t		60.0	2.5	/experiments/AOT/AOT_stimuli/rescaled_final/0914_rv.mp4	0.0	726.0760760307312	
62	642.2800028324127	fix_post	2		12	60.0	2.5	/experiments/AOT/AOT_stimuli/rescaled_final/0914_rv.mp4	0.0	726.9927418231964	0.09999418258666992
63	642.3799970149994	fix_pre	0		120	61.0	2.5	/experiments/AOT/AOT_stimuli/rescaled_final/1109_rv.mp4	0.0	727.0927360057831	1.000006914138794
63	642.9635558128357	pulse	0	t		61.0	2.5	/experiments/AOT/AOT_stimuli/rescaled_final/1109_rv.mp4	0.0	727.6762948036194	
63	643.3800039291382	movie	1		243	61.0	2.5	/experiments/AOT/AOT_stimuli/rescaled_final/1109_rv.mp4	0.0	728.0927429199219	2.5000460147857666
63	644.5635938644409	pulse	1	t		61.0	2.5	/experiments/AOT/AOT_stimuli/rescaled_final/1109_rv.mp4	0.0	729.2763328552246	
63	645.880049943924	fix_post	2		12	61.0	2.5	/experiments/AOT/AOT_stimuli/rescaled_final/1109_rv.mp4	0.0	730.5927889347076	0.09995007514953613
64	645.9800000190735	fix_pre	0		120	62.0	2.5	/experiments/AOT/AOT_stimuli/rescaled_final/1722_fw.mp4	0.0	730.6927390098572	1.0000419616699219
64	646.1634969711304	pulse	0	t		62.0	2.5	/experiments/AOT/AOT_stimuli/rescaled_final/1722_fw.mp4	0.0	730.8762359619141	
64	646.9800419807434	movie	1		242	62.0	2.5	/experiments/AOT/AOT_stimuli/rescaled_final/1722_fw.mp4	0.0	731.6927809715271	2.5000410079956055
64	647.7634420394897	pulse	1	t		62.0	2.5	/experiments/AOT/AOT_stimuli/rescaled_final/1722_fw.mp4	0.0	732.4761810302734	
64	649.3624408245087	pulse	1	t		62.0	2.5	/experiments/AOT/AOT_stimuli/rescaled_final/1722_fw.mp4	0.0	734.0751798152924	
64	649.480082988739	fix_post	2		12	62.0	2.5	/experiments/AOT/AOT_stimuli/rescaled_final/1722_fw.mp4	0.0	734.1928219795227	0.09992694854736328
65	649.5800099372864	fix_pre	0		120	63.0	2.5	blank	1.0	734.2927489280701	1.0001060962677002
65	650.5801160335541	movie	1		300	63.0	2.5	blank	1.0	735.2928550243378	2.499858856201172
65	650.9635038375854	pulse	1	t		63.0	2.5	blank	1.0	735.6762428283691	
65	652.5634050369263	pulse	1	t		63.0	2.5	blank	1.0	737.27614402771	
65	653.0799748897552	fix_post	2		12	63.0	2.5	blank	1.0	737.7927138805389	0.10007715225219727
66	653.1800520420074	fix_pre	0		119	64.0	2.5	/experiments/AOT/AOT_stimuli/rescaled_final/1588_fw.mp4	0.0	737.8927910327911	0.9916698932647705
66	654.1635110378265	pulse	0	t		64.0	2.5	/experiments/AOT/AOT_stimuli/rescaled_final/1588_fw.mp4	0.0	738.8762500286102	
66	654.1717219352722	movie	1		249	64.0	2.5	/experiments/AOT/AOT_stimuli/rescaled_final/1588_fw.mp4	0.0	738.8844609260559	2.5082850456237793
66	655.7628829479218	pulse	1	t		64.0	2.5	/experiments/AOT/AOT_stimuli/rescaled_final/1588_fw.mp4	0.0	740.4756219387054	
66	656.680006980896	fix_post	2		12	64.0	2.5	/experiments/AOT/AOT_stimuli/rescaled_final/1588_fw.mp4	0.0	741.3927459716797	0.09997987747192383
67	656.7799868583679	fix_pre	0		120	65.0	2.5	/experiments/AOT/AOT_stimuli/rescaled_final/1702_rv.mp4	0.0	741.4927258491516	1.0000121593475342
67	657.36354804039	pulse	0	t		65.0	2.5	/experiments/AOT/AOT_stimuli/rescaled_final/1702_rv.mp4	0.0	742.0762870311737	
67	657.7799990177155	movie	1		244	65.0	2.5	/experiments/AOT/AOT_stimuli/rescaled_final/1702_rv.mp4	0.0	742.4927380084991	2.499966859817505
67	658.963515996933	pulse	1	t		65.0	2.5	/experiments/AOT/AOT_stimuli/rescaled_final/1702_rv.mp4	0.0	743.6762549877167	
67	660.279965877533	fix_post	2		12	65.0	2.5	/experiments/AOT/AOT_stimuli/rescaled_final/1702_rv.mp4	0.0	744.9927048683167	0.10003900527954102
68	660.3800048828125	fix_pre	0		120	66.0	2.5	/experiments/AOT/AOT_stimuli/rescaled_final/0041_fw.mp4	0.0	745.0927438735962	0.9995870590209961
68	660.5634989738464	pulse	0	t		66.0	2.5	/experiments/AOT/AOT_stimuli/rescaled_final/0041_fw.mp4	0.0	745.2762379646301	
68	661.3795919418335	movie	1		247	66.0	2.5	/experiments/AOT/AOT_stimuli/rescaled_final/0041_fw.mp4	0.0	746.0923309326172	2.5003559589385986
68	662.163412809372	pulse	1	t		66.0	2.5	/experiments/AOT/AOT_stimuli/rescaled_final/0041_fw.mp4	0.0	746.8761518001556	
68	663.7634708881378	pulse	1	t		66.0	2.5	/experiments/AOT/AOT_stimuli/rescaled_final/0041_fw.mp4	0.0	748.4762098789215	
68	663.8799479007721	fix_post	2		12	66.0	2.5	/experiments/AOT/AOT_stimuli/rescaled_final/0041_fw.mp4	0.0	748.5926868915558	0.09996604919433594
69	663.9799139499664	fix_pre	0		120	67.0	2.5	/experiments/AOT/AOT_stimuli/rescaled_final/1783_rv.mp4	0.0	748.6926529407501	0.9995908737182617
69	664.9795048236847	movie	1		244	67.0	2.5	/experiments/AOT/AOT_stimuli/rescaled_final/1783_rv.mp4	0.0	749.6922438144684	2.5003910064697266
69	665.3629558086395	pulse	1	t		67.0	2.5	/experiments/AOT/AOT_stimuli/rescaled_final/1783_rv.mp4	0.0	750.0756947994232	
69	666.9634509086609	pulse	1	t		67.0	2.5	/experiments/AOT/AOT_stimuli/rescaled_final/1783_rv.mp4	0.0	751.6761898994446	
69	667.4798958301544	fix_post	2		12	67.0	2.5	/experiments/AOT/AOT_stimuli/rescaled_final/1783_rv.mp4	0.0	752.1926348209381	0.09994006156921387
70	667.5798358917236	fix_pre	0		119	68.0	2.5	blank	1.0	752.2925748825073	0.99173903465271
70	668.5634548664093	pulse	0	t		68.0	2.5	blank	1.0	753.276193857193	
70	668.5715749263763	movie	1		301	68.0	2.5	blank	1.0	753.28431391716	2.5083858966827393
70	670.1634650230408	pulse	1	t		68.0	2.5	blank	1.0	754.8762040138245	
70	671.0799608230591	fix_post	2		12	68.0	2.5	blank	1.0	755.7926998138428	0.09948301315307617
71	671.1794438362122	fix_pre	0		120	69.0	2.5	/experiments/AOT/AOT_stimuli/rescaled_final/0457_rv.mp4	0.0	755.8921828269958	1.0000450611114502
71	671.7629859447479	pulse	0	t		69.0	2.5	/experiments/AOT/AOT_stimuli/rescaled_final/0457_rv.mp4	0.0	756.4757249355316	
71	672.1794888973236	movie	1		245	69.0	2.5	/experiments/AOT/AOT_stimuli/rescaled_final/0457_rv.mp4	0.0	756.8922278881073	2.500312089920044
71	673.3635289669037	pulse	1	t		69.0	2.5	/experiments/AOT/AOT_stimuli/rescaled_final/0457_rv.mp4	0.0	758.0762679576874	
71	674.6798009872437	fix_post	2		12	69.0	2.5	/experiments/AOT/AOT_stimuli/rescaled_final/0457_rv.mp4	0.0	759.3925399780273	0.10004091262817383
72	674.7798418998718	fix_pre	0		120	70.0	2.5	/experiments/AOT/AOT_stimuli/rescaled_final/1514_rv.mp4	0.0	759.4925808906555	1.0000510215759277
72	674.9633338451385	pulse	0	t		70.0	2.5	/experiments/AOT/AOT_stimuli/rescaled_final/1514_rv.mp4	0.0	759.6760728359222	
72	675.7798929214478	movie	1		245	70.0	2.5	/experiments/AOT/AOT_stimuli/rescaled_final/1514_rv.mp4	0.0	760.4926319122314	2.499967098236084
72	676.5633549690247	pulse	1	t		70.0	2.5	/experiments/AOT/AOT_stimuli/rescaled_final/1514_rv.mp4	0.0	761.2760939598083	
72	678.1620819568634	pulse	1	t		70.0	2.5	/experiments/AOT/AOT_stimuli/rescaled_final/1514_rv.mp4	0.0	762.8748209476471	
72	678.2798600196838	fix_post	2		12	70.0	2.5	/experiments/AOT/AOT_stimuli/rescaled_final/1514_rv.mp4	0.0	762.9925990104675	0.09998893737792969
73	678.3798489570618	fix_pre	0		120	71.0	2.5	/experiments/AOT/AOT_stimuli/rescaled_final/0616_rv.mp4	0.0	763.0925879478455	1.0000429153442383
73	679.379891872406	movie	1		245	71.0	2.5	/experiments/AOT/AOT_stimuli/rescaled_final/0616_rv.mp4	0.0	764.0926308631897	2.500044107437134
73	679.7634968757629	pulse	1	t		71.0	2.5	/experiments/AOT/AOT_stimuli/rescaled_final/0616_rv.mp4	0.0	764.4762358665466	
73	681.3632819652557	pulse	1	t		71.0	2.5	/experiments/AOT/AOT_stimuli/rescaled_final/0616_rv.mp4	0.0	766.0760209560394	
73	681.8799359798431	fix_post	2		12	71.0	2.5	/experiments/AOT/AOT_stimuli/rescaled_final/0616_rv.mp4	0.0	766.5926749706268	0.09990286827087402
74	681.979838848114	fix_pre	0		119	72.0	2.5	/experiments/AOT/AOT_stimuli/rescaled_final/1933_rv.mp4	0.0	766.6925778388977	0.9916601181030273
74	682.9633848667145	pulse	0	t		72.0	2.5	/experiments/AOT/AOT_stimuli/rescaled_final/1933_rv.mp4	0.0	767.6761238574982	
74	682.971498966217	movie	1		247	72.0	2.5	/experiments/AOT/AOT_stimuli/rescaled_final/1933_rv.mp4	0.0	767.6842379570007	2.507966995239258
74	684.5628938674927	pulse	1	t		72.0	2.5	/experiments/AOT/AOT_stimuli/rescaled_final/1933_rv.mp4	0.0	769.2756328582764	
74	685.4794659614563	fix_post	2		12	72.0	2.5	/experiments/AOT/AOT_stimuli/rescaled_final/1933_rv.mp4	0.0	770.19220495224	0.1003730297088623
75	685.5798389911652	fix_pre	0		120	73.0	2.5	/experiments/AOT/AOT_stimuli/rescaled_final/1914_fw.mp4	0.0	770.2925779819489	0.9999918937683105
75	686.1633248329163	pulse	0	t		73.0	2.5	/experiments/AOT/AOT_stimuli/rescaled_final/1914_fw.mp4	0.0	770.8760638237	
75	686.5798308849335	movie	1		245	73.0	2.5	/experiments/AOT/AOT_stimuli/rescaled_final/1914_fw.mp4	0.0	771.2925698757172	2.4999821186065674
75	687.7634139060974	pulse	1	t		73.0	2.5	/experiments/AOT/AOT_stimuli/rescaled_final/1914_fw.mp4	0.0	772.4761528968811	
75	689.07981300354	fix_post	2		12	73.0	2.5	/experiments/AOT/AOT_stimuli/rescaled_final/1914_fw.mp4	0.0	773.7925519943237	0.09995794296264648
76	689.1797709465027	fix_pre	0		120	74.0	2.5	/experiments/AOT/AOT_stimuli/rescaled_final/1296_fw.mp4	0.0	773.8925099372864	1.0000190734863281
76	689.3633708953857	pulse	0	t		74.0	2.5	/experiments/AOT/AOT_stimuli/rescaled_final/1296_fw.mp4	0.0	774.0761098861694	
76	690.179790019989	movie	1		247	74.0	2.5	/experiments/AOT/AOT_stimuli/rescaled_final/1296_fw.mp4	0.0	774.8925290107727	2.500025987625122
76	690.9632940292358	pulse	1	t		74.0	2.5	/experiments/AOT/AOT_stimuli/rescaled_final/1296_fw.mp4	0.0	775.6760330200195	
76	692.56290102005	pulse	1	t		74.0	2.5	/experiments/AOT/AOT_stimuli/rescaled_final/1296_fw.mp4	0.0	777.2756400108337	
76	692.6798160076141	fix_post	2		12	74.0	2.5	/experiments/AOT/AOT_stimuli/rescaled_final/1296_fw.mp4	0.0	777.3925549983978	0.09995603561401367
77	692.7797720432281	fix_pre	0		120	75.0	2.5	/experiments/AOT/AOT_stimuli/rescaled_final/2108_fw.mp4	0.0	777.4925110340118	1.000058889389038
77	693.7798309326172	movie	1		244	75.0	2.5	/experiments/AOT/AOT_stimuli/rescaled_final/2108_fw.mp4	0.0	778.4925699234009	2.499919891357422
77	694.1634919643402	pulse	1	t		75.0	2.5	/experiments/AOT/AOT_stimuli/rescaled_final/2108_fw.mp4	0.0	778.8762309551239	
77	695.7633399963379	pulse	1	t		75.0	2.5	/experiments/AOT/AOT_stimuli/rescaled_final/2108_fw.mp4	0.0	780.4760789871216	
77	696.2797508239746	fix_post	2		12	75.0	2.5	/experiments/AOT/AOT_stimuli/rescaled_final/2108_fw.mp4	0.0	780.9924898147583	0.10001707077026367
78	696.3797678947449	fix_pre	0		119	76.0	2.5	/experiments/AOT/AOT_stimuli/rescaled_final/1234_fw.mp4	0.0	781.0925068855286	0.9917011260986328
78	697.3633320331573	pulse	0	t		76.0	2.5	/experiments/AOT/AOT_stimuli/rescaled_final/1234_fw.mp4	0.0	782.076071023941	
78	697.3714690208435	movie	1		245	76.0	2.5	/experiments/AOT/AOT_stimuli/rescaled_final/1234_fw.mp4	0.0	782.0842080116272	2.5082998275756836
78	698.9627618789673	pulse	1	t		76.0	2.5	/experiments/AOT/AOT_stimuli/rescaled_final/1234_fw.mp4	0.0	783.675500869751	
78	699.8797688484192	fix_post	2		12	76.0	2.5	/experiments/AOT/AOT_stimuli/rescaled_final/1234_fw.mp4	0.0	784.5925078392029	0.09998011589050293
79	699.9797489643097	fix_pre	0		120	77.0	2.5	blank	1.0	784.6924879550934	1.0000460147857666
79	700.5633339881897	pulse	0	t		77.0	2.5	blank	1.0	785.2760729789734	
79	700.9797949790955	movie	1		300	77.0	2.5	blank	1.0	785.6925339698792	2.4995319843292236
79	702.1632149219513	pulse	1	t		77.0	2.5	blank	1.0	786.875953912735	
79	703.4793269634247	fix_post	2		12	77.0	2.5	blank	1.0	788.1920659542084	0.1004638671875
80	703.5797908306122	fix_pre	0		120	78.0	2.5	/experiments/AOT/AOT_stimuli/rescaled_final/0528_fw.mp4	0.0	788.2925298213959	0.9999971389770508
80	703.7632508277893	pulse	0	t		78.0	2.5	/experiments/AOT/AOT_stimuli/rescaled_final/0528_fw.mp4	0.0	788.475989818573	
80	704.5797879695892	movie	1		246	78.0	2.5	/experiments/AOT/AOT_stimuli/rescaled_final/0528_fw.mp4	0.0	789.2925269603729	2.4994959831237793
80	705.363224029541	pulse	1	t		78.0	2.5	/experiments/AOT/AOT_stimuli/rescaled_final/0528_fw.mp4	0.0	790.0759630203247	
80	706.9632298946381	pulse	1	t		78.0	2.5	/experiments/AOT/AOT_stimuli/rescaled_final/0528_fw.mp4	0.0	791.6759688854218	
80	707.079283952713	fix_post	2		12	78.0	2.5	/experiments/AOT/AOT_stimuli/rescaled_final/0528_fw.mp4	0.0	791.7920229434967	0.10040903091430664
81	707.1796929836273	fix_pre	0		120	79.0	2.5	/experiments/AOT/AOT_stimuli/rescaled_final/0806_rv.mp4	0.0	791.892431974411	1.0000770092010498
81	708.1797699928284	movie	1		244	79.0	2.5	/experiments/AOT/AOT_stimuli/rescaled_final/0806_rv.mp4	0.0	792.8925089836121	2.499945878982544
81	708.5633668899536	pulse	1	t		79.0	2.5	/experiments/AOT/AOT_stimuli/rescaled_final/0806_rv.mp4	0.0	793.2761058807373	
81	710.1632969379425	pulse	1	t		79.0	2.5	/experiments/AOT/AOT_stimuli/rescaled_final/0806_rv.mp4	0.0	794.8760359287262	
81	710.6797158718109	fix_post	2		12	79.0	2.5	/experiments/AOT/AOT_stimuli/rescaled_final/0806_rv.mp4	0.0	795.3924548625946	0.10006999969482422
82	710.7797858715057	fix_pre	0		119	80.0	2.5	/experiments/AOT/AOT_stimuli/rescaled_final/0407_rv.mp4	0.0	795.4925248622894	0.9916441440582275
82	711.7632539272308	pulse	0	t		80.0	2.5	/experiments/AOT/AOT_stimuli/rescaled_final/0407_rv.mp4	0.0	796.4759929180145	
82	711.771430015564	movie	1		245	80.0	2.5	/experiments/AOT/AOT_stimuli/rescaled_final/0407_rv.mp4	0.0	796.4841690063477	2.5083179473876953
82	713.3629248142242	pulse	1	t		80.0	2.5	/experiments/AOT/AOT_stimuli/rescaled_final/0407_rv.mp4	0.0	798.0756638050079	
82	714.2797479629517	fix_post	2		12	80.0	2.5	/experiments/AOT/AOT_stimuli/rescaled_final/0407_rv.mp4	0.0	798.9924869537354	0.09999489784240723
83	714.3797428607941	fix_pre	0		120	81.0	2.5	/experiments/AOT/AOT_stimuli/rescaled_final/1427_rv.mp4	0.0	799.0924818515778	0.9999799728393555
83	714.9632449150085	pulse	0	t		81.0	2.5	/experiments/AOT/AOT_stimuli/rescaled_final/1427_rv.mp4	0.0	799.6759839057922	
83	715.3797228336334	movie	1		248	81.0	2.5	/experiments/AOT/AOT_stimuli/rescaled_final/1427_rv.mp4	0.0	800.0924618244171	2.499962091445923
83	716.5631909370422	pulse	1	t		81.0	2.5	/experiments/AOT/AOT_stimuli/rescaled_final/1427_rv.mp4	0.0	801.2759299278259	
83	717.8796849250793	fix_post	2		12	81.0	2.5	/experiments/AOT/AOT_stimuli/rescaled_final/1427_rv.mp4	0.0	802.592423915863	0.0999460220336914
84	717.979630947113	fix_pre	0		120	82.0	2.5	blank	1.0	802.6923699378967	1.0001299381256104
84	718.1631309986115	pulse	0	t		82.0	2.5	blank	1.0	802.8758699893951	
84	718.9797608852386	movie	1		300	82.0	2.5	blank	1.0	803.6924998760223	2.4998250007629395
84	719.7630889415741	pulse	1	t		82.0	2.5	blank	1.0	804.4758279323578	
84	721.3631768226624	pulse	1	t		82.0	2.5	blank	1.0	806.075915813446	
84	721.4795858860016	fix_post	2		12	82.0	2.5	blank	1.0	806.1923248767853	0.10010910034179688
85	721.5796949863434	fix_pre	0		120	83.0	2.5	/experiments/AOT/AOT_stimuli/rescaled_final/2129_fw.mp4	0.0	806.2924339771271	0.9999890327453613
85	722.5796840190887	movie	1		244	83.0	2.5	/experiments/AOT/AOT_stimuli/rescaled_final/2129_fw.mp4	0.0	807.2924230098724	2.4999358654022217
85	722.9627740383148	pulse	1	t		83.0	2.5	/experiments/AOT/AOT_stimuli/rescaled_final/2129_fw.mp4	0.0	807.6755130290985	
85	724.5631949901581	pulse	1	t		83.0	2.5	/experiments/AOT/AOT_stimuli/rescaled_final/2129_fw.mp4	0.0	809.2759339809418	
85	725.079619884491	fix_post	2		12	83.0	2.5	/experiments/AOT/AOT_stimuli/rescaled_final/2129_fw.mp4	0.0	809.7923588752747	0.10007500648498535
87	725.179694890976	stim	0		1716					809.8924338817596	14.299936056137085
87	726.1632039546967	pulse	0	t						810.8759429454803	
87	727.76269698143	pulse	0	t						812.4754359722137	
87	729.3627889156342	pulse	0	t						814.0755279064178	
87	730.9630739688873	pulse	0	t						815.675812959671	
87	732.563138961792	pulse	0	t						817.2758779525757	
87	734.163055896759	pulse	0	t						818.8757948875427	
87	735.76305103302	pulse	0	t						820.4757900238037	
87	737.3629949092865	pulse	0	t						822.0757339000702	
87	738.9630098342896	pulse	0	t						823.6757488250732	
