trial_nr	onset	event_type	phase	response	nr_frames	movie_index	movie_duration	movie_file	blank	onset_abs	duration
0	0.16637253761291504	stim	0		12					22.208483457565308	0.09997153282165527
0	0.25827598571777344	response	0	space						22.300386905670166	
1	0.2663440704345703	stim	0		4786					22.308454990386963	39.89840817451477
1	40.15525436401367	pulse	0	t						62.197365283966064	
1	40.16475224494934	stim	1		1715					62.20686316490173	14.301379203796387
1	41.747742891311646	pulse	1	t						63.78985381126404	
1	43.347931146621704	pulse	1	t						65.3900420665741	
1	44.94820785522461	pulse	1	t						66.990318775177	
1	46.548354148864746	pulse	1	t						68.59046506881714	
1	48.14871597290039	pulse	1	t						70.19082689285278	
1	49.74889039993286	pulse	1	t						71.79100131988525	
1	51.34908103942871	pulse	1	t						73.3911919593811	
1	52.94944643974304	pulse	1	t						74.99155735969543	
2	54.46613144874573	fix_pre	0		11	0.0	2.5	/experiments/Knapen_AOT/AOT_stimuli/rescaled_final/1409_rv.mp4	0.0	76.50824236869812	0.10833597183227539
2	54.54966139793396	pulse	0	t		0.0	2.5	/experiments/Knapen_AOT/AOT_stimuli/rescaled_final/1409_rv.mp4	0.0	76.59177231788635	
2	54.574467420578	movie	1		276	0.0	2.5	/experiments/Knapen_AOT/AOT_stimuli/rescaled_final/1409_rv.mp4	0.0	76.6165783405304	2.4920601844787598
2	56.148311376571655	pulse	1	t		0.0	2.5	/experiments/Knapen_AOT/AOT_stimuli/rescaled_final/1409_rv.mp4	0.0	78.19042229652405	
2	57.06652760505676	fix_post	2		12	0.0	2.5	/experiments/Knapen_AOT/AOT_stimuli/rescaled_final/1409_rv.mp4	0.0	79.10863852500916	0.0999917984008789
3	57.16651940345764	fix_pre	0		120	1.0	2.5	/experiments/Knapen_AOT/AOT_stimuli/rescaled_final/0946_fw.mp4	0.0	79.20863032341003	1.0084807872772217
3	57.75012135505676	pulse	0	t		1.0	2.5	/experiments/Knapen_AOT/AOT_stimuli/rescaled_final/0946_fw.mp4	0.0	79.79223227500916	
3	58.17500019073486	movie	1		276	1.0	2.5	/experiments/Knapen_AOT/AOT_stimuli/rescaled_final/0946_fw.mp4	0.0	80.21711111068726	2.4920339584350586
3	59.34854507446289	pulse	1	t		1.0	2.5	/experiments/Knapen_AOT/AOT_stimuli/rescaled_final/0946_fw.mp4	0.0	81.39065599441528	
3	60.66703414916992	fix_post	2		12	1.0	2.5	/experiments/Knapen_AOT/AOT_stimuli/rescaled_final/0946_fw.mp4	0.0	82.70914506912231	0.10001611709594727
4	60.76705026626587	fix_pre	0		120	2.0	2.5	/experiments/Knapen_AOT/AOT_stimuli/rescaled_final/0460_fw.mp4	0.0	82.80916118621826	1.0084853172302246
4	60.950682401657104	pulse	0	t		2.0	2.5	/experiments/Knapen_AOT/AOT_stimuli/rescaled_final/0460_fw.mp4	0.0	82.9927933216095	
4	61.775535583496094	movie	1		273	2.0	2.5	/experiments/Knapen_AOT/AOT_stimuli/rescaled_final/0460_fw.mp4	0.0	83.81764650344849	2.4920177459716797
4	62.550994634628296	pulse	1	t		2.0	2.5	/experiments/Knapen_AOT/AOT_stimuli/rescaled_final/0460_fw.mp4	0.0	84.59310555458069	
4	64.14910888671875	pulse	1	t		2.0	2.5	/experiments/Knapen_AOT/AOT_stimuli/rescaled_final/0460_fw.mp4	0.0	86.19121980667114	
4	64.26755332946777	fix_post	2		12	2.0	2.5	/experiments/Knapen_AOT/AOT_stimuli/rescaled_final/0460_fw.mp4	0.0	86.30966424942017	0.10003471374511719
5	64.36758804321289	fix_pre	0		120	3.0	2.5	/experiments/Knapen_AOT/AOT_stimuli/rescaled_final/1971_rv.mp4	0.0	86.40969896316528	1.008502721786499
5	65.37609076499939	movie	1		273	3.0	2.5	/experiments/Knapen_AOT/AOT_stimuli/rescaled_final/1971_rv.mp4	0.0	87.41820168495178	2.491997241973877
5	65.75189423561096	pulse	1	t		3.0	2.5	/experiments/Knapen_AOT/AOT_stimuli/rescaled_final/1971_rv.mp4	0.0	87.79400515556335	
5	67.35040473937988	pulse	1	t		3.0	2.5	/experiments/Knapen_AOT/AOT_stimuli/rescaled_final/1971_rv.mp4	0.0	89.39251565933228	
5	67.86808800697327	fix_post	2		12	3.0	2.5	/experiments/Knapen_AOT/AOT_stimuli/rescaled_final/1971_rv.mp4	0.0	89.91019892692566	0.10003256797790527
6	67.96812057495117	fix_pre	0		119	4.0	2.5	/experiments/Knapen_AOT/AOT_stimuli/rescaled_final/0783_fw.mp4	0.0	90.01023149490356	1.0086455345153809
6	68.95201015472412	pulse	0	t		4.0	2.5	/experiments/Knapen_AOT/AOT_stimuli/rescaled_final/0783_fw.mp4	0.0	90.99412107467651	
6	68.97676610946655	movie	1		279	4.0	2.5	/experiments/Knapen_AOT/AOT_stimuli/rescaled_final/0783_fw.mp4	0.0	91.01887702941895	2.4918806552886963
6	70.55047059059143	pulse	1	t		4.0	2.5	/experiments/Knapen_AOT/AOT_stimuli/rescaled_final/0783_fw.mp4	0.0	92.59258151054382	
6	71.46864676475525	fix_post	2		12	4.0	2.5	/experiments/Knapen_AOT/AOT_stimuli/rescaled_final/0783_fw.mp4	0.0	93.51075768470764	0.10002350807189941
7	71.56867027282715	fix_pre	0		120	5.0	2.5	/experiments/Knapen_AOT/AOT_stimuli/rescaled_final/1409_rv.mp4	0.0	93.61078119277954	1.0084679126739502
7	72.1446704864502	pulse	0	t		5.0	2.5	/experiments/Knapen_AOT/AOT_stimuli/rescaled_final/1409_rv.mp4	0.0	94.18678140640259	
7	72.5771381855011	movie	1		282	5.0	2.5	/experiments/Knapen_AOT/AOT_stimuli/rescaled_final/1409_rv.mp4	0.0	94.61924910545349	2.492039203643799
7	73.75047516822815	pulse	1	t		5.0	2.5	/experiments/Knapen_AOT/AOT_stimuli/rescaled_final/1409_rv.mp4	0.0	95.79258608818054	
7	75.0691773891449	fix_post	2		12	5.0	2.5	/experiments/Knapen_AOT/AOT_stimuli/rescaled_final/1409_rv.mp4	0.0	97.11128830909729	0.10023736953735352
8	75.16941475868225	fix_pre	0		120	6.0	2.5	blank	1.0	97.21152567863464	0.999936580657959
8	75.34472393989563	pulse	0	t		6.0	2.5	blank	1.0	97.38683485984802	
8	76.16935133934021	movie	1		300	6.0	2.5	blank	1.0	98.2114622592926	2.500366449356079
8	76.94496297836304	pulse	1	t		6.0	2.5	blank	1.0	98.98707389831543	
8	78.54489588737488	pulse	1	t		6.0	2.5	blank	1.0	100.58700680732727	
8	78.66971778869629	fix_post	2		12	6.0	2.5	blank	1.0	100.71182870864868	0.10004782676696777
9	78.76976561546326	fix_pre	0		120	7.0	2.5	/experiments/Knapen_AOT/AOT_stimuli/rescaled_final/0390_rv.mp4	0.0	100.81187653541565	1.0084786415100098
9	79.77824425697327	movie	1		279	7.0	2.5	/experiments/Knapen_AOT/AOT_stimuli/rescaled_final/0390_rv.mp4	0.0	101.82035517692566	2.492034912109375
9	80.14517188072205	pulse	1	t		7.0	2.5	/experiments/Knapen_AOT/AOT_stimuli/rescaled_final/0390_rv.mp4	0.0	102.18728280067444	
9	81.74539637565613	pulse	1	t		7.0	2.5	/experiments/Knapen_AOT/AOT_stimuli/rescaled_final/0390_rv.mp4	0.0	103.78750729560852	
9	82.27027916908264	fix_post	2		12	7.0	2.5	/experiments/Knapen_AOT/AOT_stimuli/rescaled_final/0390_rv.mp4	0.0	104.31239008903503	0.10001087188720703
10	82.37029004096985	fix_pre	0		118	8.0	2.5	/experiments/Knapen_AOT/AOT_stimuli/rescaled_final/1588_fw.mp4	0.0	104.41240096092224	0.9918274879455566
10	83.34567093849182	pulse	0	t		8.0	2.5	/experiments/Knapen_AOT/AOT_stimuli/rescaled_final/1588_fw.mp4	0.0	105.38778185844421	
10	83.3621175289154	movie	1		278	8.0	2.5	/experiments/Knapen_AOT/AOT_stimuli/rescaled_final/1588_fw.mp4	0.0	105.4042284488678	2.5003561973571777
10	84.94591355323792	pulse	1	t		8.0	2.5	/experiments/Knapen_AOT/AOT_stimuli/rescaled_final/1588_fw.mp4	0.0	106.98802447319031	
10	85.86247372627258	fix_post	2		12	8.0	2.5	/experiments/Knapen_AOT/AOT_stimuli/rescaled_final/1588_fw.mp4	0.0	107.90458464622498	0.10007071495056152
11	85.96254444122314	fix_pre	0		120	9.0	2.5	/experiments/Knapen_AOT/AOT_stimuli/rescaled_final/1526_fw.mp4	0.0	108.00465536117554	1.008469581604004
11	86.54625272750854	pulse	0	t		9.0	2.5	/experiments/Knapen_AOT/AOT_stimuli/rescaled_final/1526_fw.mp4	0.0	108.58836364746094	
11	86.97101402282715	movie	1		289	9.0	2.5	/experiments/Knapen_AOT/AOT_stimuli/rescaled_final/1526_fw.mp4	0.0	109.01312494277954	2.491997718811035
11	88.14477586746216	pulse	1	t		9.0	2.5	/experiments/Knapen_AOT/AOT_stimuli/rescaled_final/1526_fw.mp4	0.0	110.18688678741455	
11	89.46301174163818	fix_post	2		12	9.0	2.5	/experiments/Knapen_AOT/AOT_stimuli/rescaled_final/1526_fw.mp4	0.0	111.50512266159058	0.10008668899536133
12	89.56309843063354	fix_pre	0		120	10.0	2.5	/experiments/Knapen_AOT/AOT_stimuli/rescaled_final/1005_rv.mp4	0.0	111.60520935058594	1.0084598064422607
12	89.74661445617676	pulse	0	t		10.0	2.5	/experiments/Knapen_AOT/AOT_stimuli/rescaled_final/1005_rv.mp4	0.0	111.78872537612915	
12	90.5715582370758	movie	1		291	10.0	2.5	/experiments/Knapen_AOT/AOT_stimuli/rescaled_final/1005_rv.mp4	0.0	112.6136691570282	2.491987943649292
12	91.34478759765625	pulse	1	t		10.0	2.5	/experiments/Knapen_AOT/AOT_stimuli/rescaled_final/1005_rv.mp4	0.0	113.38689851760864	
12	92.94484758377075	pulse	1	t		10.0	2.5	/experiments/Knapen_AOT/AOT_stimuli/rescaled_final/1005_rv.mp4	0.0	114.98695850372314	
12	93.0635461807251	fix_post	2		12	10.0	2.5	/experiments/Knapen_AOT/AOT_stimuli/rescaled_final/1005_rv.mp4	0.0	115.10565710067749	0.10028505325317383
13	93.16383123397827	fix_pre	0		120	11.0	2.5	/experiments/Knapen_AOT/AOT_stimuli/rescaled_final/0031_rv.mp4	0.0	115.20594215393066	1.0082502365112305
13	94.1720814704895	movie	1		282	11.0	2.5	/experiments/Knapen_AOT/AOT_stimuli/rescaled_final/0031_rv.mp4	0.0	116.2141923904419	2.492018699645996
13	94.54573106765747	pulse	1	t		11.0	2.5	/experiments/Knapen_AOT/AOT_stimuli/rescaled_final/0031_rv.mp4	0.0	116.58784198760986	
13	96.14549422264099	pulse	1	t		11.0	2.5	/experiments/Knapen_AOT/AOT_stimuli/rescaled_final/0031_rv.mp4	0.0	118.18760514259338	
13	96.6641001701355	fix_post	2		12	11.0	2.5	/experiments/Knapen_AOT/AOT_stimuli/rescaled_final/0031_rv.mp4	0.0	118.70621109008789	0.10007619857788086
14	96.76417636871338	fix_pre	0		119	12.0	2.5	/experiments/Knapen_AOT/AOT_stimuli/rescaled_final/0698_fw.mp4	0.0	118.80628728866577	1.0000956058502197
14	97.74780011177063	pulse	0	t		12.0	2.5	/experiments/Knapen_AOT/AOT_stimuli/rescaled_final/0698_fw.mp4	0.0	119.78991103172302	
14	97.7642719745636	movie	1		271	12.0	2.5	/experiments/Knapen_AOT/AOT_stimuli/rescaled_final/0698_fw.mp4	0.0	119.80638289451599	2.5003530979156494
14	99.3480544090271	pulse	1	t		12.0	2.5	/experiments/Knapen_AOT/AOT_stimuli/rescaled_final/0698_fw.mp4	0.0	121.39016532897949	
14	100.26462507247925	fix_post	2		12	12.0	2.5	/experiments/Knapen_AOT/AOT_stimuli/rescaled_final/0698_fw.mp4	0.0	122.30673599243164	0.10007572174072266
15	100.36470079421997	fix_pre	0		120	13.0	2.5	/experiments/Knapen_AOT/AOT_stimuli/rescaled_final/2108_rv.mp4	0.0	122.40681171417236	1.008462905883789
15	100.948246717453	pulse	0	t		13.0	2.5	/experiments/Knapen_AOT/AOT_stimuli/rescaled_final/2108_rv.mp4	0.0	122.9903576374054	
15	101.37316370010376	movie	1		278	13.0	2.5	/experiments/Knapen_AOT/AOT_stimuli/rescaled_final/2108_rv.mp4	0.0	123.41527462005615	2.4922776222229004
15	102.54866933822632	pulse	1	t		13.0	2.5	/experiments/Knapen_AOT/AOT_stimuli/rescaled_final/2108_rv.mp4	0.0	124.59078025817871	
15	103.86544132232666	fix_post	2		12	13.0	2.5	/experiments/Knapen_AOT/AOT_stimuli/rescaled_final/2108_rv.mp4	0.0	125.90755224227905	0.09974074363708496
16	103.96518206596375	fix_pre	0		120	14.0	2.5	blank	1.0	126.00729298591614	1.0001552104949951
16	104.14877772331238	pulse	0	t		14.0	2.5	blank	1.0	126.19088864326477	
16	104.96533727645874	movie	1		300	14.0	2.5	blank	1.0	127.00744819641113	2.500422954559326
16	105.74897575378418	pulse	1	t		14.0	2.5	blank	1.0	127.79108667373657	
16	107.34926509857178	pulse	1	t		14.0	2.5	blank	1.0	129.39137601852417	
16	107.46576023101807	fix_post	2		12	14.0	2.5	blank	1.0	129.50787115097046	0.0999906063079834
17	107.56575083732605	fix_pre	0		120	15.0	2.5	/experiments/Knapen_AOT/AOT_stimuli/rescaled_final/0946_rv.mp4	0.0	129.60786175727844	1.0084662437438965
17	108.57421708106995	movie	1		276	15.0	2.5	/experiments/Knapen_AOT/AOT_stimuli/rescaled_final/0946_rv.mp4	0.0	130.61632800102234	2.492027997970581
17	108.94797348976135	pulse	1	t		15.0	2.5	/experiments/Knapen_AOT/AOT_stimuli/rescaled_final/0946_rv.mp4	0.0	130.99008440971375	
17	110.54775309562683	pulse	1	t		15.0	2.5	/experiments/Knapen_AOT/AOT_stimuli/rescaled_final/0946_rv.mp4	0.0	132.58986401557922	
17	111.06624507904053	fix_post	2		12	15.0	2.5	/experiments/Knapen_AOT/AOT_stimuli/rescaled_final/0946_rv.mp4	0.0	133.10835599899292	0.10002589225769043
18	111.16627097129822	fix_pre	0		119	16.0	2.5	/experiments/Knapen_AOT/AOT_stimuli/rescaled_final/0977_fw.mp4	0.0	133.2083818912506	1.0001654624938965
18	112.14998364448547	pulse	0	t		16.0	2.5	/experiments/Knapen_AOT/AOT_stimuli/rescaled_final/0977_fw.mp4	0.0	134.19209456443787	
18	112.16643643379211	movie	1		292	16.0	2.5	/experiments/Knapen_AOT/AOT_stimuli/rescaled_final/0977_fw.mp4	0.0	134.2085473537445	2.500300645828247
18	113.74872374534607	pulse	1	t		16.0	2.5	/experiments/Knapen_AOT/AOT_stimuli/rescaled_final/0977_fw.mp4	0.0	135.79083466529846	
18	114.66673707962036	fix_post	2		12	16.0	2.5	/experiments/Knapen_AOT/AOT_stimuli/rescaled_final/0977_fw.mp4	0.0	136.70884799957275	0.10003232955932617
19	114.76676940917969	fix_pre	0		120	17.0	2.5	/experiments/Knapen_AOT/AOT_stimuli/rescaled_final/1485_fw.mp4	0.0	136.80888032913208	1.0001673698425293
19	115.35037159919739	pulse	0	t		17.0	2.5	/experiments/Knapen_AOT/AOT_stimuli/rescaled_final/1485_fw.mp4	0.0	137.39248251914978	
19	115.76693677902222	movie	1		297	17.0	2.5	/experiments/Knapen_AOT/AOT_stimuli/rescaled_final/1485_fw.mp4	0.0	137.8090476989746	2.500368595123291
19	116.94812846183777	pulse	1	t		17.0	2.5	/experiments/Knapen_AOT/AOT_stimuli/rescaled_final/1485_fw.mp4	0.0	138.99023938179016	
19	118.26730537414551	fix_post	2		12	17.0	2.5	/experiments/Knapen_AOT/AOT_stimuli/rescaled_final/1485_fw.mp4	0.0	140.3094162940979	0.10004353523254395
20	118.36734890937805	fix_pre	0		120	18.0	2.5	/experiments/Knapen_AOT/AOT_stimuli/rescaled_final/0614_fw.mp4	0.0	140.40945982933044	1.0085093975067139
20	118.55095505714417	pulse	0	t		18.0	2.5	/experiments/Knapen_AOT/AOT_stimuli/rescaled_final/0614_fw.mp4	0.0	140.59306597709656	
20	119.37585830688477	movie	1		297	18.0	2.5	/experiments/Knapen_AOT/AOT_stimuli/rescaled_final/0614_fw.mp4	0.0	141.41796922683716	2.4919943809509277
20	120.14674687385559	pulse	1	t		18.0	2.5	/experiments/Knapen_AOT/AOT_stimuli/rescaled_final/0614_fw.mp4	0.0	142.18885779380798	
20	121.74698781967163	pulse	1	t		18.0	2.5	/experiments/Knapen_AOT/AOT_stimuli/rescaled_final/0614_fw.mp4	0.0	143.78909873962402	
20	121.8678526878357	fix_post	2		12	18.0	2.5	/experiments/Knapen_AOT/AOT_stimuli/rescaled_final/0614_fw.mp4	0.0	143.9099636077881	0.10006332397460938
21	121.9679160118103	fix_pre	0		120	19.0	2.5	blank	1.0	144.0100269317627	1.0001475811004639
21	122.96806359291077	movie	1		300	19.0	2.5	blank	1.0	145.01017451286316	2.500380754470825
21	123.35160636901855	pulse	1	t		19.0	2.5	blank	1.0	145.39371728897095	
21	124.9519293308258	pulse	1	t		19.0	2.5	blank	1.0	146.9940402507782	
21	125.46844434738159	fix_post	2		12	19.0	2.5	blank	1.0	147.51055526733398	0.10000038146972656
22	125.56844472885132	fix_pre	0		119	20.0	2.5	/experiments/Knapen_AOT/AOT_stimuli/rescaled_final/0609_rv.mp4	0.0	147.6105556488037	1.000154972076416
22	126.55218195915222	pulse	0	t		20.0	2.5	/experiments/Knapen_AOT/AOT_stimuli/rescaled_final/0609_rv.mp4	0.0	148.59429287910461	
22	126.56859970092773	movie	1		292	20.0	2.5	/experiments/Knapen_AOT/AOT_stimuli/rescaled_final/0609_rv.mp4	0.0	148.61071062088013	2.500359296798706
22	128.15083360671997	pulse	1	t		20.0	2.5	/experiments/Knapen_AOT/AOT_stimuli/rescaled_final/0609_rv.mp4	0.0	150.19294452667236	
22	129.06895899772644	fix_post	2		12	20.0	2.5	/experiments/Knapen_AOT/AOT_stimuli/rescaled_final/0609_rv.mp4	0.0	151.11106991767883	0.10004568099975586
23	129.1690046787262	fix_pre	0		120	21.0	2.5	/experiments/Knapen_AOT/AOT_stimuli/rescaled_final/0749_fw.mp4	0.0	151.2111155986786	1.0084609985351562
23	129.75267243385315	pulse	0	t		21.0	2.5	/experiments/Knapen_AOT/AOT_stimuli/rescaled_final/0749_fw.mp4	0.0	151.79478335380554	
23	130.17746567726135	movie	1		290	21.0	2.5	/experiments/Knapen_AOT/AOT_stimuli/rescaled_final/0749_fw.mp4	0.0	152.21957659721375	2.492037057876587
23	131.35134387016296	pulse	1	t		21.0	2.5	/experiments/Knapen_AOT/AOT_stimuli/rescaled_final/0749_fw.mp4	0.0	153.39345479011536	
23	132.66950273513794	fix_post	2		12	21.0	2.5	/experiments/Knapen_AOT/AOT_stimuli/rescaled_final/0749_fw.mp4	0.0	154.71161365509033	0.10016465187072754
24	132.76966738700867	fix_pre	0		120	22.0	2.5	/experiments/Knapen_AOT/AOT_stimuli/rescaled_final/0121_fw.mp4	0.0	154.81177830696106	1.0083520412445068
24	132.94551610946655	pulse	0	t		22.0	2.5	/experiments/Knapen_AOT/AOT_stimuli/rescaled_final/0121_fw.mp4	0.0	154.98762702941895	
24	133.77801942825317	movie	1		273	22.0	2.5	/experiments/Knapen_AOT/AOT_stimuli/rescaled_final/0121_fw.mp4	0.0	155.82013034820557	2.4920270442962646
24	134.5456759929657	pulse	1	t		22.0	2.5	/experiments/Knapen_AOT/AOT_stimuli/rescaled_final/0121_fw.mp4	0.0	156.5877869129181	
24	136.14537048339844	pulse	1	t		22.0	2.5	/experiments/Knapen_AOT/AOT_stimuli/rescaled_final/0121_fw.mp4	0.0	158.18748140335083	
24	136.27004647254944	fix_post	2		12	22.0	2.5	/experiments/Knapen_AOT/AOT_stimuli/rescaled_final/0121_fw.mp4	0.0	158.31215739250183	0.10003376007080078
25	136.37008023262024	fix_pre	0		120	23.0	2.5	/experiments/Knapen_AOT/AOT_stimuli/rescaled_final/1213_rv.mp4	0.0	158.41219115257263	1.0084996223449707
25	137.3785798549652	movie	1		283	23.0	2.5	/experiments/Knapen_AOT/AOT_stimuli/rescaled_final/1213_rv.mp4	0.0	159.4206907749176	2.492020845413208
25	137.74603915214539	pulse	1	t		23.0	2.5	/experiments/Knapen_AOT/AOT_stimuli/rescaled_final/1213_rv.mp4	0.0	159.78815007209778	
25	139.34571766853333	pulse	1	t		23.0	2.5	/experiments/Knapen_AOT/AOT_stimuli/rescaled_final/1213_rv.mp4	0.0	161.38782858848572	
25	139.87060070037842	fix_post	2		12	23.0	2.5	/experiments/Knapen_AOT/AOT_stimuli/rescaled_final/1213_rv.mp4	0.0	161.9127116203308	0.09999632835388184
26	139.9705970287323	fix_pre	0		118	24.0	2.5	/experiments/Knapen_AOT/AOT_stimuli/rescaled_final/1400_rv.mp4	0.0	162.0127079486847	0.991809606552124
26	140.94598817825317	pulse	0	t		24.0	2.5	/experiments/Knapen_AOT/AOT_stimuli/rescaled_final/1400_rv.mp4	0.0	162.98809909820557	
26	140.96240663528442	movie	1		291	24.0	2.5	/experiments/Knapen_AOT/AOT_stimuli/rescaled_final/1400_rv.mp4	0.0	163.00451755523682	2.5004055500030518
26	142.54465889930725	pulse	1	t		24.0	2.5	/experiments/Knapen_AOT/AOT_stimuli/rescaled_final/1400_rv.mp4	0.0	164.58676981925964	
26	143.46281218528748	fix_post	2		12	24.0	2.5	/experiments/Knapen_AOT/AOT_stimuli/rescaled_final/1400_rv.mp4	0.0	165.50492310523987	0.09999227523803711
27	143.5628044605255	fix_pre	0		120	25.0	2.5	/experiments/Knapen_AOT/AOT_stimuli/rescaled_final/0061_fw.mp4	0.0	165.6049153804779	1.0085065364837646
27	144.1465802192688	pulse	0	t		25.0	2.5	/experiments/Knapen_AOT/AOT_stimuli/rescaled_final/0061_fw.mp4	0.0	166.1886911392212	
27	144.57131099700928	movie	1		286	25.0	2.5	/experiments/Knapen_AOT/AOT_stimuli/rescaled_final/0061_fw.mp4	0.0	166.61342191696167	2.4921741485595703
27	145.7449631690979	pulse	1	t		25.0	2.5	/experiments/Knapen_AOT/AOT_stimuli/rescaled_final/0061_fw.mp4	0.0	167.7870740890503	
27	147.06348514556885	fix_post	2		12	25.0	2.5	/experiments/Knapen_AOT/AOT_stimuli/rescaled_final/0061_fw.mp4	0.0	169.10559606552124	0.0998687744140625
28	147.1633539199829	fix_pre	0		120	26.0	2.5	blank	1.0	169.2054648399353	1.000124454498291
28	147.34691095352173	pulse	0	t		26.0	2.5	blank	1.0	169.38902187347412	
28	148.1634783744812	movie	1		300	26.0	2.5	blank	1.0	170.2055892944336	2.5003957748413086
28	148.947172164917	pulse	1	t		26.0	2.5	blank	1.0	170.98928308486938	
28	150.54747557640076	pulse	1	t		26.0	2.5	blank	1.0	172.58958649635315	
28	150.6638741493225	fix_post	2		12	26.0	2.5	blank	1.0	172.7059850692749	0.10001158714294434
29	150.76388573646545	fix_pre	0		120	27.0	2.5	/experiments/Knapen_AOT/AOT_stimuli/rescaled_final/1477_rv.mp4	0.0	172.80599665641785	1.008542776107788
29	151.77242851257324	movie	1		284	27.0	2.5	/experiments/Knapen_AOT/AOT_stimuli/rescaled_final/1477_rv.mp4	0.0	173.81453943252563	2.492004632949829
29	152.1461102962494	pulse	1	t		27.0	2.5	/experiments/Knapen_AOT/AOT_stimuli/rescaled_final/1477_rv.mp4	0.0	174.18822121620178	
29	153.74588584899902	pulse	1	t		27.0	2.5	/experiments/Knapen_AOT/AOT_stimuli/rescaled_final/1477_rv.mp4	0.0	175.78799676895142	
29	154.26443314552307	fix_post	2		12	27.0	2.5	/experiments/Knapen_AOT/AOT_stimuli/rescaled_final/1477_rv.mp4	0.0	176.30654406547546	0.09999251365661621
30	154.3644256591797	fix_pre	0		119	28.0	2.5	/experiments/Knapen_AOT/AOT_stimuli/rescaled_final/0798_fw.mp4	0.0	176.40653657913208	1.000187635421753
30	155.3481800556183	pulse	0	t		28.0	2.5	/experiments/Knapen_AOT/AOT_stimuli/rescaled_final/0798_fw.mp4	0.0	177.39029097557068	
30	155.36461329460144	movie	1		286	28.0	2.5	/experiments/Knapen_AOT/AOT_stimuli/rescaled_final/0798_fw.mp4	0.0	177.40672421455383	2.5003457069396973
30	156.94702172279358	pulse	1	t		28.0	2.5	/experiments/Knapen_AOT/AOT_stimuli/rescaled_final/0798_fw.mp4	0.0	178.98913264274597	
30	157.86495900154114	fix_post	2		12	28.0	2.5	/experiments/Knapen_AOT/AOT_stimuli/rescaled_final/0798_fw.mp4	0.0	179.90706992149353	0.09999895095825195
31	157.9649579524994	fix_pre	0		120	29.0	2.5	/experiments/Knapen_AOT/AOT_stimuli/rescaled_final/0168_rv.mp4	0.0	180.00706887245178	1.0085265636444092
31	158.5486888885498	pulse	0	t		29.0	2.5	/experiments/Knapen_AOT/AOT_stimuli/rescaled_final/0168_rv.mp4	0.0	180.5907998085022	
31	158.9734845161438	movie	1		277	29.0	2.5	/experiments/Knapen_AOT/AOT_stimuli/rescaled_final/0168_rv.mp4	0.0	181.0155954360962	2.4920263290405273
31	160.14703750610352	pulse	1	t		29.0	2.5	/experiments/Knapen_AOT/AOT_stimuli/rescaled_final/0168_rv.mp4	0.0	182.1891484260559	
31	161.46551084518433	fix_post	2		12	29.0	2.5	/experiments/Knapen_AOT/AOT_stimuli/rescaled_final/0168_rv.mp4	0.0	183.50762176513672	0.10004472732543945
32	161.56555557250977	fix_pre	0		120	30.0	2.5	/experiments/Knapen_AOT/AOT_stimuli/rescaled_final/1554_rv.mp4	0.0	183.60766649246216	1.008476734161377
32	161.74912095069885	pulse	0	t		30.0	2.5	/experiments/Knapen_AOT/AOT_stimuli/rescaled_final/1554_rv.mp4	0.0	183.79123187065125	
32	162.57403230667114	movie	1		292	30.0	2.5	/experiments/Knapen_AOT/AOT_stimuli/rescaled_final/1554_rv.mp4	0.0	184.61614322662354	2.4919915199279785
32	163.34738302230835	pulse	1	t		30.0	2.5	/experiments/Knapen_AOT/AOT_stimuli/rescaled_final/1554_rv.mp4	0.0	185.38949394226074	
32	164.94753241539001	pulse	1	t		30.0	2.5	/experiments/Knapen_AOT/AOT_stimuli/rescaled_final/1554_rv.mp4	0.0	186.9896433353424	
32	165.06602382659912	fix_post	2		12	30.0	2.5	/experiments/Knapen_AOT/AOT_stimuli/rescaled_final/1554_rv.mp4	0.0	187.1081347465515	0.10004925727844238
33	165.16607308387756	fix_pre	0		120	31.0	2.5	/experiments/Knapen_AOT/AOT_stimuli/rescaled_final/0645_fw.mp4	0.0	187.20818400382996	1.008650541305542
33	166.1747236251831	movie	1		289	31.0	2.5	/experiments/Knapen_AOT/AOT_stimuli/rescaled_final/0645_fw.mp4	0.0	188.2168345451355	2.4918508529663086
33	166.54828882217407	pulse	1	t		31.0	2.5	/experiments/Knapen_AOT/AOT_stimuli/rescaled_final/0645_fw.mp4	0.0	188.59039974212646	
33	168.14814233779907	pulse	1	t		31.0	2.5	/experiments/Knapen_AOT/AOT_stimuli/rescaled_final/0645_fw.mp4	0.0	190.19025325775146	
33	168.6665744781494	fix_post	2		12	31.0	2.5	/experiments/Knapen_AOT/AOT_stimuli/rescaled_final/0645_fw.mp4	0.0	190.7086853981018	0.10016417503356934
34	168.76673865318298	fix_pre	0		119	32.0	2.5	/experiments/Knapen_AOT/AOT_stimuli/rescaled_final/1400_fw.mp4	0.0	190.80884957313538	1.0000536441802979
34	169.75031805038452	pulse	0	t		32.0	2.5	/experiments/Knapen_AOT/AOT_stimuli/rescaled_final/1400_fw.mp4	0.0	191.7924289703369	
34	169.76679229736328	movie	1		276	32.0	2.5	/experiments/Knapen_AOT/AOT_stimuli/rescaled_final/1400_fw.mp4	0.0	191.80890321731567	2.500364065170288
34	171.34951400756836	pulse	1	t		32.0	2.5	/experiments/Knapen_AOT/AOT_stimuli/rescaled_final/1400_fw.mp4	0.0	193.39162492752075	
34	172.26715636253357	fix_post	2		12	32.0	2.5	/experiments/Knapen_AOT/AOT_stimuli/rescaled_final/1400_fw.mp4	0.0	194.30926728248596	0.10005664825439453
35	172.36721301078796	fix_pre	0		120	33.0	2.5	/experiments/Knapen_AOT/AOT_stimuli/rescaled_final/2177_rv.mp4	0.0	194.40932393074036	1.008451223373413
35	172.9507930278778	pulse	0	t		33.0	2.5	/experiments/Knapen_AOT/AOT_stimuli/rescaled_final/2177_rv.mp4	0.0	194.9929039478302	
35	173.37566423416138	movie	1		274	33.0	2.5	/experiments/Knapen_AOT/AOT_stimuli/rescaled_final/2177_rv.mp4	0.0	195.41777515411377	2.492058277130127
35	174.55117917060852	pulse	1	t		33.0	2.5	/experiments/Knapen_AOT/AOT_stimuli/rescaled_final/2177_rv.mp4	0.0	196.5932900905609	
35	175.8677225112915	fix_post	2		12	33.0	2.5	/experiments/Knapen_AOT/AOT_stimuli/rescaled_final/2177_rv.mp4	0.0	197.9098334312439	0.10002660751342773
36	175.96774911880493	fix_pre	0		120	34.0	2.5	blank	1.0	198.00986003875732	1.0000817775726318
36	176.1513352394104	pulse	0	t		34.0	2.5	blank	1.0	198.1934461593628	
36	176.96783089637756	movie	1		299	34.0	2.5	blank	1.0	199.00994181632996	2.500394821166992
36	177.75164031982422	pulse	1	t		34.0	2.5	blank	1.0	199.7937512397766	
36	179.3519983291626	pulse	1	t		34.0	2.5	blank	1.0	201.394109249115	
36	179.46822571754456	fix_post	2		12	34.0	2.5	blank	1.0	201.51033663749695	0.1000065803527832
37	179.56823229789734	fix_pre	0		120	35.0	2.5	/experiments/Knapen_AOT/AOT_stimuli/rescaled_final/0763_rv.mp4	0.0	201.61034321784973	1.0086333751678467
37	180.57686567306519	movie	1		284	35.0	2.5	/experiments/Knapen_AOT/AOT_stimuli/rescaled_final/0763_rv.mp4	0.0	202.61897659301758	2.491886854171753
37	180.95081162452698	pulse	1	t		35.0	2.5	/experiments/Knapen_AOT/AOT_stimuli/rescaled_final/0763_rv.mp4	0.0	202.99292254447937	
37	182.5504972934723	pulse	1	t		35.0	2.5	/experiments/Knapen_AOT/AOT_stimuli/rescaled_final/0763_rv.mp4	0.0	204.59260821342468	
37	183.06875252723694	fix_post	2		12	35.0	2.5	/experiments/Knapen_AOT/AOT_stimuli/rescaled_final/0763_rv.mp4	0.0	205.11086344718933	0.1000220775604248
38	183.16877460479736	fix_pre	0		118	36.0	2.5	/experiments/Knapen_AOT/AOT_stimuli/rescaled_final/0590_rv.mp4	0.0	205.21088552474976	0.9918522834777832
38	184.14450478553772	pulse	0	t		36.0	2.5	/experiments/Knapen_AOT/AOT_stimuli/rescaled_final/0590_rv.mp4	0.0	206.1866157054901	
38	184.16062688827515	movie	1		277	36.0	2.5	/experiments/Knapen_AOT/AOT_stimuli/rescaled_final/0590_rv.mp4	0.0	206.20273780822754	2.5004310607910156
38	185.74456024169922	pulse	1	t		36.0	2.5	/experiments/Knapen_AOT/AOT_stimuli/rescaled_final/0590_rv.mp4	0.0	207.7866711616516	
38	186.66105794906616	fix_post	2		12	36.0	2.5	/experiments/Knapen_AOT/AOT_stimuli/rescaled_final/0590_rv.mp4	0.0	208.70316886901855	0.0999155044555664
39	186.76097345352173	fix_pre	0		120	37.0	2.5	/experiments/Knapen_AOT/AOT_stimuli/rescaled_final/1994_rv.mp4	0.0	208.80308437347412	1.0084834098815918
39	187.34464263916016	pulse	0	t		37.0	2.5	/experiments/Knapen_AOT/AOT_stimuli/rescaled_final/1994_rv.mp4	0.0	209.38675355911255	
39	187.76945686340332	movie	1		280	37.0	2.5	/experiments/Knapen_AOT/AOT_stimuli/rescaled_final/1994_rv.mp4	0.0	209.8115677833557	2.4920637607574463
39	188.94483613967896	pulse	1	t		37.0	2.5	/experiments/Knapen_AOT/AOT_stimuli/rescaled_final/1994_rv.mp4	0.0	210.98694705963135	
39	190.26152062416077	fix_post	2		12	37.0	2.5	/experiments/Knapen_AOT/AOT_stimuli/rescaled_final/1994_rv.mp4	0.0	212.30363154411316	0.10017800331115723
40	190.36169862747192	fix_pre	0		120	38.0	2.5	/experiments/Knapen_AOT/AOT_stimuli/rescaled_final/1973_rv.mp4	0.0	212.40380954742432	1.008324384689331
40	190.54517364501953	pulse	0	t		38.0	2.5	/experiments/Knapen_AOT/AOT_stimuli/rescaled_final/1973_rv.mp4	0.0	212.58728456497192	
40	191.37002301216125	movie	1		277	38.0	2.5	/experiments/Knapen_AOT/AOT_stimuli/rescaled_final/1973_rv.mp4	0.0	213.41213393211365	2.4920272827148438
40	192.14458537101746	pulse	1	t		38.0	2.5	/experiments/Knapen_AOT/AOT_stimuli/rescaled_final/1973_rv.mp4	0.0	214.18669629096985	
40	193.74574398994446	pulse	1	t		38.0	2.5	/experiments/Knapen_AOT/AOT_stimuli/rescaled_final/1973_rv.mp4	0.0	215.78785490989685	
40	193.8620502948761	fix_post	2		12	38.0	2.5	/experiments/Knapen_AOT/AOT_stimuli/rescaled_final/1973_rv.mp4	0.0	215.9041612148285	0.10009384155273438
41	193.96214413642883	fix_pre	0		120	39.0	2.5	/experiments/Knapen_AOT/AOT_stimuli/rescaled_final/1440_rv.mp4	0.0	216.00425505638123	1.0083997249603271
41	194.97054386138916	movie	1		265	39.0	2.5	/experiments/Knapen_AOT/AOT_stimuli/rescaled_final/1440_rv.mp4	0.0	217.01265478134155	2.4920644760131836
41	195.34431314468384	pulse	1	t		39.0	2.5	/experiments/Knapen_AOT/AOT_stimuli/rescaled_final/1440_rv.mp4	0.0	217.38642406463623	
41	196.94624137878418	pulse	1	t		39.0	2.5	/experiments/Knapen_AOT/AOT_stimuli/rescaled_final/1440_rv.mp4	0.0	218.98835229873657	
41	197.46260833740234	fix_post	2		12	39.0	2.5	/experiments/Knapen_AOT/AOT_stimuli/rescaled_final/1440_rv.mp4	0.0	219.50471925735474	0.10000920295715332
42	197.5626175403595	fix_pre	0		119	40.0	2.5	blank	1.0	219.6047284603119	0.9917869567871094
42	198.5464289188385	pulse	0	t		40.0	2.5	blank	1.0	220.5885398387909	
42	198.5544044971466	movie	1		301	40.0	2.5	blank	1.0	220.596515417099	2.5087075233459473
42	200.14660739898682	pulse	1	t		40.0	2.5	blank	1.0	222.1887183189392	
42	201.06311202049255	fix_post	2		12	40.0	2.5	blank	1.0	223.10522294044495	0.10002565383911133
43	201.16313767433167	fix_pre	0		120	41.0	2.5	/experiments/Knapen_AOT/AOT_stimuli/rescaled_final/1536_rv.mp4	0.0	223.20524859428406	1.0085053443908691
43	201.74678325653076	pulse	0	t		41.0	2.5	/experiments/Knapen_AOT/AOT_stimuli/rescaled_final/1536_rv.mp4	0.0	223.78889417648315	
43	202.17164301872253	movie	1		287	41.0	2.5	/experiments/Knapen_AOT/AOT_stimuli/rescaled_final/1536_rv.mp4	0.0	224.21375393867493	2.4920778274536133
43	203.34520483016968	pulse	1	t		41.0	2.5	/experiments/Knapen_AOT/AOT_stimuli/rescaled_final/1536_rv.mp4	0.0	225.38731575012207	
43	204.66372084617615	fix_post	2		12	41.0	2.5	/experiments/Knapen_AOT/AOT_stimuli/rescaled_final/1536_rv.mp4	0.0	226.70583176612854	0.10001420974731445
44	204.76373505592346	fix_pre	0		120	42.0	2.5	/experiments/Knapen_AOT/AOT_stimuli/rescaled_final/1270_fw.mp4	0.0	226.80584597587585	1.008446216583252
44	204.9472472667694	pulse	0	t		42.0	2.5	/experiments/Knapen_AOT/AOT_stimuli/rescaled_final/1270_fw.mp4	0.0	226.9893581867218	
44	205.7721812725067	movie	1		286	42.0	2.5	/experiments/Knapen_AOT/AOT_stimuli/rescaled_final/1270_fw.mp4	0.0	227.8142921924591	2.492025136947632
44	206.54551768302917	pulse	1	t		42.0	2.5	/experiments/Knapen_AOT/AOT_stimuli/rescaled_final/1270_fw.mp4	0.0	228.58762860298157	
44	208.14588928222656	pulse	1	t		42.0	2.5	/experiments/Knapen_AOT/AOT_stimuli/rescaled_final/1270_fw.mp4	0.0	230.18800020217896	
44	208.26420640945435	fix_post	2		12	42.0	2.5	/experiments/Knapen_AOT/AOT_stimuli/rescaled_final/1270_fw.mp4	0.0	230.30631732940674	0.10002398490905762
45	208.3642303943634	fix_pre	0		120	43.0	2.5	/experiments/Knapen_AOT/AOT_stimuli/rescaled_final/0030_rv.mp4	0.0	230.4063413143158	1.0085721015930176
45	209.37280249595642	movie	1		274	43.0	2.5	/experiments/Knapen_AOT/AOT_stimuli/rescaled_final/0030_rv.mp4	0.0	231.4149134159088	2.4919800758361816
45	209.7480993270874	pulse	1	t		43.0	2.5	/experiments/Knapen_AOT/AOT_stimuli/rescaled_final/0030_rv.mp4	0.0	231.7902102470398	
45	211.34628009796143	pulse	1	t		43.0	2.5	/experiments/Knapen_AOT/AOT_stimuli/rescaled_final/0030_rv.mp4	0.0	233.38839101791382	
45	211.8647825717926	fix_post	2		12	43.0	2.5	/experiments/Knapen_AOT/AOT_stimuli/rescaled_final/0030_rv.mp4	0.0	233.906893491745	0.1000528335571289
46	211.96483540534973	fix_pre	0		119	44.0	2.5	/experiments/Knapen_AOT/AOT_stimuli/rescaled_final/0280_fw.mp4	0.0	234.00694632530212	1.008641242980957
46	212.94850301742554	pulse	0	t		44.0	2.5	/experiments/Knapen_AOT/AOT_stimuli/rescaled_final/0280_fw.mp4	0.0	234.99061393737793	
46	212.9734766483307	movie	1		271	44.0	2.5	/experiments/Knapen_AOT/AOT_stimuli/rescaled_final/0280_fw.mp4	0.0	235.01558756828308	2.491804599761963
46	214.5470941066742	pulse	1	t		44.0	2.5	/experiments/Knapen_AOT/AOT_stimuli/rescaled_final/0280_fw.mp4	0.0	236.5892050266266	
46	215.46528124809265	fix_post	2		12	44.0	2.5	/experiments/Knapen_AOT/AOT_stimuli/rescaled_final/0280_fw.mp4	0.0	237.50739216804504	0.10016608238220215
47	215.56544733047485	fix_pre	0		120	45.0	2.5	/experiments/Knapen_AOT/AOT_stimuli/rescaled_final/1687_fw.mp4	0.0	237.60755825042725	1.0083637237548828
47	216.14886331558228	pulse	0	t		45.0	2.5	/experiments/Knapen_AOT/AOT_stimuli/rescaled_final/1687_fw.mp4	0.0	238.19097423553467	
47	216.57381105422974	movie	1		255	45.0	2.5	/experiments/Knapen_AOT/AOT_stimuli/rescaled_final/1687_fw.mp4	0.0	238.61592197418213	2.492051124572754
47	217.7478687763214	pulse	1	t		45.0	2.5	/experiments/Knapen_AOT/AOT_stimuli/rescaled_final/1687_fw.mp4	0.0	239.7899796962738	
47	219.0658621788025	fix_post	2		12	45.0	2.5	/experiments/Knapen_AOT/AOT_stimuli/rescaled_final/1687_fw.mp4	0.0	241.10797309875488	0.09998178482055664
48	219.16584396362305	fix_pre	0		120	46.0	2.5	/experiments/Knapen_AOT/AOT_stimuli/rescaled_final/1453_fw.mp4	0.0	241.20795488357544	1.0086016654968262
48	219.34942412376404	pulse	0	t		46.0	2.5	/experiments/Knapen_AOT/AOT_stimuli/rescaled_final/1453_fw.mp4	0.0	241.39153504371643	
48	220.17444562911987	movie	1		285	46.0	2.5	/experiments/Knapen_AOT/AOT_stimuli/rescaled_final/1453_fw.mp4	0.0	242.21655654907227	2.4919168949127197
48	220.947580575943	pulse	1	t		46.0	2.5	/experiments/Knapen_AOT/AOT_stimuli/rescaled_final/1453_fw.mp4	0.0	242.98969149589539	
48	222.54813957214355	pulse	1	t		46.0	2.5	/experiments/Knapen_AOT/AOT_stimuli/rescaled_final/1453_fw.mp4	0.0	244.59025049209595	
48	222.6663625240326	fix_post	2		12	46.0	2.5	/experiments/Knapen_AOT/AOT_stimuli/rescaled_final/1453_fw.mp4	0.0	244.70847344398499	0.10001468658447266
49	222.76637721061707	fix_pre	0		120	47.0	2.5	/experiments/Knapen_AOT/AOT_stimuli/rescaled_final/0030_rv.mp4	0.0	244.80848813056946	1.0085136890411377
49	223.7748908996582	movie	1		284	47.0	2.5	/experiments/Knapen_AOT/AOT_stimuli/rescaled_final/0030_rv.mp4	0.0	245.8170018196106	2.4920172691345215
49	224.1490604877472	pulse	1	t		47.0	2.5	/experiments/Knapen_AOT/AOT_stimuli/rescaled_final/0030_rv.mp4	0.0	246.19117140769958	
49	225.74833703041077	pulse	1	t		47.0	2.5	/experiments/Knapen_AOT/AOT_stimuli/rescaled_final/0030_rv.mp4	0.0	247.79044795036316	
49	226.26690816879272	fix_post	2		12	47.0	2.5	/experiments/Knapen_AOT/AOT_stimuli/rescaled_final/0030_rv.mp4	0.0	248.30901908874512	0.10001802444458008
50	226.3669261932373	fix_pre	0		119	48.0	2.5	/experiments/Knapen_AOT/AOT_stimuli/rescaled_final/0365_rv.mp4	0.0	248.4090371131897	1.008549690246582
50	227.3506374359131	pulse	0	t		48.0	2.5	/experiments/Knapen_AOT/AOT_stimuli/rescaled_final/0365_rv.mp4	0.0	249.39274835586548	
50	227.3754758834839	movie	1		272	48.0	2.5	/experiments/Knapen_AOT/AOT_stimuli/rescaled_final/0365_rv.mp4	0.0	249.41758680343628	2.49196195602417
50	228.94954705238342	pulse	1	t		48.0	2.5	/experiments/Knapen_AOT/AOT_stimuli/rescaled_final/0365_rv.mp4	0.0	250.99165797233582	
50	229.86743783950806	fix_post	2		12	48.0	2.5	/experiments/Knapen_AOT/AOT_stimuli/rescaled_final/0365_rv.mp4	0.0	251.90954875946045	0.10003900527954102
51	229.9674768447876	fix_pre	0		120	49.0	2.5	blank	1.0	252.00958776474	1.0001280307769775
51	230.5512626171112	pulse	0	t		49.0	2.5	blank	1.0	252.5933735370636	
51	230.96760487556458	movie	1		300	49.0	2.5	blank	1.0	253.00971579551697	2.500394105911255
51	232.15136122703552	pulse	1	t		49.0	2.5	blank	1.0	254.19347214698792	
51	233.46799898147583	fix_post	2		12	49.0	2.5	blank	1.0	255.51010990142822	0.10006117820739746
52	233.56806015968323	fix_pre	0		120	50.0	2.5	/experiments/Knapen_AOT/AOT_stimuli/rescaled_final/1345_fw.mp4	0.0	255.61017107963562	1.0084261894226074
52	233.75158739089966	pulse	0	t		50.0	2.5	/experiments/Knapen_AOT/AOT_stimuli/rescaled_final/1345_fw.mp4	0.0	255.79369831085205	
52	234.57648634910583	movie	1		261	50.0	2.5	/experiments/Knapen_AOT/AOT_stimuli/rescaled_final/1345_fw.mp4	0.0	256.6185972690582	2.4923148155212402
52	235.35026621818542	pulse	1	t		50.0	2.5	/experiments/Knapen_AOT/AOT_stimuli/rescaled_final/1345_fw.mp4	0.0	257.3923771381378	
52	236.95154118537903	pulse	1	t		50.0	2.5	/experiments/Knapen_AOT/AOT_stimuli/rescaled_final/1345_fw.mp4	0.0	258.9936521053314	
52	237.06880116462708	fix_post	2		12	50.0	2.5	/experiments/Knapen_AOT/AOT_stimuli/rescaled_final/1345_fw.mp4	0.0	259.11091208457947	0.10021281242370605
53	237.16901397705078	fix_pre	0		120	51.0	2.5	/experiments/Knapen_AOT/AOT_stimuli/rescaled_final/0280_rv.mp4	0.0	259.2111248970032	1.0080678462982178
53	238.177081823349	movie	1		262	51.0	2.5	/experiments/Knapen_AOT/AOT_stimuli/rescaled_final/0280_rv.mp4	0.0	260.2191927433014	2.4920384883880615
53	238.54618287086487	pulse	1	t		51.0	2.5	/experiments/Knapen_AOT/AOT_stimuli/rescaled_final/0280_rv.mp4	0.0	260.58829379081726	
53	240.15169095993042	pulse	1	t		51.0	2.5	/experiments/Knapen_AOT/AOT_stimuli/rescaled_final/0280_rv.mp4	0.0	262.1938018798828	
53	240.66912031173706	fix_post	2		12	51.0	2.5	/experiments/Knapen_AOT/AOT_stimuli/rescaled_final/0280_rv.mp4	0.0	262.71123123168945	0.10015273094177246
54	240.76927304267883	fix_pre	0		118	52.0	2.5	/experiments/Knapen_AOT/AOT_stimuli/rescaled_final/0116_rv.mp4	0.0	262.8113839626312	1.0083491802215576
54	241.74514150619507	pulse	0	t		52.0	2.5	/experiments/Knapen_AOT/AOT_stimuli/rescaled_final/0116_rv.mp4	0.0	263.78725242614746	
54	241.7776222229004	movie	1		278	52.0	2.5	/experiments/Knapen_AOT/AOT_stimuli/rescaled_final/0116_rv.mp4	0.0	263.8197331428528	2.492060422897339
54	243.34498953819275	pulse	1	t		52.0	2.5	/experiments/Knapen_AOT/AOT_stimuli/rescaled_final/0116_rv.mp4	0.0	265.38710045814514	
54	244.26968264579773	fix_post	2		12	52.0	2.5	/experiments/Knapen_AOT/AOT_stimuli/rescaled_final/0116_rv.mp4	0.0	266.3117935657501	0.0999748706817627
55	244.3696575164795	fix_pre	0		120	53.0	2.5	/experiments/Knapen_AOT/AOT_stimuli/rescaled_final/0877_fw.mp4	0.0	266.4117684364319	1.0085573196411133
55	244.9450180530548	pulse	0	t		53.0	2.5	/experiments/Knapen_AOT/AOT_stimuli/rescaled_final/0877_fw.mp4	0.0	266.9871289730072	
55	245.3782148361206	movie	1		283	53.0	2.5	/experiments/Knapen_AOT/AOT_stimuli/rescaled_final/0877_fw.mp4	0.0	267.420325756073	2.491957664489746
55	246.5538592338562	pulse	1	t		53.0	2.5	/experiments/Knapen_AOT/AOT_stimuli/rescaled_final/0877_fw.mp4	0.0	268.5959701538086	
55	247.87017250061035	fix_post	2		12	53.0	2.5	/experiments/Knapen_AOT/AOT_stimuli/rescaled_final/0877_fw.mp4	0.0	269.91228342056274	0.0999901294708252
56	247.97016263008118	fix_pre	0		120	54.0	2.5	/experiments/Knapen_AOT/AOT_stimuli/rescaled_final/0806_fw.mp4	0.0	270.01227355003357	1.008558750152588
56	248.1454381942749	pulse	0	t		54.0	2.5	/experiments/Knapen_AOT/AOT_stimuli/rescaled_final/0806_fw.mp4	0.0	270.1875491142273	
56	248.97872138023376	movie	1		271	54.0	2.5	/experiments/Knapen_AOT/AOT_stimuli/rescaled_final/0806_fw.mp4	0.0	271.02083230018616	2.4920220375061035
56	249.7457091808319	pulse	1	t		54.0	2.5	/experiments/Knapen_AOT/AOT_stimuli/rescaled_final/0806_fw.mp4	0.0	271.7878201007843	
56	251.34622812271118	pulse	1	t		54.0	2.5	/experiments/Knapen_AOT/AOT_stimuli/rescaled_final/0806_fw.mp4	0.0	273.3883390426636	
56	251.47074341773987	fix_post	2		12	54.0	2.5	/experiments/Knapen_AOT/AOT_stimuli/rescaled_final/0806_fw.mp4	0.0	273.51285433769226	0.09998774528503418
57	251.5707311630249	fix_pre	0		120	55.0	2.5	blank	1.0	273.6128420829773	1.0001420974731445
57	252.57087326049805	movie	1		300	55.0	2.5	blank	1.0	274.61298418045044	2.5003695487976074
57	252.94610261917114	pulse	1	t		55.0	2.5	blank	1.0	274.98821353912354	
57	254.5463581085205	pulse	1	t		55.0	2.5	blank	1.0	276.5884690284729	
57	255.07124280929565	fix_post	2		12	55.0	2.5	blank	1.0	277.11335372924805	0.10004711151123047
58	255.17128992080688	fix_pre	0		118	56.0	2.5	/experiments/Knapen_AOT/AOT_stimuli/rescaled_final/0749_rv.mp4	0.0	277.2134008407593	0.9919018745422363
58	256.14668440818787	pulse	0	t		56.0	2.5	/experiments/Knapen_AOT/AOT_stimuli/rescaled_final/0749_rv.mp4	0.0	278.18879532814026	
58	256.1631917953491	movie	1		272	56.0	2.5	/experiments/Knapen_AOT/AOT_stimuli/rescaled_final/0749_rv.mp4	0.0	278.2053027153015	2.5002634525299072
58	257.74540519714355	pulse	1	t		56.0	2.5	/experiments/Knapen_AOT/AOT_stimuli/rescaled_final/0749_rv.mp4	0.0	279.78751611709595	
58	258.663455247879	fix_post	2		12	56.0	2.5	/experiments/Knapen_AOT/AOT_stimuli/rescaled_final/0749_rv.mp4	0.0	280.7055661678314	0.10003280639648438
59	258.7634880542755	fix_pre	0		120	57.0	2.5	/experiments/Knapen_AOT/AOT_stimuli/rescaled_final/2064_rv.mp4	0.0	280.8055989742279	1.0086045265197754
59	259.34719729423523	pulse	0	t		57.0	2.5	/experiments/Knapen_AOT/AOT_stimuli/rescaled_final/2064_rv.mp4	0.0	281.3893082141876	
59	259.7720925807953	movie	1		282	57.0	2.5	/experiments/Knapen_AOT/AOT_stimuli/rescaled_final/2064_rv.mp4	0.0	281.8142035007477	2.4919004440307617
59	260.945743560791	pulse	1	t		57.0	2.5	/experiments/Knapen_AOT/AOT_stimuli/rescaled_final/2064_rv.mp4	0.0	282.9878544807434	
59	262.26399302482605	fix_post	2		12	57.0	2.5	/experiments/Knapen_AOT/AOT_stimuli/rescaled_final/2064_rv.mp4	0.0	284.30610394477844	0.10002899169921875
60	262.36402201652527	fix_pre	0		120	58.0	2.5	/experiments/Knapen_AOT/AOT_stimuli/rescaled_final/0469_fw.mp4	0.0	284.40613293647766	1.0085062980651855
60	262.5475561618805	pulse	0	t		58.0	2.5	/experiments/Knapen_AOT/AOT_stimuli/rescaled_final/0469_fw.mp4	0.0	284.5896670818329	
60	263.37252831459045	movie	1		267	58.0	2.5	/experiments/Knapen_AOT/AOT_stimuli/rescaled_final/0469_fw.mp4	0.0	285.41463923454285	2.492027521133423
60	264.1457076072693	pulse	1	t		58.0	2.5	/experiments/Knapen_AOT/AOT_stimuli/rescaled_final/0469_fw.mp4	0.0	286.1878185272217	
60	265.747629404068	pulse	1	t		58.0	2.5	/experiments/Knapen_AOT/AOT_stimuli/rescaled_final/0469_fw.mp4	0.0	287.7897403240204	
60	265.8645558357239	fix_post	2		12	58.0	2.5	/experiments/Knapen_AOT/AOT_stimuli/rescaled_final/0469_fw.mp4	0.0	287.90666675567627	0.10002279281616211
61	265.96457862854004	fix_pre	0		120	59.0	2.5	/experiments/Knapen_AOT/AOT_stimuli/rescaled_final/0704_rv.mp4	0.0	288.00668954849243	1.0084781646728516
61	266.9730567932129	movie	1		279	59.0	2.5	/experiments/Knapen_AOT/AOT_stimuli/rescaled_final/0704_rv.mp4	0.0	289.0151677131653	2.492036819458008
61	267.34691429138184	pulse	1	t		59.0	2.5	/experiments/Knapen_AOT/AOT_stimuli/rescaled_final/0704_rv.mp4	0.0	289.38902521133423	
61	268.9466338157654	pulse	1	t		59.0	2.5	/experiments/Knapen_AOT/AOT_stimuli/rescaled_final/0704_rv.mp4	0.0	290.9887447357178	
61	269.4650936126709	fix_post	2		12	59.0	2.5	/experiments/Knapen_AOT/AOT_stimuli/rescaled_final/0704_rv.mp4	0.0	291.5072045326233	0.09998869895935059
62	269.56508231163025	fix_pre	0		119	60.0	2.5	/experiments/Knapen_AOT/AOT_stimuli/rescaled_final/0037_fw.mp4	0.0	291.60719323158264	1.0002007484436035
62	270.5488877296448	pulse	0	t		60.0	2.5	/experiments/Knapen_AOT/AOT_stimuli/rescaled_final/0037_fw.mp4	0.0	292.59099864959717	
62	270.56528306007385	movie	1		284	60.0	2.5	/experiments/Knapen_AOT/AOT_stimuli/rescaled_final/0037_fw.mp4	0.0	292.60739398002625	2.500380516052246
62	272.1476469039917	pulse	1	t		60.0	2.5	/experiments/Knapen_AOT/AOT_stimuli/rescaled_final/0037_fw.mp4	0.0	294.1897578239441	
62	273.0656635761261	fix_post	2		12	60.0	2.5	/experiments/Knapen_AOT/AOT_stimuli/rescaled_final/0037_fw.mp4	0.0	295.1077744960785	0.09996867179870605
63	273.1656322479248	fix_pre	0		120	61.0	2.5	/experiments/Knapen_AOT/AOT_stimuli/rescaled_final/1205_fw.mp4	0.0	295.2077431678772	1.0085456371307373
63	273.74955201148987	pulse	0	t		61.0	2.5	/experiments/Knapen_AOT/AOT_stimuli/rescaled_final/1205_fw.mp4	0.0	295.79166293144226	
63	274.17417788505554	movie	1		285	61.0	2.5	/experiments/Knapen_AOT/AOT_stimuli/rescaled_final/1205_fw.mp4	0.0	296.21628880500793	2.4919724464416504
63	275.34805154800415	pulse	1	t		61.0	2.5	/experiments/Knapen_AOT/AOT_stimuli/rescaled_final/1205_fw.mp4	0.0	297.39016246795654	
63	276.6661503314972	fix_post	2		12	61.0	2.5	/experiments/Knapen_AOT/AOT_stimuli/rescaled_final/1205_fw.mp4	0.0	298.7082612514496	0.10003042221069336
64	276.7661807537079	fix_pre	0		120	62.0	2.5	blank	1.0	298.8082916736603	1.0001258850097656
64	276.94975662231445	pulse	0	t		62.0	2.5	blank	1.0	298.99186754226685	
64	277.76630663871765	movie	1		300	62.0	2.5	blank	1.0	299.80841755867004	2.5003879070281982
64	278.55007243156433	pulse	1	t		62.0	2.5	blank	1.0	300.5921833515167	
64	280.1502845287323	pulse	1	t		62.0	2.5	blank	1.0	302.1923954486847	
64	280.26669454574585	fix_post	2		12	62.0	2.5	blank	1.0	302.30880546569824	0.10003423690795898
65	280.3667287826538	fix_pre	0		120	63.0	2.5	/experiments/Knapen_AOT/AOT_stimuli/rescaled_final/1005_fw.mp4	0.0	302.4088397026062	1.0084965229034424
65	281.37522530555725	movie	1		271	63.0	2.5	/experiments/Knapen_AOT/AOT_stimuli/rescaled_final/1005_fw.mp4	0.0	303.41733622550964	2.4919939041137695
65	281.7487242221832	pulse	1	t		63.0	2.5	/experiments/Knapen_AOT/AOT_stimuli/rescaled_final/1005_fw.mp4	0.0	303.7908351421356	
65	283.34885931015015	pulse	1	t		63.0	2.5	/experiments/Knapen_AOT/AOT_stimuli/rescaled_final/1005_fw.mp4	0.0	305.39097023010254	
65	283.867219209671	fix_post	2		12	63.0	2.5	/experiments/Knapen_AOT/AOT_stimuli/rescaled_final/1005_fw.mp4	0.0	305.9093301296234	0.10004496574401855
66	283.96726417541504	fix_pre	0		119	64.0	2.5	/experiments/Knapen_AOT/AOT_stimuli/rescaled_final/0912_rv.mp4	0.0	306.00937509536743	1.0001378059387207
66	284.9511556625366	pulse	0	t		64.0	2.5	/experiments/Knapen_AOT/AOT_stimuli/rescaled_final/0912_rv.mp4	0.0	306.993266582489	
66	284.96740198135376	movie	1		277	64.0	2.5	/experiments/Knapen_AOT/AOT_stimuli/rescaled_final/0912_rv.mp4	0.0	307.00951290130615	2.500382661819458
66	286.54960799217224	pulse	1	t		64.0	2.5	/experiments/Knapen_AOT/AOT_stimuli/rescaled_final/0912_rv.mp4	0.0	308.59171891212463	
66	287.4677846431732	fix_post	2		12	64.0	2.5	/experiments/Knapen_AOT/AOT_stimuli/rescaled_final/0912_rv.mp4	0.0	309.5098955631256	0.09998154640197754
67	287.5677661895752	fix_pre	0		120	65.0	2.5	/experiments/Knapen_AOT/AOT_stimuli/rescaled_final/1200_fw.mp4	0.0	309.6098771095276	1.0085294246673584
67	288.15147042274475	pulse	0	t		65.0	2.5	/experiments/Knapen_AOT/AOT_stimuli/rescaled_final/1200_fw.mp4	0.0	310.19358134269714	
67	288.57629561424255	movie	1		284	65.0	2.5	/experiments/Knapen_AOT/AOT_stimuli/rescaled_final/1200_fw.mp4	0.0	310.61840653419495	2.4920263290405273
67	289.7501084804535	pulse	1	t		65.0	2.5	/experiments/Knapen_AOT/AOT_stimuli/rescaled_final/1200_fw.mp4	0.0	311.7922194004059	
67	291.0683219432831	fix_post	2		12	65.0	2.5	/experiments/Knapen_AOT/AOT_stimuli/rescaled_final/1200_fw.mp4	0.0	313.1104328632355	0.10002422332763672
68	291.1683461666107	fix_pre	0		120	66.0	2.5	/experiments/Knapen_AOT/AOT_stimuli/rescaled_final/1561_fw.mp4	0.0	313.2104570865631	1.0085384845733643
68	291.3519630432129	pulse	0	t		66.0	2.5	/experiments/Knapen_AOT/AOT_stimuli/rescaled_final/1561_fw.mp4	0.0	313.3940739631653	
68	292.1768846511841	movie	1		286	66.0	2.5	/experiments/Knapen_AOT/AOT_stimuli/rescaled_final/1561_fw.mp4	0.0	314.2189955711365	2.4919919967651367
68	292.95010137557983	pulse	1	t		66.0	2.5	/experiments/Knapen_AOT/AOT_stimuli/rescaled_final/1561_fw.mp4	0.0	314.9922122955322	
68	294.5506052970886	pulse	1	t		66.0	2.5	/experiments/Knapen_AOT/AOT_stimuli/rescaled_final/1561_fw.mp4	0.0	316.592716217041	
68	294.6688766479492	fix_post	2		12	66.0	2.5	/experiments/Knapen_AOT/AOT_stimuli/rescaled_final/1561_fw.mp4	0.0	316.7109875679016	0.09999918937683105
69	294.76887583732605	fix_pre	0		120	67.0	2.5	/experiments/Knapen_AOT/AOT_stimuli/rescaled_final/0691_fw.mp4	0.0	316.81098675727844	1.0085763931274414
69	295.7774522304535	movie	1		269	67.0	2.5	/experiments/Knapen_AOT/AOT_stimuli/rescaled_final/0691_fw.mp4	0.0	317.8195631504059	2.491956949234009
69	296.1510212421417	pulse	1	t		67.0	2.5	/experiments/Knapen_AOT/AOT_stimuli/rescaled_final/0691_fw.mp4	0.0	318.1931321620941	
69	297.7518961429596	pulse	1	t		67.0	2.5	/experiments/Knapen_AOT/AOT_stimuli/rescaled_final/0691_fw.mp4	0.0	319.794007062912	
69	298.2694091796875	fix_post	2		12	67.0	2.5	/experiments/Knapen_AOT/AOT_stimuli/rescaled_final/0691_fw.mp4	0.0	320.3115200996399	0.10002827644348145
70	298.369437456131	fix_pre	0		119	68.0	2.5	blank	1.0	320.4115483760834	0.9917824268341064
70	299.3456482887268	pulse	0	t		68.0	2.5	blank	1.0	321.3877592086792	
70	299.3612198829651	movie	1		301	68.0	2.5	blank	1.0	321.4033308029175	2.508735418319702
70	300.9453685283661	pulse	1	t		68.0	2.5	blank	1.0	322.9874794483185	
70	301.8699553012848	fix_post	2		12	68.0	2.5	blank	1.0	323.9120662212372	0.10002970695495605
71	301.96998500823975	fix_pre	0		120	69.0	2.5	/experiments/Knapen_AOT/AOT_stimuli/rescaled_final/0982_rv.mp4	0.0	324.01209592819214	1.0085492134094238
71	302.5453362464905	pulse	0	t		69.0	2.5	/experiments/Knapen_AOT/AOT_stimuli/rescaled_final/0982_rv.mp4	0.0	324.58744716644287	
71	302.97853422164917	movie	1		283	69.0	2.5	/experiments/Knapen_AOT/AOT_stimuli/rescaled_final/0982_rv.mp4	0.0	325.02064514160156	2.4919421672821045
71	304.14438700675964	pulse	1	t		69.0	2.5	/experiments/Knapen_AOT/AOT_stimuli/rescaled_final/0982_rv.mp4	0.0	326.18649792671204	
71	305.4704763889313	fix_post	2		12	69.0	2.5	/experiments/Knapen_AOT/AOT_stimuli/rescaled_final/0982_rv.mp4	0.0	327.51258730888367	0.10003423690795898
72	305.57051062583923	fix_pre	0		120	70.0	2.5	/experiments/Knapen_AOT/AOT_stimuli/rescaled_final/0712_fw.mp4	0.0	327.6126215457916	1.0085058212280273
72	305.74590849876404	pulse	0	t		70.0	2.5	/experiments/Knapen_AOT/AOT_stimuli/rescaled_final/0712_fw.mp4	0.0	327.78801941871643	
72	306.57901644706726	movie	1		279	70.0	2.5	/experiments/Knapen_AOT/AOT_stimuli/rescaled_final/0712_fw.mp4	0.0	328.62112736701965	2.4920237064361572
72	307.3461949825287	pulse	1	t		70.0	2.5	/experiments/Knapen_AOT/AOT_stimuli/rescaled_final/0712_fw.mp4	0.0	329.3883059024811	
72	308.9448564052582	pulse	1	t		70.0	2.5	/experiments/Knapen_AOT/AOT_stimuli/rescaled_final/0712_fw.mp4	0.0	330.98696732521057	
72	309.0710401535034	fix_post	2		12	70.0	2.5	/experiments/Knapen_AOT/AOT_stimuli/rescaled_final/0712_fw.mp4	0.0	331.1131510734558	0.10002470016479492
73	309.1710648536682	fix_pre	0		120	71.0	2.5	/experiments/Knapen_AOT/AOT_stimuli/rescaled_final/2108_rv.mp4	0.0	331.2131757736206	1.0084788799285889
73	310.1795437335968	movie	1		263	71.0	2.5	/experiments/Knapen_AOT/AOT_stimuli/rescaled_final/2108_rv.mp4	0.0	332.2216546535492	2.4920458793640137
73	310.545902967453	pulse	1	t		71.0	2.5	/experiments/Knapen_AOT/AOT_stimuli/rescaled_final/2108_rv.mp4	0.0	332.5880138874054	
73	312.1446487903595	pulse	1	t		71.0	2.5	/experiments/Knapen_AOT/AOT_stimuli/rescaled_final/2108_rv.mp4	0.0	334.1867597103119	
73	312.6715896129608	fix_post	2		12	71.0	2.5	/experiments/Knapen_AOT/AOT_stimuli/rescaled_final/2108_rv.mp4	0.0	334.7137005329132	0.10006380081176758
74	312.7716534137726	fix_pre	0		117	72.0	2.5	/experiments/Knapen_AOT/AOT_stimuli/rescaled_final/0214_fw.mp4	0.0	334.813764333725	1.000220537185669
74	313.7471237182617	pulse	0	t		72.0	2.5	/experiments/Knapen_AOT/AOT_stimuli/rescaled_final/0214_fw.mp4	0.0	335.7892346382141	
74	313.77187395095825	movie	1		267	72.0	2.5	/experiments/Knapen_AOT/AOT_stimuli/rescaled_final/0214_fw.mp4	0.0	335.81398487091064	2.4919052124023438
74	315.34570479393005	pulse	1	t		72.0	2.5	/experiments/Knapen_AOT/AOT_stimuli/rescaled_final/0214_fw.mp4	0.0	337.38781571388245	
74	316.2637791633606	fix_post	2		12	72.0	2.5	/experiments/Knapen_AOT/AOT_stimuli/rescaled_final/0214_fw.mp4	0.0	338.305890083313	0.10002303123474121
75	316.36380219459534	fix_pre	0		120	73.0	2.5	/experiments/Knapen_AOT/AOT_stimuli/rescaled_final/0704_fw.mp4	0.0	338.40591311454773	1.0085890293121338
75	316.9475357532501	pulse	0	t		73.0	2.5	/experiments/Knapen_AOT/AOT_stimuli/rescaled_final/0704_fw.mp4	0.0	338.9896466732025	
75	317.37239122390747	movie	1		272	73.0	2.5	/experiments/Knapen_AOT/AOT_stimuli/rescaled_final/0704_fw.mp4	0.0	339.41450214385986	2.491939067840576
75	318.5460193157196	pulse	1	t		73.0	2.5	/experiments/Knapen_AOT/AOT_stimuli/rescaled_final/0704_fw.mp4	0.0	340.588130235672	
75	319.86433029174805	fix_post	2		12	73.0	2.5	/experiments/Knapen_AOT/AOT_stimuli/rescaled_final/0704_fw.mp4	0.0	341.90644121170044	0.09998035430908203
76	319.96431064605713	fix_pre	0		120	74.0	2.5	/experiments/Knapen_AOT/AOT_stimuli/rescaled_final/1691_rv.mp4	0.0	342.0064215660095	1.0085642337799072
76	320.1482536792755	pulse	0	t		74.0	2.5	/experiments/Knapen_AOT/AOT_stimuli/rescaled_final/1691_rv.mp4	0.0	342.1903645992279	
76	320.97287487983704	movie	1		275	74.0	2.5	/experiments/Knapen_AOT/AOT_stimuli/rescaled_final/1691_rv.mp4	0.0	343.01498579978943	2.4919886589050293
76	321.7464647293091	pulse	1	t		74.0	2.5	/experiments/Knapen_AOT/AOT_stimuli/rescaled_final/1691_rv.mp4	0.0	343.7885756492615	
76	323.3466012477875	pulse	1	t		74.0	2.5	/experiments/Knapen_AOT/AOT_stimuli/rescaled_final/1691_rv.mp4	0.0	345.38871216773987	
76	323.46486353874207	fix_post	2		12	74.0	2.5	/experiments/Knapen_AOT/AOT_stimuli/rescaled_final/1691_rv.mp4	0.0	345.50697445869446	0.10002374649047852
77	323.56488728523254	fix_pre	0		120	75.0	2.5	/experiments/Knapen_AOT/AOT_stimuli/rescaled_final/1994_fw.mp4	0.0	345.60699820518494	1.0085086822509766
77	324.5733959674835	movie	1		263	75.0	2.5	/experiments/Knapen_AOT/AOT_stimuli/rescaled_final/1994_fw.mp4	0.0	346.6155068874359	2.4919984340667725
77	324.94722962379456	pulse	1	t		75.0	2.5	/experiments/Knapen_AOT/AOT_stimuli/rescaled_final/1994_fw.mp4	0.0	346.98934054374695	
77	326.54769802093506	pulse	1	t		75.0	2.5	/experiments/Knapen_AOT/AOT_stimuli/rescaled_final/1994_fw.mp4	0.0	348.58980894088745	
77	327.0653944015503	fix_post	2		12	75.0	2.5	/experiments/Knapen_AOT/AOT_stimuli/rescaled_final/1994_fw.mp4	0.0	349.1075053215027	0.10001134872436523
78	327.16540575027466	fix_pre	0		119	76.0	2.5	blank	1.0	349.20751667022705	0.991844654083252
78	328.14918756484985	pulse	0	t		76.0	2.5	blank	1.0	350.19129848480225	
78	328.1572504043579	movie	1		301	76.0	2.5	blank	1.0	350.1993613243103	2.5086817741394043
78	329.7494478225708	pulse	1	t		76.0	2.5	blank	1.0	351.7915587425232	
78	330.6659321784973	fix_post	2		12	76.0	2.5	blank	1.0	352.7080430984497	0.10007357597351074
79	330.7660057544708	fix_pre	0		120	77.0	2.5	/experiments/Knapen_AOT/AOT_stimuli/rescaled_final/0670_rv.mp4	0.0	352.8081166744232	1.0084893703460693
79	331.34976172447205	pulse	0	t		77.0	2.5	/experiments/Knapen_AOT/AOT_stimuli/rescaled_final/0670_rv.mp4	0.0	353.39187264442444	
79	331.7744951248169	movie	1		263	77.0	2.5	/experiments/Knapen_AOT/AOT_stimuli/rescaled_final/0670_rv.mp4	0.0	353.8166060447693	2.4920005798339844
79	332.9479331970215	pulse	1	t		77.0	2.5	/experiments/Knapen_AOT/AOT_stimuli/rescaled_final/0670_rv.mp4	0.0	354.9900441169739	
79	334.2664957046509	fix_post	2		12	77.0	2.5	/experiments/Knapen_AOT/AOT_stimuli/rescaled_final/0670_rv.mp4	0.0	356.30860662460327	0.1000375747680664
80	334.36653327941895	fix_pre	0		120	78.0	2.5	/experiments/Knapen_AOT/AOT_stimuli/rescaled_final/0430_rv.mp4	0.0	356.40864419937134	1.00852370262146
80	334.5501239299774	pulse	0	t		78.0	2.5	/experiments/Knapen_AOT/AOT_stimuli/rescaled_final/0430_rv.mp4	0.0	356.5922348499298	
80	335.3750569820404	movie	1		275	78.0	2.5	/experiments/Knapen_AOT/AOT_stimuli/rescaled_final/0430_rv.mp4	0.0	357.4171679019928	2.4919512271881104
80	336.1484773159027	pulse	1	t		78.0	2.5	/experiments/Knapen_AOT/AOT_stimuli/rescaled_final/0430_rv.mp4	0.0	358.1905882358551	
80	337.74871802330017	pulse	1	t		78.0	2.5	/experiments/Knapen_AOT/AOT_stimuli/rescaled_final/0430_rv.mp4	0.0	359.79082894325256	
80	337.8670082092285	fix_post	2		12	78.0	2.5	/experiments/Knapen_AOT/AOT_stimuli/rescaled_final/0430_rv.mp4	0.0	359.9091191291809	0.10007667541503906
81	337.96708488464355	fix_pre	0		120	79.0	2.5	/experiments/Knapen_AOT/AOT_stimuli/rescaled_final/0198_fw.mp4	0.0	360.00919580459595	1.008514165878296
81	338.97559905052185	movie	1		283	79.0	2.5	/experiments/Knapen_AOT/AOT_stimuli/rescaled_final/0198_fw.mp4	0.0	361.01770997047424	2.4919497966766357
81	339.34900546073914	pulse	1	t		79.0	2.5	/experiments/Knapen_AOT/AOT_stimuli/rescaled_final/0198_fw.mp4	0.0	361.3911163806915	
81	340.95047545433044	pulse	1	t		79.0	2.5	/experiments/Knapen_AOT/AOT_stimuli/rescaled_final/0198_fw.mp4	0.0	362.99258637428284	
81	341.4675488471985	fix_post	2		12	79.0	2.5	/experiments/Knapen_AOT/AOT_stimuli/rescaled_final/0198_fw.mp4	0.0	363.5096597671509	0.10012936592102051
82	341.5676782131195	fix_pre	0		119	80.0	2.5	/experiments/Knapen_AOT/AOT_stimuli/rescaled_final/1227_fw.mp4	0.0	363.6097891330719	1.000197172164917
82	342.55133056640625	pulse	0	t		80.0	2.5	/experiments/Knapen_AOT/AOT_stimuli/rescaled_final/1227_fw.mp4	0.0	364.59344148635864	
82	342.5678753852844	movie	1		276	80.0	2.5	/experiments/Knapen_AOT/AOT_stimuli/rescaled_final/1227_fw.mp4	0.0	364.6099863052368	2.500271797180176
82	344.150253534317	pulse	1	t		80.0	2.5	/experiments/Knapen_AOT/AOT_stimuli/rescaled_final/1227_fw.mp4	0.0	366.1923644542694	
82	345.0681471824646	fix_post	2		12	80.0	2.5	/experiments/Knapen_AOT/AOT_stimuli/rescaled_final/1227_fw.mp4	0.0	367.110258102417	0.10005450248718262
83	345.1682016849518	fix_pre	0		120	81.0	2.5	/experiments/Knapen_AOT/AOT_stimuli/rescaled_final/2046_fw.mp4	0.0	367.2103126049042	1.0085163116455078
83	345.75199246406555	pulse	0	t		81.0	2.5	/experiments/Knapen_AOT/AOT_stimuli/rescaled_final/2046_fw.mp4	0.0	367.79410338401794	
83	346.1767179965973	movie	1		280	81.0	2.5	/experiments/Knapen_AOT/AOT_stimuli/rescaled_final/2046_fw.mp4	0.0	368.2188289165497	2.491935968399048
83	347.3505628108978	pulse	1	t		81.0	2.5	/experiments/Knapen_AOT/AOT_stimuli/rescaled_final/2046_fw.mp4	0.0	369.3926737308502	
83	348.66865396499634	fix_post	2		12	81.0	2.5	/experiments/Knapen_AOT/AOT_stimuli/rescaled_final/2046_fw.mp4	0.0	370.71076488494873	0.10002779960632324
84	348.76868176460266	fix_pre	0		120	82.0	2.5	/experiments/Knapen_AOT/AOT_stimuli/rescaled_final/0021_rv.mp4	0.0	370.81079268455505	1.0084590911865234
84	348.94477248191833	pulse	0	t		82.0	2.5	/experiments/Knapen_AOT/AOT_stimuli/rescaled_final/0021_rv.mp4	0.0	370.9868834018707	
84	349.7771408557892	movie	1		273	82.0	2.5	/experiments/Knapen_AOT/AOT_stimuli/rescaled_final/0021_rv.mp4	0.0	371.8192517757416	2.4920654296875
84	350.5528438091278	pulse	1	t		82.0	2.5	/experiments/Knapen_AOT/AOT_stimuli/rescaled_final/0021_rv.mp4	0.0	372.5949547290802	
84	352.15088748931885	pulse	1	t		82.0	2.5	/experiments/Knapen_AOT/AOT_stimuli/rescaled_final/0021_rv.mp4	0.0	374.19299840927124	
84	352.2692062854767	fix_post	2		12	82.0	2.5	/experiments/Knapen_AOT/AOT_stimuli/rescaled_final/0021_rv.mp4	0.0	374.3113172054291	0.09999561309814453
85	352.36920189857483	fix_pre	0		120	83.0	2.5	blank	1.0	374.4113128185272	1.000147819519043
85	353.3693497180939	movie	1		300	83.0	2.5	blank	1.0	375.41146063804626	2.500382900238037
85	353.7447829246521	pulse	1	t		83.0	2.5	blank	1.0	375.7868938446045	
85	355.34492325782776	pulse	1	t		83.0	2.5	blank	1.0	377.38703417778015	
85	355.8697326183319	fix_post	2		11	83.0	2.5	blank	1.0	377.9118435382843	0.10001373291015625
87	355.96974635124207	stim	0		1715					378.01185727119446	14.293961524963379
87	356.9451570510864	pulse	0	t						378.9872679710388	
87	358.5454132556915	pulse	0	t						380.5875241756439	
87	360.1455578804016	pulse	0	t						382.187668800354	
87	361.74586057662964	pulse	0	t						383.78797149658203	
87	363.3461015224457	pulse	0	t						385.38821244239807	
87	364.9463677406311	pulse	0	t						386.9884786605835	
87	366.54664373397827	pulse	0	t						388.58875465393066	
87	368.14677238464355	pulse	0	t						390.18888330459595	
87	369.7471342086792	pulse	0	t						391.7892451286316	
