trial_nr	onset	event_type	phase	response	nr_frames	movie_index	movie_duration	movie_file	blank	onset_abs	duration
0	0.1664421558380127	stim	0		48					18.080463647842407	0.3999614715576172
0	0.5583438873291016	response	0	space						18.472365379333496	
1	0.5664036273956299	stim	0		4264					18.480425119400024	35.55145192146301
1	36.10333704948425	pulse	0	t						54.01735854148865	
1	36.11785554885864	stim	1		1714					54.03187704086304	14.297744274139404
1	37.69720101356506	pulse	1	t						55.61122250556946	
1	39.29756236076355	pulse	1	t						57.211583852767944	
1	40.897692918777466	pulse	1	t						58.81171441078186	
1	42.497987270355225	pulse	1	t						60.41200876235962	
1	44.09814691543579	pulse	1	t						62.012168407440186	
1	45.6983904838562	pulse	1	t						63.612411975860596	
1	47.29867696762085	pulse	1	t						65.21269845962524	
1	48.89885354042053	pulse	1	t						66.81287503242493	
2	50.41559982299805	fix_pre	0		11	0.0	2.5	/experiments/Knapen_AOT/AOT_stimuli/rescaled_final/2149_fw.mp4	0.0	68.32962131500244	0.10837674140930176
2	50.499215841293335	pulse	0	t		0.0	2.5	/experiments/Knapen_AOT/AOT_stimuli/rescaled_final/2149_fw.mp4	0.0	68.41323733329773	
2	50.52397656440735	movie	1		280	0.0	2.5	/experiments/Knapen_AOT/AOT_stimuli/rescaled_final/2149_fw.mp4	0.0	68.43799805641174	2.4920928478240967
2	52.097617864608765	pulse	1	t		0.0	2.5	/experiments/Knapen_AOT/AOT_stimuli/rescaled_final/2149_fw.mp4	0.0	70.01163935661316	
2	53.016069412231445	fix_post	2		12	0.0	2.5	/experiments/Knapen_AOT/AOT_stimuli/rescaled_final/2149_fw.mp4	0.0	70.93009090423584	0.09992146492004395
3	53.11599087715149	fix_pre	0		120	1.0	2.5	/experiments/Knapen_AOT/AOT_stimuli/rescaled_final/2046_rv.mp4	0.0	71.03001236915588	1.0085067749023438
3	53.69963979721069	pulse	0	t		1.0	2.5	/experiments/Knapen_AOT/AOT_stimuli/rescaled_final/2046_rv.mp4	0.0	71.61366128921509	
3	54.12449765205383	movie	1		283	1.0	2.5	/experiments/Knapen_AOT/AOT_stimuli/rescaled_final/2046_rv.mp4	0.0	72.03851914405823	2.4920225143432617
3	55.297823905944824	pulse	1	t		1.0	2.5	/experiments/Knapen_AOT/AOT_stimuli/rescaled_final/2046_rv.mp4	0.0	73.21184539794922	
3	56.616520166397095	fix_post	2		12	1.0	2.5	/experiments/Knapen_AOT/AOT_stimuli/rescaled_final/2046_rv.mp4	0.0	74.53054165840149	0.10003542900085449
4	56.71655559539795	fix_pre	0		120	2.0	2.5	/experiments/Knapen_AOT/AOT_stimuli/rescaled_final/1130_fw.mp4	0.0	74.63057708740234	1.0084702968597412
4	56.89283084869385	pulse	0	t		2.0	2.5	/experiments/Knapen_AOT/AOT_stimuli/rescaled_final/1130_fw.mp4	0.0	74.80685234069824	
4	57.72502589225769	movie	1		279	2.0	2.5	/experiments/Knapen_AOT/AOT_stimuli/rescaled_final/1130_fw.mp4	0.0	75.63904738426208	2.4920413494110107
4	58.498284578323364	pulse	1	t		2.0	2.5	/experiments/Knapen_AOT/AOT_stimuli/rescaled_final/1130_fw.mp4	0.0	76.41230607032776	
4	60.09875988960266	pulse	1	t		2.0	2.5	/experiments/Knapen_AOT/AOT_stimuli/rescaled_final/1130_fw.mp4	0.0	78.01278138160706	
4	60.2170672416687	fix_post	2		12	2.0	2.5	/experiments/Knapen_AOT/AOT_stimuli/rescaled_final/1130_fw.mp4	0.0	78.1310887336731	0.10006928443908691
5	60.31713652610779	fix_pre	0		120	3.0	2.5	/experiments/Knapen_AOT/AOT_stimuli/rescaled_final/0790_fw.mp4	0.0	78.23115801811218	1.0084805488586426
5	61.32561707496643	movie	1		281	3.0	2.5	/experiments/Knapen_AOT/AOT_stimuli/rescaled_final/0790_fw.mp4	0.0	79.23963856697083	2.491966724395752
5	61.69272255897522	pulse	1	t		3.0	2.5	/experiments/Knapen_AOT/AOT_stimuli/rescaled_final/0790_fw.mp4	0.0	79.60674405097961	
5	63.293086767196655	pulse	1	t		3.0	2.5	/experiments/Knapen_AOT/AOT_stimuli/rescaled_final/0790_fw.mp4	0.0	81.20710825920105	
5	63.81758379936218	fix_post	2		12	3.0	2.5	/experiments/Knapen_AOT/AOT_stimuli/rescaled_final/0790_fw.mp4	0.0	81.73160529136658	0.10002303123474121
6	63.917606830596924	fix_pre	0		118	4.0	2.5	/experiments/Knapen_AOT/AOT_stimuli/rescaled_final/1156_fw.mp4	0.0	81.83162832260132	0.9918370246887207
6	64.89300489425659	pulse	0	t		4.0	2.5	/experiments/Knapen_AOT/AOT_stimuli/rescaled_final/1156_fw.mp4	0.0	82.80702638626099	
6	64.90944385528564	movie	1		290	4.0	2.5	/experiments/Knapen_AOT/AOT_stimuli/rescaled_final/1156_fw.mp4	0.0	82.82346534729004	2.5003514289855957
6	66.49350690841675	pulse	1	t		4.0	2.5	/experiments/Knapen_AOT/AOT_stimuli/rescaled_final/1156_fw.mp4	0.0	84.40752840042114	
6	67.40979528427124	fix_post	2		12	4.0	2.5	/experiments/Knapen_AOT/AOT_stimuli/rescaled_final/1156_fw.mp4	0.0	85.32381677627563	0.1000206470489502
7	67.50981593132019	fix_pre	0		120	5.0	2.5	/experiments/Knapen_AOT/AOT_stimuli/rescaled_final/0361_fw.mp4	0.0	85.42383742332458	1.008549690246582
7	68.09344720840454	pulse	0	t		5.0	2.5	/experiments/Knapen_AOT/AOT_stimuli/rescaled_final/0361_fw.mp4	0.0	86.00746870040894	
7	68.51836562156677	movie	1		290	5.0	2.5	/experiments/Knapen_AOT/AOT_stimuli/rescaled_final/0361_fw.mp4	0.0	86.43238711357117	2.492164373397827
7	69.69377446174622	pulse	1	t		5.0	2.5	/experiments/Knapen_AOT/AOT_stimuli/rescaled_final/0361_fw.mp4	0.0	87.60779595375061	
7	71.0105299949646	fix_post	2		12	5.0	2.5	/experiments/Knapen_AOT/AOT_stimuli/rescaled_final/0361_fw.mp4	0.0	88.924551486969	0.09986710548400879
8	71.11039710044861	fix_pre	0		120	6.0	2.5	blank	1.0	89.024418592453	1.000209093093872
8	71.29405856132507	pulse	0	t		6.0	2.5	blank	1.0	89.20808005332947	
8	72.11060619354248	movie	1		300	6.0	2.5	blank	1.0	90.02462768554688	2.500272035598755
8	72.89423370361328	pulse	1	t		6.0	2.5	blank	1.0	90.80825519561768	
8	74.49440503120422	pulse	1	t		6.0	2.5	blank	1.0	92.40842652320862	
8	74.61087822914124	fix_post	2		12	6.0	2.5	blank	1.0	92.52489972114563	0.10001468658447266
9	74.71089291572571	fix_pre	0		120	7.0	2.5	/experiments/Knapen_AOT/AOT_stimuli/rescaled_final/1797_rv.mp4	0.0	92.6249144077301	1.008577585220337
9	75.71947050094604	movie	1		280	7.0	2.5	/experiments/Knapen_AOT/AOT_stimuli/rescaled_final/1797_rv.mp4	0.0	93.63349199295044	2.4919893741607666
9	76.09350776672363	pulse	1	t		7.0	2.5	/experiments/Knapen_AOT/AOT_stimuli/rescaled_final/1797_rv.mp4	0.0	94.00752925872803	
9	77.69501209259033	pulse	1	t		7.0	2.5	/experiments/Knapen_AOT/AOT_stimuli/rescaled_final/1797_rv.mp4	0.0	95.60903358459473	
9	78.21145987510681	fix_post	2		12	7.0	2.5	/experiments/Knapen_AOT/AOT_stimuli/rescaled_final/1797_rv.mp4	0.0	96.1254813671112	0.1000220775604248
10	78.31148195266724	fix_pre	0		119	8.0	2.5	/experiments/Knapen_AOT/AOT_stimuli/rescaled_final/1760_fw.mp4	0.0	96.22550344467163	1.000145673751831
10	79.29513597488403	pulse	0	t		8.0	2.5	/experiments/Knapen_AOT/AOT_stimuli/rescaled_final/1760_fw.mp4	0.0	97.20915746688843	
10	79.31162762641907	movie	1		278	8.0	2.5	/experiments/Knapen_AOT/AOT_stimuli/rescaled_final/1760_fw.mp4	0.0	97.22564911842346	2.5003347396850586
10	80.89390468597412	pulse	1	t		8.0	2.5	/experiments/Knapen_AOT/AOT_stimuli/rescaled_final/1760_fw.mp4	0.0	98.80792617797852	
10	81.81196236610413	fix_post	2		12	8.0	2.5	/experiments/Knapen_AOT/AOT_stimuli/rescaled_final/1760_fw.mp4	0.0	99.72598385810852	0.10000777244567871
11	81.9119701385498	fix_pre	0		120	9.0	2.5	/experiments/Knapen_AOT/AOT_stimuli/rescaled_final/1169_rv.mp4	0.0	99.8259916305542	1.008559226989746
11	82.49558067321777	pulse	0	t		9.0	2.5	/experiments/Knapen_AOT/AOT_stimuli/rescaled_final/1169_rv.mp4	0.0	100.40960216522217	
11	82.92052936553955	movie	1		282	9.0	2.5	/experiments/Knapen_AOT/AOT_stimuli/rescaled_final/1169_rv.mp4	0.0	100.83455085754395	2.492035388946533
11	84.09617686271667	pulse	1	t		9.0	2.5	/experiments/Knapen_AOT/AOT_stimuli/rescaled_final/1169_rv.mp4	0.0	102.01019835472107	
11	85.41256475448608	fix_post	2		12	9.0	2.5	/experiments/Knapen_AOT/AOT_stimuli/rescaled_final/1169_rv.mp4	0.0	103.32658624649048	0.0999751091003418
12	85.51253986358643	fix_pre	0		120	10.0	2.5	/experiments/Knapen_AOT/AOT_stimuli/rescaled_final/1691_rv.mp4	0.0	103.42656135559082	1.0084865093231201
12	85.69616413116455	pulse	0	t		10.0	2.5	/experiments/Knapen_AOT/AOT_stimuli/rescaled_final/1691_rv.mp4	0.0	103.61018562316895	
12	86.52102637290955	movie	1		278	10.0	2.5	/experiments/Knapen_AOT/AOT_stimuli/rescaled_final/1691_rv.mp4	0.0	104.43504786491394	2.492020606994629
12	87.29422783851624	pulse	1	t		10.0	2.5	/experiments/Knapen_AOT/AOT_stimuli/rescaled_final/1691_rv.mp4	0.0	105.20824933052063	
12	88.89493060112	pulse	1	t		10.0	2.5	/experiments/Knapen_AOT/AOT_stimuli/rescaled_final/1691_rv.mp4	0.0	106.80895209312439	
12	89.01304697990417	fix_post	2		12	10.0	2.5	/experiments/Knapen_AOT/AOT_stimuli/rescaled_final/1691_rv.mp4	0.0	106.92706847190857	0.10006451606750488
13	89.11311149597168	fix_pre	0		120	11.0	2.5	/experiments/Knapen_AOT/AOT_stimuli/rescaled_final/1290_fw.mp4	0.0	107.02713298797607	1.008629560470581
13	90.12174105644226	movie	1		276	11.0	2.5	/experiments/Knapen_AOT/AOT_stimuli/rescaled_final/1290_fw.mp4	0.0	108.03576254844666	2.491893768310547
13	90.49515843391418	pulse	1	t		11.0	2.5	/experiments/Knapen_AOT/AOT_stimuli/rescaled_final/1290_fw.mp4	0.0	108.40917992591858	
13	92.09499263763428	pulse	1	t		11.0	2.5	/experiments/Knapen_AOT/AOT_stimuli/rescaled_final/1290_fw.mp4	0.0	110.00901412963867	
13	92.61363482475281	fix_post	2		12	11.0	2.5	/experiments/Knapen_AOT/AOT_stimuli/rescaled_final/1290_fw.mp4	0.0	110.5276563167572	0.10004496574401855
14	92.71367979049683	fix_pre	0		119	12.0	2.5	/experiments/Knapen_AOT/AOT_stimuli/rescaled_final/2167_fw.mp4	0.0	110.62770128250122	1.000187635421753
14	93.69737362861633	pulse	0	t		12.0	2.5	/experiments/Knapen_AOT/AOT_stimuli/rescaled_final/2167_fw.mp4	0.0	111.61139512062073	
14	93.71386742591858	movie	1		294	12.0	2.5	/experiments/Knapen_AOT/AOT_stimuli/rescaled_final/2167_fw.mp4	0.0	111.62788891792297	2.500291347503662
14	95.29610395431519	pulse	1	t		12.0	2.5	/experiments/Knapen_AOT/AOT_stimuli/rescaled_final/2167_fw.mp4	0.0	113.21012544631958	
14	96.21415877342224	fix_post	2		12	12.0	2.5	/experiments/Knapen_AOT/AOT_stimuli/rescaled_final/2167_fw.mp4	0.0	114.12818026542664	0.09996604919433594
15	96.31412482261658	fix_pre	0		120	13.0	2.5	blank	1.0	114.22814631462097	1.0001862049102783
15	96.89775824546814	pulse	0	t		13.0	2.5	blank	1.0	114.81177973747253	
15	97.31431102752686	movie	1		300	13.0	2.5	blank	1.0	115.22833251953125	2.5004568099975586
15	98.49801778793335	pulse	1	t		13.0	2.5	blank	1.0	116.41203927993774	
15	99.81476783752441	fix_post	2		12	13.0	2.5	blank	1.0	117.72878932952881	0.09994935989379883
16	99.91471719741821	fix_pre	0		120	14.0	2.5	/experiments/Knapen_AOT/AOT_stimuli/rescaled_final/1069_rv.mp4	0.0	117.82873868942261	1.0085268020629883
16	100.09830355644226	pulse	0	t		14.0	2.5	/experiments/Knapen_AOT/AOT_stimuli/rescaled_final/1069_rv.mp4	0.0	118.01232504844666	
16	100.9232439994812	movie	1		275	14.0	2.5	/experiments/Knapen_AOT/AOT_stimuli/rescaled_final/1069_rv.mp4	0.0	118.8372654914856	2.492203712463379
16	101.69671988487244	pulse	1	t		14.0	2.5	/experiments/Knapen_AOT/AOT_stimuli/rescaled_final/1069_rv.mp4	0.0	119.61074137687683	
16	103.29700636863708	pulse	1	t		14.0	2.5	/experiments/Knapen_AOT/AOT_stimuli/rescaled_final/1069_rv.mp4	0.0	121.21102786064148	
16	103.41544771194458	fix_post	2		12	14.0	2.5	/experiments/Knapen_AOT/AOT_stimuli/rescaled_final/1069_rv.mp4	0.0	121.32946920394897	0.09981584548950195
17	103.51526355743408	fix_pre	0		120	15.0	2.5	/experiments/Knapen_AOT/AOT_stimuli/rescaled_final/0656_fw.mp4	0.0	121.42928504943848	1.008451223373413
17	104.5237147808075	movie	1		288	15.0	2.5	/experiments/Knapen_AOT/AOT_stimuli/rescaled_final/0656_fw.mp4	0.0	122.43773627281189	2.4920876026153564
17	104.89732003211975	pulse	1	t		15.0	2.5	/experiments/Knapen_AOT/AOT_stimuli/rescaled_final/0656_fw.mp4	0.0	122.81134152412415	
17	106.49747443199158	pulse	1	t		15.0	2.5	/experiments/Knapen_AOT/AOT_stimuli/rescaled_final/0656_fw.mp4	0.0	124.41149592399597	
17	107.01580238342285	fix_post	2		12	15.0	2.5	/experiments/Knapen_AOT/AOT_stimuli/rescaled_final/0656_fw.mp4	0.0	124.92982387542725	0.10005855560302734
18	107.11586093902588	fix_pre	0		119	16.0	2.5	/experiments/Knapen_AOT/AOT_stimuli/rescaled_final/1594_fw.mp4	0.0	125.02988243103027	1.0000438690185547
18	108.09941053390503	pulse	0	t		16.0	2.5	/experiments/Knapen_AOT/AOT_stimuli/rescaled_final/1594_fw.mp4	0.0	126.01343202590942	
18	108.11590480804443	movie	1		297	16.0	2.5	/experiments/Knapen_AOT/AOT_stimuli/rescaled_final/1594_fw.mp4	0.0	126.02992630004883	2.5003552436828613
18	109.69564461708069	pulse	1	t		16.0	2.5	/experiments/Knapen_AOT/AOT_stimuli/rescaled_final/1594_fw.mp4	0.0	127.60966610908508	
18	110.6162600517273	fix_post	2		12	16.0	2.5	/experiments/Knapen_AOT/AOT_stimuli/rescaled_final/1594_fw.mp4	0.0	128.5302815437317	0.10007572174072266
19	110.71633577346802	fix_pre	0		120	17.0	2.5	/experiments/Knapen_AOT/AOT_stimuli/rescaled_final/1895_fw.mp4	0.0	128.6303572654724	1.0000848770141602
19	111.29994702339172	pulse	0	t		17.0	2.5	/experiments/Knapen_AOT/AOT_stimuli/rescaled_final/1895_fw.mp4	0.0	129.21396851539612	
19	111.71642065048218	movie	1		294	17.0	2.5	/experiments/Knapen_AOT/AOT_stimuli/rescaled_final/1895_fw.mp4	0.0	129.63044214248657	2.500415325164795
19	112.89187407493591	pulse	1	t		17.0	2.5	/experiments/Knapen_AOT/AOT_stimuli/rescaled_final/1895_fw.mp4	0.0	130.8058955669403	
19	114.21683597564697	fix_post	2		12	17.0	2.5	/experiments/Knapen_AOT/AOT_stimuli/rescaled_final/1895_fw.mp4	0.0	132.13085746765137	0.10004687309265137
20	114.31688284873962	fix_pre	0		120	18.0	2.5	/experiments/Knapen_AOT/AOT_stimuli/rescaled_final/1761_rv.mp4	0.0	132.23090434074402	1.0084803104400635
20	114.49204874038696	pulse	0	t		18.0	2.5	/experiments/Knapen_AOT/AOT_stimuli/rescaled_final/1761_rv.mp4	0.0	132.40607023239136	
20	115.32536315917969	movie	1		291	18.0	2.5	/experiments/Knapen_AOT/AOT_stimuli/rescaled_final/1761_rv.mp4	0.0	133.23938465118408	2.491987466812134
20	116.09227013587952	pulse	1	t		18.0	2.5	/experiments/Knapen_AOT/AOT_stimuli/rescaled_final/1761_rv.mp4	0.0	134.0062916278839	
20	117.69247317314148	pulse	1	t		18.0	2.5	/experiments/Knapen_AOT/AOT_stimuli/rescaled_final/1761_rv.mp4	0.0	135.60649466514587	
20	117.81735062599182	fix_post	2		12	18.0	2.5	/experiments/Knapen_AOT/AOT_stimuli/rescaled_final/1761_rv.mp4	0.0	135.73137211799622	0.1000676155090332
21	117.91741824150085	fix_pre	0		120	19.0	2.5	blank	1.0	135.83143973350525	1.0001280307769775
21	118.91754627227783	movie	1		299	19.0	2.5	blank	1.0	136.83156776428223	2.4920434951782227
21	119.29287505149841	pulse	1	t		19.0	2.5	blank	1.0	137.2068965435028	
21	120.89310431480408	pulse	1	t		19.0	2.5	blank	1.0	138.80712580680847	
21	121.40958976745605	fix_post	2		12	19.0	2.5	blank	1.0	139.32361125946045	0.10001206398010254
22	121.50960183143616	fix_pre	0		119	20.0	2.5	/experiments/Knapen_AOT/AOT_stimuli/rescaled_final/1760_fw.mp4	0.0	139.42362332344055	1.000183343887329
22	122.49335741996765	pulse	0	t		20.0	2.5	/experiments/Knapen_AOT/AOT_stimuli/rescaled_final/1760_fw.mp4	0.0	140.40737891197205	
22	122.50978517532349	movie	1		293	20.0	2.5	/experiments/Knapen_AOT/AOT_stimuli/rescaled_final/1760_fw.mp4	0.0	140.42380666732788	2.500382423400879
22	124.09211874008179	pulse	1	t		20.0	2.5	/experiments/Knapen_AOT/AOT_stimuli/rescaled_final/1760_fw.mp4	0.0	142.00614023208618	
22	125.01016759872437	fix_post	2		12	20.0	2.5	/experiments/Knapen_AOT/AOT_stimuli/rescaled_final/1760_fw.mp4	0.0	142.92418909072876	0.09998822212219238
23	125.11015582084656	fix_pre	0		120	21.0	2.5	/experiments/Knapen_AOT/AOT_stimuli/rescaled_final/1850_fw.mp4	0.0	143.02417731285095	1.0085010528564453
23	125.69380640983582	pulse	0	t		21.0	2.5	/experiments/Knapen_AOT/AOT_stimuli/rescaled_final/1850_fw.mp4	0.0	143.6078279018402	
23	126.118656873703	movie	1		287	21.0	2.5	/experiments/Knapen_AOT/AOT_stimuli/rescaled_final/1850_fw.mp4	0.0	144.0326783657074	2.4920127391815186
23	127.29202961921692	pulse	1	t		21.0	2.5	/experiments/Knapen_AOT/AOT_stimuli/rescaled_final/1850_fw.mp4	0.0	145.2060511112213	
23	128.61066961288452	fix_post	2		12	21.0	2.5	/experiments/Knapen_AOT/AOT_stimuli/rescaled_final/1850_fw.mp4	0.0	146.52469110488892	0.10002684593200684
24	128.71069645881653	fix_pre	0		120	22.0	2.5	/experiments/Knapen_AOT/AOT_stimuli/rescaled_final/1195_fw.mp4	0.0	146.62471795082092	1.0084993839263916
24	128.89430570602417	pulse	0	t		22.0	2.5	/experiments/Knapen_AOT/AOT_stimuli/rescaled_final/1195_fw.mp4	0.0	146.80832719802856	
24	129.71919584274292	movie	1		274	22.0	2.5	/experiments/Knapen_AOT/AOT_stimuli/rescaled_final/1195_fw.mp4	0.0	147.63321733474731	2.492023229598999
24	130.4925992488861	pulse	1	t		22.0	2.5	/experiments/Knapen_AOT/AOT_stimuli/rescaled_final/1195_fw.mp4	0.0	148.4066207408905	
24	132.09303545951843	pulse	1	t		22.0	2.5	/experiments/Knapen_AOT/AOT_stimuli/rescaled_final/1195_fw.mp4	0.0	150.00705695152283	
24	132.21121907234192	fix_post	2		12	22.0	2.5	/experiments/Knapen_AOT/AOT_stimuli/rescaled_final/1195_fw.mp4	0.0	150.1252405643463	0.10002398490905762
25	132.31124305725098	fix_pre	0		120	23.0	2.5	/experiments/Knapen_AOT/AOT_stimuli/rescaled_final/1064_rv.mp4	0.0	150.22526454925537	1.0084812641143799
25	133.31972432136536	movie	1		285	23.0	2.5	/experiments/Knapen_AOT/AOT_stimuli/rescaled_final/1064_rv.mp4	0.0	151.23374581336975	2.492035388946533
25	133.69345712661743	pulse	1	t		23.0	2.5	/experiments/Knapen_AOT/AOT_stimuli/rescaled_final/1064_rv.mp4	0.0	151.60747861862183	
25	135.29383516311646	pulse	1	t		23.0	2.5	/experiments/Knapen_AOT/AOT_stimuli/rescaled_final/1064_rv.mp4	0.0	153.20785665512085	
25	135.8117597103119	fix_post	2		12	23.0	2.5	/experiments/Knapen_AOT/AOT_stimuli/rescaled_final/1064_rv.mp4	0.0	153.72578120231628	0.10001063346862793
26	135.91177034378052	fix_pre	0		119	24.0	2.5	/experiments/Knapen_AOT/AOT_stimuli/rescaled_final/0560_fw.mp4	0.0	153.8257918357849	1.0002937316894531
26	136.8954484462738	pulse	0	t		24.0	2.5	/experiments/Knapen_AOT/AOT_stimuli/rescaled_final/0560_fw.mp4	0.0	154.8094699382782	
26	136.91206407546997	movie	1		283	24.0	2.5	/experiments/Knapen_AOT/AOT_stimuli/rescaled_final/0560_fw.mp4	0.0	154.82608556747437	2.5085809230804443
26	138.4940164089203	pulse	1	t		24.0	2.5	/experiments/Knapen_AOT/AOT_stimuli/rescaled_final/0560_fw.mp4	0.0	156.40803790092468	
26	139.42064499855042	fix_post	2		11	24.0	2.5	/experiments/Knapen_AOT/AOT_stimuli/rescaled_final/0560_fw.mp4	0.0	157.3346664905548	0.09167885780334473
27	139.51232385635376	fix_pre	0		120	25.0	2.5	/experiments/Knapen_AOT/AOT_stimuli/rescaled_final/0027_rv.mp4	0.0	157.42634534835815	1.0084805488586426
27	140.0959780216217	pulse	0	t		25.0	2.5	/experiments/Knapen_AOT/AOT_stimuli/rescaled_final/0027_rv.mp4	0.0	158.0099995136261	
27	140.5208044052124	movie	1		287	25.0	2.5	/experiments/Knapen_AOT/AOT_stimuli/rescaled_final/0027_rv.mp4	0.0	158.4348258972168	2.49202823638916
27	141.69438695907593	pulse	1	t		25.0	2.5	/experiments/Knapen_AOT/AOT_stimuli/rescaled_final/0027_rv.mp4	0.0	159.60840845108032	
27	143.01283264160156	fix_post	2		12	25.0	2.5	/experiments/Knapen_AOT/AOT_stimuli/rescaled_final/0027_rv.mp4	0.0	160.92685413360596	0.10002326965332031
28	143.11285591125488	fix_pre	0		120	26.0	2.5	/experiments/Knapen_AOT/AOT_stimuli/rescaled_final/0442_rv.mp4	0.0	161.02687740325928	1.008507251739502
28	143.29649782180786	pulse	0	t		26.0	2.5	/experiments/Knapen_AOT/AOT_stimuli/rescaled_final/0442_rv.mp4	0.0	161.21051931381226	
28	144.12136316299438	movie	1		281	26.0	2.5	/experiments/Knapen_AOT/AOT_stimuli/rescaled_final/0442_rv.mp4	0.0	162.03538465499878	2.4920496940612793
28	144.8952238559723	pulse	1	t		26.0	2.5	/experiments/Knapen_AOT/AOT_stimuli/rescaled_final/0442_rv.mp4	0.0	162.80924534797668	
28	146.4948124885559	pulse	1	t		26.0	2.5	/experiments/Knapen_AOT/AOT_stimuli/rescaled_final/0442_rv.mp4	0.0	164.4088339805603	
28	146.61341285705566	fix_post	2		12	26.0	2.5	/experiments/Knapen_AOT/AOT_stimuli/rescaled_final/0442_rv.mp4	0.0	164.52743434906006	0.10005736351013184
29	146.7134702205658	fix_pre	0		120	27.0	2.5	/experiments/Knapen_AOT/AOT_stimuli/rescaled_final/0006_fw.mp4	0.0	164.6274917125702	1.0084187984466553
29	147.72188901901245	movie	1		285	27.0	2.5	/experiments/Knapen_AOT/AOT_stimuli/rescaled_final/0006_fw.mp4	0.0	165.63591051101685	2.492018938064575
29	148.0954303741455	pulse	1	t		27.0	2.5	/experiments/Knapen_AOT/AOT_stimuli/rescaled_final/0006_fw.mp4	0.0	166.0094518661499	
29	149.69539976119995	pulse	1	t		27.0	2.5	/experiments/Knapen_AOT/AOT_stimuli/rescaled_final/0006_fw.mp4	0.0	167.60942125320435	
29	150.21390795707703	fix_post	2		12	27.0	2.5	/experiments/Knapen_AOT/AOT_stimuli/rescaled_final/0006_fw.mp4	0.0	168.12792944908142	0.10024189949035645
30	150.31414985656738	fix_pre	0		119	28.0	2.5	blank	1.0	168.22817134857178	0.9915885925292969
30	151.29760599136353	pulse	0	t		28.0	2.5	blank	1.0	169.21162748336792	
30	151.30573844909668	movie	1		301	28.0	2.5	blank	1.0	169.21975994110107	2.5087180137634277
30	152.89784383773804	pulse	1	t		28.0	2.5	blank	1.0	170.81186532974243	
30	153.8144564628601	fix_post	2		12	28.0	2.5	blank	1.0	171.7284779548645	0.10001182556152344
31	153.91446828842163	fix_pre	0		120	29.0	2.5	/experiments/Knapen_AOT/AOT_stimuli/rescaled_final/1021_fw.mp4	0.0	171.82848978042603	1.0085792541503906
31	154.49811840057373	pulse	0	t		29.0	2.5	/experiments/Knapen_AOT/AOT_stimuli/rescaled_final/1021_fw.mp4	0.0	172.41213989257812	
31	154.92304754257202	movie	1		277	29.0	2.5	/experiments/Knapen_AOT/AOT_stimuli/rescaled_final/1021_fw.mp4	0.0	172.83706903457642	2.50034499168396
31	156.09679293632507	pulse	1	t		29.0	2.5	/experiments/Knapen_AOT/AOT_stimuli/rescaled_final/1021_fw.mp4	0.0	174.01081442832947	
31	157.42339253425598	fix_post	2		11	29.0	2.5	/experiments/Knapen_AOT/AOT_stimuli/rescaled_final/1021_fw.mp4	0.0	175.33741402626038	0.09161949157714844
32	157.51501202583313	fix_pre	0		120	30.0	2.5	/experiments/Knapen_AOT/AOT_stimuli/rescaled_final/0691_fw.mp4	0.0	175.42903351783752	1.0085055828094482
32	157.6986424922943	pulse	0	t		30.0	2.5	/experiments/Knapen_AOT/AOT_stimuli/rescaled_final/0691_fw.mp4	0.0	175.6126639842987	
32	158.52351760864258	movie	1		278	30.0	2.5	/experiments/Knapen_AOT/AOT_stimuli/rescaled_final/0691_fw.mp4	0.0	176.43753910064697	2.492034673690796
32	159.29747486114502	pulse	1	t		30.0	2.5	/experiments/Knapen_AOT/AOT_stimuli/rescaled_final/0691_fw.mp4	0.0	177.2114963531494	
32	160.89692854881287	pulse	1	t		30.0	2.5	/experiments/Knapen_AOT/AOT_stimuli/rescaled_final/0691_fw.mp4	0.0	178.81095004081726	
32	161.01555228233337	fix_post	2		12	30.0	2.5	/experiments/Knapen_AOT/AOT_stimuli/rescaled_final/0691_fw.mp4	0.0	178.92957377433777	0.10003185272216797
33	161.11558413505554	fix_pre	0		120	31.0	2.5	/experiments/Knapen_AOT/AOT_stimuli/rescaled_final/0958_fw.mp4	0.0	179.02960562705994	1.0084738731384277
33	162.12405800819397	movie	1		281	31.0	2.5	/experiments/Knapen_AOT/AOT_stimuli/rescaled_final/0958_fw.mp4	0.0	180.03807950019836	2.4920456409454346
33	162.4982135295868	pulse	1	t		31.0	2.5	/experiments/Knapen_AOT/AOT_stimuli/rescaled_final/0958_fw.mp4	0.0	180.4122350215912	
33	164.09773087501526	pulse	1	t		31.0	2.5	/experiments/Knapen_AOT/AOT_stimuli/rescaled_final/0958_fw.mp4	0.0	182.01175236701965	
33	164.6161036491394	fix_post	2		12	31.0	2.5	/experiments/Knapen_AOT/AOT_stimuli/rescaled_final/0958_fw.mp4	0.0	182.5301251411438	0.10000872611999512
34	164.7161123752594	fix_pre	0		119	32.0	2.5	/experiments/Knapen_AOT/AOT_stimuli/rescaled_final/2111_fw.mp4	0.0	182.6301338672638	1.0001394748687744
34	165.69986152648926	pulse	0	t		32.0	2.5	/experiments/Knapen_AOT/AOT_stimuli/rescaled_final/2111_fw.mp4	0.0	183.61388301849365	
34	165.71625185012817	movie	1		287	32.0	2.5	/experiments/Knapen_AOT/AOT_stimuli/rescaled_final/2111_fw.mp4	0.0	183.63027334213257	2.500389337539673
34	167.30101704597473	pulse	1	t		32.0	2.5	/experiments/Knapen_AOT/AOT_stimuli/rescaled_final/2111_fw.mp4	0.0	185.21503853797913	
34	168.21664118766785	fix_post	2		12	32.0	2.5	/experiments/Knapen_AOT/AOT_stimuli/rescaled_final/2111_fw.mp4	0.0	186.13066267967224	0.10002994537353516
35	168.31667113304138	fix_pre	0		120	33.0	2.5	/experiments/Knapen_AOT/AOT_stimuli/rescaled_final/1440_fw.mp4	0.0	186.23069262504578	1.0085022449493408
35	168.89241480827332	pulse	0	t		33.0	2.5	/experiments/Knapen_AOT/AOT_stimuli/rescaled_final/1440_fw.mp4	0.0	186.8064363002777	
35	169.32517337799072	movie	1		282	33.0	2.5	/experiments/Knapen_AOT/AOT_stimuli/rescaled_final/1440_fw.mp4	0.0	187.23919486999512	2.491997241973877
35	170.49251794815063	pulse	1	t		33.0	2.5	/experiments/Knapen_AOT/AOT_stimuli/rescaled_final/1440_fw.mp4	0.0	188.40653944015503	
35	171.8171706199646	fix_post	2		12	33.0	2.5	/experiments/Knapen_AOT/AOT_stimuli/rescaled_final/1440_fw.mp4	0.0	189.731192111969	0.10006141662597656
36	171.91723203659058	fix_pre	0		120	34.0	2.5	/experiments/Knapen_AOT/AOT_stimuli/rescaled_final/0197_fw.mp4	0.0	189.83125352859497	1.0085554122924805
36	172.09296321868896	pulse	0	t		34.0	2.5	/experiments/Knapen_AOT/AOT_stimuli/rescaled_final/0197_fw.mp4	0.0	190.00698471069336	
36	172.92578744888306	movie	1		290	34.0	2.5	/experiments/Knapen_AOT/AOT_stimuli/rescaled_final/0197_fw.mp4	0.0	190.83980894088745	2.4918954372406006
36	173.69262981414795	pulse	1	t		34.0	2.5	/experiments/Knapen_AOT/AOT_stimuli/rescaled_final/0197_fw.mp4	0.0	191.60665130615234	
36	175.29282975196838	pulse	1	t		34.0	2.5	/experiments/Knapen_AOT/AOT_stimuli/rescaled_final/0197_fw.mp4	0.0	193.20685124397278	
36	175.41768288612366	fix_post	2		12	34.0	2.5	/experiments/Knapen_AOT/AOT_stimuli/rescaled_final/0197_fw.mp4	0.0	193.33170437812805	0.10000967979431152
37	175.51769256591797	fix_pre	0		120	35.0	2.5	blank	1.0	193.43171405792236	1.0001397132873535
37	176.51783227920532	movie	1		300	35.0	2.5	blank	1.0	194.43185377120972	2.5004031658172607
37	176.8930652141571	pulse	1	t		35.0	2.5	blank	1.0	194.8070867061615	
37	178.49339079856873	pulse	1	t		35.0	2.5	blank	1.0	196.40741229057312	
37	179.01823544502258	fix_post	2		12	35.0	2.5	blank	1.0	196.93225693702698	0.10001921653747559
38	179.11825466156006	fix_pre	0		118	36.0	2.5	/experiments/Knapen_AOT/AOT_stimuli/rescaled_final/1195_rv.mp4	0.0	197.03227615356445	0.9919095039367676
38	180.09376525878906	pulse	0	t		36.0	2.5	/experiments/Knapen_AOT/AOT_stimuli/rescaled_final/1195_rv.mp4	0.0	198.00778675079346	
38	180.11016416549683	movie	1		290	36.0	2.5	/experiments/Knapen_AOT/AOT_stimuli/rescaled_final/1195_rv.mp4	0.0	198.02418565750122	2.500272035598755
38	181.69385480880737	pulse	1	t		36.0	2.5	/experiments/Knapen_AOT/AOT_stimuli/rescaled_final/1195_rv.mp4	0.0	199.60787630081177	
38	182.61043620109558	fix_post	2		12	36.0	2.5	/experiments/Knapen_AOT/AOT_stimuli/rescaled_final/1195_rv.mp4	0.0	200.52445769309998	0.10004734992980957
39	182.7104835510254	fix_pre	0		120	37.0	2.5	/experiments/Knapen_AOT/AOT_stimuli/rescaled_final/0288_rv.mp4	0.0	200.62450504302979	1.0085043907165527
39	183.29420971870422	pulse	0	t		37.0	2.5	/experiments/Knapen_AOT/AOT_stimuli/rescaled_final/0288_rv.mp4	0.0	201.20823121070862	
39	183.71898794174194	movie	1		285	37.0	2.5	/experiments/Knapen_AOT/AOT_stimuli/rescaled_final/0288_rv.mp4	0.0	201.63300943374634	2.4920074939727783
39	184.8929386138916	pulse	1	t		37.0	2.5	/experiments/Knapen_AOT/AOT_stimuli/rescaled_final/0288_rv.mp4	0.0	202.806960105896	
39	186.21099543571472	fix_post	2		12	37.0	2.5	/experiments/Knapen_AOT/AOT_stimuli/rescaled_final/0288_rv.mp4	0.0	204.12501692771912	0.10001182556152344
40	186.31100726127625	fix_pre	0		120	38.0	2.5	/experiments/Knapen_AOT/AOT_stimuli/rescaled_final/1213_fw.mp4	0.0	204.22502875328064	1.00852370262146
40	186.49459052085876	pulse	0	t		38.0	2.5	/experiments/Knapen_AOT/AOT_stimuli/rescaled_final/1213_fw.mp4	0.0	204.40861201286316	
40	187.3195309638977	movie	1		283	38.0	2.5	/experiments/Knapen_AOT/AOT_stimuli/rescaled_final/1213_fw.mp4	0.0	205.2335524559021	2.492006540298462
40	188.09323406219482	pulse	1	t		38.0	2.5	/experiments/Knapen_AOT/AOT_stimuli/rescaled_final/1213_fw.mp4	0.0	206.00725555419922	
40	189.69319868087769	pulse	1	t		38.0	2.5	/experiments/Knapen_AOT/AOT_stimuli/rescaled_final/1213_fw.mp4	0.0	207.60722017288208	
40	189.81153750419617	fix_post	2		12	38.0	2.5	/experiments/Knapen_AOT/AOT_stimuli/rescaled_final/1213_fw.mp4	0.0	207.72555899620056	0.1000509262084961
41	189.91158843040466	fix_pre	0		120	39.0	2.5	/experiments/Knapen_AOT/AOT_stimuli/rescaled_final/0896_fw.mp4	0.0	207.82560992240906	1.0084669589996338
41	190.9200553894043	movie	1		284	39.0	2.5	/experiments/Knapen_AOT/AOT_stimuli/rescaled_final/0896_fw.mp4	0.0	208.8340768814087	2.492065906524658
41	191.29594111442566	pulse	1	t		39.0	2.5	/experiments/Knapen_AOT/AOT_stimuli/rescaled_final/0896_fw.mp4	0.0	209.20996260643005	
41	192.89352416992188	pulse	1	t		39.0	2.5	/experiments/Knapen_AOT/AOT_stimuli/rescaled_final/0896_fw.mp4	0.0	210.80754566192627	
41	193.41212129592896	fix_post	2		12	39.0	2.5	/experiments/Knapen_AOT/AOT_stimuli/rescaled_final/0896_fw.mp4	0.0	211.32614278793335	0.09998393058776855
42	193.51210522651672	fix_pre	0		119	40.0	2.5	blank	1.0	211.42612671852112	0.991788387298584
42	194.49572563171387	pulse	0	t		40.0	2.5	blank	1.0	212.40974712371826	
42	194.5038936138153	movie	1		301	40.0	2.5	blank	1.0	212.4179151058197	2.5087265968322754
42	196.09598755836487	pulse	1	t		40.0	2.5	blank	1.0	214.01000905036926	
42	197.01262021064758	fix_post	2		12	40.0	2.5	blank	1.0	214.92664170265198	0.10004663467407227
43	197.11266684532166	fix_pre	0		120	41.0	2.5	/experiments/Knapen_AOT/AOT_stimuli/rescaled_final/2162_fw.mp4	0.0	215.02668833732605	1.0085821151733398
43	197.69642043113708	pulse	0	t		41.0	2.5	/experiments/Knapen_AOT/AOT_stimuli/rescaled_final/2162_fw.mp4	0.0	215.61044192314148	
43	198.121248960495	movie	1		274	41.0	2.5	/experiments/Knapen_AOT/AOT_stimuli/rescaled_final/2162_fw.mp4	0.0	216.0352704524994	2.4919302463531494
43	199.29781770706177	pulse	1	t		41.0	2.5	/experiments/Knapen_AOT/AOT_stimuli/rescaled_final/2162_fw.mp4	0.0	217.21183919906616	
43	200.61317920684814	fix_post	2		12	41.0	2.5	/experiments/Knapen_AOT/AOT_stimuli/rescaled_final/2162_fw.mp4	0.0	218.52720069885254	0.10002398490905762
44	200.7132031917572	fix_pre	0		120	42.0	2.5	/experiments/Knapen_AOT/AOT_stimuli/rescaled_final/0013_fw.mp4	0.0	218.6272246837616	1.0084879398345947
44	200.89675188064575	pulse	0	t		42.0	2.5	/experiments/Knapen_AOT/AOT_stimuli/rescaled_final/0013_fw.mp4	0.0	218.81077337265015	
44	201.7216911315918	movie	1		266	42.0	2.5	/experiments/Knapen_AOT/AOT_stimuli/rescaled_final/0013_fw.mp4	0.0	219.6357126235962	2.49202299118042
44	202.49543595314026	pulse	1	t		42.0	2.5	/experiments/Knapen_AOT/AOT_stimuli/rescaled_final/0013_fw.mp4	0.0	220.40945744514465	
44	204.09600687026978	pulse	1	t		42.0	2.5	/experiments/Knapen_AOT/AOT_stimuli/rescaled_final/0013_fw.mp4	0.0	222.01002836227417	
44	204.21371412277222	fix_post	2		12	42.0	2.5	/experiments/Knapen_AOT/AOT_stimuli/rescaled_final/0013_fw.mp4	0.0	222.1277356147766	0.10001277923583984
45	204.31372690200806	fix_pre	0		120	43.0	2.5	/experiments/Knapen_AOT/AOT_stimuli/rescaled_final/1530_rv.mp4	0.0	222.22774839401245	1.0085172653198242
45	205.32224416732788	movie	1		281	43.0	2.5	/experiments/Knapen_AOT/AOT_stimuli/rescaled_final/1530_rv.mp4	0.0	223.23626565933228	2.4920177459716797
45	205.69564771652222	pulse	1	t		43.0	2.5	/experiments/Knapen_AOT/AOT_stimuli/rescaled_final/1530_rv.mp4	0.0	223.6096692085266	
45	207.2961938381195	pulse	1	t		43.0	2.5	/experiments/Knapen_AOT/AOT_stimuli/rescaled_final/1530_rv.mp4	0.0	225.2102153301239	
45	207.81426191329956	fix_post	2		12	43.0	2.5	/experiments/Knapen_AOT/AOT_stimuli/rescaled_final/1530_rv.mp4	0.0	225.72828340530396	0.10002589225769043
46	207.91428780555725	fix_pre	0		119	44.0	2.5	/experiments/Knapen_AOT/AOT_stimuli/rescaled_final/1974_fw.mp4	0.0	225.82830929756165	1.0002505779266357
46	208.89805841445923	pulse	0	t		44.0	2.5	/experiments/Knapen_AOT/AOT_stimuli/rescaled_final/1974_fw.mp4	0.0	226.81207990646362	
46	208.9145383834839	movie	1		288	44.0	2.5	/experiments/Knapen_AOT/AOT_stimuli/rescaled_final/1974_fw.mp4	0.0	226.82855987548828	2.500251531600952
46	210.49714374542236	pulse	1	t		44.0	2.5	/experiments/Knapen_AOT/AOT_stimuli/rescaled_final/1974_fw.mp4	0.0	228.41116523742676	
46	211.41478991508484	fix_post	2		12	44.0	2.5	/experiments/Knapen_AOT/AOT_stimuli/rescaled_final/1974_fw.mp4	0.0	229.32881140708923	0.10005450248718262
47	211.51484441757202	fix_pre	0		120	45.0	2.5	/experiments/Knapen_AOT/AOT_stimuli/rescaled_final/0427_fw.mp4	0.0	229.42886590957642	1.00846529006958
47	212.0984489917755	pulse	0	t		45.0	2.5	/experiments/Knapen_AOT/AOT_stimuli/rescaled_final/0427_fw.mp4	0.0	230.0124704837799	
47	212.5233097076416	movie	1		278	45.0	2.5	/experiments/Knapen_AOT/AOT_stimuli/rescaled_final/0427_fw.mp4	0.0	230.437331199646	2.4920380115509033
47	213.69693660736084	pulse	1	t		45.0	2.5	/experiments/Knapen_AOT/AOT_stimuli/rescaled_final/0427_fw.mp4	0.0	231.61095809936523	
47	215.0153477191925	fix_post	2		12	45.0	2.5	/experiments/Knapen_AOT/AOT_stimuli/rescaled_final/0427_fw.mp4	0.0	232.9293692111969	0.10003781318664551
48	215.11538553237915	fix_pre	0		120	46.0	2.5	/experiments/Knapen_AOT/AOT_stimuli/rescaled_final/1081_fw.mp4	0.0	233.02940702438354	1.008491039276123
48	215.29899263381958	pulse	0	t		46.0	2.5	/experiments/Knapen_AOT/AOT_stimuli/rescaled_final/1081_fw.mp4	0.0	233.21301412582397	
48	216.12387657165527	movie	1		264	46.0	2.5	/experiments/Knapen_AOT/AOT_stimuli/rescaled_final/1081_fw.mp4	0.0	234.03789806365967	2.492000102996826
48	216.8971860408783	pulse	1	t		46.0	2.5	/experiments/Knapen_AOT/AOT_stimuli/rescaled_final/1081_fw.mp4	0.0	234.8112075328827	
48	218.49856114387512	pulse	1	t		46.0	2.5	/experiments/Knapen_AOT/AOT_stimuli/rescaled_final/1081_fw.mp4	0.0	236.41258263587952	
48	218.6158766746521	fix_post	2		12	46.0	2.5	/experiments/Knapen_AOT/AOT_stimuli/rescaled_final/1081_fw.mp4	0.0	236.5298981666565	0.1000523567199707
49	218.71592903137207	fix_pre	0		120	47.0	2.5	/experiments/Knapen_AOT/AOT_stimuli/rescaled_final/2014_fw.mp4	0.0	236.62995052337646	1.0085604190826416
49	219.7244894504547	movie	1		274	47.0	2.5	/experiments/Knapen_AOT/AOT_stimuli/rescaled_final/2014_fw.mp4	0.0	237.6385109424591	2.4920670986175537
49	220.1006374359131	pulse	1	t		47.0	2.5	/experiments/Knapen_AOT/AOT_stimuli/rescaled_final/2014_fw.mp4	0.0	238.01465892791748	
49	221.6977198123932	pulse	1	t		47.0	2.5	/experiments/Knapen_AOT/AOT_stimuli/rescaled_final/2014_fw.mp4	0.0	239.61174130439758	
49	222.21655654907227	fix_post	2		12	47.0	2.5	/experiments/Knapen_AOT/AOT_stimuli/rescaled_final/2014_fw.mp4	0.0	240.13057804107666	0.09991836547851562
50	222.31647491455078	fix_pre	0		119	48.0	2.5	/experiments/Knapen_AOT/AOT_stimuli/rescaled_final/1816_fw.mp4	0.0	240.23049640655518	1.0001168251037598
50	223.3002541065216	pulse	0	t		48.0	2.5	/experiments/Knapen_AOT/AOT_stimuli/rescaled_final/1816_fw.mp4	0.0	241.214275598526	
50	223.31659173965454	movie	1		279	48.0	2.5	/experiments/Knapen_AOT/AOT_stimuli/rescaled_final/1816_fw.mp4	0.0	241.23061323165894	2.500365734100342
50	224.90098309516907	pulse	1	t		48.0	2.5	/experiments/Knapen_AOT/AOT_stimuli/rescaled_final/1816_fw.mp4	0.0	242.81500458717346	
50	225.81695747375488	fix_post	2		12	48.0	2.5	/experiments/Knapen_AOT/AOT_stimuli/rescaled_final/1816_fw.mp4	0.0	243.73097896575928	0.1000220775604248
51	225.9169795513153	fix_pre	0		120	49.0	2.5	blank	1.0	243.8310010433197	1.000168800354004
51	226.49306869506836	pulse	0	t		49.0	2.5	blank	1.0	244.40709018707275	
51	226.9171483516693	movie	1		300	49.0	2.5	blank	1.0	244.8311698436737	2.50034499168396
51	228.09289526939392	pulse	1	t		49.0	2.5	blank	1.0	246.00691676139832	
51	229.41749334335327	fix_post	2		12	49.0	2.5	blank	1.0	247.33151483535767	0.10003948211669922
52	229.51753282546997	fix_pre	0		120	50.0	2.5	/experiments/Knapen_AOT/AOT_stimuli/rescaled_final/0496_fw.mp4	0.0	247.43155431747437	1.0084679126739502
52	229.6933877468109	pulse	0	t		50.0	2.5	/experiments/Knapen_AOT/AOT_stimuli/rescaled_final/0496_fw.mp4	0.0	247.6074092388153	
52	230.52600073814392	movie	1		276	50.0	2.5	/experiments/Knapen_AOT/AOT_stimuli/rescaled_final/0496_fw.mp4	0.0	248.44002223014832	2.4920520782470703
52	231.29333448410034	pulse	1	t		50.0	2.5	/experiments/Knapen_AOT/AOT_stimuli/rescaled_final/0496_fw.mp4	0.0	249.20735597610474	
52	232.89325976371765	pulse	1	t		50.0	2.5	/experiments/Knapen_AOT/AOT_stimuli/rescaled_final/0496_fw.mp4	0.0	250.80728125572205	
52	233.018052816391	fix_post	2		12	50.0	2.5	/experiments/Knapen_AOT/AOT_stimuli/rescaled_final/0496_fw.mp4	0.0	250.93207430839539	0.10001492500305176
53	233.11806774139404	fix_pre	0		120	51.0	2.5	/experiments/Knapen_AOT/AOT_stimuli/rescaled_final/1321_fw.mp4	0.0	251.03208923339844	1.0085296630859375
53	234.12659740447998	movie	1		269	51.0	2.5	/experiments/Knapen_AOT/AOT_stimuli/rescaled_final/1321_fw.mp4	0.0	252.04061889648438	2.491986036300659
53	234.49486327171326	pulse	1	t		51.0	2.5	/experiments/Knapen_AOT/AOT_stimuli/rescaled_final/1321_fw.mp4	0.0	252.40888476371765	
53	236.09368419647217	pulse	1	t		51.0	2.5	/experiments/Knapen_AOT/AOT_stimuli/rescaled_final/1321_fw.mp4	0.0	254.00770568847656	
53	236.61858344078064	fix_post	2		12	51.0	2.5	/experiments/Knapen_AOT/AOT_stimuli/rescaled_final/1321_fw.mp4	0.0	254.53260493278503	0.10001349449157715
54	236.71859693527222	fix_pre	0		118	52.0	2.5	/experiments/Knapen_AOT/AOT_stimuli/rescaled_final/0560_rv.mp4	0.0	254.6326184272766	0.9918332099914551
54	237.69399452209473	pulse	0	t		52.0	2.5	/experiments/Knapen_AOT/AOT_stimuli/rescaled_final/0560_rv.mp4	0.0	255.60801601409912	
54	237.71043014526367	movie	1		280	52.0	2.5	/experiments/Knapen_AOT/AOT_stimuli/rescaled_final/0560_rv.mp4	0.0	255.62445163726807	2.500356435775757
54	239.2944917678833	pulse	1	t		52.0	2.5	/experiments/Knapen_AOT/AOT_stimuli/rescaled_final/0560_rv.mp4	0.0	257.2085132598877	
54	240.21078658103943	fix_post	2		12	52.0	2.5	/experiments/Knapen_AOT/AOT_stimuli/rescaled_final/0560_rv.mp4	0.0	258.1248080730438	0.10002255439758301
55	240.310809135437	fix_pre	0		120	53.0	2.5	/experiments/Knapen_AOT/AOT_stimuli/rescaled_final/0361_rv.mp4	0.0	258.2248306274414	1.008486270904541
55	240.894522190094	pulse	0	t		53.0	2.5	/experiments/Knapen_AOT/AOT_stimuli/rescaled_final/0361_rv.mp4	0.0	258.8085436820984	
55	241.31929540634155	movie	1		280	53.0	2.5	/experiments/Knapen_AOT/AOT_stimuli/rescaled_final/0361_rv.mp4	0.0	259.23331689834595	2.492035388946533
55	242.4931879043579	pulse	1	t		53.0	2.5	/experiments/Knapen_AOT/AOT_stimuli/rescaled_final/0361_rv.mp4	0.0	260.4072093963623	
55	243.8113307952881	fix_post	2		12	53.0	2.5	/experiments/Knapen_AOT/AOT_stimuli/rescaled_final/0361_rv.mp4	0.0	261.7253522872925	0.1000375747680664
56	243.91136837005615	fix_pre	0		120	54.0	2.5	/experiments/Knapen_AOT/AOT_stimuli/rescaled_final/1177_rv.mp4	0.0	261.82538986206055	1.008484125137329
56	244.09492444992065	pulse	0	t		54.0	2.5	/experiments/Knapen_AOT/AOT_stimuli/rescaled_final/1177_rv.mp4	0.0	262.00894594192505	
56	244.91985249519348	movie	1		280	54.0	2.5	/experiments/Knapen_AOT/AOT_stimuli/rescaled_final/1177_rv.mp4	0.0	262.8338739871979	2.492025375366211
56	245.69310784339905	pulse	1	t		54.0	2.5	/experiments/Knapen_AOT/AOT_stimuli/rescaled_final/1177_rv.mp4	0.0	263.60712933540344	
56	247.293621301651	pulse	1	t		54.0	2.5	/experiments/Knapen_AOT/AOT_stimuli/rescaled_final/1177_rv.mp4	0.0	265.2076427936554	
56	247.4118778705597	fix_post	2		12	54.0	2.5	/experiments/Knapen_AOT/AOT_stimuli/rescaled_final/1177_rv.mp4	0.0	265.3258993625641	0.10001277923583984
57	247.51189064979553	fix_pre	0		120	55.0	2.5	blank	1.0	265.4259121417999	1.0001351833343506
57	248.51202583312988	movie	1		300	55.0	2.5	blank	1.0	266.4260473251343	2.5004918575286865
57	248.8957679271698	pulse	1	t		55.0	2.5	blank	1.0	266.8097894191742	
57	250.4958782196045	pulse	1	t		55.0	2.5	blank	1.0	268.4098997116089	
57	251.01251769065857	fix_post	2		12	55.0	2.5	blank	1.0	268.92653918266296	0.09992098808288574
58	251.11243867874146	fix_pre	0		119	56.0	2.5	/experiments/Knapen_AOT/AOT_stimuli/rescaled_final/1761_fw.mp4	0.0	269.02646017074585	1.0001609325408936
58	252.09631848335266	pulse	0	t		56.0	2.5	/experiments/Knapen_AOT/AOT_stimuli/rescaled_final/1761_fw.mp4	0.0	270.01033997535706	
58	252.11259961128235	movie	1		280	56.0	2.5	/experiments/Knapen_AOT/AOT_stimuli/rescaled_final/1761_fw.mp4	0.0	270.02662110328674	2.5003631114959717
58	253.69488525390625	pulse	1	t		56.0	2.5	/experiments/Knapen_AOT/AOT_stimuli/rescaled_final/1761_fw.mp4	0.0	271.60890674591064	
58	254.61296272277832	fix_post	2		12	56.0	2.5	/experiments/Knapen_AOT/AOT_stimuli/rescaled_final/1761_fw.mp4	0.0	272.5269842147827	0.10001397132873535
59	254.71297669410706	fix_pre	0		120	57.0	2.5	/experiments/Knapen_AOT/AOT_stimuli/rescaled_final/1895_rv.mp4	0.0	272.62699818611145	1.0085582733154297
59	255.29660940170288	pulse	0	t		57.0	2.5	/experiments/Knapen_AOT/AOT_stimuli/rescaled_final/1895_rv.mp4	0.0	273.2106308937073	
59	255.72153496742249	movie	1		287	57.0	2.5	/experiments/Knapen_AOT/AOT_stimuli/rescaled_final/1895_rv.mp4	0.0	273.6355564594269	2.4919772148132324
59	256.894814491272	pulse	1	t		57.0	2.5	/experiments/Knapen_AOT/AOT_stimuli/rescaled_final/1895_rv.mp4	0.0	274.80883598327637	
59	258.2135121822357	fix_post	2		12	57.0	2.5	/experiments/Knapen_AOT/AOT_stimuli/rescaled_final/1895_rv.mp4	0.0	276.1275336742401	0.10006999969482422
60	258.31358218193054	fix_pre	0		120	58.0	2.5	/experiments/Knapen_AOT/AOT_stimuli/rescaled_final/0862_rv.mp4	0.0	276.22760367393494	1.0084359645843506
60	258.4971158504486	pulse	0	t		58.0	2.5	/experiments/Knapen_AOT/AOT_stimuli/rescaled_final/0862_rv.mp4	0.0	276.411137342453	
60	259.3220181465149	movie	1		270	58.0	2.5	/experiments/Knapen_AOT/AOT_stimuli/rescaled_final/0862_rv.mp4	0.0	277.2360396385193	2.4920172691345215
60	260.09549283981323	pulse	1	t		58.0	2.5	/experiments/Knapen_AOT/AOT_stimuli/rescaled_final/0862_rv.mp4	0.0	278.0095143318176	
60	261.6957528591156	pulse	1	t		58.0	2.5	/experiments/Knapen_AOT/AOT_stimuli/rescaled_final/0862_rv.mp4	0.0	279.60977435112	
60	261.8140354156494	fix_post	2		12	58.0	2.5	/experiments/Knapen_AOT/AOT_stimuli/rescaled_final/0862_rv.mp4	0.0	279.7280569076538	0.10001063346862793
61	261.91404604911804	fix_pre	0		120	59.0	2.5	/experiments/Knapen_AOT/AOT_stimuli/rescaled_final/0914_rv.mp4	0.0	279.82806754112244	1.0085644721984863
61	262.9226105213165	movie	1		281	59.0	2.5	/experiments/Knapen_AOT/AOT_stimuli/rescaled_final/0914_rv.mp4	0.0	280.8366320133209	2.491968870162964
61	263.2962181568146	pulse	1	t		59.0	2.5	/experiments/Knapen_AOT/AOT_stimuli/rescaled_final/0914_rv.mp4	0.0	281.21023964881897	
61	264.8965675830841	pulse	1	t		59.0	2.5	/experiments/Knapen_AOT/AOT_stimuli/rescaled_final/0914_rv.mp4	0.0	282.8105890750885	
61	265.4145793914795	fix_post	2		12	59.0	2.5	/experiments/Knapen_AOT/AOT_stimuli/rescaled_final/0914_rv.mp4	0.0	283.3286008834839	0.10000967979431152
62	265.5145890712738	fix_pre	0		119	60.0	2.5	/experiments/Knapen_AOT/AOT_stimuli/rescaled_final/0761_rv.mp4	0.0	283.4286105632782	1.0085244178771973
62	266.4983513355255	pulse	0	t		60.0	2.5	/experiments/Knapen_AOT/AOT_stimuli/rescaled_final/0761_rv.mp4	0.0	284.4123728275299	
62	266.523113489151	movie	1		270	60.0	2.5	/experiments/Knapen_AOT/AOT_stimuli/rescaled_final/0761_rv.mp4	0.0	284.4371349811554	2.4920125007629395
62	268.0969965457916	pulse	1	t		60.0	2.5	/experiments/Knapen_AOT/AOT_stimuli/rescaled_final/0761_rv.mp4	0.0	286.011018037796	
62	269.01512598991394	fix_post	2		12	60.0	2.5	/experiments/Knapen_AOT/AOT_stimuli/rescaled_final/0761_rv.mp4	0.0	286.92914748191833	0.10002970695495605
63	269.1151556968689	fix_pre	0		120	61.0	2.5	blank	1.0	287.0291771888733	1.000143051147461
63	269.6988687515259	pulse	0	t		61.0	2.5	blank	1.0	287.6128902435303	
63	270.11529874801636	movie	1		300	61.0	2.5	blank	1.0	288.02932024002075	2.500347852706909
63	271.29905819892883	pulse	1	t		61.0	2.5	blank	1.0	289.2130796909332	
63	272.61564660072327	fix_post	2		12	61.0	2.5	blank	1.0	290.52966809272766	0.10006141662597656
64	272.71570801734924	fix_pre	0		120	62.0	2.5	/experiments/Knapen_AOT/AOT_stimuli/rescaled_final/2082_rv.mp4	0.0	290.62972950935364	1.0085399150848389
64	272.89958691596985	pulse	0	t		62.0	2.5	/experiments/Knapen_AOT/AOT_stimuli/rescaled_final/2082_rv.mp4	0.0	290.81360840797424	
64	273.7242479324341	movie	1		279	62.0	2.5	/experiments/Knapen_AOT/AOT_stimuli/rescaled_final/2082_rv.mp4	0.0	291.6382694244385	2.4919660091400146
64	274.4988703727722	pulse	1	t		62.0	2.5	/experiments/Knapen_AOT/AOT_stimuli/rescaled_final/2082_rv.mp4	0.0	292.4128918647766	
64	276.09387850761414	pulse	1	t		62.0	2.5	/experiments/Knapen_AOT/AOT_stimuli/rescaled_final/2082_rv.mp4	0.0	294.00789999961853	
64	276.2162139415741	fix_post	2		12	62.0	2.5	/experiments/Knapen_AOT/AOT_stimuli/rescaled_final/2082_rv.mp4	0.0	294.1302354335785	0.10004305839538574
65	276.3162569999695	fix_pre	0		120	63.0	2.5	/experiments/Knapen_AOT/AOT_stimuli/rescaled_final/1321_rv.mp4	0.0	294.2302784919739	1.008474588394165
65	277.32473158836365	movie	1		260	63.0	2.5	/experiments/Knapen_AOT/AOT_stimuli/rescaled_final/1321_rv.mp4	0.0	295.23875308036804	2.4920287132263184
65	277.69961953163147	pulse	1	t		63.0	2.5	/experiments/Knapen_AOT/AOT_stimuli/rescaled_final/1321_rv.mp4	0.0	295.61364102363586	
65	279.3005061149597	pulse	1	t		63.0	2.5	/experiments/Knapen_AOT/AOT_stimuli/rescaled_final/1321_rv.mp4	0.0	297.2145276069641	
65	279.81676030158997	fix_post	2		12	63.0	2.5	/experiments/Knapen_AOT/AOT_stimuli/rescaled_final/1321_rv.mp4	0.0	297.73078179359436	0.1000211238861084
66	279.9167814254761	fix_pre	0		119	64.0	2.5	/experiments/Knapen_AOT/AOT_stimuli/rescaled_final/0587_rv.mp4	0.0	297.83080291748047	1.000138759613037
66	280.90045952796936	pulse	0	t		64.0	2.5	/experiments/Knapen_AOT/AOT_stimuli/rescaled_final/0587_rv.mp4	0.0	298.81448101997375	
66	280.9169201850891	movie	1		265	64.0	2.5	/experiments/Knapen_AOT/AOT_stimuli/rescaled_final/0587_rv.mp4	0.0	298.8309416770935	2.5003762245178223
66	282.49922943115234	pulse	1	t		64.0	2.5	/experiments/Knapen_AOT/AOT_stimuli/rescaled_final/0587_rv.mp4	0.0	300.41325092315674	
66	283.41729640960693	fix_post	2		12	64.0	2.5	/experiments/Knapen_AOT/AOT_stimuli/rescaled_final/0587_rv.mp4	0.0	301.3313179016113	0.10000276565551758
67	283.51729917526245	fix_pre	0		120	65.0	2.5	/experiments/Knapen_AOT/AOT_stimuli/rescaled_final/1944_fw.mp4	0.0	301.43132066726685	1.0085675716400146
67	284.1011452674866	pulse	0	t		65.0	2.5	/experiments/Knapen_AOT/AOT_stimuli/rescaled_final/1944_fw.mp4	0.0	302.01516675949097	
67	284.52586674690247	movie	1		273	65.0	2.5	/experiments/Knapen_AOT/AOT_stimuli/rescaled_final/1944_fw.mp4	0.0	302.43988823890686	2.4919941425323486
67	285.69981241226196	pulse	1	t		65.0	2.5	/experiments/Knapen_AOT/AOT_stimuli/rescaled_final/1944_fw.mp4	0.0	303.61383390426636	
67	287.0178608894348	fix_post	2		12	65.0	2.5	/experiments/Knapen_AOT/AOT_stimuli/rescaled_final/1944_fw.mp4	0.0	304.9318823814392	0.10002994537353516
68	287.11789083480835	fix_pre	0		120	66.0	2.5	/experiments/Knapen_AOT/AOT_stimuli/rescaled_final/0764_rv.mp4	0.0	305.03191232681274	1.008450984954834
68	287.29332661628723	pulse	0	t		66.0	2.5	/experiments/Knapen_AOT/AOT_stimuli/rescaled_final/0764_rv.mp4	0.0	305.2073481082916	
68	288.1263418197632	movie	1		278	66.0	2.5	/experiments/Knapen_AOT/AOT_stimuli/rescaled_final/0764_rv.mp4	0.0	306.0403633117676	2.4920337200164795
68	288.89341402053833	pulse	1	t		66.0	2.5	/experiments/Knapen_AOT/AOT_stimuli/rescaled_final/0764_rv.mp4	0.0	306.8074355125427	
68	290.49360060691833	pulse	1	t		66.0	2.5	/experiments/Knapen_AOT/AOT_stimuli/rescaled_final/0764_rv.mp4	0.0	308.40762209892273	
68	290.61837553977966	fix_post	2		12	66.0	2.5	/experiments/Knapen_AOT/AOT_stimuli/rescaled_final/0764_rv.mp4	0.0	308.53239703178406	0.10004234313964844
69	290.7184178829193	fix_pre	0		120	67.0	2.5	/experiments/Knapen_AOT/AOT_stimuli/rescaled_final/0214_fw.mp4	0.0	308.6324393749237	1.0084733963012695
69	291.7268912792206	movie	1		259	67.0	2.5	/experiments/Knapen_AOT/AOT_stimuli/rescaled_final/0214_fw.mp4	0.0	309.640912771225	2.4920523166656494
69	292.0927212238312	pulse	1	t		67.0	2.5	/experiments/Knapen_AOT/AOT_stimuli/rescaled_final/0214_fw.mp4	0.0	310.00674271583557	
69	293.6922924518585	pulse	1	t		67.0	2.5	/experiments/Knapen_AOT/AOT_stimuli/rescaled_final/0214_fw.mp4	0.0	311.6063139438629	
69	294.21894359588623	fix_post	2		12	67.0	2.5	/experiments/Knapen_AOT/AOT_stimuli/rescaled_final/0214_fw.mp4	0.0	312.1329650878906	0.09999561309814453
70	294.3189392089844	fix_pre	0		118	68.0	2.5	/experiments/Knapen_AOT/AOT_stimuli/rescaled_final/1130_rv.mp4	0.0	312.23296070098877	1.0001907348632812
70	295.2943229675293	pulse	0	t		68.0	2.5	/experiments/Knapen_AOT/AOT_stimuli/rescaled_final/1130_rv.mp4	0.0	313.2083444595337	
70	295.31912994384766	movie	1		277	68.0	2.5	/experiments/Knapen_AOT/AOT_stimuli/rescaled_final/1130_rv.mp4	0.0	313.23315143585205	2.4920053482055664
70	296.8930597305298	pulse	1	t		68.0	2.5	/experiments/Knapen_AOT/AOT_stimuli/rescaled_final/1130_rv.mp4	0.0	314.8070812225342	
70	297.8111352920532	fix_post	2		12	68.0	2.5	/experiments/Knapen_AOT/AOT_stimuli/rescaled_final/1130_rv.mp4	0.0	315.7251567840576	0.10007786750793457
71	297.91121315956116	fix_pre	0		120	69.0	2.5	blank	1.0	315.82523465156555	1.0000669956207275
71	298.4948606491089	pulse	0	t		69.0	2.5	blank	1.0	316.4088821411133	
71	298.9112801551819	movie	1		300	69.0	2.5	blank	1.0	316.8253016471863	2.500370740890503
71	300.0950229167938	pulse	1	t		69.0	2.5	blank	1.0	318.0090444087982	
71	301.4116508960724	fix_post	2		12	69.0	2.5	blank	1.0	319.3256723880768	0.10008525848388672
72	301.5117361545563	fix_pre	0		119	70.0	2.5	/experiments/Knapen_AOT/AOT_stimuli/rescaled_final/1587_rv.mp4	0.0	319.42575764656067	1.0084547996520996
72	301.6952311992645	pulse	0	t		70.0	2.5	/experiments/Knapen_AOT/AOT_stimuli/rescaled_final/1587_rv.mp4	0.0	319.6092526912689	
72	302.5201909542084	movie	1		289	70.0	2.5	/experiments/Knapen_AOT/AOT_stimuli/rescaled_final/1587_rv.mp4	0.0	320.43421244621277	2.492039442062378
72	303.29319286346436	pulse	1	t		70.0	2.5	/experiments/Knapen_AOT/AOT_stimuli/rescaled_final/1587_rv.mp4	0.0	321.20721435546875	
72	304.8941259384155	pulse	1	t		70.0	2.5	/experiments/Knapen_AOT/AOT_stimuli/rescaled_final/1587_rv.mp4	0.0	322.8081474304199	
72	305.01223039627075	fix_post	2		12	70.0	2.5	/experiments/Knapen_AOT/AOT_stimuli/rescaled_final/1587_rv.mp4	0.0	322.92625188827515	0.10008883476257324
73	305.1123192310333	fix_pre	0		120	71.0	2.5	/experiments/Knapen_AOT/AOT_stimuli/rescaled_final/1483_fw.mp4	0.0	323.0263407230377	1.008392572402954
73	306.1207118034363	movie	1		283	71.0	2.5	/experiments/Knapen_AOT/AOT_stimuli/rescaled_final/1483_fw.mp4	0.0	324.0347332954407	2.492077350616455
73	306.49452686309814	pulse	1	t		71.0	2.5	/experiments/Knapen_AOT/AOT_stimuli/rescaled_final/1483_fw.mp4	0.0	324.40854835510254	
73	308.09452199935913	pulse	1	t		71.0	2.5	/experiments/Knapen_AOT/AOT_stimuli/rescaled_final/1483_fw.mp4	0.0	326.0085434913635	
73	308.61278915405273	fix_post	2		12	71.0	2.5	/experiments/Knapen_AOT/AOT_stimuli/rescaled_final/1483_fw.mp4	0.0	326.52681064605713	0.10001087188720703
74	308.71280002593994	fix_pre	0		119	72.0	2.5	/experiments/Knapen_AOT/AOT_stimuli/rescaled_final/0376_rv.mp4	0.0	326.62682151794434	1.000119924545288
74	309.6965057849884	pulse	0	t		72.0	2.5	/experiments/Knapen_AOT/AOT_stimuli/rescaled_final/0376_rv.mp4	0.0	327.6105272769928	
74	309.71291995048523	movie	1		274	72.0	2.5	/experiments/Knapen_AOT/AOT_stimuli/rescaled_final/0376_rv.mp4	0.0	327.6269414424896	2.5004053115844727
74	311.29641556739807	pulse	1	t		72.0	2.5	/experiments/Knapen_AOT/AOT_stimuli/rescaled_final/0376_rv.mp4	0.0	329.21043705940247	
74	312.2133252620697	fix_post	2		12	72.0	2.5	/experiments/Knapen_AOT/AOT_stimuli/rescaled_final/0376_rv.mp4	0.0	330.1273467540741	0.09996438026428223
75	312.313289642334	fix_pre	0		120	73.0	2.5	/experiments/Knapen_AOT/AOT_stimuli/rescaled_final/1935_rv.mp4	0.0	330.2273111343384	1.0084850788116455
75	312.8969159126282	pulse	0	t		73.0	2.5	/experiments/Knapen_AOT/AOT_stimuli/rescaled_final/1935_rv.mp4	0.0	330.81093740463257	
75	313.32177472114563	movie	1		282	73.0	2.5	/experiments/Knapen_AOT/AOT_stimuli/rescaled_final/1935_rv.mp4	0.0	331.23579621315	2.4920437335968018
75	314.4955143928528	pulse	1	t		73.0	2.5	/experiments/Knapen_AOT/AOT_stimuli/rescaled_final/1935_rv.mp4	0.0	332.4095358848572	
75	315.81381845474243	fix_post	2		12	73.0	2.5	/experiments/Knapen_AOT/AOT_stimuli/rescaled_final/1935_rv.mp4	0.0	333.7278399467468	0.10001897811889648
76	315.9138374328613	fix_pre	0		120	74.0	2.5	/experiments/Knapen_AOT/AOT_stimuli/rescaled_final/1768_rv.mp4	0.0	333.8278589248657	1.0085129737854004
76	316.09738779067993	pulse	0	t		74.0	2.5	/experiments/Knapen_AOT/AOT_stimuli/rescaled_final/1768_rv.mp4	0.0	334.0114092826843	
76	316.92235040664673	movie	1		280	74.0	2.5	/experiments/Knapen_AOT/AOT_stimuli/rescaled_final/1768_rv.mp4	0.0	334.8363718986511	2.4920575618743896
76	317.6956076622009	pulse	1	t		74.0	2.5	/experiments/Knapen_AOT/AOT_stimuli/rescaled_final/1768_rv.mp4	0.0	335.6096291542053	
76	319.2959463596344	pulse	1	t		74.0	2.5	/experiments/Knapen_AOT/AOT_stimuli/rescaled_final/1768_rv.mp4	0.0	337.2099678516388	
76	319.4144079685211	fix_post	2		12	74.0	2.5	/experiments/Knapen_AOT/AOT_stimuli/rescaled_final/1768_rv.mp4	0.0	337.3284294605255	0.10002851486206055
77	319.5144364833832	fix_pre	0		120	75.0	2.5	/experiments/Knapen_AOT/AOT_stimuli/rescaled_final/0942_fw.mp4	0.0	337.4284579753876	1.0084328651428223
77	320.522869348526	movie	1		255	75.0	2.5	/experiments/Knapen_AOT/AOT_stimuli/rescaled_final/0942_fw.mp4	0.0	338.4368908405304	2.492047071456909
77	320.8988547325134	pulse	1	t		75.0	2.5	/experiments/Knapen_AOT/AOT_stimuli/rescaled_final/0942_fw.mp4	0.0	338.8128762245178	
77	322.4976007938385	pulse	1	t		75.0	2.5	/experiments/Knapen_AOT/AOT_stimuli/rescaled_final/0942_fw.mp4	0.0	340.4116222858429	
77	323.0149164199829	fix_post	2		12	75.0	2.5	/experiments/Knapen_AOT/AOT_stimuli/rescaled_final/0942_fw.mp4	0.0	340.9289379119873	0.10000967979431152
78	323.1149260997772	fix_pre	0		119	76.0	2.5	/experiments/Knapen_AOT/AOT_stimuli/rescaled_final/1143_fw.mp4	0.0	341.0289475917816	1.0084912776947021
78	324.0987467765808	pulse	0	t		76.0	2.5	/experiments/Knapen_AOT/AOT_stimuli/rescaled_final/1143_fw.mp4	0.0	342.0127682685852	
78	324.1234173774719	movie	1		279	76.0	2.5	/experiments/Knapen_AOT/AOT_stimuli/rescaled_final/1143_fw.mp4	0.0	342.0374388694763	2.4920718669891357
78	325.6972165107727	pulse	1	t		76.0	2.5	/experiments/Knapen_AOT/AOT_stimuli/rescaled_final/1143_fw.mp4	0.0	343.6112380027771	
78	326.61548924446106	fix_post	2		12	76.0	2.5	/experiments/Knapen_AOT/AOT_stimuli/rescaled_final/1143_fw.mp4	0.0	344.52951073646545	0.10004925727844238
79	326.7155385017395	fix_pre	0		120	77.0	2.5	blank	1.0	344.6295599937439	1.000070571899414
79	327.29923486709595	pulse	0	t		77.0	2.5	blank	1.0	345.21325635910034	
79	327.7156090736389	movie	1		300	77.0	2.5	blank	1.0	345.6296305656433	2.5003695487976074
79	328.8995158672333	pulse	1	t		77.0	2.5	blank	1.0	346.81353735923767	
79	330.2159786224365	fix_post	2		12	77.0	2.5	blank	1.0	348.1300001144409	0.10003161430358887
80	330.3160102367401	fix_pre	0		120	78.0	2.5	/experiments/Knapen_AOT/AOT_stimuli/rescaled_final/1594_fw.mp4	0.0	348.2300317287445	1.0084974765777588
80	330.49955224990845	pulse	0	t		78.0	2.5	/experiments/Knapen_AOT/AOT_stimuli/rescaled_final/1594_fw.mp4	0.0	348.41357374191284	
80	331.32450771331787	movie	1		282	78.0	2.5	/experiments/Knapen_AOT/AOT_stimuli/rescaled_final/1594_fw.mp4	0.0	349.23852920532227	2.4921014308929443
80	332.0982460975647	pulse	1	t		78.0	2.5	/experiments/Knapen_AOT/AOT_stimuli/rescaled_final/1594_fw.mp4	0.0	350.0122675895691	
80	333.69820165634155	pulse	1	t		78.0	2.5	/experiments/Knapen_AOT/AOT_stimuli/rescaled_final/1594_fw.mp4	0.0	351.61222314834595	
80	333.8166091442108	fix_post	2		12	78.0	2.5	/experiments/Knapen_AOT/AOT_stimuli/rescaled_final/1594_fw.mp4	0.0	351.7306306362152	0.0999300479888916
81	333.9165391921997	fix_pre	0		120	79.0	2.5	/experiments/Knapen_AOT/AOT_stimuli/rescaled_final/1760_rv.mp4	0.0	351.8305606842041	1.0085349082946777
81	334.9250741004944	movie	1		261	79.0	2.5	/experiments/Knapen_AOT/AOT_stimuli/rescaled_final/1760_rv.mp4	0.0	352.8390955924988	2.492011547088623
81	335.3014967441559	pulse	1	t		79.0	2.5	/experiments/Knapen_AOT/AOT_stimuli/rescaled_final/1760_rv.mp4	0.0	353.2155182361603	
81	336.90072417259216	pulse	1	t		79.0	2.5	/experiments/Knapen_AOT/AOT_stimuli/rescaled_final/1760_rv.mp4	0.0	354.81474566459656	
81	337.417085647583	fix_post	2		12	79.0	2.5	/experiments/Knapen_AOT/AOT_stimuli/rescaled_final/1760_rv.mp4	0.0	355.3311071395874	0.10001897811889648
82	337.5171046257019	fix_pre	0		118	80.0	2.5	/experiments/Knapen_AOT/AOT_stimuli/rescaled_final/0047_rv.mp4	0.0	355.4311261177063	0.9918079376220703
82	338.4926338195801	pulse	0	t		80.0	2.5	/experiments/Knapen_AOT/AOT_stimuli/rescaled_final/0047_rv.mp4	0.0	356.4066553115845	
82	338.508912563324	movie	1		276	80.0	2.5	/experiments/Knapen_AOT/AOT_stimuli/rescaled_final/0047_rv.mp4	0.0	356.42293405532837	2.50036883354187
82	340.0948293209076	pulse	1	t		80.0	2.5	/experiments/Knapen_AOT/AOT_stimuli/rescaled_final/0047_rv.mp4	0.0	358.008850812912	
82	341.00928139686584	fix_post	2		12	80.0	2.5	/experiments/Knapen_AOT/AOT_stimuli/rescaled_final/0047_rv.mp4	0.0	358.92330288887024	0.10002923011779785
83	341.10931062698364	fix_pre	0		120	81.0	2.5	/experiments/Knapen_AOT/AOT_stimuli/rescaled_final/2046_fw.mp4	0.0	359.02333211898804	1.0084450244903564
83	341.69289898872375	pulse	0	t		81.0	2.5	/experiments/Knapen_AOT/AOT_stimuli/rescaled_final/2046_fw.mp4	0.0	359.60692048072815	
83	342.117755651474	movie	1		287	81.0	2.5	/experiments/Knapen_AOT/AOT_stimuli/rescaled_final/2046_fw.mp4	0.0	360.0317771434784	2.4920578002929688
83	343.29310870170593	pulse	1	t		81.0	2.5	/experiments/Knapen_AOT/AOT_stimuli/rescaled_final/2046_fw.mp4	0.0	361.2071301937103	
83	344.60981345176697	fix_post	2		12	81.0	2.5	/experiments/Knapen_AOT/AOT_stimuli/rescaled_final/2046_fw.mp4	0.0	362.52383494377136	0.10002279281616211
84	344.70983624458313	fix_pre	0		120	82.0	2.5	/experiments/Knapen_AOT/AOT_stimuli/rescaled_final/1449_rv.mp4	0.0	362.6238577365875	1.0085070133209229
84	344.8933572769165	pulse	0	t		82.0	2.5	/experiments/Knapen_AOT/AOT_stimuli/rescaled_final/1449_rv.mp4	0.0	362.8073787689209	
84	345.71834325790405	movie	1		277	82.0	2.5	/experiments/Knapen_AOT/AOT_stimuli/rescaled_final/1449_rv.mp4	0.0	363.63236474990845	2.492114782333374
84	346.4938440322876	pulse	1	t		82.0	2.5	/experiments/Knapen_AOT/AOT_stimuli/rescaled_final/1449_rv.mp4	0.0	364.407865524292	
84	348.0937988758087	pulse	1	t		82.0	2.5	/experiments/Knapen_AOT/AOT_stimuli/rescaled_final/1449_rv.mp4	0.0	366.0078203678131	
84	348.2104580402374	fix_post	2		12	82.0	2.5	/experiments/Knapen_AOT/AOT_stimuli/rescaled_final/1449_rv.mp4	0.0	366.1244795322418	0.09992575645446777
85	348.3103837966919	fix_pre	0		120	83.0	2.5	blank	1.0	366.2244052886963	1.0001609325408936
85	349.3105447292328	movie	1		300	83.0	2.5	blank	1.0	367.2245662212372	2.5003960132598877
85	349.6943311691284	pulse	1	t		83.0	2.5	blank	1.0	367.6083526611328	
85	351.2943639755249	pulse	1	t		83.0	2.5	blank	1.0	369.2083854675293	
85	351.8109407424927	fix_post	2		12	83.0	2.5	blank	1.0	369.72496223449707	0.10001134872436523
87	351.91095209121704	stim	0		1715					369.82497358322144	14.293778896331787
87	352.894629240036	pulse	0	t						370.8086507320404	
87	354.49481415748596	pulse	0	t						372.40883564949036	
87	356.09514904022217	pulse	0	t						374.00917053222656	
87	357.69529962539673	pulse	0	t						375.6093211174011	
87	359.2954914569855	pulse	0	t						377.20951294898987	
87	360.89580965042114	pulse	0	t						378.80983114242554	
87	362.4960277080536	pulse	0	t						380.410049200058	
87	364.0963935852051	pulse	0	t						382.0104150772095	
87	365.6965754032135	pulse	0	t						383.6105968952179	
