trial_nr	onset	event_type	phase	response	nr_frames	movie_index	movie_duration	movie_file	blank	onset_abs	duration
0	0.1999208927154541	stim	0		35					19.236478090286255	0.2917790412902832
0	0.48366594314575195	response	0	space						19.520223140716553	
1	0.4916999340057373	stim	0		4282					19.528257131576538	35.69842791557312
1	36.180436849594116	pulse	0	t						55.21699404716492	
1	36.19012784957886	stim	1		1716					55.22668504714966	14.300644159317017
1	37.77237796783447	pulse	1	t						56.80893516540527	
1	39.37273097038269	pulse	1	t						58.40928816795349	
1	40.97296500205994	pulse	1	t						60.00952219963074	
1	42.57308888435364	pulse	1	t						61.60964608192444	
1	44.17336082458496	pulse	1	t						63.20991802215576	
1	45.77363681793213	pulse	1	t						64.81019401550293	
1	47.373913049697876	pulse	1	t						66.41047024726868	
1	48.974074840545654	pulse	1	t						68.01063203811646	
2	50.490772008895874	fix_pre	0		11	0.0	2.5	/experiments/knapen_AOT/AOT_stimuli/rescaled_final/0534_rv.mp4	0.0	69.52732920646667	0.09172296524047852
2	50.57432198524475	pulse	0	t		0.0	2.5	/experiments/knapen_AOT/AOT_stimuli/rescaled_final/0534_rv.mp4	0.0	69.61087918281555	
2	50.58249497413635	movie	1		244	0.0	2.5	/experiments/knapen_AOT/AOT_stimuli/rescaled_final/0534_rv.mp4	0.0	69.61905217170715	2.508692979812622
2	52.174922943115234	pulse	1	t		0.0	2.5	/experiments/knapen_AOT/AOT_stimuli/rescaled_final/0534_rv.mp4	0.0	71.21148014068604	
2	53.091187953948975	fix_post	2		12	0.0	2.5	/experiments/knapen_AOT/AOT_stimuli/rescaled_final/0534_rv.mp4	0.0	72.12774515151978	0.10002303123474121
3	53.191210985183716	fix_pre	0		120	1.0	2.5	/experiments/knapen_AOT/AOT_stimuli/rescaled_final/2133_fw.mp4	0.0	72.22776818275452	1.0001800060272217
3	53.774961948394775	pulse	0	t		1.0	2.5	/experiments/knapen_AOT/AOT_stimuli/rescaled_final/2133_fw.mp4	0.0	72.81151914596558	
3	54.19139099121094	movie	1		242	1.0	2.5	/experiments/knapen_AOT/AOT_stimuli/rescaled_final/2133_fw.mp4	0.0	73.22794818878174	2.5005109310150146
3	55.375162839889526	pulse	1	t		1.0	2.5	/experiments/knapen_AOT/AOT_stimuli/rescaled_final/2133_fw.mp4	0.0	74.41172003746033	
3	56.69190192222595	fix_post	2		12	1.0	2.5	/experiments/knapen_AOT/AOT_stimuli/rescaled_final/2133_fw.mp4	0.0	75.72845911979675	0.09989309310913086
4	56.79179501533508	fix_pre	0		120	2.0	2.5	/experiments/knapen_AOT/AOT_stimuli/rescaled_final/0662_fw.mp4	0.0	75.82835221290588	1.000105857849121
4	56.97533702850342	pulse	0	t		2.0	2.5	/experiments/knapen_AOT/AOT_stimuli/rescaled_final/0662_fw.mp4	0.0	76.01189422607422	
4	57.791900873184204	movie	1		242	2.0	2.5	/experiments/knapen_AOT/AOT_stimuli/rescaled_final/0662_fw.mp4	0.0	76.828458070755	2.500437021255493
4	58.5755410194397	pulse	1	t		2.0	2.5	/experiments/knapen_AOT/AOT_stimuli/rescaled_final/0662_fw.mp4	0.0	77.6120982170105	
4	60.175662994384766	pulse	1	t		2.0	2.5	/experiments/knapen_AOT/AOT_stimuli/rescaled_final/0662_fw.mp4	0.0	79.21222019195557	
4	60.2923378944397	fix_post	2		12	2.0	2.5	/experiments/knapen_AOT/AOT_stimuli/rescaled_final/0662_fw.mp4	0.0	79.3288950920105	0.09992504119873047
5	60.39226293563843	fix_pre	0		120	3.0	2.5	/experiments/knapen_AOT/AOT_stimuli/rescaled_final/0833_rv.mp4	0.0	79.42882013320923	1.0001790523529053
5	61.39244198799133	movie	1		241	3.0	2.5	/experiments/knapen_AOT/AOT_stimuli/rescaled_final/0833_rv.mp4	0.0	80.42899918556213	2.492105007171631
5	61.777097940444946	pulse	1	t		3.0	2.5	/experiments/knapen_AOT/AOT_stimuli/rescaled_final/0833_rv.mp4	0.0	80.81365513801575	
5	63.376277923583984	pulse	1	t		3.0	2.5	/experiments/knapen_AOT/AOT_stimuli/rescaled_final/0833_rv.mp4	0.0	82.41283512115479	
5	63.884546995162964	fix_post	2		12	3.0	2.5	/experiments/knapen_AOT/AOT_stimuli/rescaled_final/0833_rv.mp4	0.0	82.92110419273376	0.10001587867736816
6	63.98456287384033	fix_pre	0		120	4.0	2.5	/experiments/knapen_AOT/AOT_stimuli/rescaled_final/1054_rv.mp4	0.0	83.02112007141113	1.0000591278076172
6	64.97659683227539	pulse	0	t		4.0	2.5	/experiments/knapen_AOT/AOT_stimuli/rescaled_final/1054_rv.mp4	0.0	84.01315402984619	
6	64.98462200164795	movie	1		243	4.0	2.5	/experiments/knapen_AOT/AOT_stimuli/rescaled_final/1054_rv.mp4	0.0	84.02117919921875	2.508741855621338
6	66.57779693603516	pulse	1	t		4.0	2.5	/experiments/knapen_AOT/AOT_stimuli/rescaled_final/1054_rv.mp4	0.0	85.61435413360596	
6	67.49336385726929	fix_post	2		12	4.0	2.5	/experiments/knapen_AOT/AOT_stimuli/rescaled_final/1054_rv.mp4	0.0	86.52992105484009	0.10000801086425781
7	67.59337186813354	fix_pre	0		120	5.0	2.5	/experiments/knapen_AOT/AOT_stimuli/rescaled_final/0358_rv.mp4	0.0	86.62992906570435	1.0002169609069824
7	68.17707085609436	pulse	0	t		5.0	2.5	/experiments/knapen_AOT/AOT_stimuli/rescaled_final/0358_rv.mp4	0.0	87.21362805366516	
7	68.59358882904053	movie	1		242	5.0	2.5	/experiments/knapen_AOT/AOT_stimuli/rescaled_final/0358_rv.mp4	0.0	87.63014602661133	2.5004680156707764
7	69.7773449420929	pulse	1	t		5.0	2.5	/experiments/knapen_AOT/AOT_stimuli/rescaled_final/0358_rv.mp4	0.0	88.8139021396637	
7	71.0940568447113	fix_post	2		12	5.0	2.5	/experiments/knapen_AOT/AOT_stimuli/rescaled_final/0358_rv.mp4	0.0	90.1306140422821	0.09991812705993652
8	71.19397497177124	fix_pre	0		120	6.0	2.5	/experiments/knapen_AOT/AOT_stimuli/rescaled_final/0906_rv.mp4	0.0	90.23053216934204	1.0001318454742432
8	71.37740898132324	pulse	0	t		6.0	2.5	/experiments/knapen_AOT/AOT_stimuli/rescaled_final/0906_rv.mp4	0.0	90.41396617889404	
8	72.19410681724548	movie	1		245	6.0	2.5	/experiments/knapen_AOT/AOT_stimuli/rescaled_final/0906_rv.mp4	0.0	91.23066401481628	2.500383138656616
8	72.9702308177948	pulse	1	t		6.0	2.5	/experiments/knapen_AOT/AOT_stimuli/rescaled_final/0906_rv.mp4	0.0	92.0067880153656	
8	74.57036685943604	pulse	1	t		6.0	2.5	/experiments/knapen_AOT/AOT_stimuli/rescaled_final/0906_rv.mp4	0.0	93.60692405700684	
8	74.6944899559021	fix_post	2		12	6.0	2.5	/experiments/knapen_AOT/AOT_stimuli/rescaled_final/0906_rv.mp4	0.0	93.7310471534729	0.10000205039978027
9	74.79449200630188	fix_pre	0		120	7.0	2.5	blank	1.0	93.83104920387268	1.0001099109649658
9	75.79460191726685	movie	1		299	7.0	2.5	blank	1.0	94.83115911483765	2.4920899868011475
9	76.17079901695251	pulse	1	t		7.0	2.5	blank	1.0	95.20735621452332	
9	77.77106785774231	pulse	1	t		7.0	2.5	blank	1.0	96.80762505531311	
9	78.286691904068	fix_post	2		12	7.0	2.5	blank	1.0	97.3232491016388	0.10000991821289062
10	78.38670182228088	fix_pre	0		120	8.0	2.5	/experiments/knapen_AOT/AOT_stimuli/rescaled_final/0768_fw.mp4	0.0	97.42325901985168	1.000171184539795
10	79.37112092971802	pulse	0	t		8.0	2.5	/experiments/knapen_AOT/AOT_stimuli/rescaled_final/0768_fw.mp4	0.0	98.40767812728882	
10	79.38687300682068	movie	1		244	8.0	2.5	/experiments/knapen_AOT/AOT_stimuli/rescaled_final/0768_fw.mp4	0.0	98.42343020439148	2.50874400138855
10	80.97061896324158	pulse	1	t		8.0	2.5	/experiments/knapen_AOT/AOT_stimuli/rescaled_final/0768_fw.mp4	0.0	100.00717616081238	
10	81.89561700820923	fix_post	2		12	8.0	2.5	/experiments/knapen_AOT/AOT_stimuli/rescaled_final/0768_fw.mp4	0.0	100.93217420578003	0.09991598129272461
11	81.99553298950195	fix_pre	0		120	9.0	2.5	/experiments/knapen_AOT/AOT_stimuli/rescaled_final/1036_rv.mp4	0.0	101.03209018707275	1.0001609325408936
11	82.57069301605225	pulse	0	t		9.0	2.5	/experiments/knapen_AOT/AOT_stimuli/rescaled_final/1036_rv.mp4	0.0	101.60725021362305	
11	82.99569392204285	movie	1		242	9.0	2.5	/experiments/knapen_AOT/AOT_stimuli/rescaled_final/1036_rv.mp4	0.0	102.03225111961365	2.500554084777832
11	84.17146587371826	pulse	1	t		9.0	2.5	/experiments/knapen_AOT/AOT_stimuli/rescaled_final/1036_rv.mp4	0.0	103.20802307128906	
11	85.49624800682068	fix_post	2		12	9.0	2.5	/experiments/knapen_AOT/AOT_stimuli/rescaled_final/1036_rv.mp4	0.0	104.53280520439148	0.09980583190917969
12	85.59605383872986	fix_pre	0		120	10.0	2.5	/experiments/knapen_AOT/AOT_stimuli/rescaled_final/0660_fw.mp4	0.0	104.63261103630066	1.000128984451294
12	85.7712869644165	pulse	0	t		10.0	2.5	/experiments/knapen_AOT/AOT_stimuli/rescaled_final/0660_fw.mp4	0.0	104.8078441619873	
12	86.59618282318115	movie	1		242	10.0	2.5	/experiments/knapen_AOT/AOT_stimuli/rescaled_final/0660_fw.mp4	0.0	105.63274002075195	2.5005061626434326
12	87.37144804000854	pulse	1	t		10.0	2.5	/experiments/knapen_AOT/AOT_stimuli/rescaled_final/0660_fw.mp4	0.0	106.40800523757935	
12	88.97178483009338	pulse	1	t		10.0	2.5	/experiments/knapen_AOT/AOT_stimuli/rescaled_final/0660_fw.mp4	0.0	108.00834202766418	
12	89.09668898582458	fix_post	2		12	10.0	2.5	/experiments/knapen_AOT/AOT_stimuli/rescaled_final/0660_fw.mp4	0.0	108.13324618339539	0.1000058650970459
13	89.19669485092163	fix_pre	0		119	11.0	2.5	/experiments/knapen_AOT/AOT_stimuli/rescaled_final/0329_fw.mp4	0.0	108.23325204849243	0.99173903465271
13	90.18843388557434	movie	1		242	11.0	2.5	/experiments/knapen_AOT/AOT_stimuli/rescaled_final/0329_fw.mp4	0.0	109.22499108314514	2.5004830360412598
13	90.57319402694702	pulse	1	t		11.0	2.5	/experiments/knapen_AOT/AOT_stimuli/rescaled_final/0329_fw.mp4	0.0	109.60975122451782	
13	92.17223501205444	pulse	1	t		11.0	2.5	/experiments/knapen_AOT/AOT_stimuli/rescaled_final/0329_fw.mp4	0.0	111.20879220962524	
13	92.6889169216156	fix_post	2		12	11.0	2.5	/experiments/knapen_AOT/AOT_stimuli/rescaled_final/0329_fw.mp4	0.0	111.7254741191864	0.09994196891784668
14	92.78885889053345	fix_pre	0		119	12.0	2.5	/experiments/knapen_AOT/AOT_stimuli/rescaled_final/1733_rv.mp4	0.0	111.82541608810425	0.9917681217193604
14	93.77239990234375	pulse	0	t		12.0	2.5	/experiments/knapen_AOT/AOT_stimuli/rescaled_final/1733_rv.mp4	0.0	112.80895709991455	
14	93.78062701225281	movie	1		243	12.0	2.5	/experiments/knapen_AOT/AOT_stimuli/rescaled_final/1733_rv.mp4	0.0	112.81718420982361	2.5086870193481445
14	95.37384581565857	pulse	1	t		12.0	2.5	/experiments/knapen_AOT/AOT_stimuli/rescaled_final/1733_rv.mp4	0.0	114.41040301322937	
14	96.28931403160095	fix_post	2		12	12.0	2.5	/experiments/knapen_AOT/AOT_stimuli/rescaled_final/1733_rv.mp4	0.0	115.32587122917175	0.0999898910522461
15	96.3893039226532	fix_pre	0		120	13.0	2.5	blank	1.0	115.425861120224	1.000201940536499
15	96.97290301322937	pulse	0	t		13.0	2.5	blank	1.0	116.00946021080017	
15	97.3895058631897	movie	1		300	13.0	2.5	blank	1.0	116.4260630607605	2.500349998474121
15	98.57316589355469	pulse	1	t		13.0	2.5	blank	1.0	117.60972309112549	
15	99.88985586166382	fix_post	2		12	13.0	2.5	blank	1.0	118.92641305923462	0.10002398490905762
16	99.98987984657288	fix_pre	0		120	14.0	2.5	/experiments/knapen_AOT/AOT_stimuli/rescaled_final/1366_rv.mp4	0.0	119.02643704414368	1.0001661777496338
16	100.17343592643738	pulse	0	t		14.0	2.5	/experiments/knapen_AOT/AOT_stimuli/rescaled_final/1366_rv.mp4	0.0	119.20999312400818	
16	100.99004602432251	movie	1		244	14.0	2.5	/experiments/knapen_AOT/AOT_stimuli/rescaled_final/1366_rv.mp4	0.0	120.02660322189331	2.5003888607025146
16	101.7735960483551	pulse	1	t		14.0	2.5	/experiments/knapen_AOT/AOT_stimuli/rescaled_final/1366_rv.mp4	0.0	120.8101532459259	
16	103.37388396263123	pulse	1	t		14.0	2.5	/experiments/knapen_AOT/AOT_stimuli/rescaled_final/1366_rv.mp4	0.0	122.41044116020203	
16	103.49043488502502	fix_post	2		8	14.0	2.5	/experiments/knapen_AOT/AOT_stimuli/rescaled_final/1366_rv.mp4	0.0	122.52699208259583	0.09996914863586426
17	103.59040403366089	fix_pre	0		120	15.0	2.5	/experiments/knapen_AOT/AOT_stimuli/rescaled_final/0437_rv.mp4	0.0	122.62696123123169	1.0001399517059326
17	104.59054398536682	movie	1		241	15.0	2.5	/experiments/knapen_AOT/AOT_stimuli/rescaled_final/0437_rv.mp4	0.0	123.62710118293762	2.492137908935547
17	104.97549104690552	pulse	1	t		15.0	2.5	/experiments/knapen_AOT/AOT_stimuli/rescaled_final/0437_rv.mp4	0.0	124.01204824447632	
17	106.5742928981781	pulse	1	t		15.0	2.5	/experiments/knapen_AOT/AOT_stimuli/rescaled_final/0437_rv.mp4	0.0	125.6108500957489	
17	107.08268189430237	fix_post	2		12	15.0	2.5	/experiments/knapen_AOT/AOT_stimuli/rescaled_final/0437_rv.mp4	0.0	126.11923909187317	0.09995007514953613
18	107.1826319694519	fix_pre	0		120	16.0	2.5	/experiments/knapen_AOT/AOT_stimuli/rescaled_final/0703_fw.mp4	0.0	126.2191891670227	1.0001208782196045
18	108.17460083961487	pulse	0	t		16.0	2.5	/experiments/knapen_AOT/AOT_stimuli/rescaled_final/0703_fw.mp4	0.0	127.21115803718567	
18	108.18275284767151	movie	1		244	16.0	2.5	/experiments/knapen_AOT/AOT_stimuli/rescaled_final/0703_fw.mp4	0.0	127.21931004524231	2.5087521076202393
18	109.77544689178467	pulse	1	t		16.0	2.5	/experiments/knapen_AOT/AOT_stimuli/rescaled_final/0703_fw.mp4	0.0	128.81200408935547	
18	110.69150495529175	fix_post	2		12	16.0	2.5	/experiments/knapen_AOT/AOT_stimuli/rescaled_final/0703_fw.mp4	0.0	129.72806215286255	0.10004806518554688
19	110.7915530204773	fix_pre	0		120	17.0	2.5	/experiments/knapen_AOT/AOT_stimuli/rescaled_final/2133_fw.mp4	0.0	129.8281102180481	1.0000929832458496
19	111.3751699924469	pulse	0	t		17.0	2.5	/experiments/knapen_AOT/AOT_stimuli/rescaled_final/2133_fw.mp4	0.0	130.4117271900177	
19	111.79164600372314	movie	1		242	17.0	2.5	/experiments/knapen_AOT/AOT_stimuli/rescaled_final/2133_fw.mp4	0.0	130.82820320129395	2.5004208087921143
19	112.97543501853943	pulse	1	t		17.0	2.5	/experiments/knapen_AOT/AOT_stimuli/rescaled_final/2133_fw.mp4	0.0	132.01199221611023	
19	114.29206681251526	fix_post	2		12	17.0	2.5	/experiments/knapen_AOT/AOT_stimuli/rescaled_final/2133_fw.mp4	0.0	133.32862401008606	0.10002923011779785
20	114.39209604263306	fix_pre	0		120	18.0	2.5	/experiments/knapen_AOT/AOT_stimuli/rescaled_final/0956_rv.mp4	0.0	133.42865324020386	1.000072956085205
20	114.57553601264954	pulse	0	t		18.0	2.5	/experiments/knapen_AOT/AOT_stimuli/rescaled_final/0956_rv.mp4	0.0	133.61209321022034	
20	115.39216899871826	movie	1		242	18.0	2.5	/experiments/knapen_AOT/AOT_stimuli/rescaled_final/0956_rv.mp4	0.0	134.42872619628906	2.5005199909210205
20	116.1757960319519	pulse	1	t		18.0	2.5	/experiments/knapen_AOT/AOT_stimuli/rescaled_final/0956_rv.mp4	0.0	135.2123532295227	
20	117.77610087394714	pulse	1	t		18.0	2.5	/experiments/knapen_AOT/AOT_stimuli/rescaled_final/0956_rv.mp4	0.0	136.81265807151794	
20	117.89268898963928	fix_post	2		12	18.0	2.5	/experiments/knapen_AOT/AOT_stimuli/rescaled_final/0956_rv.mp4	0.0	136.92924618721008	0.09990692138671875
21	117.992595911026	fix_pre	0		120	19.0	2.5	/experiments/knapen_AOT/AOT_stimuli/rescaled_final/0241_rv.mp4	0.0	137.0291531085968	1.0001220703125
21	118.9927179813385	movie	1		242	19.0	2.5	/experiments/knapen_AOT/AOT_stimuli/rescaled_final/0241_rv.mp4	0.0	138.0292751789093	2.492137908935547
21	119.37691402435303	pulse	1	t		19.0	2.5	/experiments/knapen_AOT/AOT_stimuli/rescaled_final/0241_rv.mp4	0.0	138.41347122192383	
21	120.97653698921204	pulse	1	t		19.0	2.5	/experiments/knapen_AOT/AOT_stimuli/rescaled_final/0241_rv.mp4	0.0	140.01309418678284	
21	121.48485589027405	fix_post	2		12	19.0	2.5	/experiments/knapen_AOT/AOT_stimuli/rescaled_final/0241_rv.mp4	0.0	140.52141308784485	0.09990715980529785
22	121.58476305007935	fix_pre	0		120	20.0	2.5	/experiments/knapen_AOT/AOT_stimuli/rescaled_final/1003_fw.mp4	0.0	140.62132024765015	1.0001649856567383
22	122.57676887512207	pulse	0	t		20.0	2.5	/experiments/knapen_AOT/AOT_stimuli/rescaled_final/1003_fw.mp4	0.0	141.61332607269287	
22	122.58492803573608	movie	1		244	20.0	2.5	/experiments/knapen_AOT/AOT_stimuli/rescaled_final/1003_fw.mp4	0.0	141.62148523330688	2.508732795715332
22	124.17761588096619	pulse	1	t		20.0	2.5	/experiments/knapen_AOT/AOT_stimuli/rescaled_final/1003_fw.mp4	0.0	143.214173078537	
22	125.09366083145142	fix_post	2		12	20.0	2.5	/experiments/knapen_AOT/AOT_stimuli/rescaled_final/1003_fw.mp4	0.0	144.13021802902222	0.09998607635498047
23	125.1936469078064	fix_pre	0		120	21.0	2.5	blank	1.0	144.2302041053772	1.0001389980316162
23	125.77730202674866	pulse	0	t		21.0	2.5	blank	1.0	144.81385922431946	
23	126.19378590583801	movie	1		300	21.0	2.5	blank	1.0	145.2303431034088	2.5003910064697266
23	127.36998105049133	pulse	1	t		21.0	2.5	blank	1.0	146.40653824806213	
23	128.69417691230774	fix_post	2		12	21.0	2.5	blank	1.0	147.73073410987854	0.09998798370361328
24	128.79416489601135	fix_pre	0		120	22.0	2.5	/experiments/knapen_AOT/AOT_stimuli/rescaled_final/1368_fw.mp4	0.0	147.83072209358215	1.0001389980316162
24	128.97016882896423	pulse	0	t		22.0	2.5	/experiments/knapen_AOT/AOT_stimuli/rescaled_final/1368_fw.mp4	0.0	148.00672602653503	
24	129.79430389404297	movie	1		242	22.0	2.5	/experiments/knapen_AOT/AOT_stimuli/rescaled_final/1368_fw.mp4	0.0	148.83086109161377	2.500541925430298
24	130.5705749988556	pulse	1	t		22.0	2.5	/experiments/knapen_AOT/AOT_stimuli/rescaled_final/1368_fw.mp4	0.0	149.6071321964264	
24	132.1787359714508	pulse	1	t		22.0	2.5	/experiments/knapen_AOT/AOT_stimuli/rescaled_final/1368_fw.mp4	0.0	151.2152931690216	
24	132.29484581947327	fix_post	2		12	22.0	2.5	/experiments/knapen_AOT/AOT_stimuli/rescaled_final/1368_fw.mp4	0.0	151.33140301704407	0.09992718696594238
25	132.3947730064392	fix_pre	0		120	23.0	2.5	/experiments/knapen_AOT/AOT_stimuli/rescaled_final/1143_rv.mp4	0.0	151.43133020401	1.0001068115234375
25	133.39487981796265	movie	1		242	23.0	2.5	/experiments/knapen_AOT/AOT_stimuli/rescaled_final/1143_rv.mp4	0.0	152.43143701553345	2.491955041885376
25	133.770192861557	pulse	1	t		23.0	2.5	/experiments/knapen_AOT/AOT_stimuli/rescaled_final/1143_rv.mp4	0.0	152.8067500591278	
25	135.37035393714905	pulse	1	t		23.0	2.5	/experiments/knapen_AOT/AOT_stimuli/rescaled_final/1143_rv.mp4	0.0	154.40691113471985	
25	135.88683485984802	fix_post	2		12	23.0	2.5	/experiments/knapen_AOT/AOT_stimuli/rescaled_final/1143_rv.mp4	0.0	154.92339205741882	0.10010099411010742
26	135.98693585395813	fix_pre	0		119	24.0	2.5	/experiments/knapen_AOT/AOT_stimuli/rescaled_final/1627_fw.mp4	0.0	155.02349305152893	0.9918391704559326
26	136.9704999923706	pulse	0	t		24.0	2.5	/experiments/knapen_AOT/AOT_stimuli/rescaled_final/1627_fw.mp4	0.0	156.0070571899414	
26	136.97877502441406	movie	1		243	24.0	2.5	/experiments/knapen_AOT/AOT_stimuli/rescaled_final/1627_fw.mp4	0.0	156.01533222198486	2.508687973022461
26	138.5716290473938	pulse	1	t		24.0	2.5	/experiments/knapen_AOT/AOT_stimuli/rescaled_final/1627_fw.mp4	0.0	157.6081862449646	
26	139.48746299743652	fix_post	2		12	24.0	2.5	/experiments/knapen_AOT/AOT_stimuli/rescaled_final/1627_fw.mp4	0.0	158.52402019500732	0.1000528335571289
27	139.58751583099365	fix_pre	0		120	25.0	2.5	/experiments/knapen_AOT/AOT_stimuli/rescaled_final/0394_rv.mp4	0.0	158.62407302856445	1.0001440048217773
27	140.17108798027039	pulse	0	t		25.0	2.5	/experiments/knapen_AOT/AOT_stimuli/rescaled_final/0394_rv.mp4	0.0	159.2076451778412	
27	140.58765983581543	movie	1		242	25.0	2.5	/experiments/knapen_AOT/AOT_stimuli/rescaled_final/0394_rv.mp4	0.0	159.62421703338623	2.5003881454467773
27	141.77139401435852	pulse	1	t		25.0	2.5	/experiments/knapen_AOT/AOT_stimuli/rescaled_final/0394_rv.mp4	0.0	160.80795121192932	
27	143.0880479812622	fix_post	2		12	25.0	2.5	/experiments/knapen_AOT/AOT_stimuli/rescaled_final/0394_rv.mp4	0.0	162.124605178833	0.09994983673095703
28	143.18799781799316	fix_pre	0		120	26.0	2.5	blank	1.0	162.22455501556396	1.0001311302185059
28	143.37152004241943	pulse	0	t		26.0	2.5	blank	1.0	162.40807723999023	
28	144.18812894821167	movie	1		300	26.0	2.5	blank	1.0	163.22468614578247	2.5004329681396484
28	144.97174096107483	pulse	1	t		26.0	2.5	blank	1.0	164.00829815864563	
28	146.5719928741455	pulse	1	t		26.0	2.5	blank	1.0	165.6085500717163	
28	146.68856191635132	fix_post	2		12	26.0	2.5	blank	1.0	165.72511911392212	0.10000395774841309
29	146.78856587409973	fix_pre	0		120	27.0	2.5	/experiments/knapen_AOT/AOT_stimuli/rescaled_final/1402_fw.mp4	0.0	165.82512307167053	1.0001990795135498
29	147.78876495361328	movie	1		241	27.0	2.5	/experiments/knapen_AOT/AOT_stimuli/rescaled_final/1402_fw.mp4	0.0	166.82532215118408	2.4921340942382812
29	148.17291688919067	pulse	1	t		27.0	2.5	/experiments/knapen_AOT/AOT_stimuli/rescaled_final/1402_fw.mp4	0.0	167.20947408676147	
29	149.77247500419617	pulse	1	t		27.0	2.5	/experiments/knapen_AOT/AOT_stimuli/rescaled_final/1402_fw.mp4	0.0	168.80903220176697	
29	150.28089904785156	fix_post	2		12	27.0	2.5	/experiments/knapen_AOT/AOT_stimuli/rescaled_final/1402_fw.mp4	0.0	169.31745624542236	0.09982776641845703
30	150.38072681427002	fix_pre	0		120	28.0	2.5	/experiments/knapen_AOT/AOT_stimuli/rescaled_final/1948_fw.mp4	0.0	169.41728401184082	1.0001821517944336
30	151.37283492088318	pulse	0	t		28.0	2.5	/experiments/knapen_AOT/AOT_stimuli/rescaled_final/1948_fw.mp4	0.0	170.40939211845398	
30	151.38090896606445	movie	1		244	28.0	2.5	/experiments/knapen_AOT/AOT_stimuli/rescaled_final/1948_fw.mp4	0.0	170.41746616363525	2.5086729526519775
30	152.97342085838318	pulse	1	t		28.0	2.5	/experiments/knapen_AOT/AOT_stimuli/rescaled_final/1948_fw.mp4	0.0	172.00997805595398	
30	153.88958191871643	fix_post	2		12	28.0	2.5	/experiments/knapen_AOT/AOT_stimuli/rescaled_final/1948_fw.mp4	0.0	172.92613911628723	0.10005593299865723
31	153.9896378517151	fix_pre	0		120	29.0	2.5	/experiments/knapen_AOT/AOT_stimuli/rescaled_final/0199_fw.mp4	0.0	173.0261950492859	1.0001239776611328
31	154.57324385643005	pulse	0	t		29.0	2.5	/experiments/knapen_AOT/AOT_stimuli/rescaled_final/0199_fw.mp4	0.0	173.60980105400085	
31	154.98976182937622	movie	1		244	29.0	2.5	/experiments/knapen_AOT/AOT_stimuli/rescaled_final/0199_fw.mp4	0.0	174.02631902694702	2.5004141330718994
31	156.173485994339	pulse	1	t		29.0	2.5	/experiments/knapen_AOT/AOT_stimuli/rescaled_final/0199_fw.mp4	0.0	175.2100431919098	
31	157.49017596244812	fix_post	2		12	29.0	2.5	/experiments/knapen_AOT/AOT_stimuli/rescaled_final/0199_fw.mp4	0.0	176.52673316001892	0.0999910831451416
32	157.59016704559326	fix_pre	0		120	30.0	2.5	/experiments/knapen_AOT/AOT_stimuli/rescaled_final/1812_fw.mp4	0.0	176.62672424316406	1.000135898590088
32	157.77368998527527	pulse	0	t		30.0	2.5	/experiments/knapen_AOT/AOT_stimuli/rescaled_final/1812_fw.mp4	0.0	176.81024718284607	
32	158.59030294418335	movie	1		243	30.0	2.5	/experiments/knapen_AOT/AOT_stimuli/rescaled_final/1812_fw.mp4	0.0	177.62686014175415	2.5004780292510986
32	159.37403082847595	pulse	1	t		30.0	2.5	/experiments/knapen_AOT/AOT_stimuli/rescaled_final/1812_fw.mp4	0.0	178.41058802604675	
32	160.97421193122864	pulse	1	t		30.0	2.5	/experiments/knapen_AOT/AOT_stimuli/rescaled_final/1812_fw.mp4	0.0	180.01076912879944	
32	161.09078097343445	fix_post	2		12	30.0	2.5	/experiments/knapen_AOT/AOT_stimuli/rescaled_final/1812_fw.mp4	0.0	180.12733817100525	0.0999288558959961
33	161.19070982933044	fix_pre	0		120	31.0	2.5	/experiments/knapen_AOT/AOT_stimuli/rescaled_final/0800_rv.mp4	0.0	180.22726702690125	1.0001630783081055
33	162.19087290763855	movie	1		242	31.0	2.5	/experiments/knapen_AOT/AOT_stimuli/rescaled_final/0800_rv.mp4	0.0	181.22743010520935	2.4921600818634033
33	162.57510590553284	pulse	1	t		31.0	2.5	/experiments/knapen_AOT/AOT_stimuli/rescaled_final/0800_rv.mp4	0.0	181.61166310310364	
33	164.174644947052	pulse	1	t		31.0	2.5	/experiments/knapen_AOT/AOT_stimuli/rescaled_final/0800_rv.mp4	0.0	183.2112021446228	
33	164.68303298950195	fix_post	2		8	31.0	2.5	/experiments/knapen_AOT/AOT_stimuli/rescaled_final/0800_rv.mp4	0.0	183.71959018707275	0.09988784790039062
34	164.78292083740234	fix_pre	0		120	32.0	2.5	/experiments/knapen_AOT/AOT_stimuli/rescaled_final/0144_rv.mp4	0.0	183.81947803497314	1.0001270771026611
34	165.77492690086365	pulse	0	t		32.0	2.5	/experiments/knapen_AOT/AOT_stimuli/rescaled_final/0144_rv.mp4	0.0	184.81148409843445	
34	165.783047914505	movie	1		243	32.0	2.5	/experiments/knapen_AOT/AOT_stimuli/rescaled_final/0144_rv.mp4	0.0	184.8196051120758	2.5086939334869385
34	167.37581586837769	pulse	1	t		32.0	2.5	/experiments/knapen_AOT/AOT_stimuli/rescaled_final/0144_rv.mp4	0.0	186.4123730659485	
34	168.29174184799194	fix_post	2		12	32.0	2.5	/experiments/knapen_AOT/AOT_stimuli/rescaled_final/0144_rv.mp4	0.0	187.32829904556274	0.10005998611450195
35	168.39180183410645	fix_pre	0		120	33.0	2.5	/experiments/knapen_AOT/AOT_stimuli/rescaled_final/0662_rv.mp4	0.0	187.42835903167725	1.0000991821289062
35	168.9753758907318	pulse	0	t		33.0	2.5	/experiments/knapen_AOT/AOT_stimuli/rescaled_final/0662_rv.mp4	0.0	188.0119330883026	
35	169.39190101623535	movie	1		242	33.0	2.5	/experiments/knapen_AOT/AOT_stimuli/rescaled_final/0662_rv.mp4	0.0	188.42845821380615	2.5004358291625977
35	170.5718719959259	pulse	1	t		33.0	2.5	/experiments/knapen_AOT/AOT_stimuli/rescaled_final/0662_rv.mp4	0.0	189.6084291934967	
35	171.89233684539795	fix_post	2		12	33.0	2.5	/experiments/knapen_AOT/AOT_stimuli/rescaled_final/0662_rv.mp4	0.0	190.92889404296875	0.09994101524353027
36	171.99227786064148	fix_pre	0		120	34.0	2.5	/experiments/knapen_AOT/AOT_stimuli/rescaled_final/0386_rv.mp4	0.0	191.02883505821228	1.0001771450042725
36	172.17593002319336	pulse	0	t		34.0	2.5	/experiments/knapen_AOT/AOT_stimuli/rescaled_final/0386_rv.mp4	0.0	191.21248722076416	
36	172.99245500564575	movie	1		244	34.0	2.5	/experiments/knapen_AOT/AOT_stimuli/rescaled_final/0386_rv.mp4	0.0	192.02901220321655	2.5003879070281982
36	173.77618789672852	pulse	1	t		34.0	2.5	/experiments/knapen_AOT/AOT_stimuli/rescaled_final/0386_rv.mp4	0.0	192.81274509429932	
36	175.37634301185608	pulse	1	t		34.0	2.5	/experiments/knapen_AOT/AOT_stimuli/rescaled_final/0386_rv.mp4	0.0	194.41290020942688	
36	175.49284291267395	fix_post	2		12	34.0	2.5	/experiments/knapen_AOT/AOT_stimuli/rescaled_final/0386_rv.mp4	0.0	194.52940011024475	0.10000801086425781
37	175.5928509235382	fix_pre	0		120	35.0	2.5	blank	1.0	194.629408121109	1.000162124633789
37	176.593013048172	movie	1		299	35.0	2.5	blank	1.0	195.6295702457428	2.4920527935028076
37	176.97649788856506	pulse	1	t		35.0	2.5	blank	1.0	196.01305508613586	
37	178.57692790031433	pulse	1	t		35.0	2.5	blank	1.0	197.61348509788513	
37	179.0850658416748	fix_post	2		12	35.0	2.5	blank	1.0	198.1216230392456	0.09994101524353027
38	179.18500685691833	fix_pre	0		120	36.0	2.5	/experiments/knapen_AOT/AOT_stimuli/rescaled_final/0156_rv.mp4	0.0	198.22156405448914	1.0001471042633057
38	180.17716002464294	pulse	0	t		36.0	2.5	/experiments/knapen_AOT/AOT_stimuli/rescaled_final/0156_rv.mp4	0.0	199.21371722221375	
38	180.18515396118164	movie	1		244	36.0	2.5	/experiments/knapen_AOT/AOT_stimuli/rescaled_final/0156_rv.mp4	0.0	199.22171115875244	2.5087709426879883
38	181.77800989151	pulse	1	t		36.0	2.5	/experiments/knapen_AOT/AOT_stimuli/rescaled_final/0156_rv.mp4	0.0	200.8145670890808	
38	182.69392490386963	fix_post	2		12	36.0	2.5	/experiments/knapen_AOT/AOT_stimuli/rescaled_final/0156_rv.mp4	0.0	201.73048210144043	0.10000896453857422
39	182.7939338684082	fix_pre	0		120	37.0	2.5	/experiments/knapen_AOT/AOT_stimuli/rescaled_final/1457_rv.mp4	0.0	201.830491065979	1.0001020431518555
39	183.37748503684998	pulse	0	t		37.0	2.5	/experiments/knapen_AOT/AOT_stimuli/rescaled_final/1457_rv.mp4	0.0	202.41404223442078	
39	183.79403591156006	movie	1		243	37.0	2.5	/experiments/knapen_AOT/AOT_stimuli/rescaled_final/1457_rv.mp4	0.0	202.83059310913086	2.500433921813965
39	184.97790503501892	pulse	1	t		37.0	2.5	/experiments/knapen_AOT/AOT_stimuli/rescaled_final/1457_rv.mp4	0.0	204.01446223258972	
39	186.29446983337402	fix_post	2		12	37.0	2.5	/experiments/knapen_AOT/AOT_stimuli/rescaled_final/1457_rv.mp4	0.0	205.33102703094482	0.09998416900634766
40	186.39445400238037	fix_pre	0		120	38.0	2.5	/experiments/knapen_AOT/AOT_stimuli/rescaled_final/0703_rv.mp4	0.0	205.43101119995117	1.0002079010009766
40	186.57062196731567	pulse	0	t		38.0	2.5	/experiments/knapen_AOT/AOT_stimuli/rescaled_final/0703_rv.mp4	0.0	205.60717916488647	
40	187.39466190338135	movie	1		243	38.0	2.5	/experiments/knapen_AOT/AOT_stimuli/rescaled_final/0703_rv.mp4	0.0	206.43121910095215	2.5004401206970215
40	188.1708688735962	pulse	1	t		38.0	2.5	/experiments/knapen_AOT/AOT_stimuli/rescaled_final/0703_rv.mp4	0.0	207.207426071167	
40	189.77824091911316	pulse	1	t		38.0	2.5	/experiments/knapen_AOT/AOT_stimuli/rescaled_final/0703_rv.mp4	0.0	208.81479811668396	
40	189.89510202407837	fix_post	2		12	38.0	2.5	/experiments/knapen_AOT/AOT_stimuli/rescaled_final/0703_rv.mp4	0.0	208.93165922164917	0.09987998008728027
41	189.99498200416565	fix_pre	0		120	39.0	2.5	/experiments/knapen_AOT/AOT_stimuli/rescaled_final/1280_rv.mp4	0.0	209.03153920173645	1.0001819133758545
41	190.9951639175415	movie	1		242	39.0	2.5	/experiments/knapen_AOT/AOT_stimuli/rescaled_final/1280_rv.mp4	0.0	210.0317211151123	2.492039918899536
41	191.37928199768066	pulse	1	t		39.0	2.5	/experiments/knapen_AOT/AOT_stimuli/rescaled_final/1280_rv.mp4	0.0	210.41583919525146	
41	192.97156381607056	pulse	1	t		39.0	2.5	/experiments/knapen_AOT/AOT_stimuli/rescaled_final/1280_rv.mp4	0.0	212.00812101364136	
41	193.48720383644104	fix_post	2		12	39.0	2.5	/experiments/knapen_AOT/AOT_stimuli/rescaled_final/1280_rv.mp4	0.0	212.52376103401184	0.09998297691345215
42	193.5871868133545	fix_pre	0		119	40.0	2.5	blank	1.0	212.6237440109253	0.9918510913848877
42	194.57079696655273	pulse	0	t		40.0	2.5	blank	1.0	213.60735416412354	
42	194.57903790473938	movie	1		301	40.0	2.5	blank	1.0	213.61559510231018	2.5086989402770996
42	196.1710329055786	pulse	1	t		40.0	2.5	blank	1.0	215.2075901031494	
42	197.08773684501648	fix_post	2		12	40.0	2.5	blank	1.0	216.12429404258728	0.10004210472106934
43	197.18777894973755	fix_pre	0		120	41.0	2.5	/experiments/knapen_AOT/AOT_stimuli/rescaled_final/2011_fw.mp4	0.0	216.22433614730835	1.0001158714294434
43	197.7712700366974	pulse	0	t		41.0	2.5	/experiments/knapen_AOT/AOT_stimuli/rescaled_final/2011_fw.mp4	0.0	216.8078272342682	
43	198.187894821167	movie	1		242	41.0	2.5	/experiments/knapen_AOT/AOT_stimuli/rescaled_final/2011_fw.mp4	0.0	217.2244520187378	2.5004050731658936
43	199.3716230392456	pulse	1	t		41.0	2.5	/experiments/knapen_AOT/AOT_stimuli/rescaled_final/2011_fw.mp4	0.0	218.4081802368164	
43	200.68829989433289	fix_post	2		12	41.0	2.5	/experiments/knapen_AOT/AOT_stimuli/rescaled_final/2011_fw.mp4	0.0	219.7248570919037	0.09993600845336914
44	200.78823590278625	fix_pre	0		120	42.0	2.5	/experiments/knapen_AOT/AOT_stimuli/rescaled_final/0478_fw.mp4	0.0	219.82479310035706	1.00022292137146
44	200.97186493873596	pulse	0	t		42.0	2.5	/experiments/knapen_AOT/AOT_stimuli/rescaled_final/0478_fw.mp4	0.0	220.00842213630676	
44	201.78845882415771	movie	1		243	42.0	2.5	/experiments/knapen_AOT/AOT_stimuli/rescaled_final/0478_fw.mp4	0.0	220.82501602172852	2.500387191772461
44	202.57202196121216	pulse	1	t		42.0	2.5	/experiments/knapen_AOT/AOT_stimuli/rescaled_final/0478_fw.mp4	0.0	221.60857915878296	
44	204.17217087745667	pulse	1	t		42.0	2.5	/experiments/knapen_AOT/AOT_stimuli/rescaled_final/0478_fw.mp4	0.0	223.20872807502747	
44	204.28884601593018	fix_post	2		12	42.0	2.5	/experiments/knapen_AOT/AOT_stimuli/rescaled_final/0478_fw.mp4	0.0	223.32540321350098	0.09996795654296875
45	204.38881397247314	fix_pre	0		120	43.0	2.5	/experiments/knapen_AOT/AOT_stimuli/rescaled_final/0356_rv.mp4	0.0	223.42537117004395	1.0001318454742432
45	205.3889458179474	movie	1		241	43.0	2.5	/experiments/knapen_AOT/AOT_stimuli/rescaled_final/0356_rv.mp4	0.0	224.4255030155182	2.4921000003814697
45	205.77312088012695	pulse	1	t		43.0	2.5	/experiments/knapen_AOT/AOT_stimuli/rescaled_final/0356_rv.mp4	0.0	224.80967807769775	
45	207.37285685539246	pulse	1	t		43.0	2.5	/experiments/knapen_AOT/AOT_stimuli/rescaled_final/0356_rv.mp4	0.0	226.40941405296326	
45	207.88104581832886	fix_post	2		12	43.0	2.5	/experiments/knapen_AOT/AOT_stimuli/rescaled_final/0356_rv.mp4	0.0	226.91760301589966	0.10001420974731445
46	207.98106002807617	fix_pre	0		120	44.0	2.5	/experiments/knapen_AOT/AOT_stimuli/rescaled_final/0072_fw.mp4	0.0	227.01761722564697	1.0000929832458496
46	208.97301197052002	pulse	0	t		44.0	2.5	/experiments/knapen_AOT/AOT_stimuli/rescaled_final/0072_fw.mp4	0.0	228.00956916809082	
46	208.98115301132202	movie	1		244	44.0	2.5	/experiments/knapen_AOT/AOT_stimuli/rescaled_final/0072_fw.mp4	0.0	228.01771020889282	2.5088298320770264
46	210.57385301589966	pulse	1	t		44.0	2.5	/experiments/knapen_AOT/AOT_stimuli/rescaled_final/0072_fw.mp4	0.0	229.61041021347046	
46	211.48998284339905	fix_post	2		12	44.0	2.5	/experiments/knapen_AOT/AOT_stimuli/rescaled_final/0072_fw.mp4	0.0	230.52654004096985	0.09988212585449219
47	211.58986496925354	fix_pre	0		120	45.0	2.5	/experiments/knapen_AOT/AOT_stimuli/rescaled_final/1939_fw.mp4	0.0	230.62642216682434	1.0001649856567383
47	212.17343497276306	pulse	0	t		45.0	2.5	/experiments/knapen_AOT/AOT_stimuli/rescaled_final/1939_fw.mp4	0.0	231.20999217033386	
47	212.59002995491028	movie	1		243	45.0	2.5	/experiments/knapen_AOT/AOT_stimuli/rescaled_final/1939_fw.mp4	0.0	231.62658715248108	2.5004019737243652
47	213.7737898826599	pulse	1	t		45.0	2.5	/experiments/knapen_AOT/AOT_stimuli/rescaled_final/1939_fw.mp4	0.0	232.8103470802307	
47	215.09043192863464	fix_post	2		12	45.0	2.5	/experiments/knapen_AOT/AOT_stimuli/rescaled_final/1939_fw.mp4	0.0	234.12698912620544	0.10001707077026367
48	215.1904489994049	fix_pre	0		120	46.0	2.5	/experiments/knapen_AOT/AOT_stimuli/rescaled_final/1948_fw.mp4	0.0	234.2270061969757	1.0000920295715332
48	215.37396001815796	pulse	0	t		46.0	2.5	/experiments/knapen_AOT/AOT_stimuli/rescaled_final/1948_fw.mp4	0.0	234.41051721572876	
48	216.19054102897644	movie	1		243	46.0	2.5	/experiments/knapen_AOT/AOT_stimuli/rescaled_final/1948_fw.mp4	0.0	235.22709822654724	2.500523805618286
48	216.97425484657288	pulse	1	t		46.0	2.5	/experiments/knapen_AOT/AOT_stimuli/rescaled_final/1948_fw.mp4	0.0	236.01081204414368	
48	218.57455492019653	pulse	1	t		46.0	2.5	/experiments/knapen_AOT/AOT_stimuli/rescaled_final/1948_fw.mp4	0.0	237.61111211776733	
48	218.69106483459473	fix_post	2		12	46.0	2.5	/experiments/knapen_AOT/AOT_stimuli/rescaled_final/1948_fw.mp4	0.0	237.72762203216553	0.09987902641296387
49	218.7909438610077	fix_pre	0		120	47.0	2.5	blank	1.0	237.8275010585785	1.0001399517059326
49	219.79108381271362	movie	1		299	47.0	2.5	blank	1.0	238.82764101028442	2.4920990467071533
49	220.17469787597656	pulse	1	t		47.0	2.5	blank	1.0	239.21125507354736	
49	221.77495694160461	pulse	1	t		47.0	2.5	blank	1.0	240.81151413917542	
49	222.28318285942078	fix_post	2		12	47.0	2.5	blank	1.0	241.31974005699158	0.10003399848937988
50	222.38321685791016	fix_pre	0		120	48.0	2.5	/experiments/knapen_AOT/AOT_stimuli/rescaled_final/1922_rv.mp4	0.0	241.41977405548096	1.0000510215759277
50	223.37516403198242	pulse	0	t		48.0	2.5	/experiments/knapen_AOT/AOT_stimuli/rescaled_final/1922_rv.mp4	0.0	242.41172122955322	
50	223.38326787948608	movie	1		243	48.0	2.5	/experiments/knapen_AOT/AOT_stimuli/rescaled_final/1922_rv.mp4	0.0	242.41982507705688	2.5087759494781494
50	224.97572302818298	pulse	1	t		48.0	2.5	/experiments/knapen_AOT/AOT_stimuli/rescaled_final/1922_rv.mp4	0.0	244.01228022575378	
50	225.89204382896423	fix_post	2		12	48.0	2.5	/experiments/knapen_AOT/AOT_stimuli/rescaled_final/1922_rv.mp4	0.0	244.92860102653503	0.10007810592651367
51	225.99212193489075	fix_pre	0		120	49.0	2.5	/experiments/knapen_AOT/AOT_stimuli/rescaled_final/1280_rv.mp4	0.0	245.02867913246155	1.000087022781372
51	226.57556200027466	pulse	0	t		49.0	2.5	/experiments/knapen_AOT/AOT_stimuli/rescaled_final/1280_rv.mp4	0.0	245.61211919784546	
51	226.99220895767212	movie	1		243	49.0	2.5	/experiments/knapen_AOT/AOT_stimuli/rescaled_final/1280_rv.mp4	0.0	246.02876615524292	2.5004029273986816
51	228.17594385147095	pulse	1	t		49.0	2.5	/experiments/knapen_AOT/AOT_stimuli/rescaled_final/1280_rv.mp4	0.0	247.21250104904175	
51	229.4926118850708	fix_post	2		12	49.0	2.5	/experiments/knapen_AOT/AOT_stimuli/rescaled_final/1280_rv.mp4	0.0	248.5291690826416	0.09997200965881348
52	229.59258389472961	fix_pre	0		120	50.0	2.5	/experiments/knapen_AOT/AOT_stimuli/rescaled_final/1201_rv.mp4	0.0	248.62914109230042	1.0001630783081055
52	229.77610898017883	pulse	0	t		50.0	2.5	/experiments/knapen_AOT/AOT_stimuli/rescaled_final/1201_rv.mp4	0.0	248.81266617774963	
52	230.59274697303772	movie	1		243	50.0	2.5	/experiments/knapen_AOT/AOT_stimuli/rescaled_final/1201_rv.mp4	0.0	249.62930417060852	2.5004489421844482
52	231.3762969970703	pulse	1	t		50.0	2.5	/experiments/knapen_AOT/AOT_stimuli/rescaled_final/1201_rv.mp4	0.0	250.4128541946411	
52	232.97640800476074	pulse	1	t		50.0	2.5	/experiments/knapen_AOT/AOT_stimuli/rescaled_final/1201_rv.mp4	0.0	252.01296520233154	
52	233.09319591522217	fix_post	2		10	50.0	2.5	/experiments/knapen_AOT/AOT_stimuli/rescaled_final/1201_rv.mp4	0.0	252.12975311279297	0.09994697570800781
53	233.19314289093018	fix_pre	0		120	51.0	2.5	/experiments/knapen_AOT/AOT_stimuli/rescaled_final/0447_fw.mp4	0.0	252.22970008850098	1.0000970363616943
53	234.19323992729187	movie	1		243	51.0	2.5	/experiments/knapen_AOT/AOT_stimuli/rescaled_final/0447_fw.mp4	0.0	253.22979712486267	2.4920260906219482
53	234.57786798477173	pulse	1	t		51.0	2.5	/experiments/knapen_AOT/AOT_stimuli/rescaled_final/0447_fw.mp4	0.0	253.61442518234253	
53	236.17717289924622	pulse	1	t		51.0	2.5	/experiments/knapen_AOT/AOT_stimuli/rescaled_final/0447_fw.mp4	0.0	255.21373009681702	
53	236.68526601791382	fix_post	2		12	51.0	2.5	/experiments/knapen_AOT/AOT_stimuli/rescaled_final/0447_fw.mp4	0.0	255.72182321548462	0.1000359058380127
54	236.78530192375183	fix_pre	0		120	52.0	2.5	/experiments/knapen_AOT/AOT_stimuli/rescaled_final/1036_fw.mp4	0.0	255.82185912132263	1.0002479553222656
54	237.77731204032898	pulse	0	t		52.0	2.5	/experiments/knapen_AOT/AOT_stimuli/rescaled_final/1036_fw.mp4	0.0	256.8138692378998	
54	237.7855498790741	movie	1		243	52.0	2.5	/experiments/knapen_AOT/AOT_stimuli/rescaled_final/1036_fw.mp4	0.0	256.8221070766449	2.508636951446533
54	239.37806701660156	pulse	1	t		52.0	2.5	/experiments/knapen_AOT/AOT_stimuli/rescaled_final/1036_fw.mp4	0.0	258.41462421417236	
54	240.29418683052063	fix_post	2		12	52.0	2.5	/experiments/knapen_AOT/AOT_stimuli/rescaled_final/1036_fw.mp4	0.0	259.33074402809143	0.10001921653747559
55	240.3942060470581	fix_pre	0		120	53.0	2.5	/experiments/knapen_AOT/AOT_stimuli/rescaled_final/0447_fw.mp4	0.0	259.4307632446289	1.0000967979431152
55	240.97792601585388	pulse	0	t		53.0	2.5	/experiments/knapen_AOT/AOT_stimuli/rescaled_final/0447_fw.mp4	0.0	260.0144832134247	
55	241.39430284500122	movie	1		243	53.0	2.5	/experiments/knapen_AOT/AOT_stimuli/rescaled_final/0447_fw.mp4	0.0	260.430860042572	2.5004360675811768
55	242.57094502449036	pulse	1	t		53.0	2.5	/experiments/knapen_AOT/AOT_stimuli/rescaled_final/0447_fw.mp4	0.0	261.60750222206116	
55	243.8947389125824	fix_post	2		12	53.0	2.5	/experiments/knapen_AOT/AOT_stimuli/rescaled_final/0447_fw.mp4	0.0	262.9312961101532	0.1000070571899414
56	243.99474596977234	fix_pre	0		120	54.0	2.5	/experiments/knapen_AOT/AOT_stimuli/rescaled_final/2093_fw.mp4	0.0	263.03130316734314	1.0001020431518555
56	244.1708118915558	pulse	0	t		54.0	2.5	/experiments/knapen_AOT/AOT_stimuli/rescaled_final/2093_fw.mp4	0.0	263.2073690891266	
56	244.9948480129242	movie	1		242	54.0	2.5	/experiments/knapen_AOT/AOT_stimuli/rescaled_final/2093_fw.mp4	0.0	264.031405210495	2.500412940979004
56	245.771155834198	pulse	1	t		54.0	2.5	/experiments/knapen_AOT/AOT_stimuli/rescaled_final/2093_fw.mp4	0.0	264.8077130317688	
56	247.37060499191284	pulse	1	t		54.0	2.5	/experiments/knapen_AOT/AOT_stimuli/rescaled_final/2093_fw.mp4	0.0	266.40716218948364	
56	247.4952609539032	fix_post	2		12	54.0	2.5	/experiments/knapen_AOT/AOT_stimuli/rescaled_final/2093_fw.mp4	0.0	266.531818151474	0.1000220775604248
57	247.59528303146362	fix_pre	0		120	55.0	2.5	/experiments/knapen_AOT/AOT_stimuli/rescaled_final/0948_fw.mp4	0.0	266.6318402290344	1.0001659393310547
57	248.59544897079468	movie	1		241	55.0	2.5	/experiments/knapen_AOT/AOT_stimuli/rescaled_final/0948_fw.mp4	0.0	267.6320061683655	2.4920480251312256
57	248.97059392929077	pulse	1	t		55.0	2.5	/experiments/knapen_AOT/AOT_stimuli/rescaled_final/0948_fw.mp4	0.0	268.0071511268616	
57	250.5708930492401	pulse	1	t		55.0	2.5	/experiments/knapen_AOT/AOT_stimuli/rescaled_final/0948_fw.mp4	0.0	269.6074502468109	
57	251.0874969959259	fix_post	2		12	55.0	2.5	/experiments/knapen_AOT/AOT_stimuli/rescaled_final/0948_fw.mp4	0.0	270.1240541934967	0.10002994537353516
58	251.18752694129944	fix_pre	0		119	56.0	2.5	blank	1.0	270.22408413887024	0.9916999340057373
58	252.17123198509216	pulse	0	t		56.0	2.5	blank	1.0	271.20778918266296	
58	252.17922687530518	movie	1		301	56.0	2.5	blank	1.0	271.215784072876	2.5088040828704834
58	253.77139282226562	pulse	1	t		56.0	2.5	blank	1.0	272.8079500198364	
58	254.68803095817566	fix_post	2		12	56.0	2.5	blank	1.0	273.72458815574646	0.10000300407409668
59	254.78803396224976	fix_pre	0		120	57.0	2.5	/experiments/knapen_AOT/AOT_stimuli/rescaled_final/0762_rv.mp4	0.0	273.82459115982056	1.0001909732818604
59	255.3715419769287	pulse	0	t		57.0	2.5	/experiments/knapen_AOT/AOT_stimuli/rescaled_final/0762_rv.mp4	0.0	274.4080991744995	
59	255.78822493553162	movie	1		244	57.0	2.5	/experiments/knapen_AOT/AOT_stimuli/rescaled_final/0762_rv.mp4	0.0	274.8247821331024	2.500288963317871
59	256.97192096710205	pulse	1	t		57.0	2.5	/experiments/knapen_AOT/AOT_stimuli/rescaled_final/0762_rv.mp4	0.0	276.00847816467285	
59	258.2885138988495	fix_post	2		12	57.0	2.5	/experiments/knapen_AOT/AOT_stimuli/rescaled_final/0762_rv.mp4	0.0	277.3250710964203	0.10006594657897949
60	258.38857984542847	fix_pre	0		120	58.0	2.5	/experiments/knapen_AOT/AOT_stimuli/rescaled_final/1467_fw.mp4	0.0	277.42513704299927	1.0001029968261719
60	258.57208704948425	pulse	0	t		58.0	2.5	/experiments/knapen_AOT/AOT_stimuli/rescaled_final/1467_fw.mp4	0.0	277.60864424705505	
60	259.38868284225464	movie	1		242	58.0	2.5	/experiments/knapen_AOT/AOT_stimuli/rescaled_final/1467_fw.mp4	0.0	278.42524003982544	2.5004231929779053
60	260.1723618507385	pulse	1	t		58.0	2.5	/experiments/knapen_AOT/AOT_stimuli/rescaled_final/1467_fw.mp4	0.0	279.2089190483093	
60	261.77251291275024	pulse	1	t		58.0	2.5	/experiments/knapen_AOT/AOT_stimuli/rescaled_final/1467_fw.mp4	0.0	280.80907011032104	
60	261.88910603523254	fix_post	2		12	58.0	2.5	/experiments/knapen_AOT/AOT_stimuli/rescaled_final/1467_fw.mp4	0.0	280.92566323280334	0.10001993179321289
61	261.98912596702576	fix_pre	0		120	59.0	2.5	/experiments/knapen_AOT/AOT_stimuli/rescaled_final/2078_rv.mp4	0.0	281.02568316459656	1.000082015991211
61	262.98920798301697	movie	1		241	59.0	2.5	/experiments/knapen_AOT/AOT_stimuli/rescaled_final/2078_rv.mp4	0.0	282.02576518058777	2.492121934890747
61	263.3738729953766	pulse	1	t		59.0	2.5	/experiments/knapen_AOT/AOT_stimuli/rescaled_final/2078_rv.mp4	0.0	282.4104301929474	
61	264.97303891181946	pulse	1	t		59.0	2.5	/experiments/knapen_AOT/AOT_stimuli/rescaled_final/2078_rv.mp4	0.0	284.00959610939026	
61	265.4813299179077	fix_post	2		12	59.0	2.5	/experiments/knapen_AOT/AOT_stimuli/rescaled_final/2078_rv.mp4	0.0	284.5178871154785	0.0999460220336914
62	265.5812759399414	fix_pre	0		120	60.0	2.5	/experiments/knapen_AOT/AOT_stimuli/rescaled_final/1486_fw.mp4	0.0	284.6178331375122	1.000216007232666
62	266.57327103614807	pulse	0	t		60.0	2.5	/experiments/knapen_AOT/AOT_stimuli/rescaled_final/1486_fw.mp4	0.0	285.6098282337189	
62	266.5814919471741	movie	1		243	60.0	2.5	/experiments/knapen_AOT/AOT_stimuli/rescaled_final/1486_fw.mp4	0.0	285.6180491447449	2.5086469650268555
62	268.17403197288513	pulse	1	t		60.0	2.5	/experiments/knapen_AOT/AOT_stimuli/rescaled_final/1486_fw.mp4	0.0	287.21058917045593	
62	269.0901389122009	fix_post	2		12	60.0	2.5	/experiments/knapen_AOT/AOT_stimuli/rescaled_final/1486_fw.mp4	0.0	288.12669610977173	0.10000801086425781
63	269.1901469230652	fix_pre	0		120	61.0	2.5	/experiments/knapen_AOT/AOT_stimuli/rescaled_final/1733_fw.mp4	0.0	288.226704120636	1.000140905380249
63	269.773738861084	pulse	0	t		61.0	2.5	/experiments/knapen_AOT/AOT_stimuli/rescaled_final/1733_fw.mp4	0.0	288.8102960586548	
63	270.19028782844543	movie	1		242	61.0	2.5	/experiments/knapen_AOT/AOT_stimuli/rescaled_final/1733_fw.mp4	0.0	289.22684502601624	2.50058913230896
63	271.3742079734802	pulse	1	t		61.0	2.5	/experiments/knapen_AOT/AOT_stimuli/rescaled_final/1733_fw.mp4	0.0	290.410765171051	
63	272.6908769607544	fix_post	2		12	61.0	2.5	/experiments/knapen_AOT/AOT_stimuli/rescaled_final/1733_fw.mp4	0.0	291.7274341583252	0.09984993934631348
64	272.7907269001007	fix_pre	0		120	62.0	2.5	blank	1.0	291.8272840976715	1.00018310546875
64	272.97432804107666	pulse	0	t		62.0	2.5	blank	1.0	292.01088523864746	
64	273.79091000556946	movie	1		300	62.0	2.5	blank	1.0	292.82746720314026	2.500278949737549
64	274.5745198726654	pulse	1	t		62.0	2.5	blank	1.0	293.6110770702362	
64	276.17475605010986	pulse	1	t		62.0	2.5	blank	1.0	295.21131324768066	
64	276.291188955307	fix_post	2		12	62.0	2.5	blank	1.0	295.3277461528778	0.10001206398010254
65	276.3912010192871	fix_pre	0		120	63.0	2.5	/experiments/knapen_AOT/AOT_stimuli/rescaled_final/1292_fw.mp4	0.0	295.4277582168579	1.0001540184020996
65	277.3913550376892	movie	1		241	63.0	2.5	/experiments/knapen_AOT/AOT_stimuli/rescaled_final/1292_fw.mp4	0.0	296.42791223526	2.4920599460601807
65	277.775337934494	pulse	1	t		63.0	2.5	/experiments/knapen_AOT/AOT_stimuli/rescaled_final/1292_fw.mp4	0.0	296.8118951320648	
65	279.3752930164337	pulse	1	t		63.0	2.5	/experiments/knapen_AOT/AOT_stimuli/rescaled_final/1292_fw.mp4	0.0	298.4118502140045	
65	279.8834149837494	fix_post	2		12	63.0	2.5	/experiments/knapen_AOT/AOT_stimuli/rescaled_final/1292_fw.mp4	0.0	298.9199721813202	0.10001087188720703
66	279.9834258556366	fix_pre	0		120	64.0	2.5	/experiments/knapen_AOT/AOT_stimuli/rescaled_final/0748_rv.mp4	0.0	299.0199830532074	1.0002260208129883
66	280.9753758907318	pulse	0	t		64.0	2.5	/experiments/knapen_AOT/AOT_stimuli/rescaled_final/0748_rv.mp4	0.0	300.0119330883026	
66	280.9836518764496	movie	1		245	64.0	2.5	/experiments/knapen_AOT/AOT_stimuli/rescaled_final/0748_rv.mp4	0.0	300.0202090740204	2.508604049682617
66	282.57694482803345	pulse	1	t		64.0	2.5	/experiments/knapen_AOT/AOT_stimuli/rescaled_final/0748_rv.mp4	0.0	301.61350202560425	
66	283.4922559261322	fix_post	2		12	64.0	2.5	/experiments/knapen_AOT/AOT_stimuli/rescaled_final/0748_rv.mp4	0.0	302.528813123703	0.10001611709594727
67	283.59227204322815	fix_pre	0		120	65.0	2.5	/experiments/knapen_AOT/AOT_stimuli/rescaled_final/0507_fw.mp4	0.0	302.62882924079895	1.0002129077911377
67	284.1758978366852	pulse	0	t		65.0	2.5	/experiments/knapen_AOT/AOT_stimuli/rescaled_final/0507_fw.mp4	0.0	303.212455034256	
67	284.5924849510193	movie	1		242	65.0	2.5	/experiments/knapen_AOT/AOT_stimuli/rescaled_final/0507_fw.mp4	0.0	303.6290421485901	2.5004119873046875
67	285.7762849330902	pulse	1	t		65.0	2.5	/experiments/knapen_AOT/AOT_stimuli/rescaled_final/0507_fw.mp4	0.0	304.812842130661	
67	287.092896938324	fix_post	2		12	65.0	2.5	/experiments/knapen_AOT/AOT_stimuli/rescaled_final/0507_fw.mp4	0.0	306.1294541358948	0.10000205039978027
68	287.19289898872375	fix_pre	0		120	66.0	2.5	/experiments/knapen_AOT/AOT_stimuli/rescaled_final/1627_rv.mp4	0.0	306.22945618629456	1.000108003616333
68	287.37637090682983	pulse	0	t		66.0	2.5	/experiments/knapen_AOT/AOT_stimuli/rescaled_final/1627_rv.mp4	0.0	306.41292810440063	
68	288.1930069923401	movie	1		243	66.0	2.5	/experiments/knapen_AOT/AOT_stimuli/rescaled_final/1627_rv.mp4	0.0	307.2295641899109	2.500335931777954
68	288.9766538143158	pulse	1	t		66.0	2.5	/experiments/knapen_AOT/AOT_stimuli/rescaled_final/1627_rv.mp4	0.0	308.0132110118866	
68	290.5768418312073	pulse	1	t		66.0	2.5	/experiments/knapen_AOT/AOT_stimuli/rescaled_final/1627_rv.mp4	0.0	309.6133990287781	
68	290.69334292411804	fix_post	2		12	66.0	2.5	/experiments/knapen_AOT/AOT_stimuli/rescaled_final/1627_rv.mp4	0.0	309.72990012168884	0.10007405281066895
69	290.7934169769287	fix_pre	0		120	67.0	2.5	/experiments/knapen_AOT/AOT_stimuli/rescaled_final/0329_rv.mp4	0.0	309.8299741744995	1.0001330375671387
69	291.79355001449585	movie	1		241	67.0	2.5	/experiments/knapen_AOT/AOT_stimuli/rescaled_final/0329_rv.mp4	0.0	310.83010721206665	2.4920969009399414
69	292.1784269809723	pulse	1	t		67.0	2.5	/experiments/knapen_AOT/AOT_stimuli/rescaled_final/0329_rv.mp4	0.0	311.2149841785431	
69	293.7699568271637	pulse	1	t		67.0	2.5	/experiments/knapen_AOT/AOT_stimuli/rescaled_final/0329_rv.mp4	0.0	312.8065140247345	
69	294.2856469154358	fix_post	2		12	67.0	2.5	/experiments/knapen_AOT/AOT_stimuli/rescaled_final/0329_rv.mp4	0.0	313.3222041130066	0.09996199607849121
70	294.3856089115143	fix_pre	0		120	68.0	2.5	/experiments/knapen_AOT/AOT_stimuli/rescaled_final/1349_rv.mp4	0.0	313.4221661090851	1.0002009868621826
70	295.370090007782	pulse	0	t		68.0	2.5	/experiments/knapen_AOT/AOT_stimuli/rescaled_final/1349_rv.mp4	0.0	314.4066472053528	
70	295.38580989837646	movie	1		242	68.0	2.5	/experiments/knapen_AOT/AOT_stimuli/rescaled_final/1349_rv.mp4	0.0	314.42236709594727	2.508695125579834
70	296.97928190231323	pulse	1	t		68.0	2.5	/experiments/knapen_AOT/AOT_stimuli/rescaled_final/1349_rv.mp4	0.0	316.01583909988403	
70	297.8945050239563	fix_post	2		12	68.0	2.5	/experiments/knapen_AOT/AOT_stimuli/rescaled_final/1349_rv.mp4	0.0	316.9310622215271	0.09996986389160156
71	297.9944748878479	fix_pre	0		120	69.0	2.5	/experiments/knapen_AOT/AOT_stimuli/rescaled_final/0340_fw.mp4	0.0	317.0310320854187	1.0001029968261719
71	298.57062888145447	pulse	0	t		69.0	2.5	/experiments/knapen_AOT/AOT_stimuli/rescaled_final/0340_fw.mp4	0.0	317.60718607902527	
71	298.9945778846741	movie	1		243	69.0	2.5	/experiments/knapen_AOT/AOT_stimuli/rescaled_final/0340_fw.mp4	0.0	318.0311350822449	2.500432014465332
71	300.1712119579315	pulse	1	t		69.0	2.5	/experiments/knapen_AOT/AOT_stimuli/rescaled_final/0340_fw.mp4	0.0	319.2077691555023	
71	301.4950098991394	fix_post	2		12	69.0	2.5	/experiments/knapen_AOT/AOT_stimuli/rescaled_final/0340_fw.mp4	0.0	320.5315670967102	0.10000991821289062
72	301.5950198173523	fix_pre	0		120	70.0	2.5	blank	1.0	320.6315770149231	1.0001311302185059
72	301.7701439857483	pulse	0	t		70.0	2.5	blank	1.0	320.8067011833191	
72	302.5951509475708	movie	1		300	70.0	2.5	blank	1.0	321.6317081451416	2.500417947769165
72	303.37038493156433	pulse	1	t		70.0	2.5	blank	1.0	322.40694212913513	
72	304.9707119464874	pulse	1	t		70.0	2.5	blank	1.0	324.0072691440582	
72	305.09556889533997	fix_post	2		12	70.0	2.5	blank	1.0	324.13212609291077	0.09999608993530273
73	305.19556498527527	fix_pre	0		120	71.0	2.5	/experiments/knapen_AOT/AOT_stimuli/rescaled_final/0476_fw.mp4	0.0	324.23212218284607	1.000087022781372
73	306.19565200805664	movie	1		242	71.0	2.5	/experiments/knapen_AOT/AOT_stimuli/rescaled_final/0476_fw.mp4	0.0	325.23220920562744	2.4921720027923584
73	306.57087993621826	pulse	1	t		71.0	2.5	/experiments/knapen_AOT/AOT_stimuli/rescaled_final/0476_fw.mp4	0.0	325.60743713378906	
73	308.17120695114136	pulse	1	t		71.0	2.5	/experiments/knapen_AOT/AOT_stimuli/rescaled_final/0476_fw.mp4	0.0	327.20776414871216	
73	308.687824010849	fix_post	2		12	71.0	2.5	/experiments/knapen_AOT/AOT_stimuli/rescaled_final/0476_fw.mp4	0.0	327.7243812084198	0.09994792938232422
74	308.7877719402313	fix_pre	0		119	72.0	2.5	/experiments/knapen_AOT/AOT_stimuli/rescaled_final/0588_fw.mp4	0.0	327.8243291378021	0.9917910099029541
74	309.77137994766235	pulse	0	t		72.0	2.5	/experiments/knapen_AOT/AOT_stimuli/rescaled_final/0588_fw.mp4	0.0	328.80793714523315	
74	309.7795629501343	movie	1		243	72.0	2.5	/experiments/knapen_AOT/AOT_stimuli/rescaled_final/0588_fw.mp4	0.0	328.8161201477051	2.5086729526519775
74	311.3722598552704	pulse	1	t		72.0	2.5	/experiments/knapen_AOT/AOT_stimuli/rescaled_final/0588_fw.mp4	0.0	330.4088170528412	
74	312.28823590278625	fix_post	2		12	72.0	2.5	/experiments/knapen_AOT/AOT_stimuli/rescaled_final/0588_fw.mp4	0.0	331.32479310035706	0.10001111030578613
75	312.38824701309204	fix_pre	0		120	73.0	2.5	/experiments/knapen_AOT/AOT_stimuli/rescaled_final/0748_rv.mp4	0.0	331.42480421066284	1.0001609325408936
75	312.9719798564911	pulse	0	t		73.0	2.5	/experiments/knapen_AOT/AOT_stimuli/rescaled_final/0748_rv.mp4	0.0	332.0085370540619	
75	313.38840794563293	movie	1		244	73.0	2.5	/experiments/knapen_AOT/AOT_stimuli/rescaled_final/0748_rv.mp4	0.0	332.42496514320374	2.5004429817199707
75	314.57222604751587	pulse	1	t		73.0	2.5	/experiments/knapen_AOT/AOT_stimuli/rescaled_final/0748_rv.mp4	0.0	333.60878324508667	
75	315.8888509273529	fix_post	2		12	73.0	2.5	/experiments/knapen_AOT/AOT_stimuli/rescaled_final/0748_rv.mp4	0.0	334.9254081249237	0.09998607635498047
76	315.9888370037079	fix_pre	0		120	74.0	2.5	/experiments/knapen_AOT/AOT_stimuli/rescaled_final/0156_fw.mp4	0.0	335.0253942012787	1.0001449584960938
76	316.1723439693451	pulse	0	t		74.0	2.5	/experiments/knapen_AOT/AOT_stimuli/rescaled_final/0156_fw.mp4	0.0	335.2089011669159	
76	316.988981962204	movie	1		243	74.0	2.5	/experiments/knapen_AOT/AOT_stimuli/rescaled_final/0156_fw.mp4	0.0	336.0255391597748	2.5003209114074707
76	317.7726159095764	pulse	1	t		74.0	2.5	/experiments/knapen_AOT/AOT_stimuli/rescaled_final/0156_fw.mp4	0.0	336.8091731071472	
76	319.3725039958954	pulse	1	t		74.0	2.5	/experiments/knapen_AOT/AOT_stimuli/rescaled_final/0156_fw.mp4	0.0	338.4090611934662	
76	319.48930287361145	fix_post	2		12	74.0	2.5	/experiments/knapen_AOT/AOT_stimuli/rescaled_final/0156_fw.mp4	0.0	338.52586007118225	0.10002017021179199
77	319.58932304382324	fix_pre	0		120	75.0	2.5	/experiments/knapen_AOT/AOT_stimuli/rescaled_final/0135_rv.mp4	0.0	338.62588024139404	1.0001499652862549
77	320.5894730091095	movie	1		241	75.0	2.5	/experiments/knapen_AOT/AOT_stimuli/rescaled_final/0135_rv.mp4	0.0	339.6260302066803	2.4921200275421143
77	320.97375202178955	pulse	1	t		75.0	2.5	/experiments/knapen_AOT/AOT_stimuli/rescaled_final/0135_rv.mp4	0.0	340.01030921936035	
77	322.5732879638672	pulse	1	t		75.0	2.5	/experiments/knapen_AOT/AOT_stimuli/rescaled_final/0135_rv.mp4	0.0	341.609845161438	
77	323.0815930366516	fix_post	2		12	75.0	2.5	/experiments/knapen_AOT/AOT_stimuli/rescaled_final/0135_rv.mp4	0.0	342.1181502342224	0.10001778602600098
78	323.1816108226776	fix_pre	0		120	76.0	2.5	/experiments/knapen_AOT/AOT_stimuli/rescaled_final/0695_fw.mp4	0.0	342.2181680202484	1.0000970363616943
78	324.173465013504	pulse	0	t		76.0	2.5	/experiments/knapen_AOT/AOT_stimuli/rescaled_final/0695_fw.mp4	0.0	343.21002221107483	
78	324.1817078590393	movie	1		244	76.0	2.5	/experiments/knapen_AOT/AOT_stimuli/rescaled_final/0695_fw.mp4	0.0	343.2182650566101	2.5087599754333496
78	325.77504301071167	pulse	1	t		76.0	2.5	/experiments/knapen_AOT/AOT_stimuli/rescaled_final/0695_fw.mp4	0.0	344.81160020828247	
78	326.69046783447266	fix_post	2		12	76.0	2.5	/experiments/knapen_AOT/AOT_stimuli/rescaled_final/0695_fw.mp4	0.0	345.72702503204346	0.09995913505554199
79	326.7904269695282	fix_pre	0		120	77.0	2.5	blank	1.0	345.826984167099	1.0001749992370605
79	327.37411999702454	pulse	0	t		77.0	2.5	blank	1.0	346.41067719459534	
79	327.79060196876526	movie	1		300	77.0	2.5	blank	1.0	346.82715916633606	2.500372886657715
79	328.9742498397827	pulse	1	t		77.0	2.5	blank	1.0	348.0108070373535	
79	330.290974855423	fix_post	2		12	77.0	2.5	blank	1.0	349.3275320529938	0.1000511646270752
80	330.39102602005005	fix_pre	0		120	78.0	2.5	/experiments/knapen_AOT/AOT_stimuli/rescaled_final/1292_rv.mp4	0.0	349.42758321762085	1.000087022781372
80	330.5744528770447	pulse	0	t		78.0	2.5	/experiments/knapen_AOT/AOT_stimuli/rescaled_final/1292_rv.mp4	0.0	349.6110100746155	
80	331.3911130428314	movie	1		243	78.0	2.5	/experiments/knapen_AOT/AOT_stimuli/rescaled_final/1292_rv.mp4	0.0	350.4276702404022	2.5004727840423584
80	332.17477583885193	pulse	1	t		78.0	2.5	/experiments/knapen_AOT/AOT_stimuli/rescaled_final/1292_rv.mp4	0.0	351.21133303642273	
80	333.77489590644836	pulse	1	t		78.0	2.5	/experiments/knapen_AOT/AOT_stimuli/rescaled_final/1292_rv.mp4	0.0	352.81145310401917	
80	333.8915858268738	fix_post	2		12	78.0	2.5	/experiments/knapen_AOT/AOT_stimuli/rescaled_final/1292_rv.mp4	0.0	352.9281430244446	0.10000205039978027
81	333.99158787727356	fix_pre	0		119	79.0	2.5	/experiments/knapen_AOT/AOT_stimuli/rescaled_final/2029_rv.mp4	0.0	353.02814507484436	0.9917011260986328
81	334.9832890033722	movie	1		243	79.0	2.5	/experiments/knapen_AOT/AOT_stimuli/rescaled_final/2029_rv.mp4	0.0	354.019846200943	2.500511884689331
81	335.3706548213959	pulse	1	t		79.0	2.5	/experiments/knapen_AOT/AOT_stimuli/rescaled_final/2029_rv.mp4	0.0	354.4072120189667	
81	336.97543692588806	pulse	1	t		79.0	2.5	/experiments/knapen_AOT/AOT_stimuli/rescaled_final/2029_rv.mp4	0.0	356.01199412345886	
81	337.4838008880615	fix_post	2		12	79.0	2.5	/experiments/knapen_AOT/AOT_stimuli/rescaled_final/2029_rv.mp4	0.0	356.5203580856323	0.09993195533752441
82	337.58373284339905	fix_pre	0		120	80.0	2.5	/experiments/knapen_AOT/AOT_stimuli/rescaled_final/1065_fw.mp4	0.0	356.62029004096985	1.0001029968261719
82	338.5757839679718	pulse	0	t		80.0	2.5	/experiments/knapen_AOT/AOT_stimuli/rescaled_final/1065_fw.mp4	0.0	357.6123411655426	
82	338.5838358402252	movie	1		244	80.0	2.5	/experiments/knapen_AOT/AOT_stimuli/rescaled_final/1065_fw.mp4	0.0	357.620393037796	2.508756160736084
82	340.176393032074	pulse	1	t		80.0	2.5	/experiments/knapen_AOT/AOT_stimuli/rescaled_final/1065_fw.mp4	0.0	359.2129502296448	
82	341.0925920009613	fix_post	2		12	80.0	2.5	/experiments/knapen_AOT/AOT_stimuli/rescaled_final/1065_fw.mp4	0.0	360.1291491985321	0.10003089904785156
83	341.19262290000916	fix_pre	0		120	81.0	2.5	/experiments/knapen_AOT/AOT_stimuli/rescaled_final/1466_rv.mp4	0.0	360.22918009757996	1.0001239776611328
83	341.7762858867645	pulse	0	t		81.0	2.5	/experiments/knapen_AOT/AOT_stimuli/rescaled_final/1466_rv.mp4	0.0	360.8128430843353	
83	342.1927468776703	movie	1		242	81.0	2.5	/experiments/knapen_AOT/AOT_stimuli/rescaled_final/1466_rv.mp4	0.0	361.2293040752411	2.5004770755767822
83	343.37645196914673	pulse	1	t		81.0	2.5	/experiments/knapen_AOT/AOT_stimuli/rescaled_final/1466_rv.mp4	0.0	362.41300916671753	
83	344.69322395324707	fix_post	2		12	81.0	2.5	/experiments/knapen_AOT/AOT_stimuli/rescaled_final/1466_rv.mp4	0.0	363.72978115081787	0.09991192817687988
84	344.79313588142395	fix_pre	0		120	82.0	2.5	/experiments/knapen_AOT/AOT_stimuli/rescaled_final/2011_fw.mp4	0.0	363.82969307899475	1.0000910758972168
84	344.9766638278961	pulse	0	t		82.0	2.5	/experiments/knapen_AOT/AOT_stimuli/rescaled_final/2011_fw.mp4	0.0	364.0132210254669	
84	345.79322695732117	movie	1		243	82.0	2.5	/experiments/knapen_AOT/AOT_stimuli/rescaled_final/2011_fw.mp4	0.0	364.82978415489197	2.500433921813965
84	346.5769238471985	pulse	1	t		82.0	2.5	/experiments/knapen_AOT/AOT_stimuli/rescaled_final/2011_fw.mp4	0.0	365.6134810447693	
84	348.17704582214355	pulse	1	t		82.0	2.5	/experiments/knapen_AOT/AOT_stimuli/rescaled_final/2011_fw.mp4	0.0	367.21360301971436	
84	348.29366087913513	fix_post	2		12	82.0	2.5	/experiments/knapen_AOT/AOT_stimuli/rescaled_final/2011_fw.mp4	0.0	367.33021807670593	0.10003304481506348
85	348.3936939239502	fix_pre	0		120	83.0	2.5	blank	1.0	367.430251121521	1.0000789165496826
85	349.3937728404999	movie	1		299	83.0	2.5	blank	1.0	368.4303300380707	2.492082118988037
85	349.77737498283386	pulse	1	t		83.0	2.5	blank	1.0	368.81393218040466	
85	351.3775420188904	pulse	1	t		83.0	2.5	blank	1.0	370.4140992164612	
85	351.8858549594879	fix_post	2		12	83.0	2.5	blank	1.0	370.9224121570587	0.10002303123474121
87	351.98587799072266	stim	0		1716					371.02243518829346	14.30220890045166
87	352.97797203063965	pulse	0	t						372.01452922821045	
87	354.5706899166107	pulse	0	t						373.6072471141815	
87	356.17097783088684	pulse	0	t						375.20753502845764	
87	357.77134585380554	pulse	0	t						376.80790305137634	
87	359.3714189529419	pulse	0	t						378.4079761505127	
87	360.97072887420654	pulse	0	t						380.00728607177734	
87	362.57083201408386	pulse	0	t						381.60738921165466	
87	364.1711528301239	pulse	0	t						383.2077100276947	
87	365.7713289260864	pulse	0	t						384.8078861236572	
