trial_nr	onset	event_type	phase	response	nr_frames	movie_index	movie_duration	movie_file	blank	onset_abs	duration
0	0.14989709854125977	stim	0		46					20.201828241348267	0.3833179473876953
0	0.5251419544219971	response	0	space						20.577073097229004	
1	0.5332150459289551	stim	0		4297					20.585146188735962	35.80816888809204
1	36.33768701553345	pulse	0	t						56.389618158340454	
1	36.341383934020996	stim	1		1717					56.393315076828	14.308273077011108
1	37.9332070350647	pulse	1	t						57.985138177871704	
1	39.53307604789734	pulse	1	t						59.585007190704346	
1	41.13314700126648	pulse	1	t						61.185078144073486	
1	42.73313307762146	pulse	1	t						62.78506422042847	
1	44.33314609527588	pulse	1	t						64.38507723808289	
1	45.93314003944397	pulse	1	t						65.98507118225098	
1	47.53309392929077	pulse	1	t						67.58502507209778	
1	49.13326692581177	pulse	1	t						69.18519806861877	
2	50.649657011032104	fix_pre	0		11	0.0	2.5	/experiments/AOT/AOT_stimuli/rescaled_final/0560_rv.mp4	0.0	70.70158815383911	0.09165191650390625
2	50.733192920684814	pulse	0	t		0.0	2.5	/experiments/AOT/AOT_stimuli/rescaled_final/0560_rv.mp4	0.0	70.78512406349182	
2	50.74130892753601	movie	1		245	0.0	2.5	/experiments/AOT/AOT_stimuli/rescaled_final/0560_rv.mp4	0.0	70.79324007034302	2.5082621574401855
2	52.333271980285645	pulse	1	t		0.0	2.5	/experiments/AOT/AOT_stimuli/rescaled_final/0560_rv.mp4	0.0	72.38520312309265	
2	53.249571084976196	fix_post	2		12	0.0	2.5	/experiments/AOT/AOT_stimuli/rescaled_final/0560_rv.mp4	0.0	73.3015022277832	0.10004186630249023
3	53.34961295127869	fix_pre	0		120	1.0	2.5	/experiments/AOT/AOT_stimuli/rescaled_final/0416_fw.mp4	0.0	73.4015440940857	0.9995889663696289
3	53.933188915252686	pulse	0	t		1.0	2.5	/experiments/AOT/AOT_stimuli/rescaled_final/0416_fw.mp4	0.0	73.98512005805969	
3	54.349201917648315	movie	1		244	1.0	2.5	/experiments/AOT/AOT_stimuli/rescaled_final/0416_fw.mp4	0.0	74.40113306045532	2.5003981590270996
3	55.53312706947327	pulse	1	t		1.0	2.5	/experiments/AOT/AOT_stimuli/rescaled_final/0416_fw.mp4	0.0	75.58505821228027	
3	56.849600076675415	fix_post	2		12	1.0	2.5	/experiments/AOT/AOT_stimuli/rescaled_final/0416_fw.mp4	0.0	76.90153121948242	0.09996700286865234
4	56.94956707954407	fix_pre	0		120	2.0	2.5	/experiments/AOT/AOT_stimuli/rescaled_final/0808_fw.mp4	0.0	77.00149822235107	0.9999949932098389
4	57.133090019226074	pulse	0	t		2.0	2.5	/experiments/AOT/AOT_stimuli/rescaled_final/0808_fw.mp4	0.0	77.18502116203308	
4	57.949562072753906	movie	1		244	2.0	2.5	/experiments/AOT/AOT_stimuli/rescaled_final/0808_fw.mp4	0.0	78.00149321556091	2.4999959468841553
4	58.73310589790344	pulse	1	t		2.0	2.5	/experiments/AOT/AOT_stimuli/rescaled_final/0808_fw.mp4	0.0	78.78503704071045	
4	60.34150695800781	pulse	1	t		2.0	2.5	/experiments/AOT/AOT_stimuli/rescaled_final/0808_fw.mp4	0.0	80.39343810081482	
4	60.44955801963806	fix_post	2		12	2.0	2.5	/experiments/AOT/AOT_stimuli/rescaled_final/0808_fw.mp4	0.0	80.50148916244507	0.10002493858337402
5	60.549582958221436	fix_pre	0		120	3.0	2.5	/experiments/AOT/AOT_stimuli/rescaled_final/1726_fw.mp4	0.0	80.60151410102844	0.9999659061431885
5	61.549548864364624	movie	1		243	3.0	2.5	/experiments/AOT/AOT_stimuli/rescaled_final/1726_fw.mp4	0.0	81.60148000717163	2.5000200271606445
5	61.94137191772461	pulse	1	t		3.0	2.5	/experiments/AOT/AOT_stimuli/rescaled_final/1726_fw.mp4	0.0	81.99330306053162	
5	63.533068895339966	pulse	1	t		3.0	2.5	/experiments/AOT/AOT_stimuli/rescaled_final/1726_fw.mp4	0.0	83.58500003814697	
5	64.04956889152527	fix_post	2		12	3.0	2.5	/experiments/AOT/AOT_stimuli/rescaled_final/1726_fw.mp4	0.0	84.10150003433228	0.09998607635498047
6	64.14955496788025	fix_pre	0		119	4.0	2.5	/experiments/AOT/AOT_stimuli/rescaled_final/1873_fw.mp4	0.0	84.20148611068726	0.9916520118713379
6	65.1330840587616	pulse	0	t		4.0	2.5	/experiments/AOT/AOT_stimuli/rescaled_final/1873_fw.mp4	0.0	85.1850152015686	
6	65.14120697975159	movie	1		245	4.0	2.5	/experiments/AOT/AOT_stimuli/rescaled_final/1873_fw.mp4	0.0	85.1931381225586	2.5084168910980225
6	66.7340259552002	pulse	1	t		4.0	2.5	/experiments/AOT/AOT_stimuli/rescaled_final/1873_fw.mp4	0.0	86.7859570980072	
6	67.64962387084961	fix_post	2		12	4.0	2.5	/experiments/AOT/AOT_stimuli/rescaled_final/1873_fw.mp4	0.0	87.70155501365662	0.09998917579650879
7	67.74961304664612	fix_pre	0		120	5.0	2.5	/experiments/AOT/AOT_stimuli/rescaled_final/1455_rv.mp4	0.0	87.80154418945312	0.9998760223388672
7	68.33310604095459	pulse	0	t		5.0	2.5	/experiments/AOT/AOT_stimuli/rescaled_final/1455_rv.mp4	0.0	88.3850371837616	
7	68.74948906898499	movie	1		243	5.0	2.5	/experiments/AOT/AOT_stimuli/rescaled_final/1455_rv.mp4	0.0	88.80142021179199	2.499635934829712
7	69.93312406539917	pulse	1	t		5.0	2.5	/experiments/AOT/AOT_stimuli/rescaled_final/1455_rv.mp4	0.0	89.98505520820618	
7	71.2491250038147	fix_post	2		12	5.0	2.5	/experiments/AOT/AOT_stimuli/rescaled_final/1455_rv.mp4	0.0	91.3010561466217	0.10050106048583984
8	71.34962606430054	fix_pre	0		120	6.0	2.5	/experiments/AOT/AOT_stimuli/rescaled_final/1399_fw.mp4	0.0	91.40155720710754	0.9999790191650391
8	71.53307890892029	pulse	0	t		6.0	2.5	/experiments/AOT/AOT_stimuli/rescaled_final/1399_fw.mp4	0.0	91.5850100517273	
8	72.34960508346558	movie	1		244	6.0	2.5	/experiments/AOT/AOT_stimuli/rescaled_final/1399_fw.mp4	0.0	92.40153622627258	2.499990940093994
8	73.1338620185852	pulse	1	t		6.0	2.5	/experiments/AOT/AOT_stimuli/rescaled_final/1399_fw.mp4	0.0	93.18579316139221	
8	74.74142098426819	pulse	1	t		6.0	2.5	/experiments/AOT/AOT_stimuli/rescaled_final/1399_fw.mp4	0.0	94.7933521270752	
8	74.84959602355957	fix_post	2		12	6.0	2.5	/experiments/AOT/AOT_stimuli/rescaled_final/1399_fw.mp4	0.0	94.90152716636658	0.0999748706817627
9	74.94957089424133	fix_pre	0		120	7.0	2.5	blank	1.0	95.00150203704834	0.9999651908874512
9	75.94953608512878	movie	1		300	7.0	2.5	blank	1.0	96.00146722793579	2.5000319480895996
9	76.33308291435242	pulse	1	t		7.0	2.5	blank	1.0	96.38501405715942	
9	77.93299794197083	pulse	1	t		7.0	2.5	blank	1.0	97.98492908477783	
9	78.44956803321838	fix_post	2		12	7.0	2.5	blank	1.0	98.50149917602539	0.10002303123474121
10	78.54959106445312	fix_pre	0		119	8.0	2.5	/experiments/AOT/AOT_stimuli/rescaled_final/0733_rv.mp4	0.0	98.60152220726013	0.991595983505249
10	79.5330400466919	pulse	0	t		8.0	2.5	/experiments/AOT/AOT_stimuli/rescaled_final/0733_rv.mp4	0.0	99.5849711894989	
10	79.54118704795837	movie	1		246	8.0	2.5	/experiments/AOT/AOT_stimuli/rescaled_final/0733_rv.mp4	0.0	99.59311819076538	2.5081260204315186
10	81.1338529586792	pulse	1	t		8.0	2.5	/experiments/AOT/AOT_stimuli/rescaled_final/0733_rv.mp4	0.0	101.1857841014862	
10	82.04931306838989	fix_post	2		12	8.0	2.5	/experiments/AOT/AOT_stimuli/rescaled_final/0733_rv.mp4	0.0	102.1012442111969	0.10039901733398438
11	82.14971208572388	fix_pre	0		120	9.0	2.5	/experiments/AOT/AOT_stimuli/rescaled_final/1090_fw.mp4	0.0	102.20164322853088	0.9996709823608398
11	82.73285293579102	pulse	0	t		9.0	2.5	/experiments/AOT/AOT_stimuli/rescaled_final/1090_fw.mp4	0.0	102.78478407859802	
11	83.14938306808472	movie	1		245	9.0	2.5	/experiments/AOT/AOT_stimuli/rescaled_final/1090_fw.mp4	0.0	103.20131421089172	2.50014591217041
11	84.33304786682129	pulse	1	t		9.0	2.5	/experiments/AOT/AOT_stimuli/rescaled_final/1090_fw.mp4	0.0	104.3849790096283	
11	85.64952898025513	fix_post	2		12	9.0	2.5	/experiments/AOT/AOT_stimuli/rescaled_final/1090_fw.mp4	0.0	105.70146012306213	0.10001397132873535
12	85.74954295158386	fix_pre	0		120	10.0	2.5	/experiments/AOT/AOT_stimuli/rescaled_final/0490_rv.mp4	0.0	105.80147409439087	0.9999790191650391
12	85.93294906616211	pulse	0	t		10.0	2.5	/experiments/AOT/AOT_stimuli/rescaled_final/0490_rv.mp4	0.0	105.98488020896912	
12	86.7495219707489	movie	1		247	10.0	2.5	/experiments/AOT/AOT_stimuli/rescaled_final/0490_rv.mp4	0.0	106.80145311355591	2.499979019165039
12	87.53284001350403	pulse	1	t		10.0	2.5	/experiments/AOT/AOT_stimuli/rescaled_final/0490_rv.mp4	0.0	107.58477115631104	
12	89.1332778930664	pulse	1	t		10.0	2.5	/experiments/AOT/AOT_stimuli/rescaled_final/0490_rv.mp4	0.0	109.18520903587341	
12	89.24950098991394	fix_post	2		12	10.0	2.5	/experiments/AOT/AOT_stimuli/rescaled_final/0490_rv.mp4	0.0	109.30143213272095	0.0999600887298584
13	89.3494610786438	fix_pre	0		120	11.0	2.5	/experiments/AOT/AOT_stimuli/rescaled_final/0527_rv.mp4	0.0	109.4013922214508	0.9999690055847168
13	90.34943008422852	movie	1		246	11.0	2.5	/experiments/AOT/AOT_stimuli/rescaled_final/0527_rv.mp4	0.0	110.40136122703552	2.5000078678131104
13	90.73427700996399	pulse	1	t		11.0	2.5	/experiments/AOT/AOT_stimuli/rescaled_final/0527_rv.mp4	0.0	110.786208152771	
13	92.33378601074219	pulse	1	t		11.0	2.5	/experiments/AOT/AOT_stimuli/rescaled_final/0527_rv.mp4	0.0	112.3857171535492	
13	92.84943795204163	fix_post	2		12	11.0	2.5	/experiments/AOT/AOT_stimuli/rescaled_final/0527_rv.mp4	0.0	112.90136909484863	0.0995481014251709
14	92.9489860534668	fix_pre	0		119	12.0	2.5	/experiments/AOT/AOT_stimuli/rescaled_final/0409_rv.mp4	0.0	113.0009171962738	0.9921159744262695
14	93.93297696113586	pulse	0	t		12.0	2.5	/experiments/AOT/AOT_stimuli/rescaled_final/0409_rv.mp4	0.0	113.98490810394287	
14	93.94110202789307	movie	1		245	12.0	2.5	/experiments/AOT/AOT_stimuli/rescaled_final/0409_rv.mp4	0.0	113.99303317070007	2.507899045944214
14	95.53301286697388	pulse	1	t		12.0	2.5	/experiments/AOT/AOT_stimuli/rescaled_final/0409_rv.mp4	0.0	115.58494400978088	
14	96.44900107383728	fix_post	2		12	12.0	2.5	/experiments/AOT/AOT_stimuli/rescaled_final/0409_rv.mp4	0.0	116.50093221664429	0.10041284561157227
15	96.54941391944885	fix_pre	0		120	13.0	2.5	/experiments/AOT/AOT_stimuli/rescaled_final/1073_fw.mp4	0.0	116.60134506225586	0.9999799728393555
15	97.13292407989502	pulse	0	t		13.0	2.5	/experiments/AOT/AOT_stimuli/rescaled_final/1073_fw.mp4	0.0	117.18485522270203	
15	97.54939389228821	movie	1		243	13.0	2.5	/experiments/AOT/AOT_stimuli/rescaled_final/1073_fw.mp4	0.0	117.60132503509521	2.5001771450042725
15	98.73302698135376	pulse	1	t		13.0	2.5	/experiments/AOT/AOT_stimuli/rescaled_final/1073_fw.mp4	0.0	118.78495812416077	
15	100.04957103729248	fix_post	2		12	13.0	2.5	/experiments/AOT/AOT_stimuli/rescaled_final/1073_fw.mp4	0.0	120.10150218009949	0.09981989860534668
16	100.14939093589783	fix_pre	0		120	14.0	2.5	blank	1.0	120.20132207870483	1.0000629425048828
16	100.3329439163208	pulse	0	t		14.0	2.5	blank	1.0	120.38487505912781	
16	101.14945387840271	movie	1		300	14.0	2.5	blank	1.0	121.20138502120972	2.4998700618743896
16	101.93291187286377	pulse	1	t		14.0	2.5	blank	1.0	121.98484301567078	
16	103.532870054245	pulse	1	t		14.0	2.5	blank	1.0	123.584801197052	
16	103.6493239402771	fix_post	2		12	14.0	2.5	blank	1.0	123.7012550830841	0.10002303123474121
17	103.74934697151184	fix_pre	0		120	15.0	2.5	/experiments/AOT/AOT_stimuli/rescaled_final/0396_rv.mp4	0.0	123.80127811431885	1.000046968460083
17	104.74939393997192	movie	1		244	15.0	2.5	/experiments/AOT/AOT_stimuli/rescaled_final/0396_rv.mp4	0.0	124.80132508277893	2.4999849796295166
17	105.14123797416687	pulse	1	t		15.0	2.5	/experiments/AOT/AOT_stimuli/rescaled_final/0396_rv.mp4	0.0	125.19316911697388	
17	106.7337749004364	pulse	1	t		15.0	2.5	/experiments/AOT/AOT_stimuli/rescaled_final/0396_rv.mp4	0.0	126.78570604324341	
17	107.24937891960144	fix_post	2		12	15.0	2.5	/experiments/AOT/AOT_stimuli/rescaled_final/0396_rv.mp4	0.0	127.30131006240845	0.09961605072021484
18	107.34899497032166	fix_pre	0		120	16.0	2.5	/experiments/AOT/AOT_stimuli/rescaled_final/1403_fw.mp4	0.0	127.40092611312866	1.0004310607910156
18	108.33363103866577	pulse	0	t		16.0	2.5	/experiments/AOT/AOT_stimuli/rescaled_final/1403_fw.mp4	0.0	128.38556218147278	
18	108.34942603111267	movie	1		247	16.0	2.5	/experiments/AOT/AOT_stimuli/rescaled_final/1403_fw.mp4	0.0	128.40135717391968	2.508244037628174
18	109.93287301063538	pulse	1	t		16.0	2.5	/experiments/AOT/AOT_stimuli/rescaled_final/1403_fw.mp4	0.0	129.98480415344238	
18	110.85767006874084	fix_post	2		12	16.0	2.5	/experiments/AOT/AOT_stimuli/rescaled_final/1403_fw.mp4	0.0	130.90960121154785	0.09995889663696289
19	110.95762896537781	fix_pre	0		120	17.0	2.5	/experiments/AOT/AOT_stimuli/rescaled_final/0678_fw.mp4	0.0	131.00956010818481	1.0001111030578613
19	111.53289103507996	pulse	0	t		17.0	2.5	/experiments/AOT/AOT_stimuli/rescaled_final/0678_fw.mp4	0.0	131.58482217788696	
19	111.95774006843567	movie	1		245	17.0	2.5	/experiments/AOT/AOT_stimuli/rescaled_final/0678_fw.mp4	0.0	132.00967121124268	2.499974012374878
19	113.13281106948853	pulse	1	t		17.0	2.5	/experiments/AOT/AOT_stimuli/rescaled_final/0678_fw.mp4	0.0	133.18474221229553	
19	114.45771408081055	fix_post	2		12	17.0	2.5	/experiments/AOT/AOT_stimuli/rescaled_final/0678_fw.mp4	0.0	134.50964522361755	0.09993195533752441
20	114.55764603614807	fix_pre	0		120	18.0	2.5	/experiments/AOT/AOT_stimuli/rescaled_final/0220_rv.mp4	0.0	134.60957717895508	0.9999308586120605
20	114.73278903961182	pulse	0	t		18.0	2.5	/experiments/AOT/AOT_stimuli/rescaled_final/0220_rv.mp4	0.0	134.78472018241882	
20	115.55757689476013	movie	1		243	18.0	2.5	/experiments/AOT/AOT_stimuli/rescaled_final/0220_rv.mp4	0.0	135.60950803756714	2.4996261596679688
20	116.33283996582031	pulse	1	t		18.0	2.5	/experiments/AOT/AOT_stimuli/rescaled_final/0220_rv.mp4	0.0	136.38477110862732	
20	117.93283891677856	pulse	1	t		18.0	2.5	/experiments/AOT/AOT_stimuli/rescaled_final/0220_rv.mp4	0.0	137.98477005958557	
20	118.0572030544281	fix_post	2		12	18.0	2.5	/experiments/AOT/AOT_stimuli/rescaled_final/0220_rv.mp4	0.0	138.1091341972351	0.1005408763885498
21	118.15774393081665	fix_pre	0		120	19.0	2.5	blank	1.0	138.20967507362366	0.9999451637268066
21	119.15768909454346	movie	1		300	19.0	2.5	blank	1.0	139.20962023735046	2.4999518394470215
21	119.53295302391052	pulse	1	t		19.0	2.5	blank	1.0	139.58488416671753	
21	121.13354301452637	pulse	1	t		19.0	2.5	blank	1.0	141.18547415733337	
21	121.65764093399048	fix_post	2		12	19.0	2.5	blank	1.0	141.70957207679749	0.09997415542602539
22	121.7576150894165	fix_pre	0		119	20.0	2.5	/experiments/AOT/AOT_stimuli/rescaled_final/1527_rv.mp4	0.0	141.8095462322235	0.9917149543762207
22	122.73353409767151	pulse	0	t		20.0	2.5	/experiments/AOT/AOT_stimuli/rescaled_final/1527_rv.mp4	0.0	142.78546524047852	
22	122.74933004379272	movie	1		249	20.0	2.5	/experiments/AOT/AOT_stimuli/rescaled_final/1527_rv.mp4	0.0	142.80126118659973	2.5083389282226562
22	124.34099006652832	pulse	1	t		20.0	2.5	/experiments/AOT/AOT_stimuli/rescaled_final/1527_rv.mp4	0.0	144.39292120933533	
22	125.25766897201538	fix_post	2		12	20.0	2.5	/experiments/AOT/AOT_stimuli/rescaled_final/1527_rv.mp4	0.0	145.3096001148224	0.0999610424041748
23	125.35763001441956	fix_pre	0		120	21.0	2.5	/experiments/AOT/AOT_stimuli/rescaled_final/0014_fw.mp4	0.0	145.40956115722656	1.0000488758087158
23	125.93357396125793	pulse	0	t		21.0	2.5	/experiments/AOT/AOT_stimuli/rescaled_final/0014_fw.mp4	0.0	145.98550510406494	
23	126.35767889022827	movie	1		244	21.0	2.5	/experiments/AOT/AOT_stimuli/rescaled_final/0014_fw.mp4	0.0	146.40961003303528	2.4999701976776123
23	127.54117393493652	pulse	1	t		21.0	2.5	/experiments/AOT/AOT_stimuli/rescaled_final/0014_fw.mp4	0.0	147.59310507774353	
23	128.85764908790588	fix_post	2		12	21.0	2.5	/experiments/AOT/AOT_stimuli/rescaled_final/0014_fw.mp4	0.0	148.9095802307129	0.09996581077575684
24	128.95761489868164	fix_pre	0		120	22.0	2.5	/experiments/AOT/AOT_stimuli/rescaled_final/1343_rv.mp4	0.0	149.00954604148865	1.0000481605529785
24	129.1327679157257	pulse	0	t		22.0	2.5	/experiments/AOT/AOT_stimuli/rescaled_final/1343_rv.mp4	0.0	149.18469905853271	
24	129.95766305923462	movie	1		243	22.0	2.5	/experiments/AOT/AOT_stimuli/rescaled_final/1343_rv.mp4	0.0	150.00959420204163	2.499910831451416
24	130.73273706436157	pulse	1	t		22.0	2.5	/experiments/AOT/AOT_stimuli/rescaled_final/1343_rv.mp4	0.0	150.78466820716858	
24	132.3328230381012	pulse	1	t		22.0	2.5	/experiments/AOT/AOT_stimuli/rescaled_final/1343_rv.mp4	0.0	152.3847541809082	
24	132.45757389068604	fix_post	2		12	22.0	2.5	/experiments/AOT/AOT_stimuli/rescaled_final/1343_rv.mp4	0.0	152.50950503349304	0.10008907318115234
25	132.5576629638672	fix_pre	0		120	23.0	2.5	/experiments/AOT/AOT_stimuli/rescaled_final/0383_fw.mp4	0.0	152.6095941066742	0.9999630451202393
25	133.55762600898743	movie	1		246	23.0	2.5	/experiments/AOT/AOT_stimuli/rescaled_final/0383_fw.mp4	0.0	153.60955715179443	2.5000369548797607
25	133.93279695510864	pulse	1	t		23.0	2.5	/experiments/AOT/AOT_stimuli/rescaled_final/0383_fw.mp4	0.0	153.98472809791565	
25	135.53282594680786	pulse	1	t		23.0	2.5	/experiments/AOT/AOT_stimuli/rescaled_final/0383_fw.mp4	0.0	155.58475708961487	
25	136.0576629638672	fix_post	2		12	23.0	2.5	/experiments/AOT/AOT_stimuli/rescaled_final/0383_fw.mp4	0.0	156.1095941066742	0.09949707984924316
26	136.15716004371643	fix_pre	0		119	24.0	2.5	/experiments/AOT/AOT_stimuli/rescaled_final/0520_fw.mp4	0.0	156.20909118652344	0.9917259216308594
26	137.13331389427185	pulse	0	t		24.0	2.5	/experiments/AOT/AOT_stimuli/rescaled_final/0520_fw.mp4	0.0	157.18524503707886	
26	137.1488859653473	movie	1		246	24.0	2.5	/experiments/AOT/AOT_stimuli/rescaled_final/0520_fw.mp4	0.0	157.2008171081543	2.5087790489196777
26	138.74256587028503	pulse	1	t		24.0	2.5	/experiments/AOT/AOT_stimuli/rescaled_final/0520_fw.mp4	0.0	158.79449701309204	
26	139.65766501426697	fix_post	2		12	24.0	2.5	/experiments/AOT/AOT_stimuli/rescaled_final/0520_fw.mp4	0.0	159.70959615707397	0.10007691383361816
27	139.7577419281006	fix_pre	0		120	25.0	2.5	/experiments/AOT/AOT_stimuli/rescaled_final/0661_fw.mp4	0.0	159.8096730709076	0.9998681545257568
27	140.33348608016968	pulse	0	t		25.0	2.5	/experiments/AOT/AOT_stimuli/rescaled_final/0661_fw.mp4	0.0	160.38541722297668	
27	140.75761008262634	movie	1		244	25.0	2.5	/experiments/AOT/AOT_stimuli/rescaled_final/0661_fw.mp4	0.0	160.80954122543335	2.4999589920043945
27	141.9410789012909	pulse	1	t		25.0	2.5	/experiments/AOT/AOT_stimuli/rescaled_final/0661_fw.mp4	0.0	161.9930100440979	
27	143.25756907463074	fix_post	2		12	25.0	2.5	/experiments/AOT/AOT_stimuli/rescaled_final/0661_fw.mp4	0.0	163.30950021743774	0.09997081756591797
28	143.35753989219666	fix_pre	0		120	26.0	2.5	/experiments/AOT/AOT_stimuli/rescaled_final/1137_rv.mp4	0.0	163.40947103500366	0.9999620914459229
28	143.5334758758545	pulse	0	t		26.0	2.5	/experiments/AOT/AOT_stimuli/rescaled_final/1137_rv.mp4	0.0	163.5854070186615	
28	144.35750198364258	movie	1		243	26.0	2.5	/experiments/AOT/AOT_stimuli/rescaled_final/1137_rv.mp4	0.0	164.40943312644958	2.4996349811553955
28	145.1335048675537	pulse	1	t		26.0	2.5	/experiments/AOT/AOT_stimuli/rescaled_final/1137_rv.mp4	0.0	165.18543601036072	
28	146.73263096809387	pulse	1	t		26.0	2.5	/experiments/AOT/AOT_stimuli/rescaled_final/1137_rv.mp4	0.0	166.78456211090088	
28	146.85713696479797	fix_post	2		12	26.0	2.5	/experiments/AOT/AOT_stimuli/rescaled_final/1137_rv.mp4	0.0	166.90906810760498	0.10035300254821777
29	146.9574899673462	fix_pre	0		120	27.0	2.5	/experiments/AOT/AOT_stimuli/rescaled_final/1327_fw.mp4	0.0	167.0094211101532	1.0001130104064941
29	147.95760297775269	movie	1		243	27.0	2.5	/experiments/AOT/AOT_stimuli/rescaled_final/1327_fw.mp4	0.0	168.0095341205597	2.499917984008789
29	148.33261609077454	pulse	1	t		27.0	2.5	/experiments/AOT/AOT_stimuli/rescaled_final/1327_fw.mp4	0.0	168.38454723358154	
29	149.93266892433167	pulse	1	t		27.0	2.5	/experiments/AOT/AOT_stimuli/rescaled_final/1327_fw.mp4	0.0	169.98460006713867	
29	150.45752096176147	fix_post	2		12	27.0	2.5	/experiments/AOT/AOT_stimuli/rescaled_final/1327_fw.mp4	0.0	170.50945210456848	0.10004997253417969
30	150.55757093429565	fix_pre	0		118	28.0	2.5	blank	1.0	170.60950207710266	0.9832301139831543
30	151.53258609771729	pulse	0	t		28.0	2.5	blank	1.0	171.5845172405243	
30	151.5408010482788	movie	1		301	28.0	2.5	blank	1.0	171.59273219108582	2.5084228515625
30	153.13343906402588	pulse	1	t		28.0	2.5	blank	1.0	173.18537020683289	
30	154.0492238998413	fix_post	2		12	28.0	2.5	blank	1.0	174.10115504264832	0.09996819496154785
31	154.14919209480286	fix_pre	0		120	29.0	2.5	/experiments/AOT/AOT_stimuli/rescaled_final/1890_rv.mp4	0.0	174.20112323760986	1.0000169277191162
31	154.73343992233276	pulse	0	t		29.0	2.5	/experiments/AOT/AOT_stimuli/rescaled_final/1890_rv.mp4	0.0	174.78537106513977	
31	155.14920902252197	movie	1		246	29.0	2.5	/experiments/AOT/AOT_stimuli/rescaled_final/1890_rv.mp4	0.0	175.20114016532898	2.499980926513672
31	156.33368301391602	pulse	1	t		29.0	2.5	/experiments/AOT/AOT_stimuli/rescaled_final/1890_rv.mp4	0.0	176.38561415672302	
31	157.64918994903564	fix_post	2		12	29.0	2.5	/experiments/AOT/AOT_stimuli/rescaled_final/1890_rv.mp4	0.0	177.70112109184265	0.0999140739440918
32	157.74910402297974	fix_pre	0		120	30.0	2.5	/experiments/AOT/AOT_stimuli/rescaled_final/0301_fw.mp4	0.0	177.80103516578674	0.999661922454834
32	157.93357110023499	pulse	0	t		30.0	2.5	/experiments/AOT/AOT_stimuli/rescaled_final/0301_fw.mp4	0.0	177.985502243042	
32	158.74876594543457	movie	1		244	30.0	2.5	/experiments/AOT/AOT_stimuli/rescaled_final/0301_fw.mp4	0.0	178.80069708824158	2.5003280639648438
32	159.5335729122162	pulse	1	t		30.0	2.5	/experiments/AOT/AOT_stimuli/rescaled_final/0301_fw.mp4	0.0	179.5855040550232	
32	161.13311409950256	pulse	1	t		30.0	2.5	/experiments/AOT/AOT_stimuli/rescaled_final/0301_fw.mp4	0.0	181.18504524230957	
32	161.2490940093994	fix_post	2		12	30.0	2.5	/experiments/AOT/AOT_stimuli/rescaled_final/0301_fw.mp4	0.0	181.30102515220642	0.10004591941833496
33	161.34913992881775	fix_pre	0		120	31.0	2.5	/experiments/AOT/AOT_stimuli/rescaled_final/1673_rv.mp4	0.0	181.40107107162476	0.9999699592590332
33	162.34910988807678	movie	1		243	31.0	2.5	/experiments/AOT/AOT_stimuli/rescaled_final/1673_rv.mp4	0.0	182.4010410308838	2.499969005584717
33	162.74098896980286	pulse	1	t		31.0	2.5	/experiments/AOT/AOT_stimuli/rescaled_final/1673_rv.mp4	0.0	182.79292011260986	
33	164.3326599597931	pulse	1	t		31.0	2.5	/experiments/AOT/AOT_stimuli/rescaled_final/1673_rv.mp4	0.0	184.3845911026001	
33	164.8490788936615	fix_post	2		12	31.0	2.5	/experiments/AOT/AOT_stimuli/rescaled_final/1673_rv.mp4	0.0	184.9010100364685	0.1000511646270752
34	164.94913005828857	fix_pre	0		119	32.0	2.5	/experiments/AOT/AOT_stimuli/rescaled_final/1801_rv.mp4	0.0	185.00106120109558	0.9915568828582764
34	165.93264603614807	pulse	0	t		32.0	2.5	/experiments/AOT/AOT_stimuli/rescaled_final/1801_rv.mp4	0.0	185.98457717895508	
34	165.94068694114685	movie	1		244	32.0	2.5	/experiments/AOT/AOT_stimuli/rescaled_final/1801_rv.mp4	0.0	185.99261808395386	2.5083580017089844
34	167.54094791412354	pulse	1	t		32.0	2.5	/experiments/AOT/AOT_stimuli/rescaled_final/1801_rv.mp4	0.0	187.59287905693054	
34	168.44904494285583	fix_post	2		12	32.0	2.5	/experiments/AOT/AOT_stimuli/rescaled_final/1801_rv.mp4	0.0	188.50097608566284	0.10007095336914062
35	168.54911589622498	fix_pre	0		120	33.0	2.5	/experiments/AOT/AOT_stimuli/rescaled_final/2067_fw.mp4	0.0	188.60104703903198	0.999993085861206
35	169.13332509994507	pulse	0	t		33.0	2.5	/experiments/AOT/AOT_stimuli/rescaled_final/2067_fw.mp4	0.0	189.18525624275208	
35	169.54910898208618	movie	1		245	33.0	2.5	/experiments/AOT/AOT_stimuli/rescaled_final/2067_fw.mp4	0.0	189.6010401248932	2.499936103820801
35	170.73420000076294	pulse	1	t		33.0	2.5	/experiments/AOT/AOT_stimuli/rescaled_final/2067_fw.mp4	0.0	190.78613114356995	
35	172.04904508590698	fix_post	2		12	33.0	2.5	/experiments/AOT/AOT_stimuli/rescaled_final/2067_fw.mp4	0.0	192.100976228714	0.10004997253417969
36	172.14909505844116	fix_pre	0		120	34.0	2.5	/experiments/AOT/AOT_stimuli/rescaled_final/2117_rv.mp4	0.0	192.20102620124817	0.9999918937683105
36	172.33326697349548	pulse	0	t		34.0	2.5	/experiments/AOT/AOT_stimuli/rescaled_final/2117_rv.mp4	0.0	192.3851981163025	
36	173.14908695220947	movie	1		246	34.0	2.5	/experiments/AOT/AOT_stimuli/rescaled_final/2117_rv.mp4	0.0	193.20101809501648	2.4999170303344727
36	173.93336987495422	pulse	1	t		34.0	2.5	/experiments/AOT/AOT_stimuli/rescaled_final/2117_rv.mp4	0.0	193.98530101776123	
36	175.53341794013977	pulse	1	t		34.0	2.5	/experiments/AOT/AOT_stimuli/rescaled_final/2117_rv.mp4	0.0	195.58534908294678	
36	175.64900398254395	fix_post	2		12	34.0	2.5	/experiments/AOT/AOT_stimuli/rescaled_final/2117_rv.mp4	0.0	195.70093512535095	0.10003089904785156
37	175.7490348815918	fix_pre	0		120	35.0	2.5	blank	1.0	195.8009660243988	1.0000441074371338
37	176.74907898902893	movie	1		300	35.0	2.5	blank	1.0	196.80101013183594	2.4995439052581787
37	177.1334409713745	pulse	1	t		35.0	2.5	blank	1.0	197.18537211418152	
37	178.7333118915558	pulse	1	t		35.0	2.5	blank	1.0	198.7852430343628	
37	179.2486228942871	fix_post	2		12	35.0	2.5	blank	1.0	199.30055403709412	0.10042810440063477
38	179.34905099868774	fix_pre	0		120	36.0	2.5	/experiments/AOT/AOT_stimuli/rescaled_final/0167_fw.mp4	0.0	199.40098214149475	0.9999260902404785
38	180.3332588672638	pulse	0	t		36.0	2.5	/experiments/AOT/AOT_stimuli/rescaled_final/0167_fw.mp4	0.0	200.3851900100708	
38	180.34897708892822	movie	1		242	36.0	2.5	/experiments/AOT/AOT_stimuli/rescaled_final/0167_fw.mp4	0.0	200.40090823173523	2.508004903793335
38	181.93257308006287	pulse	1	t		36.0	2.5	/experiments/AOT/AOT_stimuli/rescaled_final/0167_fw.mp4	0.0	201.98450422286987	
38	182.85698199272156	fix_post	2		12	36.0	2.5	/experiments/AOT/AOT_stimuli/rescaled_final/0167_fw.mp4	0.0	202.90891313552856	0.10035395622253418
39	182.9573359489441	fix_pre	0		120	37.0	2.5	/experiments/AOT/AOT_stimuli/rescaled_final/1745_fw.mp4	0.0	203.0092670917511	0.9999570846557617
39	183.5325698852539	pulse	0	t		37.0	2.5	/experiments/AOT/AOT_stimuli/rescaled_final/1745_fw.mp4	0.0	203.5845010280609	
39	183.95729303359985	movie	1		244	37.0	2.5	/experiments/AOT/AOT_stimuli/rescaled_final/1745_fw.mp4	0.0	204.00922417640686	2.500062942504883
39	185.14088702201843	pulse	1	t		37.0	2.5	/experiments/AOT/AOT_stimuli/rescaled_final/1745_fw.mp4	0.0	205.19281816482544	
39	186.45735597610474	fix_post	2		12	37.0	2.5	/experiments/AOT/AOT_stimuli/rescaled_final/1745_fw.mp4	0.0	206.50928711891174	0.09996604919433594
40	186.55732202529907	fix_pre	0		120	38.0	2.5	/experiments/AOT/AOT_stimuli/rescaled_final/1243_rv.mp4	0.0	206.60925316810608	1.0000629425048828
40	186.73326086997986	pulse	0	t		38.0	2.5	/experiments/AOT/AOT_stimuli/rescaled_final/1243_rv.mp4	0.0	206.78519201278687	
40	187.55738496780396	movie	1		244	38.0	2.5	/experiments/AOT/AOT_stimuli/rescaled_final/1243_rv.mp4	0.0	207.60931611061096	2.5000391006469727
40	188.33344197273254	pulse	1	t		38.0	2.5	/experiments/AOT/AOT_stimuli/rescaled_final/1243_rv.mp4	0.0	208.38537311553955	
40	189.9393470287323	pulse	1	t		38.0	2.5	/experiments/AOT/AOT_stimuli/rescaled_final/1243_rv.mp4	0.0	209.9912781715393	
40	190.05742406845093	fix_post	2		12	38.0	2.5	/experiments/AOT/AOT_stimuli/rescaled_final/1243_rv.mp4	0.0	210.10935521125793	0.0999758243560791
41	190.157399892807	fix_pre	0		120	39.0	2.5	/experiments/AOT/AOT_stimuli/rescaled_final/1171_rv.mp4	0.0	210.209331035614	0.999934196472168
41	191.15733408927917	movie	1		244	39.0	2.5	/experiments/AOT/AOT_stimuli/rescaled_final/1171_rv.mp4	0.0	211.20926523208618	2.499748945236206
41	191.5414719581604	pulse	1	t		39.0	2.5	/experiments/AOT/AOT_stimuli/rescaled_final/1171_rv.mp4	0.0	211.5934031009674	
41	193.13304996490479	pulse	1	t		39.0	2.5	/experiments/AOT/AOT_stimuli/rescaled_final/1171_rv.mp4	0.0	213.1849811077118	
41	193.65708303451538	fix_post	2		12	39.0	2.5	/experiments/AOT/AOT_stimuli/rescaled_final/1171_rv.mp4	0.0	213.7090141773224	0.10042500495910645
42	193.7575080394745	fix_pre	0		119	40.0	2.5	/experiments/AOT/AOT_stimuli/rescaled_final/1282_rv.mp4	0.0	213.8094391822815	0.9913039207458496
42	194.733304977417	pulse	0	t		40.0	2.5	/experiments/AOT/AOT_stimuli/rescaled_final/1282_rv.mp4	0.0	214.785236120224	
42	194.74881196022034	movie	1		245	40.0	2.5	/experiments/AOT/AOT_stimuli/rescaled_final/1282_rv.mp4	0.0	214.80074310302734	2.5086710453033447
42	196.34165000915527	pulse	1	t		40.0	2.5	/experiments/AOT/AOT_stimuli/rescaled_final/1282_rv.mp4	0.0	216.39358115196228	
42	197.25748300552368	fix_post	2		12	40.0	2.5	/experiments/AOT/AOT_stimuli/rescaled_final/1282_rv.mp4	0.0	217.3094141483307	0.09984207153320312
43	197.35732507705688	fix_pre	0		120	41.0	2.5	/experiments/AOT/AOT_stimuli/rescaled_final/1399_rv.mp4	0.0	217.4092562198639	0.999931812286377
43	197.93337392807007	pulse	0	t		41.0	2.5	/experiments/AOT/AOT_stimuli/rescaled_final/1399_rv.mp4	0.0	217.98530507087708	
43	198.35725688934326	movie	1		245	41.0	2.5	/experiments/AOT/AOT_stimuli/rescaled_final/1399_rv.mp4	0.0	218.40918803215027	2.5000221729278564
43	199.54079294204712	pulse	1	t		41.0	2.5	/experiments/AOT/AOT_stimuli/rescaled_final/1399_rv.mp4	0.0	219.59272408485413	
43	200.85727906227112	fix_post	2		12	41.0	2.5	/experiments/AOT/AOT_stimuli/rescaled_final/1399_rv.mp4	0.0	220.90921020507812	0.09994792938232422
44	200.95722699165344	fix_pre	0		120	42.0	2.5	blank	1.0	221.00915813446045	1.0001499652862549
44	201.1407389640808	pulse	0	t		42.0	2.5	blank	1.0	221.19267010688782	
44	201.9573769569397	movie	1		300	42.0	2.5	blank	1.0	222.0093080997467	2.4998819828033447
44	202.7331600189209	pulse	1	t		42.0	2.5	blank	1.0	222.7850911617279	
44	204.33331608772278	pulse	1	t		42.0	2.5	blank	1.0	224.38524723052979	
44	204.45725893974304	fix_post	2		12	42.0	2.5	blank	1.0	224.50919008255005	0.10002708435058594
45	204.55728602409363	fix_pre	0		120	43.0	2.5	/experiments/AOT/AOT_stimuli/rescaled_final/1403_rv.mp4	0.0	224.60921716690063	0.9999208450317383
45	205.55720686912537	movie	1		244	43.0	2.5	/experiments/AOT/AOT_stimuli/rescaled_final/1403_rv.mp4	0.0	225.60913801193237	2.4999592304229736
45	205.9401969909668	pulse	1	t		43.0	2.5	/experiments/AOT/AOT_stimuli/rescaled_final/1403_rv.mp4	0.0	225.9921281337738	
45	207.5333969593048	pulse	1	t		43.0	2.5	/experiments/AOT/AOT_stimuli/rescaled_final/1403_rv.mp4	0.0	227.58532810211182	
45	208.05716609954834	fix_post	2		12	43.0	2.5	/experiments/AOT/AOT_stimuli/rescaled_final/1403_rv.mp4	0.0	228.10909724235535	0.09963297843933105
46	208.15679907798767	fix_pre	0		119	44.0	2.5	/experiments/AOT/AOT_stimuli/rescaled_final/2135_fw.mp4	0.0	228.20873022079468	0.9920599460601807
46	209.13330006599426	pulse	0	t		44.0	2.5	/experiments/AOT/AOT_stimuli/rescaled_final/2135_fw.mp4	0.0	229.18523120880127	
46	209.14885902404785	movie	1		245	44.0	2.5	/experiments/AOT/AOT_stimuli/rescaled_final/2135_fw.mp4	0.0	229.20079016685486	2.508370876312256
46	210.74013304710388	pulse	1	t		44.0	2.5	/experiments/AOT/AOT_stimuli/rescaled_final/2135_fw.mp4	0.0	230.7920641899109	
46	211.6572299003601	fix_post	2		12	44.0	2.5	/experiments/AOT/AOT_stimuli/rescaled_final/2135_fw.mp4	0.0	231.70916104316711	0.09997010231018066
47	211.7572000026703	fix_pre	0		120	45.0	2.5	/experiments/AOT/AOT_stimuli/rescaled_final/0056_fw.mp4	0.0	231.8091311454773	1.000082015991211
47	212.3332679271698	pulse	0	t		45.0	2.5	/experiments/AOT/AOT_stimuli/rescaled_final/0056_fw.mp4	0.0	232.3851990699768	
47	212.7572820186615	movie	1		245	45.0	2.5	/experiments/AOT/AOT_stimuli/rescaled_final/0056_fw.mp4	0.0	232.8092131614685	2.4999139308929443
47	213.94076108932495	pulse	1	t		45.0	2.5	/experiments/AOT/AOT_stimuli/rescaled_final/0056_fw.mp4	0.0	233.99269223213196	
47	215.25719594955444	fix_post	2		12	45.0	2.5	/experiments/AOT/AOT_stimuli/rescaled_final/0056_fw.mp4	0.0	235.30912709236145	0.09999895095825195
48	215.3571949005127	fix_pre	0		120	46.0	2.5	/experiments/AOT/AOT_stimuli/rescaled_final/1983_rv.mp4	0.0	235.4091260433197	0.9999980926513672
48	215.53320407867432	pulse	0	t		46.0	2.5	/experiments/AOT/AOT_stimuli/rescaled_final/1983_rv.mp4	0.0	235.58513522148132	
48	216.35719299316406	movie	1		247	46.0	2.5	/experiments/AOT/AOT_stimuli/rescaled_final/1983_rv.mp4	0.0	236.40912413597107	2.4996209144592285
48	217.14073204994202	pulse	1	t		46.0	2.5	/experiments/AOT/AOT_stimuli/rescaled_final/1983_rv.mp4	0.0	237.19266319274902	
48	218.74075293540955	pulse	1	t		46.0	2.5	/experiments/AOT/AOT_stimuli/rescaled_final/1983_rv.mp4	0.0	238.79268407821655	
48	218.8568139076233	fix_post	2		12	46.0	2.5	/experiments/AOT/AOT_stimuli/rescaled_final/1983_rv.mp4	0.0	238.9087450504303	0.10039615631103516
49	218.95721006393433	fix_pre	0		120	47.0	2.5	blank	1.0	239.00914120674133	0.9999768733978271
49	219.95718693733215	movie	1		300	47.0	2.5	blank	1.0	240.00911808013916	2.500016927719116
49	220.34074687957764	pulse	1	t		47.0	2.5	blank	1.0	240.39267802238464	
49	221.93316292762756	pulse	1	t		47.0	2.5	blank	1.0	241.98509407043457	
49	222.45720386505127	fix_post	2		12	47.0	2.5	blank	1.0	242.50913500785828	0.1000370979309082
50	222.55724096298218	fix_pre	0		119	48.0	2.5	/experiments/AOT/AOT_stimuli/rescaled_final/0538_fw.mp4	0.0	242.60917210578918	0.9916219711303711
50	223.5331950187683	pulse	0	t		48.0	2.5	/experiments/AOT/AOT_stimuli/rescaled_final/0538_fw.mp4	0.0	243.58512616157532	
50	223.54886293411255	movie	1		245	48.0	2.5	/experiments/AOT/AOT_stimuli/rescaled_final/0538_fw.mp4	0.0	243.60079407691956	2.508420944213867
50	225.14028906822205	pulse	1	t		48.0	2.5	/experiments/AOT/AOT_stimuli/rescaled_final/0538_fw.mp4	0.0	245.19222021102905	
50	226.05728387832642	fix_post	2		12	48.0	2.5	/experiments/AOT/AOT_stimuli/rescaled_final/0538_fw.mp4	0.0	246.10921502113342	0.09987211227416992
51	226.1571559906006	fix_pre	0		120	49.0	2.5	/experiments/AOT/AOT_stimuli/rescaled_final/0221_rv.mp4	0.0	246.2090871334076	1.000025987625122
51	226.7330870628357	pulse	0	t		49.0	2.5	/experiments/AOT/AOT_stimuli/rescaled_final/0221_rv.mp4	0.0	246.7850182056427	
51	227.1571819782257	movie	1		245	49.0	2.5	/experiments/AOT/AOT_stimuli/rescaled_final/0221_rv.mp4	0.0	247.20911312103271	2.49995493888855
51	228.3408660888672	pulse	1	t		49.0	2.5	/experiments/AOT/AOT_stimuli/rescaled_final/0221_rv.mp4	0.0	248.3927972316742	
51	229.65713691711426	fix_post	2		12	49.0	2.5	/experiments/AOT/AOT_stimuli/rescaled_final/0221_rv.mp4	0.0	249.70906805992126	0.10001611709594727
52	229.7571530342102	fix_pre	0		120	50.0	2.5	/experiments/AOT/AOT_stimuli/rescaled_final/0980_fw.mp4	0.0	249.8090841770172	0.9995460510253906
52	229.9330689907074	pulse	0	t		50.0	2.5	/experiments/AOT/AOT_stimuli/rescaled_final/0980_fw.mp4	0.0	249.9850001335144	
52	230.7566990852356	movie	1		243	50.0	2.5	/experiments/AOT/AOT_stimuli/rescaled_final/0980_fw.mp4	0.0	250.8086302280426	2.500494956970215
52	231.5331039428711	pulse	1	t		50.0	2.5	/experiments/AOT/AOT_stimuli/rescaled_final/0980_fw.mp4	0.0	251.5850350856781	
52	233.1391670703888	pulse	1	t		50.0	2.5	/experiments/AOT/AOT_stimuli/rescaled_final/0980_fw.mp4	0.0	253.1910982131958	
52	233.2571940422058	fix_post	2		12	50.0	2.5	/experiments/AOT/AOT_stimuli/rescaled_final/0980_fw.mp4	0.0	253.30912518501282	0.10007596015930176
53	233.3572700023651	fix_pre	0		120	51.0	2.5	/experiments/AOT/AOT_stimuli/rescaled_final/1382_rv.mp4	0.0	253.40920114517212	0.9998760223388672
53	234.35714602470398	movie	1		244	51.0	2.5	/experiments/AOT/AOT_stimuli/rescaled_final/1382_rv.mp4	0.0	254.409077167511	2.4999639987945557
53	234.74028706550598	pulse	1	t		51.0	2.5	/experiments/AOT/AOT_stimuli/rescaled_final/1382_rv.mp4	0.0	254.792218208313	
53	236.33321809768677	pulse	1	t		51.0	2.5	/experiments/AOT/AOT_stimuli/rescaled_final/1382_rv.mp4	0.0	256.3851492404938	
53	236.85711002349854	fix_post	2		12	51.0	2.5	/experiments/AOT/AOT_stimuli/rescaled_final/1382_rv.mp4	0.0	256.90904116630554	0.09998297691345215
54	236.957093000412	fix_pre	0		119	52.0	2.5	/experiments/AOT/AOT_stimuli/rescaled_final/1256_fw.mp4	0.0	257.009024143219	0.9916119575500488
54	237.93307995796204	pulse	0	t		52.0	2.5	/experiments/AOT/AOT_stimuli/rescaled_final/1256_fw.mp4	0.0	257.98501110076904	
54	237.94870495796204	movie	1		247	52.0	2.5	/experiments/AOT/AOT_stimuli/rescaled_final/1256_fw.mp4	0.0	258.00063610076904	2.5083930492401123
54	239.54037809371948	pulse	1	t		52.0	2.5	/experiments/AOT/AOT_stimuli/rescaled_final/1256_fw.mp4	0.0	259.5923092365265	
54	240.45709800720215	fix_post	2		12	52.0	2.5	/experiments/AOT/AOT_stimuli/rescaled_final/1256_fw.mp4	0.0	260.50902915000916	0.09998703002929688
55	240.55708503723145	fix_pre	0		120	53.0	2.5	/experiments/AOT/AOT_stimuli/rescaled_final/1586_fw.mp4	0.0	260.60901618003845	0.9996190071105957
55	241.13305187225342	pulse	0	t		53.0	2.5	/experiments/AOT/AOT_stimuli/rescaled_final/1586_fw.mp4	0.0	261.1849830150604	
55	241.55670404434204	movie	1		242	53.0	2.5	/experiments/AOT/AOT_stimuli/rescaled_final/1586_fw.mp4	0.0	261.60863518714905	2.5003888607025146
55	242.74063301086426	pulse	1	t		53.0	2.5	/experiments/AOT/AOT_stimuli/rescaled_final/1586_fw.mp4	0.0	262.79256415367126	
55	244.05709290504456	fix_post	2		12	53.0	2.5	/experiments/AOT/AOT_stimuli/rescaled_final/1586_fw.mp4	0.0	264.10902404785156	0.09994697570800781
56	244.15703988075256	fix_pre	0		120	54.0	2.5	/experiments/AOT/AOT_stimuli/rescaled_final/0676_rv.mp4	0.0	264.20897102355957	1.0001580715179443
56	244.33308601379395	pulse	0	t		54.0	2.5	/experiments/AOT/AOT_stimuli/rescaled_final/0676_rv.mp4	0.0	264.38501715660095	
56	245.1571979522705	movie	1		244	54.0	2.5	/experiments/AOT/AOT_stimuli/rescaled_final/0676_rv.mp4	0.0	265.2091290950775	2.4998459815979004
56	245.9332139492035	pulse	1	t		54.0	2.5	/experiments/AOT/AOT_stimuli/rescaled_final/0676_rv.mp4	0.0	265.9851450920105	
56	247.53886890411377	pulse	1	t		54.0	2.5	/experiments/AOT/AOT_stimuli/rescaled_final/0676_rv.mp4	0.0	267.5908000469208	
56	247.6570439338684	fix_post	2		12	54.0	2.5	/experiments/AOT/AOT_stimuli/rescaled_final/0676_rv.mp4	0.0	267.7089750766754	0.10007500648498535
57	247.7571189403534	fix_pre	0		120	55.0	2.5	/experiments/AOT/AOT_stimuli/rescaled_final/2036_fw.mp4	0.0	267.8090500831604	0.9999649524688721
57	248.75708389282227	movie	1		246	55.0	2.5	/experiments/AOT/AOT_stimuli/rescaled_final/2036_fw.mp4	0.0	268.8090150356293	2.4999990463256836
57	249.1400430202484	pulse	1	t		55.0	2.5	/experiments/AOT/AOT_stimuli/rescaled_final/2036_fw.mp4	0.0	269.1919741630554	
57	250.7404429912567	pulse	1	t		55.0	2.5	/experiments/AOT/AOT_stimuli/rescaled_final/2036_fw.mp4	0.0	270.7923741340637	
57	251.25708293914795	fix_post	2		12	55.0	2.5	/experiments/AOT/AOT_stimuli/rescaled_final/2036_fw.mp4	0.0	271.30901408195496	0.0999600887298584
58	251.3570430278778	fix_pre	0		119	56.0	2.5	blank	1.0	271.4089741706848	0.9916720390319824
58	252.34058809280396	pulse	0	t		56.0	2.5	blank	1.0	272.39251923561096	
58	252.3487150669098	movie	1		301	56.0	2.5	blank	1.0	272.4006462097168	2.5083189010620117
58	253.9405288696289	pulse	1	t		56.0	2.5	blank	1.0	273.9924600124359	
58	254.8570339679718	fix_post	2		12	56.0	2.5	blank	1.0	274.9089651107788	0.10001397132873535
59	254.95704793930054	fix_pre	0		120	57.0	2.5	/experiments/AOT/AOT_stimuli/rescaled_final/1903_rv.mp4	0.0	275.00897908210754	0.9999310970306396
59	255.5405969619751	pulse	0	t		57.0	2.5	/experiments/AOT/AOT_stimuli/rescaled_final/1903_rv.mp4	0.0	275.5925281047821	
59	255.95697903633118	movie	1		245	57.0	2.5	/experiments/AOT/AOT_stimuli/rescaled_final/1903_rv.mp4	0.0	276.0089101791382	2.5001158714294434
59	257.14048194885254	pulse	1	t		57.0	2.5	/experiments/AOT/AOT_stimuli/rescaled_final/1903_rv.mp4	0.0	277.19241309165955	
59	258.4570949077606	fix_post	2		12	57.0	2.5	/experiments/AOT/AOT_stimuli/rescaled_final/1903_rv.mp4	0.0	278.5090260505676	0.09990715980529785
60	258.5570020675659	fix_pre	0		120	58.0	2.5	/experiments/AOT/AOT_stimuli/rescaled_final/1820_rv.mp4	0.0	278.6089332103729	1.0000019073486328
60	258.7329149246216	pulse	0	t		58.0	2.5	/experiments/AOT/AOT_stimuli/rescaled_final/1820_rv.mp4	0.0	278.7848460674286	
60	259.55700397491455	movie	1		243	58.0	2.5	/experiments/AOT/AOT_stimuli/rescaled_final/1820_rv.mp4	0.0	279.60893511772156	2.4999899864196777
60	260.3336160182953	pulse	1	t		58.0	2.5	/experiments/AOT/AOT_stimuli/rescaled_final/1820_rv.mp4	0.0	280.3855471611023	
60	261.9390320777893	pulse	1	t		58.0	2.5	/experiments/AOT/AOT_stimuli/rescaled_final/1820_rv.mp4	0.0	281.9909632205963	
60	262.05699396133423	fix_post	2		12	58.0	2.5	/experiments/AOT/AOT_stimuli/rescaled_final/1820_rv.mp4	0.0	282.10892510414124	0.09996294975280762
61	262.15695691108704	fix_pre	0		120	59.0	2.5	/experiments/AOT/AOT_stimuli/rescaled_final/0089_fw.mp4	0.0	282.20888805389404	1.000040054321289
61	263.1569969654083	movie	1		245	59.0	2.5	/experiments/AOT/AOT_stimuli/rescaled_final/0089_fw.mp4	0.0	283.20892810821533	2.5000181198120117
61	263.53986501693726	pulse	1	t		59.0	2.5	/experiments/AOT/AOT_stimuli/rescaled_final/0089_fw.mp4	0.0	283.59179615974426	
61	265.1404159069061	pulse	1	t		59.0	2.5	/experiments/AOT/AOT_stimuli/rescaled_final/0089_fw.mp4	0.0	285.19234704971313	
61	265.65701508522034	fix_post	2		12	59.0	2.5	/experiments/AOT/AOT_stimuli/rescaled_final/0089_fw.mp4	0.0	285.70894622802734	0.09990978240966797
62	265.75692486763	fix_pre	0		119	60.0	2.5	/experiments/AOT/AOT_stimuli/rescaled_final/0078_rv.mp4	0.0	285.808856010437	0.9917240142822266
62	266.7404959201813	pulse	0	t		60.0	2.5	/experiments/AOT/AOT_stimuli/rescaled_final/0078_rv.mp4	0.0	286.7924270629883	
62	266.74864888191223	movie	1		247	60.0	2.5	/experiments/AOT/AOT_stimuli/rescaled_final/0078_rv.mp4	0.0	286.80058002471924	2.50829815864563
62	268.3401780128479	pulse	1	t		60.0	2.5	/experiments/AOT/AOT_stimuli/rescaled_final/0078_rv.mp4	0.0	288.3921091556549	
62	269.25694704055786	fix_post	2		12	60.0	2.5	/experiments/AOT/AOT_stimuli/rescaled_final/0078_rv.mp4	0.0	289.30887818336487	0.09998583793640137
63	269.35693287849426	fix_pre	0		120	61.0	2.5	blank	1.0	289.40886402130127	1.000082015991211
63	269.9404630661011	pulse	0	t		61.0	2.5	blank	1.0	289.9923942089081	
63	270.3570148944855	movie	1		300	61.0	2.5	blank	1.0	290.4089460372925	2.49991512298584
63	271.5330300331116	pulse	1	t		61.0	2.5	blank	1.0	291.5849611759186	
63	272.8569300174713	fix_post	2		12	61.0	2.5	blank	1.0	292.9088611602783	0.10000300407409668
64	272.9569330215454	fix_pre	0		120	62.0	2.5	/experiments/AOT/AOT_stimuli/rescaled_final/1078_fw.mp4	0.0	293.0088641643524	0.9998888969421387
64	273.1404230594635	pulse	0	t		62.0	2.5	/experiments/AOT/AOT_stimuli/rescaled_final/1078_fw.mp4	0.0	293.1923542022705	
64	273.95682191848755	movie	1		242	62.0	2.5	/experiments/AOT/AOT_stimuli/rescaled_final/1078_fw.mp4	0.0	294.00875306129456	2.500128984451294
64	274.732990026474	pulse	1	t		62.0	2.5	/experiments/AOT/AOT_stimuli/rescaled_final/1078_fw.mp4	0.0	294.784921169281	
64	276.3385579586029	pulse	1	t		62.0	2.5	/experiments/AOT/AOT_stimuli/rescaled_final/1078_fw.mp4	0.0	296.3904891014099	
64	276.45695090293884	fix_post	2		12	62.0	2.5	/experiments/AOT/AOT_stimuli/rescaled_final/1078_fw.mp4	0.0	296.50888204574585	0.1000821590423584
65	276.5570330619812	fix_pre	0		120	63.0	2.5	/experiments/AOT/AOT_stimuli/rescaled_final/0443_fw.mp4	0.0	296.6089642047882	0.9998140335083008
65	277.5568470954895	movie	1		245	63.0	2.5	/experiments/AOT/AOT_stimuli/rescaled_final/0443_fw.mp4	0.0	297.6087782382965	2.5000438690185547
65	277.9399058818817	pulse	1	t		63.0	2.5	/experiments/AOT/AOT_stimuli/rescaled_final/0443_fw.mp4	0.0	297.9918370246887	
65	279.53304290771484	pulse	1	t		63.0	2.5	/experiments/AOT/AOT_stimuli/rescaled_final/0443_fw.mp4	0.0	299.58497405052185	
65	280.05689096450806	fix_post	2		12	63.0	2.5	/experiments/AOT/AOT_stimuli/rescaled_final/0443_fw.mp4	0.0	300.10882210731506	0.09998202323913574
66	280.1568729877472	fix_pre	0		119	64.0	2.5	/experiments/AOT/AOT_stimuli/rescaled_final/0527_fw.mp4	0.0	300.2088041305542	0.9916799068450928
66	281.1404469013214	pulse	0	t		64.0	2.5	/experiments/AOT/AOT_stimuli/rescaled_final/0527_fw.mp4	0.0	301.1923780441284	
66	281.1485528945923	movie	1		244	64.0	2.5	/experiments/AOT/AOT_stimuli/rescaled_final/0527_fw.mp4	0.0	301.2004840373993	2.507869005203247
66	282.73988103866577	pulse	1	t		64.0	2.5	/experiments/AOT/AOT_stimuli/rescaled_final/0527_fw.mp4	0.0	302.7918121814728	
66	283.65642189979553	fix_post	2		12	64.0	2.5	/experiments/AOT/AOT_stimuli/rescaled_final/0527_fw.mp4	0.0	303.70835304260254	0.10047507286071777
67	283.75689697265625	fix_pre	0		120	65.0	2.5	/experiments/AOT/AOT_stimuli/rescaled_final/0355_fw.mp4	0.0	303.80882811546326	0.9998910427093506
67	284.3404459953308	pulse	0	t		65.0	2.5	/experiments/AOT/AOT_stimuli/rescaled_final/0355_fw.mp4	0.0	304.3923771381378	
67	284.7567880153656	movie	1		245	65.0	2.5	/experiments/AOT/AOT_stimuli/rescaled_final/0355_fw.mp4	0.0	304.8087191581726	2.5001139640808105
67	285.94043803215027	pulse	1	t		65.0	2.5	/experiments/AOT/AOT_stimuli/rescaled_final/0355_fw.mp4	0.0	305.9923691749573	
67	287.2569019794464	fix_post	2		12	65.0	2.5	/experiments/AOT/AOT_stimuli/rescaled_final/0355_fw.mp4	0.0	307.3088331222534	0.09993290901184082
68	287.35683488845825	fix_pre	0		120	66.0	2.5	/experiments/AOT/AOT_stimuli/rescaled_final/0369_fw.mp4	0.0	307.40876603126526	1.000028133392334
68	287.54035997390747	pulse	0	t		66.0	2.5	/experiments/AOT/AOT_stimuli/rescaled_final/0369_fw.mp4	0.0	307.5922911167145	
68	288.3568630218506	movie	1		245	66.0	2.5	/experiments/AOT/AOT_stimuli/rescaled_final/0369_fw.mp4	0.0	308.4087941646576	2.4995670318603516
68	289.1403670310974	pulse	1	t		66.0	2.5	/experiments/AOT/AOT_stimuli/rescaled_final/0369_fw.mp4	0.0	309.1922981739044	
68	290.7389008998871	pulse	1	t		66.0	2.5	/experiments/AOT/AOT_stimuli/rescaled_final/0369_fw.mp4	0.0	310.7908320426941	
68	290.85643005371094	fix_post	2		12	66.0	2.5	/experiments/AOT/AOT_stimuli/rescaled_final/0369_fw.mp4	0.0	310.90836119651794	0.10043692588806152
69	290.956866979599	fix_pre	0		120	67.0	2.5	/experiments/AOT/AOT_stimuli/rescaled_final/0796_rv.mp4	0.0	311.008798122406	1.0000340938568115
69	291.9569010734558	movie	1		243	67.0	2.5	/experiments/AOT/AOT_stimuli/rescaled_final/0796_rv.mp4	0.0	312.0088322162628	2.499889850616455
69	292.33980989456177	pulse	1	t		67.0	2.5	/experiments/AOT/AOT_stimuli/rescaled_final/0796_rv.mp4	0.0	312.3917410373688	
69	293.9331018924713	pulse	1	t		67.0	2.5	/experiments/AOT/AOT_stimuli/rescaled_final/0796_rv.mp4	0.0	313.9850330352783	
69	294.45679092407227	fix_post	2		12	67.0	2.5	/experiments/AOT/AOT_stimuli/rescaled_final/0796_rv.mp4	0.0	314.5087220668793	0.10008001327514648
70	294.5568709373474	fix_pre	0		119	68.0	2.5	/experiments/AOT/AOT_stimuli/rescaled_final/1545_fw.mp4	0.0	314.6088020801544	0.9916200637817383
70	295.5327858924866	pulse	0	t		68.0	2.5	/experiments/AOT/AOT_stimuli/rescaled_final/1545_fw.mp4	0.0	315.5847170352936	
70	295.54849100112915	movie	1		244	68.0	2.5	/experiments/AOT/AOT_stimuli/rescaled_final/1545_fw.mp4	0.0	315.60042214393616	2.508375883102417
70	297.13989210128784	pulse	1	t		68.0	2.5	/experiments/AOT/AOT_stimuli/rescaled_final/1545_fw.mp4	0.0	317.19182324409485	
70	298.05686688423157	fix_post	2		12	68.0	2.5	/experiments/AOT/AOT_stimuli/rescaled_final/1545_fw.mp4	0.0	318.1087980270386	0.10001420974731445
71	298.1568810939789	fix_pre	0		120	69.0	2.5	blank	1.0	318.2088122367859	0.9999749660491943
71	298.7402539253235	pulse	0	t		69.0	2.5	blank	1.0	318.7921850681305	
71	299.1568560600281	movie	1		300	69.0	2.5	blank	1.0	319.2087872028351	2.5000088214874268
71	300.3402578830719	pulse	1	t		69.0	2.5	blank	1.0	320.3921890258789	
71	301.6568648815155	fix_post	2		12	69.0	2.5	blank	1.0	321.7087960243225	0.09995913505554199
72	301.75682401657104	fix_pre	0		120	70.0	2.5	/experiments/AOT/AOT_stimuli/rescaled_final/0329_rv.mp4	0.0	321.80875515937805	1.0000269412994385
72	301.9402508735657	pulse	0	t		70.0	2.5	/experiments/AOT/AOT_stimuli/rescaled_final/0329_rv.mp4	0.0	321.9921820163727	
72	302.7568509578705	movie	1		243	70.0	2.5	/experiments/AOT/AOT_stimuli/rescaled_final/0329_rv.mp4	0.0	322.8087821006775	2.5001730918884277
72	303.53980708122253	pulse	1	t		70.0	2.5	/experiments/AOT/AOT_stimuli/rescaled_final/0329_rv.mp4	0.0	323.59173822402954	
72	305.1387429237366	pulse	1	t		70.0	2.5	/experiments/AOT/AOT_stimuli/rescaled_final/0329_rv.mp4	0.0	325.1906740665436	
72	305.2570240497589	fix_post	2		12	70.0	2.5	/experiments/AOT/AOT_stimuli/rescaled_final/0329_rv.mp4	0.0	325.3089551925659	0.0995328426361084
73	305.356556892395	fix_pre	0		120	71.0	2.5	/experiments/AOT/AOT_stimuli/rescaled_final/1639_fw.mp4	0.0	325.408488035202	1.0005340576171875
73	306.3570909500122	movie	1		242	71.0	2.5	/experiments/AOT/AOT_stimuli/rescaled_final/1639_fw.mp4	0.0	326.4090220928192	2.4997029304504395
73	306.74072790145874	pulse	1	t		71.0	2.5	/experiments/AOT/AOT_stimuli/rescaled_final/1639_fw.mp4	0.0	326.79265904426575	
73	308.3329019546509	pulse	1	t		71.0	2.5	/experiments/AOT/AOT_stimuli/rescaled_final/1639_fw.mp4	0.0	328.3848330974579	
73	308.85679388046265	fix_post	2		12	71.0	2.5	/experiments/AOT/AOT_stimuli/rescaled_final/1639_fw.mp4	0.0	328.90872502326965	0.09995603561401367
74	308.95674991607666	fix_pre	0		119	72.0	2.5	/experiments/AOT/AOT_stimuli/rescaled_final/1601_rv.mp4	0.0	329.00868105888367	0.9917290210723877
74	309.9327480792999	pulse	0	t		72.0	2.5	/experiments/AOT/AOT_stimuli/rescaled_final/1601_rv.mp4	0.0	329.98467922210693	
74	309.94847893714905	movie	1		245	72.0	2.5	/experiments/AOT/AOT_stimuli/rescaled_final/1601_rv.mp4	0.0	330.00041007995605	2.508167028427124
74	311.53983902931213	pulse	1	t		72.0	2.5	/experiments/AOT/AOT_stimuli/rescaled_final/1601_rv.mp4	0.0	331.59177017211914	
74	312.4566459655762	fix_post	2		12	72.0	2.5	/experiments/AOT/AOT_stimuli/rescaled_final/1601_rv.mp4	0.0	332.5085771083832	0.10008502006530762
75	312.5567309856415	fix_pre	0		120	73.0	2.5	/experiments/AOT/AOT_stimuli/rescaled_final/1586_rv.mp4	0.0	332.6086621284485	1.0000898838043213
75	313.14021706581116	pulse	0	t		73.0	2.5	/experiments/AOT/AOT_stimuli/rescaled_final/1586_rv.mp4	0.0	333.19214820861816	
75	313.5568208694458	movie	1		245	73.0	2.5	/experiments/AOT/AOT_stimuli/rescaled_final/1586_rv.mp4	0.0	333.6087520122528	2.499479055404663
75	314.7402620315552	pulse	1	t		73.0	2.5	/experiments/AOT/AOT_stimuli/rescaled_final/1586_rv.mp4	0.0	334.7921931743622	
75	316.05629992485046	fix_post	2		12	73.0	2.5	/experiments/AOT/AOT_stimuli/rescaled_final/1586_rv.mp4	0.0	336.10823106765747	0.1003870964050293
76	316.1566870212555	fix_pre	0		120	74.0	2.5	/experiments/AOT/AOT_stimuli/rescaled_final/1745_rv.mp4	0.0	336.2086181640625	1.000011920928955
76	316.3401939868927	pulse	0	t		74.0	2.5	/experiments/AOT/AOT_stimuli/rescaled_final/1745_rv.mp4	0.0	336.3921251296997	
76	317.15669894218445	movie	1		245	74.0	2.5	/experiments/AOT/AOT_stimuli/rescaled_final/1745_rv.mp4	0.0	337.20863008499146	2.500113010406494
76	317.9402050971985	pulse	1	t		74.0	2.5	/experiments/AOT/AOT_stimuli/rescaled_final/1745_rv.mp4	0.0	337.9921362400055	
76	319.53838205337524	pulse	1	t		74.0	2.5	/experiments/AOT/AOT_stimuli/rescaled_final/1745_rv.mp4	0.0	339.59031319618225	
76	319.65681195259094	fix_post	2		12	74.0	2.5	/experiments/AOT/AOT_stimuli/rescaled_final/1745_rv.mp4	0.0	339.70874309539795	0.09989714622497559
77	319.7567090988159	fix_pre	0		120	75.0	2.5	/experiments/AOT/AOT_stimuli/rescaled_final/1126_rv.mp4	0.0	339.8086402416229	1.0000507831573486
77	320.75675988197327	movie	1		246	75.0	2.5	/experiments/AOT/AOT_stimuli/rescaled_final/1126_rv.mp4	0.0	340.8086910247803	2.4999310970306396
77	321.13964796066284	pulse	1	t		75.0	2.5	/experiments/AOT/AOT_stimuli/rescaled_final/1126_rv.mp4	0.0	341.19157910346985	
77	322.74013900756836	pulse	1	t		75.0	2.5	/experiments/AOT/AOT_stimuli/rescaled_final/1126_rv.mp4	0.0	342.79207015037537	
77	323.2566909790039	fix_post	2		12	75.0	2.5	/experiments/AOT/AOT_stimuli/rescaled_final/1126_rv.mp4	0.0	343.3086221218109	0.10007500648498535
78	323.3567659854889	fix_pre	0		119	76.0	2.5	blank	1.0	343.4086971282959	0.9916191101074219
78	324.34022307395935	pulse	0	t		76.0	2.5	blank	1.0	344.39215421676636	
78	324.3483850955963	movie	1		301	76.0	2.5	blank	1.0	344.4003162384033	2.508394956588745
78	325.94023299217224	pulse	1	t		76.0	2.5	blank	1.0	345.99216413497925	
78	326.85678005218506	fix_post	2		12	76.0	2.5	blank	1.0	346.90871119499207	0.0999598503112793
79	326.95673990249634	fix_pre	0		120	77.0	2.5	/experiments/AOT/AOT_stimuli/rescaled_final/0443_rv.mp4	0.0	347.00867104530334	0.9999780654907227
79	327.5327150821686	pulse	0	t		77.0	2.5	/experiments/AOT/AOT_stimuli/rescaled_final/0443_rv.mp4	0.0	347.5846462249756	
79	327.95671796798706	movie	1		244	77.0	2.5	/experiments/AOT/AOT_stimuli/rescaled_final/0443_rv.mp4	0.0	348.00864911079407	2.5000760555267334
79	329.1402599811554	pulse	1	t		77.0	2.5	/experiments/AOT/AOT_stimuli/rescaled_final/0443_rv.mp4	0.0	349.1921911239624	
79	330.4567940235138	fix_post	2		12	77.0	2.5	/experiments/AOT/AOT_stimuli/rescaled_final/0443_rv.mp4	0.0	350.5087251663208	0.09994792938232422
80	330.5567419528961	fix_pre	0		120	78.0	2.5	/experiments/AOT/AOT_stimuli/rescaled_final/2151_fw.mp4	0.0	350.6086730957031	0.9998180866241455
80	330.74018907546997	pulse	0	t		78.0	2.5	/experiments/AOT/AOT_stimuli/rescaled_final/2151_fw.mp4	0.0	350.792120218277	
80	331.55656003952026	movie	1		246	78.0	2.5	/experiments/AOT/AOT_stimuli/rescaled_final/2151_fw.mp4	0.0	351.60849118232727	2.500114917755127
80	332.3402190208435	pulse	1	t		78.0	2.5	/experiments/AOT/AOT_stimuli/rescaled_final/2151_fw.mp4	0.0	352.3921501636505	
80	333.93890595436096	pulse	1	t		78.0	2.5	/experiments/AOT/AOT_stimuli/rescaled_final/2151_fw.mp4	0.0	353.99083709716797	
80	334.0566749572754	fix_post	2		12	78.0	2.5	/experiments/AOT/AOT_stimuli/rescaled_final/2151_fw.mp4	0.0	354.1086061000824	0.0999751091003418
81	334.15665006637573	fix_pre	0		120	79.0	2.5	/experiments/AOT/AOT_stimuli/rescaled_final/0693_fw.mp4	0.0	354.20858120918274	1.000044822692871
81	335.1566948890686	movie	1		244	79.0	2.5	/experiments/AOT/AOT_stimuli/rescaled_final/0693_fw.mp4	0.0	355.2086260318756	2.4998819828033447
81	335.5396909713745	pulse	1	t		79.0	2.5	/experiments/AOT/AOT_stimuli/rescaled_final/0693_fw.mp4	0.0	355.5916221141815	
81	337.14011096954346	pulse	1	t		79.0	2.5	/experiments/AOT/AOT_stimuli/rescaled_final/0693_fw.mp4	0.0	357.19204211235046	
81	337.65657687187195	fix_post	2		12	79.0	2.5	/experiments/AOT/AOT_stimuli/rescaled_final/0693_fw.mp4	0.0	357.70850801467896	0.10004210472106934
82	337.756618976593	fix_pre	0		119	80.0	2.5	/experiments/AOT/AOT_stimuli/rescaled_final/1732_fw.mp4	0.0	357.8085501194	0.9916379451751709
82	338.7401559352875	pulse	0	t		80.0	2.5	/experiments/AOT/AOT_stimuli/rescaled_final/1732_fw.mp4	0.0	358.7920870780945	
82	338.7482569217682	movie	1		245	80.0	2.5	/experiments/AOT/AOT_stimuli/rescaled_final/1732_fw.mp4	0.0	358.8001880645752	2.5082991123199463
82	340.33986592292786	pulse	1	t		80.0	2.5	/experiments/AOT/AOT_stimuli/rescaled_final/1732_fw.mp4	0.0	360.39179706573486	
82	341.25655603408813	fix_post	2		12	80.0	2.5	/experiments/AOT/AOT_stimuli/rescaled_final/1732_fw.mp4	0.0	361.30848717689514	0.1000978946685791
83	341.3566539287567	fix_pre	0		120	81.0	2.5	/experiments/AOT/AOT_stimuli/rescaled_final/1125_fw.mp4	0.0	361.4085850715637	0.9999721050262451
83	341.94012689590454	pulse	0	t		81.0	2.5	/experiments/AOT/AOT_stimuli/rescaled_final/1125_fw.mp4	0.0	361.99205803871155	
83	342.35662603378296	movie	1		245	81.0	2.5	/experiments/AOT/AOT_stimuli/rescaled_final/1125_fw.mp4	0.0	362.40855717658997	2.499553918838501
83	343.5401020050049	pulse	1	t		81.0	2.5	/experiments/AOT/AOT_stimuli/rescaled_final/1125_fw.mp4	0.0	363.5920331478119	
83	344.85617995262146	fix_post	2		12	81.0	2.5	/experiments/AOT/AOT_stimuli/rescaled_final/1125_fw.mp4	0.0	364.90811109542847	0.10044503211975098
84	344.9566249847412	fix_pre	0		120	82.0	2.5	/experiments/AOT/AOT_stimuli/rescaled_final/1639_rv.mp4	0.0	365.0085561275482	1.000035047531128
84	345.13258695602417	pulse	0	t		82.0	2.5	/experiments/AOT/AOT_stimuli/rescaled_final/1639_rv.mp4	0.0	365.1845180988312	
84	345.95666003227234	movie	1		244	82.0	2.5	/experiments/AOT/AOT_stimuli/rescaled_final/1639_rv.mp4	0.0	366.00859117507935	2.499959945678711
84	346.73999404907227	pulse	1	t		82.0	2.5	/experiments/AOT/AOT_stimuli/rescaled_final/1639_rv.mp4	0.0	366.7919251918793	
84	348.3384258747101	pulse	1	t		82.0	2.5	/experiments/AOT/AOT_stimuli/rescaled_final/1639_rv.mp4	0.0	368.3903570175171	
84	348.45661997795105	fix_post	2		12	82.0	2.5	/experiments/AOT/AOT_stimuli/rescaled_final/1639_rv.mp4	0.0	368.50855112075806	0.09990692138671875
85	348.55652689933777	fix_pre	0		120	83.0	2.5	blank	1.0	368.6084580421448	1.0000331401824951
85	349.55656003952026	movie	1		300	83.0	2.5	blank	1.0	369.60849118232727	2.499953031539917
85	349.9400849342346	pulse	1	t		83.0	2.5	blank	1.0	369.9920160770416	
85	351.5399520397186	pulse	1	t		83.0	2.5	blank	1.0	371.59188318252563	
85	352.0565130710602	fix_post	2		12	83.0	2.5	blank	1.0	372.1084442138672	0.1000068187713623
87	352.15651988983154	stim	0		1716					372.20845103263855	14.300049066543579
87	353.1400969028473	pulse	0	t						373.1920280456543	
87	354.7401189804077	pulse	0	t						374.7920501232147	
87	356.3400499820709	pulse	0	t						376.39198112487793	
87	357.94011902809143	pulse	0	t						377.99205017089844	
87	359.5401179790497	pulse	0	t						379.5920491218567	
87	361.13277792930603	pulse	0	t						381.18470907211304	
87	362.73995995521545	pulse	0	t						382.79189109802246	
87	364.3399660587311	pulse	0	t						384.3918972015381	
87	365.93999195098877	pulse	0	t						385.9919230937958	
