trial_nr	onset	event_type	phase	response	nr_frames	movie_index	movie_duration	movie_file	blank	onset_abs	duration
0	0.16652679443359375	stim	0		1					16.18677020072937	0.008260965347290039
0	0.16785407066345215	response	0	space						16.18809747695923	
1	0.1747877597808838	stim	0		3483					16.19503116607666	29.04065203666687
1	29.205132007598877	pulse	0	t						45.22537541389465	
1	29.215439796447754	stim	1		1716					45.23568320274353	14.307489156723022
1	30.796263933181763	pulse	1	t						46.81650733947754	
1	32.396461486816406	pulse	1	t						48.41670489311218	
1	33.99673891067505	pulse	1	t						50.016982316970825	
1	35.59691047668457	pulse	1	t						51.61715388298035	
1	37.18959951400757	pulse	1	t						53.209842920303345	
1	38.79012131690979	pulse	1	t						54.810364723205566	
1	40.38973069190979	pulse	1	t						56.409974098205566	
1	41.98974847793579	pulse	1	t						58.00999188423157	
2	43.522928953170776	fix_pre	0		9	0.0	2.5	/experiments/Knapen_AOT/AOT_stimuli/rescaled_final/0343_rv.mp4	0.0	59.54317235946655	0.09170770645141602
2	43.58992671966553	pulse	0	t		0.0	2.5	/experiments/Knapen_AOT/AOT_stimuli/rescaled_final/0343_rv.mp4	0.0	59.610170125961304	
2	43.61463665962219	movie	1		276	0.0	2.5	/experiments/Knapen_AOT/AOT_stimuli/rescaled_final/0343_rv.mp4	0.0	59.63488006591797	2.4920520782470703
2	45.18970584869385	pulse	1	t		0.0	2.5	/experiments/Knapen_AOT/AOT_stimuli/rescaled_final/0343_rv.mp4	0.0	61.209949254989624	
2	46.10668873786926	fix_post	2		12	0.0	2.5	/experiments/Knapen_AOT/AOT_stimuli/rescaled_final/0343_rv.mp4	0.0	62.12693214416504	0.10001802444458008
3	46.20670676231384	fix_pre	0		120	1.0	2.5	/experiments/Knapen_AOT/AOT_stimuli/rescaled_final/0652_rv.mp4	0.0	62.22695016860962	1.0084600448608398
3	46.790305852890015	pulse	0	t		1.0	2.5	/experiments/Knapen_AOT/AOT_stimuli/rescaled_final/0652_rv.mp4	0.0	62.81054925918579	
3	47.21516680717468	movie	1		281	1.0	2.5	/experiments/Knapen_AOT/AOT_stimuli/rescaled_final/0652_rv.mp4	0.0	63.23541021347046	2.4920666217803955
3	48.390629053115845	pulse	1	t		1.0	2.5	/experiments/Knapen_AOT/AOT_stimuli/rescaled_final/0652_rv.mp4	0.0	64.41087245941162	
3	49.70723342895508	fix_post	2		12	1.0	2.5	/experiments/Knapen_AOT/AOT_stimuli/rescaled_final/0652_rv.mp4	0.0	65.72747683525085	0.09998250007629395
4	49.80721592903137	fix_pre	0		120	2.0	2.5	/experiments/Knapen_AOT/AOT_stimuli/rescaled_final/1853_fw.mp4	0.0	65.82745933532715	1.0084669589996338
4	49.990856647491455	pulse	0	t		2.0	2.5	/experiments/Knapen_AOT/AOT_stimuli/rescaled_final/1853_fw.mp4	0.0	66.01110005378723	
4	50.815682888031006	movie	1		288	2.0	2.5	/experiments/Knapen_AOT/AOT_stimuli/rescaled_final/1853_fw.mp4	0.0	66.83592629432678	2.4921910762786865
4	51.59101438522339	pulse	1	t		2.0	2.5	/experiments/Knapen_AOT/AOT_stimuli/rescaled_final/1853_fw.mp4	0.0	67.61125779151917	
4	53.19166541099548	pulse	1	t		2.0	2.5	/experiments/Knapen_AOT/AOT_stimuli/rescaled_final/1853_fw.mp4	0.0	69.21190881729126	
4	53.30787396430969	fix_post	2		12	2.0	2.5	/experiments/Knapen_AOT/AOT_stimuli/rescaled_final/1853_fw.mp4	0.0	69.32811737060547	0.09990453720092773
5	53.40777850151062	fix_pre	0		120	3.0	2.5	/experiments/Knapen_AOT/AOT_stimuli/rescaled_final/0759_rv.mp4	0.0	69.4280219078064	1.0084519386291504
5	54.41623044013977	movie	1		282	3.0	2.5	/experiments/Knapen_AOT/AOT_stimuli/rescaled_final/0759_rv.mp4	0.0	70.43647384643555	2.4920260906219482
5	54.79078698158264	pulse	1	t		3.0	2.5	/experiments/Knapen_AOT/AOT_stimuli/rescaled_final/0759_rv.mp4	0.0	70.81103038787842	
5	56.38988971710205	pulse	1	t		3.0	2.5	/experiments/Knapen_AOT/AOT_stimuli/rescaled_final/0759_rv.mp4	0.0	72.41013312339783	
5	56.90825653076172	fix_post	2		12	3.0	2.5	/experiments/Knapen_AOT/AOT_stimuli/rescaled_final/0759_rv.mp4	0.0	72.9284999370575	0.10007381439208984
6	57.00833034515381	fix_pre	0		119	4.0	2.5	/experiments/Knapen_AOT/AOT_stimuli/rescaled_final/1062_rv.mp4	0.0	73.02857375144958	1.000115156173706
6	57.992010831832886	pulse	0	t		4.0	2.5	/experiments/Knapen_AOT/AOT_stimuli/rescaled_final/1062_rv.mp4	0.0	74.01225423812866	
6	58.008445501327515	movie	1		292	4.0	2.5	/experiments/Knapen_AOT/AOT_stimuli/rescaled_final/1062_rv.mp4	0.0	74.02868890762329	2.500406503677368
6	59.590768337249756	pulse	1	t		4.0	2.5	/experiments/Knapen_AOT/AOT_stimuli/rescaled_final/1062_rv.mp4	0.0	75.61101174354553	
6	60.50885200500488	fix_post	2		12	4.0	2.5	/experiments/Knapen_AOT/AOT_stimuli/rescaled_final/1062_rv.mp4	0.0	76.52909541130066	0.10003781318664551
7	60.60888981819153	fix_pre	0		120	5.0	2.5	/experiments/Knapen_AOT/AOT_stimuli/rescaled_final/1088_rv.mp4	0.0	76.6291332244873	1.0084259510040283
7	61.19247555732727	pulse	0	t		5.0	2.5	/experiments/Knapen_AOT/AOT_stimuli/rescaled_final/1088_rv.mp4	0.0	77.21271896362305	
7	61.61731576919556	movie	1		280	5.0	2.5	/experiments/Knapen_AOT/AOT_stimuli/rescaled_final/1088_rv.mp4	0.0	77.63755917549133	2.4920289516448975
7	62.790788888931274	pulse	1	t		5.0	2.5	/experiments/Knapen_AOT/AOT_stimuli/rescaled_final/1088_rv.mp4	0.0	78.81103229522705	
7	64.10934472084045	fix_post	2		12	5.0	2.5	/experiments/Knapen_AOT/AOT_stimuli/rescaled_final/1088_rv.mp4	0.0	80.12958812713623	0.10002517700195312
8	64.20936989784241	fix_pre	0		120	6.0	2.5	blank	1.0	80.22961330413818	1.0001637935638428
8	64.39290070533752	pulse	0	t		6.0	2.5	blank	1.0	80.4131441116333	
8	65.20953369140625	movie	1		300	6.0	2.5	blank	1.0	81.22977709770203	2.5004208087921143
8	65.99319839477539	pulse	1	t		6.0	2.5	blank	1.0	82.01344180107117	
8	67.59336996078491	pulse	1	t		6.0	2.5	blank	1.0	83.61361336708069	
8	67.70995450019836	fix_post	2		12	6.0	2.5	blank	1.0	83.73019790649414	0.1000211238861084
9	67.80997562408447	fix_pre	0		120	7.0	2.5	/experiments/Knapen_AOT/AOT_stimuli/rescaled_final/0342_rv.mp4	0.0	83.83021903038025	1.0085365772247314
9	68.8185122013092	movie	1		287	7.0	2.5	/experiments/Knapen_AOT/AOT_stimuli/rescaled_final/0342_rv.mp4	0.0	84.83875560760498	2.491929531097412
9	69.19226336479187	pulse	1	t		7.0	2.5	/experiments/Knapen_AOT/AOT_stimuli/rescaled_final/0342_rv.mp4	0.0	85.21250677108765	
9	70.79151010513306	pulse	1	t		7.0	2.5	/experiments/Knapen_AOT/AOT_stimuli/rescaled_final/0342_rv.mp4	0.0	86.81175351142883	
9	71.31044173240662	fix_post	2		12	7.0	2.5	/experiments/Knapen_AOT/AOT_stimuli/rescaled_final/0342_rv.mp4	0.0	87.33068513870239	0.10005378723144531
10	71.41049551963806	fix_pre	0		119	8.0	2.5	/experiments/Knapen_AOT/AOT_stimuli/rescaled_final/2065_rv.mp4	0.0	87.43073892593384	1.0001370906829834
10	72.39425468444824	pulse	0	t		8.0	2.5	/experiments/Knapen_AOT/AOT_stimuli/rescaled_final/2065_rv.mp4	0.0	88.41449809074402	
10	72.41063261032104	movie	1		291	8.0	2.5	/experiments/Knapen_AOT/AOT_stimuli/rescaled_final/2065_rv.mp4	0.0	88.43087601661682	2.500448703765869
10	73.99262762069702	pulse	1	t		8.0	2.5	/experiments/Knapen_AOT/AOT_stimuli/rescaled_final/2065_rv.mp4	0.0	90.0128710269928	
10	74.91108131408691	fix_post	2		12	8.0	2.5	/experiments/Knapen_AOT/AOT_stimuli/rescaled_final/2065_rv.mp4	0.0	90.93132472038269	0.09996414184570312
11	75.01104545593262	fix_pre	0		120	9.0	2.5	/experiments/Knapen_AOT/AOT_stimuli/rescaled_final/0361_fw.mp4	0.0	91.0312888622284	1.0084402561187744
11	75.59462785720825	pulse	0	t		9.0	2.5	/experiments/Knapen_AOT/AOT_stimuli/rescaled_final/0361_fw.mp4	0.0	91.61487126350403	
11	76.01948571205139	movie	1		282	9.0	2.5	/experiments/Knapen_AOT/AOT_stimuli/rescaled_final/0361_fw.mp4	0.0	92.03972911834717	2.492098331451416
11	77.19310235977173	pulse	1	t		9.0	2.5	/experiments/Knapen_AOT/AOT_stimuli/rescaled_final/0361_fw.mp4	0.0	93.2133457660675	
11	78.51158404350281	fix_post	2		12	9.0	2.5	/experiments/Knapen_AOT/AOT_stimuli/rescaled_final/0361_fw.mp4	0.0	94.53182744979858	0.10007238388061523
12	78.61165642738342	fix_pre	0		120	10.0	2.5	/experiments/Knapen_AOT/AOT_stimuli/rescaled_final/0683_fw.mp4	0.0	94.6318998336792	1.0083732604980469
12	78.79510188102722	pulse	0	t		10.0	2.5	/experiments/Knapen_AOT/AOT_stimuli/rescaled_final/0683_fw.mp4	0.0	94.815345287323	
12	79.62002968788147	movie	1		287	10.0	2.5	/experiments/Knapen_AOT/AOT_stimuli/rescaled_final/0683_fw.mp4	0.0	95.64027309417725	2.492155075073242
12	80.39314270019531	pulse	1	t		10.0	2.5	/experiments/Knapen_AOT/AOT_stimuli/rescaled_final/0683_fw.mp4	0.0	96.41338610649109	
12	81.99355673789978	pulse	1	t		10.0	2.5	/experiments/Knapen_AOT/AOT_stimuli/rescaled_final/0683_fw.mp4	0.0	98.01380014419556	
12	82.11218476295471	fix_post	2		12	10.0	2.5	/experiments/Knapen_AOT/AOT_stimuli/rescaled_final/0683_fw.mp4	0.0	98.13242816925049	0.09993863105773926
13	82.21212339401245	fix_pre	0		120	11.0	2.5	/experiments/Knapen_AOT/AOT_stimuli/rescaled_final/0192_rv.mp4	0.0	98.23236680030823	1.00844144821167
13	83.22056484222412	movie	1		281	11.0	2.5	/experiments/Knapen_AOT/AOT_stimuli/rescaled_final/0192_rv.mp4	0.0	99.2408082485199	2.4920403957366943
13	83.59596419334412	pulse	1	t		11.0	2.5	/experiments/Knapen_AOT/AOT_stimuli/rescaled_final/0192_rv.mp4	0.0	99.61620759963989	
13	85.19421172142029	pulse	1	t		11.0	2.5	/experiments/Knapen_AOT/AOT_stimuli/rescaled_final/0192_rv.mp4	0.0	101.21445512771606	
13	85.71260523796082	fix_post	2		12	11.0	2.5	/experiments/Knapen_AOT/AOT_stimuli/rescaled_final/0192_rv.mp4	0.0	101.73284864425659	0.10006022453308105
14	85.8126654624939	fix_pre	0		119	12.0	2.5	blank	1.0	101.83290886878967	0.991828441619873
14	86.7963764667511	pulse	0	t		12.0	2.5	blank	1.0	102.81661987304688	
14	86.80449390411377	movie	1		301	12.0	2.5	blank	1.0	102.82473731040955	2.5086588859558105
14	88.3965334892273	pulse	1	t		12.0	2.5	blank	1.0	104.41677689552307	
14	89.31315279006958	fix_post	2		12	12.0	2.5	blank	1.0	105.33339619636536	0.10020017623901367
15	89.4133529663086	fix_pre	0		120	13.0	2.5	/experiments/Knapen_AOT/AOT_stimuli/rescaled_final/1304_rv.mp4	0.0	105.43359637260437	1.0083086490631104
15	89.9968204498291	pulse	0	t		13.0	2.5	/experiments/Knapen_AOT/AOT_stimuli/rescaled_final/1304_rv.mp4	0.0	106.01706385612488	
15	90.4216616153717	movie	1		274	13.0	2.5	/experiments/Knapen_AOT/AOT_stimuli/rescaled_final/1304_rv.mp4	0.0	106.44190502166748	2.4920248985290527
15	91.59604167938232	pulse	1	t		13.0	2.5	/experiments/Knapen_AOT/AOT_stimuli/rescaled_final/1304_rv.mp4	0.0	107.6162850856781	
15	92.91368651390076	fix_post	2		12	13.0	2.5	/experiments/Knapen_AOT/AOT_stimuli/rescaled_final/1304_rv.mp4	0.0	108.93392992019653	0.10001134872436523
16	93.01369786262512	fix_pre	0		120	14.0	2.5	/experiments/Knapen_AOT/AOT_stimuli/rescaled_final/0610_fw.mp4	0.0	109.0339412689209	1.0085394382476807
16	93.19730186462402	pulse	0	t		14.0	2.5	/experiments/Knapen_AOT/AOT_stimuli/rescaled_final/0610_fw.mp4	0.0	109.2175452709198	
16	94.0222373008728	movie	1		282	14.0	2.5	/experiments/Knapen_AOT/AOT_stimuli/rescaled_final/0610_fw.mp4	0.0	110.04248070716858	2.4920904636383057
16	94.79567909240723	pulse	1	t		14.0	2.5	/experiments/Knapen_AOT/AOT_stimuli/rescaled_final/0610_fw.mp4	0.0	110.815922498703	
16	96.39604043960571	pulse	1	t		14.0	2.5	/experiments/Knapen_AOT/AOT_stimuli/rescaled_final/0610_fw.mp4	0.0	112.41628384590149	
16	96.51432776451111	fix_post	2		12	14.0	2.5	/experiments/Knapen_AOT/AOT_stimuli/rescaled_final/0610_fw.mp4	0.0	112.53457117080688	0.10001993179321289
17	96.61434769630432	fix_pre	0		120	15.0	2.5	/experiments/Knapen_AOT/AOT_stimuli/rescaled_final/1396_rv.mp4	0.0	112.6345911026001	1.0084171295166016
17	97.62276482582092	movie	1		283	15.0	2.5	/experiments/Knapen_AOT/AOT_stimuli/rescaled_final/1396_rv.mp4	0.0	113.6430082321167	2.492003917694092
17	97.98973512649536	pulse	1	t		15.0	2.5	/experiments/Knapen_AOT/AOT_stimuli/rescaled_final/1396_rv.mp4	0.0	114.00997853279114	
17	99.59021210670471	pulse	1	t		15.0	2.5	/experiments/Knapen_AOT/AOT_stimuli/rescaled_final/1396_rv.mp4	0.0	115.61045551300049	
17	100.11476874351501	fix_post	2		12	15.0	2.5	/experiments/Knapen_AOT/AOT_stimuli/rescaled_final/1396_rv.mp4	0.0	116.13501214981079	0.1000053882598877
18	100.2147741317749	fix_pre	0		118	16.0	2.5	/experiments/Knapen_AOT/AOT_stimuli/rescaled_final/0589_fw.mp4	0.0	116.23501753807068	0.9918222427368164
18	101.19012451171875	pulse	0	t		16.0	2.5	/experiments/Knapen_AOT/AOT_stimuli/rescaled_final/0589_fw.mp4	0.0	117.21036791801453	
18	101.20659637451172	movie	1		272	16.0	2.5	/experiments/Knapen_AOT/AOT_stimuli/rescaled_final/0589_fw.mp4	0.0	117.2268397808075	2.5003695487976074
18	102.7908627986908	pulse	1	t		16.0	2.5	/experiments/Knapen_AOT/AOT_stimuli/rescaled_final/0589_fw.mp4	0.0	118.81110620498657	
18	103.70696592330933	fix_post	2		12	16.0	2.5	/experiments/Knapen_AOT/AOT_stimuli/rescaled_final/0589_fw.mp4	0.0	119.7272093296051	0.10004711151123047
19	103.80701303482056	fix_pre	0		120	17.0	2.5	/experiments/Knapen_AOT/AOT_stimuli/rescaled_final/1240_fw.mp4	0.0	119.82725644111633	1.0085086822509766
19	104.39064598083496	pulse	0	t		17.0	2.5	/experiments/Knapen_AOT/AOT_stimuli/rescaled_final/1240_fw.mp4	0.0	120.41088938713074	
19	104.81552171707153	movie	1		278	17.0	2.5	/experiments/Knapen_AOT/AOT_stimuli/rescaled_final/1240_fw.mp4	0.0	120.83576512336731	2.491994619369507
19	105.99112200737	pulse	1	t		17.0	2.5	/experiments/Knapen_AOT/AOT_stimuli/rescaled_final/1240_fw.mp4	0.0	122.01136541366577	
19	107.30751633644104	fix_post	2		12	17.0	2.5	/experiments/Knapen_AOT/AOT_stimuli/rescaled_final/1240_fw.mp4	0.0	123.32775974273682	0.10001277923583984
20	107.40752911567688	fix_pre	0		120	18.0	2.5	/experiments/Knapen_AOT/AOT_stimuli/rescaled_final/1080_fw.mp4	0.0	123.42777252197266	1.0085127353668213
20	107.59110569953918	pulse	0	t		18.0	2.5	/experiments/Knapen_AOT/AOT_stimuli/rescaled_final/1080_fw.mp4	0.0	123.61134910583496	
20	108.4160418510437	movie	1		279	18.0	2.5	/experiments/Knapen_AOT/AOT_stimuli/rescaled_final/1080_fw.mp4	0.0	124.43628525733948	2.4919862747192383
20	109.1891758441925	pulse	1	t		18.0	2.5	/experiments/Knapen_AOT/AOT_stimuli/rescaled_final/1080_fw.mp4	0.0	125.20941925048828	
20	110.78979778289795	pulse	1	t		18.0	2.5	/experiments/Knapen_AOT/AOT_stimuli/rescaled_final/1080_fw.mp4	0.0	126.81004118919373	
20	110.90802812576294	fix_post	2		12	18.0	2.5	/experiments/Knapen_AOT/AOT_stimuli/rescaled_final/1080_fw.mp4	0.0	126.92827153205872	0.10003662109375
21	111.00806474685669	fix_pre	0		120	19.0	2.5	/experiments/Knapen_AOT/AOT_stimuli/rescaled_final/1852_rv.mp4	0.0	127.02830815315247	1.0085010528564453
21	112.01656579971313	movie	1		288	19.0	2.5	/experiments/Knapen_AOT/AOT_stimuli/rescaled_final/1852_rv.mp4	0.0	128.0368092060089	2.4920668601989746
21	112.39023995399475	pulse	1	t		19.0	2.5	/experiments/Knapen_AOT/AOT_stimuli/rescaled_final/1852_rv.mp4	0.0	128.41048336029053	
21	113.9898099899292	pulse	1	t		19.0	2.5	/experiments/Knapen_AOT/AOT_stimuli/rescaled_final/1852_rv.mp4	0.0	130.01005339622498	
21	114.50863265991211	fix_post	2		12	19.0	2.5	/experiments/Knapen_AOT/AOT_stimuli/rescaled_final/1852_rv.mp4	0.0	130.52887606620789	0.10001873970031738
22	114.60865139961243	fix_pre	0		119	20.0	2.5	blank	1.0	130.6288948059082	0.9917707443237305
22	115.59263586997986	pulse	0	t		20.0	2.5	blank	1.0	131.61287927627563	
22	115.60042214393616	movie	1		301	20.0	2.5	blank	1.0	131.62066555023193	2.5087380409240723
22	117.19270014762878	pulse	1	t		20.0	2.5	blank	1.0	133.21294355392456	
22	118.10916018486023	fix_post	2		12	20.0	2.5	blank	1.0	134.129403591156	0.10000348091125488
23	118.20916366577148	fix_pre	0		120	21.0	2.5	/experiments/Knapen_AOT/AOT_stimuli/rescaled_final/2105_rv.mp4	0.0	134.22940707206726	1.0084826946258545
23	118.7928032875061	pulse	0	t		21.0	2.5	/experiments/Knapen_AOT/AOT_stimuli/rescaled_final/2105_rv.mp4	0.0	134.81304669380188	
23	119.21764636039734	movie	1		275	21.0	2.5	/experiments/Knapen_AOT/AOT_stimuli/rescaled_final/2105_rv.mp4	0.0	135.23788976669312	2.492042064666748
23	120.39084196090698	pulse	1	t		21.0	2.5	/experiments/Knapen_AOT/AOT_stimuli/rescaled_final/2105_rv.mp4	0.0	136.41108536720276	
23	121.70968842506409	fix_post	2		12	21.0	2.5	/experiments/Knapen_AOT/AOT_stimuli/rescaled_final/2105_rv.mp4	0.0	137.72993183135986	0.0999917984008789
24	121.80968022346497	fix_pre	0		120	22.0	2.5	/experiments/Knapen_AOT/AOT_stimuli/rescaled_final/1829_rv.mp4	0.0	137.82992362976074	1.0085067749023438
24	121.99330019950867	pulse	0	t		22.0	2.5	/experiments/Knapen_AOT/AOT_stimuli/rescaled_final/1829_rv.mp4	0.0	138.01354360580444	
24	122.81818699836731	movie	1		283	22.0	2.5	/experiments/Knapen_AOT/AOT_stimuli/rescaled_final/1829_rv.mp4	0.0	138.8384304046631	2.4920289516448975
24	123.59187245368958	pulse	1	t		22.0	2.5	/experiments/Knapen_AOT/AOT_stimuli/rescaled_final/1829_rv.mp4	0.0	139.61211585998535	
24	125.191490650177	pulse	1	t		22.0	2.5	/experiments/Knapen_AOT/AOT_stimuli/rescaled_final/1829_rv.mp4	0.0	141.21173405647278	
24	125.3102159500122	fix_post	2		12	22.0	2.5	/experiments/Knapen_AOT/AOT_stimuli/rescaled_final/1829_rv.mp4	0.0	141.33045935630798	0.10022139549255371
25	125.41043734550476	fix_pre	0		120	23.0	2.5	/experiments/Knapen_AOT/AOT_stimuli/rescaled_final/1317_rv.mp4	0.0	141.43068075180054	1.0083057880401611
25	126.41874313354492	movie	1		285	23.0	2.5	/experiments/Knapen_AOT/AOT_stimuli/rescaled_final/1317_rv.mp4	0.0	142.4389865398407	2.4920289516448975
25	126.79354667663574	pulse	1	t		23.0	2.5	/experiments/Knapen_AOT/AOT_stimuli/rescaled_final/1317_rv.mp4	0.0	142.81379008293152	
25	128.3919575214386	pulse	1	t		23.0	2.5	/experiments/Knapen_AOT/AOT_stimuli/rescaled_final/1317_rv.mp4	0.0	144.41220092773438	
25	128.91077208518982	fix_post	2		12	23.0	2.5	/experiments/Knapen_AOT/AOT_stimuli/rescaled_final/1317_rv.mp4	0.0	144.9310154914856	0.10002398490905762
26	129.01079607009888	fix_pre	0		119	24.0	2.5	/experiments/Knapen_AOT/AOT_stimuli/rescaled_final/0108_fw.mp4	0.0	145.03103947639465	1.0001449584960938
26	129.99451804161072	pulse	0	t		24.0	2.5	/experiments/Knapen_AOT/AOT_stimuli/rescaled_final/0108_fw.mp4	0.0	146.0147614479065	
26	130.01094102859497	movie	1		281	24.0	2.5	/experiments/Knapen_AOT/AOT_stimuli/rescaled_final/0108_fw.mp4	0.0	146.03118443489075	2.5003726482391357
26	131.59426879882812	pulse	1	t		24.0	2.5	/experiments/Knapen_AOT/AOT_stimuli/rescaled_final/0108_fw.mp4	0.0	147.6145122051239	
26	132.5113136768341	fix_post	2		12	24.0	2.5	/experiments/Knapen_AOT/AOT_stimuli/rescaled_final/0108_fw.mp4	0.0	148.53155708312988	0.10006928443908691
27	132.6113829612732	fix_pre	0		120	25.0	2.5	/experiments/Knapen_AOT/AOT_stimuli/rescaled_final/0366_fw.mp4	0.0	148.63162636756897	1.0085294246673584
27	133.1949498653412	pulse	0	t		25.0	2.5	/experiments/Knapen_AOT/AOT_stimuli/rescaled_final/0366_fw.mp4	0.0	149.21519327163696	
27	133.61991238594055	movie	1		273	25.0	2.5	/experiments/Knapen_AOT/AOT_stimuli/rescaled_final/0366_fw.mp4	0.0	149.64015579223633	2.4919674396514893
27	134.79563999176025	pulse	1	t		25.0	2.5	/experiments/Knapen_AOT/AOT_stimuli/rescaled_final/0366_fw.mp4	0.0	150.81588339805603	
27	136.11187982559204	fix_post	2		12	25.0	2.5	/experiments/Knapen_AOT/AOT_stimuli/rescaled_final/0366_fw.mp4	0.0	152.13212323188782	0.10001683235168457
28	136.21189665794373	fix_pre	0		120	26.0	2.5	/experiments/Knapen_AOT/AOT_stimuli/rescaled_final/1815_rv.mp4	0.0	152.2321400642395	1.008528709411621
28	136.39551162719727	pulse	0	t		26.0	2.5	/experiments/Knapen_AOT/AOT_stimuli/rescaled_final/1815_rv.mp4	0.0	152.41575503349304	
28	137.22042536735535	movie	1		285	26.0	2.5	/experiments/Knapen_AOT/AOT_stimuli/rescaled_final/1815_rv.mp4	0.0	153.24066877365112	2.4919772148132324
28	137.9935302734375	pulse	1	t		26.0	2.5	/experiments/Knapen_AOT/AOT_stimuli/rescaled_final/1815_rv.mp4	0.0	154.01377367973328	
28	139.59470868110657	pulse	1	t		26.0	2.5	/experiments/Knapen_AOT/AOT_stimuli/rescaled_final/1815_rv.mp4	0.0	155.61495208740234	
28	139.71240258216858	fix_post	2		12	26.0	2.5	/experiments/Knapen_AOT/AOT_stimuli/rescaled_final/1815_rv.mp4	0.0	155.73264598846436	0.10000824928283691
29	139.81241083145142	fix_pre	0		120	27.0	2.5	/experiments/Knapen_AOT/AOT_stimuli/rescaled_final/1734_rv.mp4	0.0	155.8326542377472	1.0084872245788574
29	140.82089805603027	movie	1		286	27.0	2.5	/experiments/Knapen_AOT/AOT_stimuli/rescaled_final/1734_rv.mp4	0.0	156.84114146232605	2.492058038711548
29	141.19552564620972	pulse	1	t		27.0	2.5	/experiments/Knapen_AOT/AOT_stimuli/rescaled_final/1734_rv.mp4	0.0	157.2157690525055	
29	142.79425144195557	pulse	1	t		27.0	2.5	/experiments/Knapen_AOT/AOT_stimuli/rescaled_final/1734_rv.mp4	0.0	158.81449484825134	
29	143.31295609474182	fix_post	2		12	27.0	2.5	/experiments/Knapen_AOT/AOT_stimuli/rescaled_final/1734_rv.mp4	0.0	159.3331995010376	0.09999370574951172
30	143.41294980049133	fix_pre	0		119	28.0	2.5	blank	1.0	159.4331932067871	0.9918015003204346
30	144.39664006233215	pulse	0	t		28.0	2.5	blank	1.0	160.41688346862793	
30	144.40475130081177	movie	1		301	28.0	2.5	blank	1.0	160.42499470710754	2.5087485313415527
30	145.98979473114014	pulse	1	t		28.0	2.5	blank	1.0	162.0100381374359	
30	146.91349983215332	fix_post	2		12	28.0	2.5	blank	1.0	162.9337432384491	0.10003137588500977
31	147.01353120803833	fix_pre	0		120	29.0	2.5	/experiments/Knapen_AOT/AOT_stimuli/rescaled_final/1692_fw.mp4	0.0	163.0337746143341	1.008460521697998
31	147.59715056419373	pulse	0	t		29.0	2.5	/experiments/Knapen_AOT/AOT_stimuli/rescaled_final/1692_fw.mp4	0.0	163.6173939704895	
31	148.02199172973633	movie	1		291	29.0	2.5	/experiments/Knapen_AOT/AOT_stimuli/rescaled_final/1692_fw.mp4	0.0	164.0422351360321	2.4920156002044678
31	149.19558000564575	pulse	1	t		29.0	2.5	/experiments/Knapen_AOT/AOT_stimuli/rescaled_final/1692_fw.mp4	0.0	165.21582341194153	
31	150.5140073299408	fix_post	2		12	29.0	2.5	/experiments/Knapen_AOT/AOT_stimuli/rescaled_final/1692_fw.mp4	0.0	166.53425073623657	0.10017824172973633
32	150.61418557167053	fix_pre	0		120	30.0	2.5	/experiments/Knapen_AOT/AOT_stimuli/rescaled_final/1942_rv.mp4	0.0	166.6344289779663	1.0083465576171875
32	150.78987884521484	pulse	0	t		30.0	2.5	/experiments/Knapen_AOT/AOT_stimuli/rescaled_final/1942_rv.mp4	0.0	166.81012225151062	
32	151.62253212928772	movie	1		283	30.0	2.5	/experiments/Knapen_AOT/AOT_stimuli/rescaled_final/1942_rv.mp4	0.0	167.6427755355835	2.492033004760742
32	152.38954710960388	pulse	1	t		30.0	2.5	/experiments/Knapen_AOT/AOT_stimuli/rescaled_final/1942_rv.mp4	0.0	168.40979051589966	
32	153.98996424674988	pulse	1	t		30.0	2.5	/experiments/Knapen_AOT/AOT_stimuli/rescaled_final/1942_rv.mp4	0.0	170.01020765304565	
32	154.11456513404846	fix_post	2		12	30.0	2.5	/experiments/Knapen_AOT/AOT_stimuli/rescaled_final/1942_rv.mp4	0.0	170.13480854034424	0.10000252723693848
33	154.2145676612854	fix_pre	0		120	31.0	2.5	/experiments/Knapen_AOT/AOT_stimuli/rescaled_final/0361_rv.mp4	0.0	170.23481106758118	1.0085148811340332
33	155.22308254241943	movie	1		280	31.0	2.5	/experiments/Knapen_AOT/AOT_stimuli/rescaled_final/0361_rv.mp4	0.0	171.2433259487152	2.491983652114868
33	155.5901620388031	pulse	1	t		31.0	2.5	/experiments/Knapen_AOT/AOT_stimuli/rescaled_final/0361_rv.mp4	0.0	171.61040544509888	
33	157.1902449131012	pulse	1	t		31.0	2.5	/experiments/Knapen_AOT/AOT_stimuli/rescaled_final/0361_rv.mp4	0.0	173.21048831939697	
33	157.7150661945343	fix_post	2		12	31.0	2.5	/experiments/Knapen_AOT/AOT_stimuli/rescaled_final/0361_rv.mp4	0.0	173.73530960083008	0.10002303123474121
34	157.81508922576904	fix_pre	0		118	32.0	2.5	/experiments/Knapen_AOT/AOT_stimuli/rescaled_final/1204_fw.mp4	0.0	173.83533263206482	0.9919192790985107
34	158.7906744480133	pulse	0	t		32.0	2.5	/experiments/Knapen_AOT/AOT_stimuli/rescaled_final/1204_fw.mp4	0.0	174.81091785430908	
34	158.80700850486755	movie	1		259	32.0	2.5	/experiments/Knapen_AOT/AOT_stimuli/rescaled_final/1204_fw.mp4	0.0	174.82725191116333	2.5003275871276855
34	160.39075565338135	pulse	1	t		32.0	2.5	/experiments/Knapen_AOT/AOT_stimuli/rescaled_final/1204_fw.mp4	0.0	176.41099905967712	
34	161.30733609199524	fix_post	2		12	32.0	2.5	/experiments/Knapen_AOT/AOT_stimuli/rescaled_final/1204_fw.mp4	0.0	177.32757949829102	0.10001850128173828
35	161.40735459327698	fix_pre	0		120	33.0	2.5	/experiments/Knapen_AOT/AOT_stimuli/rescaled_final/1213_rv.mp4	0.0	177.42759799957275	1.0084514617919922
35	161.99095845222473	pulse	0	t		33.0	2.5	/experiments/Knapen_AOT/AOT_stimuli/rescaled_final/1213_rv.mp4	0.0	178.0112018585205	
35	162.41580605506897	movie	1		290	33.0	2.5	/experiments/Knapen_AOT/AOT_stimuli/rescaled_final/1213_rv.mp4	0.0	178.43604946136475	2.492039918899536
35	163.59122610092163	pulse	1	t		33.0	2.5	/experiments/Knapen_AOT/AOT_stimuli/rescaled_final/1213_rv.mp4	0.0	179.6114695072174	
35	164.9078459739685	fix_post	2		12	33.0	2.5	/experiments/Knapen_AOT/AOT_stimuli/rescaled_final/1213_rv.mp4	0.0	180.92808938026428	0.10001349449157715
36	165.00785946846008	fix_pre	0		120	34.0	2.5	blank	1.0	181.02810287475586	1.0001389980316162
36	165.1915364265442	pulse	0	t		34.0	2.5	blank	1.0	181.21177983283997	
36	166.0079984664917	movie	1		300	34.0	2.5	blank	1.0	182.02824187278748	2.500377893447876
36	166.79167675971985	pulse	1	t		34.0	2.5	blank	1.0	182.81192016601562	
36	168.39200019836426	pulse	1	t		34.0	2.5	blank	1.0	184.41224360466003	
36	168.50837635993958	fix_post	2		12	34.0	2.5	blank	1.0	184.52861976623535	0.10002326965332031
37	168.6083996295929	fix_pre	0		120	35.0	2.5	/experiments/Knapen_AOT/AOT_stimuli/rescaled_final/1344_rv.mp4	0.0	184.62864303588867	1.008507251739502
37	169.6169068813324	movie	1		270	35.0	2.5	/experiments/Knapen_AOT/AOT_stimuli/rescaled_final/1344_rv.mp4	0.0	185.63715028762817	2.492025375366211
37	169.99202013015747	pulse	1	t		35.0	2.5	/experiments/Knapen_AOT/AOT_stimuli/rescaled_final/1344_rv.mp4	0.0	186.01226353645325	
37	171.5925407409668	pulse	1	t		35.0	2.5	/experiments/Knapen_AOT/AOT_stimuli/rescaled_final/1344_rv.mp4	0.0	187.61278414726257	
37	172.1089322566986	fix_post	2		12	35.0	2.5	/experiments/Knapen_AOT/AOT_stimuli/rescaled_final/1344_rv.mp4	0.0	188.12917566299438	0.10001802444458008
38	172.2089502811432	fix_pre	0		119	36.0	2.5	/experiments/Knapen_AOT/AOT_stimuli/rescaled_final/2138_fw.mp4	0.0	188.22919368743896	1.0001845359802246
38	173.19267773628235	pulse	0	t		36.0	2.5	/experiments/Knapen_AOT/AOT_stimuli/rescaled_final/2138_fw.mp4	0.0	189.21292114257812	
38	173.2091348171234	movie	1		276	36.0	2.5	/experiments/Knapen_AOT/AOT_stimuli/rescaled_final/2138_fw.mp4	0.0	189.2293782234192	2.5003809928894043
38	174.7922487258911	pulse	1	t		36.0	2.5	/experiments/Knapen_AOT/AOT_stimuli/rescaled_final/2138_fw.mp4	0.0	190.8124921321869	
38	175.70951581001282	fix_post	2		12	36.0	2.5	/experiments/Knapen_AOT/AOT_stimuli/rescaled_final/2138_fw.mp4	0.0	191.7297592163086	0.10002398490905762
39	175.80953979492188	fix_pre	0		120	37.0	2.5	/experiments/Knapen_AOT/AOT_stimuli/rescaled_final/0220_rv.mp4	0.0	191.82978320121765	1.0084357261657715
39	176.39314103126526	pulse	0	t		37.0	2.5	/experiments/Knapen_AOT/AOT_stimuli/rescaled_final/0220_rv.mp4	0.0	192.41338443756104	
39	176.81797552108765	movie	1		293	37.0	2.5	/experiments/Knapen_AOT/AOT_stimuli/rescaled_final/0220_rv.mp4	0.0	192.83821892738342	2.4920315742492676
39	177.9915850162506	pulse	1	t		37.0	2.5	/experiments/Knapen_AOT/AOT_stimuli/rescaled_final/0220_rv.mp4	0.0	194.0118284225464	
39	179.3100070953369	fix_post	2		12	37.0	2.5	/experiments/Knapen_AOT/AOT_stimuli/rescaled_final/0220_rv.mp4	0.0	195.3302505016327	0.10002255439758301
40	179.4100296497345	fix_pre	0		120	38.0	2.5	/experiments/Knapen_AOT/AOT_stimuli/rescaled_final/1876_fw.mp4	0.0	195.43027305603027	1.0085046291351318
40	179.59362602233887	pulse	0	t		38.0	2.5	/experiments/Knapen_AOT/AOT_stimuli/rescaled_final/1876_fw.mp4	0.0	195.61386942863464	
40	180.41853427886963	movie	1		287	38.0	2.5	/experiments/Knapen_AOT/AOT_stimuli/rescaled_final/1876_fw.mp4	0.0	196.4387776851654	2.492030382156372
40	181.1917223930359	pulse	1	t		38.0	2.5	/experiments/Knapen_AOT/AOT_stimuli/rescaled_final/1876_fw.mp4	0.0	197.21196579933167	
40	182.79204297065735	pulse	1	t		38.0	2.5	/experiments/Knapen_AOT/AOT_stimuli/rescaled_final/1876_fw.mp4	0.0	198.81228637695312	
40	182.910564661026	fix_post	2		12	38.0	2.5	/experiments/Knapen_AOT/AOT_stimuli/rescaled_final/1876_fw.mp4	0.0	198.93080806732178	0.10001373291015625
41	183.01057839393616	fix_pre	0		120	39.0	2.5	/experiments/Knapen_AOT/AOT_stimuli/rescaled_final/0802_fw.mp4	0.0	199.03082180023193	1.0085031986236572
41	184.01908159255981	movie	1		274	39.0	2.5	/experiments/Knapen_AOT/AOT_stimuli/rescaled_final/0802_fw.mp4	0.0	200.0393249988556	2.492027521133423
41	184.3939220905304	pulse	1	t		39.0	2.5	/experiments/Knapen_AOT/AOT_stimuli/rescaled_final/0802_fw.mp4	0.0	200.41416549682617	
41	185.99283003807068	pulse	1	t		39.0	2.5	/experiments/Knapen_AOT/AOT_stimuli/rescaled_final/0802_fw.mp4	0.0	202.01307344436646	
41	186.51110911369324	fix_post	2		12	39.0	2.5	/experiments/Knapen_AOT/AOT_stimuli/rescaled_final/0802_fw.mp4	0.0	202.531352519989	0.10001730918884277
42	186.61112642288208	fix_pre	0		119	40.0	2.5	blank	1.0	202.63136982917786	0.9918069839477539
42	187.59487175941467	pulse	0	t		40.0	2.5	blank	1.0	203.61511516571045	
42	187.60293340682983	movie	1		301	40.0	2.5	blank	1.0	203.6231768131256	2.508692979812622
42	189.19509530067444	pulse	1	t		40.0	2.5	blank	1.0	205.21533870697021	
42	190.11162638664246	fix_post	2		12	40.0	2.5	blank	1.0	206.13186979293823	0.10004782676696777
43	190.21167421340942	fix_pre	0		120	41.0	2.5	/experiments/Knapen_AOT/AOT_stimuli/rescaled_final/1353_fw.mp4	0.0	206.2319176197052	1.008460521697998
43	190.79539227485657	pulse	0	t		41.0	2.5	/experiments/Knapen_AOT/AOT_stimuli/rescaled_final/1353_fw.mp4	0.0	206.81563568115234	
43	191.22013473510742	movie	1		287	41.0	2.5	/experiments/Knapen_AOT/AOT_stimuli/rescaled_final/1353_fw.mp4	0.0	207.2403781414032	2.4920785427093506
43	192.39383554458618	pulse	1	t		41.0	2.5	/experiments/Knapen_AOT/AOT_stimuli/rescaled_final/1353_fw.mp4	0.0	208.41407895088196	
43	193.71221327781677	fix_post	2		12	41.0	2.5	/experiments/Knapen_AOT/AOT_stimuli/rescaled_final/1353_fw.mp4	0.0	209.73245668411255	0.09998917579650879
44	193.81220245361328	fix_pre	0		120	42.0	2.5	/experiments/Knapen_AOT/AOT_stimuli/rescaled_final/1305_fw.mp4	0.0	209.83244585990906	1.0085506439208984
44	193.99577236175537	pulse	0	t		42.0	2.5	/experiments/Knapen_AOT/AOT_stimuli/rescaled_final/1305_fw.mp4	0.0	210.01601576805115	
44	194.82075309753418	movie	1		278	42.0	2.5	/experiments/Knapen_AOT/AOT_stimuli/rescaled_final/1305_fw.mp4	0.0	210.84099650382996	2.491995334625244
44	195.59558987617493	pulse	1	t		42.0	2.5	/experiments/Knapen_AOT/AOT_stimuli/rescaled_final/1305_fw.mp4	0.0	211.6158332824707	
44	197.19639539718628	pulse	1	t		42.0	2.5	/experiments/Knapen_AOT/AOT_stimuli/rescaled_final/1305_fw.mp4	0.0	213.21663880348206	
44	197.31274843215942	fix_post	2		12	42.0	2.5	/experiments/Knapen_AOT/AOT_stimuli/rescaled_final/1305_fw.mp4	0.0	213.3329918384552	0.1000220775604248
45	197.41277050971985	fix_pre	0		120	43.0	2.5	/experiments/Knapen_AOT/AOT_stimuli/rescaled_final/1633_fw.mp4	0.0	213.43301391601562	1.0084352493286133
45	198.42120575904846	movie	1		284	43.0	2.5	/experiments/Knapen_AOT/AOT_stimuli/rescaled_final/1633_fw.mp4	0.0	214.44144916534424	2.4920694828033447
45	198.7950029373169	pulse	1	t		43.0	2.5	/experiments/Knapen_AOT/AOT_stimuli/rescaled_final/1633_fw.mp4	0.0	214.81524634361267	
45	200.3944661617279	pulse	1	t		43.0	2.5	/experiments/Knapen_AOT/AOT_stimuli/rescaled_final/1633_fw.mp4	0.0	216.41470956802368	
45	200.9132752418518	fix_post	2		12	43.0	2.5	/experiments/Knapen_AOT/AOT_stimuli/rescaled_final/1633_fw.mp4	0.0	216.93351864814758	0.10001873970031738
46	201.01329398155212	fix_pre	0		119	44.0	2.5	/experiments/Knapen_AOT/AOT_stimuli/rescaled_final/0653_fw.mp4	0.0	217.0335373878479	1.0002727508544922
46	201.99713325500488	pulse	0	t		44.0	2.5	/experiments/Knapen_AOT/AOT_stimuli/rescaled_final/0653_fw.mp4	0.0	218.01737666130066	
46	202.01356673240662	movie	1		292	44.0	2.5	/experiments/Knapen_AOT/AOT_stimuli/rescaled_final/0653_fw.mp4	0.0	218.0338101387024	2.5002317428588867
46	203.59584641456604	pulse	1	t		44.0	2.5	/experiments/Knapen_AOT/AOT_stimuli/rescaled_final/0653_fw.mp4	0.0	219.61608982086182	
46	204.5137984752655	fix_post	2		12	44.0	2.5	/experiments/Knapen_AOT/AOT_stimuli/rescaled_final/0653_fw.mp4	0.0	220.53404188156128	0.10003161430358887
47	204.6138300895691	fix_pre	0		120	45.0	2.5	/experiments/Knapen_AOT/AOT_stimuli/rescaled_final/1991_rv.mp4	0.0	220.63407349586487	1.0085442066192627
47	205.19030594825745	pulse	0	t		45.0	2.5	/experiments/Knapen_AOT/AOT_stimuli/rescaled_final/1991_rv.mp4	0.0	221.21054935455322	
47	205.62237429618835	movie	1		285	45.0	2.5	/experiments/Knapen_AOT/AOT_stimuli/rescaled_final/1991_rv.mp4	0.0	221.64261770248413	2.491978645324707
47	206.7960066795349	pulse	1	t		45.0	2.5	/experiments/Knapen_AOT/AOT_stimuli/rescaled_final/1991_rv.mp4	0.0	222.8162500858307	
47	208.11435294151306	fix_post	2		12	45.0	2.5	/experiments/Knapen_AOT/AOT_stimuli/rescaled_final/1991_rv.mp4	0.0	224.13459634780884	0.10001683235168457
48	208.21436977386475	fix_pre	0		120	46.0	2.5	/experiments/Knapen_AOT/AOT_stimuli/rescaled_final/0639_fw.mp4	0.0	224.23461318016052	1.008554458618164
48	208.39000344276428	pulse	0	t		46.0	2.5	/experiments/Knapen_AOT/AOT_stimuli/rescaled_final/0639_fw.mp4	0.0	224.41024684906006	
48	209.2229242324829	movie	1		276	46.0	2.5	/experiments/Knapen_AOT/AOT_stimuli/rescaled_final/0639_fw.mp4	0.0	225.2431676387787	2.491980791091919
48	209.99834823608398	pulse	1	t		46.0	2.5	/experiments/Knapen_AOT/AOT_stimuli/rescaled_final/0639_fw.mp4	0.0	226.01859164237976	
48	211.59005689620972	pulse	1	t		46.0	2.5	/experiments/Knapen_AOT/AOT_stimuli/rescaled_final/0639_fw.mp4	0.0	227.6103003025055	
48	211.71490502357483	fix_post	2		12	46.0	2.5	/experiments/Knapen_AOT/AOT_stimuli/rescaled_final/0639_fw.mp4	0.0	227.7351484298706	0.09999680519104004
49	211.81490182876587	fix_pre	0		120	47.0	2.5	/experiments/Knapen_AOT/AOT_stimuli/rescaled_final/0600_fw.mp4	0.0	227.83514523506165	1.008516550064087
49	212.82341837882996	movie	1		277	47.0	2.5	/experiments/Knapen_AOT/AOT_stimuli/rescaled_final/0600_fw.mp4	0.0	228.84366178512573	2.4920413494110107
49	213.1906979084015	pulse	1	t		47.0	2.5	/experiments/Knapen_AOT/AOT_stimuli/rescaled_final/0600_fw.mp4	0.0	229.21094131469727	
49	214.79055762290955	pulse	1	t		47.0	2.5	/experiments/Knapen_AOT/AOT_stimuli/rescaled_final/0600_fw.mp4	0.0	230.81080102920532	
49	215.31545972824097	fix_post	2		12	47.0	2.5	/experiments/Knapen_AOT/AOT_stimuli/rescaled_final/0600_fw.mp4	0.0	231.33570313453674	0.10005569458007812
50	215.41551542282104	fix_pre	0		118	48.0	2.5	blank	1.0	231.43575882911682	0.9833798408508301
50	216.3908817768097	pulse	0	t		48.0	2.5	blank	1.0	232.41112518310547	
50	216.39889526367188	movie	1		285	48.0	2.5	blank	1.0	232.41913866996765	2.5087356567382812
50	217.99110198020935	pulse	1	t		48.0	2.5	blank	1.0	234.01134538650513	
50	218.90763092041016	fix_post	2		12	48.0	2.5	blank	1.0	234.92787432670593	0.10001730918884277
51	219.007648229599	fix_pre	0		120	49.0	2.5	/experiments/Knapen_AOT/AOT_stimuli/rescaled_final/1838_fw.mp4	0.0	235.02789163589478	1.008507251739502
51	219.5913324356079	pulse	0	t		49.0	2.5	/experiments/Knapen_AOT/AOT_stimuli/rescaled_final/1838_fw.mp4	0.0	235.6115758419037	
51	220.0161554813385	movie	1		282	49.0	2.5	/experiments/Knapen_AOT/AOT_stimuli/rescaled_final/1838_fw.mp4	0.0	236.03639888763428	2.4920411109924316
51	221.19152116775513	pulse	1	t		49.0	2.5	/experiments/Knapen_AOT/AOT_stimuli/rescaled_final/1838_fw.mp4	0.0	237.2117645740509	
51	222.50819659233093	fix_post	2		12	49.0	2.5	/experiments/Knapen_AOT/AOT_stimuli/rescaled_final/1838_fw.mp4	0.0	238.5284399986267	0.10000252723693848
52	222.60819911956787	fix_pre	0		120	50.0	2.5	/experiments/Knapen_AOT/AOT_stimuli/rescaled_final/1232_fw.mp4	0.0	238.62844252586365	1.0084893703460693
52	222.79176807403564	pulse	0	t		50.0	2.5	/experiments/Knapen_AOT/AOT_stimuli/rescaled_final/1232_fw.mp4	0.0	238.81201148033142	
52	223.61668848991394	movie	1		278	50.0	2.5	/experiments/Knapen_AOT/AOT_stimuli/rescaled_final/1232_fw.mp4	0.0	239.63693189620972	2.492002010345459
52	224.39233088493347	pulse	1	t		50.0	2.5	/experiments/Knapen_AOT/AOT_stimuli/rescaled_final/1232_fw.mp4	0.0	240.41257429122925	
52	225.99044108390808	pulse	1	t		50.0	2.5	/experiments/Knapen_AOT/AOT_stimuli/rescaled_final/1232_fw.mp4	0.0	242.01068449020386	
52	226.1086905002594	fix_post	2		12	50.0	2.5	/experiments/Knapen_AOT/AOT_stimuli/rescaled_final/1232_fw.mp4	0.0	242.12893390655518	0.10004210472106934
53	226.20873260498047	fix_pre	0		120	51.0	2.5	/experiments/Knapen_AOT/AOT_stimuli/rescaled_final/1488_rv.mp4	0.0	242.22897601127625	1.0085630416870117
53	227.21729564666748	movie	1		284	51.0	2.5	/experiments/Knapen_AOT/AOT_stimuli/rescaled_final/1488_rv.mp4	0.0	243.23753905296326	2.4919612407684326
53	227.59097027778625	pulse	1	t		51.0	2.5	/experiments/Knapen_AOT/AOT_stimuli/rescaled_final/1488_rv.mp4	0.0	243.61121368408203	
53	229.19045233726501	pulse	1	t		51.0	2.5	/experiments/Knapen_AOT/AOT_stimuli/rescaled_final/1488_rv.mp4	0.0	245.2106957435608	
53	229.7092568874359	fix_post	2		12	51.0	2.5	/experiments/Knapen_AOT/AOT_stimuli/rescaled_final/1488_rv.mp4	0.0	245.7295002937317	0.10002517700195312
54	229.80928206443787	fix_pre	0		119	52.0	2.5	/experiments/Knapen_AOT/AOT_stimuli/rescaled_final/1084_rv.mp4	0.0	245.82952547073364	1.000129222869873
54	230.79295659065247	pulse	0	t		52.0	2.5	/experiments/Knapen_AOT/AOT_stimuli/rescaled_final/1084_rv.mp4	0.0	246.81319999694824	
54	230.80941128730774	movie	1		269	52.0	2.5	/experiments/Knapen_AOT/AOT_stimuli/rescaled_final/1084_rv.mp4	0.0	246.82965469360352	2.50039005279541
54	232.39204931259155	pulse	1	t		52.0	2.5	/experiments/Knapen_AOT/AOT_stimuli/rescaled_final/1084_rv.mp4	0.0	248.41229271888733	
54	233.30980134010315	fix_post	2		12	52.0	2.5	/experiments/Knapen_AOT/AOT_stimuli/rescaled_final/1084_rv.mp4	0.0	249.33004474639893	0.10001635551452637
55	233.40981769561768	fix_pre	0		120	53.0	2.5	/experiments/Knapen_AOT/AOT_stimuli/rescaled_final/2056_rv.mp4	0.0	249.43006110191345	1.0085129737854004
55	233.9935417175293	pulse	0	t		53.0	2.5	/experiments/Knapen_AOT/AOT_stimuli/rescaled_final/2056_rv.mp4	0.0	250.01378512382507	
55	234.41833066940308	movie	1		282	53.0	2.5	/experiments/Knapen_AOT/AOT_stimuli/rescaled_final/2056_rv.mp4	0.0	250.43857407569885	2.4920125007629395
55	235.59409260749817	pulse	1	t		53.0	2.5	/experiments/Knapen_AOT/AOT_stimuli/rescaled_final/2056_rv.mp4	0.0	251.61433601379395	
55	236.91034317016602	fix_post	2		12	53.0	2.5	/experiments/Knapen_AOT/AOT_stimuli/rescaled_final/2056_rv.mp4	0.0	252.9305865764618	0.10002636909484863
56	237.01036953926086	fix_pre	0		120	54.0	2.5	/experiments/Knapen_AOT/AOT_stimuli/rescaled_final/1684_fw.mp4	0.0	253.03061294555664	1.0085563659667969
56	237.19395112991333	pulse	0	t		54.0	2.5	/experiments/Knapen_AOT/AOT_stimuli/rescaled_final/1684_fw.mp4	0.0	253.2141945362091	
56	238.01892590522766	movie	1		282	54.0	2.5	/experiments/Knapen_AOT/AOT_stimuli/rescaled_final/1684_fw.mp4	0.0	254.03916931152344	2.4919610023498535
56	238.7919943332672	pulse	1	t		54.0	2.5	/experiments/Knapen_AOT/AOT_stimuli/rescaled_final/1684_fw.mp4	0.0	254.812237739563	
56	240.3922610282898	pulse	1	t		54.0	2.5	/experiments/Knapen_AOT/AOT_stimuli/rescaled_final/1684_fw.mp4	0.0	256.41250443458557	
56	240.51088690757751	fix_post	2		12	54.0	2.5	/experiments/Knapen_AOT/AOT_stimuli/rescaled_final/1684_fw.mp4	0.0	256.5311303138733	0.10000824928283691
57	240.61089515686035	fix_pre	0		120	55.0	2.5	blank	1.0	256.6311385631561	1.000157356262207
57	241.61105251312256	movie	1		300	55.0	2.5	blank	1.0	257.63129591941833	2.500373125076294
57	241.99466061592102	pulse	1	t		55.0	2.5	blank	1.0	258.0149040222168	
57	243.59487175941467	pulse	1	t		55.0	2.5	blank	1.0	259.61511516571045	
57	244.11142563819885	fix_post	2		12	55.0	2.5	blank	1.0	260.13166904449463	0.09999394416809082
58	244.21141958236694	fix_pre	0		119	56.0	2.5	/experiments/Knapen_AOT/AOT_stimuli/rescaled_final/0872_rv.mp4	0.0	260.2316629886627	1.0085399150848389
58	245.19528436660767	pulse	0	t		56.0	2.5	/experiments/Knapen_AOT/AOT_stimuli/rescaled_final/0872_rv.mp4	0.0	261.21552777290344	
58	245.21995949745178	movie	1		274	56.0	2.5	/experiments/Knapen_AOT/AOT_stimuli/rescaled_final/0872_rv.mp4	0.0	261.24020290374756	2.492008924484253
58	246.79424667358398	pulse	1	t		56.0	2.5	/experiments/Knapen_AOT/AOT_stimuli/rescaled_final/0872_rv.mp4	0.0	262.81449007987976	
58	247.71196842193604	fix_post	2		12	56.0	2.5	/experiments/Knapen_AOT/AOT_stimuli/rescaled_final/0872_rv.mp4	0.0	263.7322118282318	0.1002039909362793
59	247.81217241287231	fix_pre	0		120	57.0	2.5	/experiments/Knapen_AOT/AOT_stimuli/rescaled_final/0861_fw.mp4	0.0	263.8324158191681	1.0083091259002686
59	248.39569187164307	pulse	0	t		57.0	2.5	/experiments/Knapen_AOT/AOT_stimuli/rescaled_final/0861_fw.mp4	0.0	264.41593527793884	
59	248.82048153877258	movie	1		279	57.0	2.5	/experiments/Knapen_AOT/AOT_stimuli/rescaled_final/0861_fw.mp4	0.0	264.84072494506836	2.492025852203369
59	249.9970555305481	pulse	1	t		57.0	2.5	/experiments/Knapen_AOT/AOT_stimuli/rescaled_final/0861_fw.mp4	0.0	266.0172989368439	
59	251.31250739097595	fix_post	2		12	57.0	2.5	/experiments/Knapen_AOT/AOT_stimuli/rescaled_final/0861_fw.mp4	0.0	267.33275079727173	0.10000801086425781
60	251.4125154018402	fix_pre	0		120	58.0	2.5	/experiments/Knapen_AOT/AOT_stimuli/rescaled_final/1235_fw.mp4	0.0	267.432758808136	1.0085477828979492
60	251.59613633155823	pulse	0	t		58.0	2.5	/experiments/Knapen_AOT/AOT_stimuli/rescaled_final/1235_fw.mp4	0.0	267.616379737854	
60	252.42106318473816	movie	1		276	58.0	2.5	/experiments/Knapen_AOT/AOT_stimuli/rescaled_final/1235_fw.mp4	0.0	268.44130659103394	2.4919919967651367
60	253.19458937644958	pulse	1	t		58.0	2.5	/experiments/Knapen_AOT/AOT_stimuli/rescaled_final/1235_fw.mp4	0.0	269.21483278274536	
60	254.79749083518982	pulse	1	t		58.0	2.5	/experiments/Knapen_AOT/AOT_stimuli/rescaled_final/1235_fw.mp4	0.0	270.8177342414856	
60	254.9130551815033	fix_post	2		12	58.0	2.5	/experiments/Knapen_AOT/AOT_stimuli/rescaled_final/1235_fw.mp4	0.0	270.9332985877991	0.10005307197570801
61	255.013108253479	fix_pre	0		120	59.0	2.5	/experiments/Knapen_AOT/AOT_stimuli/rescaled_final/1942_rv.mp4	0.0	271.0333516597748	1.008474349975586
61	256.0215826034546	movie	1		258	59.0	2.5	/experiments/Knapen_AOT/AOT_stimuli/rescaled_final/1942_rv.mp4	0.0	272.04182600975037	2.4919965267181396
61	256.3971071243286	pulse	1	t		59.0	2.5	/experiments/Knapen_AOT/AOT_stimuli/rescaled_final/1942_rv.mp4	0.0	272.4173505306244	
61	257.9953968524933	pulse	1	t		59.0	2.5	/experiments/Knapen_AOT/AOT_stimuli/rescaled_final/1942_rv.mp4	0.0	274.01564025878906	
61	258.51357913017273	fix_post	2		12	59.0	2.5	/experiments/Knapen_AOT/AOT_stimuli/rescaled_final/1942_rv.mp4	0.0	274.5338225364685	0.10003209114074707
62	258.6136112213135	fix_pre	0		119	60.0	2.5	/experiments/Knapen_AOT/AOT_stimuli/rescaled_final/0955_fw.mp4	0.0	274.63385462760925	1.0005695819854736
62	259.5973470211029	pulse	0	t		60.0	2.5	/experiments/Knapen_AOT/AOT_stimuli/rescaled_final/0955_fw.mp4	0.0	275.6175904273987	
62	259.61418080329895	movie	1		284	60.0	2.5	/experiments/Knapen_AOT/AOT_stimuli/rescaled_final/0955_fw.mp4	0.0	275.6344242095947	2.499971628189087
62	261.1966109275818	pulse	1	t		60.0	2.5	/experiments/Knapen_AOT/AOT_stimuli/rescaled_final/0955_fw.mp4	0.0	277.21685433387756	
62	262.11415243148804	fix_post	2		12	60.0	2.5	/experiments/Knapen_AOT/AOT_stimuli/rescaled_final/0955_fw.mp4	0.0	278.1343958377838	0.10005331039428711
63	262.2142057418823	fix_pre	0		120	61.0	2.5	/experiments/Knapen_AOT/AOT_stimuli/rescaled_final/1290_rv.mp4	0.0	278.2344491481781	1.0084431171417236
63	262.79771733283997	pulse	0	t		61.0	2.5	/experiments/Knapen_AOT/AOT_stimuli/rescaled_final/1290_rv.mp4	0.0	278.81796073913574	
63	263.22264885902405	movie	1		268	61.0	2.5	/experiments/Knapen_AOT/AOT_stimuli/rescaled_final/1290_rv.mp4	0.0	279.2428922653198	2.4920129776000977
63	264.39625310897827	pulse	1	t		61.0	2.5	/experiments/Knapen_AOT/AOT_stimuli/rescaled_final/1290_rv.mp4	0.0	280.41649651527405	
63	265.71466183662415	fix_post	2		12	61.0	2.5	/experiments/Knapen_AOT/AOT_stimuli/rescaled_final/1290_rv.mp4	0.0	281.7349052429199	0.1000218391418457
64	265.814683675766	fix_pre	0		120	62.0	2.5	/experiments/Knapen_AOT/AOT_stimuli/rescaled_final/2064_fw.mp4	0.0	281.83492708206177	1.0085506439208984
64	265.99029660224915	pulse	0	t		62.0	2.5	/experiments/Knapen_AOT/AOT_stimuli/rescaled_final/2064_fw.mp4	0.0	282.0105400085449	
64	266.8232343196869	movie	1		290	62.0	2.5	/experiments/Knapen_AOT/AOT_stimuli/rescaled_final/2064_fw.mp4	0.0	282.84347772598267	2.492055892944336
64	267.590451002121	pulse	1	t		62.0	2.5	/experiments/Knapen_AOT/AOT_stimuli/rescaled_final/2064_fw.mp4	0.0	283.61069440841675	
64	269.19063091278076	pulse	1	t		62.0	2.5	/experiments/Knapen_AOT/AOT_stimuli/rescaled_final/2064_fw.mp4	0.0	285.21087431907654	
64	269.3152902126312	fix_post	2		12	62.0	2.5	/experiments/Knapen_AOT/AOT_stimuli/rescaled_final/2064_fw.mp4	0.0	285.335533618927	0.09994721412658691
65	269.4152374267578	fix_pre	0		120	63.0	2.5	blank	1.0	285.4354808330536	1.0001473426818848
65	270.4153847694397	movie	1		300	63.0	2.5	blank	1.0	286.4356281757355	2.500361204147339
65	270.790718793869	pulse	1	t		63.0	2.5	blank	1.0	286.8109622001648	
65	272.3909180164337	pulse	1	t		63.0	2.5	blank	1.0	288.4111614227295	
65	272.91574597358704	fix_post	2		12	63.0	2.5	blank	1.0	288.9359893798828	0.10002899169921875
66	273.01577496528625	fix_pre	0		118	64.0	2.5	/experiments/Knapen_AOT/AOT_stimuli/rescaled_final/0558_rv.mp4	0.0	289.03601837158203	1.0001726150512695
66	273.99126744270325	pulse	0	t		64.0	2.5	/experiments/Knapen_AOT/AOT_stimuli/rescaled_final/0558_rv.mp4	0.0	290.011510848999	
66	274.0159475803375	movie	1		270	64.0	2.5	/experiments/Knapen_AOT/AOT_stimuli/rescaled_final/0558_rv.mp4	0.0	290.0361909866333	2.4920156002044678
66	275.59080243110657	pulse	1	t		64.0	2.5	/experiments/Knapen_AOT/AOT_stimuli/rescaled_final/0558_rv.mp4	0.0	291.61104583740234	
66	276.507963180542	fix_post	2		12	64.0	2.5	/experiments/Knapen_AOT/AOT_stimuli/rescaled_final/0558_rv.mp4	0.0	292.52820658683777	0.1000216007232666
67	276.60798478126526	fix_pre	0		120	65.0	2.5	/experiments/Knapen_AOT/AOT_stimuli/rescaled_final/1251_fw.mp4	0.0	292.62822818756104	1.016883134841919
67	277.191752910614	pulse	0	t		65.0	2.5	/experiments/Knapen_AOT/AOT_stimuli/rescaled_final/1251_fw.mp4	0.0	293.2119963169098	
67	277.6248679161072	movie	1		283	65.0	2.5	/experiments/Knapen_AOT/AOT_stimuli/rescaled_final/1251_fw.mp4	0.0	293.64511132240295	2.483642101287842
67	278.79047536849976	pulse	1	t		65.0	2.5	/experiments/Knapen_AOT/AOT_stimuli/rescaled_final/1251_fw.mp4	0.0	294.81071877479553	
67	280.108510017395	fix_post	2		12	65.0	2.5	/experiments/Knapen_AOT/AOT_stimuli/rescaled_final/1251_fw.mp4	0.0	296.1287534236908	0.10001134872436523
68	280.2085213661194	fix_pre	0		120	66.0	2.5	/experiments/Knapen_AOT/AOT_stimuli/rescaled_final/0347_rv.mp4	0.0	296.22876477241516	1.0085160732269287
68	280.3921663761139	pulse	0	t		66.0	2.5	/experiments/Knapen_AOT/AOT_stimuli/rescaled_final/0347_rv.mp4	0.0	296.41240978240967	
68	281.2170374393463	movie	1		277	66.0	2.5	/experiments/Knapen_AOT/AOT_stimuli/rescaled_final/0347_rv.mp4	0.0	297.2372808456421	2.492006540298462
68	281.9906105995178	pulse	1	t		66.0	2.5	/experiments/Knapen_AOT/AOT_stimuli/rescaled_final/0347_rv.mp4	0.0	298.0108540058136	
68	283.5909037590027	pulse	1	t		66.0	2.5	/experiments/Knapen_AOT/AOT_stimuli/rescaled_final/0347_rv.mp4	0.0	299.61114716529846	
68	283.7090439796448	fix_post	2		12	66.0	2.5	/experiments/Knapen_AOT/AOT_stimuli/rescaled_final/0347_rv.mp4	0.0	299.72928738594055	0.10002541542053223
69	283.8090693950653	fix_pre	0		120	67.0	2.5	/experiments/Knapen_AOT/AOT_stimuli/rescaled_final/1624_fw.mp4	0.0	299.8293128013611	1.0084798336029053
69	284.8175492286682	movie	1		259	67.0	2.5	/experiments/Knapen_AOT/AOT_stimuli/rescaled_final/1624_fw.mp4	0.0	300.837792634964	2.4920620918273926
69	285.1919596195221	pulse	1	t		67.0	2.5	/experiments/Knapen_AOT/AOT_stimuli/rescaled_final/1624_fw.mp4	0.0	301.21220302581787	
69	286.79131960868835	pulse	1	t		67.0	2.5	/experiments/Knapen_AOT/AOT_stimuli/rescaled_final/1624_fw.mp4	0.0	302.81156301498413	
69	287.3096113204956	fix_post	2		12	67.0	2.5	/experiments/Knapen_AOT/AOT_stimuli/rescaled_final/1624_fw.mp4	0.0	303.3298547267914	0.09999895095825195
70	287.40961027145386	fix_pre	0		119	68.0	2.5	/experiments/Knapen_AOT/AOT_stimuli/rescaled_final/2065_rv.mp4	0.0	303.42985367774963	1.0001940727233887
70	288.39347863197327	pulse	0	t		68.0	2.5	/experiments/Knapen_AOT/AOT_stimuli/rescaled_final/2065_rv.mp4	0.0	304.41372203826904	
70	288.40980434417725	movie	1		280	68.0	2.5	/experiments/Knapen_AOT/AOT_stimuli/rescaled_final/2065_rv.mp4	0.0	304.430047750473	2.5003249645233154
70	289.9929258823395	pulse	1	t		68.0	2.5	/experiments/Knapen_AOT/AOT_stimuli/rescaled_final/2065_rv.mp4	0.0	306.01316928863525	
70	290.91012930870056	fix_post	2		12	68.0	2.5	/experiments/Knapen_AOT/AOT_stimuli/rescaled_final/2065_rv.mp4	0.0	306.93037271499634	0.10002446174621582
71	291.0101537704468	fix_pre	0		120	69.0	2.5	blank	1.0	307.03039717674255	1.0001442432403564
71	291.5939085483551	pulse	0	t		69.0	2.5	blank	1.0	307.6141519546509	
71	292.01029801368713	movie	1		300	69.0	2.5	blank	1.0	308.0305414199829	2.5003936290740967
71	293.19403195381165	pulse	1	t		69.0	2.5	blank	1.0	309.2142753601074	
71	294.51069164276123	fix_post	2		12	69.0	2.5	blank	1.0	310.530935049057	0.10000896453857422
72	294.6107006072998	fix_pre	0		120	70.0	2.5	/experiments/Knapen_AOT/AOT_stimuli/rescaled_final/0026_rv.mp4	0.0	310.6309440135956	1.008490800857544
72	294.7942898273468	pulse	0	t		70.0	2.5	/experiments/Knapen_AOT/AOT_stimuli/rescaled_final/0026_rv.mp4	0.0	310.8145332336426	
72	295.61919140815735	movie	1		271	70.0	2.5	/experiments/Knapen_AOT/AOT_stimuli/rescaled_final/0026_rv.mp4	0.0	311.6394348144531	2.4922521114349365
72	296.39501905441284	pulse	1	t		70.0	2.5	/experiments/Knapen_AOT/AOT_stimuli/rescaled_final/0026_rv.mp4	0.0	312.4152624607086	
72	297.99288177490234	pulse	1	t		70.0	2.5	/experiments/Knapen_AOT/AOT_stimuli/rescaled_final/0026_rv.mp4	0.0	314.0131251811981	
72	298.1114435195923	fix_post	2		12	70.0	2.5	/experiments/Knapen_AOT/AOT_stimuli/rescaled_final/0026_rv.mp4	0.0	314.13168692588806	0.09978961944580078
73	298.2112331390381	fix_pre	0		120	71.0	2.5	/experiments/Knapen_AOT/AOT_stimuli/rescaled_final/0663_rv.mp4	0.0	314.23147654533386	1.008488416671753
73	299.21972155570984	movie	1		284	71.0	2.5	/experiments/Knapen_AOT/AOT_stimuli/rescaled_final/0663_rv.mp4	0.0	315.2399649620056	2.4920196533203125
73	299.59324312210083	pulse	1	t		71.0	2.5	/experiments/Knapen_AOT/AOT_stimuli/rescaled_final/0663_rv.mp4	0.0	315.6134865283966	
73	301.19355392456055	pulse	1	t		71.0	2.5	/experiments/Knapen_AOT/AOT_stimuli/rescaled_final/0663_rv.mp4	0.0	317.2137973308563	
73	301.71174120903015	fix_post	2		12	71.0	2.5	/experiments/Knapen_AOT/AOT_stimuli/rescaled_final/0663_rv.mp4	0.0	317.7319846153259	0.10007119178771973
74	301.81181240081787	fix_pre	0		119	72.0	2.5	/experiments/Knapen_AOT/AOT_stimuli/rescaled_final/1080_rv.mp4	0.0	317.83205580711365	1.0001087188720703
74	302.7955050468445	pulse	0	t		72.0	2.5	/experiments/Knapen_AOT/AOT_stimuli/rescaled_final/1080_rv.mp4	0.0	318.81574845314026	
74	302.81192111968994	movie	1		273	72.0	2.5	/experiments/Knapen_AOT/AOT_stimuli/rescaled_final/1080_rv.mp4	0.0	318.8321645259857	2.5003809928894043
74	304.39420890808105	pulse	1	t		72.0	2.5	/experiments/Knapen_AOT/AOT_stimuli/rescaled_final/1080_rv.mp4	0.0	320.41445231437683	
74	305.31230211257935	fix_post	2		12	72.0	2.5	/experiments/Knapen_AOT/AOT_stimuli/rescaled_final/1080_rv.mp4	0.0	321.3325455188751	0.10001182556152344
75	305.41231393814087	fix_pre	0		120	73.0	2.5	/experiments/Knapen_AOT/AOT_stimuli/rescaled_final/1951_fw.mp4	0.0	321.43255734443665	1.0085160732269287
75	305.9962418079376	pulse	0	t		73.0	2.5	/experiments/Knapen_AOT/AOT_stimuli/rescaled_final/1951_fw.mp4	0.0	322.0164852142334	
75	306.4208300113678	movie	1		264	73.0	2.5	/experiments/Knapen_AOT/AOT_stimuli/rescaled_final/1951_fw.mp4	0.0	322.4410734176636	2.492013692855835
75	307.5945665836334	pulse	1	t		73.0	2.5	/experiments/Knapen_AOT/AOT_stimuli/rescaled_final/1951_fw.mp4	0.0	323.6148099899292	
75	308.91284370422363	fix_post	2		12	73.0	2.5	/experiments/Knapen_AOT/AOT_stimuli/rescaled_final/1951_fw.mp4	0.0	324.9330871105194	0.09999847412109375
76	309.0128421783447	fix_pre	0		120	74.0	2.5	/experiments/Knapen_AOT/AOT_stimuli/rescaled_final/0707_rv.mp4	0.0	325.0330855846405	1.0085117816925049
76	309.1966335773468	pulse	0	t		74.0	2.5	/experiments/Knapen_AOT/AOT_stimuli/rescaled_final/0707_rv.mp4	0.0	325.2168769836426	
76	310.02135396003723	movie	1		278	74.0	2.5	/experiments/Knapen_AOT/AOT_stimuli/rescaled_final/0707_rv.mp4	0.0	326.041597366333	2.4920201301574707
76	310.7946605682373	pulse	1	t		74.0	2.5	/experiments/Knapen_AOT/AOT_stimuli/rescaled_final/0707_rv.mp4	0.0	326.8149039745331	
76	312.3955090045929	pulse	1	t		74.0	2.5	/experiments/Knapen_AOT/AOT_stimuli/rescaled_final/0707_rv.mp4	0.0	328.4157524108887	
76	312.5133740901947	fix_post	2		12	74.0	2.5	/experiments/Knapen_AOT/AOT_stimuli/rescaled_final/0707_rv.mp4	0.0	328.5336174964905	0.10001182556152344
77	312.6133859157562	fix_pre	0		120	75.0	2.5	/experiments/Knapen_AOT/AOT_stimuli/rescaled_final/0362_fw.mp4	0.0	328.633629322052	1.0085082054138184
77	313.62189412117004	movie	1		265	75.0	2.5	/experiments/Knapen_AOT/AOT_stimuli/rescaled_final/0362_fw.mp4	0.0	329.6421375274658	2.49202561378479
77	313.99573707580566	pulse	1	t		75.0	2.5	/experiments/Knapen_AOT/AOT_stimuli/rescaled_final/0362_fw.mp4	0.0	330.01598048210144	
77	315.595751285553	pulse	1	t		75.0	2.5	/experiments/Knapen_AOT/AOT_stimuli/rescaled_final/0362_fw.mp4	0.0	331.61599469184875	
77	316.11391973495483	fix_post	2		12	75.0	2.5	/experiments/Knapen_AOT/AOT_stimuli/rescaled_final/0362_fw.mp4	0.0	332.1341631412506	0.10007810592651367
78	316.21399784088135	fix_pre	0		119	76.0	2.5	blank	1.0	332.2342412471771	0.991706371307373
78	317.18984818458557	pulse	0	t		76.0	2.5	blank	1.0	333.21009159088135	
78	317.2057042121887	movie	1		301	76.0	2.5	blank	1.0	333.2259476184845	2.5087475776672363
78	318.7898910045624	pulse	1	t		76.0	2.5	blank	1.0	334.81013441085815	
78	319.71445178985596	fix_post	2		12	76.0	2.5	blank	1.0	335.73469519615173	0.10005855560302734
79	319.814510345459	fix_pre	0		120	77.0	2.5	/experiments/Knapen_AOT/AOT_stimuli/rescaled_final/1119_rv.mp4	0.0	335.83475375175476	1.0084705352783203
79	320.38977789878845	pulse	0	t		77.0	2.5	/experiments/Knapen_AOT/AOT_stimuli/rescaled_final/1119_rv.mp4	0.0	336.41002130508423	
79	320.8229808807373	movie	1		258	77.0	2.5	/experiments/Knapen_AOT/AOT_stimuli/rescaled_final/1119_rv.mp4	0.0	336.8432242870331	2.492014169692993
79	321.9986243247986	pulse	1	t		77.0	2.5	/experiments/Knapen_AOT/AOT_stimuli/rescaled_final/1119_rv.mp4	0.0	338.01886773109436	
79	323.3149950504303	fix_post	2		12	77.0	2.5	/experiments/Knapen_AOT/AOT_stimuli/rescaled_final/1119_rv.mp4	0.0	339.3352384567261	0.09998226165771484
80	323.414977312088	fix_pre	0		120	78.0	2.5	/experiments/Knapen_AOT/AOT_stimuli/rescaled_final/0667_fw.mp4	0.0	339.4352207183838	1.008521318435669
80	323.5902624130249	pulse	0	t		78.0	2.5	/experiments/Knapen_AOT/AOT_stimuli/rescaled_final/0667_fw.mp4	0.0	339.6105058193207	
80	324.4234986305237	movie	1		279	78.0	2.5	/experiments/Knapen_AOT/AOT_stimuli/rescaled_final/0667_fw.mp4	0.0	340.44374203681946	2.4920542240142822
80	325.1907088756561	pulse	1	t		78.0	2.5	/experiments/Knapen_AOT/AOT_stimuli/rescaled_final/0667_fw.mp4	0.0	341.2109522819519	
80	326.7908136844635	pulse	1	t		78.0	2.5	/experiments/Knapen_AOT/AOT_stimuli/rescaled_final/0667_fw.mp4	0.0	342.8110570907593	
80	326.91555285453796	fix_post	2		12	78.0	2.5	/experiments/Knapen_AOT/AOT_stimuli/rescaled_final/0667_fw.mp4	0.0	342.93579626083374	0.09997868537902832
81	327.015531539917	fix_pre	0		120	79.0	2.5	/experiments/Knapen_AOT/AOT_stimuli/rescaled_final/1406_rv.mp4	0.0	343.03577494621277	1.0085294246673584
81	328.02406096458435	movie	1		264	79.0	2.5	/experiments/Knapen_AOT/AOT_stimuli/rescaled_final/1406_rv.mp4	0.0	344.0443043708801	2.492060899734497
81	328.3914432525635	pulse	1	t		79.0	2.5	/experiments/Knapen_AOT/AOT_stimuli/rescaled_final/1406_rv.mp4	0.0	344.41168665885925	
81	329.99115800857544	pulse	1	t		79.0	2.5	/experiments/Knapen_AOT/AOT_stimuli/rescaled_final/1406_rv.mp4	0.0	346.0114014148712	
81	330.51612186431885	fix_post	2		12	79.0	2.5	/experiments/Knapen_AOT/AOT_stimuli/rescaled_final/1406_rv.mp4	0.0	346.5363652706146	0.10012030601501465
82	330.61624217033386	fix_pre	0		118	80.0	2.5	/experiments/Knapen_AOT/AOT_stimuli/rescaled_final/0350_fw.mp4	0.0	346.63648557662964	0.9916841983795166
82	331.5916337966919	pulse	0	t		80.0	2.5	/experiments/Knapen_AOT/AOT_stimuli/rescaled_final/0350_fw.mp4	0.0	347.61187720298767	
82	331.6079263687134	movie	1		280	80.0	2.5	/experiments/Knapen_AOT/AOT_stimuli/rescaled_final/0350_fw.mp4	0.0	347.62816977500916	2.5003581047058105
82	333.1917018890381	pulse	1	t		80.0	2.5	/experiments/Knapen_AOT/AOT_stimuli/rescaled_final/0350_fw.mp4	0.0	349.21194529533386	
82	334.1082844734192	fix_post	2		11	80.0	2.5	/experiments/Knapen_AOT/AOT_stimuli/rescaled_final/0350_fw.mp4	0.0	350.12852787971497	0.10003089904785156
83	334.20831537246704	fix_pre	0		120	81.0	2.5	/experiments/Knapen_AOT/AOT_stimuli/rescaled_final/0141_fw.mp4	0.0	350.2285587787628	1.0085034370422363
83	334.79194235801697	pulse	0	t		81.0	2.5	/experiments/Knapen_AOT/AOT_stimuli/rescaled_final/0141_fw.mp4	0.0	350.81218576431274	
83	335.2168188095093	movie	1		274	81.0	2.5	/experiments/Knapen_AOT/AOT_stimuli/rescaled_final/0141_fw.mp4	0.0	351.23706221580505	2.49208927154541
83	336.3903374671936	pulse	1	t		81.0	2.5	/experiments/Knapen_AOT/AOT_stimuli/rescaled_final/0141_fw.mp4	0.0	352.4105808734894	
83	337.7089080810547	fix_post	2		12	81.0	2.5	/experiments/Knapen_AOT/AOT_stimuli/rescaled_final/0141_fw.mp4	0.0	353.72915148735046	0.09993934631347656
84	337.80884742736816	fix_pre	0		120	82.0	2.5	blank	1.0	353.82909083366394	1.0001685619354248
84	337.9925878047943	pulse	0	t		82.0	2.5	blank	1.0	354.0128312110901	
84	338.8090159893036	movie	1		300	82.0	2.5	blank	1.0	354.82925939559937	2.5003459453582764
84	339.59277296066284	pulse	1	t		82.0	2.5	blank	1.0	355.6130163669586	
84	341.1929819583893	pulse	1	t		82.0	2.5	blank	1.0	357.21322536468506	
84	341.30936193466187	fix_post	2		12	82.0	2.5	blank	1.0	357.32960534095764	0.10003805160522461
85	341.4093999862671	fix_pre	0		120	83.0	2.5	/experiments/Knapen_AOT/AOT_stimuli/rescaled_final/0149_fw.mp4	0.0	357.42964339256287	1.0085220336914062
85	342.4179220199585	movie	1		277	83.0	2.5	/experiments/Knapen_AOT/AOT_stimuli/rescaled_final/0149_fw.mp4	0.0	358.4381654262543	2.4920191764831543
85	342.7919063568115	pulse	1	t		83.0	2.5	/experiments/Knapen_AOT/AOT_stimuli/rescaled_final/0149_fw.mp4	0.0	358.8121497631073	
85	344.39161801338196	pulse	1	t		83.0	2.5	/experiments/Knapen_AOT/AOT_stimuli/rescaled_final/0149_fw.mp4	0.0	360.41186141967773	
85	344.90994119644165	fix_post	2		12	83.0	2.5	/experiments/Knapen_AOT/AOT_stimuli/rescaled_final/0149_fw.mp4	0.0	360.9301846027374	0.09999370574951172
87	345.00993490219116	stim	0		1716					361.03017830848694	14.302160024642944
87	345.9938585758209	pulse	0	t						362.0141019821167	
87	347.59382367134094	pulse	0	t						363.6140670776367	
87	349.19412565231323	pulse	0	t						365.214369058609	
87	350.7944257259369	pulse	0	t						366.81466913223267	
87	352.3945736885071	pulse	0	t						368.41481709480286	
87	353.99484944343567	pulse	0	t						370.01509284973145	
87	355.59511041641235	pulse	0	t						371.61535382270813	
87	357.1952564716339	pulse	0	t						373.2154998779297	
87	358.79556369781494	pulse	0	t						374.8158071041107	
