trial_nr	onset	event_type	phase	response	nr_frames	movie_index	movie_duration	movie_file	blank	onset_abs	duration
0	0.15817642211914062	stim	0		6					17.210246324539185	0.04995250701904297
0	0.19994306564331055	response	0	space						17.252012968063354	
1	0.2081289291381836	stim	0		4663					17.260198831558228	38.87624144554138
1	39.06955075263977	pulse	0	t						56.121620655059814	
1	39.084370374679565	stim	1		1714					56.13644027709961	14.298452138900757
1	40.66446113586426	pulse	1	t						57.7165310382843	
1	42.26484036445618	pulse	1	t						59.31691026687622	
1	43.86501884460449	pulse	1	t						60.917088747024536	
1	45.46515774726868	pulse	1	t						62.51722764968872	
1	47.06533765792847	pulse	1	t						64.11740756034851	
1	48.665579319000244	pulse	1	t						65.71764922142029	
1	50.26612448692322	pulse	1	t						67.31819438934326	
1	51.86620283126831	pulse	1	t						68.91827273368835	
2	53.38282251358032	fix_pre	0		11	0.0	2.5	/experiments/knapen_AOT/AOT_stimuli/rescaled_final/1976_fw.mp4	0.0	70.43489241600037	0.1084909439086914
2	53.46632266044617	pulse	0	t		0.0	2.5	/experiments/knapen_AOT/AOT_stimuli/rescaled_final/1976_fw.mp4	0.0	70.51839256286621	
2	53.491313457489014	movie	1		291	0.0	2.5	/experiments/knapen_AOT/AOT_stimuli/rescaled_final/1976_fw.mp4	0.0	70.54338335990906	2.4918715953826904
2	55.0648033618927	pulse	1	t		0.0	2.5	/experiments/knapen_AOT/AOT_stimuli/rescaled_final/1976_fw.mp4	0.0	72.11687326431274	
2	55.983185052871704	fix_post	2		12	0.0	2.5	/experiments/knapen_AOT/AOT_stimuli/rescaled_final/1976_fw.mp4	0.0	73.03525495529175	0.10004901885986328
3	56.08323407173157	fix_pre	0		120	1.0	2.5	/experiments/knapen_AOT/AOT_stimuli/rescaled_final/1975_rv.mp4	0.0	73.13530397415161	1.0085246562957764
3	56.6667799949646	pulse	0	t		1.0	2.5	/experiments/knapen_AOT/AOT_stimuli/rescaled_final/1975_rv.mp4	0.0	73.71884989738464	
3	57.091758728027344	movie	1		289	1.0	2.5	/experiments/knapen_AOT/AOT_stimuli/rescaled_final/1975_rv.mp4	0.0	74.14382863044739	2.4920570850372314
3	58.26533889770508	pulse	1	t		1.0	2.5	/experiments/knapen_AOT/AOT_stimuli/rescaled_final/1975_rv.mp4	0.0	75.31740880012512	
3	59.583815813064575	fix_post	2		12	1.0	2.5	/experiments/knapen_AOT/AOT_stimuli/rescaled_final/1975_rv.mp4	0.0	76.63588571548462	0.10001659393310547
4	59.68383240699768	fix_pre	0		120	2.0	2.5	/experiments/knapen_AOT/AOT_stimuli/rescaled_final/1512_fw.mp4	0.0	76.73590230941772	1.0084176063537598
4	59.867247104644775	pulse	0	t		2.0	2.5	/experiments/knapen_AOT/AOT_stimuli/rescaled_final/1512_fw.mp4	0.0	76.91931700706482	
4	60.69225001335144	movie	1		283	2.0	2.5	/experiments/knapen_AOT/AOT_stimuli/rescaled_final/1512_fw.mp4	0.0	77.74431991577148	2.500404119491577
4	61.46515345573425	pulse	1	t		2.0	2.5	/experiments/knapen_AOT/AOT_stimuli/rescaled_final/1512_fw.mp4	0.0	78.5172233581543	
4	63.06712198257446	pulse	1	t		2.0	2.5	/experiments/knapen_AOT/AOT_stimuli/rescaled_final/1512_fw.mp4	0.0	80.1191918849945	
4	63.19265413284302	fix_post	2		11	2.0	2.5	/experiments/knapen_AOT/AOT_stimuli/rescaled_final/1512_fw.mp4	0.0	80.24472403526306	0.09166502952575684
5	63.284319162368774	fix_pre	0		120	3.0	2.5	/experiments/knapen_AOT/AOT_stimuli/rescaled_final/0799_fw.mp4	0.0	80.33638906478882	1.0085253715515137
5	64.29284453392029	movie	1		274	3.0	2.5	/experiments/knapen_AOT/AOT_stimuli/rescaled_final/0799_fw.mp4	0.0	81.34491443634033	2.4920520782470703
5	64.66602444648743	pulse	1	t		3.0	2.5	/experiments/knapen_AOT/AOT_stimuli/rescaled_final/0799_fw.mp4	0.0	81.71809434890747	
5	66.26613807678223	pulse	1	t		3.0	2.5	/experiments/knapen_AOT/AOT_stimuli/rescaled_final/0799_fw.mp4	0.0	83.31820797920227	
5	66.78489661216736	fix_post	2		12	3.0	2.5	/experiments/knapen_AOT/AOT_stimuli/rescaled_final/0799_fw.mp4	0.0	83.8369665145874	0.09998846054077148
6	66.88488507270813	fix_pre	0		119	4.0	2.5	/experiments/knapen_AOT/AOT_stimuli/rescaled_final/1512_fw.mp4	0.0	83.93695497512817	1.0001342296600342
6	67.86849188804626	pulse	0	t		4.0	2.5	/experiments/knapen_AOT/AOT_stimuli/rescaled_final/1512_fw.mp4	0.0	84.92056179046631	
6	67.88501930236816	movie	1		289	4.0	2.5	/experiments/knapen_AOT/AOT_stimuli/rescaled_final/1512_fw.mp4	0.0	84.93708920478821	2.500354766845703
6	69.46698713302612	pulse	1	t		4.0	2.5	/experiments/knapen_AOT/AOT_stimuli/rescaled_final/1512_fw.mp4	0.0	86.51905703544617	
6	70.38537406921387	fix_post	2		12	4.0	2.5	/experiments/knapen_AOT/AOT_stimuli/rescaled_final/1512_fw.mp4	0.0	87.43744397163391	0.10018801689147949
7	70.48556208610535	fix_pre	0		120	5.0	2.5	blank	1.0	87.53763198852539	0.9999663829803467
7	71.06895351409912	pulse	0	t		5.0	2.5	blank	1.0	88.12102341651917	
7	71.4855284690857	movie	1		300	5.0	2.5	blank	1.0	88.53759837150574	2.5003931522369385
7	72.66915845870972	pulse	1	t		5.0	2.5	blank	1.0	89.72122836112976	
7	73.98592162132263	fix_post	2		12	5.0	2.5	blank	1.0	91.03799152374268	0.10005331039428711
8	74.08597493171692	fix_pre	0		120	6.0	2.5	/experiments/knapen_AOT/AOT_stimuli/rescaled_final/0381_rv.mp4	0.0	91.13804483413696	1.008443832397461
8	74.26943039894104	pulse	0	t		6.0	2.5	/experiments/knapen_AOT/AOT_stimuli/rescaled_final/0381_rv.mp4	0.0	91.32150030136108	
8	75.09441876411438	movie	1		286	6.0	2.5	/experiments/knapen_AOT/AOT_stimuli/rescaled_final/0381_rv.mp4	0.0	92.14648866653442	2.492058515548706
8	75.86984634399414	pulse	1	t		6.0	2.5	/experiments/knapen_AOT/AOT_stimuli/rescaled_final/0381_rv.mp4	0.0	92.92191624641418	
8	77.46845650672913	pulse	1	t		6.0	2.5	/experiments/knapen_AOT/AOT_stimuli/rescaled_final/0381_rv.mp4	0.0	94.52052640914917	
8	77.58647727966309	fix_post	2		12	6.0	2.5	/experiments/knapen_AOT/AOT_stimuli/rescaled_final/0381_rv.mp4	0.0	94.63854718208313	0.09998703002929688
9	77.68646430969238	fix_pre	0		120	7.0	2.5	/experiments/knapen_AOT/AOT_stimuli/rescaled_final/0804_fw.mp4	0.0	94.73853421211243	1.0085649490356445
9	78.69502925872803	movie	1		286	7.0	2.5	/experiments/knapen_AOT/AOT_stimuli/rescaled_final/0804_fw.mp4	0.0	95.74709916114807	2.4920401573181152
9	79.06842684745789	pulse	1	t		7.0	2.5	/experiments/knapen_AOT/AOT_stimuli/rescaled_final/0804_fw.mp4	0.0	96.12049674987793	
9	80.66826057434082	pulse	1	t		7.0	2.5	/experiments/knapen_AOT/AOT_stimuli/rescaled_final/0804_fw.mp4	0.0	97.72033047676086	
9	81.18706941604614	fix_post	2		12	7.0	2.5	/experiments/knapen_AOT/AOT_stimuli/rescaled_final/0804_fw.mp4	0.0	98.23913931846619	0.09998250007629395
10	81.28705191612244	fix_pre	0		119	8.0	2.5	/experiments/knapen_AOT/AOT_stimuli/rescaled_final/0427_fw.mp4	0.0	98.33912181854248	1.0001091957092285
10	82.26337265968323	pulse	0	t		8.0	2.5	/experiments/knapen_AOT/AOT_stimuli/rescaled_final/0427_fw.mp4	0.0	99.31544256210327	
10	82.28716111183167	movie	1		287	8.0	2.5	/experiments/knapen_AOT/AOT_stimuli/rescaled_final/0427_fw.mp4	0.0	99.33923101425171	2.5003669261932373
10	83.86905360221863	pulse	1	t		8.0	2.5	/experiments/knapen_AOT/AOT_stimuli/rescaled_final/0427_fw.mp4	0.0	100.92112350463867	
10	84.7875280380249	fix_post	2		12	8.0	2.5	/experiments/knapen_AOT/AOT_stimuli/rescaled_final/0427_fw.mp4	0.0	101.83959794044495	0.10003280639648438
11	84.88756084442139	fix_pre	0		120	9.0	2.5	/experiments/knapen_AOT/AOT_stimuli/rescaled_final/2141_fw.mp4	0.0	101.93963074684143	1.0084922313690186
11	85.46325945854187	pulse	0	t		9.0	2.5	/experiments/knapen_AOT/AOT_stimuli/rescaled_final/2141_fw.mp4	0.0	102.51532936096191	
11	85.8960530757904	movie	1		286	9.0	2.5	/experiments/knapen_AOT/AOT_stimuli/rescaled_final/2141_fw.mp4	0.0	102.94812297821045	2.4920883178710938
11	87.06329917907715	pulse	1	t		9.0	2.5	/experiments/knapen_AOT/AOT_stimuli/rescaled_final/2141_fw.mp4	0.0	104.11536908149719	
11	88.3881413936615	fix_post	2		12	9.0	2.5	/experiments/knapen_AOT/AOT_stimuli/rescaled_final/2141_fw.mp4	0.0	105.44021129608154	0.10014772415161133
12	88.48828911781311	fix_pre	0		120	10.0	2.5	/experiments/knapen_AOT/AOT_stimuli/rescaled_final/1662_rv.mp4	0.0	105.54035902023315	1.008314847946167
12	88.66342377662659	pulse	0	t		10.0	2.5	/experiments/knapen_AOT/AOT_stimuli/rescaled_final/1662_rv.mp4	0.0	105.71549367904663	
12	89.49660396575928	movie	1		283	10.0	2.5	/experiments/knapen_AOT/AOT_stimuli/rescaled_final/1662_rv.mp4	0.0	106.54867386817932	2.492032766342163
12	90.26353549957275	pulse	1	t		10.0	2.5	/experiments/knapen_AOT/AOT_stimuli/rescaled_final/1662_rv.mp4	0.0	107.3156054019928	
12	91.86473369598389	pulse	1	t		10.0	2.5	/experiments/knapen_AOT/AOT_stimuli/rescaled_final/1662_rv.mp4	0.0	108.91680359840393	
12	91.98863673210144	fix_post	2		12	10.0	2.5	/experiments/knapen_AOT/AOT_stimuli/rescaled_final/1662_rv.mp4	0.0	109.04070663452148	0.10002732276916504
13	92.0886640548706	fix_pre	0		120	11.0	2.5	/experiments/knapen_AOT/AOT_stimuli/rescaled_final/1705_fw.mp4	0.0	109.14073395729065	1.0084614753723145
13	93.09712553024292	movie	1		283	11.0	2.5	/experiments/knapen_AOT/AOT_stimuli/rescaled_final/1705_fw.mp4	0.0	110.14919543266296	2.4920990467071533
13	93.46403503417969	pulse	1	t		11.0	2.5	/experiments/knapen_AOT/AOT_stimuli/rescaled_final/1705_fw.mp4	0.0	110.51610493659973	
13	95.06423449516296	pulse	1	t		11.0	2.5	/experiments/knapen_AOT/AOT_stimuli/rescaled_final/1705_fw.mp4	0.0	112.11630439758301	
13	95.58922457695007	fix_post	2		12	11.0	2.5	/experiments/knapen_AOT/AOT_stimuli/rescaled_final/1705_fw.mp4	0.0	112.64129447937012	0.10001420974731445
14	95.68923878669739	fix_pre	0		118	12.0	2.5	/experiments/knapen_AOT/AOT_stimuli/rescaled_final/1870_rv.mp4	0.0	112.74130868911743	0.991786003112793
14	96.6646933555603	pulse	0	t		12.0	2.5	/experiments/knapen_AOT/AOT_stimuli/rescaled_final/1870_rv.mp4	0.0	113.71676325798035	
14	96.68102478981018	movie	1		284	12.0	2.5	/experiments/knapen_AOT/AOT_stimuli/rescaled_final/1870_rv.mp4	0.0	113.73309469223022	2.5003552436828613
14	98.26309871673584	pulse	1	t		12.0	2.5	/experiments/knapen_AOT/AOT_stimuli/rescaled_final/1870_rv.mp4	0.0	115.31516861915588	
14	99.18138003349304	fix_post	2		12	12.0	2.5	/experiments/knapen_AOT/AOT_stimuli/rescaled_final/1870_rv.mp4	0.0	116.23344993591309	0.10001683235168457
15	99.28139686584473	fix_pre	0		120	13.0	2.5	blank	1.0	116.33346676826477	1.0002641677856445
15	99.86506772041321	pulse	0	t		13.0	2.5	blank	1.0	116.91713762283325	
15	100.28166103363037	movie	1		300	13.0	2.5	blank	1.0	117.33373093605042	2.5002388954162598
15	101.46523261070251	pulse	1	t		13.0	2.5	blank	1.0	118.51730251312256	
15	102.78189992904663	fix_post	2		12	13.0	2.5	blank	1.0	119.83396983146667	0.10009765625
16	102.88199758529663	fix_pre	0		120	14.0	2.5	/experiments/knapen_AOT/AOT_stimuli/rescaled_final/0536_fw.mp4	0.0	119.93406748771667	1.0084865093231201
16	103.06544876098633	pulse	0	t		14.0	2.5	/experiments/knapen_AOT/AOT_stimuli/rescaled_final/0536_fw.mp4	0.0	120.11751866340637	
16	103.89048409461975	movie	1		278	14.0	2.5	/experiments/knapen_AOT/AOT_stimuli/rescaled_final/0536_fw.mp4	0.0	120.9425539970398	2.4919965267181396
16	104.66540122032166	pulse	1	t		14.0	2.5	/experiments/knapen_AOT/AOT_stimuli/rescaled_final/0536_fw.mp4	0.0	121.7174711227417	
16	106.26366019248962	pulse	1	t		14.0	2.5	/experiments/knapen_AOT/AOT_stimuli/rescaled_final/0536_fw.mp4	0.0	123.31573009490967	
16	106.38248062133789	fix_post	2		12	14.0	2.5	/experiments/knapen_AOT/AOT_stimuli/rescaled_final/0536_fw.mp4	0.0	123.43455052375793	0.0999913215637207
17	106.48247194290161	fix_pre	0		120	15.0	2.5	/experiments/knapen_AOT/AOT_stimuli/rescaled_final/1093_rv.mp4	0.0	123.53454184532166	1.0085065364837646
17	107.49097847938538	movie	1		288	15.0	2.5	/experiments/knapen_AOT/AOT_stimuli/rescaled_final/1093_rv.mp4	0.0	124.54304838180542	2.4920661449432373
17	107.86437344551086	pulse	1	t		15.0	2.5	/experiments/knapen_AOT/AOT_stimuli/rescaled_final/1093_rv.mp4	0.0	124.91644334793091	
17	109.46415138244629	pulse	1	t		15.0	2.5	/experiments/knapen_AOT/AOT_stimuli/rescaled_final/1093_rv.mp4	0.0	126.51622128486633	
17	109.98304462432861	fix_post	2		12	15.0	2.5	/experiments/knapen_AOT/AOT_stimuli/rescaled_final/1093_rv.mp4	0.0	127.03511452674866	0.09995579719543457
18	110.08300042152405	fix_pre	0		119	16.0	2.5	/experiments/knapen_AOT/AOT_stimuli/rescaled_final/1860_rv.mp4	0.0	127.13507032394409	1.0001704692840576
18	111.06664156913757	pulse	0	t		16.0	2.5	/experiments/knapen_AOT/AOT_stimuli/rescaled_final/1860_rv.mp4	0.0	128.11871147155762	
18	111.0831708908081	movie	1		281	16.0	2.5	/experiments/knapen_AOT/AOT_stimuli/rescaled_final/1860_rv.mp4	0.0	128.13524079322815	2.5003764629364014
18	112.66670536994934	pulse	1	t		16.0	2.5	/experiments/knapen_AOT/AOT_stimuli/rescaled_final/1860_rv.mp4	0.0	129.71877527236938	
18	113.5835473537445	fix_post	2		12	16.0	2.5	/experiments/knapen_AOT/AOT_stimuli/rescaled_final/1860_rv.mp4	0.0	130.63561725616455	0.10001325607299805
19	113.6835606098175	fix_pre	0		120	17.0	2.5	/experiments/knapen_AOT/AOT_stimuli/rescaled_final/0468_fw.mp4	0.0	130.73563051223755	1.0085117816925049
19	114.26710748672485	pulse	0	t		17.0	2.5	/experiments/knapen_AOT/AOT_stimuli/rescaled_final/0468_fw.mp4	0.0	131.3191773891449	
19	114.69207239151001	movie	1		278	17.0	2.5	/experiments/knapen_AOT/AOT_stimuli/rescaled_final/0468_fw.mp4	0.0	131.74414229393005	2.4920084476470947
19	115.8659656047821	pulse	1	t		17.0	2.5	/experiments/knapen_AOT/AOT_stimuli/rescaled_final/0468_fw.mp4	0.0	132.91803550720215	
19	117.1840808391571	fix_post	2		12	17.0	2.5	/experiments/knapen_AOT/AOT_stimuli/rescaled_final/0468_fw.mp4	0.0	134.23615074157715	0.10000419616699219
20	117.2840850353241	fix_pre	0		120	18.0	2.5	/experiments/knapen_AOT/AOT_stimuli/rescaled_final/0465_fw.mp4	0.0	134.33615493774414	1.0085084438323975
20	117.46767044067383	pulse	0	t		18.0	2.5	/experiments/knapen_AOT/AOT_stimuli/rescaled_final/0465_fw.mp4	0.0	134.51974034309387	
20	118.2925934791565	movie	1		281	18.0	2.5	/experiments/knapen_AOT/AOT_stimuli/rescaled_final/0465_fw.mp4	0.0	135.34466338157654	2.4920670986175537
20	119.06575727462769	pulse	1	t		18.0	2.5	/experiments/knapen_AOT/AOT_stimuli/rescaled_final/0465_fw.mp4	0.0	136.11782717704773	
20	120.66593790054321	pulse	1	t		18.0	2.5	/experiments/knapen_AOT/AOT_stimuli/rescaled_final/0465_fw.mp4	0.0	137.71800780296326	
20	120.78466057777405	fix_post	2		12	18.0	2.5	/experiments/knapen_AOT/AOT_stimuli/rescaled_final/0465_fw.mp4	0.0	137.8367304801941	0.09998059272766113
21	120.88464117050171	fix_pre	0		120	19.0	2.5	/experiments/knapen_AOT/AOT_stimuli/rescaled_final/1537_rv.mp4	0.0	137.93671107292175	1.0085086822509766
21	121.89314985275269	movie	1		284	19.0	2.5	/experiments/knapen_AOT/AOT_stimuli/rescaled_final/1537_rv.mp4	0.0	138.94521975517273	2.4920012950897217
21	122.26643562316895	pulse	1	t		19.0	2.5	/experiments/knapen_AOT/AOT_stimuli/rescaled_final/1537_rv.mp4	0.0	139.318505525589	
21	123.8662462234497	pulse	1	t		19.0	2.5	/experiments/knapen_AOT/AOT_stimuli/rescaled_final/1537_rv.mp4	0.0	140.91831612586975	
21	124.38515114784241	fix_post	2		12	19.0	2.5	/experiments/knapen_AOT/AOT_stimuli/rescaled_final/1537_rv.mp4	0.0	141.43722105026245	0.10003209114074707
22	124.48518323898315	fix_pre	0		119	20.0	2.5	/experiments/knapen_AOT/AOT_stimuli/rescaled_final/2017_fw.mp4	0.0	141.5372531414032	1.000159740447998
22	125.46882796287537	pulse	0	t		20.0	2.5	/experiments/knapen_AOT/AOT_stimuli/rescaled_final/2017_fw.mp4	0.0	142.5208978652954	
22	125.48534297943115	movie	1		285	20.0	2.5	/experiments/knapen_AOT/AOT_stimuli/rescaled_final/2017_fw.mp4	0.0	142.5374128818512	2.5003652572631836
22	127.06750226020813	pulse	1	t		20.0	2.5	/experiments/knapen_AOT/AOT_stimuli/rescaled_final/2017_fw.mp4	0.0	144.11957216262817	
22	127.98570823669434	fix_post	2		12	20.0	2.5	/experiments/knapen_AOT/AOT_stimuli/rescaled_final/2017_fw.mp4	0.0	145.03777813911438	0.10002851486206055
23	128.0857367515564	fix_pre	0		120	21.0	2.5	blank	1.0	145.13780665397644	1.0001389980316162
23	128.66935968399048	pulse	0	t		21.0	2.5	blank	1.0	145.72142958641052	
23	129.085875749588	movie	1		300	21.0	2.5	blank	1.0	146.13794565200806	2.500401496887207
23	130.26951837539673	pulse	1	t		21.0	2.5	blank	1.0	147.32158827781677	
23	131.58627724647522	fix_post	2		12	21.0	2.5	blank	1.0	148.63834714889526	0.09998440742492676
24	131.68626165390015	fix_pre	0		120	22.0	2.5	/experiments/knapen_AOT/AOT_stimuli/rescaled_final/1887_rv.mp4	0.0	148.7383315563202	1.0084731578826904
24	131.8698012828827	pulse	0	t		22.0	2.5	/experiments/knapen_AOT/AOT_stimuli/rescaled_final/1887_rv.mp4	0.0	148.92187118530273	
24	132.69473481178284	movie	1		282	22.0	2.5	/experiments/knapen_AOT/AOT_stimuli/rescaled_final/1887_rv.mp4	0.0	149.74680471420288	2.4922003746032715
24	133.4679036140442	pulse	1	t		22.0	2.5	/experiments/knapen_AOT/AOT_stimuli/rescaled_final/1887_rv.mp4	0.0	150.51997351646423	
24	135.06837344169617	pulse	1	t		22.0	2.5	/experiments/knapen_AOT/AOT_stimuli/rescaled_final/1887_rv.mp4	0.0	152.1204433441162	
24	135.1869351863861	fix_post	2		12	22.0	2.5	/experiments/knapen_AOT/AOT_stimuli/rescaled_final/1887_rv.mp4	0.0	152.23900508880615	0.09986495971679688
25	135.2868001461029	fix_pre	0		120	23.0	2.5	/experiments/knapen_AOT/AOT_stimuli/rescaled_final/0200_fw.mp4	0.0	152.33887004852295	1.0086207389831543
25	136.29542088508606	movie	1		288	23.0	2.5	/experiments/knapen_AOT/AOT_stimuli/rescaled_final/0200_fw.mp4	0.0	153.3474907875061	2.4921300411224365
25	136.67000341415405	pulse	1	t		23.0	2.5	/experiments/knapen_AOT/AOT_stimuli/rescaled_final/0200_fw.mp4	0.0	153.7220733165741	
25	138.2686619758606	pulse	1	t		23.0	2.5	/experiments/knapen_AOT/AOT_stimuli/rescaled_final/0200_fw.mp4	0.0	155.32073187828064	
25	138.7875509262085	fix_post	2		12	23.0	2.5	/experiments/knapen_AOT/AOT_stimuli/rescaled_final/0200_fw.mp4	0.0	155.83962082862854	0.09979009628295898
26	138.88734102249146	fix_pre	0		119	24.0	2.5	/experiments/knapen_AOT/AOT_stimuli/rescaled_final/1327_rv.mp4	0.0	155.9394109249115	1.0001461505889893
26	139.87104201316833	pulse	0	t		24.0	2.5	/experiments/knapen_AOT/AOT_stimuli/rescaled_final/1327_rv.mp4	0.0	156.92311191558838	
26	139.88748717308044	movie	1		283	24.0	2.5	/experiments/knapen_AOT/AOT_stimuli/rescaled_final/1327_rv.mp4	0.0	156.9395570755005	2.5003879070281982
26	141.46966218948364	pulse	1	t		24.0	2.5	/experiments/knapen_AOT/AOT_stimuli/rescaled_final/1327_rv.mp4	0.0	158.5217320919037	
26	142.38787508010864	fix_post	2		12	24.0	2.5	/experiments/knapen_AOT/AOT_stimuli/rescaled_final/1327_rv.mp4	0.0	159.4399449825287	0.10000324249267578
27	142.48787832260132	fix_pre	0		120	25.0	2.5	/experiments/knapen_AOT/AOT_stimuli/rescaled_final/0663_fw.mp4	0.0	159.53994822502136	1.0085749626159668
27	143.06352615356445	pulse	0	t		25.0	2.5	/experiments/knapen_AOT/AOT_stimuli/rescaled_final/0663_fw.mp4	0.0	160.1155960559845	
27	143.49645328521729	movie	1		277	25.0	2.5	/experiments/knapen_AOT/AOT_stimuli/rescaled_final/0663_fw.mp4	0.0	160.54852318763733	2.4919915199279785
27	144.66370725631714	pulse	1	t		25.0	2.5	/experiments/knapen_AOT/AOT_stimuli/rescaled_final/0663_fw.mp4	0.0	161.71577715873718	
27	145.98844480514526	fix_post	2		12	25.0	2.5	/experiments/knapen_AOT/AOT_stimuli/rescaled_final/0663_fw.mp4	0.0	163.0405147075653	0.09996795654296875
28	146.08841276168823	fix_pre	0		120	26.0	2.5	/experiments/knapen_AOT/AOT_stimuli/rescaled_final/1903_rv.mp4	0.0	163.14048266410828	1.0085086822509766
28	146.26372003555298	pulse	0	t		26.0	2.5	/experiments/knapen_AOT/AOT_stimuli/rescaled_final/1903_rv.mp4	0.0	163.31578993797302	
28	147.0969214439392	movie	1		277	26.0	2.5	/experiments/knapen_AOT/AOT_stimuli/rescaled_final/1903_rv.mp4	0.0	164.14899134635925	2.4920413494110107
28	147.86404633522034	pulse	1	t		26.0	2.5	/experiments/knapen_AOT/AOT_stimuli/rescaled_final/1903_rv.mp4	0.0	164.91611623764038	
28	149.46411991119385	pulse	1	t		26.0	2.5	/experiments/knapen_AOT/AOT_stimuli/rescaled_final/1903_rv.mp4	0.0	166.5161898136139	
28	149.58896279335022	fix_post	2		12	26.0	2.5	/experiments/knapen_AOT/AOT_stimuli/rescaled_final/1903_rv.mp4	0.0	166.64103269577026	0.1000058650970459
29	149.68896865844727	fix_pre	0		120	27.0	2.5	/experiments/knapen_AOT/AOT_stimuli/rescaled_final/1790_fw.mp4	0.0	166.7410385608673	1.0085022449493408
29	150.6974709033966	movie	1		279	27.0	2.5	/experiments/knapen_AOT/AOT_stimuli/rescaled_final/1790_fw.mp4	0.0	167.74954080581665	2.4920194149017334
29	151.06362986564636	pulse	1	t		27.0	2.5	/experiments/knapen_AOT/AOT_stimuli/rescaled_final/1790_fw.mp4	0.0	168.1156997680664	
29	152.6645965576172	pulse	1	t		27.0	2.5	/experiments/knapen_AOT/AOT_stimuli/rescaled_final/1790_fw.mp4	0.0	169.71666646003723	
29	153.18949031829834	fix_post	2		12	27.0	2.5	/experiments/knapen_AOT/AOT_stimuli/rescaled_final/1790_fw.mp4	0.0	170.24156022071838	0.10002660751342773
30	153.28951692581177	fix_pre	0		118	28.0	2.5	blank	1.0	170.3415868282318	0.983464241027832
30	154.2648422718048	pulse	0	t		28.0	2.5	blank	1.0	171.31691217422485	
30	154.2729811668396	movie	1		301	28.0	2.5	blank	1.0	171.32505106925964	2.508754014968872
30	155.86512160301208	pulse	1	t		28.0	2.5	blank	1.0	172.91719150543213	
30	156.78173518180847	fix_post	2		12	28.0	2.5	blank	1.0	173.83380508422852	0.10008788108825684
31	156.88182306289673	fix_pre	0		120	29.0	2.5	/experiments/knapen_AOT/AOT_stimuli/rescaled_final/1617_rv.mp4	0.0	173.93389296531677	1.0083825588226318
31	157.46527862548828	pulse	0	t		29.0	2.5	/experiments/knapen_AOT/AOT_stimuli/rescaled_final/1617_rv.mp4	0.0	174.51734852790833	
31	157.89020562171936	movie	1		287	29.0	2.5	/experiments/knapen_AOT/AOT_stimuli/rescaled_final/1617_rv.mp4	0.0	174.9422755241394	2.4920294284820557
31	159.06553530693054	pulse	1	t		29.0	2.5	/experiments/knapen_AOT/AOT_stimuli/rescaled_final/1617_rv.mp4	0.0	176.1176052093506	
31	160.38223505020142	fix_post	2		12	29.0	2.5	/experiments/knapen_AOT/AOT_stimuli/rescaled_final/1617_rv.mp4	0.0	177.43430495262146	0.10002803802490234
32	160.48226308822632	fix_pre	0		120	30.0	2.5	/experiments/knapen_AOT/AOT_stimuli/rescaled_final/0625_rv.mp4	0.0	177.53433299064636	1.008512258529663
32	160.66575980186462	pulse	0	t		30.0	2.5	/experiments/knapen_AOT/AOT_stimuli/rescaled_final/0625_rv.mp4	0.0	177.71782970428467	
32	161.49077534675598	movie	1		278	30.0	2.5	/experiments/knapen_AOT/AOT_stimuli/rescaled_final/0625_rv.mp4	0.0	178.54284524917603	2.5003502368927
32	162.2638919353485	pulse	1	t		30.0	2.5	/experiments/knapen_AOT/AOT_stimuli/rescaled_final/0625_rv.mp4	0.0	179.31596183776855	
32	163.86453008651733	pulse	1	t		30.0	2.5	/experiments/knapen_AOT/AOT_stimuli/rescaled_final/0625_rv.mp4	0.0	180.91659998893738	
32	163.99112558364868	fix_post	2		11	30.0	2.5	/experiments/knapen_AOT/AOT_stimuli/rescaled_final/0625_rv.mp4	0.0	181.04319548606873	0.09181404113769531
33	164.08293962478638	fix_pre	0		120	31.0	2.5	/experiments/knapen_AOT/AOT_stimuli/rescaled_final/1004_rv.mp4	0.0	181.13500952720642	1.0083487033843994
33	165.09128832817078	movie	1		285	31.0	2.5	/experiments/knapen_AOT/AOT_stimuli/rescaled_final/1004_rv.mp4	0.0	182.14335823059082	2.49214506149292
33	165.46499252319336	pulse	1	t		31.0	2.5	/experiments/knapen_AOT/AOT_stimuli/rescaled_final/1004_rv.mp4	0.0	182.5170624256134	
33	167.0646049976349	pulse	1	t		31.0	2.5	/experiments/knapen_AOT/AOT_stimuli/rescaled_final/1004_rv.mp4	0.0	184.11667490005493	
33	167.5834333896637	fix_post	2		12	31.0	2.5	/experiments/knapen_AOT/AOT_stimuli/rescaled_final/1004_rv.mp4	0.0	184.63550329208374	0.0999140739440918
34	167.6833474636078	fix_pre	0		119	32.0	2.5	/experiments/knapen_AOT/AOT_stimuli/rescaled_final/1158_fw.mp4	0.0	184.73541736602783	1.000159740447998
34	168.66696453094482	pulse	0	t		32.0	2.5	/experiments/knapen_AOT/AOT_stimuli/rescaled_final/1158_fw.mp4	0.0	185.71903443336487	
34	168.6835072040558	movie	1		287	32.0	2.5	/experiments/knapen_AOT/AOT_stimuli/rescaled_final/1158_fw.mp4	0.0	185.73557710647583	2.500361204147339
34	170.2654128074646	pulse	1	t		32.0	2.5	/experiments/knapen_AOT/AOT_stimuli/rescaled_final/1158_fw.mp4	0.0	187.31748270988464	
34	171.18386840820312	fix_post	2		12	32.0	2.5	/experiments/knapen_AOT/AOT_stimuli/rescaled_final/1158_fw.mp4	0.0	188.23593831062317	0.10005497932434082
35	171.28392338752747	fix_pre	0		120	33.0	2.5	blank	1.0	188.3359932899475	1.0000977516174316
35	171.86743593215942	pulse	0	t		33.0	2.5	blank	1.0	188.91950583457947	
35	172.2840211391449	movie	1		300	33.0	2.5	blank	1.0	189.33609104156494	2.5003609657287598
35	173.4679012298584	pulse	1	t		33.0	2.5	blank	1.0	190.51997113227844	
35	174.78438210487366	fix_post	2		12	33.0	2.5	blank	1.0	191.8364520072937	0.10004568099975586
36	174.8844277858734	fix_pre	0		120	34.0	2.5	/experiments/knapen_AOT/AOT_stimuli/rescaled_final/1277_rv.mp4	0.0	191.93649768829346	1.0084984302520752
36	175.06795239448547	pulse	0	t		34.0	2.5	/experiments/knapen_AOT/AOT_stimuli/rescaled_final/1277_rv.mp4	0.0	192.12002229690552	
36	175.8929262161255	movie	1		278	34.0	2.5	/experiments/knapen_AOT/AOT_stimuli/rescaled_final/1277_rv.mp4	0.0	192.94499611854553	2.4920480251312256
36	176.6658308506012	pulse	1	t		34.0	2.5	/experiments/knapen_AOT/AOT_stimuli/rescaled_final/1277_rv.mp4	0.0	193.71790075302124	
36	178.26640820503235	pulse	1	t		34.0	2.5	/experiments/knapen_AOT/AOT_stimuli/rescaled_final/1277_rv.mp4	0.0	195.3184781074524	
36	178.3849742412567	fix_post	2		12	34.0	2.5	/experiments/knapen_AOT/AOT_stimuli/rescaled_final/1277_rv.mp4	0.0	195.43704414367676	0.10004544258117676
37	178.4850196838379	fix_pre	0		120	35.0	2.5	/experiments/knapen_AOT/AOT_stimuli/rescaled_final/0020_rv.mp4	0.0	195.53708958625793	1.0085158348083496
37	179.49353551864624	movie	1		291	35.0	2.5	/experiments/knapen_AOT/AOT_stimuli/rescaled_final/0020_rv.mp4	0.0	196.54560542106628	2.4919450283050537
37	179.86682868003845	pulse	1	t		35.0	2.5	/experiments/knapen_AOT/AOT_stimuli/rescaled_final/0020_rv.mp4	0.0	196.9188985824585	
37	181.46677684783936	pulse	1	t		35.0	2.5	/experiments/knapen_AOT/AOT_stimuli/rescaled_final/0020_rv.mp4	0.0	198.5188467502594	
37	181.9854805469513	fix_post	2		12	35.0	2.5	/experiments/knapen_AOT/AOT_stimuli/rescaled_final/0020_rv.mp4	0.0	199.03755044937134	0.10001993179321289
38	182.0855004787445	fix_pre	0		119	36.0	2.5	/experiments/knapen_AOT/AOT_stimuli/rescaled_final/0856_rv.mp4	0.0	199.13757038116455	1.000190019607544
38	183.0691225528717	pulse	0	t		36.0	2.5	/experiments/knapen_AOT/AOT_stimuli/rescaled_final/0856_rv.mp4	0.0	200.12119245529175	
38	183.08569049835205	movie	1		290	36.0	2.5	/experiments/knapen_AOT/AOT_stimuli/rescaled_final/0856_rv.mp4	0.0	200.1377604007721	2.50036883354187
38	184.66811084747314	pulse	1	t		36.0	2.5	/experiments/knapen_AOT/AOT_stimuli/rescaled_final/0856_rv.mp4	0.0	201.7201807498932	
38	185.58605933189392	fix_post	2		12	36.0	2.5	/experiments/knapen_AOT/AOT_stimuli/rescaled_final/0856_rv.mp4	0.0	202.63812923431396	0.09999537467956543
39	185.6860547065735	fix_pre	0		120	37.0	2.5	/experiments/knapen_AOT/AOT_stimuli/rescaled_final/1950_rv.mp4	0.0	202.73812460899353	1.008476972579956
39	186.26965475082397	pulse	0	t		37.0	2.5	/experiments/knapen_AOT/AOT_stimuli/rescaled_final/1950_rv.mp4	0.0	203.32172465324402	
39	186.69453167915344	movie	1		281	37.0	2.5	/experiments/knapen_AOT/AOT_stimuli/rescaled_final/1950_rv.mp4	0.0	203.7466015815735	2.492039203643799
39	187.86805248260498	pulse	1	t		37.0	2.5	/experiments/knapen_AOT/AOT_stimuli/rescaled_final/1950_rv.mp4	0.0	204.92012238502502	
39	189.18657088279724	fix_post	2		12	37.0	2.5	/experiments/knapen_AOT/AOT_stimuli/rescaled_final/1950_rv.mp4	0.0	206.23864078521729	0.1000370979309082
40	189.28660798072815	fix_pre	0		120	38.0	2.5	/experiments/knapen_AOT/AOT_stimuli/rescaled_final/1834_rv.mp4	0.0	206.3386778831482	1.008561611175537
40	189.47009253501892	pulse	0	t		38.0	2.5	/experiments/knapen_AOT/AOT_stimuli/rescaled_final/1834_rv.mp4	0.0	206.52216243743896	
40	190.2951695919037	movie	1		272	38.0	2.5	/experiments/knapen_AOT/AOT_stimuli/rescaled_final/1834_rv.mp4	0.0	207.34723949432373	2.4919557571411133
40	191.06862449645996	pulse	1	t		38.0	2.5	/experiments/knapen_AOT/AOT_stimuli/rescaled_final/1834_rv.mp4	0.0	208.12069439888	
40	192.66938972473145	pulse	1	t		38.0	2.5	/experiments/knapen_AOT/AOT_stimuli/rescaled_final/1834_rv.mp4	0.0	209.7214596271515	
40	192.7871253490448	fix_post	2		12	38.0	2.5	/experiments/knapen_AOT/AOT_stimuli/rescaled_final/1834_rv.mp4	0.0	209.83919525146484	0.09997749328613281
41	192.88710284233093	fix_pre	0		120	39.0	2.5	/experiments/knapen_AOT/AOT_stimuli/rescaled_final/0895_fw.mp4	0.0	209.93917274475098	1.0085058212280273
41	193.89560866355896	movie	1		280	39.0	2.5	/experiments/knapen_AOT/AOT_stimuli/rescaled_final/0895_fw.mp4	0.0	210.947678565979	2.4920828342437744
41	194.26907920837402	pulse	1	t		39.0	2.5	/experiments/knapen_AOT/AOT_stimuli/rescaled_final/0895_fw.mp4	0.0	211.32114911079407	
41	195.86891674995422	pulse	1	t		39.0	2.5	/experiments/knapen_AOT/AOT_stimuli/rescaled_final/0895_fw.mp4	0.0	212.92098665237427	
41	196.38769149780273	fix_post	2		12	39.0	2.5	/experiments/knapen_AOT/AOT_stimuli/rescaled_final/0895_fw.mp4	0.0	213.43976140022278	0.10000181198120117
42	196.48769330978394	fix_pre	0		119	40.0	2.5	/experiments/knapen_AOT/AOT_stimuli/rescaled_final/0756_fw.mp4	0.0	213.53976321220398	1.0001392364501953
42	197.4712884426117	pulse	0	t		40.0	2.5	/experiments/knapen_AOT/AOT_stimuli/rescaled_final/0756_fw.mp4	0.0	214.52335834503174	
42	197.48783254623413	movie	1		279	40.0	2.5	/experiments/knapen_AOT/AOT_stimuli/rescaled_final/0756_fw.mp4	0.0	214.53990244865417	2.5004122257232666
42	199.07049417495728	pulse	1	t		40.0	2.5	/experiments/knapen_AOT/AOT_stimuli/rescaled_final/0756_fw.mp4	0.0	216.12256407737732	
42	199.9882447719574	fix_post	2		12	40.0	2.5	/experiments/knapen_AOT/AOT_stimuli/rescaled_final/0756_fw.mp4	0.0	217.04031467437744	0.10003447532653809
43	200.08827924728394	fix_pre	0		120	41.0	2.5	blank	1.0	217.14034914970398	1.0000715255737305
43	200.67178630828857	pulse	0	t		41.0	2.5	blank	1.0	217.72385621070862	
43	201.08835077285767	movie	1		300	41.0	2.5	blank	1.0	218.1404206752777	2.5004618167877197
43	202.26407599449158	pulse	1	t		41.0	2.5	blank	1.0	219.31614589691162	
43	203.58881258964539	fix_post	2		12	41.0	2.5	blank	1.0	220.64088249206543	0.1000370979309082
44	203.6888496875763	fix_pre	0		120	42.0	2.5	/experiments/knapen_AOT/AOT_stimuli/rescaled_final/1690_rv.mp4	0.0	220.74091958999634	1.008406400680542
44	203.86415123939514	pulse	0	t		42.0	2.5	/experiments/knapen_AOT/AOT_stimuli/rescaled_final/1690_rv.mp4	0.0	220.91622114181519	
44	204.69725608825684	movie	1		282	42.0	2.5	/experiments/knapen_AOT/AOT_stimuli/rescaled_final/1690_rv.mp4	0.0	221.74932599067688	2.492047071456909
44	205.4641523361206	pulse	1	t		42.0	2.5	/experiments/knapen_AOT/AOT_stimuli/rescaled_final/1690_rv.mp4	0.0	222.51622223854065	
44	207.06442141532898	pulse	1	t		42.0	2.5	/experiments/knapen_AOT/AOT_stimuli/rescaled_final/1690_rv.mp4	0.0	224.11649131774902	
44	207.18930315971375	fix_post	2		12	42.0	2.5	/experiments/knapen_AOT/AOT_stimuli/rescaled_final/1690_rv.mp4	0.0	224.2413730621338	0.10000753402709961
45	207.28931069374084	fix_pre	0		120	43.0	2.5	/experiments/knapen_AOT/AOT_stimuli/rescaled_final/1510_fw.mp4	0.0	224.3413805961609	1.0086302757263184
45	208.29794096946716	movie	1		284	43.0	2.5	/experiments/knapen_AOT/AOT_stimuli/rescaled_final/1510_fw.mp4	0.0	225.3500108718872	2.4919047355651855
45	208.66480112075806	pulse	1	t		43.0	2.5	/experiments/knapen_AOT/AOT_stimuli/rescaled_final/1510_fw.mp4	0.0	225.7168710231781	
45	210.26494455337524	pulse	1	t		43.0	2.5	/experiments/knapen_AOT/AOT_stimuli/rescaled_final/1510_fw.mp4	0.0	227.3170144557953	
45	210.78984570503235	fix_post	2		12	43.0	2.5	/experiments/knapen_AOT/AOT_stimuli/rescaled_final/1510_fw.mp4	0.0	227.8419156074524	0.10004448890686035
46	210.8898901939392	fix_pre	0		118	44.0	2.5	/experiments/knapen_AOT/AOT_stimuli/rescaled_final/0504_rv.mp4	0.0	227.94196009635925	0.9917757511138916
46	211.86522507667542	pulse	0	t		44.0	2.5	/experiments/knapen_AOT/AOT_stimuli/rescaled_final/0504_rv.mp4	0.0	228.91729497909546	
46	211.8816659450531	movie	1		294	44.0	2.5	/experiments/knapen_AOT/AOT_stimuli/rescaled_final/0504_rv.mp4	0.0	228.93373584747314	2.5003767013549805
46	213.46460247039795	pulse	1	t		44.0	2.5	/experiments/knapen_AOT/AOT_stimuli/rescaled_final/0504_rv.mp4	0.0	230.516672372818	
46	214.38204264640808	fix_post	2		12	44.0	2.5	/experiments/knapen_AOT/AOT_stimuli/rescaled_final/0504_rv.mp4	0.0	231.43411254882812	0.10001540184020996
47	214.4820580482483	fix_pre	0		120	45.0	2.5	/experiments/knapen_AOT/AOT_stimuli/rescaled_final/1218_fw.mp4	0.0	231.53412795066833	1.008509635925293
47	215.06561064720154	pulse	0	t		45.0	2.5	/experiments/knapen_AOT/AOT_stimuli/rescaled_final/1218_fw.mp4	0.0	232.11768054962158	
47	215.49056768417358	movie	1		285	45.0	2.5	/experiments/knapen_AOT/AOT_stimuli/rescaled_final/1218_fw.mp4	0.0	232.54263758659363	2.49200439453125
47	216.66405320167542	pulse	1	t		45.0	2.5	/experiments/knapen_AOT/AOT_stimuli/rescaled_final/1218_fw.mp4	0.0	233.71612310409546	
47	217.98257207870483	fix_post	2		12	45.0	2.5	/experiments/knapen_AOT/AOT_stimuli/rescaled_final/1218_fw.mp4	0.0	235.03464198112488	0.10006189346313477
48	218.08263397216797	fix_pre	0		104	46.0	2.5	/experiments/knapen_AOT/AOT_stimuli/rescaled_final/0676_rv.mp4	0.0	235.134703874588	1.0085780620574951
48	218.26634168624878	pulse	0	t		46.0	2.5	/experiments/knapen_AOT/AOT_stimuli/rescaled_final/0676_rv.mp4	0.0	235.31841158866882	
48	219.09121203422546	movie	1		274	46.0	2.5	/experiments/knapen_AOT/AOT_stimuli/rescaled_final/0676_rv.mp4	0.0	236.1432819366455	2.491905689239502
48	219.86422443389893	pulse	1	t		46.0	2.5	/experiments/knapen_AOT/AOT_stimuli/rescaled_final/0676_rv.mp4	0.0	236.91629433631897	
48	221.46455073356628	pulse	1	t		46.0	2.5	/experiments/knapen_AOT/AOT_stimuli/rescaled_final/0676_rv.mp4	0.0	238.51662063598633	
48	221.58311772346497	fix_post	2		12	46.0	2.5	/experiments/knapen_AOT/AOT_stimuli/rescaled_final/0676_rv.mp4	0.0	238.635187625885	0.10003852844238281
49	221.68315625190735	fix_pre	0		120	47.0	2.5	/experiments/knapen_AOT/AOT_stimuli/rescaled_final/0465_rv.mp4	0.0	238.7352261543274	1.008488416671753
49	222.6916446685791	movie	1		280	47.0	2.5	/experiments/knapen_AOT/AOT_stimuli/rescaled_final/0465_rv.mp4	0.0	239.74371457099915	2.4921035766601562
49	223.06637287139893	pulse	1	t		47.0	2.5	/experiments/knapen_AOT/AOT_stimuli/rescaled_final/0465_rv.mp4	0.0	240.11844277381897	
49	224.66497659683228	pulse	1	t		47.0	2.5	/experiments/knapen_AOT/AOT_stimuli/rescaled_final/0465_rv.mp4	0.0	241.71704649925232	
49	225.18374824523926	fix_post	2		12	47.0	2.5	/experiments/knapen_AOT/AOT_stimuli/rescaled_final/0465_rv.mp4	0.0	242.2358181476593	0.09995341300964355
50	225.2837016582489	fix_pre	0		119	48.0	2.5	/experiments/knapen_AOT/AOT_stimuli/rescaled_final/1656_fw.mp4	0.0	242.33577156066895	1.0001354217529297
50	226.2673761844635	pulse	0	t		48.0	2.5	/experiments/knapen_AOT/AOT_stimuli/rescaled_final/1656_fw.mp4	0.0	243.31944608688354	
50	226.28383708000183	movie	1		278	48.0	2.5	/experiments/knapen_AOT/AOT_stimuli/rescaled_final/1656_fw.mp4	0.0	243.33590698242188	2.5003557205200195
50	227.86619639396667	pulse	1	t		48.0	2.5	/experiments/knapen_AOT/AOT_stimuli/rescaled_final/1656_fw.mp4	0.0	244.91826629638672	
50	228.78419280052185	fix_post	2		12	48.0	2.5	/experiments/knapen_AOT/AOT_stimuli/rescaled_final/1656_fw.mp4	0.0	245.8362627029419	0.10001993179321289
51	228.88421273231506	fix_pre	0		120	49.0	2.5	blank	1.0	245.9362826347351	1.0001416206359863
51	229.46788954734802	pulse	0	t		49.0	2.5	blank	1.0	246.51995944976807	
51	229.88435435295105	movie	1		300	49.0	2.5	blank	1.0	246.9364242553711	2.500406265258789
51	231.06811046600342	pulse	1	t		49.0	2.5	blank	1.0	248.12018036842346	
51	232.38476061820984	fix_post	2		12	49.0	2.5	blank	1.0	249.43683052062988	0.09998965263366699
52	232.4847502708435	fix_pre	0		120	50.0	2.5	/experiments/knapen_AOT/AOT_stimuli/rescaled_final/1239_fw.mp4	0.0	249.53682017326355	1.0085391998291016
52	232.66833424568176	pulse	0	t		50.0	2.5	/experiments/knapen_AOT/AOT_stimuli/rescaled_final/1239_fw.mp4	0.0	249.7204041481018	
52	233.4932894706726	movie	1		290	50.0	2.5	/experiments/knapen_AOT/AOT_stimuli/rescaled_final/1239_fw.mp4	0.0	250.54535937309265	2.491982936859131
52	234.26635670661926	pulse	1	t		50.0	2.5	/experiments/knapen_AOT/AOT_stimuli/rescaled_final/1239_fw.mp4	0.0	251.3184266090393	
52	235.86688208580017	pulse	1	t		50.0	2.5	/experiments/knapen_AOT/AOT_stimuli/rescaled_final/1239_fw.mp4	0.0	252.91895198822021	
52	235.98527240753174	fix_post	2		12	50.0	2.5	/experiments/knapen_AOT/AOT_stimuli/rescaled_final/1239_fw.mp4	0.0	253.03734230995178	0.10004353523254395
53	236.08531594276428	fix_pre	0		120	51.0	2.5	/experiments/knapen_AOT/AOT_stimuli/rescaled_final/0387_fw.mp4	0.0	253.13738584518433	1.008472204208374
53	237.09378814697266	movie	1		285	51.0	2.5	/experiments/knapen_AOT/AOT_stimuli/rescaled_final/0387_fw.mp4	0.0	254.1458580493927	2.4920687675476074
53	237.46723818778992	pulse	1	t		51.0	2.5	/experiments/knapen_AOT/AOT_stimuli/rescaled_final/0387_fw.mp4	0.0	254.51930809020996	
53	239.06753540039062	pulse	1	t		51.0	2.5	/experiments/knapen_AOT/AOT_stimuli/rescaled_final/0387_fw.mp4	0.0	256.11960530281067	
53	239.58585691452026	fix_post	2		12	51.0	2.5	/experiments/knapen_AOT/AOT_stimuli/rescaled_final/0387_fw.mp4	0.0	256.6379268169403	0.09996914863586426
54	239.68582606315613	fix_pre	0		119	52.0	2.5	/experiments/knapen_AOT/AOT_stimuli/rescaled_final/0756_fw.mp4	0.0	256.7378959655762	1.0001983642578125
54	240.6695008277893	pulse	0	t		52.0	2.5	/experiments/knapen_AOT/AOT_stimuli/rescaled_final/0756_fw.mp4	0.0	257.72157073020935	
54	240.68602442741394	movie	1		286	52.0	2.5	/experiments/knapen_AOT/AOT_stimuli/rescaled_final/0756_fw.mp4	0.0	257.738094329834	2.5003302097320557
54	242.26797533035278	pulse	1	t		52.0	2.5	/experiments/knapen_AOT/AOT_stimuli/rescaled_final/0756_fw.mp4	0.0	259.3200452327728	
54	243.186354637146	fix_post	2		12	52.0	2.5	/experiments/knapen_AOT/AOT_stimuli/rescaled_final/0756_fw.mp4	0.0	260.23842453956604	0.10007596015930176
55	243.2864305973053	fix_pre	0		120	53.0	2.5	/experiments/knapen_AOT/AOT_stimuli/rescaled_final/1334_fw.mp4	0.0	260.33850049972534	1.008446216583252
55	243.8700020313263	pulse	0	t		53.0	2.5	/experiments/knapen_AOT/AOT_stimuli/rescaled_final/1334_fw.mp4	0.0	260.92207193374634	
55	244.29487681388855	movie	1		290	53.0	2.5	/experiments/knapen_AOT/AOT_stimuli/rescaled_final/1334_fw.mp4	0.0	261.3469467163086	2.4920332431793213
55	245.468270778656	pulse	1	t		53.0	2.5	/experiments/knapen_AOT/AOT_stimuli/rescaled_final/1334_fw.mp4	0.0	262.52034068107605	
55	246.78691005706787	fix_post	2		12	53.0	2.5	/experiments/knapen_AOT/AOT_stimuli/rescaled_final/1334_fw.mp4	0.0	263.8389799594879	0.10004329681396484
56	246.88695335388184	fix_pre	0		120	54.0	2.5	/experiments/knapen_AOT/AOT_stimuli/rescaled_final/1095_rv.mp4	0.0	263.9390232563019	1.0084764957427979
56	247.07057404518127	pulse	0	t		54.0	2.5	/experiments/knapen_AOT/AOT_stimuli/rescaled_final/1095_rv.mp4	0.0	264.1226439476013	
56	247.89542984962463	movie	1		293	54.0	2.5	/experiments/knapen_AOT/AOT_stimuli/rescaled_final/1095_rv.mp4	0.0	264.9474997520447	2.4920027256011963
56	248.66836667060852	pulse	1	t		54.0	2.5	/experiments/knapen_AOT/AOT_stimuli/rescaled_final/1095_rv.mp4	0.0	265.72043657302856	
56	250.26907062530518	pulse	1	t		54.0	2.5	/experiments/knapen_AOT/AOT_stimuli/rescaled_final/1095_rv.mp4	0.0	267.3211405277252	
56	250.38743257522583	fix_post	2		12	54.0	2.5	/experiments/knapen_AOT/AOT_stimuli/rescaled_final/1095_rv.mp4	0.0	267.4395024776459	0.10003995895385742
57	250.4874725341797	fix_pre	0		120	55.0	2.5	/experiments/knapen_AOT/AOT_stimuli/rescaled_final/1936_rv.mp4	0.0	267.53954243659973	1.0084869861602783
57	251.49595952033997	movie	1		277	55.0	2.5	/experiments/knapen_AOT/AOT_stimuli/rescaled_final/1936_rv.mp4	0.0	268.54802942276	2.4920339584350586
57	251.86957263946533	pulse	1	t		55.0	2.5	/experiments/knapen_AOT/AOT_stimuli/rescaled_final/1936_rv.mp4	0.0	268.9216425418854	
57	253.46924424171448	pulse	1	t		55.0	2.5	/experiments/knapen_AOT/AOT_stimuli/rescaled_final/1936_rv.mp4	0.0	270.5213141441345	
57	253.98799347877502	fix_post	2		12	55.0	2.5	/experiments/knapen_AOT/AOT_stimuli/rescaled_final/1936_rv.mp4	0.0	271.04006338119507	0.10001063346862793
58	254.08800411224365	fix_pre	0		118	56.0	2.5	blank	1.0	271.1400740146637	0.9834582805633545
58	255.06349158287048	pulse	0	t		56.0	2.5	blank	1.0	272.1155614852905	
58	255.071462392807	movie	1		301	56.0	2.5	blank	1.0	272.12353229522705	2.5087270736694336
58	256.66358947753906	pulse	1	t		56.0	2.5	blank	1.0	273.7156593799591	
58	257.58018946647644	fix_post	2		12	56.0	2.5	blank	1.0	274.6322593688965	0.10001873970031738
59	257.68020820617676	fix_pre	0		120	57.0	2.5	/experiments/knapen_AOT/AOT_stimuli/rescaled_final/0970_fw.mp4	0.0	274.7322781085968	1.008514165878296
59	258.2638485431671	pulse	0	t		57.0	2.5	/experiments/knapen_AOT/AOT_stimuli/rescaled_final/0970_fw.mp4	0.0	275.31591844558716	
59	258.68872237205505	movie	1		283	57.0	2.5	/experiments/knapen_AOT/AOT_stimuli/rescaled_final/0970_fw.mp4	0.0	275.7407922744751	2.4920287132263184
59	259.86403918266296	pulse	1	t		57.0	2.5	/experiments/knapen_AOT/AOT_stimuli/rescaled_final/0970_fw.mp4	0.0	276.916109085083	
59	261.1807510852814	fix_post	2		12	57.0	2.5	/experiments/knapen_AOT/AOT_stimuli/rescaled_final/0970_fw.mp4	0.0	278.2328209877014	0.10000109672546387
60	261.28075218200684	fix_pre	0		120	58.0	2.5	/experiments/knapen_AOT/AOT_stimuli/rescaled_final/1582_rv.mp4	0.0	278.3328220844269	1.0085105895996094
60	261.4643292427063	pulse	0	t		58.0	2.5	/experiments/knapen_AOT/AOT_stimuli/rescaled_final/1582_rv.mp4	0.0	278.51639914512634	
60	262.28926277160645	movie	1		284	58.0	2.5	/experiments/knapen_AOT/AOT_stimuli/rescaled_final/1582_rv.mp4	0.0	279.3413326740265	2.4919893741607666
60	263.0645625591278	pulse	1	t		58.0	2.5	/experiments/knapen_AOT/AOT_stimuli/rescaled_final/1582_rv.mp4	0.0	280.11663246154785	
60	264.66481828689575	pulse	1	t		58.0	2.5	/experiments/knapen_AOT/AOT_stimuli/rescaled_final/1582_rv.mp4	0.0	281.7168881893158	
60	264.7812521457672	fix_post	2		12	58.0	2.5	/experiments/knapen_AOT/AOT_stimuli/rescaled_final/1582_rv.mp4	0.0	281.83332204818726	0.10003924369812012
61	264.88129138946533	fix_pre	0		120	59.0	2.5	/experiments/knapen_AOT/AOT_stimuli/rescaled_final/1767_fw.mp4	0.0	281.9333612918854	1.0084903240203857
61	265.8897817134857	movie	1		281	59.0	2.5	/experiments/knapen_AOT/AOT_stimuli/rescaled_final/1767_fw.mp4	0.0	282.94185161590576	2.4920248985290527
61	266.26363158226013	pulse	1	t		59.0	2.5	/experiments/knapen_AOT/AOT_stimuli/rescaled_final/1767_fw.mp4	0.0	283.3157014846802	
61	267.86528873443604	pulse	1	t		59.0	2.5	/experiments/knapen_AOT/AOT_stimuli/rescaled_final/1767_fw.mp4	0.0	284.9173586368561	
61	268.38180661201477	fix_post	2		12	59.0	2.5	/experiments/knapen_AOT/AOT_stimuli/rescaled_final/1767_fw.mp4	0.0	285.4338765144348	0.10003519058227539
62	268.48184180259705	fix_pre	0		119	60.0	2.5	/experiments/knapen_AOT/AOT_stimuli/rescaled_final/0328_fw.mp4	0.0	285.5339117050171	1.0001485347747803
62	269.46554255485535	pulse	0	t		60.0	2.5	/experiments/knapen_AOT/AOT_stimuli/rescaled_final/0328_fw.mp4	0.0	286.5176124572754	
62	269.4819903373718	movie	1		281	60.0	2.5	/experiments/knapen_AOT/AOT_stimuli/rescaled_final/0328_fw.mp4	0.0	286.53406023979187	2.5003855228424072
62	271.0657136440277	pulse	1	t		60.0	2.5	/experiments/knapen_AOT/AOT_stimuli/rescaled_final/0328_fw.mp4	0.0	288.11778354644775	
62	271.98237586021423	fix_post	2		12	60.0	2.5	/experiments/knapen_AOT/AOT_stimuli/rescaled_final/0328_fw.mp4	0.0	289.0344457626343	0.10001659393310547
63	272.08239245414734	fix_pre	0		120	61.0	2.5	/experiments/knapen_AOT/AOT_stimuli/rescaled_final/1006_rv.mp4	0.0	289.1344623565674	1.008497714996338
63	272.666015625	pulse	0	t		61.0	2.5	/experiments/knapen_AOT/AOT_stimuli/rescaled_final/1006_rv.mp4	0.0	289.71808552742004	
63	273.0908901691437	movie	1		292	61.0	2.5	/experiments/knapen_AOT/AOT_stimuli/rescaled_final/1006_rv.mp4	0.0	290.1429600715637	2.4919917583465576
63	274.264053106308	pulse	1	t		61.0	2.5	/experiments/knapen_AOT/AOT_stimuli/rescaled_final/1006_rv.mp4	0.0	291.316123008728	
63	275.58288192749023	fix_post	2		12	61.0	2.5	/experiments/knapen_AOT/AOT_stimuli/rescaled_final/1006_rv.mp4	0.0	292.6349518299103	0.10002589225769043
64	275.6829078197479	fix_pre	0		120	62.0	2.5	/experiments/knapen_AOT/AOT_stimuli/rescaled_final/1990_fw.mp4	0.0	292.73497772216797	1.0084693431854248
64	275.8664929866791	pulse	0	t		62.0	2.5	/experiments/knapen_AOT/AOT_stimuli/rescaled_final/1990_fw.mp4	0.0	292.9185628890991	
64	276.69137716293335	movie	1		283	62.0	2.5	/experiments/knapen_AOT/AOT_stimuli/rescaled_final/1990_fw.mp4	0.0	293.7434470653534	2.4920623302459717
64	277.4651141166687	pulse	1	t		62.0	2.5	/experiments/knapen_AOT/AOT_stimuli/rescaled_final/1990_fw.mp4	0.0	294.51718401908875	
64	279.0652470588684	pulse	1	t		62.0	2.5	/experiments/knapen_AOT/AOT_stimuli/rescaled_final/1990_fw.mp4	0.0	296.11731696128845	
64	279.1834394931793	fix_post	2		12	62.0	2.5	/experiments/knapen_AOT/AOT_stimuli/rescaled_final/1990_fw.mp4	0.0	296.23550939559937	0.10004401206970215
65	279.283483505249	fix_pre	0		120	63.0	2.5	blank	1.0	296.33555340766907	1.0001144409179688
65	280.283597946167	movie	1		300	63.0	2.5	blank	1.0	297.33566784858704	2.500370740890503
65	280.6672685146332	pulse	1	t		63.0	2.5	blank	1.0	297.7193384170532	
65	282.2674369812012	pulse	1	t		63.0	2.5	blank	1.0	299.3195068836212	
65	282.7839686870575	fix_post	2		12	63.0	2.5	blank	1.0	299.83603858947754	0.10005354881286621
66	282.88402223587036	fix_pre	0		119	64.0	2.5	/experiments/knapen_AOT/AOT_stimuli/rescaled_final/1501_rv.mp4	0.0	299.9360921382904	1.0001509189605713
66	283.8676986694336	pulse	0	t		64.0	2.5	/experiments/knapen_AOT/AOT_stimuli/rescaled_final/1501_rv.mp4	0.0	300.91976857185364	
66	283.88417315483093	movie	1		291	64.0	2.5	/experiments/knapen_AOT/AOT_stimuli/rescaled_final/1501_rv.mp4	0.0	300.936243057251	2.500340223312378
66	285.46602511405945	pulse	1	t		64.0	2.5	/experiments/knapen_AOT/AOT_stimuli/rescaled_final/1501_rv.mp4	0.0	302.5180950164795	
66	286.3845133781433	fix_post	2		12	64.0	2.5	/experiments/knapen_AOT/AOT_stimuli/rescaled_final/1501_rv.mp4	0.0	303.43658328056335	0.10006237030029297
67	286.4845757484436	fix_pre	0		120	65.0	2.5	/experiments/knapen_AOT/AOT_stimuli/rescaled_final/0795_fw.mp4	0.0	303.53664565086365	1.008443832397461
67	287.06814312934875	pulse	0	t		65.0	2.5	/experiments/knapen_AOT/AOT_stimuli/rescaled_final/0795_fw.mp4	0.0	304.1202130317688	
67	287.49301958084106	movie	1		295	65.0	2.5	/experiments/knapen_AOT/AOT_stimuli/rescaled_final/0795_fw.mp4	0.0	304.5450894832611	2.492069721221924
67	288.6663770675659	pulse	1	t		65.0	2.5	/experiments/knapen_AOT/AOT_stimuli/rescaled_final/0795_fw.mp4	0.0	305.71844696998596	
67	289.985089302063	fix_post	2		12	65.0	2.5	/experiments/knapen_AOT/AOT_stimuli/rescaled_final/0795_fw.mp4	0.0	307.03715920448303	0.0999901294708252
68	290.0850794315338	fix_pre	0		120	66.0	2.5	/experiments/knapen_AOT/AOT_stimuli/rescaled_final/1174_rv.mp4	0.0	307.13714933395386	1.0085093975067139
68	290.26868319511414	pulse	0	t		66.0	2.5	/experiments/knapen_AOT/AOT_stimuli/rescaled_final/1174_rv.mp4	0.0	307.3207530975342	
68	291.0935888290405	movie	1		287	66.0	2.5	/experiments/knapen_AOT/AOT_stimuli/rescaled_final/1174_rv.mp4	0.0	308.14565873146057	2.4920654296875
68	291.8666105270386	pulse	1	t		66.0	2.5	/experiments/knapen_AOT/AOT_stimuli/rescaled_final/1174_rv.mp4	0.0	308.9186804294586	
68	293.46717834472656	pulse	1	t		66.0	2.5	/experiments/knapen_AOT/AOT_stimuli/rescaled_final/1174_rv.mp4	0.0	310.5192482471466	
68	293.585654258728	fix_post	2		12	66.0	2.5	/experiments/knapen_AOT/AOT_stimuli/rescaled_final/1174_rv.mp4	0.0	310.63772416114807	0.10001468658447266
69	293.6856689453125	fix_pre	0		120	67.0	2.5	/experiments/knapen_AOT/AOT_stimuli/rescaled_final/1638_rv.mp4	0.0	310.73773884773254	1.0084600448608398
69	294.69412899017334	movie	1		281	67.0	2.5	/experiments/knapen_AOT/AOT_stimuli/rescaled_final/1638_rv.mp4	0.0	311.7461988925934	2.4920220375061035
69	295.06780982017517	pulse	1	t		67.0	2.5	/experiments/knapen_AOT/AOT_stimuli/rescaled_final/1638_rv.mp4	0.0	312.1198797225952	
69	296.66777515411377	pulse	1	t		67.0	2.5	/experiments/knapen_AOT/AOT_stimuli/rescaled_final/1638_rv.mp4	0.0	313.7198450565338	
69	297.18615102767944	fix_post	2		12	67.0	2.5	/experiments/knapen_AOT/AOT_stimuli/rescaled_final/1638_rv.mp4	0.0	314.2382209300995	0.1000828742980957
70	297.28623390197754	fix_pre	0		119	68.0	2.5	/experiments/knapen_AOT/AOT_stimuli/rescaled_final/2141_rv.mp4	0.0	314.3383038043976	1.0000770092010498
70	298.26985597610474	pulse	0	t		68.0	2.5	/experiments/knapen_AOT/AOT_stimuli/rescaled_final/2141_rv.mp4	0.0	315.3219258785248	
70	298.2863109111786	movie	1		284	68.0	2.5	/experiments/knapen_AOT/AOT_stimuli/rescaled_final/2141_rv.mp4	0.0	315.33838081359863	2.500399589538574
70	299.8683080673218	pulse	1	t		68.0	2.5	/experiments/knapen_AOT/AOT_stimuli/rescaled_final/2141_rv.mp4	0.0	316.9203779697418	
70	300.78671050071716	fix_post	2		12	68.0	2.5	/experiments/knapen_AOT/AOT_stimuli/rescaled_final/2141_rv.mp4	0.0	317.8387804031372	0.09999656677246094
71	300.8867070674896	fix_pre	0		120	69.0	2.5	/experiments/knapen_AOT/AOT_stimuli/rescaled_final/1506_fw.mp4	0.0	317.93877696990967	1.008488416671753
71	301.47078943252563	pulse	0	t		69.0	2.5	/experiments/knapen_AOT/AOT_stimuli/rescaled_final/1506_fw.mp4	0.0	318.5228593349457	
71	301.8951954841614	movie	1		283	69.0	2.5	/experiments/knapen_AOT/AOT_stimuli/rescaled_final/1506_fw.mp4	0.0	318.9472653865814	2.492025136947632
71	303.06888937950134	pulse	1	t		69.0	2.5	/experiments/knapen_AOT/AOT_stimuli/rescaled_final/1506_fw.mp4	0.0	320.1209592819214	
71	304.387220621109	fix_post	2		12	69.0	2.5	/experiments/knapen_AOT/AOT_stimuli/rescaled_final/1506_fw.mp4	0.0	321.43929052352905	0.1000356674194336
72	304.48725628852844	fix_pre	0		120	70.0	2.5	blank	1.0	321.5393261909485	1.0001282691955566
72	304.67074704170227	pulse	0	t		70.0	2.5	blank	1.0	321.7228169441223	
72	305.487384557724	movie	1		300	70.0	2.5	blank	1.0	322.53945446014404	2.500401258468628
72	306.2710602283478	pulse	1	t		70.0	2.5	blank	1.0	323.3231301307678	
72	307.8712749481201	pulse	1	t		70.0	2.5	blank	1.0	324.92334485054016	
72	307.9877858161926	fix_post	2		12	70.0	2.5	blank	1.0	325.03985571861267	0.10009908676147461
73	308.0878849029541	fix_pre	0		120	71.0	2.5	/experiments/knapen_AOT/AOT_stimuli/rescaled_final/1463_rv.mp4	0.0	325.13995480537415	1.008368968963623
73	309.0962538719177	movie	1		284	71.0	2.5	/experiments/knapen_AOT/AOT_stimuli/rescaled_final/1463_rv.mp4	0.0	326.14832377433777	2.4920525550842285
73	309.4695200920105	pulse	1	t		71.0	2.5	/experiments/knapen_AOT/AOT_stimuli/rescaled_final/1463_rv.mp4	0.0	326.52158999443054	
73	311.06953859329224	pulse	1	t		71.0	2.5	/experiments/knapen_AOT/AOT_stimuli/rescaled_final/1463_rv.mp4	0.0	328.1216084957123	
73	311.58830642700195	fix_post	2		12	71.0	2.5	/experiments/knapen_AOT/AOT_stimuli/rescaled_final/1463_rv.mp4	0.0	328.640376329422	0.10005307197570801
74	311.68835949897766	fix_pre	0		118	72.0	2.5	/experiments/knapen_AOT/AOT_stimuli/rescaled_final/0856_fw.mp4	0.0	328.7404294013977	0.9918100833892822
74	312.6639895439148	pulse	0	t		72.0	2.5	/experiments/knapen_AOT/AOT_stimuli/rescaled_final/0856_fw.mp4	0.0	329.71605944633484	
74	312.68016958236694	movie	1		287	72.0	2.5	/experiments/knapen_AOT/AOT_stimuli/rescaled_final/0856_fw.mp4	0.0	329.732239484787	2.500342607498169
74	314.2640097141266	pulse	1	t		72.0	2.5	/experiments/knapen_AOT/AOT_stimuli/rescaled_final/0856_fw.mp4	0.0	331.31607961654663	
74	315.1805121898651	fix_post	2		12	72.0	2.5	/experiments/knapen_AOT/AOT_stimuli/rescaled_final/0856_fw.mp4	0.0	332.23258209228516	0.10008430480957031
75	315.2805964946747	fix_pre	0		120	73.0	2.5	/experiments/knapen_AOT/AOT_stimuli/rescaled_final/0112_fw.mp4	0.0	332.3326663970947	1.008453130722046
75	315.86420130729675	pulse	0	t		73.0	2.5	/experiments/knapen_AOT/AOT_stimuli/rescaled_final/0112_fw.mp4	0.0	332.9162712097168	
75	316.28904962539673	movie	1		292	73.0	2.5	/experiments/knapen_AOT/AOT_stimuli/rescaled_final/0112_fw.mp4	0.0	333.3411195278168	2.4920005798339844
75	317.4644317626953	pulse	1	t		73.0	2.5	/experiments/knapen_AOT/AOT_stimuli/rescaled_final/0112_fw.mp4	0.0	334.51650166511536	
75	318.7810502052307	fix_post	2		12	73.0	2.5	/experiments/knapen_AOT/AOT_stimuli/rescaled_final/0112_fw.mp4	0.0	335.83312010765076	0.10013461112976074
76	318.8811848163605	fix_pre	0		120	74.0	2.5	/experiments/knapen_AOT/AOT_stimuli/rescaled_final/1315_rv.mp4	0.0	335.9332547187805	1.0083932876586914
76	319.06465125083923	pulse	0	t		74.0	2.5	/experiments/knapen_AOT/AOT_stimuli/rescaled_final/1315_rv.mp4	0.0	336.1167211532593	
76	319.88957810401917	movie	1		284	74.0	2.5	/experiments/knapen_AOT/AOT_stimuli/rescaled_final/1315_rv.mp4	0.0	336.9416480064392	2.492009162902832
76	320.6649012565613	pulse	1	t		74.0	2.5	/experiments/knapen_AOT/AOT_stimuli/rescaled_final/1315_rv.mp4	0.0	337.7169711589813	
76	322.2651221752167	pulse	1	t		74.0	2.5	/experiments/knapen_AOT/AOT_stimuli/rescaled_final/1315_rv.mp4	0.0	339.3171920776367	
76	322.381587266922	fix_post	2		12	74.0	2.5	/experiments/knapen_AOT/AOT_stimuli/rescaled_final/1315_rv.mp4	0.0	339.43365716934204	0.10006356239318848
77	322.4816508293152	fix_pre	0		120	75.0	2.5	/experiments/knapen_AOT/AOT_stimuli/rescaled_final/0183_fw.mp4	0.0	339.53372073173523	1.00848388671875
77	323.49013471603394	movie	1		281	75.0	2.5	/experiments/knapen_AOT/AOT_stimuli/rescaled_final/0183_fw.mp4	0.0	340.542204618454	2.4920310974121094
77	323.8654623031616	pulse	1	t		75.0	2.5	/experiments/knapen_AOT/AOT_stimuli/rescaled_final/0183_fw.mp4	0.0	340.91753220558167	
77	325.46465945243835	pulse	1	t		75.0	2.5	/experiments/knapen_AOT/AOT_stimuli/rescaled_final/0183_fw.mp4	0.0	342.5167293548584	
77	325.98216581344604	fix_post	2		12	75.0	2.5	/experiments/knapen_AOT/AOT_stimuli/rescaled_final/0183_fw.mp4	0.0	343.0342357158661	0.10008788108825684
78	326.0822536945343	fix_pre	0		119	76.0	2.5	/experiments/knapen_AOT/AOT_stimuli/rescaled_final/2057_rv.mp4	0.0	343.13432359695435	1.0000486373901367
78	327.065945148468	pulse	0	t		76.0	2.5	/experiments/knapen_AOT/AOT_stimuli/rescaled_final/2057_rv.mp4	0.0	344.11801505088806	
78	327.08230233192444	movie	1		291	76.0	2.5	/experiments/knapen_AOT/AOT_stimuli/rescaled_final/2057_rv.mp4	0.0	344.1343722343445	2.500403642654419
78	328.6645154953003	pulse	1	t		76.0	2.5	/experiments/knapen_AOT/AOT_stimuli/rescaled_final/2057_rv.mp4	0.0	345.71658539772034	
78	329.58270597457886	fix_post	2		12	76.0	2.5	/experiments/knapen_AOT/AOT_stimuli/rescaled_final/2057_rv.mp4	0.0	346.6347758769989	0.10007381439208984
79	329.68277978897095	fix_pre	0		120	77.0	2.5	blank	1.0	346.734849691391	1.0000782012939453
79	330.2663128376007	pulse	0	t		77.0	2.5	blank	1.0	347.31838274002075	
79	330.6828579902649	movie	1		300	77.0	2.5	blank	1.0	347.73492789268494	2.5003600120544434
79	331.86671233177185	pulse	1	t		77.0	2.5	blank	1.0	348.9187822341919	
79	333.18321800231934	fix_post	2		12	77.0	2.5	blank	1.0	350.2352879047394	0.10001635551452637
80	333.28323435783386	fix_pre	0		120	78.0	2.5	/experiments/knapen_AOT/AOT_stimuli/rescaled_final/0970_fw.mp4	0.0	350.3353042602539	1.008514642715454
80	333.4668118953705	pulse	0	t		78.0	2.5	/experiments/knapen_AOT/AOT_stimuli/rescaled_final/0970_fw.mp4	0.0	350.5188817977905	
80	334.2917490005493	movie	1		289	78.0	2.5	/experiments/knapen_AOT/AOT_stimuli/rescaled_final/0970_fw.mp4	0.0	351.34381890296936	2.492020606994629
80	335.06505036354065	pulse	1	t		78.0	2.5	/experiments/knapen_AOT/AOT_stimuli/rescaled_final/0970_fw.mp4	0.0	352.1171202659607	
80	336.6654155254364	pulse	1	t		78.0	2.5	/experiments/knapen_AOT/AOT_stimuli/rescaled_final/0970_fw.mp4	0.0	353.71748542785645	
80	336.78376960754395	fix_post	2		12	78.0	2.5	/experiments/knapen_AOT/AOT_stimuli/rescaled_final/0970_fw.mp4	0.0	353.835839509964	0.10000848770141602
81	336.88377809524536	fix_pre	0		120	79.0	2.5	/experiments/knapen_AOT/AOT_stimuli/rescaled_final/0257_rv.mp4	0.0	353.9358479976654	1.008486032485962
81	337.8922641277313	movie	1		285	79.0	2.5	/experiments/knapen_AOT/AOT_stimuli/rescaled_final/0257_rv.mp4	0.0	354.94433403015137	2.492077112197876
81	338.265905380249	pulse	1	t		79.0	2.5	/experiments/knapen_AOT/AOT_stimuli/rescaled_final/0257_rv.mp4	0.0	355.31797528266907	
81	339.8658592700958	pulse	1	t		79.0	2.5	/experiments/knapen_AOT/AOT_stimuli/rescaled_final/0257_rv.mp4	0.0	356.91792917251587	
81	340.3843412399292	fix_post	2		12	79.0	2.5	/experiments/knapen_AOT/AOT_stimuli/rescaled_final/0257_rv.mp4	0.0	357.43641114234924	0.10008859634399414
82	340.4844298362732	fix_pre	0		119	80.0	2.5	/experiments/knapen_AOT/AOT_stimuli/rescaled_final/1275_rv.mp4	0.0	357.53649973869324	1.0000371932983398
82	341.4681272506714	pulse	0	t		80.0	2.5	/experiments/knapen_AOT/AOT_stimuli/rescaled_final/1275_rv.mp4	0.0	358.52019715309143	
82	341.48446702957153	movie	1		282	80.0	2.5	/experiments/knapen_AOT/AOT_stimuli/rescaled_final/1275_rv.mp4	0.0	358.5365369319916	2.5003931522369385
82	343.06738448143005	pulse	1	t		80.0	2.5	/experiments/knapen_AOT/AOT_stimuli/rescaled_final/1275_rv.mp4	0.0	360.1194543838501	
82	343.9848601818085	fix_post	2		12	80.0	2.5	/experiments/knapen_AOT/AOT_stimuli/rescaled_final/1275_rv.mp4	0.0	361.0369300842285	0.10000133514404297
83	344.0848615169525	fix_pre	0		120	81.0	2.5	/experiments/knapen_AOT/AOT_stimuli/rescaled_final/1106_fw.mp4	0.0	361.13693141937256	1.0085091590881348
83	344.6684775352478	pulse	0	t		81.0	2.5	/experiments/knapen_AOT/AOT_stimuli/rescaled_final/1106_fw.mp4	0.0	361.72054743766785	
83	345.09337067604065	movie	1		289	81.0	2.5	/experiments/knapen_AOT/AOT_stimuli/rescaled_final/1106_fw.mp4	0.0	362.1454405784607	2.4920339584350586
83	346.26674008369446	pulse	1	t		81.0	2.5	/experiments/knapen_AOT/AOT_stimuli/rescaled_final/1106_fw.mp4	0.0	363.3188099861145	
83	347.5854046344757	fix_post	2		12	81.0	2.5	/experiments/knapen_AOT/AOT_stimuli/rescaled_final/1106_fw.mp4	0.0	364.63747453689575	0.09999775886535645
84	347.68540239334106	fix_pre	0		120	82.0	2.5	/experiments/knapen_AOT/AOT_stimuli/rescaled_final/1860_fw.mp4	0.0	364.7374722957611	1.0085499286651611
84	347.86931014060974	pulse	0	t		82.0	2.5	/experiments/knapen_AOT/AOT_stimuli/rescaled_final/1860_fw.mp4	0.0	364.9213800430298	
84	348.6939523220062	movie	1		281	82.0	2.5	/experiments/knapen_AOT/AOT_stimuli/rescaled_final/1860_fw.mp4	0.0	365.74602222442627	2.4919912815093994
84	349.46700620651245	pulse	1	t		82.0	2.5	/experiments/knapen_AOT/AOT_stimuli/rescaled_final/1860_fw.mp4	0.0	366.5190761089325	
84	351.06760716438293	pulse	1	t		82.0	2.5	/experiments/knapen_AOT/AOT_stimuli/rescaled_final/1860_fw.mp4	0.0	368.119677066803	
84	351.1859436035156	fix_post	2		12	82.0	2.5	/experiments/knapen_AOT/AOT_stimuli/rescaled_final/1860_fw.mp4	0.0	368.23801350593567	0.10001134872436523
85	351.28595495224	fix_pre	0		120	83.0	2.5	blank	1.0	368.33802485466003	1.000150203704834
85	352.2861051559448	movie	1		300	83.0	2.5	blank	1.0	369.33817505836487	2.5003621578216553
85	352.66969656944275	pulse	1	t		83.0	2.5	blank	1.0	369.7217664718628	
85	354.2699146270752	pulse	1	t		83.0	2.5	blank	1.0	371.32198452949524	
85	354.7864673137665	fix_post	2		12	83.0	2.5	blank	1.0	371.8385372161865	0.10002470016479492
87	354.8864920139313	stim	0		1715					371.9385619163513	14.293839931488037
87	355.87043738365173	pulse	0	t						372.9225072860718	
87	357.47072315216064	pulse	0	t						374.5227930545807	
87	359.07116651535034	pulse	0	t						376.1232364177704	
87	360.6711313724518	pulse	0	t						377.7232012748718	
87	362.2713506221771	pulse	0	t						379.32342052459717	
87	363.8716938495636	pulse	0	t						380.92376375198364	
87	365.47200298309326	pulse	0	t						382.5240728855133	
87	367.0721197128296	pulse	0	t						384.12418961524963	
87	368.6647231578827	pulse	0	t						385.71679306030273	
