trial_nr	onset	event_type	phase	response	nr_frames	movie_index	movie_duration	movie_file	blank	onset_abs	duration
0	0.2083740234375	stim	0		134					96.06333780288696	1.116744041442871
0	1.3170371055603027	response	0	space						97.17200088500977	
1	1.325118064880371	stim	0		4916					97.18008184432983	40.992210149765015
1	42.28733205795288	pulse	0	t						138.14229583740234	
1	42.317328214645386	stim	1		1716					138.17229199409485	14.299394845962524
1	43.88260006904602	pulse	1	t						139.73756384849548	
1	45.48196816444397	pulse	1	t						141.33693194389343	
1	47.082032203674316	pulse	1	t						142.93699598312378	
1	48.682373046875	pulse	1	t						144.53733682632446	
1	50.28274416923523	pulse	1	t						146.1377079486847	
1	51.88286900520325	pulse	1	t						147.7378327846527	
1	53.48300099372864	pulse	1	t						149.3379647731781	
1	55.083301067352295	pulse	1	t						150.93826484680176	
2	56.61672306060791	fix_pre	0		9	0.0	2.5	/experiments/knapen_AOT/AOT_stimuli/rescaled_final/1179_rv.mp4	0.0	152.47168684005737	0.07502412796020508
2	56.683664083480835	pulse	0	t		0.0	2.5	/experiments/knapen_AOT/AOT_stimuli/rescaled_final/1179_rv.mp4	0.0	152.5386278629303	
2	56.691747188568115	movie	1		245	0.0	2.5	/experiments/knapen_AOT/AOT_stimuli/rescaled_final/1179_rv.mp4	0.0	152.54671096801758	2.508746862411499
2	58.28436613082886	pulse	1	t		0.0	2.5	/experiments/knapen_AOT/AOT_stimuli/rescaled_final/1179_rv.mp4	0.0	154.13932991027832	
2	59.200494050979614	fix_post	2		12	0.0	2.5	/experiments/knapen_AOT/AOT_stimuli/rescaled_final/1179_rv.mp4	0.0	155.05545783042908	0.0999600887298584
3	59.30045413970947	fix_pre	0		120	1.0	2.5	/experiments/knapen_AOT/AOT_stimuli/rescaled_final/1046_rv.mp4	0.0	155.15541791915894	1.0001709461212158
3	59.88408708572388	pulse	0	t		1.0	2.5	/experiments/knapen_AOT/AOT_stimuli/rescaled_final/1046_rv.mp4	0.0	155.73905086517334	
3	60.30062508583069	movie	1		243	1.0	2.5	/experiments/knapen_AOT/AOT_stimuli/rescaled_final/1046_rv.mp4	0.0	156.15558886528015	2.5003108978271484
3	61.48442006111145	pulse	1	t		1.0	2.5	/experiments/knapen_AOT/AOT_stimuli/rescaled_final/1046_rv.mp4	0.0	157.3393838405609	
3	62.80093598365784	fix_post	2		12	1.0	2.5	/experiments/knapen_AOT/AOT_stimuli/rescaled_final/1046_rv.mp4	0.0	158.6558997631073	0.10006213188171387
4	62.90099811553955	fix_pre	0		120	2.0	2.5	/experiments/knapen_AOT/AOT_stimuli/rescaled_final/1217_fw.mp4	0.0	158.755961894989	1.0001239776611328
4	63.08465504646301	pulse	0	t		2.0	2.5	/experiments/knapen_AOT/AOT_stimuli/rescaled_final/1217_fw.mp4	0.0	158.93961882591248	
4	63.901122093200684	movie	1		244	2.0	2.5	/experiments/knapen_AOT/AOT_stimuli/rescaled_final/1217_fw.mp4	0.0	159.75608587265015	2.500377893447876
4	64.68494415283203	pulse	1	t		2.0	2.5	/experiments/knapen_AOT/AOT_stimuli/rescaled_final/1217_fw.mp4	0.0	160.5399079322815	
4	66.28509712219238	pulse	1	t		2.0	2.5	/experiments/knapen_AOT/AOT_stimuli/rescaled_final/1217_fw.mp4	0.0	162.14006090164185	
4	66.40149998664856	fix_post	2		12	2.0	2.5	/experiments/knapen_AOT/AOT_stimuli/rescaled_final/1217_fw.mp4	0.0	162.25646376609802	0.10002303123474121
5	66.5015230178833	fix_pre	0		120	3.0	2.5	/experiments/knapen_AOT/AOT_stimuli/rescaled_final/1765_rv.mp4	0.0	162.35648679733276	1.000230073928833
5	67.50175309181213	movie	1		242	3.0	2.5	/experiments/knapen_AOT/AOT_stimuli/rescaled_final/1765_rv.mp4	0.0	163.3567168712616	2.4919469356536865
5	67.88576912879944	pulse	1	t		3.0	2.5	/experiments/knapen_AOT/AOT_stimuli/rescaled_final/1765_rv.mp4	0.0	163.7407329082489	
5	69.48561501502991	pulse	1	t		3.0	2.5	/experiments/knapen_AOT/AOT_stimuli/rescaled_final/1765_rv.mp4	0.0	165.34057879447937	
5	69.99370002746582	fix_post	2		12	3.0	2.5	/experiments/knapen_AOT/AOT_stimuli/rescaled_final/1765_rv.mp4	0.0	165.84866380691528	0.10000300407409668
6	70.09370303153992	fix_pre	0		120	4.0	2.5	/experiments/knapen_AOT/AOT_stimuli/rescaled_final/0479_rv.mp4	0.0	165.94866681098938	1.0001840591430664
6	71.08588409423828	pulse	0	t		4.0	2.5	/experiments/knapen_AOT/AOT_stimuli/rescaled_final/0479_rv.mp4	0.0	166.94084787368774	
6	71.09388709068298	movie	1		244	4.0	2.5	/experiments/knapen_AOT/AOT_stimuli/rescaled_final/0479_rv.mp4	0.0	166.94885087013245	2.508671998977661
6	72.69041800498962	pulse	1	t		4.0	2.5	/experiments/knapen_AOT/AOT_stimuli/rescaled_final/0479_rv.mp4	0.0	168.5453817844391	
6	73.60255908966064	fix_post	2		12	4.0	2.5	/experiments/knapen_AOT/AOT_stimuli/rescaled_final/0479_rv.mp4	0.0	169.4575228691101	0.10005402565002441
7	73.70261311531067	fix_pre	0		120	5.0	2.5	blank	1.0	169.55757689476013	1.000143051147461
7	74.28622698783875	pulse	0	t		5.0	2.5	blank	1.0	170.1411907672882	
7	74.70275616645813	movie	1		300	5.0	2.5	blank	1.0	170.5577199459076	2.5003719329833984
7	75.88647603988647	pulse	1	t		5.0	2.5	blank	1.0	171.74143981933594	
7	77.20312809944153	fix_post	2		12	5.0	2.5	blank	1.0	173.058091878891	0.09999489784240723
8	77.30312299728394	fix_pre	0		120	6.0	2.5	/experiments/knapen_AOT/AOT_stimuli/rescaled_final/1182_rv.mp4	0.0	173.1580867767334	1.0001661777496338
8	77.48682618141174	pulse	0	t		6.0	2.5	/experiments/knapen_AOT/AOT_stimuli/rescaled_final/1182_rv.mp4	0.0	173.3417899608612	
8	78.30328917503357	movie	1		243	6.0	2.5	/experiments/knapen_AOT/AOT_stimuli/rescaled_final/1182_rv.mp4	0.0	174.15825295448303	2.5004098415374756
8	79.08701419830322	pulse	1	t		6.0	2.5	/experiments/knapen_AOT/AOT_stimuli/rescaled_final/1182_rv.mp4	0.0	174.94197797775269	
8	80.68782901763916	pulse	1	t		6.0	2.5	/experiments/knapen_AOT/AOT_stimuli/rescaled_final/1182_rv.mp4	0.0	176.54279279708862	
8	80.80369901657104	fix_post	2		12	6.0	2.5	/experiments/knapen_AOT/AOT_stimuli/rescaled_final/1182_rv.mp4	0.0	176.6586627960205	0.0999610424041748
9	80.90366005897522	fix_pre	0		120	7.0	2.5	/experiments/knapen_AOT/AOT_stimuli/rescaled_final/0213_rv.mp4	0.0	176.75862383842468	1.0002100467681885
9	81.90387010574341	movie	1		244	7.0	2.5	/experiments/knapen_AOT/AOT_stimuli/rescaled_final/0213_rv.mp4	0.0	177.75883388519287	2.4919919967651367
9	82.29207420349121	pulse	1	t		7.0	2.5	/experiments/knapen_AOT/AOT_stimuli/rescaled_final/0213_rv.mp4	0.0	178.14703798294067	
9	83.88772702217102	pulse	1	t		7.0	2.5	/experiments/knapen_AOT/AOT_stimuli/rescaled_final/0213_rv.mp4	0.0	179.74269080162048	
9	84.39586210250854	fix_post	2		12	7.0	2.5	/experiments/knapen_AOT/AOT_stimuli/rescaled_final/0213_rv.mp4	0.0	180.250825881958	0.100006103515625
10	84.49586820602417	fix_pre	0		120	8.0	2.5	/experiments/knapen_AOT/AOT_stimuli/rescaled_final/0508_fw.mp4	0.0	180.35083198547363	1.0001459121704102
10	85.4879400730133	pulse	0	t		8.0	2.5	/experiments/knapen_AOT/AOT_stimuli/rescaled_final/0508_fw.mp4	0.0	181.34290385246277	
10	85.49601411819458	movie	1		247	8.0	2.5	/experiments/knapen_AOT/AOT_stimuli/rescaled_final/0508_fw.mp4	0.0	181.35097789764404	2.508746862411499
10	87.08861708641052	pulse	1	t		8.0	2.5	/experiments/knapen_AOT/AOT_stimuli/rescaled_final/0508_fw.mp4	0.0	182.94358086585999	
10	88.00476098060608	fix_post	2		12	8.0	2.5	/experiments/knapen_AOT/AOT_stimuli/rescaled_final/0508_fw.mp4	0.0	183.85972476005554	0.09999322891235352
11	88.10475420951843	fix_pre	0		120	9.0	2.5	/experiments/knapen_AOT/AOT_stimuli/rescaled_final/1053_rv.mp4	0.0	183.9597179889679	1.0001399517059326
11	88.68832516670227	pulse	0	t		9.0	2.5	/experiments/knapen_AOT/AOT_stimuli/rescaled_final/1053_rv.mp4	0.0	184.54328894615173	
11	89.10489416122437	movie	1		243	9.0	2.5	/experiments/knapen_AOT/AOT_stimuli/rescaled_final/1053_rv.mp4	0.0	184.95985794067383	2.5003838539123535
11	90.28864598274231	pulse	1	t		9.0	2.5	/experiments/knapen_AOT/AOT_stimuli/rescaled_final/1053_rv.mp4	0.0	186.14360976219177	
11	91.60527801513672	fix_post	2		12	9.0	2.5	/experiments/knapen_AOT/AOT_stimuli/rescaled_final/1053_rv.mp4	0.0	187.46024179458618	0.09999203681945801
12	91.70527005195618	fix_pre	0		120	10.0	2.5	/experiments/knapen_AOT/AOT_stimuli/rescaled_final/1569_rv.mp4	0.0	187.56023383140564	1.000190019607544
12	91.88145017623901	pulse	0	t		10.0	2.5	/experiments/knapen_AOT/AOT_stimuli/rescaled_final/1569_rv.mp4	0.0	187.73641395568848	
12	92.70546007156372	movie	1		244	10.0	2.5	/experiments/knapen_AOT/AOT_stimuli/rescaled_final/1569_rv.mp4	0.0	188.56042385101318	2.5003459453582764
12	93.48170304298401	pulse	1	t		10.0	2.5	/experiments/knapen_AOT/AOT_stimuli/rescaled_final/1569_rv.mp4	0.0	189.33666682243347	
12	95.08951997756958	pulse	1	t		10.0	2.5	/experiments/knapen_AOT/AOT_stimuli/rescaled_final/1569_rv.mp4	0.0	190.94448375701904	
12	95.205806016922	fix_post	2		12	10.0	2.5	/experiments/knapen_AOT/AOT_stimuli/rescaled_final/1569_rv.mp4	0.0	191.06076979637146	0.10000896453857422
13	95.30581498146057	fix_pre	0		120	11.0	2.5	/experiments/knapen_AOT/AOT_stimuli/rescaled_final/1379_fw.mp4	0.0	191.16077876091003	1.0001561641693115
13	96.30597114562988	movie	1		243	11.0	2.5	/experiments/knapen_AOT/AOT_stimuli/rescaled_final/1379_fw.mp4	0.0	192.16093492507935	2.4920878410339355
13	96.69429302215576	pulse	1	t		11.0	2.5	/experiments/knapen_AOT/AOT_stimuli/rescaled_final/1379_fw.mp4	0.0	192.54925680160522	
13	98.28160214424133	pulse	1	t		11.0	2.5	/experiments/knapen_AOT/AOT_stimuli/rescaled_final/1379_fw.mp4	0.0	194.1365659236908	
13	98.79805898666382	fix_post	2		12	11.0	2.5	/experiments/knapen_AOT/AOT_stimuli/rescaled_final/1379_fw.mp4	0.0	194.65302276611328	0.09998011589050293
14	98.89803910255432	fix_pre	0		119	12.0	2.5	/experiments/knapen_AOT/AOT_stimuli/rescaled_final/0072_rv.mp4	0.0	194.75300288200378	0.991832971572876
14	99.88163805007935	pulse	0	t		12.0	2.5	/experiments/knapen_AOT/AOT_stimuli/rescaled_final/0072_rv.mp4	0.0	195.7366018295288	
14	99.8898720741272	movie	1		245	12.0	2.5	/experiments/knapen_AOT/AOT_stimuli/rescaled_final/0072_rv.mp4	0.0	195.74483585357666	2.5086660385131836
14	101.48246002197266	pulse	1	t		12.0	2.5	/experiments/knapen_AOT/AOT_stimuli/rescaled_final/0072_rv.mp4	0.0	197.33742380142212	
14	102.39853811264038	fix_post	2		12	12.0	2.5	/experiments/knapen_AOT/AOT_stimuli/rescaled_final/0072_rv.mp4	0.0	198.25350189208984	0.10004091262817383
15	102.49857902526855	fix_pre	0		120	13.0	2.5	/experiments/knapen_AOT/AOT_stimuli/rescaled_final/0167_rv.mp4	0.0	198.35354280471802	1.0001671314239502
15	103.08213710784912	pulse	0	t		13.0	2.5	/experiments/knapen_AOT/AOT_stimuli/rescaled_final/0167_rv.mp4	0.0	198.93710088729858	
15	103.4987461566925	movie	1		243	13.0	2.5	/experiments/knapen_AOT/AOT_stimuli/rescaled_final/0167_rv.mp4	0.0	199.35370993614197	2.500332832336426
15	104.6825020313263	pulse	1	t		13.0	2.5	/experiments/knapen_AOT/AOT_stimuli/rescaled_final/0167_rv.mp4	0.0	200.53746581077576	
15	105.99907898902893	fix_post	2		12	13.0	2.5	/experiments/knapen_AOT/AOT_stimuli/rescaled_final/0167_rv.mp4	0.0	201.8540427684784	0.10003519058227539
16	106.0991141796112	fix_pre	0		120	14.0	2.5	blank	1.0	201.95407795906067	1.0001888275146484
16	106.28268909454346	pulse	0	t		14.0	2.5	blank	1.0	202.13765287399292	
16	107.09930300712585	movie	1		297	14.0	2.5	blank	1.0	202.95426678657532	2.5002989768981934
16	107.88286304473877	pulse	1	t		14.0	2.5	blank	1.0	203.73782682418823	
16	109.4830870628357	pulse	1	t		14.0	2.5	blank	1.0	205.33805084228516	
16	109.59960198402405	fix_post	2		12	14.0	2.5	blank	1.0	205.4545657634735	0.10003018379211426
17	109.69963216781616	fix_pre	0		119	15.0	2.5	/experiments/knapen_AOT/AOT_stimuli/rescaled_final/1578_rv.mp4	0.0	205.55459594726562	0.9918229579925537
17	110.69145512580872	movie	1		247	15.0	2.5	/experiments/knapen_AOT/AOT_stimuli/rescaled_final/1578_rv.mp4	0.0	206.54641890525818	2.5003790855407715
17	111.08348417282104	pulse	1	t		15.0	2.5	/experiments/knapen_AOT/AOT_stimuli/rescaled_final/1578_rv.mp4	0.0	206.9384479522705	
17	112.68358707427979	pulse	1	t		15.0	2.5	/experiments/knapen_AOT/AOT_stimuli/rescaled_final/1578_rv.mp4	0.0	208.53855085372925	
17	113.19183421134949	fix_post	2		12	15.0	2.5	/experiments/knapen_AOT/AOT_stimuli/rescaled_final/1578_rv.mp4	0.0	209.04679799079895	0.10001587867736816
18	113.29185009002686	fix_pre	0		120	16.0	2.5	/experiments/knapen_AOT/AOT_stimuli/rescaled_final/1695_fw.mp4	0.0	209.14681386947632	1.0002310276031494
18	114.28382015228271	pulse	0	t		16.0	2.5	/experiments/knapen_AOT/AOT_stimuli/rescaled_final/1695_fw.mp4	0.0	210.13878393173218	
18	114.29208111763	movie	1		244	16.0	2.5	/experiments/knapen_AOT/AOT_stimuli/rescaled_final/1695_fw.mp4	0.0	210.14704489707947	2.508610963821411
18	115.88472414016724	pulse	1	t		16.0	2.5	/experiments/knapen_AOT/AOT_stimuli/rescaled_final/1695_fw.mp4	0.0	211.7396879196167	
18	116.80069208145142	fix_post	2		12	16.0	2.5	/experiments/knapen_AOT/AOT_stimuli/rescaled_final/1695_fw.mp4	0.0	212.65565586090088	0.10001111030578613
19	116.9007031917572	fix_pre	0		120	17.0	2.5	/experiments/knapen_AOT/AOT_stimuli/rescaled_final/0547_fw.mp4	0.0	212.75566697120667	1.0001778602600098
19	117.4843201637268	pulse	0	t		17.0	2.5	/experiments/knapen_AOT/AOT_stimuli/rescaled_final/0547_fw.mp4	0.0	213.33928394317627	
19	117.90088105201721	movie	1		244	17.0	2.5	/experiments/knapen_AOT/AOT_stimuli/rescaled_final/0547_fw.mp4	0.0	213.75584483146667	2.5003509521484375
19	119.08473300933838	pulse	1	t		17.0	2.5	/experiments/knapen_AOT/AOT_stimuli/rescaled_final/0547_fw.mp4	0.0	214.93969678878784	
19	120.40123200416565	fix_post	2		12	17.0	2.5	/experiments/knapen_AOT/AOT_stimuli/rescaled_final/0547_fw.mp4	0.0	216.2561957836151	0.10011601448059082
20	120.50134801864624	fix_pre	0		120	18.0	2.5	/experiments/knapen_AOT/AOT_stimuli/rescaled_final/0687_rv.mp4	0.0	216.3563117980957	1.0001120567321777
20	120.68485116958618	pulse	0	t		18.0	2.5	/experiments/knapen_AOT/AOT_stimuli/rescaled_final/0687_rv.mp4	0.0	216.53981494903564	
20	121.50146007537842	movie	1		244	18.0	2.5	/experiments/knapen_AOT/AOT_stimuli/rescaled_final/0687_rv.mp4	0.0	217.35642385482788	2.5003409385681152
20	122.28504204750061	pulse	1	t		18.0	2.5	/experiments/knapen_AOT/AOT_stimuli/rescaled_final/0687_rv.mp4	0.0	218.14000582695007	
20	123.88520503044128	pulse	1	t		18.0	2.5	/experiments/knapen_AOT/AOT_stimuli/rescaled_final/0687_rv.mp4	0.0	219.74016880989075	
20	124.00180101394653	fix_post	2		12	18.0	2.5	/experiments/knapen_AOT/AOT_stimuli/rescaled_final/0687_rv.mp4	0.0	219.856764793396	0.09997797012329102
21	124.10177898406982	fix_pre	0		119	19.0	2.5	/experiments/knapen_AOT/AOT_stimuli/rescaled_final/1040_rv.mp4	0.0	219.9567427635193	0.9918122291564941
21	125.09359121322632	movie	1		244	19.0	2.5	/experiments/knapen_AOT/AOT_stimuli/rescaled_final/1040_rv.mp4	0.0	220.94855499267578	2.5003738403320312
21	125.48575210571289	pulse	1	t		19.0	2.5	/experiments/knapen_AOT/AOT_stimuli/rescaled_final/1040_rv.mp4	0.0	221.34071588516235	
21	127.08589100837708	pulse	1	t		19.0	2.5	/experiments/knapen_AOT/AOT_stimuli/rescaled_final/1040_rv.mp4	0.0	222.94085478782654	
21	127.59396505355835	fix_post	2		12	19.0	2.5	/experiments/knapen_AOT/AOT_stimuli/rescaled_final/1040_rv.mp4	0.0	223.4489288330078	0.10006403923034668
22	127.6940290927887	fix_pre	0		120	20.0	2.5	/experiments/knapen_AOT/AOT_stimuli/rescaled_final/1580_fw.mp4	0.0	223.54899287223816	1.0002219676971436
22	128.68598818778992	pulse	0	t		20.0	2.5	/experiments/knapen_AOT/AOT_stimuli/rescaled_final/1580_fw.mp4	0.0	224.54095196723938	
22	128.69425106048584	movie	1		245	20.0	2.5	/experiments/knapen_AOT/AOT_stimuli/rescaled_final/1580_fw.mp4	0.0	224.5492148399353	2.508587121963501
22	130.28771805763245	pulse	1	t		20.0	2.5	/experiments/knapen_AOT/AOT_stimuli/rescaled_final/1580_fw.mp4	0.0	226.1426818370819	
22	131.20283818244934	fix_post	2		12	20.0	2.5	/experiments/knapen_AOT/AOT_stimuli/rescaled_final/1580_fw.mp4	0.0	227.0578019618988	0.10001897811889648
23	131.30285716056824	fix_pre	0		120	21.0	2.5	blank	1.0	227.1578209400177	1.0001778602600098
23	131.88661408424377	pulse	0	t		21.0	2.5	blank	1.0	227.74157786369324	
23	132.30303502082825	movie	1		300	21.0	2.5	blank	1.0	228.1579988002777	2.5004889965057373
23	133.4868140220642	pulse	1	t		21.0	2.5	blank	1.0	229.34177780151367	
23	134.80352401733398	fix_post	2		12	21.0	2.5	blank	1.0	230.65848779678345	0.09987306594848633
24	134.90339708328247	fix_pre	0		120	22.0	2.5	/experiments/knapen_AOT/AOT_stimuli/rescaled_final/0397_fw.mp4	0.0	230.75836086273193	1.000196933746338
24	135.0869801044464	pulse	0	t		22.0	2.5	/experiments/knapen_AOT/AOT_stimuli/rescaled_final/0397_fw.mp4	0.0	230.94194388389587	
24	135.9035940170288	movie	1		244	22.0	2.5	/experiments/knapen_AOT/AOT_stimuli/rescaled_final/0397_fw.mp4	0.0	231.75855779647827	2.50034499168396
24	136.6872010231018	pulse	1	t		22.0	2.5	/experiments/knapen_AOT/AOT_stimuli/rescaled_final/0397_fw.mp4	0.0	232.54216480255127	
24	138.2875051498413	pulse	1	t		22.0	2.5	/experiments/knapen_AOT/AOT_stimuli/rescaled_final/0397_fw.mp4	0.0	234.14246892929077	
24	138.40393900871277	fix_post	2		12	22.0	2.5	/experiments/knapen_AOT/AOT_stimuli/rescaled_final/0397_fw.mp4	0.0	234.25890278816223	0.09999203681945801
25	138.50393104553223	fix_pre	0		119	23.0	2.5	/experiments/knapen_AOT/AOT_stimuli/rescaled_final/0547_fw.mp4	0.0	234.3588948249817	0.9918551445007324
25	139.49578619003296	movie	1		244	23.0	2.5	/experiments/knapen_AOT/AOT_stimuli/rescaled_final/0547_fw.mp4	0.0	235.35074996948242	2.500356912612915
25	139.88376021385193	pulse	1	t		23.0	2.5	/experiments/knapen_AOT/AOT_stimuli/rescaled_final/0547_fw.mp4	0.0	235.7387239933014	
25	141.48786211013794	pulse	1	t		23.0	2.5	/experiments/knapen_AOT/AOT_stimuli/rescaled_final/0547_fw.mp4	0.0	237.3428258895874	
25	141.99614310264587	fix_post	2		12	23.0	2.5	/experiments/knapen_AOT/AOT_stimuli/rescaled_final/0547_fw.mp4	0.0	237.85110688209534	0.09999990463256836
26	142.09614300727844	fix_pre	0		120	24.0	2.5	/experiments/knapen_AOT/AOT_stimuli/rescaled_final/1053_rv.mp4	0.0	237.9511067867279	1.0001780986785889
26	143.0881199836731	pulse	0	t		24.0	2.5	/experiments/knapen_AOT/AOT_stimuli/rescaled_final/1053_rv.mp4	0.0	238.94308376312256	
26	143.09632110595703	movie	1		244	24.0	2.5	/experiments/knapen_AOT/AOT_stimuli/rescaled_final/1053_rv.mp4	0.0	238.9512848854065	2.5086910724639893
26	144.68892312049866	pulse	1	t		24.0	2.5	/experiments/knapen_AOT/AOT_stimuli/rescaled_final/1053_rv.mp4	0.0	240.54388689994812	
26	145.60501217842102	fix_post	2		12	24.0	2.5	/experiments/knapen_AOT/AOT_stimuli/rescaled_final/1053_rv.mp4	0.0	241.45997595787048	0.09999895095825195
27	145.70501112937927	fix_pre	0		120	25.0	2.5	/experiments/knapen_AOT/AOT_stimuli/rescaled_final/1799_rv.mp4	0.0	241.55997490882874	1.0001718997955322
27	146.2887580394745	pulse	0	t		25.0	2.5	/experiments/knapen_AOT/AOT_stimuli/rescaled_final/1799_rv.mp4	0.0	242.14372181892395	
27	146.7051830291748	movie	1		244	25.0	2.5	/experiments/knapen_AOT/AOT_stimuli/rescaled_final/1799_rv.mp4	0.0	242.56014680862427	2.500338077545166
27	147.88449001312256	pulse	1	t		25.0	2.5	/experiments/knapen_AOT/AOT_stimuli/rescaled_final/1799_rv.mp4	0.0	243.73945379257202	
27	149.20552110671997	fix_post	2		12	25.0	2.5	/experiments/knapen_AOT/AOT_stimuli/rescaled_final/1799_rv.mp4	0.0	245.06048488616943	0.10002803802490234
28	149.30554914474487	fix_pre	0		120	26.0	2.5	blank	1.0	245.16051292419434	1.000180959701538
28	149.4891312122345	pulse	0	t		26.0	2.5	blank	1.0	245.34409499168396	
28	150.3057301044464	movie	1		300	26.0	2.5	blank	1.0	246.16069388389587	2.500361919403076
28	151.0894169807434	pulse	1	t		26.0	2.5	blank	1.0	246.94438076019287	
28	152.68122506141663	pulse	1	t		26.0	2.5	blank	1.0	248.5361888408661	
28	152.8060920238495	fix_post	2		12	26.0	2.5	blank	1.0	248.66105580329895	0.10002517700195312
29	152.90611720085144	fix_pre	0		119	27.0	2.5	/experiments/knapen_AOT/AOT_stimuli/rescaled_final/1303_rv.mp4	0.0	248.7610809803009	0.9917957782745361
29	153.89791297912598	movie	1		243	27.0	2.5	/experiments/knapen_AOT/AOT_stimuli/rescaled_final/1303_rv.mp4	0.0	249.75287675857544	2.5003750324249268
29	154.28169417381287	pulse	1	t		27.0	2.5	/experiments/knapen_AOT/AOT_stimuli/rescaled_final/1303_rv.mp4	0.0	250.13665795326233	
29	155.88185715675354	pulse	1	t		27.0	2.5	/experiments/knapen_AOT/AOT_stimuli/rescaled_final/1303_rv.mp4	0.0	251.736820936203	
29	156.3982880115509	fix_post	2		12	27.0	2.5	/experiments/knapen_AOT/AOT_stimuli/rescaled_final/1303_rv.mp4	0.0	252.25325179100037	0.10004401206970215
30	156.4983320236206	fix_pre	0		119	28.0	2.5	/experiments/knapen_AOT/AOT_stimuli/rescaled_final/1073_rv.mp4	0.0	252.35329580307007	0.9918670654296875
30	157.48200607299805	pulse	0	t		28.0	2.5	/experiments/knapen_AOT/AOT_stimuli/rescaled_final/1073_rv.mp4	0.0	253.3369698524475	
30	157.4901990890503	movie	1		244	28.0	2.5	/experiments/knapen_AOT/AOT_stimuli/rescaled_final/1073_rv.mp4	0.0	253.34516286849976	2.5086569786071777
30	159.08277010917664	pulse	1	t		28.0	2.5	/experiments/knapen_AOT/AOT_stimuli/rescaled_final/1073_rv.mp4	0.0	254.9377338886261	
30	159.99885606765747	fix_post	2		12	28.0	2.5	/experiments/knapen_AOT/AOT_stimuli/rescaled_final/1073_rv.mp4	0.0	255.85381984710693	0.10001111030578613
31	160.09886717796326	fix_pre	0		120	29.0	2.5	/experiments/knapen_AOT/AOT_stimuli/rescaled_final/2030_fw.mp4	0.0	255.95383095741272	1.0001280307769775
31	160.68248009681702	pulse	0	t		29.0	2.5	/experiments/knapen_AOT/AOT_stimuli/rescaled_final/2030_fw.mp4	0.0	256.5374438762665	
31	161.09899520874023	movie	1		243	29.0	2.5	/experiments/knapen_AOT/AOT_stimuli/rescaled_final/2030_fw.mp4	0.0	256.9539589881897	2.5003597736358643
31	162.28275609016418	pulse	1	t		29.0	2.5	/experiments/knapen_AOT/AOT_stimuli/rescaled_final/2030_fw.mp4	0.0	258.13771986961365	
31	163.5993549823761	fix_post	2		12	29.0	2.5	/experiments/knapen_AOT/AOT_stimuli/rescaled_final/2030_fw.mp4	0.0	259.45431876182556	0.1000361442565918
32	163.6993911266327	fix_pre	0		120	30.0	2.5	/experiments/knapen_AOT/AOT_stimuli/rescaled_final/0252_fw.mp4	0.0	259.55435490608215	1.0001380443572998
32	163.88299417495728	pulse	0	t		30.0	2.5	/experiments/knapen_AOT/AOT_stimuli/rescaled_final/0252_fw.mp4	0.0	259.73795795440674	
32	164.69952917099	movie	1		244	30.0	2.5	/experiments/knapen_AOT/AOT_stimuli/rescaled_final/0252_fw.mp4	0.0	260.55449295043945	2.5003678798675537
32	165.48313307762146	pulse	1	t		30.0	2.5	/experiments/knapen_AOT/AOT_stimuli/rescaled_final/0252_fw.mp4	0.0	261.3380968570709	
32	167.08342504501343	pulse	1	t		30.0	2.5	/experiments/knapen_AOT/AOT_stimuli/rescaled_final/0252_fw.mp4	0.0	262.9383888244629	
32	167.19989705085754	fix_post	2		12	30.0	2.5	/experiments/knapen_AOT/AOT_stimuli/rescaled_final/0252_fw.mp4	0.0	263.054860830307	0.1000211238861084
33	167.29991817474365	fix_pre	0		119	31.0	2.5	/experiments/knapen_AOT/AOT_stimuli/rescaled_final/1333_fw.mp4	0.0	263.1548819541931	0.991832971572876
33	168.29175114631653	movie	1		241	31.0	2.5	/experiments/knapen_AOT/AOT_stimuli/rescaled_final/1333_fw.mp4	0.0	264.146714925766	2.500408887863159
33	168.6837751865387	pulse	1	t		31.0	2.5	/experiments/knapen_AOT/AOT_stimuli/rescaled_final/1333_fw.mp4	0.0	264.53873896598816	
33	170.28386902809143	pulse	1	t		31.0	2.5	/experiments/knapen_AOT/AOT_stimuli/rescaled_final/1333_fw.mp4	0.0	266.1388328075409	
33	170.7921600341797	fix_post	2		12	31.0	2.5	/experiments/knapen_AOT/AOT_stimuli/rescaled_final/1333_fw.mp4	0.0	266.64712381362915	0.09993100166320801
34	170.8920910358429	fix_pre	0		120	32.0	2.5	/experiments/knapen_AOT/AOT_stimuli/rescaled_final/2061_rv.mp4	0.0	266.74705481529236	1.0002031326293945
34	171.88406014442444	pulse	0	t		32.0	2.5	/experiments/knapen_AOT/AOT_stimuli/rescaled_final/2061_rv.mp4	0.0	267.7390239238739	
34	171.8922941684723	movie	1		244	32.0	2.5	/experiments/knapen_AOT/AOT_stimuli/rescaled_final/2061_rv.mp4	0.0	267.74725794792175	2.508678913116455
34	173.48480010032654	pulse	1	t		32.0	2.5	/experiments/knapen_AOT/AOT_stimuli/rescaled_final/2061_rv.mp4	0.0	269.339763879776	
34	174.40097308158875	fix_post	2		12	32.0	2.5	/experiments/knapen_AOT/AOT_stimuli/rescaled_final/2061_rv.mp4	0.0	270.2559368610382	0.10001492500305176
35	174.5009880065918	fix_pre	0		120	33.0	2.5	blank	1.0	270.35595178604126	1.000157117843628
35	175.08461499214172	pulse	0	t		33.0	2.5	blank	1.0	270.9395787715912	
35	175.50114512443542	movie	1		300	33.0	2.5	blank	1.0	271.3561089038849	2.500372886657715
35	176.68496203422546	pulse	1	t		33.0	2.5	blank	1.0	272.5399258136749	
35	178.00151801109314	fix_post	2		12	33.0	2.5	blank	1.0	273.8564817905426	0.10005617141723633
36	178.10157418251038	fix_pre	0		120	34.0	2.5	/experiments/knapen_AOT/AOT_stimuli/rescaled_final/1152_fw.mp4	0.0	273.95653796195984	1.000126838684082
36	178.28503513336182	pulse	0	t		34.0	2.5	/experiments/knapen_AOT/AOT_stimuli/rescaled_final/1152_fw.mp4	0.0	274.1399989128113	
36	179.10170102119446	movie	1		244	34.0	2.5	/experiments/knapen_AOT/AOT_stimuli/rescaled_final/1152_fw.mp4	0.0	274.9566648006439	2.5003480911254883
36	179.88537120819092	pulse	1	t		34.0	2.5	/experiments/knapen_AOT/AOT_stimuli/rescaled_final/1152_fw.mp4	0.0	275.7403349876404	
36	181.48941802978516	pulse	1	t		34.0	2.5	/experiments/knapen_AOT/AOT_stimuli/rescaled_final/1152_fw.mp4	0.0	277.3443818092346	
36	181.60204911231995	fix_post	2		12	34.0	2.5	/experiments/knapen_AOT/AOT_stimuli/rescaled_final/1152_fw.mp4	0.0	277.4570128917694	0.09999799728393555
37	181.70204710960388	fix_pre	0		119	35.0	2.5	/experiments/knapen_AOT/AOT_stimuli/rescaled_final/0587_fw.mp4	0.0	277.55701088905334	0.9918680191040039
37	182.69391512870789	movie	1		244	35.0	2.5	/experiments/knapen_AOT/AOT_stimuli/rescaled_final/0587_fw.mp4	0.0	278.54887890815735	2.500339984893799
37	183.08589506149292	pulse	1	t		35.0	2.5	/experiments/knapen_AOT/AOT_stimuli/rescaled_final/0587_fw.mp4	0.0	278.9408588409424	
37	184.68605017662048	pulse	1	t		35.0	2.5	/experiments/knapen_AOT/AOT_stimuli/rescaled_final/0587_fw.mp4	0.0	280.54101395606995	
37	185.19425511360168	fix_post	2		12	35.0	2.5	/experiments/knapen_AOT/AOT_stimuli/rescaled_final/0587_fw.mp4	0.0	281.04921889305115	0.10000991821289062
38	185.29426503181458	fix_pre	0		120	36.0	2.5	/experiments/knapen_AOT/AOT_stimuli/rescaled_final/0379_rv.mp4	0.0	281.14922881126404	1.000236988067627
38	186.28625416755676	pulse	0	t		36.0	2.5	/experiments/knapen_AOT/AOT_stimuli/rescaled_final/0379_rv.mp4	0.0	282.1412179470062	
38	186.2945020198822	movie	1		244	36.0	2.5	/experiments/knapen_AOT/AOT_stimuli/rescaled_final/0379_rv.mp4	0.0	282.14946579933167	2.5086419582366943
38	187.8878951072693	pulse	1	t		36.0	2.5	/experiments/knapen_AOT/AOT_stimuli/rescaled_final/0379_rv.mp4	0.0	283.74285888671875	
38	188.8031439781189	fix_post	2		12	36.0	2.5	/experiments/knapen_AOT/AOT_stimuli/rescaled_final/0379_rv.mp4	0.0	284.65810775756836	0.09998703002929688
39	188.9031310081482	fix_pre	0		120	37.0	2.5	/experiments/knapen_AOT/AOT_stimuli/rescaled_final/0558_rv.mp4	0.0	284.75809478759766	1.0001921653747559
39	189.48676419258118	pulse	0	t		37.0	2.5	/experiments/knapen_AOT/AOT_stimuli/rescaled_final/0558_rv.mp4	0.0	285.34172797203064	
39	189.90332317352295	movie	1		244	37.0	2.5	/experiments/knapen_AOT/AOT_stimuli/rescaled_final/0558_rv.mp4	0.0	285.7582869529724	2.500321865081787
39	191.08712720870972	pulse	1	t		37.0	2.5	/experiments/knapen_AOT/AOT_stimuli/rescaled_final/0558_rv.mp4	0.0	286.9420909881592	
39	192.40364503860474	fix_post	2		12	37.0	2.5	/experiments/knapen_AOT/AOT_stimuli/rescaled_final/0558_rv.mp4	0.0	288.2586088180542	0.10003900527954102
40	192.50368404388428	fix_pre	0		120	38.0	2.5	/experiments/knapen_AOT/AOT_stimuli/rescaled_final/0608_fw.mp4	0.0	288.35864782333374	1.0001599788665771
40	192.68722319602966	pulse	0	t		38.0	2.5	/experiments/knapen_AOT/AOT_stimuli/rescaled_final/0608_fw.mp4	0.0	288.5421869754791	
40	193.50384402275085	movie	1		244	38.0	2.5	/experiments/knapen_AOT/AOT_stimuli/rescaled_final/0608_fw.mp4	0.0	289.3588078022003	2.500347137451172
40	194.2875599861145	pulse	1	t		38.0	2.5	/experiments/knapen_AOT/AOT_stimuli/rescaled_final/0608_fw.mp4	0.0	290.14252376556396	
40	195.88789415359497	pulse	1	t		38.0	2.5	/experiments/knapen_AOT/AOT_stimuli/rescaled_final/0608_fw.mp4	0.0	291.74285793304443	
40	196.00419116020203	fix_post	2		12	38.0	2.5	/experiments/knapen_AOT/AOT_stimuli/rescaled_final/0608_fw.mp4	0.0	291.8591549396515	0.10001087188720703
41	196.10420203208923	fix_pre	0		120	39.0	2.5	/experiments/knapen_AOT/AOT_stimuli/rescaled_final/0508_fw.mp4	0.0	291.9591658115387	1.000157117843628
41	197.10435914993286	movie	1		245	39.0	2.5	/experiments/knapen_AOT/AOT_stimuli/rescaled_final/0508_fw.mp4	0.0	292.9593229293823	2.4920530319213867
41	197.4892020225525	pulse	1	t		39.0	2.5	/experiments/knapen_AOT/AOT_stimuli/rescaled_final/0508_fw.mp4	0.0	293.34416580200195	
41	199.08825612068176	pulse	1	t		39.0	2.5	/experiments/knapen_AOT/AOT_stimuli/rescaled_final/0508_fw.mp4	0.0	294.9432199001312	
41	199.59641218185425	fix_post	2		12	39.0	2.5	/experiments/knapen_AOT/AOT_stimuli/rescaled_final/0508_fw.mp4	0.0	295.4513759613037	0.10000395774841309
42	199.69641613960266	fix_pre	0		120	40.0	2.5	/experiments/knapen_AOT/AOT_stimuli/rescaled_final/1702_fw.mp4	0.0	295.5513799190521	1.0002498626708984
42	200.68847799301147	pulse	0	t		40.0	2.5	/experiments/knapen_AOT/AOT_stimuli/rescaled_final/1702_fw.mp4	0.0	296.54344177246094	
42	200.69666600227356	movie	1		245	40.0	2.5	/experiments/knapen_AOT/AOT_stimuli/rescaled_final/1702_fw.mp4	0.0	296.551629781723	2.508594036102295
42	202.2901840209961	pulse	1	t		40.0	2.5	/experiments/knapen_AOT/AOT_stimuli/rescaled_final/1702_fw.mp4	0.0	298.14514780044556	
42	203.20526003837585	fix_post	2		12	40.0	2.5	/experiments/knapen_AOT/AOT_stimuli/rescaled_final/1702_fw.mp4	0.0	299.0602238178253	0.10005807876586914
43	203.30531811714172	fix_pre	0		120	41.0	2.5	blank	1.0	299.1602818965912	1.0001399517059326
43	203.88895201683044	pulse	0	t		41.0	2.5	blank	1.0	299.7439157962799	
43	204.30545806884766	movie	1		300	41.0	2.5	blank	1.0	300.1604218482971	2.500352144241333
43	205.48160815238953	pulse	1	t		41.0	2.5	blank	1.0	301.336571931839	
43	206.805810213089	fix_post	2		12	41.0	2.5	blank	1.0	302.66077399253845	0.09999299049377441
44	206.90580320358276	fix_pre	0		120	42.0	2.5	/experiments/knapen_AOT/AOT_stimuli/rescaled_final/2130_rv.mp4	0.0	302.7607669830322	1.000166893005371
44	207.08185601234436	pulse	0	t		42.0	2.5	/experiments/knapen_AOT/AOT_stimuli/rescaled_final/2130_rv.mp4	0.0	302.9368197917938	
44	207.90597009658813	movie	1		244	42.0	2.5	/experiments/knapen_AOT/AOT_stimuli/rescaled_final/2130_rv.mp4	0.0	303.7609338760376	2.5004379749298096
44	208.68219709396362	pulse	1	t		42.0	2.5	/experiments/knapen_AOT/AOT_stimuli/rescaled_final/2130_rv.mp4	0.0	304.5371608734131	
44	210.2877721786499	pulse	1	t		42.0	2.5	/experiments/knapen_AOT/AOT_stimuli/rescaled_final/2130_rv.mp4	0.0	306.14273595809937	
44	210.40640807151794	fix_post	2		12	42.0	2.5	/experiments/knapen_AOT/AOT_stimuli/rescaled_final/2130_rv.mp4	0.0	306.2613718509674	0.0999901294708252
45	210.50639820098877	fix_pre	0		120	43.0	2.5	/experiments/knapen_AOT/AOT_stimuli/rescaled_final/1091_rv.mp4	0.0	306.36136198043823	1.0001449584960938
45	211.50654315948486	movie	1		243	43.0	2.5	/experiments/knapen_AOT/AOT_stimuli/rescaled_final/1091_rv.mp4	0.0	307.3615069389343	2.491992950439453
45	211.88197016716003	pulse	1	t		43.0	2.5	/experiments/knapen_AOT/AOT_stimuli/rescaled_final/1091_rv.mp4	0.0	307.7369339466095	
45	213.48205614089966	pulse	1	t		43.0	2.5	/experiments/knapen_AOT/AOT_stimuli/rescaled_final/1091_rv.mp4	0.0	309.3370199203491	
45	213.99853610992432	fix_post	2		12	43.0	2.5	/experiments/knapen_AOT/AOT_stimuli/rescaled_final/1091_rv.mp4	0.0	309.8534998893738	0.10000896453857422
46	214.0985450744629	fix_pre	0		119	44.0	2.5	/experiments/knapen_AOT/AOT_stimuli/rescaled_final/1654_fw.mp4	0.0	309.95350885391235	0.9919159412384033
46	215.08218717575073	pulse	0	t		44.0	2.5	/experiments/knapen_AOT/AOT_stimuli/rescaled_final/1654_fw.mp4	0.0	310.9371509552002	
46	215.0904610157013	movie	1		245	44.0	2.5	/experiments/knapen_AOT/AOT_stimuli/rescaled_final/1654_fw.mp4	0.0	310.94542479515076	2.5086560249328613
46	216.68357610702515	pulse	1	t		44.0	2.5	/experiments/knapen_AOT/AOT_stimuli/rescaled_final/1654_fw.mp4	0.0	312.5385398864746	
46	217.59911704063416	fix_post	2		12	44.0	2.5	/experiments/knapen_AOT/AOT_stimuli/rescaled_final/1654_fw.mp4	0.0	313.4540808200836	0.10001611709594727
47	217.6991331577301	fix_pre	0		120	45.0	2.5	/experiments/knapen_AOT/AOT_stimuli/rescaled_final/1499_rv.mp4	0.0	313.55409693717957	1.0001590251922607
47	218.28276801109314	pulse	0	t		45.0	2.5	/experiments/knapen_AOT/AOT_stimuli/rescaled_final/1499_rv.mp4	0.0	314.1377317905426	
47	218.69929218292236	movie	1		244	45.0	2.5	/experiments/knapen_AOT/AOT_stimuli/rescaled_final/1499_rv.mp4	0.0	314.5542559623718	2.5003788471221924
47	219.8830440044403	pulse	1	t		45.0	2.5	/experiments/knapen_AOT/AOT_stimuli/rescaled_final/1499_rv.mp4	0.0	315.73800778388977	
47	221.19967103004456	fix_post	2		12	45.0	2.5	/experiments/knapen_AOT/AOT_stimuli/rescaled_final/1499_rv.mp4	0.0	317.054634809494	0.0999760627746582
48	221.2996470928192	fix_pre	0		120	46.0	2.5	/experiments/knapen_AOT/AOT_stimuli/rescaled_final/0091_fw.mp4	0.0	317.1546108722687	1.00016188621521
48	221.48316407203674	pulse	0	t		46.0	2.5	/experiments/knapen_AOT/AOT_stimuli/rescaled_final/0091_fw.mp4	0.0	317.3381278514862	
48	222.29980897903442	movie	1		247	46.0	2.5	/experiments/knapen_AOT/AOT_stimuli/rescaled_final/0091_fw.mp4	0.0	318.1547727584839	2.5004231929779053
48	223.08352518081665	pulse	1	t		46.0	2.5	/experiments/knapen_AOT/AOT_stimuli/rescaled_final/0091_fw.mp4	0.0	318.9384889602661	
48	224.68381905555725	pulse	1	t		46.0	2.5	/experiments/knapen_AOT/AOT_stimuli/rescaled_final/0091_fw.mp4	0.0	320.5387828350067	
48	224.80023217201233	fix_post	2		12	46.0	2.5	/experiments/knapen_AOT/AOT_stimuli/rescaled_final/0091_fw.mp4	0.0	320.6551959514618	0.09995293617248535
49	224.90018510818481	fix_pre	0		119	47.0	2.5	/experiments/knapen_AOT/AOT_stimuli/rescaled_final/1179_rv.mp4	0.0	320.7551488876343	0.991832971572876
49	225.8920180797577	movie	1		241	47.0	2.5	/experiments/knapen_AOT/AOT_stimuli/rescaled_final/1179_rv.mp4	0.0	321.74698185920715	2.5003509521484375
49	226.28403615951538	pulse	1	t		47.0	2.5	/experiments/knapen_AOT/AOT_stimuli/rescaled_final/1179_rv.mp4	0.0	322.13899993896484	
49	227.88409399986267	pulse	1	t		47.0	2.5	/experiments/knapen_AOT/AOT_stimuli/rescaled_final/1179_rv.mp4	0.0	323.73905777931213	
49	228.39236903190613	fix_post	2		12	47.0	2.5	/experiments/knapen_AOT/AOT_stimuli/rescaled_final/1179_rv.mp4	0.0	324.2473328113556	0.10010313987731934
50	228.49247217178345	fix_pre	0		120	48.0	2.5	/experiments/knapen_AOT/AOT_stimuli/rescaled_final/0947_fw.mp4	0.0	324.3474359512329	1.0000808238983154
50	229.4844720363617	pulse	0	t		48.0	2.5	/experiments/knapen_AOT/AOT_stimuli/rescaled_final/0947_fw.mp4	0.0	325.33943581581116	
50	229.49255299568176	movie	1		246	48.0	2.5	/experiments/knapen_AOT/AOT_stimuli/rescaled_final/0947_fw.mp4	0.0	325.3475167751312	2.5086841583251953
50	231.0859022140503	pulse	1	t		48.0	2.5	/experiments/knapen_AOT/AOT_stimuli/rescaled_final/0947_fw.mp4	0.0	326.94086599349976	
50	232.00123715400696	fix_post	2		12	48.0	2.5	/experiments/knapen_AOT/AOT_stimuli/rescaled_final/0947_fw.mp4	0.0	327.8562009334564	0.10002589225769043
51	232.10126304626465	fix_pre	0		120	49.0	2.5	blank	1.0	327.9562268257141	1.0001389980316162
51	232.68484902381897	pulse	0	t		49.0	2.5	blank	1.0	328.53981280326843	
51	233.10140204429626	movie	1		300	49.0	2.5	blank	1.0	328.9563658237457	2.500386953353882
51	234.28509402275085	pulse	1	t		49.0	2.5	blank	1.0	330.1400578022003	
51	235.60178899765015	fix_post	2		12	49.0	2.5	blank	1.0	331.4567527770996	0.09999608993530273
52	235.70178508758545	fix_pre	0		120	50.0	2.5	/experiments/knapen_AOT/AOT_stimuli/rescaled_final/1907_fw.mp4	0.0	331.5567488670349	1.000180959701538
52	235.88547205924988	pulse	0	t		50.0	2.5	/experiments/knapen_AOT/AOT_stimuli/rescaled_final/1907_fw.mp4	0.0	331.74043583869934	
52	236.701966047287	movie	1		245	50.0	2.5	/experiments/knapen_AOT/AOT_stimuli/rescaled_final/1907_fw.mp4	0.0	332.55692982673645	2.500343084335327
52	237.4857621192932	pulse	1	t		50.0	2.5	/experiments/knapen_AOT/AOT_stimuli/rescaled_final/1907_fw.mp4	0.0	333.3407258987427	
52	239.08341312408447	pulse	1	t		50.0	2.5	/experiments/knapen_AOT/AOT_stimuli/rescaled_final/1907_fw.mp4	0.0	334.93837690353394	
52	239.20230913162231	fix_post	2		12	50.0	2.5	/experiments/knapen_AOT/AOT_stimuli/rescaled_final/1907_fw.mp4	0.0	335.0572729110718	0.10008692741394043
53	239.30239605903625	fix_pre	0		120	51.0	2.5	/experiments/knapen_AOT/AOT_stimuli/rescaled_final/0827_fw.mp4	0.0	335.1573598384857	1.0001449584960938
53	240.30254101753235	movie	1		244	51.0	2.5	/experiments/knapen_AOT/AOT_stimuli/rescaled_final/0827_fw.mp4	0.0	336.1575047969818	2.4920310974121094
53	240.68675017356873	pulse	1	t		51.0	2.5	/experiments/knapen_AOT/AOT_stimuli/rescaled_final/0827_fw.mp4	0.0	336.5417139530182	
53	242.2863531112671	pulse	1	t		51.0	2.5	/experiments/knapen_AOT/AOT_stimuli/rescaled_final/0827_fw.mp4	0.0	338.14131689071655	
53	242.79457211494446	fix_post	2		12	51.0	2.5	/experiments/knapen_AOT/AOT_stimuli/rescaled_final/0827_fw.mp4	0.0	338.6495358943939	0.09997892379760742
54	242.89455103874207	fix_pre	0		120	52.0	2.5	/experiments/knapen_AOT/AOT_stimuli/rescaled_final/1687_fw.mp4	0.0	338.7495148181915	1.0001239776611328
54	243.8866901397705	pulse	0	t		52.0	2.5	/experiments/knapen_AOT/AOT_stimuli/rescaled_final/1687_fw.mp4	0.0	339.74165391921997	
54	243.8946750164032	movie	1		246	52.0	2.5	/experiments/knapen_AOT/AOT_stimuli/rescaled_final/1687_fw.mp4	0.0	339.74963879585266	2.5087320804595947
54	245.4881250858307	pulse	1	t		52.0	2.5	/experiments/knapen_AOT/AOT_stimuli/rescaled_final/1687_fw.mp4	0.0	341.34308886528015	
54	246.4034070968628	fix_post	2		12	52.0	2.5	/experiments/knapen_AOT/AOT_stimuli/rescaled_final/1687_fw.mp4	0.0	342.25837087631226	0.10002398490905762
55	246.50343108177185	fix_pre	0		120	53.0	2.5	/experiments/knapen_AOT/AOT_stimuli/rescaled_final/1812_fw.mp4	0.0	342.3583948612213	1.0002329349517822
55	247.08706307411194	pulse	0	t		53.0	2.5	/experiments/knapen_AOT/AOT_stimuli/rescaled_final/1812_fw.mp4	0.0	342.9420268535614	
55	247.50366401672363	movie	1		244	53.0	2.5	/experiments/knapen_AOT/AOT_stimuli/rescaled_final/1812_fw.mp4	0.0	343.3586277961731	2.500246047973633
55	248.68734002113342	pulse	1	t		53.0	2.5	/experiments/knapen_AOT/AOT_stimuli/rescaled_final/1812_fw.mp4	0.0	344.5423038005829	
55	250.00391006469727	fix_post	2		12	53.0	2.5	/experiments/knapen_AOT/AOT_stimuli/rescaled_final/1812_fw.mp4	0.0	345.85887384414673	0.10003399848937988
56	250.10394406318665	fix_pre	0		120	54.0	2.5	/experiments/knapen_AOT/AOT_stimuli/rescaled_final/0432_fw.mp4	0.0	345.9589078426361	1.0001471042633057
56	250.28760719299316	pulse	0	t		54.0	2.5	/experiments/knapen_AOT/AOT_stimuli/rescaled_final/0432_fw.mp4	0.0	346.1425709724426	
56	251.10409116744995	movie	1		244	54.0	2.5	/experiments/knapen_AOT/AOT_stimuli/rescaled_final/0432_fw.mp4	0.0	346.9590549468994	2.5003600120544434
56	251.88788199424744	pulse	1	t		54.0	2.5	/experiments/knapen_AOT/AOT_stimuli/rescaled_final/0432_fw.mp4	0.0	347.7428457736969	
56	253.48953413963318	pulse	1	t		54.0	2.5	/experiments/knapen_AOT/AOT_stimuli/rescaled_final/0432_fw.mp4	0.0	349.34449791908264	
56	253.6044511795044	fix_post	2		12	54.0	2.5	/experiments/knapen_AOT/AOT_stimuli/rescaled_final/0432_fw.mp4	0.0	349.45941495895386	0.1000368595123291
57	253.70448803901672	fix_pre	0		120	55.0	2.5	blank	1.0	349.5594518184662	1.000180959701538
57	254.70466899871826	movie	1		299	55.0	2.5	blank	1.0	350.5596327781677	2.492021083831787
57	255.08819699287415	pulse	1	t		55.0	2.5	blank	1.0	350.9431607723236	
57	256.68846106529236	pulse	1	t		55.0	2.5	blank	1.0	352.5434248447418	
57	257.19669008255005	fix_post	2		12	55.0	2.5	blank	1.0	353.0516538619995	0.09999299049377441
58	257.2966830730438	fix_pre	0		120	56.0	2.5	/experiments/knapen_AOT/AOT_stimuli/rescaled_final/0422_fw.mp4	0.0	353.1516468524933	1.0001459121704102
58	258.2811942100525	pulse	0	t		56.0	2.5	/experiments/knapen_AOT/AOT_stimuli/rescaled_final/0422_fw.mp4	0.0	354.13615798950195	
58	258.29682898521423	movie	1		245	56.0	2.5	/experiments/knapen_AOT/AOT_stimuli/rescaled_final/0422_fw.mp4	0.0	354.1517927646637	2.508714199066162
58	259.8893370628357	pulse	1	t		56.0	2.5	/experiments/knapen_AOT/AOT_stimuli/rescaled_final/0422_fw.mp4	0.0	355.74430084228516	
58	260.8055431842804	fix_post	2		12	56.0	2.5	/experiments/knapen_AOT/AOT_stimuli/rescaled_final/0422_fw.mp4	0.0	356.66050696372986	0.1000528335571289
59	260.9055960178375	fix_pre	0		120	57.0	2.5	/experiments/knapen_AOT/AOT_stimuli/rescaled_final/2169_rv.mp4	0.0	356.760559797287	1.0001580715179443
59	261.4817831516266	pulse	0	t		57.0	2.5	/experiments/knapen_AOT/AOT_stimuli/rescaled_final/2169_rv.mp4	0.0	357.33674693107605	
59	261.90575408935547	movie	1		243	57.0	2.5	/experiments/knapen_AOT/AOT_stimuli/rescaled_final/2169_rv.mp4	0.0	357.76071786880493	2.5003108978271484
59	263.0825161933899	pulse	1	t		57.0	2.5	/experiments/knapen_AOT/AOT_stimuli/rescaled_final/2169_rv.mp4	0.0	358.93747997283936	
59	264.4060649871826	fix_post	2		12	57.0	2.5	/experiments/knapen_AOT/AOT_stimuli/rescaled_final/2169_rv.mp4	0.0	360.2610287666321	0.10001015663146973
60	264.5060751438141	fix_pre	0		120	58.0	2.5	/experiments/knapen_AOT/AOT_stimuli/rescaled_final/1412_rv.mp4	0.0	360.36103892326355	1.0002059936523438
60	264.68141913414	pulse	0	t		58.0	2.5	/experiments/knapen_AOT/AOT_stimuli/rescaled_final/1412_rv.mp4	0.0	360.5363829135895	
60	265.50628113746643	movie	1		243	58.0	2.5	/experiments/knapen_AOT/AOT_stimuli/rescaled_final/1412_rv.mp4	0.0	361.3612449169159	2.500321865081787
60	266.2815899848938	pulse	1	t		58.0	2.5	/experiments/knapen_AOT/AOT_stimuli/rescaled_final/1412_rv.mp4	0.0	362.13655376434326	
60	267.8817629814148	pulse	1	t		58.0	2.5	/experiments/knapen_AOT/AOT_stimuli/rescaled_final/1412_rv.mp4	0.0	363.73672676086426	
60	268.0066030025482	fix_post	2		12	58.0	2.5	/experiments/knapen_AOT/AOT_stimuli/rescaled_final/1412_rv.mp4	0.0	363.8615667819977	0.10002017021179199
61	268.10662317276	fix_pre	0		120	59.0	2.5	/experiments/knapen_AOT/AOT_stimuli/rescaled_final/0521_rv.mp4	0.0	363.9615869522095	1.0001928806304932
61	269.1068160533905	movie	1		243	59.0	2.5	/experiments/knapen_AOT/AOT_stimuli/rescaled_final/0521_rv.mp4	0.0	364.96177983283997	2.4920101165771484
61	269.4820091724396	pulse	1	t		59.0	2.5	/experiments/knapen_AOT/AOT_stimuli/rescaled_final/0521_rv.mp4	0.0	365.33697295188904	
61	271.0823481082916	pulse	1	t		59.0	2.5	/experiments/knapen_AOT/AOT_stimuli/rescaled_final/0521_rv.mp4	0.0	366.9373118877411	
61	271.59882616996765	fix_post	2		12	59.0	2.5	/experiments/knapen_AOT/AOT_stimuli/rescaled_final/0521_rv.mp4	0.0	367.4537899494171	0.10001683235168457
62	271.69884300231934	fix_pre	0		119	60.0	2.5	/experiments/knapen_AOT/AOT_stimuli/rescaled_final/1687_rv.mp4	0.0	367.5538067817688	0.9918100833892822
62	272.6825292110443	pulse	0	t		60.0	2.5	/experiments/knapen_AOT/AOT_stimuli/rescaled_final/1687_rv.mp4	0.0	368.5374929904938	
62	272.6906530857086	movie	1		245	60.0	2.5	/experiments/knapen_AOT/AOT_stimuli/rescaled_final/1687_rv.mp4	0.0	368.5456168651581	2.5087149143218994
62	274.28344321250916	pulse	1	t		60.0	2.5	/experiments/knapen_AOT/AOT_stimuli/rescaled_final/1687_rv.mp4	0.0	370.1384069919586	
62	275.1993680000305	fix_post	2		12	60.0	2.5	/experiments/knapen_AOT/AOT_stimuli/rescaled_final/1687_rv.mp4	0.0	371.05433177948	0.1000361442565918
63	275.2994041442871	fix_pre	0		120	61.0	2.5	/experiments/knapen_AOT/AOT_stimuli/rescaled_final/1568_fw.mp4	0.0	371.1543679237366	1.000148057937622
63	275.88302397727966	pulse	0	t		61.0	2.5	/experiments/knapen_AOT/AOT_stimuli/rescaled_final/1568_fw.mp4	0.0	371.7379877567291	
63	276.29955220222473	movie	1		244	61.0	2.5	/experiments/knapen_AOT/AOT_stimuli/rescaled_final/1568_fw.mp4	0.0	372.1545159816742	2.50038480758667
63	277.4833331108093	pulse	1	t		61.0	2.5	/experiments/knapen_AOT/AOT_stimuli/rescaled_final/1568_fw.mp4	0.0	373.3382968902588	
63	278.7999370098114	fix_post	2		12	61.0	2.5	/experiments/knapen_AOT/AOT_stimuli/rescaled_final/1568_fw.mp4	0.0	374.65490078926086	0.1000521183013916
64	278.8999891281128	fix_pre	0		120	62.0	2.5	blank	1.0	374.75495290756226	1.0000998973846436
64	279.08356499671936	pulse	0	t		62.0	2.5	blank	1.0	374.9385287761688	
64	279.90008902549744	movie	1		300	62.0	2.5	blank	1.0	375.7550528049469	2.5003609657287598
64	280.6837639808655	pulse	1	t		62.0	2.5	blank	1.0	376.53872776031494	
64	282.2839159965515	pulse	1	t		62.0	2.5	blank	1.0	378.138879776001	
64	282.4004499912262	fix_post	2		12	62.0	2.5	blank	1.0	378.25541377067566	0.09999203681945801
65	282.50044202804565	fix_pre	0		120	63.0	2.5	/experiments/knapen_AOT/AOT_stimuli/rescaled_final/1569_fw.mp4	0.0	378.3554058074951	1.0001721382141113
65	283.50061416625977	movie	1		244	63.0	2.5	/experiments/knapen_AOT/AOT_stimuli/rescaled_final/1569_fw.mp4	0.0	379.35557794570923	2.5005249977111816
65	283.884868144989	pulse	1	t		63.0	2.5	/experiments/knapen_AOT/AOT_stimuli/rescaled_final/1569_fw.mp4	0.0	379.7398319244385	
65	285.48452520370483	pulse	1	t		63.0	2.5	/experiments/knapen_AOT/AOT_stimuli/rescaled_final/1569_fw.mp4	0.0	381.3394889831543	
65	286.00113916397095	fix_post	2		8	63.0	2.5	/experiments/knapen_AOT/AOT_stimuli/rescaled_final/1569_fw.mp4	0.0	381.8561029434204	0.09157204627990723
66	286.09271121025085	fix_pre	0		120	64.0	2.5	/experiments/knapen_AOT/AOT_stimuli/rescaled_final/0535_rv.mp4	0.0	381.9476749897003	1.0001349449157715
66	287.08469700813293	pulse	0	t		64.0	2.5	/experiments/knapen_AOT/AOT_stimuli/rescaled_final/0535_rv.mp4	0.0	382.9396607875824	
66	287.0928461551666	movie	1		245	64.0	2.5	/experiments/knapen_AOT/AOT_stimuli/rescaled_final/0535_rv.mp4	0.0	382.9478099346161	2.5086669921875
66	288.68590021133423	pulse	1	t		64.0	2.5	/experiments/knapen_AOT/AOT_stimuli/rescaled_final/0535_rv.mp4	0.0	384.5408639907837	
66	289.6015131473541	fix_post	2		12	64.0	2.5	/experiments/knapen_AOT/AOT_stimuli/rescaled_final/0535_rv.mp4	0.0	385.4564769268036	0.10005593299865723
67	289.7015690803528	fix_pre	0		120	65.0	2.5	/experiments/knapen_AOT/AOT_stimuli/rescaled_final/1243_rv.mp4	0.0	385.55653285980225	1.0001540184020996
67	290.2851331233978	pulse	0	t		65.0	2.5	/experiments/knapen_AOT/AOT_stimuli/rescaled_final/1243_rv.mp4	0.0	386.1400969028473	
67	290.7017230987549	movie	1		245	65.0	2.5	/experiments/knapen_AOT/AOT_stimuli/rescaled_final/1243_rv.mp4	0.0	386.55668687820435	2.5003020763397217
67	291.885488986969	pulse	1	t		65.0	2.5	/experiments/knapen_AOT/AOT_stimuli/rescaled_final/1243_rv.mp4	0.0	387.74045276641846	
67	293.2020251750946	fix_post	2		12	65.0	2.5	/experiments/knapen_AOT/AOT_stimuli/rescaled_final/1243_rv.mp4	0.0	389.05698895454407	0.10006499290466309
68	293.30209016799927	fix_pre	0		120	66.0	2.5	/experiments/knapen_AOT/AOT_stimuli/rescaled_final/1038_fw.mp4	0.0	389.15705394744873	1.0001559257507324
68	293.4856882095337	pulse	0	t		66.0	2.5	/experiments/knapen_AOT/AOT_stimuli/rescaled_final/1038_fw.mp4	0.0	389.34065198898315	
68	294.30224609375	movie	1		243	66.0	2.5	/experiments/knapen_AOT/AOT_stimuli/rescaled_final/1038_fw.mp4	0.0	390.15720987319946	2.500382900238037
68	295.08601808547974	pulse	1	t		66.0	2.5	/experiments/knapen_AOT/AOT_stimuli/rescaled_final/1038_fw.mp4	0.0	390.9409818649292	
68	296.6862781047821	pulse	1	t		66.0	2.5	/experiments/knapen_AOT/AOT_stimuli/rescaled_final/1038_fw.mp4	0.0	392.54124188423157	
68	296.80262899398804	fix_post	2		12	66.0	2.5	/experiments/knapen_AOT/AOT_stimuli/rescaled_final/1038_fw.mp4	0.0	392.6575927734375	0.09996318817138672
69	296.9025921821594	fix_pre	0		120	67.0	2.5	/experiments/knapen_AOT/AOT_stimuli/rescaled_final/1308_fw.mp4	0.0	392.7575559616089	1.0001959800720215
69	297.90278816223145	movie	1		243	67.0	2.5	/experiments/knapen_AOT/AOT_stimuli/rescaled_final/1308_fw.mp4	0.0	393.7577519416809	2.491971015930176
69	298.28690814971924	pulse	1	t		67.0	2.5	/experiments/knapen_AOT/AOT_stimuli/rescaled_final/1308_fw.mp4	0.0	394.1418719291687	
69	299.88671612739563	pulse	1	t		67.0	2.5	/experiments/knapen_AOT/AOT_stimuli/rescaled_final/1308_fw.mp4	0.0	395.7416799068451	
69	300.3947591781616	fix_post	2		12	67.0	2.5	/experiments/knapen_AOT/AOT_stimuli/rescaled_final/1308_fw.mp4	0.0	396.2497229576111	0.10003995895385742
70	300.4947991371155	fix_pre	0		120	68.0	2.5	blank	1.0	396.34976291656494	1.0001659393310547
70	301.4868462085724	pulse	0	t		68.0	2.5	blank	1.0	397.34180998802185	
70	301.49496507644653	movie	1		301	68.0	2.5	blank	1.0	397.349928855896	2.5087430477142334
70	303.0870430469513	pulse	1	t		68.0	2.5	blank	1.0	398.94200682640076	
70	304.00370812416077	fix_post	2		12	68.0	2.5	blank	1.0	399.85867190361023	0.09995794296264648
71	304.1036660671234	fix_pre	0		120	69.0	2.5	/experiments/knapen_AOT/AOT_stimuli/rescaled_final/2012_fw.mp4	0.0	399.9586298465729	1.0001709461212158
71	304.68740606307983	pulse	0	t		69.0	2.5	/experiments/knapen_AOT/AOT_stimuli/rescaled_final/2012_fw.mp4	0.0	400.5423698425293	
71	305.10383701324463	movie	1		245	69.0	2.5	/experiments/knapen_AOT/AOT_stimuli/rescaled_final/2012_fw.mp4	0.0	400.9588007926941	2.500387191772461
71	306.28763008117676	pulse	1	t		69.0	2.5	/experiments/knapen_AOT/AOT_stimuli/rescaled_final/2012_fw.mp4	0.0	402.1425938606262	
71	307.6042242050171	fix_post	2		12	69.0	2.5	/experiments/knapen_AOT/AOT_stimuli/rescaled_final/2012_fw.mp4	0.0	403.45918798446655	0.10003900527954102
72	307.70426321029663	fix_pre	0		120	70.0	2.5	/experiments/knapen_AOT/AOT_stimuli/rescaled_final/0743_fw.mp4	0.0	403.5592269897461	1.000168800354004
72	307.8878140449524	pulse	0	t		70.0	2.5	/experiments/knapen_AOT/AOT_stimuli/rescaled_final/0743_fw.mp4	0.0	403.74277782440186	
72	308.70443201065063	movie	1		244	70.0	2.5	/experiments/knapen_AOT/AOT_stimuli/rescaled_final/0743_fw.mp4	0.0	404.5593957901001	2.5002810955047607
72	309.4879500865936	pulse	1	t		70.0	2.5	/experiments/knapen_AOT/AOT_stimuli/rescaled_final/0743_fw.mp4	0.0	405.3429138660431	
72	311.0916271209717	pulse	1	t		70.0	2.5	/experiments/knapen_AOT/AOT_stimuli/rescaled_final/0743_fw.mp4	0.0	406.94659090042114	
72	311.2047131061554	fix_post	2		12	70.0	2.5	/experiments/knapen_AOT/AOT_stimuli/rescaled_final/0743_fw.mp4	0.0	407.05967688560486	0.10008692741394043
73	311.30480003356934	fix_pre	0		119	71.0	2.5	/experiments/knapen_AOT/AOT_stimuli/rescaled_final/1930_rv.mp4	0.0	407.1597638130188	0.991894006729126
73	312.29669404029846	movie	1		245	71.0	2.5	/experiments/knapen_AOT/AOT_stimuli/rescaled_final/1930_rv.mp4	0.0	408.1516578197479	2.500231981277466
73	312.6819291114807	pulse	1	t		71.0	2.5	/experiments/knapen_AOT/AOT_stimuli/rescaled_final/1930_rv.mp4	0.0	408.5368928909302	
73	314.2886891365051	pulse	1	t		71.0	2.5	/experiments/knapen_AOT/AOT_stimuli/rescaled_final/1930_rv.mp4	0.0	410.1436529159546	
73	314.7969260215759	fix_post	2		12	71.0	2.5	/experiments/knapen_AOT/AOT_stimuli/rescaled_final/1930_rv.mp4	0.0	410.6518898010254	0.10001397132873535
74	314.89693999290466	fix_pre	0		120	72.0	2.5	/experiments/knapen_AOT/AOT_stimuli/rescaled_final/0764_rv.mp4	0.0	410.7519037723541	1.0002760887145996
74	315.88902521133423	pulse	0	t		72.0	2.5	/experiments/knapen_AOT/AOT_stimuli/rescaled_final/0764_rv.mp4	0.0	411.7439889907837	
74	315.89721608161926	movie	1		246	72.0	2.5	/experiments/knapen_AOT/AOT_stimuli/rescaled_final/0764_rv.mp4	0.0	411.7521798610687	2.5085771083831787
74	317.48984813690186	pulse	1	t		72.0	2.5	/experiments/knapen_AOT/AOT_stimuli/rescaled_final/0764_rv.mp4	0.0	413.3448119163513	
74	318.40579319000244	fix_post	2		12	72.0	2.5	/experiments/knapen_AOT/AOT_stimuli/rescaled_final/0764_rv.mp4	0.0	414.2607569694519	0.1000368595123291
75	318.50583004951477	fix_pre	0		120	73.0	2.5	/experiments/knapen_AOT/AOT_stimuli/rescaled_final/2150_fw.mp4	0.0	414.36079382896423	1.000157117843628
75	319.0896010398865	pulse	0	t		73.0	2.5	/experiments/knapen_AOT/AOT_stimuli/rescaled_final/2150_fw.mp4	0.0	414.94456481933594	
75	319.5059871673584	movie	1		243	73.0	2.5	/experiments/knapen_AOT/AOT_stimuli/rescaled_final/2150_fw.mp4	0.0	415.36095094680786	2.500391960144043
75	320.6854660511017	pulse	1	t		73.0	2.5	/experiments/knapen_AOT/AOT_stimuli/rescaled_final/2150_fw.mp4	0.0	416.54042983055115	
75	322.00637912750244	fix_post	2		12	73.0	2.5	/experiments/knapen_AOT/AOT_stimuli/rescaled_final/2150_fw.mp4	0.0	417.8613429069519	0.09999895095825195
76	322.1063780784607	fix_pre	0		120	74.0	2.5	/experiments/knapen_AOT/AOT_stimuli/rescaled_final/0743_rv.mp4	0.0	417.96134185791016	1.0001709461212158
76	322.2824900150299	pulse	0	t		74.0	2.5	/experiments/knapen_AOT/AOT_stimuli/rescaled_final/0743_rv.mp4	0.0	418.13745379447937	
76	323.1065490245819	movie	1		244	74.0	2.5	/experiments/knapen_AOT/AOT_stimuli/rescaled_final/0743_rv.mp4	0.0	418.9615128040314	2.500319004058838
76	323.88278698921204	pulse	1	t		74.0	2.5	/experiments/knapen_AOT/AOT_stimuli/rescaled_final/0743_rv.mp4	0.0	419.7377507686615	
76	325.4822030067444	pulse	1	t		74.0	2.5	/experiments/knapen_AOT/AOT_stimuli/rescaled_final/0743_rv.mp4	0.0	421.33716678619385	
76	325.60686802864075	fix_post	2		12	74.0	2.5	/experiments/knapen_AOT/AOT_stimuli/rescaled_final/0743_rv.mp4	0.0	421.4618318080902	0.10003209114074707
77	325.7069001197815	fix_pre	0		120	75.0	2.5	/experiments/knapen_AOT/AOT_stimuli/rescaled_final/1499_rv.mp4	0.0	421.56186389923096	1.0001740455627441
77	326.70707416534424	movie	1		243	75.0	2.5	/experiments/knapen_AOT/AOT_stimuli/rescaled_final/1499_rv.mp4	0.0	422.5620379447937	2.4920530319213867
77	327.08227610588074	pulse	1	t		75.0	2.5	/experiments/knapen_AOT/AOT_stimuli/rescaled_final/1499_rv.mp4	0.0	422.9372398853302	
77	328.68275213241577	pulse	1	t		75.0	2.5	/experiments/knapen_AOT/AOT_stimuli/rescaled_final/1499_rv.mp4	0.0	424.53771591186523	
77	329.1991271972656	fix_post	2		12	75.0	2.5	/experiments/knapen_AOT/AOT_stimuli/rescaled_final/1499_rv.mp4	0.0	425.0540909767151	0.0999917984008789
78	329.2991189956665	fix_pre	0		119	76.0	2.5	/experiments/knapen_AOT/AOT_stimuli/rescaled_final/0827_rv.mp4	0.0	425.15408277511597	0.9918060302734375
78	330.2829051017761	pulse	0	t		76.0	2.5	/experiments/knapen_AOT/AOT_stimuli/rescaled_final/0827_rv.mp4	0.0	426.1378688812256	
78	330.29092502593994	movie	1		246	76.0	2.5	/experiments/knapen_AOT/AOT_stimuli/rescaled_final/0827_rv.mp4	0.0	426.1458888053894	2.5087130069732666
78	331.88428020477295	pulse	1	t		76.0	2.5	/experiments/knapen_AOT/AOT_stimuli/rescaled_final/0827_rv.mp4	0.0	427.7392439842224	
78	332.7996380329132	fix_post	2		12	76.0	2.5	/experiments/knapen_AOT/AOT_stimuli/rescaled_final/0827_rv.mp4	0.0	428.65460181236267	0.1000220775604248
79	332.89966011047363	fix_pre	0		120	77.0	2.5	blank	1.0	428.7546238899231	1.0001599788665771
79	333.48323917388916	pulse	0	t		77.0	2.5	blank	1.0	429.3382029533386	
79	333.8998200893402	movie	1		300	77.0	2.5	blank	1.0	429.7547838687897	2.5003340244293213
79	335.0835452079773	pulse	1	t		77.0	2.5	blank	1.0	430.93850898742676	
79	336.40015411376953	fix_post	2		12	77.0	2.5	blank	1.0	432.255117893219	0.10004496574401855
80	336.50019907951355	fix_pre	0		120	78.0	2.5	/experiments/knapen_AOT/AOT_stimuli/rescaled_final/1406_rv.mp4	0.0	432.355162858963	1.0001509189605713
80	336.6838312149048	pulse	0	t		78.0	2.5	/experiments/knapen_AOT/AOT_stimuli/rescaled_final/1406_rv.mp4	0.0	432.53879499435425	
80	337.5003499984741	movie	1		243	78.0	2.5	/experiments/knapen_AOT/AOT_stimuli/rescaled_final/1406_rv.mp4	0.0	433.3553137779236	2.500333070755005
80	338.2840311527252	pulse	1	t		78.0	2.5	/experiments/knapen_AOT/AOT_stimuli/rescaled_final/1406_rv.mp4	0.0	434.1389949321747	
80	339.88500714302063	pulse	1	t		78.0	2.5	/experiments/knapen_AOT/AOT_stimuli/rescaled_final/1406_rv.mp4	0.0	435.7399709224701	
80	340.0006830692291	fix_post	2		12	78.0	2.5	/experiments/knapen_AOT/AOT_stimuli/rescaled_final/1406_rv.mp4	0.0	435.8556468486786	0.10004210472106934
81	340.1007251739502	fix_pre	0		120	79.0	2.5	/experiments/knapen_AOT/AOT_stimuli/rescaled_final/0810_fw.mp4	0.0	435.95568895339966	1.0001649856567383
81	341.10089015960693	movie	1		244	79.0	2.5	/experiments/knapen_AOT/AOT_stimuli/rescaled_final/0810_fw.mp4	0.0	436.9558539390564	2.492004871368408
81	341.4855492115021	pulse	1	t		79.0	2.5	/experiments/knapen_AOT/AOT_stimuli/rescaled_final/0810_fw.mp4	0.0	437.34051299095154	
81	343.08481001853943	pulse	1	t		79.0	2.5	/experiments/knapen_AOT/AOT_stimuli/rescaled_final/0810_fw.mp4	0.0	438.9397737979889	
81	343.59289503097534	fix_post	2		12	79.0	2.5	/experiments/knapen_AOT/AOT_stimuli/rescaled_final/0810_fw.mp4	0.0	439.4478588104248	0.10003018379211426
82	343.69292521476746	fix_pre	0		117	80.0	2.5	/experiments/knapen_AOT/AOT_stimuli/rescaled_final/1907_rv.mp4	0.0	439.5478889942169	1.00016188621521
82	344.6849191188812	pulse	0	t		80.0	2.5	/experiments/knapen_AOT/AOT_stimuli/rescaled_final/1907_rv.mp4	0.0	440.5398828983307	
82	344.69308710098267	movie	1		246	80.0	2.5	/experiments/knapen_AOT/AOT_stimuli/rescaled_final/1907_rv.mp4	0.0	440.54805088043213	2.508665084838867
82	346.2858610153198	pulse	1	t		80.0	2.5	/experiments/knapen_AOT/AOT_stimuli/rescaled_final/1907_rv.mp4	0.0	442.1408247947693	
82	347.20175218582153	fix_post	2		12	80.0	2.5	/experiments/knapen_AOT/AOT_stimuli/rescaled_final/1907_rv.mp4	0.0	443.056715965271	0.10003995895385742
83	347.3017921447754	fix_pre	0		120	81.0	2.5	/experiments/knapen_AOT/AOT_stimuli/rescaled_final/1353_rv.mp4	0.0	443.15675592422485	1.0001599788665771
83	347.8854911327362	pulse	0	t		81.0	2.5	/experiments/knapen_AOT/AOT_stimuli/rescaled_final/1353_rv.mp4	0.0	443.74045491218567	
83	348.30195212364197	movie	1		244	81.0	2.5	/experiments/knapen_AOT/AOT_stimuli/rescaled_final/1353_rv.mp4	0.0	444.15691590309143	2.5003669261932373
83	349.4858570098877	pulse	1	t		81.0	2.5	/experiments/knapen_AOT/AOT_stimuli/rescaled_final/1353_rv.mp4	0.0	445.34082078933716	
83	350.8023190498352	fix_post	2		12	81.0	2.5	/experiments/knapen_AOT/AOT_stimuli/rescaled_final/1353_rv.mp4	0.0	446.65728282928467	0.10009407997131348
84	350.9024131298065	fix_pre	0		120	82.0	2.5	blank	1.0	446.757376909256	1.0000989437103271
84	351.08601808547974	pulse	0	t		82.0	2.5	blank	1.0	446.9409818649292	
84	351.90251207351685	movie	1		300	82.0	2.5	blank	1.0	447.7574758529663	2.5003650188446045
84	352.6860921382904	pulse	1	t		82.0	2.5	blank	1.0	448.54105591773987	
84	354.2863771915436	pulse	1	t		82.0	2.5	blank	1.0	450.14134097099304	
84	354.40287709236145	fix_post	2		12	82.0	2.5	blank	1.0	450.2578408718109	0.09998106956481934
85	354.50285816192627	fix_pre	0		120	83.0	2.5	/experiments/knapen_AOT/AOT_stimuli/rescaled_final/1333_fw.mp4	0.0	450.35782194137573	1.0001578330993652
85	355.50301599502563	movie	1		244	83.0	2.5	/experiments/knapen_AOT/AOT_stimuli/rescaled_final/1333_fw.mp4	0.0	451.3579797744751	2.4920740127563477
85	355.88716101646423	pulse	1	t		83.0	2.5	/experiments/knapen_AOT/AOT_stimuli/rescaled_final/1333_fw.mp4	0.0	451.7421247959137	
85	357.486967086792	pulse	1	t		83.0	2.5	/experiments/knapen_AOT/AOT_stimuli/rescaled_final/1333_fw.mp4	0.0	453.34193086624146	
85	357.995090007782	fix_post	2		12	83.0	2.5	/experiments/knapen_AOT/AOT_stimuli/rescaled_final/1333_fw.mp4	0.0	453.85005378723145	0.09997200965881348
87	358.0950620174408	stim	0		1716					453.95002579689026	14.302258968353271
87	359.08709621429443	pulse	0	t						454.9420599937439	
87	360.6872820854187	pulse	0	t						456.54224586486816	
87	362.2875530719757	pulse	0	t						458.14251685142517	
87	363.88786816596985	pulse	0	t						459.7428319454193	
87	365.4879791736603	pulse	0	t						461.34294295310974	
87	367.08823108673096	pulse	0	t						462.9431948661804	
87	368.68856406211853	pulse	0	t						464.543527841568	
87	370.2887990474701	pulse	0	t						466.14376282691956	
87	371.8815670013428	pulse	0	t						467.73653078079224	
