trial_nr	onset	event_type	phase	response	nr_frames	movie_index	movie_duration	movie_file	blank	onset_abs	duration
0	0.20844101905822754	stim	0		1					42.98908090591431	0.008204936981201172
0	0.20440912246704102	response	0	space						42.98504900932312	
1	0.2166459560394287	stim	0		4688					42.99728584289551	39.08244705200195
1	39.28899097442627	pulse	0	t						82.06963086128235	
1	39.29909300804138	stim	1		1715					82.07973289489746	14.30051302909851
1	40.88131403923035	pulse	1	t						83.66195392608643	
1	42.48154091835022	pulse	1	t						85.2621808052063	
1	44.08171606063843	pulse	1	t						86.8623559474945	
1	45.68201303482056	pulse	1	t						88.46265292167664	
1	47.282248973846436	pulse	1	t						90.06288886070251	
1	48.88245391845703	pulse	1	t						91.66309380531311	
1	50.482659101486206	pulse	1	t						93.26329898834229	
1	52.082907915115356	pulse	1	t						94.86354780197144	
2	53.59960603713989	fix_pre	0		11	0.0	2.5	/experiments/knapen_AOT/AOT_stimuli/rescaled_final/0101_rv.mp4	0.0	96.38024592399597	0.09168601036071777
2	53.683287143707275	pulse	0	t		0.0	2.5	/experiments/knapen_AOT/AOT_stimuli/rescaled_final/0101_rv.mp4	0.0	96.46392703056335	
2	53.69129204750061	movie	1		241	0.0	2.5	/experiments/knapen_AOT/AOT_stimuli/rescaled_final/0101_rv.mp4	0.0	96.47193193435669	2.5089540481567383
2	55.283971071243286	pulse	1	t		0.0	2.5	/experiments/knapen_AOT/AOT_stimuli/rescaled_final/0101_rv.mp4	0.0	98.06461095809937	
2	56.20024609565735	fix_post	2		12	0.0	2.5	/experiments/knapen_AOT/AOT_stimuli/rescaled_final/0101_rv.mp4	0.0	98.98088598251343	0.09979391098022461
3	56.30004000663757	fix_pre	0		120	1.0	2.5	/experiments/knapen_AOT/AOT_stimuli/rescaled_final/0196_fw.mp4	0.0	99.08067989349365	1.0001730918884277
3	56.88367295265198	pulse	0	t		1.0	2.5	/experiments/knapen_AOT/AOT_stimuli/rescaled_final/0196_fw.mp4	0.0	99.66431283950806	
3	57.300213098526	movie	1		242	1.0	2.5	/experiments/knapen_AOT/AOT_stimuli/rescaled_final/0196_fw.mp4	0.0	100.08085298538208	2.5004758834838867
3	58.48394703865051	pulse	1	t		1.0	2.5	/experiments/knapen_AOT/AOT_stimuli/rescaled_final/0196_fw.mp4	0.0	101.26458692550659	
3	59.80068898200989	fix_post	2		12	1.0	2.5	/experiments/knapen_AOT/AOT_stimuli/rescaled_final/0196_fw.mp4	0.0	102.58132886886597	0.09990096092224121
4	59.90058994293213	fix_pre	0		120	2.0	2.5	/experiments/knapen_AOT/AOT_stimuli/rescaled_final/0178_rv.mp4	0.0	102.68122982978821	1.0001201629638672
4	60.08423709869385	pulse	0	t		2.0	2.5	/experiments/knapen_AOT/AOT_stimuli/rescaled_final/0178_rv.mp4	0.0	102.86487698554993	
4	60.900710105895996	movie	1		243	2.0	2.5	/experiments/knapen_AOT/AOT_stimuli/rescaled_final/0178_rv.mp4	0.0	103.68134999275208	2.5004160404205322
4	61.684406995773315	pulse	1	t		2.0	2.5	/experiments/knapen_AOT/AOT_stimuli/rescaled_final/0178_rv.mp4	0.0	104.4650468826294	
4	63.28469395637512	pulse	1	t		2.0	2.5	/experiments/knapen_AOT/AOT_stimuli/rescaled_final/0178_rv.mp4	0.0	106.0653338432312	
4	63.40112614631653	fix_post	2		12	2.0	2.5	/experiments/knapen_AOT/AOT_stimuli/rescaled_final/0178_rv.mp4	0.0	106.18176603317261	0.10004281997680664
5	63.501168966293335	fix_pre	0		120	3.0	2.5	/experiments/knapen_AOT/AOT_stimuli/rescaled_final/0627_fw.mp4	0.0	106.28180885314941	1.0000710487365723
5	64.50124001502991	movie	1		242	3.0	2.5	/experiments/knapen_AOT/AOT_stimuli/rescaled_final/0627_fw.mp4	0.0	107.28187990188599	2.492095947265625
5	64.88556504249573	pulse	1	t		3.0	2.5	/experiments/knapen_AOT/AOT_stimuli/rescaled_final/0627_fw.mp4	0.0	107.6662049293518	
5	66.47774600982666	pulse	1	t		3.0	2.5	/experiments/knapen_AOT/AOT_stimuli/rescaled_final/0627_fw.mp4	0.0	109.25838589668274	
5	66.99333596229553	fix_post	2		12	3.0	2.5	/experiments/knapen_AOT/AOT_stimuli/rescaled_final/0627_fw.mp4	0.0	109.77397584915161	0.10004115104675293
6	67.09337711334229	fix_pre	0		120	4.0	2.5	/experiments/knapen_AOT/AOT_stimuli/rescaled_final/1848_rv.mp4	0.0	109.87401700019836	1.0000858306884766
6	68.07777810096741	pulse	0	t		4.0	2.5	/experiments/knapen_AOT/AOT_stimuli/rescaled_final/1848_rv.mp4	0.0	110.85841798782349	
6	68.09346294403076	movie	1		243	4.0	2.5	/experiments/knapen_AOT/AOT_stimuli/rescaled_final/1848_rv.mp4	0.0	110.87410283088684	2.5087339878082275
6	69.68754410743713	pulse	1	t		4.0	2.5	/experiments/knapen_AOT/AOT_stimuli/rescaled_final/1848_rv.mp4	0.0	112.46818399429321	
6	70.60219693183899	fix_post	2		12	4.0	2.5	/experiments/knapen_AOT/AOT_stimuli/rescaled_final/1848_rv.mp4	0.0	113.38283681869507	0.10000920295715332
7	70.70220613479614	fix_pre	0		120	5.0	2.5	/experiments/knapen_AOT/AOT_stimuli/rescaled_final/1085_rv.mp4	0.0	113.48284602165222	1.000119924545288
7	71.27827405929565	pulse	0	t		5.0	2.5	/experiments/knapen_AOT/AOT_stimuli/rescaled_final/1085_rv.mp4	0.0	114.05891394615173	
7	71.70232605934143	movie	1		241	5.0	2.5	/experiments/knapen_AOT/AOT_stimuli/rescaled_final/1085_rv.mp4	0.0	114.48296594619751	2.509903907775879
7	72.87848711013794	pulse	1	t		5.0	2.5	/experiments/knapen_AOT/AOT_stimuli/rescaled_final/1085_rv.mp4	0.0	115.65912699699402	
7	74.21222996711731	fix_post	2		11	5.0	2.5	/experiments/knapen_AOT/AOT_stimuli/rescaled_final/1085_rv.mp4	0.0	116.99286985397339	0.09053516387939453
8	74.3027651309967	fix_pre	0		120	6.0	2.5	blank	1.0	117.08340501785278	1.0001368522644043
8	74.47789001464844	pulse	0	t		6.0	2.5	blank	1.0	117.25852990150452	
8	75.30290198326111	movie	1		300	6.0	2.5	blank	1.0	118.08354187011719	2.5003881454467773
8	76.0781991481781	pulse	1	t		6.0	2.5	blank	1.0	118.85883903503418	
8	77.67847013473511	pulse	1	t		6.0	2.5	blank	1.0	120.45911002159119	
8	77.80329012870789	fix_post	2		12	6.0	2.5	blank	1.0	120.58393001556396	0.10001778602600098
9	77.90330791473389	fix_pre	0		120	7.0	2.5	/experiments/knapen_AOT/AOT_stimuli/rescaled_final/0527_fw.mp4	0.0	120.68394780158997	1.0000901222229004
9	78.90339803695679	movie	1		241	7.0	2.5	/experiments/knapen_AOT/AOT_stimuli/rescaled_final/0527_fw.mp4	0.0	121.68403792381287	2.4921250343322754
9	79.27867102622986	pulse	1	t		7.0	2.5	/experiments/knapen_AOT/AOT_stimuli/rescaled_final/0527_fw.mp4	0.0	122.05931091308594	
9	80.87895107269287	pulse	1	t		7.0	2.5	/experiments/knapen_AOT/AOT_stimuli/rescaled_final/0527_fw.mp4	0.0	123.65959095954895	
9	81.39552307128906	fix_post	2		12	7.0	2.5	/experiments/knapen_AOT/AOT_stimuli/rescaled_final/0527_fw.mp4	0.0	124.17616295814514	0.09995889663696289
10	81.49548196792603	fix_pre	0		119	8.0	2.5	/experiments/knapen_AOT/AOT_stimuli/rescaled_final/1526_fw.mp4	0.0	124.2761218547821	0.9919099807739258
10	82.47910594940186	pulse	0	t		8.0	2.5	/experiments/knapen_AOT/AOT_stimuli/rescaled_final/1526_fw.mp4	0.0	125.25974583625793	
10	82.48739194869995	movie	1		245	8.0	2.5	/experiments/knapen_AOT/AOT_stimuli/rescaled_final/1526_fw.mp4	0.0	125.26803183555603	2.508613109588623
10	84.0800769329071	pulse	1	t		8.0	2.5	/experiments/knapen_AOT/AOT_stimuli/rescaled_final/1526_fw.mp4	0.0	126.86071681976318	
10	84.99600505828857	fix_post	2		12	8.0	2.5	/experiments/knapen_AOT/AOT_stimuli/rescaled_final/1526_fw.mp4	0.0	127.77664494514465	0.10003089904785156
11	85.09603595733643	fix_pre	0		120	9.0	2.5	/experiments/knapen_AOT/AOT_stimuli/rescaled_final/1216_rv.mp4	0.0	127.8766758441925	1.0001800060272217
11	85.67967104911804	pulse	0	t		9.0	2.5	/experiments/knapen_AOT/AOT_stimuli/rescaled_final/1216_rv.mp4	0.0	128.46031093597412	
11	86.09621596336365	movie	1		242	9.0	2.5	/experiments/knapen_AOT/AOT_stimuli/rescaled_final/1216_rv.mp4	0.0	128.87685585021973	2.50046706199646
11	87.27991199493408	pulse	1	t		9.0	2.5	/experiments/knapen_AOT/AOT_stimuli/rescaled_final/1216_rv.mp4	0.0	130.06055188179016	
11	88.59668302536011	fix_post	2		12	9.0	2.5	/experiments/knapen_AOT/AOT_stimuli/rescaled_final/1216_rv.mp4	0.0	131.3773229122162	0.09986400604248047
12	88.69654703140259	fix_pre	0		120	10.0	2.5	/experiments/knapen_AOT/AOT_stimuli/rescaled_final/0483_rv.mp4	0.0	131.47718691825867	1.000128984451294
12	88.88016104698181	pulse	0	t		10.0	2.5	/experiments/knapen_AOT/AOT_stimuli/rescaled_final/0483_rv.mp4	0.0	131.6608009338379	
12	89.69667601585388	movie	1		242	10.0	2.5	/experiments/knapen_AOT/AOT_stimuli/rescaled_final/0483_rv.mp4	0.0	132.47731590270996	2.4921929836273193
12	90.48033404350281	pulse	1	t		10.0	2.5	/experiments/knapen_AOT/AOT_stimuli/rescaled_final/0483_rv.mp4	0.0	133.2609739303589	
12	92.08070397377014	pulse	1	t		10.0	2.5	/experiments/knapen_AOT/AOT_stimuli/rescaled_final/0483_rv.mp4	0.0	134.86134386062622	
12	92.1888689994812	fix_post	2		13	10.0	2.5	/experiments/knapen_AOT/AOT_stimuli/rescaled_final/0483_rv.mp4	0.0	134.96950888633728	0.10819411277770996
13	92.29706311225891	fix_pre	0		120	11.0	2.5	/experiments/knapen_AOT/AOT_stimuli/rescaled_final/1015_fw.mp4	0.0	135.077702999115	1.0001959800720215
13	93.29725909233093	movie	1		242	11.0	2.5	/experiments/knapen_AOT/AOT_stimuli/rescaled_final/1015_fw.mp4	0.0	136.077898979187	2.4922239780426025
13	93.682137966156	pulse	1	t		11.0	2.5	/experiments/knapen_AOT/AOT_stimuli/rescaled_final/1015_fw.mp4	0.0	136.46277785301208	
13	95.2811119556427	pulse	1	t		11.0	2.5	/experiments/knapen_AOT/AOT_stimuli/rescaled_final/1015_fw.mp4	0.0	138.06175184249878	
13	95.78948307037354	fix_post	2		12	11.0	2.5	/experiments/knapen_AOT/AOT_stimuli/rescaled_final/1015_fw.mp4	0.0	138.57012295722961	0.0998380184173584
14	95.8893210887909	fix_pre	0		120	12.0	2.5	/experiments/knapen_AOT/AOT_stimuli/rescaled_final/0802_fw.mp4	0.0	138.66996097564697	1.0000898838043213
14	96.88131904602051	pulse	0	t		12.0	2.5	/experiments/knapen_AOT/AOT_stimuli/rescaled_final/0802_fw.mp4	0.0	139.6619589328766	
14	96.88941097259521	movie	1		244	12.0	2.5	/experiments/knapen_AOT/AOT_stimuli/rescaled_final/0802_fw.mp4	0.0	139.6700508594513	2.508794069290161
14	98.48280811309814	pulse	1	t		12.0	2.5	/experiments/knapen_AOT/AOT_stimuli/rescaled_final/0802_fw.mp4	0.0	141.26344799995422	
14	99.39820504188538	fix_post	2		12	12.0	2.5	/experiments/knapen_AOT/AOT_stimuli/rescaled_final/0802_fw.mp4	0.0	142.17884492874146	0.09996604919433594
15	99.49817109107971	fix_pre	0		120	13.0	2.5	blank	1.0	142.2788109779358	1.0002210140228271
15	100.08172607421875	pulse	0	t		13.0	2.5	blank	1.0	142.86236596107483	
15	100.49839210510254	movie	1		300	13.0	2.5	blank	1.0	143.27903199195862	2.500303030014038
15	101.68206095695496	pulse	1	t		13.0	2.5	blank	1.0	144.46270084381104	
15	102.99869513511658	fix_post	2		12	13.0	2.5	blank	1.0	145.77933502197266	0.09998583793640137
16	103.09868097305298	fix_pre	0		120	14.0	2.5	/experiments/knapen_AOT/AOT_stimuli/rescaled_final/1104_rv.mp4	0.0	145.87932085990906	1.000175952911377
16	103.28229999542236	pulse	0	t		14.0	2.5	/experiments/knapen_AOT/AOT_stimuli/rescaled_final/1104_rv.mp4	0.0	146.06293988227844	
16	104.09885692596436	movie	1		242	14.0	2.5	/experiments/knapen_AOT/AOT_stimuli/rescaled_final/1104_rv.mp4	0.0	146.87949681282043	2.5005531311035156
16	104.8824999332428	pulse	1	t		14.0	2.5	/experiments/knapen_AOT/AOT_stimuli/rescaled_final/1104_rv.mp4	0.0	147.66313982009888	
16	106.48385906219482	pulse	1	t		14.0	2.5	/experiments/knapen_AOT/AOT_stimuli/rescaled_final/1104_rv.mp4	0.0	149.2644989490509	
16	106.59941005706787	fix_post	2		12	14.0	2.5	/experiments/knapen_AOT/AOT_stimuli/rescaled_final/1104_rv.mp4	0.0	149.38004994392395	0.09982490539550781
17	106.69923496246338	fix_pre	0		120	15.0	2.5	/experiments/knapen_AOT/AOT_stimuli/rescaled_final/0604_fw.mp4	0.0	149.47987484931946	1.000171184539795
17	107.69940614700317	movie	1		242	15.0	2.5	/experiments/knapen_AOT/AOT_stimuli/rescaled_final/0604_fw.mp4	0.0	150.48004603385925	2.4920108318328857
17	108.08345413208008	pulse	1	t		15.0	2.5	/experiments/knapen_AOT/AOT_stimuli/rescaled_final/0604_fw.mp4	0.0	150.86409401893616	
17	109.68320107460022	pulse	1	t		15.0	2.5	/experiments/knapen_AOT/AOT_stimuli/rescaled_final/0604_fw.mp4	0.0	152.4638409614563	
17	110.19141697883606	fix_post	2		12	15.0	2.5	/experiments/knapen_AOT/AOT_stimuli/rescaled_final/0604_fw.mp4	0.0	152.97205686569214	0.10002398490905762
18	110.29144096374512	fix_pre	0		120	16.0	2.5	/experiments/knapen_AOT/AOT_stimuli/rescaled_final/1456_rv.mp4	0.0	153.0720808506012	1.0001111030578613
18	111.28348994255066	pulse	0	t		16.0	2.5	/experiments/knapen_AOT/AOT_stimuli/rescaled_final/1456_rv.mp4	0.0	154.06412982940674	
18	111.29155206680298	movie	1		243	16.0	2.5	/experiments/knapen_AOT/AOT_stimuli/rescaled_final/1456_rv.mp4	0.0	154.07219195365906	2.5088398456573486
18	112.88496208190918	pulse	1	t		16.0	2.5	/experiments/knapen_AOT/AOT_stimuli/rescaled_final/1456_rv.mp4	0.0	155.66560196876526	
18	113.80039191246033	fix_post	2		12	16.0	2.5	/experiments/knapen_AOT/AOT_stimuli/rescaled_final/1456_rv.mp4	0.0	156.5810317993164	0.09996509552001953
19	113.90035700798035	fix_pre	0		120	17.0	2.5	/experiments/knapen_AOT/AOT_stimuli/rescaled_final/1517_rv.mp4	0.0	156.68099689483643	1.0000989437103271
19	114.48401403427124	pulse	0	t		17.0	2.5	/experiments/knapen_AOT/AOT_stimuli/rescaled_final/1517_rv.mp4	0.0	157.26465392112732	
19	114.90045595169067	movie	1		243	17.0	2.5	/experiments/knapen_AOT/AOT_stimuli/rescaled_final/1517_rv.mp4	0.0	157.68109583854675	2.5005900859832764
19	116.084223985672	pulse	1	t		17.0	2.5	/experiments/knapen_AOT/AOT_stimuli/rescaled_final/1517_rv.mp4	0.0	158.86486387252808	
19	117.40104603767395	fix_post	2		12	17.0	2.5	/experiments/knapen_AOT/AOT_stimuli/rescaled_final/1517_rv.mp4	0.0	160.18168592453003	0.09980297088623047
20	117.50084900856018	fix_pre	0		120	18.0	2.5	/experiments/knapen_AOT/AOT_stimuli/rescaled_final/1075_fw.mp4	0.0	160.28148889541626	1.0001449584960938
20	117.68443894386292	pulse	0	t		18.0	2.5	/experiments/knapen_AOT/AOT_stimuli/rescaled_final/1075_fw.mp4	0.0	160.465078830719	
20	118.50099396705627	movie	1		242	18.0	2.5	/experiments/knapen_AOT/AOT_stimuli/rescaled_final/1075_fw.mp4	0.0	161.28163385391235	2.5005550384521484
20	119.28461813926697	pulse	1	t		18.0	2.5	/experiments/knapen_AOT/AOT_stimuli/rescaled_final/1075_fw.mp4	0.0	162.06525802612305	
20	120.88552498817444	pulse	1	t		18.0	2.5	/experiments/knapen_AOT/AOT_stimuli/rescaled_final/1075_fw.mp4	0.0	163.66616487503052	
20	121.00154900550842	fix_post	2		12	18.0	2.5	/experiments/knapen_AOT/AOT_stimuli/rescaled_final/1075_fw.mp4	0.0	163.7821888923645	0.09985113143920898
21	121.10140013694763	fix_pre	0		120	19.0	2.5	/experiments/knapen_AOT/AOT_stimuli/rescaled_final/1728_fw.mp4	0.0	163.8820400238037	1.0001559257507324
21	122.10155606269836	movie	1		241	19.0	2.5	/experiments/knapen_AOT/AOT_stimuli/rescaled_final/1728_fw.mp4	0.0	164.88219594955444	2.4921040534973145
21	122.48590397834778	pulse	1	t		19.0	2.5	/experiments/knapen_AOT/AOT_stimuli/rescaled_final/1728_fw.mp4	0.0	165.26654386520386	
21	124.07822895050049	pulse	1	t		19.0	2.5	/experiments/knapen_AOT/AOT_stimuli/rescaled_final/1728_fw.mp4	0.0	166.85886883735657	
21	124.59366011619568	fix_post	2		12	19.0	2.5	/experiments/knapen_AOT/AOT_stimuli/rescaled_final/1728_fw.mp4	0.0	167.37430000305176	0.0999138355255127
22	124.69357395172119	fix_pre	0		120	20.0	2.5	blank	1.0	167.47421383857727	1.0001499652862549
22	125.68568396568298	pulse	0	t		20.0	2.5	blank	1.0	168.46632385253906	
22	125.69372391700745	movie	1		301	20.0	2.5	blank	1.0	168.47436380386353	2.5087361335754395
22	127.27845501899719	pulse	1	t		20.0	2.5	blank	1.0	170.05909490585327	
22	128.20246005058289	fix_post	2		12	20.0	2.5	blank	1.0	170.98309993743896	0.10002708435058594
23	128.30248713493347	fix_pre	0		120	21.0	2.5	/experiments/knapen_AOT/AOT_stimuli/rescaled_final/1241_fw.mp4	0.0	171.08312702178955	1.0000958442687988
23	128.8784830570221	pulse	0	t		21.0	2.5	/experiments/knapen_AOT/AOT_stimuli/rescaled_final/1241_fw.mp4	0.0	171.65912294387817	
23	129.30258297920227	movie	1		243	21.0	2.5	/experiments/knapen_AOT/AOT_stimuli/rescaled_final/1241_fw.mp4	0.0	172.08322286605835	2.500620126724243
23	130.47850394248962	pulse	1	t		21.0	2.5	/experiments/knapen_AOT/AOT_stimuli/rescaled_final/1241_fw.mp4	0.0	173.2591438293457	
23	131.8032031059265	fix_post	2		12	21.0	2.5	/experiments/knapen_AOT/AOT_stimuli/rescaled_final/1241_fw.mp4	0.0	174.5838429927826	0.09982085227966309
24	131.90302395820618	fix_pre	0		120	22.0	2.5	/experiments/knapen_AOT/AOT_stimuli/rescaled_final/1752_rv.mp4	0.0	174.68366384506226	1.0001411437988281
24	132.07900500297546	pulse	0	t		22.0	2.5	/experiments/knapen_AOT/AOT_stimuli/rescaled_final/1752_rv.mp4	0.0	174.85964488983154	
24	132.903165102005	movie	1		243	22.0	2.5	/experiments/knapen_AOT/AOT_stimuli/rescaled_final/1752_rv.mp4	0.0	175.68380498886108	2.5003769397735596
24	133.67852210998535	pulse	1	t		22.0	2.5	/experiments/knapen_AOT/AOT_stimuli/rescaled_final/1752_rv.mp4	0.0	176.45916199684143	
24	135.27863597869873	pulse	1	t		22.0	2.5	/experiments/knapen_AOT/AOT_stimuli/rescaled_final/1752_rv.mp4	0.0	178.0592758655548	
24	135.40354204177856	fix_post	2		12	22.0	2.5	/experiments/knapen_AOT/AOT_stimuli/rescaled_final/1752_rv.mp4	0.0	178.18418192863464	0.09997701644897461
25	135.50351905822754	fix_pre	0		120	23.0	2.5	/experiments/knapen_AOT/AOT_stimuli/rescaled_final/0985_fw.mp4	0.0	178.28415894508362	1.0001859664916992
25	136.50370502471924	movie	1		239	23.0	2.5	/experiments/knapen_AOT/AOT_stimuli/rescaled_final/0985_fw.mp4	0.0	179.28434491157532	2.492187023162842
25	136.87889504432678	pulse	1	t		23.0	2.5	/experiments/knapen_AOT/AOT_stimuli/rescaled_final/0985_fw.mp4	0.0	179.65953493118286	
25	138.47932314872742	pulse	1	t		23.0	2.5	/experiments/knapen_AOT/AOT_stimuli/rescaled_final/0985_fw.mp4	0.0	181.2599630355835	
25	138.99589204788208	fix_post	2		12	23.0	2.5	/experiments/knapen_AOT/AOT_stimuli/rescaled_final/0985_fw.mp4	0.0	181.77653193473816	0.09991598129272461
26	139.0958080291748	fix_pre	0		119	24.0	2.5	/experiments/knapen_AOT/AOT_stimuli/rescaled_final/1949_rv.mp4	0.0	181.87644791603088	0.9917171001434326
26	140.07937693595886	pulse	0	t		24.0	2.5	/experiments/knapen_AOT/AOT_stimuli/rescaled_final/1949_rv.mp4	0.0	182.86001682281494	
26	140.08752512931824	movie	1		244	24.0	2.5	/experiments/knapen_AOT/AOT_stimuli/rescaled_final/1949_rv.mp4	0.0	182.86816501617432	2.5087947845458984
26	141.68092799186707	pulse	1	t		24.0	2.5	/experiments/knapen_AOT/AOT_stimuli/rescaled_final/1949_rv.mp4	0.0	184.46156787872314	
26	142.59631991386414	fix_post	2		12	24.0	2.5	/experiments/knapen_AOT/AOT_stimuli/rescaled_final/1949_rv.mp4	0.0	185.37695980072021	0.09998202323913574
27	142.69630193710327	fix_pre	0		120	25.0	2.5	/experiments/knapen_AOT/AOT_stimuli/rescaled_final/1406_fw.mp4	0.0	185.47694182395935	1.0001311302185059
27	143.2798490524292	pulse	0	t		25.0	2.5	/experiments/knapen_AOT/AOT_stimuli/rescaled_final/1406_fw.mp4	0.0	186.06048893928528	
27	143.69643306732178	movie	1		243	25.0	2.5	/experiments/knapen_AOT/AOT_stimuli/rescaled_final/1406_fw.mp4	0.0	186.47707295417786	2.500393867492676
27	144.8802080154419	pulse	1	t		25.0	2.5	/experiments/knapen_AOT/AOT_stimuli/rescaled_final/1406_fw.mp4	0.0	187.66084790229797	
27	146.19682693481445	fix_post	2		12	25.0	2.5	/experiments/knapen_AOT/AOT_stimuli/rescaled_final/1406_fw.mp4	0.0	188.97746682167053	0.1000211238861084
28	146.29684805870056	fix_pre	0		120	26.0	2.5	/experiments/knapen_AOT/AOT_stimuli/rescaled_final/0891_fw.mp4	0.0	189.07748794555664	1.000195026397705
28	146.4804129600525	pulse	0	t		26.0	2.5	/experiments/knapen_AOT/AOT_stimuli/rescaled_final/0891_fw.mp4	0.0	189.26105284690857	
28	147.29704308509827	movie	1		242	26.0	2.5	/experiments/knapen_AOT/AOT_stimuli/rescaled_final/0891_fw.mp4	0.0	190.07768297195435	2.5005040168762207
28	148.08070302009583	pulse	1	t		26.0	2.5	/experiments/knapen_AOT/AOT_stimuli/rescaled_final/0891_fw.mp4	0.0	190.8613429069519	
28	149.68084907531738	pulse	1	t		26.0	2.5	/experiments/knapen_AOT/AOT_stimuli/rescaled_final/0891_fw.mp4	0.0	192.46148896217346	
28	149.7975471019745	fix_post	2		12	26.0	2.5	/experiments/knapen_AOT/AOT_stimuli/rescaled_final/0891_fw.mp4	0.0	192.57818698883057	0.09981894493103027
29	149.89736604690552	fix_pre	0		120	27.0	2.5	/experiments/knapen_AOT/AOT_stimuli/rescaled_final/1902_rv.mp4	0.0	192.6780059337616	1.0001320838928223
29	150.89749813079834	movie	1		242	27.0	2.5	/experiments/knapen_AOT/AOT_stimuli/rescaled_final/1902_rv.mp4	0.0	193.67813801765442	2.492141008377075
29	151.2817521095276	pulse	1	t		27.0	2.5	/experiments/knapen_AOT/AOT_stimuli/rescaled_final/1902_rv.mp4	0.0	194.06239199638367	
29	152.88139605522156	pulse	1	t		27.0	2.5	/experiments/knapen_AOT/AOT_stimuli/rescaled_final/1902_rv.mp4	0.0	195.66203594207764	
29	153.38963913917542	fix_post	2		12	27.0	2.5	/experiments/knapen_AOT/AOT_stimuli/rescaled_final/1902_rv.mp4	0.0	196.1702790260315	0.0999000072479248
30	153.48953914642334	fix_pre	0		120	28.0	2.5	blank	1.0	196.27017903327942	1.0001788139343262
30	154.48160314559937	pulse	0	t		28.0	2.5	blank	1.0	197.26224303245544	
30	154.48971796035767	movie	1		301	28.0	2.5	blank	1.0	197.27035784721375	2.508713960647583
30	156.08184695243835	pulse	1	t		28.0	2.5	blank	1.0	198.86248683929443	
30	156.99843192100525	fix_post	2		12	28.0	2.5	blank	1.0	199.77907180786133	0.09998917579650879
31	157.09842109680176	fix_pre	0		120	29.0	2.5	/experiments/knapen_AOT/AOT_stimuli/rescaled_final/0371_fw.mp4	0.0	199.87906098365784	1.0001459121704102
31	157.68206596374512	pulse	0	t		29.0	2.5	/experiments/knapen_AOT/AOT_stimuli/rescaled_final/0371_fw.mp4	0.0	200.4627058506012	
31	158.09856700897217	movie	1		243	29.0	2.5	/experiments/knapen_AOT/AOT_stimuli/rescaled_final/0371_fw.mp4	0.0	200.87920689582825	2.5004050731658936
31	159.2823760509491	pulse	1	t		29.0	2.5	/experiments/knapen_AOT/AOT_stimuli/rescaled_final/0371_fw.mp4	0.0	202.06301593780518	
31	160.59897208213806	fix_post	2		12	29.0	2.5	/experiments/knapen_AOT/AOT_stimuli/rescaled_final/0371_fw.mp4	0.0	203.37961196899414	0.10005497932434082
32	160.6990270614624	fix_pre	0		120	30.0	2.5	/experiments/knapen_AOT/AOT_stimuli/rescaled_final/1148_rv.mp4	0.0	203.47966694831848	1.0001158714294434
32	160.88256192207336	pulse	0	t		30.0	2.5	/experiments/knapen_AOT/AOT_stimuli/rescaled_final/1148_rv.mp4	0.0	203.66320180892944	
32	161.69914293289185	movie	1		242	30.0	2.5	/experiments/knapen_AOT/AOT_stimuli/rescaled_final/1148_rv.mp4	0.0	204.47978281974792	2.5005240440368652
32	162.48275709152222	pulse	1	t		30.0	2.5	/experiments/knapen_AOT/AOT_stimuli/rescaled_final/1148_rv.mp4	0.0	205.2633969783783	
32	164.08301496505737	pulse	1	t		30.0	2.5	/experiments/knapen_AOT/AOT_stimuli/rescaled_final/1148_rv.mp4	0.0	206.86365485191345	
32	164.1996669769287	fix_post	2		12	30.0	2.5	/experiments/knapen_AOT/AOT_stimuli/rescaled_final/1148_rv.mp4	0.0	206.9803068637848	0.09984707832336426
33	164.29951405525208	fix_pre	0		120	31.0	2.5	/experiments/knapen_AOT/AOT_stimuli/rescaled_final/0483_fw.mp4	0.0	207.08015394210815	1.0001308917999268
33	165.299644947052	movie	1		242	31.0	2.5	/experiments/knapen_AOT/AOT_stimuli/rescaled_final/0483_fw.mp4	0.0	208.08028483390808	2.492138147354126
33	165.68423104286194	pulse	1	t		31.0	2.5	/experiments/knapen_AOT/AOT_stimuli/rescaled_final/0483_fw.mp4	0.0	208.46487092971802	
33	167.28350496292114	pulse	1	t		31.0	2.5	/experiments/knapen_AOT/AOT_stimuli/rescaled_final/0483_fw.mp4	0.0	210.06414484977722	
33	167.79178309440613	fix_post	2		12	31.0	2.5	/experiments/knapen_AOT/AOT_stimuli/rescaled_final/0483_fw.mp4	0.0	210.5724229812622	0.09994983673095703
34	167.89173293113708	fix_pre	0		120	32.0	2.5	/experiments/knapen_AOT/AOT_stimuli/rescaled_final/2056_rv.mp4	0.0	210.67237281799316	1.0001411437988281
34	168.88374710083008	pulse	0	t		32.0	2.5	/experiments/knapen_AOT/AOT_stimuli/rescaled_final/2056_rv.mp4	0.0	211.66438698768616	
34	168.8918740749359	movie	1		244	32.0	2.5	/experiments/knapen_AOT/AOT_stimuli/rescaled_final/2056_rv.mp4	0.0	211.672513961792	2.5086939334869385
34	170.48534202575684	pulse	1	t		32.0	2.5	/experiments/knapen_AOT/AOT_stimuli/rescaled_final/2056_rv.mp4	0.0	213.26598191261292	
34	171.40056800842285	fix_post	2		12	32.0	2.5	/experiments/knapen_AOT/AOT_stimuli/rescaled_final/2056_rv.mp4	0.0	214.18120789527893	0.10004997253417969
35	171.50061798095703	fix_pre	0		120	33.0	2.5	/experiments/knapen_AOT/AOT_stimuli/rescaled_final/1752_fw.mp4	0.0	214.2812578678131	1.0001130104064941
35	172.08419799804688	pulse	0	t		33.0	2.5	/experiments/knapen_AOT/AOT_stimuli/rescaled_final/1752_fw.mp4	0.0	214.86483788490295	
35	172.50073099136353	movie	1		243	33.0	2.5	/experiments/knapen_AOT/AOT_stimuli/rescaled_final/1752_fw.mp4	0.0	215.2813708782196	2.5003881454467773
35	173.684504032135	pulse	1	t		33.0	2.5	/experiments/knapen_AOT/AOT_stimuli/rescaled_final/1752_fw.mp4	0.0	216.4651439189911	
35	175.0011191368103	fix_post	2		12	33.0	2.5	/experiments/knapen_AOT/AOT_stimuli/rescaled_final/1752_fw.mp4	0.0	217.78175902366638	0.09999895095825195
36	175.10111808776855	fix_pre	0		120	34.0	2.5	/experiments/knapen_AOT/AOT_stimuli/rescaled_final/1637_fw.mp4	0.0	217.88175797462463	1.000152826309204
36	175.28475713729858	pulse	0	t		34.0	2.5	/experiments/knapen_AOT/AOT_stimuli/rescaled_final/1637_fw.mp4	0.0	218.06539702415466	
36	176.10127091407776	movie	1		243	34.0	2.5	/experiments/knapen_AOT/AOT_stimuli/rescaled_final/1637_fw.mp4	0.0	218.88191080093384	2.500378131866455
36	176.88495111465454	pulse	1	t		34.0	2.5	/experiments/knapen_AOT/AOT_stimuli/rescaled_final/1637_fw.mp4	0.0	219.66559100151062	
36	178.48521304130554	pulse	1	t		34.0	2.5	/experiments/knapen_AOT/AOT_stimuli/rescaled_final/1637_fw.mp4	0.0	221.26585292816162	
36	178.6016490459442	fix_post	2		12	34.0	2.5	/experiments/knapen_AOT/AOT_stimuli/rescaled_final/1637_fw.mp4	0.0	221.3822889328003	0.10001397132873535
37	178.70166301727295	fix_pre	0		120	35.0	2.5	blank	1.0	221.48230290412903	1.0001530647277832
37	179.70181608200073	movie	1		299	35.0	2.5	blank	1.0	222.4824559688568	2.492008924484253
37	180.078027009964	pulse	1	t		35.0	2.5	blank	1.0	222.85866689682007	
37	181.67805814743042	pulse	1	t		35.0	2.5	blank	1.0	224.4586980342865	
37	182.19382500648499	fix_post	2		12	35.0	2.5	blank	1.0	224.97446489334106	0.10007810592651367
38	182.2939031124115	fix_pre	0		120	36.0	2.5	/experiments/knapen_AOT/AOT_stimuli/rescaled_final/1724_rv.mp4	0.0	225.07454299926758	1.000126838684082
38	183.27842211723328	pulse	0	t		36.0	2.5	/experiments/knapen_AOT/AOT_stimuli/rescaled_final/1724_rv.mp4	0.0	226.05906200408936	
38	183.29402995109558	movie	1		244	36.0	2.5	/experiments/knapen_AOT/AOT_stimuli/rescaled_final/1724_rv.mp4	0.0	226.07466983795166	2.5256731510162354
38	184.8866901397705	pulse	1	t		36.0	2.5	/experiments/knapen_AOT/AOT_stimuli/rescaled_final/1724_rv.mp4	0.0	227.6673300266266	
38	185.81970310211182	fix_post	2		10	36.0	2.5	/experiments/knapen_AOT/AOT_stimuli/rescaled_final/1724_rv.mp4	0.0	228.6003429889679	0.08305597305297852
39	185.9027590751648	fix_pre	0		120	37.0	2.5	/experiments/knapen_AOT/AOT_stimuli/rescaled_final/0072_fw.mp4	0.0	228.68339896202087	1.0001580715179443
39	186.4781630039215	pulse	0	t		37.0	2.5	/experiments/knapen_AOT/AOT_stimuli/rescaled_final/0072_fw.mp4	0.0	229.2588028907776	
39	186.90291714668274	movie	1		243	37.0	2.5	/experiments/knapen_AOT/AOT_stimuli/rescaled_final/0072_fw.mp4	0.0	229.68355703353882	2.5003199577331543
39	188.07951307296753	pulse	1	t		37.0	2.5	/experiments/knapen_AOT/AOT_stimuli/rescaled_final/0072_fw.mp4	0.0	230.8601529598236	
39	189.4032371044159	fix_post	2		12	37.0	2.5	/experiments/knapen_AOT/AOT_stimuli/rescaled_final/0072_fw.mp4	0.0	232.18387699127197	0.10005497932434082
40	189.50329208374023	fix_pre	0		120	38.0	2.5	/experiments/knapen_AOT/AOT_stimuli/rescaled_final/0312_rv.mp4	0.0	232.2839319705963	1.0001518726348877
40	189.67843103408813	pulse	0	t		38.0	2.5	/experiments/knapen_AOT/AOT_stimuli/rescaled_final/0312_rv.mp4	0.0	232.4590709209442	
40	190.50344395637512	movie	1		242	38.0	2.5	/experiments/knapen_AOT/AOT_stimuli/rescaled_final/0312_rv.mp4	0.0	233.2840838432312	2.5005459785461426
40	191.27870893478394	pulse	1	t		38.0	2.5	/experiments/knapen_AOT/AOT_stimuli/rescaled_final/0312_rv.mp4	0.0	234.05934882164001	
40	192.8789939880371	pulse	1	t		38.0	2.5	/experiments/knapen_AOT/AOT_stimuli/rescaled_final/0312_rv.mp4	0.0	235.6596338748932	
40	193.00398993492126	fix_post	2		11	38.0	2.5	/experiments/knapen_AOT/AOT_stimuli/rescaled_final/0312_rv.mp4	0.0	235.78462982177734	0.09156298637390137
41	193.09555292129517	fix_pre	0		120	39.0	2.5	/experiments/knapen_AOT/AOT_stimuli/rescaled_final/1974_rv.mp4	0.0	235.87619280815125	1.0001261234283447
41	194.0956790447235	movie	1		242	39.0	2.5	/experiments/knapen_AOT/AOT_stimuli/rescaled_final/1974_rv.mp4	0.0	236.8763189315796	2.5005409717559814
41	194.48371696472168	pulse	1	t		39.0	2.5	/experiments/knapen_AOT/AOT_stimuli/rescaled_final/1974_rv.mp4	0.0	237.26435685157776	
41	196.07950496673584	pulse	1	t		39.0	2.5	/experiments/knapen_AOT/AOT_stimuli/rescaled_final/1974_rv.mp4	0.0	238.86014485359192	
41	196.5962200164795	fix_post	2		12	39.0	2.5	/experiments/knapen_AOT/AOT_stimuli/rescaled_final/1974_rv.mp4	0.0	239.37685990333557	0.09983301162719727
42	196.6960530281067	fix_pre	0		119	40.0	2.5	blank	1.0	239.47669291496277	0.9918200969696045
42	197.67975091934204	pulse	0	t		40.0	2.5	blank	1.0	240.46039080619812	
42	197.6878731250763	movie	1		301	40.0	2.5	blank	1.0	240.46851301193237	2.508685827255249
42	199.28006505966187	pulse	1	t		40.0	2.5	blank	1.0	242.06070494651794	
42	200.19655895233154	fix_post	2		12	40.0	2.5	blank	1.0	242.97719883918762	0.09998297691345215
43	200.296541929245	fix_pre	0		120	41.0	2.5	/experiments/knapen_AOT/AOT_stimuli/rescaled_final/0221_rv.mp4	0.0	243.07718181610107	1.0001440048217773
43	200.88021206855774	pulse	0	t		41.0	2.5	/experiments/knapen_AOT/AOT_stimuli/rescaled_final/0221_rv.mp4	0.0	243.66085195541382	
43	201.29668593406677	movie	1		242	41.0	2.5	/experiments/knapen_AOT/AOT_stimuli/rescaled_final/0221_rv.mp4	0.0	244.07732582092285	2.5006000995635986
43	202.480544090271	pulse	1	t		41.0	2.5	/experiments/knapen_AOT/AOT_stimuli/rescaled_final/0221_rv.mp4	0.0	245.26118397712708	
43	203.79728603363037	fix_post	2		12	41.0	2.5	/experiments/knapen_AOT/AOT_stimuli/rescaled_final/0221_rv.mp4	0.0	246.57792592048645	0.09982609748840332
44	203.89711213111877	fix_pre	0		120	42.0	2.5	/experiments/knapen_AOT/AOT_stimuli/rescaled_final/0301_fw.mp4	0.0	246.67775201797485	1.000121831893921
44	204.08067798614502	pulse	0	t		42.0	2.5	/experiments/knapen_AOT/AOT_stimuli/rescaled_final/0301_fw.mp4	0.0	246.8613178730011	
44	204.8972339630127	movie	1		242	42.0	2.5	/experiments/knapen_AOT/AOT_stimuli/rescaled_final/0301_fw.mp4	0.0	247.67787384986877	2.500507116317749
44	205.6809720993042	pulse	1	t		42.0	2.5	/experiments/knapen_AOT/AOT_stimuli/rescaled_final/0301_fw.mp4	0.0	248.46161198616028	
44	207.28114700317383	pulse	1	t		42.0	2.5	/experiments/knapen_AOT/AOT_stimuli/rescaled_final/0301_fw.mp4	0.0	250.0617868900299	
44	207.39774107933044	fix_post	2		12	42.0	2.5	/experiments/knapen_AOT/AOT_stimuli/rescaled_final/0301_fw.mp4	0.0	250.17838096618652	0.09994101524353027
45	207.49768209457397	fix_pre	0		120	43.0	2.5	/experiments/knapen_AOT/AOT_stimuli/rescaled_final/1429_fw.mp4	0.0	250.27832198143005	1.0000858306884766
45	208.49776792526245	movie	1		241	43.0	2.5	/experiments/knapen_AOT/AOT_stimuli/rescaled_final/1429_fw.mp4	0.0	251.27840781211853	2.4922070503234863
45	208.88258504867554	pulse	1	t		43.0	2.5	/experiments/knapen_AOT/AOT_stimuli/rescaled_final/1429_fw.mp4	0.0	251.66322493553162	
45	210.48162508010864	pulse	1	t		43.0	2.5	/experiments/knapen_AOT/AOT_stimuli/rescaled_final/1429_fw.mp4	0.0	253.26226496696472	
45	210.98997497558594	fix_post	2		12	43.0	2.5	/experiments/knapen_AOT/AOT_stimuli/rescaled_final/1429_fw.mp4	0.0	253.77061486244202	0.0998389720916748
46	211.0898139476776	fix_pre	0		120	44.0	2.5	/experiments/knapen_AOT/AOT_stimuli/rescaled_final/0994_rv.mp4	0.0	253.8704538345337	1.0001630783081055
46	212.0818169116974	pulse	0	t		44.0	2.5	/experiments/knapen_AOT/AOT_stimuli/rescaled_final/0994_rv.mp4	0.0	254.86245679855347	
46	212.08997702598572	movie	1		243	44.0	2.5	/experiments/knapen_AOT/AOT_stimuli/rescaled_final/0994_rv.mp4	0.0	254.8706169128418	2.5087718963623047
46	213.6833040714264	pulse	1	t		44.0	2.5	/experiments/knapen_AOT/AOT_stimuli/rescaled_final/0994_rv.mp4	0.0	256.46394395828247	
46	214.59874892234802	fix_post	2		12	44.0	2.5	/experiments/knapen_AOT/AOT_stimuli/rescaled_final/0994_rv.mp4	0.0	257.3793888092041	0.09996509552001953
47	214.69871401786804	fix_pre	0		120	45.0	2.5	/experiments/knapen_AOT/AOT_stimuli/rescaled_final/1857_rv.mp4	0.0	257.4793539047241	1.0001490116119385
47	215.28240299224854	pulse	0	t		45.0	2.5	/experiments/knapen_AOT/AOT_stimuli/rescaled_final/1857_rv.mp4	0.0	258.0630428791046	
47	215.69886302947998	movie	1		242	45.0	2.5	/experiments/knapen_AOT/AOT_stimuli/rescaled_final/1857_rv.mp4	0.0	258.47950291633606	2.5006110668182373
47	216.8826539516449	pulse	1	t		45.0	2.5	/experiments/knapen_AOT/AOT_stimuli/rescaled_final/1857_rv.mp4	0.0	259.663293838501	
47	218.19947409629822	fix_post	2		12	45.0	2.5	/experiments/knapen_AOT/AOT_stimuli/rescaled_final/1857_rv.mp4	0.0	260.9801139831543	0.09979104995727539
48	218.2992651462555	fix_pre	0		120	46.0	2.5	/experiments/knapen_AOT/AOT_stimuli/rescaled_final/1015_rv.mp4	0.0	261.0799050331116	1.000168800354004
48	218.48278999328613	pulse	0	t		46.0	2.5	/experiments/knapen_AOT/AOT_stimuli/rescaled_final/1015_rv.mp4	0.0	261.2634298801422	
48	219.2994339466095	movie	1		243	46.0	2.5	/experiments/knapen_AOT/AOT_stimuli/rescaled_final/1015_rv.mp4	0.0	262.0800738334656	2.5005240440368652
48	220.08307814598083	pulse	1	t		46.0	2.5	/experiments/knapen_AOT/AOT_stimuli/rescaled_final/1015_rv.mp4	0.0	262.8637180328369	
48	221.68326902389526	pulse	1	t		46.0	2.5	/experiments/knapen_AOT/AOT_stimuli/rescaled_final/1015_rv.mp4	0.0	264.46390891075134	
48	221.79995799064636	fix_post	2		12	46.0	2.5	/experiments/knapen_AOT/AOT_stimuli/rescaled_final/1015_rv.mp4	0.0	264.58059787750244	0.09984111785888672
49	221.89979910850525	fix_pre	0		120	47.0	2.5	/experiments/knapen_AOT/AOT_stimuli/rescaled_final/0145_rv.mp4	0.0	264.6804389953613	1.0001189708709717
49	222.89991807937622	movie	1		241	47.0	2.5	/experiments/knapen_AOT/AOT_stimuli/rescaled_final/0145_rv.mp4	0.0	265.6805579662323	2.4921000003814697
49	223.28421092033386	pulse	1	t		47.0	2.5	/experiments/knapen_AOT/AOT_stimuli/rescaled_final/0145_rv.mp4	0.0	266.06485080718994	
49	224.8837170600891	pulse	1	t		47.0	2.5	/experiments/knapen_AOT/AOT_stimuli/rescaled_final/0145_rv.mp4	0.0	267.6643569469452	
49	225.3920180797577	fix_post	2		12	47.0	2.5	/experiments/knapen_AOT/AOT_stimuli/rescaled_final/0145_rv.mp4	0.0	268.17265796661377	0.09996891021728516
50	225.49198698997498	fix_pre	0		120	48.0	2.5	/experiments/knapen_AOT/AOT_stimuli/rescaled_final/1425_rv.mp4	0.0	268.27262687683105	1.0001471042633057
50	226.48410296440125	pulse	0	t		48.0	2.5	/experiments/knapen_AOT/AOT_stimuli/rescaled_final/1425_rv.mp4	0.0	269.2647428512573	
50	226.49213409423828	movie	1		247	48.0	2.5	/experiments/knapen_AOT/AOT_stimuli/rescaled_final/1425_rv.mp4	0.0	269.27277398109436	2.5087249279022217
50	228.08824014663696	pulse	1	t		48.0	2.5	/experiments/knapen_AOT/AOT_stimuli/rescaled_final/1425_rv.mp4	0.0	270.86888003349304	
50	229.0008590221405	fix_post	2		12	48.0	2.5	/experiments/knapen_AOT/AOT_stimuli/rescaled_final/1425_rv.mp4	0.0	271.7814989089966	0.09998893737792969
51	229.10084795951843	fix_pre	0		120	49.0	2.5	blank	1.0	271.8814878463745	1.0001890659332275
51	229.68442010879517	pulse	0	t		49.0	2.5	blank	1.0	272.46505999565125	
51	230.10103702545166	movie	1		300	49.0	2.5	blank	1.0	272.88167691230774	2.5003609657287598
51	231.2847740650177	pulse	1	t		49.0	2.5	blank	1.0	274.0654139518738	
51	232.60139799118042	fix_post	2		12	49.0	2.5	blank	1.0	275.3820378780365	0.10002899169921875
52	232.70142698287964	fix_pre	0		120	50.0	2.5	/experiments/knapen_AOT/AOT_stimuli/rescaled_final/1392_rv.mp4	0.0	275.4820668697357	1.0001130104064941
52	232.8849561214447	pulse	0	t		50.0	2.5	/experiments/knapen_AOT/AOT_stimuli/rescaled_final/1392_rv.mp4	0.0	275.6655960083008	
52	233.70153999328613	movie	1		243	50.0	2.5	/experiments/knapen_AOT/AOT_stimuli/rescaled_final/1392_rv.mp4	0.0	276.4821798801422	2.5006260871887207
52	234.48526000976562	pulse	1	t		50.0	2.5	/experiments/knapen_AOT/AOT_stimuli/rescaled_final/1392_rv.mp4	0.0	277.2658998966217	
52	236.0854959487915	pulse	1	t		50.0	2.5	/experiments/knapen_AOT/AOT_stimuli/rescaled_final/1392_rv.mp4	0.0	278.8661358356476	
52	236.20216608047485	fix_post	2		12	50.0	2.5	/experiments/knapen_AOT/AOT_stimuli/rescaled_final/1392_rv.mp4	0.0	278.98280596733093	0.09977889060974121
53	236.3019449710846	fix_pre	0		120	51.0	2.5	/experiments/knapen_AOT/AOT_stimuli/rescaled_final/1726_fw.mp4	0.0	279.0825848579407	1.0001461505889893
53	237.30209112167358	movie	1		242	51.0	2.5	/experiments/knapen_AOT/AOT_stimuli/rescaled_final/1726_fw.mp4	0.0	280.08273100852966	2.5005548000335693
53	237.68623900413513	pulse	1	t		51.0	2.5	/experiments/knapen_AOT/AOT_stimuli/rescaled_final/1726_fw.mp4	0.0	280.4668788909912	
53	239.27864599227905	pulse	1	t		51.0	2.5	/experiments/knapen_AOT/AOT_stimuli/rescaled_final/1726_fw.mp4	0.0	282.05928587913513	
53	239.80264592170715	fix_post	2		12	51.0	2.5	/experiments/knapen_AOT/AOT_stimuli/rescaled_final/1726_fw.mp4	0.0	282.58328580856323	0.099822998046875
54	239.90246891975403	fix_pre	0		119	52.0	2.5	/experiments/knapen_AOT/AOT_stimuli/rescaled_final/0862_rv.mp4	0.0	282.6831088066101	0.991840124130249
54	240.87856197357178	pulse	0	t		52.0	2.5	/experiments/knapen_AOT/AOT_stimuli/rescaled_final/0862_rv.mp4	0.0	283.65920186042786	
54	240.89430904388428	movie	1		243	52.0	2.5	/experiments/knapen_AOT/AOT_stimuli/rescaled_final/0862_rv.mp4	0.0	283.67494893074036	2.5087780952453613
54	242.4870250225067	pulse	1	t		52.0	2.5	/experiments/knapen_AOT/AOT_stimuli/rescaled_final/0862_rv.mp4	0.0	285.2676649093628	
54	243.40308713912964	fix_post	2		12	52.0	2.5	/experiments/knapen_AOT/AOT_stimuli/rescaled_final/0862_rv.mp4	0.0	286.1837270259857	0.09994196891784668
55	243.50302910804749	fix_pre	0		120	53.0	2.5	/experiments/knapen_AOT/AOT_stimuli/rescaled_final/1814_rv.mp4	0.0	286.28366899490356	1.0001249313354492
55	244.07913494110107	pulse	0	t		53.0	2.5	/experiments/knapen_AOT/AOT_stimuli/rescaled_final/1814_rv.mp4	0.0	286.85977482795715	
55	244.50315403938293	movie	1		243	53.0	2.5	/experiments/knapen_AOT/AOT_stimuli/rescaled_final/1814_rv.mp4	0.0	287.283793926239	2.5005290508270264
55	245.6791980266571	pulse	1	t		53.0	2.5	/experiments/knapen_AOT/AOT_stimuli/rescaled_final/1814_rv.mp4	0.0	288.4598379135132	
55	247.00368309020996	fix_post	2		12	53.0	2.5	/experiments/knapen_AOT/AOT_stimuli/rescaled_final/1814_rv.mp4	0.0	289.78432297706604	0.09985089302062988
56	247.1035339832306	fix_pre	0		120	54.0	2.5	/experiments/knapen_AOT/AOT_stimuli/rescaled_final/0456_fw.mp4	0.0	289.88417387008667	1.0001730918884277
56	247.27889609336853	pulse	0	t		54.0	2.5	/experiments/knapen_AOT/AOT_stimuli/rescaled_final/0456_fw.mp4	0.0	290.0595359802246	
56	248.10370707511902	movie	1		238	54.0	2.5	/experiments/knapen_AOT/AOT_stimuli/rescaled_final/0456_fw.mp4	0.0	290.8843469619751	2.4921798706054688
56	248.8789460659027	pulse	1	t		54.0	2.5	/experiments/knapen_AOT/AOT_stimuli/rescaled_final/0456_fw.mp4	0.0	291.6595859527588	
56	250.47922110557556	pulse	1	t		54.0	2.5	/experiments/knapen_AOT/AOT_stimuli/rescaled_final/0456_fw.mp4	0.0	293.25986099243164	
56	250.5958869457245	fix_post	2		13	54.0	2.5	/experiments/knapen_AOT/AOT_stimuli/rescaled_final/0456_fw.mp4	0.0	293.37652683258057	0.10820317268371582
57	250.7040901184082	fix_pre	0		119	55.0	2.5	blank	1.0	293.4847300052643	0.9918029308319092
57	251.6958930492401	movie	1		300	55.0	2.5	blank	1.0	294.4765329360962	2.5003819465637207
57	252.07956194877625	pulse	1	t		55.0	2.5	blank	1.0	294.8602018356323	
57	253.67971992492676	pulse	1	t		55.0	2.5	blank	1.0	296.46035981178284	
57	254.19627499580383	fix_post	2		12	55.0	2.5	blank	1.0	296.9769148826599	0.10004591941833496
58	254.29632091522217	fix_pre	0		119	56.0	2.5	/experiments/knapen_AOT/AOT_stimuli/rescaled_final/0456_rv.mp4	0.0	297.07696080207825	0.9918100833892822
58	255.27996492385864	pulse	0	t		56.0	2.5	/experiments/knapen_AOT/AOT_stimuli/rescaled_final/0456_rv.mp4	0.0	298.0606048107147	
58	255.28813099861145	movie	1		244	56.0	2.5	/experiments/knapen_AOT/AOT_stimuli/rescaled_final/0456_rv.mp4	0.0	298.06877088546753	2.508716106414795
58	256.8807051181793	pulse	1	t		56.0	2.5	/experiments/knapen_AOT/AOT_stimuli/rescaled_final/0456_rv.mp4	0.0	299.6613450050354	
58	257.79684710502625	fix_post	2		12	56.0	2.5	/experiments/knapen_AOT/AOT_stimuli/rescaled_final/0456_rv.mp4	0.0	300.5774869918823	0.09996581077575684
59	257.896812915802	fix_pre	0		120	57.0	2.5	/experiments/knapen_AOT/AOT_stimuli/rescaled_final/0037_rv.mp4	0.0	300.6774528026581	1.0001800060272217
59	258.4805021286011	pulse	0	t		57.0	2.5	/experiments/knapen_AOT/AOT_stimuli/rescaled_final/0037_rv.mp4	0.0	301.26114201545715	
59	258.8969929218292	movie	1		244	57.0	2.5	/experiments/knapen_AOT/AOT_stimuli/rescaled_final/0037_rv.mp4	0.0	301.6776328086853	2.5003750324249268
59	260.08074498176575	pulse	1	t		57.0	2.5	/experiments/knapen_AOT/AOT_stimuli/rescaled_final/0037_rv.mp4	0.0	302.8613848686218	
59	261.39736795425415	fix_post	2		12	57.0	2.5	/experiments/knapen_AOT/AOT_stimuli/rescaled_final/0037_rv.mp4	0.0	304.17800784111023	0.10003113746643066
60	261.4973990917206	fix_pre	0		120	58.0	2.5	/experiments/knapen_AOT/AOT_stimuli/rescaled_final/0745_fw.mp4	0.0	304.27803897857666	1.000119924545288
60	261.68087792396545	pulse	0	t		58.0	2.5	/experiments/knapen_AOT/AOT_stimuli/rescaled_final/0745_fw.mp4	0.0	304.46151781082153	
60	262.49751901626587	movie	1		245	58.0	2.5	/experiments/knapen_AOT/AOT_stimuli/rescaled_final/0745_fw.mp4	0.0	305.27815890312195	2.5003769397735596
60	263.2812089920044	pulse	1	t		58.0	2.5	/experiments/knapen_AOT/AOT_stimuli/rescaled_final/0745_fw.mp4	0.0	306.0618488788605	
60	264.8790509700775	pulse	1	t		58.0	2.5	/experiments/knapen_AOT/AOT_stimuli/rescaled_final/0745_fw.mp4	0.0	307.6596908569336	
60	264.99789595603943	fix_post	2		12	58.0	2.5	/experiments/knapen_AOT/AOT_stimuli/rescaled_final/0745_fw.mp4	0.0	307.7785358428955	0.10004210472106934
61	265.0979380607605	fix_pre	0		120	59.0	2.5	/experiments/knapen_AOT/AOT_stimuli/rescaled_final/0316_fw.mp4	0.0	307.8785779476166	1.0000898838043213
61	266.0980279445648	movie	1		243	59.0	2.5	/experiments/knapen_AOT/AOT_stimuli/rescaled_final/0316_fw.mp4	0.0	308.8786678314209	2.4920899868011475
61	266.4830060005188	pulse	1	t		59.0	2.5	/experiments/knapen_AOT/AOT_stimuli/rescaled_final/0316_fw.mp4	0.0	309.2636458873749	
61	268.08193707466125	pulse	1	t		59.0	2.5	/experiments/knapen_AOT/AOT_stimuli/rescaled_final/0316_fw.mp4	0.0	310.86257696151733	
61	268.59011793136597	fix_post	2		12	59.0	2.5	/experiments/knapen_AOT/AOT_stimuli/rescaled_final/0316_fw.mp4	0.0	311.37075781822205	0.0999600887298584
62	268.6900780200958	fix_pre	0		120	60.0	2.5	/experiments/knapen_AOT/AOT_stimuli/rescaled_final/0713_rv.mp4	0.0	311.4707179069519	1.000162124633789
62	269.68210792541504	pulse	0	t		60.0	2.5	/experiments/knapen_AOT/AOT_stimuli/rescaled_final/0713_rv.mp4	0.0	312.4627478122711	
62	269.6902401447296	movie	1		245	60.0	2.5	/experiments/knapen_AOT/AOT_stimuli/rescaled_final/0713_rv.mp4	0.0	312.4708800315857	2.508741855621338
62	271.28292894363403	pulse	1	t		60.0	2.5	/experiments/knapen_AOT/AOT_stimuli/rescaled_final/0713_rv.mp4	0.0	314.0635688304901	
62	272.19898200035095	fix_post	2		12	60.0	2.5	/experiments/knapen_AOT/AOT_stimuli/rescaled_final/0713_rv.mp4	0.0	314.97962188720703	0.10001707077026367
63	272.2989990711212	fix_pre	0		120	61.0	2.5	blank	1.0	315.0796389579773	1.0001380443572998
63	272.88260293006897	pulse	0	t		61.0	2.5	blank	1.0	315.66324281692505	
63	273.2991371154785	movie	1		300	61.0	2.5	blank	1.0	316.0797770023346	2.500365972518921
63	274.4828839302063	pulse	1	t		61.0	2.5	blank	1.0	317.2635238170624	
63	275.79950308799744	fix_post	2		12	61.0	2.5	blank	1.0	318.5801429748535	0.09999799728393555
64	275.8995010852814	fix_pre	0		120	62.0	2.5	/experiments/knapen_AOT/AOT_stimuli/rescaled_final/1028_rv.mp4	0.0	318.68014097213745	1.000148057937622
64	276.0831379890442	pulse	0	t		62.0	2.5	/experiments/knapen_AOT/AOT_stimuli/rescaled_final/1028_rv.mp4	0.0	318.86377787590027	
64	276.899649143219	movie	1		245	62.0	2.5	/experiments/knapen_AOT/AOT_stimuli/rescaled_final/1028_rv.mp4	0.0	319.6802890300751	2.5004029273986816
64	277.6833870410919	pulse	1	t		62.0	2.5	/experiments/knapen_AOT/AOT_stimuli/rescaled_final/1028_rv.mp4	0.0	320.464026927948	
64	279.281240940094	pulse	1	t		62.0	2.5	/experiments/knapen_AOT/AOT_stimuli/rescaled_final/1028_rv.mp4	0.0	322.0618808269501	
64	279.4000520706177	fix_post	2		12	62.0	2.5	/experiments/knapen_AOT/AOT_stimuli/rescaled_final/1028_rv.mp4	0.0	322.18069195747375	0.10001087188720703
65	279.5000629425049	fix_pre	0		120	63.0	2.5	/experiments/knapen_AOT/AOT_stimuli/rescaled_final/0594_rv.mp4	0.0	322.28070282936096	1.0001561641693115
65	280.5002191066742	movie	1		241	63.0	2.5	/experiments/knapen_AOT/AOT_stimuli/rescaled_final/0594_rv.mp4	0.0	323.2808589935303	2.4921188354492188
65	280.88585114479065	pulse	1	t		63.0	2.5	/experiments/knapen_AOT/AOT_stimuli/rescaled_final/0594_rv.mp4	0.0	323.66649103164673	
65	282.4840450286865	pulse	1	t		63.0	2.5	/experiments/knapen_AOT/AOT_stimuli/rescaled_final/0594_rv.mp4	0.0	325.2646849155426	
65	282.9923379421234	fix_post	2		12	63.0	2.5	/experiments/knapen_AOT/AOT_stimuli/rescaled_final/0594_rv.mp4	0.0	325.7729778289795	0.09993815422058105
66	283.092276096344	fix_pre	0		120	64.0	2.5	/experiments/knapen_AOT/AOT_stimuli/rescaled_final/0072_rv.mp4	0.0	325.8729159832001	1.000152826309204
66	284.0842881202698	pulse	0	t		64.0	2.5	/experiments/knapen_AOT/AOT_stimuli/rescaled_final/0072_rv.mp4	0.0	326.86492800712585	
66	284.0924289226532	movie	1		244	64.0	2.5	/experiments/knapen_AOT/AOT_stimuli/rescaled_final/0072_rv.mp4	0.0	326.8730688095093	2.5086920261383057
66	285.6857490539551	pulse	1	t		64.0	2.5	/experiments/knapen_AOT/AOT_stimuli/rescaled_final/0072_rv.mp4	0.0	328.46638894081116	
66	286.6011209487915	fix_post	2		12	64.0	2.5	/experiments/knapen_AOT/AOT_stimuli/rescaled_final/0072_rv.mp4	0.0	329.3817608356476	0.1000680923461914
67	286.7011890411377	fix_pre	0		120	65.0	2.5	/experiments/knapen_AOT/AOT_stimuli/rescaled_final/1679_rv.mp4	0.0	329.4818289279938	1.0000488758087158
67	287.2847330570221	pulse	0	t		65.0	2.5	/experiments/knapen_AOT/AOT_stimuli/rescaled_final/1679_rv.mp4	0.0	330.0653729438782	
67	287.7012379169464	movie	1		242	65.0	2.5	/experiments/knapen_AOT/AOT_stimuli/rescaled_final/1679_rv.mp4	0.0	330.4818778038025	2.5005011558532715
67	288.8851521015167	pulse	1	t		65.0	2.5	/experiments/knapen_AOT/AOT_stimuli/rescaled_final/1679_rv.mp4	0.0	331.6657919883728	
67	290.2017390727997	fix_post	2		12	65.0	2.5	/experiments/knapen_AOT/AOT_stimuli/rescaled_final/1679_rv.mp4	0.0	332.98237895965576	0.09991788864135742
68	290.30165696144104	fix_pre	0		120	66.0	2.5	/experiments/knapen_AOT/AOT_stimuli/rescaled_final/1456_rv.mp4	0.0	333.0822968482971	1.0002119541168213
68	290.48528504371643	pulse	0	t		66.0	2.5	/experiments/knapen_AOT/AOT_stimuli/rescaled_final/1456_rv.mp4	0.0	333.2659249305725	
68	291.30186891555786	movie	1		242	66.0	2.5	/experiments/knapen_AOT/AOT_stimuli/rescaled_final/1456_rv.mp4	0.0	334.08250880241394	2.50032901763916
68	292.08555912971497	pulse	1	t		66.0	2.5	/experiments/knapen_AOT/AOT_stimuli/rescaled_final/1456_rv.mp4	0.0	334.86619901657104	
68	293.68622303009033	pulse	1	t		66.0	2.5	/experiments/knapen_AOT/AOT_stimuli/rescaled_final/1456_rv.mp4	0.0	336.4668629169464	
68	293.802197933197	fix_post	2		12	66.0	2.5	/experiments/knapen_AOT/AOT_stimuli/rescaled_final/1456_rv.mp4	0.0	336.5828378200531	0.10002017021179199
69	293.9022181034088	fix_pre	0		120	67.0	2.5	/experiments/knapen_AOT/AOT_stimuli/rescaled_final/2007_fw.mp4	0.0	336.6828579902649	1.0001368522644043
69	294.9023549556732	movie	1		242	67.0	2.5	/experiments/knapen_AOT/AOT_stimuli/rescaled_final/2007_fw.mp4	0.0	337.6829948425293	2.492063045501709
69	295.2866909503937	pulse	1	t		67.0	2.5	/experiments/knapen_AOT/AOT_stimuli/rescaled_final/2007_fw.mp4	0.0	338.06733083724976	
69	296.8787999153137	pulse	1	t		67.0	2.5	/experiments/knapen_AOT/AOT_stimuli/rescaled_final/2007_fw.mp4	0.0	339.6594398021698	
69	297.3944180011749	fix_post	2		12	67.0	2.5	/experiments/knapen_AOT/AOT_stimuli/rescaled_final/2007_fw.mp4	0.0	340.175057888031	0.10001397132873535
70	297.49443197250366	fix_pre	0		120	68.0	2.5	/experiments/knapen_AOT/AOT_stimuli/rescaled_final/1517_rv.mp4	0.0	340.27507185935974	1.0001170635223389
70	298.47889709472656	pulse	0	t		68.0	2.5	/experiments/knapen_AOT/AOT_stimuli/rescaled_final/1517_rv.mp4	0.0	341.25953698158264	
70	298.494549036026	movie	1		244	68.0	2.5	/experiments/knapen_AOT/AOT_stimuli/rescaled_final/1517_rv.mp4	0.0	341.2751889228821	2.5087358951568604
70	300.0913519859314	pulse	1	t		68.0	2.5	/experiments/knapen_AOT/AOT_stimuli/rescaled_final/1517_rv.mp4	0.0	342.8719918727875	
70	301.00328493118286	fix_post	2		12	68.0	2.5	/experiments/knapen_AOT/AOT_stimuli/rescaled_final/1517_rv.mp4	0.0	343.78392481803894	0.1000511646270752
71	301.10333609580994	fix_pre	0		120	69.0	2.5	blank	1.0	343.883975982666	1.0000898838043213
71	301.67852997779846	pulse	0	t		69.0	2.5	blank	1.0	344.45916986465454	
71	302.10342597961426	movie	1		300	69.0	2.5	blank	1.0	344.88406586647034	2.500383138656616
71	303.27872705459595	pulse	1	t		69.0	2.5	blank	1.0	346.059366941452	
71	304.6038091182709	fix_post	2		12	69.0	2.5	blank	1.0	347.38444900512695	0.10001897811889648
72	304.70382809638977	fix_pre	0		120	70.0	2.5	/experiments/knapen_AOT/AOT_stimuli/rescaled_final/0415_rv.mp4	0.0	347.48446798324585	1.000143051147461
72	304.87910413742065	pulse	0	t		70.0	2.5	/experiments/knapen_AOT/AOT_stimuli/rescaled_final/0415_rv.mp4	0.0	347.65974402427673	
72	305.70397114753723	movie	1		243	70.0	2.5	/experiments/knapen_AOT/AOT_stimuli/rescaled_final/0415_rv.mp4	0.0	348.4846110343933	2.5005009174346924
72	306.47933411598206	pulse	1	t		70.0	2.5	/experiments/knapen_AOT/AOT_stimuli/rescaled_final/0415_rv.mp4	0.0	349.25997400283813	
72	308.07958602905273	pulse	1	t		70.0	2.5	/experiments/knapen_AOT/AOT_stimuli/rescaled_final/0415_rv.mp4	0.0	350.8602259159088	
72	308.2044720649719	fix_post	2		12	70.0	2.5	/experiments/knapen_AOT/AOT_stimuli/rescaled_final/0415_rv.mp4	0.0	350.985111951828	0.09994792938232422
73	308.30441999435425	fix_pre	0		120	71.0	2.5	/experiments/knapen_AOT/AOT_stimuli/rescaled_final/0415_fw.mp4	0.0	351.0850598812103	1.0000619888305664
73	309.3044819831848	movie	1		241	71.0	2.5	/experiments/knapen_AOT/AOT_stimuli/rescaled_final/0415_fw.mp4	0.0	352.0851218700409	2.519320011138916
73	309.67974400520325	pulse	1	t		71.0	2.5	/experiments/knapen_AOT/AOT_stimuli/rescaled_final/0415_fw.mp4	0.0	352.4603838920593	
73	311.28016805648804	pulse	1	t		71.0	2.5	/experiments/knapen_AOT/AOT_stimuli/rescaled_final/0415_fw.mp4	0.0	354.0608079433441	
73	311.82380199432373	fix_post	2		9	71.0	2.5	/experiments/knapen_AOT/AOT_stimuli/rescaled_final/0415_fw.mp4	0.0	354.6044418811798	0.07275700569152832
74	311.89655900001526	fix_pre	0		119	72.0	2.5	/experiments/knapen_AOT/AOT_stimuli/rescaled_final/2019_rv.mp4	0.0	354.67719888687134	0.9918479919433594
74	312.8802649974823	pulse	0	t		72.0	2.5	/experiments/knapen_AOT/AOT_stimuli/rescaled_final/2019_rv.mp4	0.0	355.6609048843384	
74	312.8884069919586	movie	1		246	72.0	2.5	/experiments/knapen_AOT/AOT_stimuli/rescaled_final/2019_rv.mp4	0.0	355.6690468788147	2.508697032928467
74	314.48104310035706	pulse	1	t		72.0	2.5	/experiments/knapen_AOT/AOT_stimuli/rescaled_final/2019_rv.mp4	0.0	357.26168298721313	
74	315.3971040248871	fix_post	2		12	72.0	2.5	/experiments/knapen_AOT/AOT_stimuli/rescaled_final/2019_rv.mp4	0.0	358.17774391174316	0.10000991821289062
75	315.4971139431	fix_pre	0		120	73.0	2.5	/experiments/knapen_AOT/AOT_stimuli/rescaled_final/1548_fw.mp4	0.0	358.27775382995605	1.0001521110534668
75	316.0806939601898	pulse	0	t		73.0	2.5	/experiments/knapen_AOT/AOT_stimuli/rescaled_final/1548_fw.mp4	0.0	358.8613338470459	
75	316.49726605415344	movie	1		243	73.0	2.5	/experiments/knapen_AOT/AOT_stimuli/rescaled_final/1548_fw.mp4	0.0	359.2779059410095	2.5004730224609375
75	317.68099904060364	pulse	1	t		73.0	2.5	/experiments/knapen_AOT/AOT_stimuli/rescaled_final/1548_fw.mp4	0.0	360.4616389274597	
75	318.9977390766144	fix_post	2		12	73.0	2.5	/experiments/knapen_AOT/AOT_stimuli/rescaled_final/1548_fw.mp4	0.0	361.77837896347046	0.09990596771240234
76	319.0976450443268	fix_pre	0		120	74.0	2.5	/experiments/knapen_AOT/AOT_stimuli/rescaled_final/1068_fw.mp4	0.0	361.87828493118286	1.0001380443572998
76	319.2812430858612	pulse	0	t		74.0	2.5	/experiments/knapen_AOT/AOT_stimuli/rescaled_final/1068_fw.mp4	0.0	362.0618829727173	
76	320.0977830886841	movie	1		243	74.0	2.5	/experiments/knapen_AOT/AOT_stimuli/rescaled_final/1068_fw.mp4	0.0	362.87842297554016	2.5003888607025146
76	320.8815031051636	pulse	1	t		74.0	2.5	/experiments/knapen_AOT/AOT_stimuli/rescaled_final/1068_fw.mp4	0.0	363.66214299201965	
76	322.4817190170288	pulse	1	t		74.0	2.5	/experiments/knapen_AOT/AOT_stimuli/rescaled_final/1068_fw.mp4	0.0	365.2623589038849	
76	322.5981719493866	fix_post	2		12	74.0	2.5	/experiments/knapen_AOT/AOT_stimuli/rescaled_final/1068_fw.mp4	0.0	365.3788118362427	0.10004115104675293
77	322.69821310043335	fix_pre	0		120	75.0	2.5	/experiments/knapen_AOT/AOT_stimuli/rescaled_final/0106_rv.mp4	0.0	365.47885298728943	1.0001099109649658
77	323.6983230113983	movie	1		241	75.0	2.5	/experiments/knapen_AOT/AOT_stimuli/rescaled_final/0106_rv.mp4	0.0	366.4789628982544	2.492124080657959
77	324.0825729370117	pulse	1	t		75.0	2.5	/experiments/knapen_AOT/AOT_stimuli/rescaled_final/0106_rv.mp4	0.0	366.8632128238678	
77	325.6822371482849	pulse	1	t		75.0	2.5	/experiments/knapen_AOT/AOT_stimuli/rescaled_final/0106_rv.mp4	0.0	368.462877035141	
77	326.1904470920563	fix_post	2		12	75.0	2.5	/experiments/knapen_AOT/AOT_stimuli/rescaled_final/0106_rv.mp4	0.0	368.97108697891235	0.09996485710144043
78	326.2904119491577	fix_pre	0		120	76.0	2.5	/experiments/knapen_AOT/AOT_stimuli/rescaled_final/0072_rv.mp4	0.0	369.0710518360138	1.000096082687378
78	327.28238797187805	pulse	0	t		76.0	2.5	/experiments/knapen_AOT/AOT_stimuli/rescaled_final/0072_rv.mp4	0.0	370.06302785873413	
78	327.2905080318451	movie	1		244	76.0	2.5	/experiments/knapen_AOT/AOT_stimuli/rescaled_final/0072_rv.mp4	0.0	370.0711479187012	2.508747100830078
78	328.8839440345764	pulse	1	t		76.0	2.5	/experiments/knapen_AOT/AOT_stimuli/rescaled_final/0072_rv.mp4	0.0	371.6645839214325	
78	329.79925513267517	fix_post	2		12	76.0	2.5	/experiments/knapen_AOT/AOT_stimuli/rescaled_final/0072_rv.mp4	0.0	372.57989501953125	0.10003781318664551
79	329.8992929458618	fix_pre	0		120	77.0	2.5	blank	1.0	372.6799328327179	1.0001130104064941
79	330.48284697532654	pulse	0	t		77.0	2.5	blank	1.0	373.2634868621826	
79	330.8994059562683	movie	1		300	77.0	2.5	blank	1.0	373.6800458431244	2.5003790855407715
79	332.0830910205841	pulse	1	t		77.0	2.5	blank	1.0	374.8637309074402	
79	333.3997850418091	fix_post	2		12	77.0	2.5	blank	1.0	376.18042492866516	0.10003089904785156
80	333.49981594085693	fix_pre	0		120	78.0	2.5	/experiments/knapen_AOT/AOT_stimuli/rescaled_final/1825_rv.mp4	0.0	376.280455827713	1.0001251697540283
80	333.6834120750427	pulse	0	t		78.0	2.5	/experiments/knapen_AOT/AOT_stimuli/rescaled_final/1825_rv.mp4	0.0	376.4640519618988	
80	334.49994111061096	movie	1		242	78.0	2.5	/experiments/knapen_AOT/AOT_stimuli/rescaled_final/1825_rv.mp4	0.0	377.28058099746704	2.5005829334259033
80	335.2836570739746	pulse	1	t		78.0	2.5	/experiments/knapen_AOT/AOT_stimuli/rescaled_final/1825_rv.mp4	0.0	378.0642969608307	
80	336.8838551044464	pulse	1	t		78.0	2.5	/experiments/knapen_AOT/AOT_stimuli/rescaled_final/1825_rv.mp4	0.0	379.6644949913025	
80	337.00052404403687	fix_post	2		12	78.0	2.5	/experiments/knapen_AOT/AOT_stimuli/rescaled_final/1825_rv.mp4	0.0	379.78116393089294	0.09979701042175293
81	337.1003210544586	fix_pre	0		120	79.0	2.5	/experiments/knapen_AOT/AOT_stimuli/rescaled_final/1459_fw.mp4	0.0	379.8809609413147	1.00016188621521
81	338.1004829406738	movie	1		242	79.0	2.5	/experiments/knapen_AOT/AOT_stimuli/rescaled_final/1459_fw.mp4	0.0	380.8811228275299	2.4921860694885254
81	338.4846091270447	pulse	1	t		79.0	2.5	/experiments/knapen_AOT/AOT_stimuli/rescaled_final/1459_fw.mp4	0.0	381.26524901390076	
81	340.0843839645386	pulse	1	t		79.0	2.5	/experiments/knapen_AOT/AOT_stimuli/rescaled_final/1459_fw.mp4	0.0	382.86502385139465	
81	340.59266901016235	fix_post	2		12	79.0	2.5	/experiments/knapen_AOT/AOT_stimuli/rescaled_final/1459_fw.mp4	0.0	383.37330889701843	0.09984302520751953
82	340.6925120353699	fix_pre	0		120	80.0	2.5	/experiments/knapen_AOT/AOT_stimuli/rescaled_final/1881_fw.mp4	0.0	383.47315192222595	1.000140905380249
82	341.68457198143005	pulse	0	t		80.0	2.5	/experiments/knapen_AOT/AOT_stimuli/rescaled_final/1881_fw.mp4	0.0	384.46521186828613	
82	341.6926529407501	movie	1		245	80.0	2.5	/experiments/knapen_AOT/AOT_stimuli/rescaled_final/1881_fw.mp4	0.0	384.4732928276062	2.5087599754333496
82	343.28552293777466	pulse	1	t		80.0	2.5	/experiments/knapen_AOT/AOT_stimuli/rescaled_final/1881_fw.mp4	0.0	386.06616282463074	
82	344.2014129161835	fix_post	2		12	80.0	2.5	/experiments/knapen_AOT/AOT_stimuli/rescaled_final/1881_fw.mp4	0.0	386.98205280303955	0.10000109672546387
83	344.30141401290894	fix_pre	0		120	81.0	2.5	/experiments/knapen_AOT/AOT_stimuli/rescaled_final/0345_fw.mp4	0.0	387.082053899765	1.000133991241455
83	344.88501501083374	pulse	0	t		81.0	2.5	/experiments/knapen_AOT/AOT_stimuli/rescaled_final/0345_fw.mp4	0.0	387.6656548976898	
83	345.3015480041504	movie	1		242	81.0	2.5	/experiments/knapen_AOT/AOT_stimuli/rescaled_final/0345_fw.mp4	0.0	388.08218789100647	2.500549077987671
83	346.48537611961365	pulse	1	t		81.0	2.5	/experiments/knapen_AOT/AOT_stimuli/rescaled_final/0345_fw.mp4	0.0	389.2660160064697	
83	347.80209708213806	fix_post	2		12	81.0	2.5	/experiments/knapen_AOT/AOT_stimuli/rescaled_final/0345_fw.mp4	0.0	390.58273696899414	0.09981799125671387
84	347.9019150733948	fix_pre	0		120	82.0	2.5	/experiments/knapen_AOT/AOT_stimuli/rescaled_final/2056_fw.mp4	0.0	390.68255496025085	1.0001559257507324
84	348.08555793762207	pulse	0	t		82.0	2.5	/experiments/knapen_AOT/AOT_stimuli/rescaled_final/2056_fw.mp4	0.0	390.86619782447815	
84	348.9020709991455	movie	1		243	82.0	2.5	/experiments/knapen_AOT/AOT_stimuli/rescaled_final/2056_fw.mp4	0.0	391.6827108860016	2.500396966934204
84	349.685672044754	pulse	1	t		82.0	2.5	/experiments/knapen_AOT/AOT_stimuli/rescaled_final/2056_fw.mp4	0.0	392.4663119316101	
84	351.2859630584717	pulse	1	t		82.0	2.5	/experiments/knapen_AOT/AOT_stimuli/rescaled_final/2056_fw.mp4	0.0	394.06660294532776	
84	351.4024679660797	fix_post	2		12	82.0	2.5	/experiments/knapen_AOT/AOT_stimuli/rescaled_final/2056_fw.mp4	0.0	394.1831078529358	0.10001611709594727
85	351.50248408317566	fix_pre	0		120	83.0	2.5	blank	1.0	394.28312397003174	1.0001349449157715
85	352.50261902809143	movie	1		299	83.0	2.5	blank	1.0	395.2832589149475	2.4920520782470703
85	352.88625597953796	pulse	1	t		83.0	2.5	blank	1.0	395.66689586639404	
85	354.4789900779724	pulse	1	t		83.0	2.5	blank	1.0	397.2596299648285	
85	354.9946711063385	fix_post	2		12	83.0	2.5	blank	1.0	397.7753109931946	0.09998893737792969
87	355.09466004371643	stim	0		1716					397.8752999305725	14.302274942398071
87	356.07832193374634	pulse	0	t						398.8589618206024	
87	357.67857003211975	pulse	0	t						400.45920991897583	
87	359.2787561416626	pulse	0	t						402.0593960285187	
87	360.87911891937256	pulse	0	t						403.65975880622864	
87	362.4792740345001	pulse	0	t						405.2599139213562	
87	364.0795600414276	pulse	0	t						406.8601999282837	
87	365.6796989440918	pulse	0	t						408.4603388309479	
87	367.27998208999634	pulse	0	t						410.0606219768524	
87	368.88029408454895	pulse	0	t						411.66093397140503	
