trial_nr	onset	event_type	phase	response	nr_frames	movie_index	movie_duration	movie_file	blank	onset_abs	duration
0	0.15828895568847656	stim	0		5229					23.38690710067749	43.57472205162048
0	43.72503900527954	response	0	space						66.95365715026855	
1	43.73301100730896	stim	0		3006					66.96162915229797	25.05003786087036
1	68.77848601341248	pulse	0	t						92.00710415840149	
1	68.78304886817932	stim	1		1717					92.01166701316833	14.308243989944458
1	70.37489891052246	pulse	1	t						93.60351705551147	
1	71.97486901283264	pulse	1	t						95.20348715782166	
1	73.57465386390686	pulse	1	t						96.80327200889587	
1	75.17481708526611	pulse	1	t						98.40343523025513	
1	76.77489399909973	pulse	1	t						100.00351214408875	
1	78.37426900863647	pulse	1	t						101.60288715362549	
1	79.97442388534546	pulse	1	t						103.20304203033447	
1	81.57458996772766	pulse	1	t						104.80320811271667	
2	83.09129285812378	fix_pre	0		11	0.0	2.5	/experiments/AOT/AOT_stimuli/rescaled_final/0030_fw.mp4	0.0	106.3199110031128	0.09160518646240234
2	83.17473101615906	pulse	0	t		0.0	2.5	/experiments/AOT/AOT_stimuli/rescaled_final/0030_fw.mp4	0.0	106.40334916114807	
2	83.18289804458618	movie	1		247	0.0	2.5	/experiments/AOT/AOT_stimuli/rescaled_final/0030_fw.mp4	0.0	106.4115161895752	2.508312940597534
2	84.77415299415588	pulse	1	t		0.0	2.5	/experiments/AOT/AOT_stimuli/rescaled_final/0030_fw.mp4	0.0	108.0027711391449	
2	85.69121098518372	fix_post	2		12	0.0	2.5	/experiments/AOT/AOT_stimuli/rescaled_final/0030_fw.mp4	0.0	108.91982913017273	0.10000491142272949
3	85.79121589660645	fix_pre	0		120	1.0	2.5	/experiments/AOT/AOT_stimuli/rescaled_final/0224_rv.mp4	0.0	109.01983404159546	1.0001230239868164
3	86.37587189674377	pulse	0	t		1.0	2.5	/experiments/AOT/AOT_stimuli/rescaled_final/0224_rv.mp4	0.0	109.60449004173279	
3	86.79133892059326	movie	1		245	1.0	2.5	/experiments/AOT/AOT_stimuli/rescaled_final/0224_rv.mp4	0.0	110.01995706558228	2.4998080730438232
3	87.97472095489502	pulse	1	t		1.0	2.5	/experiments/AOT/AOT_stimuli/rescaled_final/0224_rv.mp4	0.0	111.20333909988403	
3	89.29114699363708	fix_post	2		12	1.0	2.5	/experiments/AOT/AOT_stimuli/rescaled_final/0224_rv.mp4	0.0	112.5197651386261	0.10002398490905762
4	89.39117097854614	fix_pre	0		120	2.0	2.5	/experiments/AOT/AOT_stimuli/rescaled_final/1962_rv.mp4	0.0	112.61978912353516	0.9999799728393555
4	89.57467699050903	pulse	0	t		2.0	2.5	/experiments/AOT/AOT_stimuli/rescaled_final/1962_rv.mp4	0.0	112.80329513549805	
4	90.3911509513855	movie	1		248	2.0	2.5	/experiments/AOT/AOT_stimuli/rescaled_final/1962_rv.mp4	0.0	113.61976909637451	2.5000669956207275
4	91.17462801933289	pulse	1	t		2.0	2.5	/experiments/AOT/AOT_stimuli/rescaled_final/1962_rv.mp4	0.0	114.4032461643219	
4	92.77459597587585	pulse	1	t		2.0	2.5	/experiments/AOT/AOT_stimuli/rescaled_final/1962_rv.mp4	0.0	116.00321412086487	
4	92.89121794700623	fix_post	2		12	2.0	2.5	/experiments/AOT/AOT_stimuli/rescaled_final/1962_rv.mp4	0.0	116.11983609199524	0.0995340347290039
5	92.99075198173523	fix_pre	0		120	3.0	2.5	/experiments/AOT/AOT_stimuli/rescaled_final/1119_fw.mp4	0.0	116.21937012672424	1.000427007675171
5	93.9911789894104	movie	1		244	3.0	2.5	/experiments/AOT/AOT_stimuli/rescaled_final/1119_fw.mp4	0.0	117.21979713439941	2.499936103820801
5	94.37407207489014	pulse	1	t		3.0	2.5	/experiments/AOT/AOT_stimuli/rescaled_final/1119_fw.mp4	0.0	117.60269021987915	
5	95.97455191612244	pulse	1	t		3.0	2.5	/experiments/AOT/AOT_stimuli/rescaled_final/1119_fw.mp4	0.0	119.20317006111145	
5	96.4911150932312	fix_post	2		12	3.0	2.5	/experiments/AOT/AOT_stimuli/rescaled_final/1119_fw.mp4	0.0	119.71973323822021	0.10003781318664551
6	96.59115290641785	fix_pre	0		119	4.0	2.5	/experiments/AOT/AOT_stimuli/rescaled_final/1281_rv.mp4	0.0	119.81977105140686	0.9916660785675049
6	97.5747230052948	pulse	0	t		4.0	2.5	/experiments/AOT/AOT_stimuli/rescaled_final/1281_rv.mp4	0.0	120.80334115028381	
6	97.58281898498535	movie	1		246	4.0	2.5	/experiments/AOT/AOT_stimuli/rescaled_final/1281_rv.mp4	0.0	120.81143712997437	2.5083088874816895
6	99.17461490631104	pulse	1	t		4.0	2.5	/experiments/AOT/AOT_stimuli/rescaled_final/1281_rv.mp4	0.0	122.40323305130005	
6	100.09112787246704	fix_post	2		12	4.0	2.5	/experiments/AOT/AOT_stimuli/rescaled_final/1281_rv.mp4	0.0	123.31974601745605	0.10002398490905762
7	100.1911518573761	fix_pre	0		120	5.0	2.5	blank	1.0	123.41977000236511	0.999953031539917
7	100.7746798992157	pulse	0	t		5.0	2.5	blank	1.0	124.00329804420471	
7	101.19110488891602	movie	1		300	5.0	2.5	blank	1.0	124.41972303390503	2.5000131130218506
7	102.3746190071106	pulse	1	t		5.0	2.5	blank	1.0	125.60323715209961	
7	103.69111800193787	fix_post	2		12	5.0	2.5	blank	1.0	126.91973614692688	0.09997296333312988
8	103.791090965271	fix_pre	0		120	6.0	2.5	/experiments/AOT/AOT_stimuli/rescaled_final/0449_rv.mp4	0.0	127.01970911026001	1.000072956085205
8	103.9747359752655	pulse	0	t		6.0	2.5	/experiments/AOT/AOT_stimuli/rescaled_final/0449_rv.mp4	0.0	127.20335412025452	
8	104.7911639213562	movie	1		246	6.0	2.5	/experiments/AOT/AOT_stimuli/rescaled_final/0449_rv.mp4	0.0	128.01978206634521	2.4994890689849854
8	105.57458591461182	pulse	1	t		6.0	2.5	/experiments/AOT/AOT_stimuli/rescaled_final/0449_rv.mp4	0.0	128.80320405960083	
8	107.1746609210968	pulse	1	t		6.0	2.5	/experiments/AOT/AOT_stimuli/rescaled_final/0449_rv.mp4	0.0	130.40327906608582	
8	107.29065299034119	fix_post	2		12	6.0	2.5	/experiments/AOT/AOT_stimuli/rescaled_final/0449_rv.mp4	0.0	130.5192711353302	0.09995698928833008
9	107.39060997962952	fix_pre	0		120	7.0	2.5	/experiments/AOT/AOT_stimuli/rescaled_final/0209_fw.mp4	0.0	130.61922812461853	1.0004980564117432
9	108.39110803604126	movie	1		248	7.0	2.5	/experiments/AOT/AOT_stimuli/rescaled_final/0209_fw.mp4	0.0	131.61972618103027	2.5
9	108.77400398254395	pulse	1	t		7.0	2.5	/experiments/AOT/AOT_stimuli/rescaled_final/0209_fw.mp4	0.0	132.00262212753296	
9	110.37455105781555	pulse	1	t		7.0	2.5	/experiments/AOT/AOT_stimuli/rescaled_final/0209_fw.mp4	0.0	133.60316920280457	
9	110.89110803604126	fix_post	2		12	7.0	2.5	/experiments/AOT/AOT_stimuli/rescaled_final/0209_fw.mp4	0.0	134.11972618103027	0.09992289543151855
10	110.99103093147278	fix_pre	0		119	8.0	2.5	/experiments/AOT/AOT_stimuli/rescaled_final/1043_rv.mp4	0.0	134.2196490764618	0.9916770458221436
10	111.97452902793884	pulse	0	t		8.0	2.5	/experiments/AOT/AOT_stimuli/rescaled_final/1043_rv.mp4	0.0	135.20314717292786	
10	111.98270797729492	movie	1		248	8.0	2.5	/experiments/AOT/AOT_stimuli/rescaled_final/1043_rv.mp4	0.0	135.21132612228394	2.5084168910980225
10	113.57433605194092	pulse	1	t		8.0	2.5	/experiments/AOT/AOT_stimuli/rescaled_final/1043_rv.mp4	0.0	136.80295419692993	
10	114.49112486839294	fix_post	2		12	8.0	2.5	/experiments/AOT/AOT_stimuli/rescaled_final/1043_rv.mp4	0.0	137.71974301338196	0.09992408752441406
11	114.59104895591736	fix_pre	0		120	9.0	2.5	/experiments/AOT/AOT_stimuli/rescaled_final/0820_rv.mp4	0.0	137.81966710090637	1.000049114227295
11	115.17584586143494	pulse	0	t		9.0	2.5	/experiments/AOT/AOT_stimuli/rescaled_final/0820_rv.mp4	0.0	138.40446400642395	
11	115.59109807014465	movie	1		243	9.0	2.5	/experiments/AOT/AOT_stimuli/rescaled_final/0820_rv.mp4	0.0	138.81971621513367	2.499952793121338
11	116.77462100982666	pulse	1	t		9.0	2.5	/experiments/AOT/AOT_stimuli/rescaled_final/0820_rv.mp4	0.0	140.00323915481567	
11	118.09105086326599	fix_post	2		12	9.0	2.5	/experiments/AOT/AOT_stimuli/rescaled_final/0820_rv.mp4	0.0	141.319669008255	0.09999799728393555
12	118.19104886054993	fix_pre	0		120	10.0	2.5	/experiments/AOT/AOT_stimuli/rescaled_final/2091_rv.mp4	0.0	141.41966700553894	1.0001931190490723
12	118.37457489967346	pulse	0	t		10.0	2.5	/experiments/AOT/AOT_stimuli/rescaled_final/2091_rv.mp4	0.0	141.60319304466248	
12	119.191241979599	movie	1		244	10.0	2.5	/experiments/AOT/AOT_stimuli/rescaled_final/2091_rv.mp4	0.0	142.419860124588	2.499764919281006
12	119.97453188896179	pulse	1	t		10.0	2.5	/experiments/AOT/AOT_stimuli/rescaled_final/2091_rv.mp4	0.0	143.2031500339508	
12	121.57320499420166	pulse	1	t		10.0	2.5	/experiments/AOT/AOT_stimuli/rescaled_final/2091_rv.mp4	0.0	144.80182313919067	
12	121.69100689888	fix_post	2		12	10.0	2.5	/experiments/AOT/AOT_stimuli/rescaled_final/2091_rv.mp4	0.0	144.91962504386902	0.10004210472106934
13	121.79104900360107	fix_pre	0		120	11.0	2.5	/experiments/AOT/AOT_stimuli/rescaled_final/0187_fw.mp4	0.0	145.0196671485901	1.0000319480895996
13	122.79108095169067	movie	1		244	11.0	2.5	/experiments/AOT/AOT_stimuli/rescaled_final/0187_fw.mp4	0.0	146.0196990966797	2.5000569820404053
13	123.17404007911682	pulse	1	t		11.0	2.5	/experiments/AOT/AOT_stimuli/rescaled_final/0187_fw.mp4	0.0	146.40265822410583	
13	124.77449488639832	pulse	1	t		11.0	2.5	/experiments/AOT/AOT_stimuli/rescaled_final/0187_fw.mp4	0.0	148.00311303138733	
13	125.29113793373108	fix_post	2		12	11.0	2.5	/experiments/AOT/AOT_stimuli/rescaled_final/0187_fw.mp4	0.0	148.5197560787201	0.09984397888183594
14	125.39098191261292	fix_pre	0		119	12.0	2.5	/experiments/AOT/AOT_stimuli/rescaled_final/0234_rv.mp4	0.0	148.61960005760193	0.9916560649871826
14	126.37448906898499	pulse	0	t		12.0	2.5	/experiments/AOT/AOT_stimuli/rescaled_final/0234_rv.mp4	0.0	149.603107213974	
14	126.3826379776001	movie	1		245	12.0	2.5	/experiments/AOT/AOT_stimuli/rescaled_final/0234_rv.mp4	0.0	149.6112561225891	2.508244037628174
14	127.97420597076416	pulse	1	t		12.0	2.5	/experiments/AOT/AOT_stimuli/rescaled_final/0234_rv.mp4	0.0	151.20282411575317	
14	128.89088201522827	fix_post	2		12	12.0	2.5	/experiments/AOT/AOT_stimuli/rescaled_final/0234_rv.mp4	0.0	152.11950016021729	0.1000819206237793
15	128.99096393585205	fix_pre	0		120	13.0	2.5	blank	1.0	152.21958208084106	0.9999971389770508
15	129.57450699806213	pulse	0	t		13.0	2.5	blank	1.0	152.80312514305115	
15	129.9909610748291	movie	1		300	13.0	2.5	blank	1.0	153.21957921981812	2.5000109672546387
15	131.17463207244873	pulse	1	t		13.0	2.5	blank	1.0	154.40325021743774	
15	132.49097204208374	fix_post	2		12	13.0	2.5	blank	1.0	155.71959018707275	0.10000085830688477
16	132.59097290039062	fix_pre	0		120	14.0	2.5	/experiments/AOT/AOT_stimuli/rescaled_final/1508_rv.mp4	0.0	155.81959104537964	1.000128984451294
16	132.77452993392944	pulse	0	t		14.0	2.5	/experiments/AOT/AOT_stimuli/rescaled_final/1508_rv.mp4	0.0	156.00314807891846	
16	133.59110188484192	movie	1		244	14.0	2.5	/experiments/AOT/AOT_stimuli/rescaled_final/1508_rv.mp4	0.0	156.81972002983093	2.4999921321868896
16	134.37401294708252	pulse	1	t		14.0	2.5	/experiments/AOT/AOT_stimuli/rescaled_final/1508_rv.mp4	0.0	157.60263109207153	
16	135.97292685508728	pulse	1	t		14.0	2.5	/experiments/AOT/AOT_stimuli/rescaled_final/1508_rv.mp4	0.0	159.2015450000763	
16	136.0910940170288	fix_post	2		12	14.0	2.5	/experiments/AOT/AOT_stimuli/rescaled_final/1508_rv.mp4	0.0	159.31971216201782	0.09958100318908691
17	136.1906750202179	fix_pre	0		120	15.0	2.5	/experiments/AOT/AOT_stimuli/rescaled_final/2086_rv.mp4	0.0	159.4192931652069	1.0002028942108154
17	137.1908779144287	movie	1		245	15.0	2.5	/experiments/AOT/AOT_stimuli/rescaled_final/2086_rv.mp4	0.0	160.41949605941772	2.500059127807617
17	137.57398390769958	pulse	1	t		15.0	2.5	/experiments/AOT/AOT_stimuli/rescaled_final/2086_rv.mp4	0.0	160.8026020526886	
17	139.1743540763855	pulse	1	t		15.0	2.5	/experiments/AOT/AOT_stimuli/rescaled_final/2086_rv.mp4	0.0	162.4029722213745	
17	139.69093704223633	fix_post	2		12	15.0	2.5	/experiments/AOT/AOT_stimuli/rescaled_final/2086_rv.mp4	0.0	162.91955518722534	0.10002994537353516
18	139.79096698760986	fix_pre	0		119	16.0	2.5	/experiments/AOT/AOT_stimuli/rescaled_final/0431_rv.mp4	0.0	163.01958513259888	0.9916629791259766
18	140.77437901496887	pulse	0	t		16.0	2.5	/experiments/AOT/AOT_stimuli/rescaled_final/0431_rv.mp4	0.0	164.00299715995789	
18	140.78262996673584	movie	1		244	16.0	2.5	/experiments/AOT/AOT_stimuli/rescaled_final/0431_rv.mp4	0.0	164.01124811172485	2.5079140663146973
18	142.37364792823792	pulse	1	t		16.0	2.5	/experiments/AOT/AOT_stimuli/rescaled_final/0431_rv.mp4	0.0	165.60226607322693	
18	143.29054403305054	fix_post	2		12	16.0	2.5	/experiments/AOT/AOT_stimuli/rescaled_final/0431_rv.mp4	0.0	166.51916217803955	0.10034394264221191
19	143.39088797569275	fix_pre	0		120	17.0	2.5	/experiments/AOT/AOT_stimuli/rescaled_final/1585_rv.mp4	0.0	166.61950612068176	0.9999880790710449
19	143.97435688972473	pulse	0	t		17.0	2.5	/experiments/AOT/AOT_stimuli/rescaled_final/1585_rv.mp4	0.0	167.20297503471375	
19	144.3908760547638	movie	1		245	17.0	2.5	/experiments/AOT/AOT_stimuli/rescaled_final/1585_rv.mp4	0.0	167.6194941997528	2.4995768070220947
19	145.57435607910156	pulse	1	t		17.0	2.5	/experiments/AOT/AOT_stimuli/rescaled_final/1585_rv.mp4	0.0	168.80297422409058	
19	146.8904528617859	fix_post	2		12	17.0	2.5	/experiments/AOT/AOT_stimuli/rescaled_final/1585_rv.mp4	0.0	170.1190710067749	0.10046601295471191
20	146.9909188747406	fix_pre	0		120	18.0	2.5	/experiments/AOT/AOT_stimuli/rescaled_final/0334_rv.mp4	0.0	170.21953701972961	0.9999082088470459
20	147.17433285713196	pulse	0	t		18.0	2.5	/experiments/AOT/AOT_stimuli/rescaled_final/0334_rv.mp4	0.0	170.40295100212097	
20	147.99082708358765	movie	1		245	18.0	2.5	/experiments/AOT/AOT_stimuli/rescaled_final/0334_rv.mp4	0.0	171.21944522857666	2.5000178813934326
20	148.77433490753174	pulse	1	t		18.0	2.5	/experiments/AOT/AOT_stimuli/rescaled_final/0334_rv.mp4	0.0	172.00295305252075	
20	150.3745939731598	pulse	1	t		18.0	2.5	/experiments/AOT/AOT_stimuli/rescaled_final/0334_rv.mp4	0.0	173.6032121181488	
20	150.49084496498108	fix_post	2		12	18.0	2.5	/experiments/AOT/AOT_stimuli/rescaled_final/0334_rv.mp4	0.0	173.7194631099701	0.10003399848937988
21	150.59087896347046	fix_pre	0		120	19.0	2.5	/experiments/AOT/AOT_stimuli/rescaled_final/0484_fw.mp4	0.0	173.81949710845947	0.9996209144592285
21	151.5904998779297	movie	1		247	19.0	2.5	/experiments/AOT/AOT_stimuli/rescaled_final/0484_fw.mp4	0.0	174.8191180229187	2.5004160404205322
21	151.9734799861908	pulse	1	t		19.0	2.5	/experiments/AOT/AOT_stimuli/rescaled_final/0484_fw.mp4	0.0	175.2020981311798	
21	153.5742690563202	pulse	1	t		19.0	2.5	/experiments/AOT/AOT_stimuli/rescaled_final/0484_fw.mp4	0.0	176.8028872013092	
21	154.09091591835022	fix_post	2		12	19.0	2.5	/experiments/AOT/AOT_stimuli/rescaled_final/0484_fw.mp4	0.0	177.31953406333923	0.09997105598449707
22	154.19088697433472	fix_pre	0		119	20.0	2.5	blank	1.0	177.41950511932373	0.9916479587554932
22	155.17434787750244	pulse	0	t		20.0	2.5	blank	1.0	178.40296602249146	
22	155.1825349330902	movie	1		301	20.0	2.5	blank	1.0	178.41115307807922	2.5079050064086914
22	156.7742760181427	pulse	1	t		20.0	2.5	blank	1.0	180.0028941631317	
22	157.6904399394989	fix_post	2		12	20.0	2.5	blank	1.0	180.91905808448792	0.10034012794494629
23	157.79078006744385	fix_pre	0		120	21.0	2.5	/experiments/AOT/AOT_stimuli/rescaled_final/0564_fw.mp4	0.0	181.01939821243286	1.0000100135803223
23	158.37434887886047	pulse	0	t		21.0	2.5	/experiments/AOT/AOT_stimuli/rescaled_final/0564_fw.mp4	0.0	181.6029670238495	
23	158.79079008102417	movie	1		244	21.0	2.5	/experiments/AOT/AOT_stimuli/rescaled_final/0564_fw.mp4	0.0	182.01940822601318	2.499619960784912
23	159.97435808181763	pulse	1	t		21.0	2.5	/experiments/AOT/AOT_stimuli/rescaled_final/0564_fw.mp4	0.0	183.20297622680664	
23	161.29041004180908	fix_post	2		12	21.0	2.5	/experiments/AOT/AOT_stimuli/rescaled_final/0564_fw.mp4	0.0	184.5190281867981	0.10045695304870605
24	161.3908669948578	fix_pre	0		120	22.0	2.5	/experiments/AOT/AOT_stimuli/rescaled_final/0916_fw.mp4	0.0	184.6194851398468	0.9998879432678223
24	161.5742928981781	pulse	0	t		22.0	2.5	/experiments/AOT/AOT_stimuli/rescaled_final/0916_fw.mp4	0.0	184.80291104316711	
24	162.3907549381256	movie	1		243	22.0	2.5	/experiments/AOT/AOT_stimuli/rescaled_final/0916_fw.mp4	0.0	185.61937308311462	2.5000200271606445
24	163.17436695098877	pulse	1	t		22.0	2.5	/experiments/AOT/AOT_stimuli/rescaled_final/0916_fw.mp4	0.0	186.40298509597778	
24	164.78276705741882	pulse	1	t		22.0	2.5	/experiments/AOT/AOT_stimuli/rescaled_final/0916_fw.mp4	0.0	188.01138520240784	
24	164.89077496528625	fix_post	2		12	22.0	2.5	/experiments/AOT/AOT_stimuli/rescaled_final/0916_fw.mp4	0.0	188.11939311027527	0.10002398490905762
25	164.9907989501953	fix_pre	0		120	23.0	2.5	/experiments/AOT/AOT_stimuli/rescaled_final/1176_fw.mp4	0.0	188.21941709518433	1.0000169277191162
25	165.99081587791443	movie	1		243	23.0	2.5	/experiments/AOT/AOT_stimuli/rescaled_final/1176_fw.mp4	0.0	189.21943402290344	2.4995501041412354
25	166.37381291389465	pulse	1	t		23.0	2.5	/experiments/AOT/AOT_stimuli/rescaled_final/1176_fw.mp4	0.0	189.60243105888367	
25	167.97427797317505	pulse	1	t		23.0	2.5	/experiments/AOT/AOT_stimuli/rescaled_final/1176_fw.mp4	0.0	191.20289611816406	
25	168.49036598205566	fix_post	2		12	23.0	2.5	/experiments/AOT/AOT_stimuli/rescaled_final/1176_fw.mp4	0.0	191.71898412704468	0.10037899017333984
26	168.590744972229	fix_pre	0		119	24.0	2.5	/experiments/AOT/AOT_stimuli/rescaled_final/1888_fw.mp4	0.0	191.81936311721802	0.9916970729827881
26	169.57433795928955	pulse	0	t		24.0	2.5	/experiments/AOT/AOT_stimuli/rescaled_final/1888_fw.mp4	0.0	192.80295610427856	
26	169.5824420452118	movie	1		246	24.0	2.5	/experiments/AOT/AOT_stimuli/rescaled_final/1888_fw.mp4	0.0	192.8110601902008	2.507889986038208
26	171.17374897003174	pulse	1	t		24.0	2.5	/experiments/AOT/AOT_stimuli/rescaled_final/1888_fw.mp4	0.0	194.40236711502075	
26	172.09033203125	fix_post	2		12	24.0	2.5	/experiments/AOT/AOT_stimuli/rescaled_final/1888_fw.mp4	0.0	195.318950176239	0.10052895545959473
27	172.1908609867096	fix_pre	0		120	25.0	2.5	/experiments/AOT/AOT_stimuli/rescaled_final/1116_rv.mp4	0.0	195.4194791316986	0.9999370574951172
27	172.7743649482727	pulse	0	t		25.0	2.5	/experiments/AOT/AOT_stimuli/rescaled_final/1116_rv.mp4	0.0	196.00298309326172	
27	173.1907980442047	movie	1		244	25.0	2.5	/experiments/AOT/AOT_stimuli/rescaled_final/1116_rv.mp4	0.0	196.41941618919373	2.499537944793701
27	174.3743839263916	pulse	1	t		25.0	2.5	/experiments/AOT/AOT_stimuli/rescaled_final/1116_rv.mp4	0.0	197.60300207138062	
27	175.6903359889984	fix_post	2		12	25.0	2.5	/experiments/AOT/AOT_stimuli/rescaled_final/1116_rv.mp4	0.0	198.91895413398743	0.10036206245422363
28	175.79069805145264	fix_pre	0		120	26.0	2.5	/experiments/AOT/AOT_stimuli/rescaled_final/2163_rv.mp4	0.0	199.01931619644165	1.000074863433838
28	175.97426390647888	pulse	0	t		26.0	2.5	/experiments/AOT/AOT_stimuli/rescaled_final/2163_rv.mp4	0.0	199.2028820514679	
28	176.79077291488647	movie	1		248	26.0	2.5	/experiments/AOT/AOT_stimuli/rescaled_final/2163_rv.mp4	0.0	200.0193910598755	2.500023126602173
28	177.57424807548523	pulse	1	t		26.0	2.5	/experiments/AOT/AOT_stimuli/rescaled_final/2163_rv.mp4	0.0	200.80286622047424	
28	179.17380690574646	pulse	1	t		26.0	2.5	/experiments/AOT/AOT_stimuli/rescaled_final/2163_rv.mp4	0.0	202.40242505073547	
28	179.29079604148865	fix_post	2		12	26.0	2.5	/experiments/AOT/AOT_stimuli/rescaled_final/2163_rv.mp4	0.0	202.51941418647766	0.0998988151550293
29	179.39069485664368	fix_pre	0		120	27.0	2.5	blank	1.0	202.6193130016327	1.0000920295715332
29	180.3907868862152	movie	1		300	27.0	2.5	blank	1.0	203.61940503120422	2.499965190887451
29	180.77420496940613	pulse	1	t		27.0	2.5	blank	1.0	204.00282311439514	
29	182.37426686286926	pulse	1	t		27.0	2.5	blank	1.0	205.60288500785828	
29	182.89075207710266	fix_post	2		12	27.0	2.5	blank	1.0	206.11937022209167	0.10003995895385742
30	182.99079203605652	fix_pre	0		119	28.0	2.5	/experiments/AOT/AOT_stimuli/rescaled_final/1819_rv.mp4	0.0	206.21941018104553	0.9915578365325928
30	183.9742648601532	pulse	0	t		28.0	2.5	/experiments/AOT/AOT_stimuli/rescaled_final/1819_rv.mp4	0.0	207.2028830051422	
30	183.9823498725891	movie	1		246	28.0	2.5	/experiments/AOT/AOT_stimuli/rescaled_final/1819_rv.mp4	0.0	207.21096801757812	2.5084431171417236
30	185.57446599006653	pulse	1	t		28.0	2.5	/experiments/AOT/AOT_stimuli/rescaled_final/1819_rv.mp4	0.0	208.80308413505554	
30	186.49079298973083	fix_post	2		12	28.0	2.5	/experiments/AOT/AOT_stimuli/rescaled_final/1819_rv.mp4	0.0	209.71941113471985	0.09996891021728516
31	186.59076189994812	fix_pre	0		120	29.0	2.5	/experiments/AOT/AOT_stimuli/rescaled_final/1857_fw.mp4	0.0	209.81938004493713	0.999920129776001
31	187.1742298603058	pulse	0	t		29.0	2.5	/experiments/AOT/AOT_stimuli/rescaled_final/1857_fw.mp4	0.0	210.4028480052948	
31	187.59068202972412	movie	1		244	29.0	2.5	/experiments/AOT/AOT_stimuli/rescaled_final/1857_fw.mp4	0.0	210.81930017471313	2.500025987625122
31	188.77430605888367	pulse	1	t		29.0	2.5	/experiments/AOT/AOT_stimuli/rescaled_final/1857_fw.mp4	0.0	212.00292420387268	
31	190.09070801734924	fix_post	2		12	29.0	2.5	/experiments/AOT/AOT_stimuli/rescaled_final/1857_fw.mp4	0.0	213.31932616233826	0.1002190113067627
32	190.190927028656	fix_pre	0		120	30.0	2.5	/experiments/AOT/AOT_stimuli/rescaled_final/0085_fw.mp4	0.0	213.41954517364502	0.9998400211334229
32	190.37434792518616	pulse	0	t		30.0	2.5	/experiments/AOT/AOT_stimuli/rescaled_final/0085_fw.mp4	0.0	213.60296607017517	
32	191.19076704978943	movie	1		247	30.0	2.5	/experiments/AOT/AOT_stimuli/rescaled_final/0085_fw.mp4	0.0	214.41938519477844	2.499764919281006
32	191.9738359451294	pulse	1	t		30.0	2.5	/experiments/AOT/AOT_stimuli/rescaled_final/0085_fw.mp4	0.0	215.2024540901184	
32	193.5745279788971	pulse	1	t		30.0	2.5	/experiments/AOT/AOT_stimuli/rescaled_final/0085_fw.mp4	0.0	216.8031461238861	
32	193.69053196907043	fix_post	2		12	30.0	2.5	/experiments/AOT/AOT_stimuli/rescaled_final/0085_fw.mp4	0.0	216.91915011405945	0.10019803047180176
33	193.79072999954224	fix_pre	0		120	31.0	2.5	/experiments/AOT/AOT_stimuli/rescaled_final/0514_fw.mp4	0.0	217.01934814453125	0.9999949932098389
33	194.79072499275208	movie	1		245	31.0	2.5	/experiments/AOT/AOT_stimuli/rescaled_final/0514_fw.mp4	0.0	218.0193431377411	2.4999139308929443
33	195.173681974411	pulse	1	t		31.0	2.5	/experiments/AOT/AOT_stimuli/rescaled_final/0514_fw.mp4	0.0	218.40230011940002	
33	196.7740399837494	pulse	1	t		31.0	2.5	/experiments/AOT/AOT_stimuli/rescaled_final/0514_fw.mp4	0.0	220.0026581287384	
33	197.29063892364502	fix_post	2		12	31.0	2.5	/experiments/AOT/AOT_stimuli/rescaled_final/0514_fw.mp4	0.0	220.51925706863403	0.09999513626098633
34	197.390634059906	fix_pre	0		119	32.0	2.5	/experiments/AOT/AOT_stimuli/rescaled_final/2069_fw.mp4	0.0	220.61925220489502	0.991602897644043
34	198.37406301498413	pulse	0	t		32.0	2.5	/experiments/AOT/AOT_stimuli/rescaled_final/2069_fw.mp4	0.0	221.60268115997314	
34	198.38223695755005	movie	1		248	32.0	2.5	/experiments/AOT/AOT_stimuli/rescaled_final/2069_fw.mp4	0.0	221.61085510253906	2.508397102355957
34	199.97510504722595	pulse	1	t		32.0	2.5	/experiments/AOT/AOT_stimuli/rescaled_final/2069_fw.mp4	0.0	223.20372319221497	
34	200.890634059906	fix_post	2		12	32.0	2.5	/experiments/AOT/AOT_stimuli/rescaled_final/2069_fw.mp4	0.0	224.11925220489502	0.09999799728393555
35	200.99063205718994	fix_pre	0		120	33.0	2.5	/experiments/AOT/AOT_stimuli/rescaled_final/0224_rv.mp4	0.0	224.21925020217896	0.9999289512634277
35	201.57405996322632	pulse	0	t		33.0	2.5	/experiments/AOT/AOT_stimuli/rescaled_final/0224_rv.mp4	0.0	224.80267810821533	
35	201.99056100845337	movie	1		246	33.0	2.5	/experiments/AOT/AOT_stimuli/rescaled_final/0224_rv.mp4	0.0	225.21917915344238	2.5000898838043213
35	203.17417693138123	pulse	1	t		33.0	2.5	/experiments/AOT/AOT_stimuli/rescaled_final/0224_rv.mp4	0.0	226.40279507637024	
35	204.4906508922577	fix_post	2		12	33.0	2.5	/experiments/AOT/AOT_stimuli/rescaled_final/0224_rv.mp4	0.0	227.7192690372467	0.09990215301513672
36	204.59055304527283	fix_pre	0		120	34.0	2.5	blank	1.0	227.81917119026184	0.9996979236602783
36	204.7740399837494	pulse	0	t		34.0	2.5	blank	1.0	228.0026581287384	
36	205.5902509689331	movie	1		300	34.0	2.5	blank	1.0	228.81886911392212	2.500351905822754
36	206.3740599155426	pulse	1	t		34.0	2.5	blank	1.0	229.60267806053162	
36	207.97403287887573	pulse	1	t		34.0	2.5	blank	1.0	231.20265102386475	
36	208.09060287475586	fix_post	2		12	34.0	2.5	blank	1.0	231.31922101974487	0.09998202323913574
37	208.190584897995	fix_pre	0		120	35.0	2.5	/experiments/AOT/AOT_stimuli/rescaled_final/0219_fw.mp4	0.0	231.419203042984	1.0000181198120117
37	209.190603017807	movie	1		244	35.0	2.5	/experiments/AOT/AOT_stimuli/rescaled_final/0219_fw.mp4	0.0	232.41922116279602	2.500037908554077
37	209.57399892807007	pulse	1	t		35.0	2.5	/experiments/AOT/AOT_stimuli/rescaled_final/0219_fw.mp4	0.0	232.80261707305908	
37	211.1740140914917	pulse	1	t		35.0	2.5	/experiments/AOT/AOT_stimuli/rescaled_final/0219_fw.mp4	0.0	234.4026322364807	
37	211.69064092636108	fix_post	2		12	35.0	2.5	/experiments/AOT/AOT_stimuli/rescaled_final/0219_fw.mp4	0.0	234.9192590713501	0.09989213943481445
38	211.7905330657959	fix_pre	0		119	36.0	2.5	/experiments/AOT/AOT_stimuli/rescaled_final/2067_fw.mp4	0.0	235.0191512107849	0.9916880130767822
38	212.77404403686523	pulse	0	t		36.0	2.5	/experiments/AOT/AOT_stimuli/rescaled_final/2067_fw.mp4	0.0	236.00266218185425	
38	212.78222107887268	movie	1		246	36.0	2.5	/experiments/AOT/AOT_stimuli/rescaled_final/2067_fw.mp4	0.0	236.0108392238617	2.50791597366333
38	214.37351989746094	pulse	1	t		36.0	2.5	/experiments/AOT/AOT_stimuli/rescaled_final/2067_fw.mp4	0.0	237.60213804244995	
38	215.290137052536	fix_post	2		12	36.0	2.5	/experiments/AOT/AOT_stimuli/rescaled_final/2067_fw.mp4	0.0	238.51875519752502	0.10050296783447266
39	215.39064002037048	fix_pre	0		120	37.0	2.5	/experiments/AOT/AOT_stimuli/rescaled_final/0627_fw.mp4	0.0	238.6192581653595	1.0000109672546387
39	215.97398495674133	pulse	0	t		37.0	2.5	/experiments/AOT/AOT_stimuli/rescaled_final/0627_fw.mp4	0.0	239.20260310173035	
39	216.39065098762512	movie	1		246	37.0	2.5	/experiments/AOT/AOT_stimuli/rescaled_final/0627_fw.mp4	0.0	239.61926913261414	2.4994730949401855
39	217.57416105270386	pulse	1	t		37.0	2.5	/experiments/AOT/AOT_stimuli/rescaled_final/0627_fw.mp4	0.0	240.80277919769287	
39	218.8901240825653	fix_post	2		12	37.0	2.5	/experiments/AOT/AOT_stimuli/rescaled_final/0627_fw.mp4	0.0	242.11874222755432	0.10040998458862305
40	218.99053406715393	fix_pre	0		120	38.0	2.5	/experiments/AOT/AOT_stimuli/rescaled_final/0964_rv.mp4	0.0	242.21915221214294	0.9999759197235107
40	219.17399907112122	pulse	0	t		38.0	2.5	/experiments/AOT/AOT_stimuli/rescaled_final/0964_rv.mp4	0.0	242.40261721611023	
40	219.99050998687744	movie	1		243	38.0	2.5	/experiments/AOT/AOT_stimuli/rescaled_final/0964_rv.mp4	0.0	243.21912813186646	2.499988079071045
40	220.77403497695923	pulse	1	t		38.0	2.5	/experiments/AOT/AOT_stimuli/rescaled_final/0964_rv.mp4	0.0	244.00265312194824	
40	222.38250994682312	pulse	1	t		38.0	2.5	/experiments/AOT/AOT_stimuli/rescaled_final/0964_rv.mp4	0.0	245.61112809181213	
40	222.4904980659485	fix_post	2		12	38.0	2.5	/experiments/AOT/AOT_stimuli/rescaled_final/0964_rv.mp4	0.0	245.7191162109375	0.10013484954833984
41	222.59063291549683	fix_pre	0		120	39.0	2.5	/experiments/AOT/AOT_stimuli/rescaled_final/1176_rv.mp4	0.0	245.81925106048584	0.9998331069946289
41	223.59046602249146	movie	1		244	39.0	2.5	/experiments/AOT/AOT_stimuli/rescaled_final/1176_rv.mp4	0.0	246.81908416748047	2.500005006790161
41	223.97377586364746	pulse	1	t		39.0	2.5	/experiments/AOT/AOT_stimuli/rescaled_final/1176_rv.mp4	0.0	247.20239400863647	
41	225.57409000396729	pulse	1	t		39.0	2.5	/experiments/AOT/AOT_stimuli/rescaled_final/1176_rv.mp4	0.0	248.8027081489563	
41	226.09047102928162	fix_post	2		12	39.0	2.5	/experiments/AOT/AOT_stimuli/rescaled_final/1176_rv.mp4	0.0	249.31908917427063	0.10007286071777344
42	226.1905438899994	fix_pre	0		119	40.0	2.5	blank	1.0	249.4191620349884	0.9916670322418213
42	227.1740369796753	pulse	0	t		40.0	2.5	blank	1.0	250.4026551246643	
42	227.1822109222412	movie	1		301	40.0	2.5	blank	1.0	250.41082906723022	2.5078489780426025
42	228.77401304244995	pulse	1	t		40.0	2.5	blank	1.0	252.00263118743896	
42	229.6900599002838	fix_post	2		12	40.0	2.5	blank	1.0	252.91867804527283	0.10041117668151855
43	229.79047107696533	fix_pre	0		120	41.0	2.5	/experiments/AOT/AOT_stimuli/rescaled_final/2049_fw.mp4	0.0	253.01908922195435	1.0
43	230.37392807006836	pulse	0	t		41.0	2.5	/experiments/AOT/AOT_stimuli/rescaled_final/2049_fw.mp4	0.0	253.60254621505737	
43	230.79047107696533	movie	1		243	41.0	2.5	/experiments/AOT/AOT_stimuli/rescaled_final/2049_fw.mp4	0.0	254.01908922195435	2.4999988079071045
43	231.97405290603638	pulse	1	t		41.0	2.5	/experiments/AOT/AOT_stimuli/rescaled_final/2049_fw.mp4	0.0	255.2026710510254	
43	233.29046988487244	fix_post	2		12	41.0	2.5	/experiments/AOT/AOT_stimuli/rescaled_final/2049_fw.mp4	0.0	256.51908802986145	0.10002303123474121
44	233.39049291610718	fix_pre	0		120	42.0	2.5	/experiments/AOT/AOT_stimuli/rescaled_final/0172_fw.mp4	0.0	256.6191110610962	1.0000360012054443
44	233.5740029811859	pulse	0	t		42.0	2.5	/experiments/AOT/AOT_stimuli/rescaled_final/0172_fw.mp4	0.0	256.8026211261749	
44	234.39052891731262	movie	1		245	42.0	2.5	/experiments/AOT/AOT_stimuli/rescaled_final/0172_fw.mp4	0.0	257.61914706230164	2.5000221729278564
44	235.17407488822937	pulse	1	t		42.0	2.5	/experiments/AOT/AOT_stimuli/rescaled_final/0172_fw.mp4	0.0	258.4026930332184	
44	236.77397799491882	pulse	1	t		42.0	2.5	/experiments/AOT/AOT_stimuli/rescaled_final/0172_fw.mp4	0.0	260.00259613990784	
44	236.89055109024048	fix_post	2		12	42.0	2.5	/experiments/AOT/AOT_stimuli/rescaled_final/0172_fw.mp4	0.0	260.1191692352295	0.09990596771240234
45	236.99045705795288	fix_pre	0		120	43.0	2.5	/experiments/AOT/AOT_stimuli/rescaled_final/1153_fw.mp4	0.0	260.2190752029419	1.0000319480895996
45	237.99048900604248	movie	1		244	43.0	2.5	/experiments/AOT/AOT_stimuli/rescaled_final/1153_fw.mp4	0.0	261.2191071510315	2.499500036239624
45	238.3734359741211	pulse	1	t		43.0	2.5	/experiments/AOT/AOT_stimuli/rescaled_final/1153_fw.mp4	0.0	261.6020541191101	
45	239.9740068912506	pulse	1	t		43.0	2.5	/experiments/AOT/AOT_stimuli/rescaled_final/1153_fw.mp4	0.0	263.2026250362396	
45	240.4899890422821	fix_post	2		12	43.0	2.5	/experiments/AOT/AOT_stimuli/rescaled_final/1153_fw.mp4	0.0	263.7186071872711	0.1004488468170166
46	240.59043788909912	fix_pre	0		119	44.0	2.5	/experiments/AOT/AOT_stimuli/rescaled_final/0202_fw.mp4	0.0	263.81905603408813	0.9918060302734375
46	241.57389402389526	pulse	0	t		44.0	2.5	/experiments/AOT/AOT_stimuli/rescaled_final/0202_fw.mp4	0.0	264.8025121688843	
46	241.58224391937256	movie	1		246	44.0	2.5	/experiments/AOT/AOT_stimuli/rescaled_final/0202_fw.mp4	0.0	264.8108620643616	2.5083019733428955
46	243.17399191856384	pulse	1	t		44.0	2.5	/experiments/AOT/AOT_stimuli/rescaled_final/0202_fw.mp4	0.0	266.40261006355286	
46	244.09054589271545	fix_post	2		12	44.0	2.5	/experiments/AOT/AOT_stimuli/rescaled_final/0202_fw.mp4	0.0	267.31916403770447	0.099884033203125
47	244.19042992591858	fix_pre	0		120	45.0	2.5	/experiments/AOT/AOT_stimuli/rescaled_final/1927_fw.mp4	0.0	267.4190480709076	0.9996860027313232
47	244.77395796775818	pulse	0	t		45.0	2.5	/experiments/AOT/AOT_stimuli/rescaled_final/1927_fw.mp4	0.0	268.0025761127472	
47	245.1901159286499	movie	1		247	45.0	2.5	/experiments/AOT/AOT_stimuli/rescaled_final/1927_fw.mp4	0.0	268.4187340736389	2.5001139640808105
47	246.37408304214478	pulse	1	t		45.0	2.5	/experiments/AOT/AOT_stimuli/rescaled_final/1927_fw.mp4	0.0	269.6027011871338	
47	247.6902298927307	fix_post	2		12	45.0	2.5	/experiments/AOT/AOT_stimuli/rescaled_final/1927_fw.mp4	0.0	270.9188480377197	0.09999513626098633
48	247.7902250289917	fix_pre	0		120	46.0	2.5	/experiments/AOT/AOT_stimuli/rescaled_final/1429_rv.mp4	0.0	271.0188431739807	1.0000698566436768
48	247.97373795509338	pulse	0	t		46.0	2.5	/experiments/AOT/AOT_stimuli/rescaled_final/1429_rv.mp4	0.0	271.2023561000824	
48	248.79029488563538	movie	1		245	46.0	2.5	/experiments/AOT/AOT_stimuli/rescaled_final/1429_rv.mp4	0.0	272.0189130306244	2.4997780323028564
48	249.57386994361877	pulse	1	t		46.0	2.5	/experiments/AOT/AOT_stimuli/rescaled_final/1429_rv.mp4	0.0	272.8024880886078	
48	251.1823709011078	pulse	1	t		46.0	2.5	/experiments/AOT/AOT_stimuli/rescaled_final/1429_rv.mp4	0.0	274.4109890460968	
48	251.29007291793823	fix_post	2		12	46.0	2.5	/experiments/AOT/AOT_stimuli/rescaled_final/1429_rv.mp4	0.0	274.51869106292725	0.10038900375366211
49	251.3904619216919	fix_pre	0		120	47.0	2.5	/experiments/AOT/AOT_stimuli/rescaled_final/0267_rv.mp4	0.0	274.6190800666809	0.99993896484375
49	252.39040088653564	movie	1		245	47.0	2.5	/experiments/AOT/AOT_stimuli/rescaled_final/0267_rv.mp4	0.0	275.61901903152466	2.499544143676758
49	252.77359795570374	pulse	1	t		47.0	2.5	/experiments/AOT/AOT_stimuli/rescaled_final/0267_rv.mp4	0.0	276.00221610069275	
49	254.37383103370667	pulse	1	t		47.0	2.5	/experiments/AOT/AOT_stimuli/rescaled_final/0267_rv.mp4	0.0	277.6024491786957	
49	254.8899450302124	fix_post	2		12	47.0	2.5	/experiments/AOT/AOT_stimuli/rescaled_final/0267_rv.mp4	0.0	278.1185631752014	0.10038185119628906
50	254.9903268814087	fix_pre	0		119	48.0	2.5	blank	1.0	278.2189450263977	0.9916679859161377
50	255.9738690853119	pulse	0	t		48.0	2.5	blank	1.0	279.2024872303009	
50	255.98199486732483	movie	1		301	48.0	2.5	blank	1.0	279.21061301231384	2.5084030628204346
50	257.5738480091095	pulse	1	t		48.0	2.5	blank	1.0	280.8024661540985	
50	258.49039793014526	fix_post	2		12	48.0	2.5	blank	1.0	281.7190160751343	0.10004305839538574
51	258.59044098854065	fix_pre	0		120	49.0	2.5	/experiments/AOT/AOT_stimuli/rescaled_final/1110_rv.mp4	0.0	281.81905913352966	0.9999408721923828
51	259.17383003234863	pulse	0	t		49.0	2.5	/experiments/AOT/AOT_stimuli/rescaled_final/1110_rv.mp4	0.0	282.40244817733765	
51	259.59038186073303	movie	1		245	49.0	2.5	/experiments/AOT/AOT_stimuli/rescaled_final/1110_rv.mp4	0.0	282.81900000572205	2.5000100135803223
51	260.77397894859314	pulse	1	t		49.0	2.5	/experiments/AOT/AOT_stimuli/rescaled_final/1110_rv.mp4	0.0	284.00259709358215	
51	262.09039187431335	fix_post	2		12	49.0	2.5	/experiments/AOT/AOT_stimuli/rescaled_final/1110_rv.mp4	0.0	285.31901001930237	0.10000801086425781
52	262.1903998851776	fix_pre	0		120	50.0	2.5	/experiments/AOT/AOT_stimuli/rescaled_final/1499_fw.mp4	0.0	285.4190180301666	0.9999911785125732
52	262.37388706207275	pulse	0	t		50.0	2.5	/experiments/AOT/AOT_stimuli/rescaled_final/1499_fw.mp4	0.0	285.60250520706177	
52	263.1903910636902	movie	1		245	50.0	2.5	/experiments/AOT/AOT_stimuli/rescaled_final/1499_fw.mp4	0.0	286.4190092086792	2.499926805496216
52	263.9739029407501	pulse	1	t		50.0	2.5	/experiments/AOT/AOT_stimuli/rescaled_final/1499_fw.mp4	0.0	287.20252108573914	
52	265.5822250843048	pulse	1	t		50.0	2.5	/experiments/AOT/AOT_stimuli/rescaled_final/1499_fw.mp4	0.0	288.8108432292938	
52	265.6903178691864	fix_post	2		12	50.0	2.5	/experiments/AOT/AOT_stimuli/rescaled_final/1499_fw.mp4	0.0	288.9189360141754	0.10004806518554688
53	265.79036593437195	fix_pre	0		120	51.0	2.5	/experiments/AOT/AOT_stimuli/rescaled_final/1574_fw.mp4	0.0	289.01898407936096	0.9999890327453613
53	266.7903549671173	movie	1		244	51.0	2.5	/experiments/AOT/AOT_stimuli/rescaled_final/1574_fw.mp4	0.0	290.0189731121063	2.5000290870666504
53	267.1736478805542	pulse	1	t		51.0	2.5	/experiments/AOT/AOT_stimuli/rescaled_final/1574_fw.mp4	0.0	290.4022660255432	
53	268.7738530635834	pulse	1	t		51.0	2.5	/experiments/AOT/AOT_stimuli/rescaled_final/1574_fw.mp4	0.0	292.0024712085724	
53	269.29038405418396	fix_post	2		12	51.0	2.5	/experiments/AOT/AOT_stimuli/rescaled_final/1574_fw.mp4	0.0	292.519002199173	0.09990787506103516
54	269.390291929245	fix_pre	0		119	52.0	2.5	/experiments/AOT/AOT_stimuli/rescaled_final/0355_fw.mp4	0.0	292.618910074234	0.991765022277832
54	270.3738839626312	pulse	0	t		52.0	2.5	/experiments/AOT/AOT_stimuli/rescaled_final/0355_fw.mp4	0.0	293.60250210762024	
54	270.3820569515228	movie	1		246	52.0	2.5	/experiments/AOT/AOT_stimuli/rescaled_final/0355_fw.mp4	0.0	293.61067509651184	2.5082530975341797
54	271.9736239910126	pulse	1	t		52.0	2.5	/experiments/AOT/AOT_stimuli/rescaled_final/0355_fw.mp4	0.0	295.2022421360016	
54	272.890310049057	fix_post	2		12	52.0	2.5	/experiments/AOT/AOT_stimuli/rescaled_final/0355_fw.mp4	0.0	296.118928194046	0.1000208854675293
55	272.99033093452454	fix_pre	0		120	53.0	2.5	/experiments/AOT/AOT_stimuli/rescaled_final/0748_fw.mp4	0.0	296.21894907951355	0.9999849796295166
55	273.57376289367676	pulse	0	t		53.0	2.5	/experiments/AOT/AOT_stimuli/rescaled_final/0748_fw.mp4	0.0	296.80238103866577	
55	273.99031591415405	movie	1		246	53.0	2.5	/experiments/AOT/AOT_stimuli/rescaled_final/0748_fw.mp4	0.0	297.21893405914307	2.5000159740448
55	275.17390489578247	pulse	1	t		53.0	2.5	/experiments/AOT/AOT_stimuli/rescaled_final/0748_fw.mp4	0.0	298.4025230407715	
55	276.49033188819885	fix_post	2		12	53.0	2.5	/experiments/AOT/AOT_stimuli/rescaled_final/0748_fw.mp4	0.0	299.71895003318787	0.1000211238861084
56	276.59035301208496	fix_pre	0		120	54.0	2.5	blank	1.0	299.818971157074	0.9995119571685791
56	276.7738070487976	pulse	0	t		54.0	2.5	blank	1.0	300.0024251937866	
56	277.58986496925354	movie	1		300	54.0	2.5	blank	1.0	300.81848311424255	2.500412940979004
56	278.3737418651581	pulse	1	t		54.0	2.5	blank	1.0	301.6023600101471	
56	279.9738099575043	pulse	1	t		54.0	2.5	blank	1.0	303.2024281024933	
56	280.09027791023254	fix_post	2		12	54.0	2.5	blank	1.0	303.31889605522156	0.09998297691345215
57	280.190260887146	fix_pre	0		120	55.0	2.5	/experiments/AOT/AOT_stimuli/rescaled_final/1901_fw.mp4	0.0	303.418879032135	1.0000641345977783
57	281.1903250217438	movie	1		245	55.0	2.5	/experiments/AOT/AOT_stimuli/rescaled_final/1901_fw.mp4	0.0	304.4189431667328	2.499906063079834
57	281.57343101501465	pulse	1	t		55.0	2.5	/experiments/AOT/AOT_stimuli/rescaled_final/1901_fw.mp4	0.0	304.80204916000366	
57	283.1737160682678	pulse	1	t		55.0	2.5	/experiments/AOT/AOT_stimuli/rescaled_final/1901_fw.mp4	0.0	306.40233421325684	
57	283.6902310848236	fix_post	2		12	55.0	2.5	/experiments/AOT/AOT_stimuli/rescaled_final/1901_fw.mp4	0.0	306.9188492298126	0.10001182556152344
58	283.79024291038513	fix_pre	0		119	56.0	2.5	/experiments/AOT/AOT_stimuli/rescaled_final/0793_rv.mp4	0.0	307.01886105537415	0.9916510581970215
58	284.7737400531769	pulse	0	t		56.0	2.5	/experiments/AOT/AOT_stimuli/rescaled_final/0793_rv.mp4	0.0	308.0023581981659	
58	284.78189396858215	movie	1		246	56.0	2.5	/experiments/AOT/AOT_stimuli/rescaled_final/0793_rv.mp4	0.0	308.01051211357117	2.508402109146118
58	286.38219594955444	pulse	1	t		56.0	2.5	/experiments/AOT/AOT_stimuli/rescaled_final/0793_rv.mp4	0.0	309.61081409454346	
58	287.29029607772827	fix_post	2		12	56.0	2.5	/experiments/AOT/AOT_stimuli/rescaled_final/0793_rv.mp4	0.0	310.5189142227173	0.0999598503112793
59	287.39025592803955	fix_pre	0		120	57.0	2.5	/experiments/AOT/AOT_stimuli/rescaled_final/1760_fw.mp4	0.0	310.61887407302856	1.000067949295044
59	287.97372794151306	pulse	0	t		57.0	2.5	/experiments/AOT/AOT_stimuli/rescaled_final/1760_fw.mp4	0.0	311.2023460865021	
59	288.3903238773346	movie	1		245	57.0	2.5	/experiments/AOT/AOT_stimuli/rescaled_final/1760_fw.mp4	0.0	311.6189420223236	2.499873161315918
59	289.57371187210083	pulse	1	t		57.0	2.5	/experiments/AOT/AOT_stimuli/rescaled_final/1760_fw.mp4	0.0	312.80233001708984	
59	290.8901970386505	fix_post	2		12	57.0	2.5	/experiments/AOT/AOT_stimuli/rescaled_final/1760_fw.mp4	0.0	314.1188151836395	0.10001993179321289
60	290.9902169704437	fix_pre	0		120	58.0	2.5	/experiments/AOT/AOT_stimuli/rescaled_final/0997_fw.mp4	0.0	314.21883511543274	1.0000391006469727
60	291.17370986938477	pulse	0	t		58.0	2.5	/experiments/AOT/AOT_stimuli/rescaled_final/0997_fw.mp4	0.0	314.4023280143738	
60	291.9902560710907	movie	1		245	58.0	2.5	/experiments/AOT/AOT_stimuli/rescaled_final/0997_fw.mp4	0.0	315.2188742160797	2.4999959468841553
60	292.77371287345886	pulse	1	t		58.0	2.5	/experiments/AOT/AOT_stimuli/rescaled_final/0997_fw.mp4	0.0	316.0023310184479	
60	294.3737280368805	pulse	1	t		58.0	2.5	/experiments/AOT/AOT_stimuli/rescaled_final/0997_fw.mp4	0.0	317.6023461818695	
60	294.49025201797485	fix_post	2		12	58.0	2.5	/experiments/AOT/AOT_stimuli/rescaled_final/0997_fw.mp4	0.0	317.71887016296387	0.09995484352111816
61	294.590206861496	fix_pre	0		120	59.0	2.5	/experiments/AOT/AOT_stimuli/rescaled_final/0288_fw.mp4	0.0	317.818825006485	1.0000181198120117
61	295.590224981308	movie	1		244	59.0	2.5	/experiments/AOT/AOT_stimuli/rescaled_final/0288_fw.mp4	0.0	318.818843126297	2.499985933303833
61	295.97368597984314	pulse	1	t		59.0	2.5	/experiments/AOT/AOT_stimuli/rescaled_final/0288_fw.mp4	0.0	319.20230412483215	
61	297.5737769603729	pulse	1	t		59.0	2.5	/experiments/AOT/AOT_stimuli/rescaled_final/0288_fw.mp4	0.0	320.80239510536194	
61	298.0902109146118	fix_post	2		12	59.0	2.5	/experiments/AOT/AOT_stimuli/rescaled_final/0288_fw.mp4	0.0	321.31882905960083	0.1000070571899414
62	298.19021797180176	fix_pre	0		119	60.0	2.5	/experiments/AOT/AOT_stimuli/rescaled_final/1641_rv.mp4	0.0	321.41883611679077	0.9916620254516602
62	299.1736469268799	pulse	0	t		60.0	2.5	/experiments/AOT/AOT_stimuli/rescaled_final/1641_rv.mp4	0.0	322.4022650718689	
62	299.1818799972534	movie	1		245	60.0	2.5	/experiments/AOT/AOT_stimuli/rescaled_final/1641_rv.mp4	0.0	322.41049814224243	2.5083670616149902
62	300.7820279598236	pulse	1	t		60.0	2.5	/experiments/AOT/AOT_stimuli/rescaled_final/1641_rv.mp4	0.0	324.0106461048126	
62	301.6902470588684	fix_post	2		12	60.0	2.5	/experiments/AOT/AOT_stimuli/rescaled_final/1641_rv.mp4	0.0	324.9188652038574	0.09997892379760742
63	301.790225982666	fix_pre	0		120	61.0	2.5	blank	1.0	325.01884412765503	0.9999990463256836
63	302.37380194664	pulse	0	t		61.0	2.5	blank	1.0	325.602420091629	
63	302.7902250289917	movie	1		300	61.0	2.5	blank	1.0	326.0188431739807	2.4999380111694336
63	303.9738459587097	pulse	1	t		61.0	2.5	blank	1.0	327.20246410369873	
63	305.29016304016113	fix_post	2		12	61.0	2.5	blank	1.0	328.51878118515015	0.10005593299865723
64	305.3902189731598	fix_pre	0		120	62.0	2.5	/experiments/AOT/AOT_stimuli/rescaled_final/1962_rv.mp4	0.0	328.6188371181488	1.0000250339508057
64	305.57372999191284	pulse	0	t		62.0	2.5	/experiments/AOT/AOT_stimuli/rescaled_final/1962_rv.mp4	0.0	328.80234813690186	
64	306.3902440071106	movie	1		247	62.0	2.5	/experiments/AOT/AOT_stimuli/rescaled_final/1962_rv.mp4	0.0	329.6188621520996	2.5000648498535156
64	307.1735808849335	pulse	1	t		62.0	2.5	/experiments/AOT/AOT_stimuli/rescaled_final/1962_rv.mp4	0.0	330.4021990299225	
64	308.773640871048	pulse	1	t		62.0	2.5	/experiments/AOT/AOT_stimuli/rescaled_final/1962_rv.mp4	0.0	332.002259016037	
64	308.8903088569641	fix_post	2		12	62.0	2.5	/experiments/AOT/AOT_stimuli/rescaled_final/1962_rv.mp4	0.0	332.1189270019531	0.09987401962280273
65	308.9901828765869	fix_pre	0		120	63.0	2.5	/experiments/AOT/AOT_stimuli/rescaled_final/2179_rv.mp4	0.0	332.2188010215759	1.000042200088501
65	309.9902250766754	movie	1		244	63.0	2.5	/experiments/AOT/AOT_stimuli/rescaled_final/2179_rv.mp4	0.0	333.21884322166443	2.499508857727051
65	310.37375497817993	pulse	1	t		63.0	2.5	/experiments/AOT/AOT_stimuli/rescaled_final/2179_rv.mp4	0.0	333.60237312316895	
65	311.9735679626465	pulse	1	t		63.0	2.5	/experiments/AOT/AOT_stimuli/rescaled_final/2179_rv.mp4	0.0	335.2021861076355	
65	312.48973393440247	fix_post	2		12	63.0	2.5	/experiments/AOT/AOT_stimuli/rescaled_final/2179_rv.mp4	0.0	335.7183520793915	0.10039997100830078
66	312.59013390541077	fix_pre	0		119	64.0	2.5	/experiments/AOT/AOT_stimuli/rescaled_final/1676_rv.mp4	0.0	335.8187520503998	0.9916741847991943
66	313.5736379623413	pulse	0	t		64.0	2.5	/experiments/AOT/AOT_stimuli/rescaled_final/1676_rv.mp4	0.0	336.8022561073303	
66	313.58180809020996	movie	1		246	64.0	2.5	/experiments/AOT/AOT_stimuli/rescaled_final/1676_rv.mp4	0.0	336.810426235199	2.508274793624878
66	315.1732840538025	pulse	1	t		64.0	2.5	/experiments/AOT/AOT_stimuli/rescaled_final/1676_rv.mp4	0.0	338.4019021987915	
66	316.09008288383484	fix_post	2		12	64.0	2.5	/experiments/AOT/AOT_stimuli/rescaled_final/1676_rv.mp4	0.0	339.31870102882385	0.10001707077026367
67	316.1900999546051	fix_pre	0		120	65.0	2.5	/experiments/AOT/AOT_stimuli/rescaled_final/1339_fw.mp4	0.0	339.4187180995941	1.0000131130218506
67	316.7736349105835	pulse	0	t		65.0	2.5	/experiments/AOT/AOT_stimuli/rescaled_final/1339_fw.mp4	0.0	340.0022530555725	
67	317.19011306762695	movie	1		244	65.0	2.5	/experiments/AOT/AOT_stimuli/rescaled_final/1339_fw.mp4	0.0	340.41873121261597	2.500046968460083
67	318.37370204925537	pulse	1	t		65.0	2.5	/experiments/AOT/AOT_stimuli/rescaled_final/1339_fw.mp4	0.0	341.6023201942444	
67	319.69016003608704	fix_post	2		12	65.0	2.5	/experiments/AOT/AOT_stimuli/rescaled_final/1339_fw.mp4	0.0	342.91877818107605	0.09994792938232422
68	319.79010796546936	fix_pre	0		120	66.0	2.5	/experiments/AOT/AOT_stimuli/rescaled_final/0314_fw.mp4	0.0	343.0187261104584	1.000072956085205
68	319.97362303733826	pulse	0	t		66.0	2.5	/experiments/AOT/AOT_stimuli/rescaled_final/0314_fw.mp4	0.0	343.20224118232727	
68	320.79018092155457	movie	1		244	66.0	2.5	/experiments/AOT/AOT_stimuli/rescaled_final/0314_fw.mp4	0.0	344.0187990665436	2.4999730587005615
68	321.5735619068146	pulse	1	t		66.0	2.5	/experiments/AOT/AOT_stimuli/rescaled_final/0314_fw.mp4	0.0	344.8021800518036	
68	323.1820089817047	pulse	1	t		66.0	2.5	/experiments/AOT/AOT_stimuli/rescaled_final/0314_fw.mp4	0.0	346.4106271266937	
68	323.2901539802551	fix_post	2		12	66.0	2.5	/experiments/AOT/AOT_stimuli/rescaled_final/0314_fw.mp4	0.0	346.51877212524414	0.09992599487304688
69	323.3900799751282	fix_pre	0		120	67.0	2.5	/experiments/AOT/AOT_stimuli/rescaled_final/1382_fw.mp4	0.0	346.6186981201172	1.0000190734863281
69	324.3900990486145	movie	1		244	67.0	2.5	/experiments/AOT/AOT_stimuli/rescaled_final/1382_fw.mp4	0.0	347.6187171936035	2.500006914138794
69	324.77381587028503	pulse	1	t		67.0	2.5	/experiments/AOT/AOT_stimuli/rescaled_final/1382_fw.mp4	0.0	348.00243401527405	
69	326.3735730648041	pulse	1	t		67.0	2.5	/experiments/AOT/AOT_stimuli/rescaled_final/1382_fw.mp4	0.0	349.6021912097931	
69	326.8901059627533	fix_post	2		12	67.0	2.5	/experiments/AOT/AOT_stimuli/rescaled_final/1382_fw.mp4	0.0	350.1187241077423	0.0999901294708252
70	326.9900960922241	fix_pre	0		119	68.0	2.5	blank	1.0	350.21871423721313	0.9916648864746094
70	327.97364497184753	pulse	0	t		68.0	2.5	blank	1.0	351.20226311683655	
70	327.98176097869873	movie	1		301	68.0	2.5	blank	1.0	351.21037912368774	2.508357048034668
70	329.57360792160034	pulse	1	t		68.0	2.5	blank	1.0	352.80222606658936	
70	330.4901180267334	fix_post	2		12	68.0	2.5	blank	1.0	353.7187361717224	0.09998703002929688
71	330.5901050567627	fix_pre	0		120	69.0	2.5	/experiments/AOT/AOT_stimuli/rescaled_final/0172_fw.mp4	0.0	353.8187232017517	0.99993896484375
71	331.17366099357605	pulse	0	t		69.0	2.5	/experiments/AOT/AOT_stimuli/rescaled_final/0172_fw.mp4	0.0	354.40227913856506	
71	331.59004402160645	movie	1		244	69.0	2.5	/experiments/AOT/AOT_stimuli/rescaled_final/0172_fw.mp4	0.0	354.81866216659546	2.500035047531128
71	332.7745349407196	pulse	1	t		69.0	2.5	/experiments/AOT/AOT_stimuli/rescaled_final/0172_fw.mp4	0.0	356.0031530857086	
71	334.0900790691376	fix_post	2		12	69.0	2.5	/experiments/AOT/AOT_stimuli/rescaled_final/0172_fw.mp4	0.0	357.3186972141266	0.10004281997680664
72	334.1901218891144	fix_pre	0		120	70.0	2.5	/experiments/AOT/AOT_stimuli/rescaled_final/2067_fw.mp4	0.0	357.4187400341034	0.9999511241912842
72	334.37364888191223	pulse	0	t		70.0	2.5	/experiments/AOT/AOT_stimuli/rescaled_final/2067_fw.mp4	0.0	357.60226702690125	
72	335.19007301330566	movie	1		243	70.0	2.5	/experiments/AOT/AOT_stimuli/rescaled_final/2067_fw.mp4	0.0	358.4186911582947	2.500005006790161
72	335.9735360145569	pulse	1	t		70.0	2.5	/experiments/AOT/AOT_stimuli/rescaled_final/2067_fw.mp4	0.0	359.2021541595459	
72	337.58192205429077	pulse	1	t		70.0	2.5	/experiments/AOT/AOT_stimuli/rescaled_final/2067_fw.mp4	0.0	360.8105401992798	
72	337.6900780200958	fix_post	2		12	70.0	2.5	/experiments/AOT/AOT_stimuli/rescaled_final/2067_fw.mp4	0.0	360.91869616508484	0.09989786148071289
73	337.78997588157654	fix_pre	0		120	71.0	2.5	/experiments/AOT/AOT_stimuli/rescaled_final/1281_fw.mp4	0.0	361.01859402656555	0.9996340274810791
73	338.7896099090576	movie	1		245	71.0	2.5	/experiments/AOT/AOT_stimuli/rescaled_final/1281_fw.mp4	0.0	362.01822805404663	2.5005011558532715
73	339.1733589172363	pulse	1	t		71.0	2.5	/experiments/AOT/AOT_stimuli/rescaled_final/1281_fw.mp4	0.0	362.40197706222534	
73	340.77372193336487	pulse	1	t		71.0	2.5	/experiments/AOT/AOT_stimuli/rescaled_final/1281_fw.mp4	0.0	364.0023400783539	
73	341.2901110649109	fix_post	2		12	71.0	2.5	/experiments/AOT/AOT_stimuli/rescaled_final/1281_fw.mp4	0.0	364.5187292098999	0.0999298095703125
74	341.3900408744812	fix_pre	0		119	72.0	2.5	/experiments/AOT/AOT_stimuli/rescaled_final/0449_fw.mp4	0.0	364.6186590194702	0.9916460514068604
74	342.3734700679779	pulse	0	t		72.0	2.5	/experiments/AOT/AOT_stimuli/rescaled_final/0449_fw.mp4	0.0	365.6020882129669	
74	342.38168692588806	movie	1		246	72.0	2.5	/experiments/AOT/AOT_stimuli/rescaled_final/0449_fw.mp4	0.0	365.6103050708771	2.507909059524536
74	343.97320795059204	pulse	1	t		72.0	2.5	/experiments/AOT/AOT_stimuli/rescaled_final/0449_fw.mp4	0.0	367.20182609558105	
74	344.8895959854126	fix_post	2		12	72.0	2.5	/experiments/AOT/AOT_stimuli/rescaled_final/0449_fw.mp4	0.0	368.1182141304016	0.10042309761047363
75	344.99001908302307	fix_pre	0		120	73.0	2.5	/experiments/AOT/AOT_stimuli/rescaled_final/1508_rv.mp4	0.0	368.2186372280121	0.9996459484100342
75	345.5734369754791	pulse	0	t		73.0	2.5	/experiments/AOT/AOT_stimuli/rescaled_final/1508_rv.mp4	0.0	368.80205512046814	
75	345.9896650314331	movie	1		243	73.0	2.5	/experiments/AOT/AOT_stimuli/rescaled_final/1508_rv.mp4	0.0	369.2182831764221	2.500377893447876
75	347.1735620498657	pulse	1	t		73.0	2.5	/experiments/AOT/AOT_stimuli/rescaled_final/1508_rv.mp4	0.0	370.40218019485474	
75	348.490042924881	fix_post	2		12	73.0	2.5	/experiments/AOT/AOT_stimuli/rescaled_final/1508_rv.mp4	0.0	371.71866106987	0.09991812705993652
76	348.5899610519409	fix_pre	0		120	74.0	2.5	/experiments/AOT/AOT_stimuli/rescaled_final/1585_rv.mp4	0.0	371.81857919692993	1.0000638961791992
76	348.7743890285492	pulse	0	t		74.0	2.5	/experiments/AOT/AOT_stimuli/rescaled_final/1585_rv.mp4	0.0	372.0030071735382	
76	349.5900249481201	movie	1		245	74.0	2.5	/experiments/AOT/AOT_stimuli/rescaled_final/1585_rv.mp4	0.0	372.81864309310913	2.4999871253967285
76	350.37439703941345	pulse	1	t		74.0	2.5	/experiments/AOT/AOT_stimuli/rescaled_final/1585_rv.mp4	0.0	373.60301518440247	
76	351.97357988357544	pulse	1	t		74.0	2.5	/experiments/AOT/AOT_stimuli/rescaled_final/1585_rv.mp4	0.0	375.20219802856445	
76	352.09001207351685	fix_post	2		12	74.0	2.5	/experiments/AOT/AOT_stimuli/rescaled_final/1585_rv.mp4	0.0	375.31863021850586	0.10006499290466309
77	352.1900770664215	fix_pre	0		120	75.0	2.5	blank	1.0	375.4186952114105	0.9999909400939941
77	353.1900680065155	movie	1		300	75.0	2.5	blank	1.0	376.4186861515045	2.5001518726348877
77	353.57347798347473	pulse	1	t		75.0	2.5	blank	1.0	376.80209612846375	
77	355.17343306541443	pulse	1	t		75.0	2.5	blank	1.0	378.40205121040344	
77	355.6902198791504	fix_post	2		12	75.0	2.5	blank	1.0	378.9188380241394	0.09971404075622559
78	355.7899339199066	fix_pre	0		119	76.0	2.5	/experiments/AOT/AOT_stimuli/rescaled_final/0675_fw.mp4	0.0	379.01855206489563	0.9917490482330322
78	356.7735528945923	pulse	0	t		76.0	2.5	/experiments/AOT/AOT_stimuli/rescaled_final/0675_fw.mp4	0.0	380.0021710395813	
78	356.78168296813965	movie	1		245	76.0	2.5	/experiments/AOT/AOT_stimuli/rescaled_final/0675_fw.mp4	0.0	380.01030111312866	2.5081100463867188
78	358.3736529350281	pulse	1	t		76.0	2.5	/experiments/AOT/AOT_stimuli/rescaled_final/0675_fw.mp4	0.0	381.6022710800171	
78	359.28979301452637	fix_post	2		12	76.0	2.5	/experiments/AOT/AOT_stimuli/rescaled_final/0675_fw.mp4	0.0	382.5184111595154	0.09989690780639648
79	359.38968992233276	fix_pre	0		120	77.0	2.5	/experiments/AOT/AOT_stimuli/rescaled_final/0338_fw.mp4	0.0	382.6183080673218	1.0001189708709717
79	359.97327995300293	pulse	0	t		77.0	2.5	/experiments/AOT/AOT_stimuli/rescaled_final/0338_fw.mp4	0.0	383.20189809799194	
79	360.38980889320374	movie	1		244	77.0	2.5	/experiments/AOT/AOT_stimuli/rescaled_final/0338_fw.mp4	0.0	383.61842703819275	2.4997661113739014
79	361.5735170841217	pulse	1	t		77.0	2.5	/experiments/AOT/AOT_stimuli/rescaled_final/0338_fw.mp4	0.0	384.8021352291107	
79	362.88957500457764	fix_post	2		12	77.0	2.5	/experiments/AOT/AOT_stimuli/rescaled_final/0338_fw.mp4	0.0	386.11819314956665	0.1004629135131836
80	362.9900379180908	fix_pre	0		120	78.0	2.5	/experiments/AOT/AOT_stimuli/rescaled_final/1766_rv.mp4	0.0	386.21865606307983	0.9998891353607178
80	363.1734809875488	pulse	0	t		78.0	2.5	/experiments/AOT/AOT_stimuli/rescaled_final/1766_rv.mp4	0.0	386.40209913253784	
80	363.98992705345154	movie	1		244	78.0	2.5	/experiments/AOT/AOT_stimuli/rescaled_final/1766_rv.mp4	0.0	387.21854519844055	2.5
80	364.77435994148254	pulse	1	t		78.0	2.5	/experiments/AOT/AOT_stimuli/rescaled_final/1766_rv.mp4	0.0	388.00297808647156	
80	366.3818130493164	pulse	1	t		78.0	2.5	/experiments/AOT/AOT_stimuli/rescaled_final/1766_rv.mp4	0.0	389.6104311943054	
80	366.48992705345154	fix_post	2		12	78.0	2.5	/experiments/AOT/AOT_stimuli/rescaled_final/1766_rv.mp4	0.0	389.71854519844055	0.10002684593200684
81	366.58995389938354	fix_pre	0		120	79.0	2.5	/experiments/AOT/AOT_stimuli/rescaled_final/2147_fw.mp4	0.0	389.81857204437256	0.9999980926513672
81	367.5899519920349	movie	1		245	79.0	2.5	/experiments/AOT/AOT_stimuli/rescaled_final/2147_fw.mp4	0.0	390.8185701370239	2.4999349117279053
81	367.9817888736725	pulse	1	t		79.0	2.5	/experiments/AOT/AOT_stimuli/rescaled_final/2147_fw.mp4	0.0	391.2104070186615	
81	369.5743360519409	pulse	1	t		79.0	2.5	/experiments/AOT/AOT_stimuli/rescaled_final/2147_fw.mp4	0.0	392.80295419692993	
81	370.0898869037628	fix_post	2		12	79.0	2.5	/experiments/AOT/AOT_stimuli/rescaled_final/2147_fw.mp4	0.0	393.31850504875183	0.09998607635498047
82	370.1898729801178	fix_pre	0		120	80.0	2.5	/experiments/AOT/AOT_stimuli/rescaled_final/0838_rv.mp4	0.0	393.4184911251068	1.0000340938568115
82	371.174192905426	pulse	0	t		80.0	2.5	/experiments/AOT/AOT_stimuli/rescaled_final/0838_rv.mp4	0.0	394.40281105041504	
82	371.1899070739746	movie	1		247	80.0	2.5	/experiments/AOT/AOT_stimuli/rescaled_final/0838_rv.mp4	0.0	394.4185252189636	2.5083749294281006
82	372.7733368873596	pulse	1	t		80.0	2.5	/experiments/AOT/AOT_stimuli/rescaled_final/0838_rv.mp4	0.0	396.00195503234863	
82	373.6982820034027	fix_post	2		12	80.0	2.5	/experiments/AOT/AOT_stimuli/rescaled_final/0838_rv.mp4	0.0	396.9269001483917	0.099945068359375
83	373.7982270717621	fix_pre	0		120	81.0	2.5	/experiments/AOT/AOT_stimuli/rescaled_final/1499_rv.mp4	0.0	397.0268452167511	1.0000219345092773
83	374.3734669685364	pulse	0	t		81.0	2.5	/experiments/AOT/AOT_stimuli/rescaled_final/1499_rv.mp4	0.0	397.6020851135254	
83	374.79824900627136	movie	1		245	81.0	2.5	/experiments/AOT/AOT_stimuli/rescaled_final/1499_rv.mp4	0.0	398.0268671512604	2.4999589920043945
83	375.98179388046265	pulse	1	t		81.0	2.5	/experiments/AOT/AOT_stimuli/rescaled_final/1499_rv.mp4	0.0	399.21041202545166	
83	377.29820799827576	fix_post	2		12	81.0	2.5	/experiments/AOT/AOT_stimuli/rescaled_final/1499_rv.mp4	0.0	400.52682614326477	0.0999910831451416
84	377.3981990814209	fix_pre	0		120	82.0	2.5	blank	1.0	400.6268172264099	0.9997179508209229
84	377.57337403297424	pulse	0	t		82.0	2.5	blank	1.0	400.80199217796326	
84	378.3979170322418	movie	1		300	82.0	2.5	blank	1.0	401.62653517723083	2.5003068447113037
84	379.173367023468	pulse	1	t		82.0	2.5	blank	1.0	402.40198516845703	
84	380.7741310596466	pulse	1	t		82.0	2.5	blank	1.0	404.0027492046356	
84	380.8982238769531	fix_post	2		12	82.0	2.5	blank	1.0	404.12684202194214	0.0999441146850586
85	380.9981679916382	fix_pre	0		120	83.0	2.5	/experiments/AOT/AOT_stimuli/rescaled_final/0023_fw.mp4	0.0	404.2267861366272	1.0000250339508057
85	381.998193025589	movie	1		244	83.0	2.5	/experiments/AOT/AOT_stimuli/rescaled_final/0023_fw.mp4	0.0	405.226811170578	2.5000858306884766
85	382.38125705718994	pulse	1	t		83.0	2.5	/experiments/AOT/AOT_stimuli/rescaled_final/0023_fw.mp4	0.0	405.60987520217896	
85	383.97432589530945	pulse	1	t		83.0	2.5	/experiments/AOT/AOT_stimuli/rescaled_final/0023_fw.mp4	0.0	407.20294404029846	
85	384.49827885627747	fix_post	2		12	83.0	2.5	/experiments/AOT/AOT_stimuli/rescaled_final/0023_fw.mp4	0.0	407.7268970012665	0.09988808631896973
87	384.59816694259644	stim	0		1716					407.82678508758545	14.300007104873657
87	385.57425904273987	pulse	0	t						408.8028771877289	
87	387.1733069419861	pulse	0	t						410.4019250869751	
87	388.77334094047546	pulse	0	t						412.0019590854645	
87	390.37327098846436	pulse	0	t						413.60188913345337	
87	391.97329807281494	pulse	0	t						415.20191621780396	
87	393.57329392433167	pulse	0	t						416.8019120693207	
87	395.1732859611511	pulse	0	t						418.40190410614014	
87	396.77423095703125	pulse	0	t						420.00284910202026	
87	398.3743600845337	pulse	0	t						421.6029782295227	
