trial_nr	onset	event_type	phase	response	nr_frames	movie_index	movie_duration	movie_file	blank	onset_abs	duration
0	0.2083749771118164	stim	0		242					103.69315695762634	2.0167739391326904
0	2.2169580459594727	response	0	space						105.701740026474	
1	2.225148916244507	stim	0		18493					105.70993089675903	154.14175820350647
1	156.35713005065918	pulse	0	t						259.8419120311737	
1	156.36690711975098	stim	1		1715					259.8516891002655	14.300047874450684
1	157.94861888885498	pulse	1	t						261.4334008693695	
1	159.54879093170166	pulse	1	t						263.0335729122162	
1	161.1489679813385	pulse	1	t						264.633749961853	
1	162.74937510490417	pulse	1	t						266.2341570854187	
1	164.34967398643494	pulse	1	t						267.83445596694946	
1	165.94978094100952	pulse	1	t						269.43456292152405	
1	167.54990792274475	pulse	1	t						271.0346899032593	
1	169.15032196044922	pulse	1	t						272.63510394096375	
2	170.66695499420166	fix_pre	0		11	0.0	2.5	/experiments/knapen_AOT/AOT_stimuli/rescaled_final/0694_rv.mp4	0.0	274.1517369747162	0.09163594245910645
2	170.75075006484985	pulse	0	t		0.0	2.5	/experiments/knapen_AOT/AOT_stimuli/rescaled_final/0694_rv.mp4	0.0	274.2355320453644	
2	170.75859093666077	movie	1		243	0.0	2.5	/experiments/knapen_AOT/AOT_stimuli/rescaled_final/0694_rv.mp4	0.0	274.2433729171753	2.508754014968872
2	172.35199093818665	pulse	1	t		0.0	2.5	/experiments/knapen_AOT/AOT_stimuli/rescaled_final/0694_rv.mp4	0.0	275.8367729187012	
2	173.26734495162964	fix_post	2		12	0.0	2.5	/experiments/knapen_AOT/AOT_stimuli/rescaled_final/0694_rv.mp4	0.0	276.75212693214417	0.10003995895385742
3	173.3673849105835	fix_pre	0		120	1.0	2.5	/experiments/knapen_AOT/AOT_stimuli/rescaled_final/0307_fw.mp4	0.0	276.852166891098	1.0001440048217773
3	173.9509150981903	pulse	0	t		1.0	2.5	/experiments/knapen_AOT/AOT_stimuli/rescaled_final/0307_fw.mp4	0.0	277.43569707870483	
3	174.36752891540527	movie	1		243	1.0	2.5	/experiments/knapen_AOT/AOT_stimuli/rescaled_final/0307_fw.mp4	0.0	277.8523108959198	2.5003321170806885
3	175.55135011672974	pulse	1	t		1.0	2.5	/experiments/knapen_AOT/AOT_stimuli/rescaled_final/0307_fw.mp4	0.0	279.03613209724426	
3	176.86786103248596	fix_post	2		12	1.0	2.5	/experiments/knapen_AOT/AOT_stimuli/rescaled_final/0307_fw.mp4	0.0	280.3526430130005	0.10002303123474121
4	176.9678840637207	fix_pre	0		120	2.0	2.5	/experiments/knapen_AOT/AOT_stimuli/rescaled_final/1986_fw.mp4	0.0	280.45266604423523	1.0001518726348877
4	177.15153193473816	pulse	0	t		2.0	2.5	/experiments/knapen_AOT/AOT_stimuli/rescaled_final/1986_fw.mp4	0.0	280.6363139152527	
4	177.9680359363556	movie	1		244	2.0	2.5	/experiments/knapen_AOT/AOT_stimuli/rescaled_final/1986_fw.mp4	0.0	281.4528179168701	2.5003750324249268
4	178.75186800956726	pulse	1	t		2.0	2.5	/experiments/knapen_AOT/AOT_stimuli/rescaled_final/1986_fw.mp4	0.0	282.2366499900818	
4	180.35212397575378	pulse	1	t		2.0	2.5	/experiments/knapen_AOT/AOT_stimuli/rescaled_final/1986_fw.mp4	0.0	283.8369059562683	
4	180.46841096878052	fix_post	2		12	2.0	2.5	/experiments/knapen_AOT/AOT_stimuli/rescaled_final/1986_fw.mp4	0.0	283.95319294929504	0.10003304481506348
5	180.56844401359558	fix_pre	0		120	3.0	2.5	/experiments/knapen_AOT/AOT_stimuli/rescaled_final/0350_fw.mp4	0.0	284.0532259941101	1.0001220703125
5	181.56856608390808	movie	1		242	3.0	2.5	/experiments/knapen_AOT/AOT_stimuli/rescaled_final/0350_fw.mp4	0.0	285.0533480644226	2.492060899734497
5	181.95413398742676	pulse	1	t		3.0	2.5	/experiments/knapen_AOT/AOT_stimuli/rescaled_final/0350_fw.mp4	0.0	285.4389159679413	
5	183.552472114563	pulse	1	t		3.0	2.5	/experiments/knapen_AOT/AOT_stimuli/rescaled_final/0350_fw.mp4	0.0	287.0372540950775	
5	184.06062698364258	fix_post	2		12	3.0	2.5	/experiments/knapen_AOT/AOT_stimuli/rescaled_final/0350_fw.mp4	0.0	287.5454089641571	0.10003304481506348
6	184.16066002845764	fix_pre	0		120	4.0	2.5	/experiments/knapen_AOT/AOT_stimuli/rescaled_final/1236_fw.mp4	0.0	287.64544200897217	1.0001020431518555
6	185.15274691581726	pulse	0	t		4.0	2.5	/experiments/knapen_AOT/AOT_stimuli/rescaled_final/1236_fw.mp4	0.0	288.6375288963318	
6	185.1607620716095	movie	1		244	4.0	2.5	/experiments/knapen_AOT/AOT_stimuli/rescaled_final/1236_fw.mp4	0.0	288.645544052124	2.5087099075317383
6	186.75416111946106	pulse	1	t		4.0	2.5	/experiments/knapen_AOT/AOT_stimuli/rescaled_final/1236_fw.mp4	0.0	290.2389430999756	
6	187.66947197914124	fix_post	2		12	4.0	2.5	/experiments/knapen_AOT/AOT_stimuli/rescaled_final/1236_fw.mp4	0.0	291.15425395965576	0.10004401206970215
7	187.76951599121094	fix_pre	0		120	5.0	2.5	blank	1.0	291.25429797172546	1.0001530647277832
7	188.3456859588623	pulse	0	t		5.0	2.5	blank	1.0	291.83046793937683	
7	188.76966905593872	movie	1		300	5.0	2.5	blank	1.0	292.25445103645325	2.5003418922424316
7	189.9457709789276	pulse	1	t		5.0	2.5	blank	1.0	293.43055295944214	
7	191.27001094818115	fix_post	2		12	5.0	2.5	blank	1.0	294.7547929286957	0.1000521183013916
8	191.37006306648254	fix_pre	0		120	6.0	2.5	/experiments/knapen_AOT/AOT_stimuli/rescaled_final/1307_fw.mp4	0.0	294.85484504699707	1.0001349449157715
8	191.54600596427917	pulse	0	t		6.0	2.5	/experiments/knapen_AOT/AOT_stimuli/rescaled_final/1307_fw.mp4	0.0	295.0307879447937	
8	192.37019801139832	movie	1		245	6.0	2.5	/experiments/knapen_AOT/AOT_stimuli/rescaled_final/1307_fw.mp4	0.0	295.85497999191284	2.5003650188446045
8	193.14637804031372	pulse	1	t		6.0	2.5	/experiments/knapen_AOT/AOT_stimuli/rescaled_final/1307_fw.mp4	0.0	296.63116002082825	
8	194.74666810035706	pulse	1	t		6.0	2.5	/experiments/knapen_AOT/AOT_stimuli/rescaled_final/1307_fw.mp4	0.0	298.2314500808716	
8	194.87056303024292	fix_post	2		12	6.0	2.5	/experiments/knapen_AOT/AOT_stimuli/rescaled_final/1307_fw.mp4	0.0	298.35534501075745	0.09999990463256836
9	194.9705629348755	fix_pre	0		120	7.0	2.5	/experiments/knapen_AOT/AOT_stimuli/rescaled_final/1051_fw.mp4	0.0	298.45534491539	1.000148057937622
9	195.9707109928131	movie	1		243	7.0	2.5	/experiments/knapen_AOT/AOT_stimuli/rescaled_final/1051_fw.mp4	0.0	299.45549297332764	2.4920639991760254
9	196.34602308273315	pulse	1	t		7.0	2.5	/experiments/knapen_AOT/AOT_stimuli/rescaled_final/1051_fw.mp4	0.0	299.8308050632477	
9	197.94625902175903	pulse	1	t		7.0	2.5	/experiments/knapen_AOT/AOT_stimuli/rescaled_final/1051_fw.mp4	0.0	301.43104100227356	
9	198.46277499198914	fix_post	2		12	7.0	2.5	/experiments/knapen_AOT/AOT_stimuli/rescaled_final/1051_fw.mp4	0.0	301.94755697250366	0.0999910831451416
10	198.56276607513428	fix_pre	0		119	8.0	2.5	/experiments/knapen_AOT/AOT_stimuli/rescaled_final/1845_rv.mp4	0.0	302.0475480556488	0.9918918609619141
10	199.54652404785156	pulse	0	t		8.0	2.5	/experiments/knapen_AOT/AOT_stimuli/rescaled_final/1845_rv.mp4	0.0	303.0313060283661	
10	199.5546579360962	movie	1		244	8.0	2.5	/experiments/knapen_AOT/AOT_stimuli/rescaled_final/1845_rv.mp4	0.0	303.0394399166107	2.508697032928467
10	201.14714694023132	pulse	1	t		8.0	2.5	/experiments/knapen_AOT/AOT_stimuli/rescaled_final/1845_rv.mp4	0.0	304.63192892074585	
10	202.06335496902466	fix_post	2		12	8.0	2.5	/experiments/knapen_AOT/AOT_stimuli/rescaled_final/1845_rv.mp4	0.0	305.5481369495392	0.10013008117675781
11	202.16348505020142	fix_pre	0		120	9.0	2.5	/experiments/knapen_AOT/AOT_stimuli/rescaled_final/1977_rv.mp4	0.0	305.64826703071594	1.0000009536743164
11	202.7468900680542	pulse	0	t		9.0	2.5	/experiments/knapen_AOT/AOT_stimuli/rescaled_final/1977_rv.mp4	0.0	306.2316720485687	
11	203.16348600387573	movie	1		240	9.0	2.5	/experiments/knapen_AOT/AOT_stimuli/rescaled_final/1977_rv.mp4	0.0	306.64826798439026	2.500349998474121
11	204.34723901748657	pulse	1	t		9.0	2.5	/experiments/knapen_AOT/AOT_stimuli/rescaled_final/1977_rv.mp4	0.0	307.8320209980011	
11	205.66383600234985	fix_post	2		12	9.0	2.5	/experiments/knapen_AOT/AOT_stimuli/rescaled_final/1977_rv.mp4	0.0	309.1486179828644	0.10001611709594727
12	205.7638521194458	fix_pre	0		120	10.0	2.5	/experiments/knapen_AOT/AOT_stimuli/rescaled_final/0494_rv.mp4	0.0	309.2486340999603	1.0001678466796875
12	205.94743704795837	pulse	0	t		10.0	2.5	/experiments/knapen_AOT/AOT_stimuli/rescaled_final/0494_rv.mp4	0.0	309.4322190284729	
12	206.7640199661255	movie	1		243	10.0	2.5	/experiments/knapen_AOT/AOT_stimuli/rescaled_final/0494_rv.mp4	0.0	310.24880194664	2.5004401206970215
12	207.5477418899536	pulse	1	t		10.0	2.5	/experiments/knapen_AOT/AOT_stimuli/rescaled_final/0494_rv.mp4	0.0	311.03252387046814	
12	209.14792108535767	pulse	1	t		10.0	2.5	/experiments/knapen_AOT/AOT_stimuli/rescaled_final/0494_rv.mp4	0.0	312.6327030658722	
12	209.2644600868225	fix_post	2		12	10.0	2.5	/experiments/knapen_AOT/AOT_stimuli/rescaled_final/0494_rv.mp4	0.0	312.74924206733704	0.09991288185119629
13	209.3643729686737	fix_pre	0		120	11.0	2.5	/experiments/knapen_AOT/AOT_stimuli/rescaled_final/0644_rv.mp4	0.0	312.84915494918823	1.0001580715179443
13	210.36453104019165	movie	1		242	11.0	2.5	/experiments/knapen_AOT/AOT_stimuli/rescaled_final/0644_rv.mp4	0.0	313.8493130207062	2.4920520782470703
13	210.7526340484619	pulse	1	t		11.0	2.5	/experiments/knapen_AOT/AOT_stimuli/rescaled_final/0644_rv.mp4	0.0	314.23741602897644	
13	212.34837794303894	pulse	1	t		11.0	2.5	/experiments/knapen_AOT/AOT_stimuli/rescaled_final/0644_rv.mp4	0.0	315.83315992355347	
13	212.85658311843872	fix_post	2		12	11.0	2.5	/experiments/knapen_AOT/AOT_stimuli/rescaled_final/0644_rv.mp4	0.0	316.34136509895325	0.09999489784240723
14	212.95657801628113	fix_pre	0		120	12.0	2.5	/experiments/knapen_AOT/AOT_stimuli/rescaled_final/1241_fw.mp4	0.0	316.44135999679565	1.0001680850982666
14	213.9486620426178	pulse	0	t		12.0	2.5	/experiments/knapen_AOT/AOT_stimuli/rescaled_final/1241_fw.mp4	0.0	317.4334440231323	
14	213.9567461013794	movie	1		245	12.0	2.5	/experiments/knapen_AOT/AOT_stimuli/rescaled_final/1241_fw.mp4	0.0	317.4415280818939	2.508704900741577
14	215.54937291145325	pulse	1	t		12.0	2.5	/experiments/knapen_AOT/AOT_stimuli/rescaled_final/1241_fw.mp4	0.0	319.0341548919678	
14	216.46545100212097	fix_post	2		12	12.0	2.5	/experiments/knapen_AOT/AOT_stimuli/rescaled_final/1241_fw.mp4	0.0	319.9502329826355	0.10005497932434082
15	216.5655059814453	fix_pre	0		120	13.0	2.5	/experiments/knapen_AOT/AOT_stimuli/rescaled_final/1236_rv.mp4	0.0	320.05028796195984	1.0001180171966553
15	217.14912509918213	pulse	0	t		13.0	2.5	/experiments/knapen_AOT/AOT_stimuli/rescaled_final/1236_rv.mp4	0.0	320.63390707969666	
15	217.56562399864197	movie	1		243	13.0	2.5	/experiments/knapen_AOT/AOT_stimuli/rescaled_final/1236_rv.mp4	0.0	321.0504059791565	2.5003490447998047
15	218.74939894676208	pulse	1	t		13.0	2.5	/experiments/knapen_AOT/AOT_stimuli/rescaled_final/1236_rv.mp4	0.0	322.2341809272766	
15	220.06597304344177	fix_post	2		12	13.0	2.5	/experiments/knapen_AOT/AOT_stimuli/rescaled_final/1236_rv.mp4	0.0	323.5507550239563	0.10001707077026367
16	220.16599011421204	fix_pre	0		120	14.0	2.5	blank	1.0	323.65077209472656	1.0001399517059326
16	220.34952998161316	pulse	0	t		14.0	2.5	blank	1.0	323.8343119621277	
16	221.16613006591797	movie	1		300	14.0	2.5	blank	1.0	324.6509120464325	2.5004239082336426
16	221.9498701095581	pulse	1	t		14.0	2.5	blank	1.0	325.43465209007263	
16	223.55002903938293	pulse	1	t		14.0	2.5	blank	1.0	327.03481101989746	
16	223.6665539741516	fix_post	2		12	14.0	2.5	blank	1.0	327.15133595466614	0.0999760627746582
17	223.76653003692627	fix_pre	0		120	15.0	2.5	/experiments/knapen_AOT/AOT_stimuli/rescaled_final/1022_fw.mp4	0.0	327.2513120174408	1.0001659393310547
17	224.76669597625732	movie	1		243	15.0	2.5	/experiments/knapen_AOT/AOT_stimuli/rescaled_final/1022_fw.mp4	0.0	328.25147795677185	2.4920151233673096
17	225.1516830921173	pulse	1	t		15.0	2.5	/experiments/knapen_AOT/AOT_stimuli/rescaled_final/1022_fw.mp4	0.0	328.63646507263184	
17	226.75053310394287	pulse	1	t		15.0	2.5	/experiments/knapen_AOT/AOT_stimuli/rescaled_final/1022_fw.mp4	0.0	330.2353150844574	
17	227.25871109962463	fix_post	2		12	15.0	2.5	/experiments/knapen_AOT/AOT_stimuli/rescaled_final/1022_fw.mp4	0.0	330.74349308013916	0.10003900527954102
18	227.35875010490417	fix_pre	0		120	16.0	2.5	/experiments/knapen_AOT/AOT_stimuli/rescaled_final/0987_fw.mp4	0.0	330.8435320854187	1.0001518726348877
18	228.35083103179932	pulse	0	t		16.0	2.5	/experiments/knapen_AOT/AOT_stimuli/rescaled_final/0987_fw.mp4	0.0	331.83561301231384	
18	228.35890197753906	movie	1		245	16.0	2.5	/experiments/knapen_AOT/AOT_stimuli/rescaled_final/0987_fw.mp4	0.0	331.8436839580536	2.508723020553589
18	229.95174288749695	pulse	1	t		16.0	2.5	/experiments/knapen_AOT/AOT_stimuli/rescaled_final/0987_fw.mp4	0.0	333.4365248680115	
18	230.86762499809265	fix_post	2		12	16.0	2.5	/experiments/knapen_AOT/AOT_stimuli/rescaled_final/0987_fw.mp4	0.0	334.3524069786072	0.0999910831451416
19	230.9676160812378	fix_pre	0		120	17.0	2.5	/experiments/knapen_AOT/AOT_stimuli/rescaled_final/1298_fw.mp4	0.0	334.4523980617523	1.0001599788665771
19	231.5512990951538	pulse	0	t		17.0	2.5	/experiments/knapen_AOT/AOT_stimuli/rescaled_final/1298_fw.mp4	0.0	335.03608107566833	
19	231.96777606010437	movie	1		243	17.0	2.5	/experiments/knapen_AOT/AOT_stimuli/rescaled_final/1298_fw.mp4	0.0	335.4525580406189	2.500347852706909
19	233.15160703659058	pulse	1	t		17.0	2.5	/experiments/knapen_AOT/AOT_stimuli/rescaled_final/1298_fw.mp4	0.0	336.6363890171051	
19	234.46812391281128	fix_post	2		12	17.0	2.5	/experiments/knapen_AOT/AOT_stimuli/rescaled_final/1298_fw.mp4	0.0	337.9529058933258	0.10006403923034668
20	234.56818795204163	fix_pre	0		120	18.0	2.5	/experiments/knapen_AOT/AOT_stimuli/rescaled_final/0494_fw.mp4	0.0	338.05296993255615	1.000115156173706
20	234.75169110298157	pulse	0	t		18.0	2.5	/experiments/knapen_AOT/AOT_stimuli/rescaled_final/0494_fw.mp4	0.0	338.2364730834961	
20	235.56830310821533	movie	1		243	18.0	2.5	/experiments/knapen_AOT/AOT_stimuli/rescaled_final/0494_fw.mp4	0.0	339.05308508872986	2.500396966934204
20	236.35199189186096	pulse	1	t		18.0	2.5	/experiments/knapen_AOT/AOT_stimuli/rescaled_final/0494_fw.mp4	0.0	339.8367738723755	
20	237.952045917511	pulse	1	t		18.0	2.5	/experiments/knapen_AOT/AOT_stimuli/rescaled_final/0494_fw.mp4	0.0	341.4368278980255	
20	238.06870007514954	fix_post	2		12	18.0	2.5	/experiments/knapen_AOT/AOT_stimuli/rescaled_final/0494_fw.mp4	0.0	341.55348205566406	0.10000896453857422
21	238.1687090396881	fix_pre	0		120	19.0	2.5	/experiments/knapen_AOT/AOT_stimuli/rescaled_final/0109_fw.mp4	0.0	341.65349102020264	1.000119924545288
21	239.1688289642334	movie	1		242	19.0	2.5	/experiments/knapen_AOT/AOT_stimuli/rescaled_final/0109_fw.mp4	0.0	342.6536109447479	2.4920239448547363
21	239.55366706848145	pulse	1	t		19.0	2.5	/experiments/knapen_AOT/AOT_stimuli/rescaled_final/0109_fw.mp4	0.0	343.038449048996	
21	241.15268206596375	pulse	1	t		19.0	2.5	/experiments/knapen_AOT/AOT_stimuli/rescaled_final/0109_fw.mp4	0.0	344.63746404647827	
21	241.66085290908813	fix_post	2		12	19.0	2.5	/experiments/knapen_AOT/AOT_stimuli/rescaled_final/0109_fw.mp4	0.0	345.14563488960266	0.10006403923034668
22	241.76091694831848	fix_pre	0		120	20.0	2.5	/experiments/knapen_AOT/AOT_stimuli/rescaled_final/2045_rv.mp4	0.0	345.245698928833	1.0001630783081055
22	242.7529010772705	pulse	0	t		20.0	2.5	/experiments/knapen_AOT/AOT_stimuli/rescaled_final/2045_rv.mp4	0.0	346.23768305778503	
22	242.7610800266266	movie	1		244	20.0	2.5	/experiments/knapen_AOT/AOT_stimuli/rescaled_final/2045_rv.mp4	0.0	346.2458620071411	2.5086519718170166
22	244.3537609577179	pulse	1	t		20.0	2.5	/experiments/knapen_AOT/AOT_stimuli/rescaled_final/2045_rv.mp4	0.0	347.8385429382324	
22	245.2697319984436	fix_post	2		12	20.0	2.5	/experiments/knapen_AOT/AOT_stimuli/rescaled_final/2045_rv.mp4	0.0	348.75451397895813	0.10003089904785156
23	245.36976289749146	fix_pre	0		120	21.0	2.5	blank	1.0	348.854544878006	1.0001451969146729
23	245.95351004600525	pulse	0	t		21.0	2.5	blank	1.0	349.4382920265198	
23	246.36990809440613	movie	1		300	21.0	2.5	blank	1.0	349.85469007492065	2.5003859996795654
23	247.55363512039185	pulse	1	t		21.0	2.5	blank	1.0	351.0384171009064	
23	248.8702940940857	fix_post	2		12	21.0	2.5	blank	1.0	352.3550760746002	0.10003280639648438
24	248.97032690048218	fix_pre	0		120	22.0	2.5	/experiments/knapen_AOT/AOT_stimuli/rescaled_final/0292_fw.mp4	0.0	352.4551088809967	1.0000910758972168
24	249.1464021205902	pulse	0	t		22.0	2.5	/experiments/knapen_AOT/AOT_stimuli/rescaled_final/0292_fw.mp4	0.0	352.63118410110474	
24	249.9704179763794	movie	1		245	22.0	2.5	/experiments/knapen_AOT/AOT_stimuli/rescaled_final/0292_fw.mp4	0.0	353.4551999568939	2.5004241466522217
24	250.7466480731964	pulse	1	t		22.0	2.5	/experiments/knapen_AOT/AOT_stimuli/rescaled_final/0292_fw.mp4	0.0	354.23143005371094	
24	252.35175490379333	pulse	1	t		22.0	2.5	/experiments/knapen_AOT/AOT_stimuli/rescaled_final/0292_fw.mp4	0.0	355.83653688430786	
24	252.47084212303162	fix_post	2		12	22.0	2.5	/experiments/knapen_AOT/AOT_stimuli/rescaled_final/0292_fw.mp4	0.0	355.95562410354614	0.0999758243560791
25	252.5708179473877	fix_pre	0		120	23.0	2.5	/experiments/knapen_AOT/AOT_stimuli/rescaled_final/1700_fw.mp4	0.0	356.0555999279022	1.0002081394195557
25	253.57102608680725	movie	1		242	23.0	2.5	/experiments/knapen_AOT/AOT_stimuli/rescaled_final/1700_fw.mp4	0.0	357.0558080673218	2.4920268058776855
25	253.9550769329071	pulse	1	t		23.0	2.5	/experiments/knapen_AOT/AOT_stimuli/rescaled_final/1700_fw.mp4	0.0	357.43985891342163	
25	255.5474410057068	pulse	1	t		23.0	2.5	/experiments/knapen_AOT/AOT_stimuli/rescaled_final/1700_fw.mp4	0.0	359.0322229862213	
25	256.06305289268494	fix_post	2		12	23.0	2.5	/experiments/knapen_AOT/AOT_stimuli/rescaled_final/1700_fw.mp4	0.0	359.54783487319946	0.1000051498413086
26	256.16305804252625	fix_pre	0		119	24.0	2.5	/experiments/knapen_AOT/AOT_stimuli/rescaled_final/1826_fw.mp4	0.0	359.64784002304077	0.9917788505554199
26	257.146742105484	pulse	0	t		24.0	2.5	/experiments/knapen_AOT/AOT_stimuli/rescaled_final/1826_fw.mp4	0.0	360.63152408599854	
26	257.15483689308167	movie	1		246	24.0	2.5	/experiments/knapen_AOT/AOT_stimuli/rescaled_final/1826_fw.mp4	0.0	360.6396188735962	2.5087170600891113
26	258.7511920928955	pulse	1	t		24.0	2.5	/experiments/knapen_AOT/AOT_stimuli/rescaled_final/1826_fw.mp4	0.0	362.23597407341003	
26	259.6635539531708	fix_post	2		12	24.0	2.5	/experiments/knapen_AOT/AOT_stimuli/rescaled_final/1826_fw.mp4	0.0	363.1483359336853	0.1000070571899414
27	259.7635610103607	fix_pre	0		120	25.0	2.5	/experiments/knapen_AOT/AOT_stimuli/rescaled_final/1274_fw.mp4	0.0	363.24834299087524	1.0001580715179443
27	260.3471779823303	pulse	0	t		25.0	2.5	/experiments/knapen_AOT/AOT_stimuli/rescaled_final/1274_fw.mp4	0.0	363.83195996284485	
27	260.76371908187866	movie	1		243	25.0	2.5	/experiments/knapen_AOT/AOT_stimuli/rescaled_final/1274_fw.mp4	0.0	364.2485010623932	2.5003910064697266
27	261.94765400886536	pulse	1	t		25.0	2.5	/experiments/knapen_AOT/AOT_stimuli/rescaled_final/1274_fw.mp4	0.0	365.4324359893799	
27	263.2641100883484	fix_post	2		12	25.0	2.5	/experiments/knapen_AOT/AOT_stimuli/rescaled_final/1274_fw.mp4	0.0	366.7488920688629	0.09999585151672363
28	263.3641059398651	fix_pre	0		120	26.0	2.5	blank	1.0	366.84888792037964	1.0001540184020996
28	263.54773592948914	pulse	0	t		26.0	2.5	blank	1.0	367.03251791000366	
28	264.3642599582672	movie	1		300	26.0	2.5	blank	1.0	367.84904193878174	2.5003950595855713
28	265.14787793159485	pulse	1	t		26.0	2.5	blank	1.0	368.6326599121094	
28	266.748104095459	pulse	1	t		26.0	2.5	blank	1.0	370.2328860759735	
28	266.8646550178528	fix_post	2		12	26.0	2.5	blank	1.0	370.3494369983673	0.09998703002929688
29	266.9646420478821	fix_pre	0		120	27.0	2.5	/experiments/knapen_AOT/AOT_stimuli/rescaled_final/0568_rv.mp4	0.0	370.4494240283966	1.000148057937622
29	267.9647901058197	movie	1		242	27.0	2.5	/experiments/knapen_AOT/AOT_stimuli/rescaled_final/0568_rv.mp4	0.0	371.44957208633423	2.4920449256896973
29	268.34912300109863	pulse	1	t		27.0	2.5	/experiments/knapen_AOT/AOT_stimuli/rescaled_final/0568_rv.mp4	0.0	371.83390498161316	
29	269.948627948761	pulse	1	t		27.0	2.5	/experiments/knapen_AOT/AOT_stimuli/rescaled_final/0568_rv.mp4	0.0	373.4334099292755	
29	270.4568350315094	fix_post	2		12	27.0	2.5	/experiments/knapen_AOT/AOT_stimuli/rescaled_final/0568_rv.mp4	0.0	373.9416170120239	0.10000801086425781
30	270.55684304237366	fix_pre	0		120	28.0	2.5	/experiments/knapen_AOT/AOT_stimuli/rescaled_final/0056_fw.mp4	0.0	374.0416250228882	1.0001559257507324
30	271.5488820075989	pulse	0	t		28.0	2.5	/experiments/knapen_AOT/AOT_stimuli/rescaled_final/0056_fw.mp4	0.0	375.0336639881134	
30	271.5569989681244	movie	1		247	28.0	2.5	/experiments/knapen_AOT/AOT_stimuli/rescaled_final/0056_fw.mp4	0.0	375.0417809486389	2.508692979812622
30	273.1497919559479	pulse	1	t		28.0	2.5	/experiments/knapen_AOT/AOT_stimuli/rescaled_final/0056_fw.mp4	0.0	376.6345739364624	
30	274.065691947937	fix_post	2		12	28.0	2.5	/experiments/knapen_AOT/AOT_stimuli/rescaled_final/0056_fw.mp4	0.0	377.55047392845154	0.10004901885986328
31	274.1657409667969	fix_pre	0		120	29.0	2.5	/experiments/knapen_AOT/AOT_stimuli/rescaled_final/1274_rv.mp4	0.0	377.6505229473114	1.0001211166381836
31	274.7494239807129	pulse	0	t		29.0	2.5	/experiments/knapen_AOT/AOT_stimuli/rescaled_final/1274_rv.mp4	0.0	378.2342059612274	
31	275.16586208343506	movie	1		244	29.0	2.5	/experiments/knapen_AOT/AOT_stimuli/rescaled_final/1274_rv.mp4	0.0	378.6506440639496	2.500372886657715
31	276.3496890068054	pulse	1	t		29.0	2.5	/experiments/knapen_AOT/AOT_stimuli/rescaled_final/1274_rv.mp4	0.0	379.83447098731995	
31	277.6662349700928	fix_post	2		12	29.0	2.5	/experiments/knapen_AOT/AOT_stimuli/rescaled_final/1274_rv.mp4	0.0	381.1510169506073	0.10008001327514648
32	277.7663149833679	fix_pre	0		120	30.0	2.5	/experiments/knapen_AOT/AOT_stimuli/rescaled_final/1307_rv.mp4	0.0	381.25109696388245	1.0001270771026611
32	277.94985795021057	pulse	0	t		30.0	2.5	/experiments/knapen_AOT/AOT_stimuli/rescaled_final/1307_rv.mp4	0.0	381.4346399307251	
32	278.7664420604706	movie	1		245	30.0	2.5	/experiments/knapen_AOT/AOT_stimuli/rescaled_final/1307_rv.mp4	0.0	382.2512240409851	2.5003340244293213
32	279.5499939918518	pulse	1	t		30.0	2.5	/experiments/knapen_AOT/AOT_stimuli/rescaled_final/1307_rv.mp4	0.0	383.03477597236633	
32	281.15052103996277	pulse	1	t		30.0	2.5	/experiments/knapen_AOT/AOT_stimuli/rescaled_final/1307_rv.mp4	0.0	384.6353030204773	
32	281.2667760848999	fix_post	2		12	30.0	2.5	/experiments/knapen_AOT/AOT_stimuli/rescaled_final/1307_rv.mp4	0.0	384.75155806541443	0.10002589225769043
33	281.3668019771576	fix_pre	0		119	31.0	2.5	/experiments/knapen_AOT/AOT_stimuli/rescaled_final/1502_rv.mp4	0.0	384.8515839576721	0.9918620586395264
33	282.3586640357971	movie	1		245	31.0	2.5	/experiments/knapen_AOT/AOT_stimuli/rescaled_final/1502_rv.mp4	0.0	385.84344601631165	2.5003468990325928
33	282.7505910396576	pulse	1	t		31.0	2.5	/experiments/knapen_AOT/AOT_stimuli/rescaled_final/1502_rv.mp4	0.0	386.2353730201721	
33	284.35082602500916	pulse	1	t		31.0	2.5	/experiments/knapen_AOT/AOT_stimuli/rescaled_final/1502_rv.mp4	0.0	387.8356080055237	
33	284.8590109348297	fix_post	2		12	31.0	2.5	/experiments/knapen_AOT/AOT_stimuli/rescaled_final/1502_rv.mp4	0.0	388.34379291534424	0.09998917579650879
34	284.9590001106262	fix_pre	0		120	32.0	2.5	/experiments/knapen_AOT/AOT_stimuli/rescaled_final/1115_fw.mp4	0.0	388.44378209114075	1.0001838207244873
34	285.9509789943695	pulse	0	t		32.0	2.5	/experiments/knapen_AOT/AOT_stimuli/rescaled_final/1115_fw.mp4	0.0	389.43576097488403	
34	285.9591839313507	movie	1		244	32.0	2.5	/experiments/knapen_AOT/AOT_stimuli/rescaled_final/1115_fw.mp4	0.0	389.44396591186523	2.5086700916290283
34	287.55182909965515	pulse	1	t		32.0	2.5	/experiments/knapen_AOT/AOT_stimuli/rescaled_final/1115_fw.mp4	0.0	391.0366110801697	
34	288.46785402297974	fix_post	2		12	32.0	2.5	/experiments/knapen_AOT/AOT_stimuli/rescaled_final/1115_fw.mp4	0.0	391.95263600349426	0.10000801086425781
35	288.567862033844	fix_pre	0		120	33.0	2.5	/experiments/knapen_AOT/AOT_stimuli/rescaled_final/0270_fw.mp4	0.0	392.0526440143585	1.0001709461212158
35	289.1515839099884	pulse	0	t		33.0	2.5	/experiments/knapen_AOT/AOT_stimuli/rescaled_final/0270_fw.mp4	0.0	392.63636589050293	
35	289.5680329799652	movie	1		243	33.0	2.5	/experiments/knapen_AOT/AOT_stimuli/rescaled_final/0270_fw.mp4	0.0	393.05281496047974	2.5003840923309326
35	290.7518389225006	pulse	1	t		33.0	2.5	/experiments/knapen_AOT/AOT_stimuli/rescaled_final/0270_fw.mp4	0.0	394.23662090301514	
35	292.06841707229614	fix_post	2		12	33.0	2.5	/experiments/knapen_AOT/AOT_stimuli/rescaled_final/0270_fw.mp4	0.0	395.55319905281067	0.10002493858337402
36	292.1684420108795	fix_pre	0		120	34.0	2.5	/experiments/knapen_AOT/AOT_stimuli/rescaled_final/0155_rv.mp4	0.0	395.65322399139404	1.0001440048217773
36	292.35197591781616	pulse	0	t		34.0	2.5	/experiments/knapen_AOT/AOT_stimuli/rescaled_final/0155_rv.mp4	0.0	395.8367578983307	
36	293.1685860157013	movie	1		243	34.0	2.5	/experiments/knapen_AOT/AOT_stimuli/rescaled_final/0155_rv.mp4	0.0	396.6533679962158	2.500370979309082
36	293.95226407051086	pulse	1	t		34.0	2.5	/experiments/knapen_AOT/AOT_stimuli/rescaled_final/0155_rv.mp4	0.0	397.4370460510254	
36	295.5522720813751	pulse	1	t		34.0	2.5	/experiments/knapen_AOT/AOT_stimuli/rescaled_final/0155_rv.mp4	0.0	399.03705406188965	
36	295.6689569950104	fix_post	2		12	34.0	2.5	/experiments/knapen_AOT/AOT_stimuli/rescaled_final/0155_rv.mp4	0.0	399.1537389755249	0.0999898910522461
37	295.7689468860626	fix_pre	0		119	35.0	2.5	blank	1.0	399.25372886657715	0.9918560981750488
37	296.76080298423767	movie	1		300	35.0	2.5	blank	1.0	400.2455849647522	2.5003581047058105
37	297.15269589424133	pulse	1	t		35.0	2.5	blank	1.0	400.63747787475586	
37	298.75290393829346	pulse	1	t		35.0	2.5	blank	1.0	402.237685918808	
37	299.2611610889435	fix_post	2		12	35.0	2.5	blank	1.0	402.745943069458	0.09999585151672363
38	299.3611569404602	fix_pre	0		120	36.0	2.5	/experiments/knapen_AOT/AOT_stimuli/rescaled_final/0973_rv.mp4	0.0	402.84593892097473	1.0002131462097168
38	300.35311794281006	pulse	0	t		36.0	2.5	/experiments/knapen_AOT/AOT_stimuli/rescaled_final/0973_rv.mp4	0.0	403.8378999233246	
38	300.3613700866699	movie	1		244	36.0	2.5	/experiments/knapen_AOT/AOT_stimuli/rescaled_final/0973_rv.mp4	0.0	403.84615206718445	2.508697032928467
38	301.9546699523926	pulse	1	t		36.0	2.5	/experiments/knapen_AOT/AOT_stimuli/rescaled_final/0973_rv.mp4	0.0	405.4394519329071	
38	302.8700671195984	fix_post	2		12	36.0	2.5	/experiments/knapen_AOT/AOT_stimuli/rescaled_final/0973_rv.mp4	0.0	406.3548491001129	0.10000181198120117
39	302.9700689315796	fix_pre	0		120	37.0	2.5	/experiments/knapen_AOT/AOT_stimuli/rescaled_final/0557_rv.mp4	0.0	406.4548509120941	1.0001201629638672
39	303.54622507095337	pulse	0	t		37.0	2.5	/experiments/knapen_AOT/AOT_stimuli/rescaled_final/0557_rv.mp4	0.0	407.0310070514679	
39	303.97018909454346	movie	1		244	37.0	2.5	/experiments/knapen_AOT/AOT_stimuli/rescaled_final/0557_rv.mp4	0.0	407.454971075058	2.500379800796509
39	305.1539809703827	pulse	1	t		37.0	2.5	/experiments/knapen_AOT/AOT_stimuli/rescaled_final/0557_rv.mp4	0.0	408.6387629508972	
39	306.47056889533997	fix_post	2		12	37.0	2.5	/experiments/knapen_AOT/AOT_stimuli/rescaled_final/0557_rv.mp4	0.0	409.9553508758545	0.09999608993530273
40	306.57056498527527	fix_pre	0		120	38.0	2.5	/experiments/knapen_AOT/AOT_stimuli/rescaled_final/1977_rv.mp4	0.0	410.0553469657898	1.0001721382141113
40	306.7465400695801	pulse	0	t		38.0	2.5	/experiments/knapen_AOT/AOT_stimuli/rescaled_final/1977_rv.mp4	0.0	410.2313220500946	
40	307.5707371234894	movie	1		244	38.0	2.5	/experiments/knapen_AOT/AOT_stimuli/rescaled_final/1977_rv.mp4	0.0	411.0555191040039	2.500361919403076
40	308.34687900543213	pulse	1	t		38.0	2.5	/experiments/knapen_AOT/AOT_stimuli/rescaled_final/1977_rv.mp4	0.0	411.83166098594666	
40	309.94629096984863	pulse	1	t		38.0	2.5	/experiments/knapen_AOT/AOT_stimuli/rescaled_final/1977_rv.mp4	0.0	413.43107295036316	
40	310.07109904289246	fix_post	2		12	38.0	2.5	/experiments/knapen_AOT/AOT_stimuli/rescaled_final/1977_rv.mp4	0.0	413.555881023407	0.10005497932434082
41	310.1711540222168	fix_pre	0		119	39.0	2.5	/experiments/knapen_AOT/AOT_stimuli/rescaled_final/1022_rv.mp4	0.0	413.6559360027313	0.9918279647827148
41	311.1629819869995	movie	1		244	39.0	2.5	/experiments/knapen_AOT/AOT_stimuli/rescaled_final/1022_rv.mp4	0.0	414.64776396751404	2.5003089904785156
41	311.55082988739014	pulse	1	t		39.0	2.5	/experiments/knapen_AOT/AOT_stimuli/rescaled_final/1022_rv.mp4	0.0	415.03561186790466	
41	313.1467299461365	pulse	1	t		39.0	2.5	/experiments/knapen_AOT/AOT_stimuli/rescaled_final/1022_rv.mp4	0.0	416.631511926651	
41	313.663290977478	fix_post	2		12	39.0	2.5	/experiments/knapen_AOT/AOT_stimuli/rescaled_final/1022_rv.mp4	0.0	417.14807295799255	0.10004401206970215
42	313.76333498954773	fix_pre	0		119	40.0	2.5	/experiments/knapen_AOT/AOT_stimuli/rescaled_final/0239_fw.mp4	0.0	417.24811697006226	0.9917778968811035
42	314.74694299697876	pulse	0	t		40.0	2.5	/experiments/knapen_AOT/AOT_stimuli/rescaled_final/0239_fw.mp4	0.0	418.2317249774933	
42	314.75511288642883	movie	1		245	40.0	2.5	/experiments/knapen_AOT/AOT_stimuli/rescaled_final/0239_fw.mp4	0.0	418.23989486694336	2.5087060928344727
42	316.3517310619354	pulse	1	t		40.0	2.5	/experiments/knapen_AOT/AOT_stimuli/rescaled_final/0239_fw.mp4	0.0	419.83651304244995	
42	317.2638189792633	fix_post	2		12	40.0	2.5	/experiments/knapen_AOT/AOT_stimuli/rescaled_final/0239_fw.mp4	0.0	420.74860095977783	0.10001492500305176
43	317.36383390426636	fix_pre	0		120	41.0	2.5	blank	1.0	420.8486158847809	1.000251054763794
43	317.94747400283813	pulse	0	t		41.0	2.5	blank	1.0	421.43225598335266	
43	318.36408495903015	movie	1		300	41.0	2.5	blank	1.0	421.8488669395447	2.500291109085083
43	319.54780292510986	pulse	1	t		41.0	2.5	blank	1.0	423.0325849056244	
43	320.86437606811523	fix_post	2		12	41.0	2.5	blank	1.0	424.34915804862976	0.10003399848937988
44	320.9644100666046	fix_pre	0		120	42.0	2.5	/experiments/knapen_AOT/AOT_stimuli/rescaled_final/2039_fw.mp4	0.0	424.44919204711914	1.0001280307769775
44	321.1478819847107	pulse	0	t		42.0	2.5	/experiments/knapen_AOT/AOT_stimuli/rescaled_final/2039_fw.mp4	0.0	424.6326639652252	
44	321.9645380973816	movie	1		244	42.0	2.5	/experiments/knapen_AOT/AOT_stimuli/rescaled_final/2039_fw.mp4	0.0	425.4493200778961	2.500370979309082
44	322.7482590675354	pulse	1	t		42.0	2.5	/experiments/knapen_AOT/AOT_stimuli/rescaled_final/2039_fw.mp4	0.0	426.2330410480499	
44	324.34835600852966	pulse	1	t		42.0	2.5	/experiments/knapen_AOT/AOT_stimuli/rescaled_final/2039_fw.mp4	0.0	427.8331379890442	
44	324.4649090766907	fix_post	2		10	42.0	2.5	/experiments/knapen_AOT/AOT_stimuli/rescaled_final/2039_fw.mp4	0.0	427.9496910572052	0.0999898910522461
45	324.5648989677429	fix_pre	0		120	43.0	2.5	/experiments/knapen_AOT/AOT_stimuli/rescaled_final/0767_fw.mp4	0.0	428.04968094825745	1.000169038772583
45	325.5650680065155	movie	1		243	43.0	2.5	/experiments/knapen_AOT/AOT_stimuli/rescaled_final/0767_fw.mp4	0.0	429.04984998703003	2.4920260906219482
45	325.9500229358673	pulse	1	t		43.0	2.5	/experiments/knapen_AOT/AOT_stimuli/rescaled_final/0767_fw.mp4	0.0	429.43480491638184	
45	327.548907995224	pulse	1	t		43.0	2.5	/experiments/knapen_AOT/AOT_stimuli/rescaled_final/0767_fw.mp4	0.0	431.0336899757385	
45	328.05709409713745	fix_post	2		12	43.0	2.5	/experiments/knapen_AOT/AOT_stimuli/rescaled_final/0767_fw.mp4	0.0	431.541876077652	0.10006189346313477
46	328.1571559906006	fix_pre	0		120	44.0	2.5	/experiments/knapen_AOT/AOT_stimuli/rescaled_final/0898_rv.mp4	0.0	431.6419379711151	1.000180959701538
46	329.149218082428	pulse	0	t		44.0	2.5	/experiments/knapen_AOT/AOT_stimuli/rescaled_final/0898_rv.mp4	0.0	432.6340000629425	
46	329.1573369503021	movie	1		244	44.0	2.5	/experiments/knapen_AOT/AOT_stimuli/rescaled_final/0898_rv.mp4	0.0	432.64211893081665	2.508697986602783
46	330.7499189376831	pulse	1	t		44.0	2.5	/experiments/knapen_AOT/AOT_stimuli/rescaled_final/0898_rv.mp4	0.0	434.23470091819763	
46	331.6660349369049	fix_post	2		12	44.0	2.5	/experiments/knapen_AOT/AOT_stimuli/rescaled_final/0898_rv.mp4	0.0	435.15081691741943	0.0999460220336914
47	331.7659809589386	fix_pre	0		120	45.0	2.5	/experiments/knapen_AOT/AOT_stimuli/rescaled_final/1509_rv.mp4	0.0	435.2507629394531	1.0002031326293945
47	332.3496251106262	pulse	0	t		45.0	2.5	/experiments/knapen_AOT/AOT_stimuli/rescaled_final/1509_rv.mp4	0.0	435.83440709114075	
47	332.766184091568	movie	1		245	45.0	2.5	/experiments/knapen_AOT/AOT_stimuli/rescaled_final/1509_rv.mp4	0.0	436.2509660720825	2.500339984893799
47	333.9498839378357	pulse	1	t		45.0	2.5	/experiments/knapen_AOT/AOT_stimuli/rescaled_final/1509_rv.mp4	0.0	437.4346659183502	
47	335.2665240764618	fix_post	2		12	45.0	2.5	/experiments/knapen_AOT/AOT_stimuli/rescaled_final/1509_rv.mp4	0.0	438.7513060569763	0.10004591941833496
48	335.3665699958801	fix_pre	0		120	46.0	2.5	/experiments/knapen_AOT/AOT_stimuli/rescaled_final/2021_fw.mp4	0.0	438.85135197639465	1.0000998973846436
48	335.5500819683075	pulse	0	t		46.0	2.5	/experiments/knapen_AOT/AOT_stimuli/rescaled_final/2021_fw.mp4	0.0	439.034863948822	
48	336.36666989326477	movie	1		244	46.0	2.5	/experiments/knapen_AOT/AOT_stimuli/rescaled_final/2021_fw.mp4	0.0	439.8514518737793	2.500364065170288
48	337.15045499801636	pulse	1	t		46.0	2.5	/experiments/knapen_AOT/AOT_stimuli/rescaled_final/2021_fw.mp4	0.0	440.6352369785309	
48	338.7506470680237	pulse	1	t		46.0	2.5	/experiments/knapen_AOT/AOT_stimuli/rescaled_final/2021_fw.mp4	0.0	442.2354290485382	
48	338.86703395843506	fix_post	2		12	46.0	2.5	/experiments/knapen_AOT/AOT_stimuli/rescaled_final/2021_fw.mp4	0.0	442.3518159389496	0.10009098052978516
49	338.96712493896484	fix_pre	0		120	47.0	2.5	/experiments/knapen_AOT/AOT_stimuli/rescaled_final/2002_fw.mp4	0.0	442.45190691947937	1.0000791549682617
49	339.9672040939331	movie	1		243	47.0	2.5	/experiments/knapen_AOT/AOT_stimuli/rescaled_final/2002_fw.mp4	0.0	443.45198607444763	2.492144823074341
49	340.35122895240784	pulse	1	t		47.0	2.5	/experiments/knapen_AOT/AOT_stimuli/rescaled_final/2002_fw.mp4	0.0	443.83601093292236	
49	341.95105600357056	pulse	1	t		47.0	2.5	/experiments/knapen_AOT/AOT_stimuli/rescaled_final/2002_fw.mp4	0.0	445.4358379840851	
49	342.45934891700745	fix_post	2		12	47.0	2.5	/experiments/knapen_AOT/AOT_stimuli/rescaled_final/2002_fw.mp4	0.0	445.944130897522	0.09997320175170898
50	342.55932211875916	fix_pre	0		120	48.0	2.5	/experiments/knapen_AOT/AOT_stimuli/rescaled_final/0599_fw.mp4	0.0	446.0441040992737	1.0000758171081543
50	343.55139803886414	pulse	0	t		48.0	2.5	/experiments/knapen_AOT/AOT_stimuli/rescaled_final/0599_fw.mp4	0.0	447.03618001937866	
50	343.5593979358673	movie	1		245	48.0	2.5	/experiments/knapen_AOT/AOT_stimuli/rescaled_final/0599_fw.mp4	0.0	447.04417991638184	2.508737087249756
50	345.1521270275116	pulse	1	t		48.0	2.5	/experiments/knapen_AOT/AOT_stimuli/rescaled_final/0599_fw.mp4	0.0	448.6369090080261	
50	346.06813502311707	fix_post	2		12	48.0	2.5	/experiments/knapen_AOT/AOT_stimuli/rescaled_final/0599_fw.mp4	0.0	449.5529170036316	0.09999489784240723
51	346.1681299209595	fix_pre	0		120	49.0	2.5	blank	1.0	449.652911901474	1.0001800060272217
51	346.75175404548645	pulse	0	t		49.0	2.5	blank	1.0	450.236536026001	
51	347.1683099269867	movie	1		300	49.0	2.5	blank	1.0	450.6530919075012	2.5003890991210938
51	348.35202503204346	pulse	1	t		49.0	2.5	blank	1.0	451.836807012558	
51	349.6686990261078	fix_post	2		12	49.0	2.5	blank	1.0	453.1534810066223	0.09998798370361328
52	349.7686870098114	fix_pre	0		120	50.0	2.5	/experiments/knapen_AOT/AOT_stimuli/rescaled_final/0263_rv.mp4	0.0	453.2534689903259	1.000133991241455
52	349.9523460865021	pulse	0	t		50.0	2.5	/experiments/knapen_AOT/AOT_stimuli/rescaled_final/0263_rv.mp4	0.0	453.4371280670166	
52	350.76882100105286	movie	1		244	50.0	2.5	/experiments/knapen_AOT/AOT_stimuli/rescaled_final/0263_rv.mp4	0.0	454.2536029815674	2.5004169940948486
52	351.55255103111267	pulse	1	t		50.0	2.5	/experiments/knapen_AOT/AOT_stimuli/rescaled_final/0263_rv.mp4	0.0	455.0373330116272	
52	353.1527819633484	pulse	1	t		50.0	2.5	/experiments/knapen_AOT/AOT_stimuli/rescaled_final/0263_rv.mp4	0.0	456.6375639438629	
52	353.2692379951477	fix_post	2		12	50.0	2.5	/experiments/knapen_AOT/AOT_stimuli/rescaled_final/0263_rv.mp4	0.0	456.75401997566223	0.09997105598449707
53	353.3692090511322	fix_pre	0		120	51.0	2.5	/experiments/knapen_AOT/AOT_stimuli/rescaled_final/1021_rv.mp4	0.0	456.85399103164673	1.0001599788665771
53	354.3693690299988	movie	1		243	51.0	2.5	/experiments/knapen_AOT/AOT_stimuli/rescaled_final/1021_rv.mp4	0.0	457.8541510105133	2.4920990467071533
53	354.7535619735718	pulse	1	t		51.0	2.5	/experiments/knapen_AOT/AOT_stimuli/rescaled_final/1021_rv.mp4	0.0	458.2383439540863	
53	356.3458549976349	pulse	1	t		51.0	2.5	/experiments/knapen_AOT/AOT_stimuli/rescaled_final/1021_rv.mp4	0.0	459.8306369781494	
53	356.86146807670593	fix_post	2		12	51.0	2.5	/experiments/knapen_AOT/AOT_stimuli/rescaled_final/1021_rv.mp4	0.0	460.34625005722046	0.09998798370361328
54	356.96145606040955	fix_pre	0		120	52.0	2.5	/experiments/knapen_AOT/AOT_stimuli/rescaled_final/1661_fw.mp4	0.0	460.4462380409241	1.000121831893921
54	357.94592094421387	pulse	0	t		52.0	2.5	/experiments/knapen_AOT/AOT_stimuli/rescaled_final/1661_fw.mp4	0.0	461.4307029247284	
54	357.96157789230347	movie	1		245	52.0	2.5	/experiments/knapen_AOT/AOT_stimuli/rescaled_final/1661_fw.mp4	0.0	461.446359872818	2.5087130069732666
54	359.5539801120758	pulse	1	t		52.0	2.5	/experiments/knapen_AOT/AOT_stimuli/rescaled_final/1661_fw.mp4	0.0	463.03876209259033	
54	360.47029089927673	fix_post	2		12	52.0	2.5	/experiments/knapen_AOT/AOT_stimuli/rescaled_final/1661_fw.mp4	0.0	463.95507287979126	0.100067138671875
55	360.5703580379486	fix_pre	0		120	53.0	2.5	/experiments/knapen_AOT/AOT_stimuli/rescaled_final/1212_fw.mp4	0.0	464.05514001846313	1.0000839233398438
55	361.14644408226013	pulse	0	t		53.0	2.5	/experiments/knapen_AOT/AOT_stimuli/rescaled_final/1212_fw.mp4	0.0	464.63122606277466	
55	361.57044196128845	movie	1		243	53.0	2.5	/experiments/knapen_AOT/AOT_stimuli/rescaled_final/1212_fw.mp4	0.0	465.055223941803	2.5003621578216553
55	362.74707794189453	pulse	1	t		53.0	2.5	/experiments/knapen_AOT/AOT_stimuli/rescaled_final/1212_fw.mp4	0.0	466.23185992240906	
55	364.0708041191101	fix_post	2		12	53.0	2.5	/experiments/knapen_AOT/AOT_stimuli/rescaled_final/1212_fw.mp4	0.0	467.55558609962463	0.10001993179321289
56	364.1708240509033	fix_pre	0		120	54.0	2.5	blank	1.0	467.65560603141785	1.000169038772583
56	364.34601497650146	pulse	0	t		54.0	2.5	blank	1.0	467.830796957016	
56	365.1709930896759	movie	1		300	54.0	2.5	blank	1.0	468.65577507019043	2.5003819465637207
56	365.9462308883667	pulse	1	t		54.0	2.5	blank	1.0	469.4310128688812	
56	367.5466809272766	pulse	1	t		54.0	2.5	blank	1.0	471.03146290779114	
56	367.6713750362396	fix_post	2		12	54.0	2.5	blank	1.0	471.15615701675415	0.1000368595123291
57	367.77141189575195	fix_pre	0		120	55.0	2.5	/experiments/knapen_AOT/AOT_stimuli/rescaled_final/1034_fw.mp4	0.0	471.2561938762665	1.0001111030578613
57	368.7715229988098	movie	1		244	55.0	2.5	/experiments/knapen_AOT/AOT_stimuli/rescaled_final/1034_fw.mp4	0.0	472.25630497932434	2.4920570850372314
57	369.1468551158905	pulse	1	t		55.0	2.5	/experiments/knapen_AOT/AOT_stimuli/rescaled_final/1034_fw.mp4	0.0	472.63163709640503	
57	370.7470669746399	pulse	1	t		55.0	2.5	/experiments/knapen_AOT/AOT_stimuli/rescaled_final/1034_fw.mp4	0.0	474.2318489551544	
57	371.26358008384705	fix_post	2		12	55.0	2.5	/experiments/knapen_AOT/AOT_stimuli/rescaled_final/1034_fw.mp4	0.0	474.7483620643616	0.10007786750793457
58	371.363657951355	fix_pre	0		119	56.0	2.5	/experiments/knapen_AOT/AOT_stimuli/rescaled_final/1719_rv.mp4	0.0	474.8484399318695	0.9917371273040771
58	372.3473711013794	pulse	0	t		56.0	2.5	/experiments/knapen_AOT/AOT_stimuli/rescaled_final/1719_rv.mp4	0.0	475.8321530818939	
58	372.35539507865906	movie	1		245	56.0	2.5	/experiments/knapen_AOT/AOT_stimuli/rescaled_final/1719_rv.mp4	0.0	475.8401770591736	2.5086820125579834
58	373.94788002967834	pulse	1	t		56.0	2.5	/experiments/knapen_AOT/AOT_stimuli/rescaled_final/1719_rv.mp4	0.0	477.43266201019287	
58	374.86407709121704	fix_post	2		12	56.0	2.5	/experiments/knapen_AOT/AOT_stimuli/rescaled_final/1719_rv.mp4	0.0	478.34885907173157	0.10001397132873535
59	374.9640910625458	fix_pre	0		120	57.0	2.5	/experiments/knapen_AOT/AOT_stimuli/rescaled_final/1785_fw.mp4	0.0	478.4488730430603	1.0001628398895264
59	375.54785895347595	pulse	0	t		57.0	2.5	/experiments/knapen_AOT/AOT_stimuli/rescaled_final/1785_fw.mp4	0.0	479.0326409339905	
59	375.9642539024353	movie	1		243	57.0	2.5	/experiments/knapen_AOT/AOT_stimuli/rescaled_final/1785_fw.mp4	0.0	479.44903588294983	2.5003910064697266
59	377.1480379104614	pulse	1	t		57.0	2.5	/experiments/knapen_AOT/AOT_stimuli/rescaled_final/1785_fw.mp4	0.0	480.63281989097595	
59	378.46464490890503	fix_post	2		12	57.0	2.5	/experiments/knapen_AOT/AOT_stimuli/rescaled_final/1785_fw.mp4	0.0	481.94942688941956	0.10000205039978027
60	378.5646469593048	fix_pre	0		120	58.0	2.5	/experiments/knapen_AOT/AOT_stimuli/rescaled_final/0263_fw.mp4	0.0	482.04942893981934	1.0001471042633057
60	378.74815797805786	pulse	0	t		58.0	2.5	/experiments/knapen_AOT/AOT_stimuli/rescaled_final/0263_fw.mp4	0.0	482.2329399585724	
60	379.5647940635681	movie	1		244	58.0	2.5	/experiments/knapen_AOT/AOT_stimuli/rescaled_final/0263_fw.mp4	0.0	483.04957604408264	2.500349998474121
60	380.34845900535583	pulse	1	t		58.0	2.5	/experiments/knapen_AOT/AOT_stimuli/rescaled_final/0263_fw.mp4	0.0	483.83324098587036	
60	381.9487268924713	pulse	1	t		58.0	2.5	/experiments/knapen_AOT/AOT_stimuli/rescaled_final/0263_fw.mp4	0.0	485.43350887298584	
60	382.06514406204224	fix_post	2		12	58.0	2.5	/experiments/knapen_AOT/AOT_stimuli/rescaled_final/0263_fw.mp4	0.0	485.54992604255676	0.10003399848937988
61	382.1651780605316	fix_pre	0		120	59.0	2.5	/experiments/knapen_AOT/AOT_stimuli/rescaled_final/0985_rv.mp4	0.0	485.64996004104614	1.000135898590088
61	383.1653139591217	movie	1		239	59.0	2.5	/experiments/knapen_AOT/AOT_stimuli/rescaled_final/0985_rv.mp4	0.0	486.65009593963623	2.4921579360961914
61	383.54950499534607	pulse	1	t		59.0	2.5	/experiments/knapen_AOT/AOT_stimuli/rescaled_final/0985_rv.mp4	0.0	487.0342869758606	
61	385.1491310596466	pulse	1	t		59.0	2.5	/experiments/knapen_AOT/AOT_stimuli/rescaled_final/0985_rv.mp4	0.0	488.63391304016113	
61	385.6574718952179	fix_post	2		12	59.0	2.5	/experiments/knapen_AOT/AOT_stimuli/rescaled_final/0985_rv.mp4	0.0	489.1422538757324	0.09989619255065918
62	385.75736808776855	fix_pre	0		120	60.0	2.5	/experiments/knapen_AOT/AOT_stimuli/rescaled_final/1119_rv.mp4	0.0	489.2421500682831	1.0001928806304932
62	386.74938011169434	pulse	0	t		60.0	2.5	/experiments/knapen_AOT/AOT_stimuli/rescaled_final/1119_rv.mp4	0.0	490.23416209220886	
62	386.75756096839905	movie	1		245	60.0	2.5	/experiments/knapen_AOT/AOT_stimuli/rescaled_final/1119_rv.mp4	0.0	490.2423429489136	2.508734941482544
62	388.35012006759644	pulse	1	t		60.0	2.5	/experiments/knapen_AOT/AOT_stimuli/rescaled_final/1119_rv.mp4	0.0	491.83490204811096	
62	389.2662959098816	fix_post	2		12	60.0	2.5	/experiments/knapen_AOT/AOT_stimuli/rescaled_final/1119_rv.mp4	0.0	492.7510778903961	0.09996819496154785
63	389.36626410484314	fix_pre	0		120	61.0	2.5	/experiments/knapen_AOT/AOT_stimuli/rescaled_final/0497_fw.mp4	0.0	492.85104608535767	1.0001349449157715
63	389.9499111175537	pulse	0	t		61.0	2.5	/experiments/knapen_AOT/AOT_stimuli/rescaled_final/0497_fw.mp4	0.0	493.43469309806824	
63	390.3663990497589	movie	1		244	61.0	2.5	/experiments/knapen_AOT/AOT_stimuli/rescaled_final/0497_fw.mp4	0.0	493.85118103027344	2.500364065170288
63	391.55018305778503	pulse	1	t		61.0	2.5	/experiments/knapen_AOT/AOT_stimuli/rescaled_final/0497_fw.mp4	0.0	495.03496503829956	
63	392.8667631149292	fix_post	2		12	61.0	2.5	/experiments/knapen_AOT/AOT_stimuli/rescaled_final/0497_fw.mp4	0.0	496.3515450954437	0.1001129150390625
64	392.96687602996826	fix_pre	0		120	62.0	2.5	/experiments/knapen_AOT/AOT_stimuli/rescaled_final/1819_fw.mp4	0.0	496.4516580104828	1.0000739097595215
64	393.1503019332886	pulse	0	t		62.0	2.5	/experiments/knapen_AOT/AOT_stimuli/rescaled_final/1819_fw.mp4	0.0	496.6350839138031	
64	393.9669499397278	movie	1		244	62.0	2.5	/experiments/knapen_AOT/AOT_stimuli/rescaled_final/1819_fw.mp4	0.0	497.4517319202423	2.5004680156707764
64	394.7506511211395	pulse	1	t		62.0	2.5	/experiments/knapen_AOT/AOT_stimuli/rescaled_final/1819_fw.mp4	0.0	498.23543310165405	
64	396.3509171009064	pulse	1	t		62.0	2.5	/experiments/knapen_AOT/AOT_stimuli/rescaled_final/1819_fw.mp4	0.0	499.8356990814209	
64	396.46741795539856	fix_post	2		12	62.0	2.5	/experiments/knapen_AOT/AOT_stimuli/rescaled_final/1819_fw.mp4	0.0	499.9521999359131	0.09990906715393066
65	396.5673270225525	fix_pre	0		120	63.0	2.5	blank	1.0	500.052109003067	1.0001890659332275
65	397.5675160884857	movie	1		299	63.0	2.5	blank	1.0	501.05229806900024	2.49200701713562
65	397.9510889053345	pulse	1	t		63.0	2.5	blank	1.0	501.435870885849	
65	399.55125403404236	pulse	1	t		63.0	2.5	blank	1.0	503.0360360145569	
65	400.05952310562134	fix_post	2		12	63.0	2.5	blank	1.0	503.54430508613586	0.10007286071777344
66	400.1595959663391	fix_pre	0		120	64.0	2.5	/experiments/knapen_AOT/AOT_stimuli/rescaled_final/0886_fw.mp4	0.0	503.64437794685364	1.000067949295044
66	401.1515679359436	pulse	0	t		64.0	2.5	/experiments/knapen_AOT/AOT_stimuli/rescaled_final/0886_fw.mp4	0.0	504.63634991645813	
66	401.15966391563416	movie	1		245	64.0	2.5	/experiments/knapen_AOT/AOT_stimuli/rescaled_final/0886_fw.mp4	0.0	504.6444458961487	2.5087289810180664
66	402.7524061203003	pulse	1	t		64.0	2.5	/experiments/knapen_AOT/AOT_stimuli/rescaled_final/0886_fw.mp4	0.0	506.2371881008148	
66	403.6683928966522	fix_post	2		12	64.0	2.5	/experiments/knapen_AOT/AOT_stimuli/rescaled_final/0886_fw.mp4	0.0	507.15317487716675	0.10005307197570801
67	403.76844596862793	fix_pre	0		120	65.0	2.5	/experiments/knapen_AOT/AOT_stimuli/rescaled_final/0380_rv.mp4	0.0	507.25322794914246	1.0000889301300049
67	404.35198497772217	pulse	0	t		65.0	2.5	/experiments/knapen_AOT/AOT_stimuli/rescaled_final/0380_rv.mp4	0.0	507.8367669582367	
67	404.76853489875793	movie	1		243	65.0	2.5	/experiments/knapen_AOT/AOT_stimuli/rescaled_final/0380_rv.mp4	0.0	508.25331687927246	2.5003950595855713
67	405.95235204696655	pulse	1	t		65.0	2.5	/experiments/knapen_AOT/AOT_stimuli/rescaled_final/0380_rv.mp4	0.0	509.4371340274811	
67	407.2689299583435	fix_post	2		12	65.0	2.5	/experiments/knapen_AOT/AOT_stimuli/rescaled_final/0380_rv.mp4	0.0	510.75371193885803	0.09998607635498047
68	407.3689160346985	fix_pre	0		120	66.0	2.5	/experiments/knapen_AOT/AOT_stimuli/rescaled_final/2162_fw.mp4	0.0	510.853698015213	1.0001850128173828
68	407.5525279045105	pulse	0	t		66.0	2.5	/experiments/knapen_AOT/AOT_stimuli/rescaled_final/2162_fw.mp4	0.0	511.037309885025	
68	408.36910104751587	movie	1		243	66.0	2.5	/experiments/knapen_AOT/AOT_stimuli/rescaled_final/2162_fw.mp4	0.0	511.8538830280304	2.500403881072998
68	409.15282106399536	pulse	1	t		66.0	2.5	/experiments/knapen_AOT/AOT_stimuli/rescaled_final/2162_fw.mp4	0.0	512.6376030445099	
68	410.75309705734253	pulse	1	t		66.0	2.5	/experiments/knapen_AOT/AOT_stimuli/rescaled_final/2162_fw.mp4	0.0	514.237879037857	
68	410.86950492858887	fix_post	2		12	66.0	2.5	/experiments/knapen_AOT/AOT_stimuli/rescaled_final/2162_fw.mp4	0.0	514.3542869091034	0.09995698928833008
69	410.9694619178772	fix_pre	0		120	67.0	2.5	/experiments/knapen_AOT/AOT_stimuli/rescaled_final/0409_rv.mp4	0.0	514.4542438983917	1.0002050399780273
69	411.9696669578552	movie	1		243	67.0	2.5	/experiments/knapen_AOT/AOT_stimuli/rescaled_final/0409_rv.mp4	0.0	515.4544489383698	2.4919941425323486
69	412.35791993141174	pulse	1	t		67.0	2.5	/experiments/knapen_AOT/AOT_stimuli/rescaled_final/0409_rv.mp4	0.0	515.8427019119263	
69	413.9535529613495	pulse	1	t		67.0	2.5	/experiments/knapen_AOT/AOT_stimuli/rescaled_final/0409_rv.mp4	0.0	517.438334941864	
69	414.4616611003876	fix_post	2		12	67.0	2.5	/experiments/knapen_AOT/AOT_stimuli/rescaled_final/0409_rv.mp4	0.0	517.9464430809021	0.10003995895385742
70	414.56170105934143	fix_pre	0		120	68.0	2.5	/experiments/knapen_AOT/AOT_stimuli/rescaled_final/2123_fw.mp4	0.0	518.046483039856	1.000133991241455
70	415.55369997024536	pulse	0	t		68.0	2.5	/experiments/knapen_AOT/AOT_stimuli/rescaled_final/2123_fw.mp4	0.0	519.0384819507599	
70	415.5618350505829	movie	1		245	68.0	2.5	/experiments/knapen_AOT/AOT_stimuli/rescaled_final/2123_fw.mp4	0.0	519.0466170310974	2.5087878704071045
70	417.154620885849	pulse	1	t		68.0	2.5	/experiments/knapen_AOT/AOT_stimuli/rescaled_final/2123_fw.mp4	0.0	520.6394028663635	
70	418.07062292099	fix_post	2		12	68.0	2.5	/experiments/knapen_AOT/AOT_stimuli/rescaled_final/2123_fw.mp4	0.0	521.5554049015045	0.09993505477905273
71	418.17055797576904	fix_pre	0		120	69.0	2.5	blank	1.0	521.6553399562836	1.000175952911377
71	418.7466809749603	pulse	0	t		69.0	2.5	blank	1.0	522.2314629554749	
71	419.1707339286804	movie	1		300	69.0	2.5	blank	1.0	522.655515909195	2.5004541873931885
71	420.3468608856201	pulse	1	t		69.0	2.5	blank	1.0	523.8316428661346	
71	421.6711881160736	fix_post	2		12	69.0	2.5	blank	1.0	525.1559700965881	0.10004591941833496
72	421.77123403549194	fix_pre	0		120	70.0	2.5	/experiments/knapen_AOT/AOT_stimuli/rescaled_final/0220_rv.mp4	0.0	525.2560160160065	1.0000269412994385
72	421.9471709728241	pulse	0	t		70.0	2.5	/experiments/knapen_AOT/AOT_stimuli/rescaled_final/0220_rv.mp4	0.0	525.4319529533386	
72	422.7712609767914	movie	1		244	70.0	2.5	/experiments/knapen_AOT/AOT_stimuli/rescaled_final/0220_rv.mp4	0.0	526.2560429573059	2.500396966934204
72	423.54738092422485	pulse	1	t		70.0	2.5	/experiments/knapen_AOT/AOT_stimuli/rescaled_final/0220_rv.mp4	0.0	527.0321629047394	
72	425.1468040943146	pulse	1	t		70.0	2.5	/experiments/knapen_AOT/AOT_stimuli/rescaled_final/0220_rv.mp4	0.0	528.6315860748291	
72	425.2716579437256	fix_post	2		12	70.0	2.5	/experiments/knapen_AOT/AOT_stimuli/rescaled_final/0220_rv.mp4	0.0	528.7564399242401	0.09995412826538086
73	425.37161207199097	fix_pre	0		120	71.0	2.5	/experiments/knapen_AOT/AOT_stimuli/rescaled_final/1740_fw.mp4	0.0	528.8563940525055	1.0001578330993652
73	426.37176990509033	movie	1		242	71.0	2.5	/experiments/knapen_AOT/AOT_stimuli/rescaled_final/1740_fw.mp4	0.0	529.8565518856049	2.492037057876587
73	426.7469758987427	pulse	1	t		71.0	2.5	/experiments/knapen_AOT/AOT_stimuli/rescaled_final/1740_fw.mp4	0.0	530.2317578792572	
73	428.3473570346832	pulse	1	t		71.0	2.5	/experiments/knapen_AOT/AOT_stimuli/rescaled_final/1740_fw.mp4	0.0	531.8321390151978	
73	428.8638069629669	fix_post	2		12	71.0	2.5	/experiments/knapen_AOT/AOT_stimuli/rescaled_final/1740_fw.mp4	0.0	532.3485889434814	0.10002398490905762
74	428.963830947876	fix_pre	0		119	72.0	2.5	/experiments/knapen_AOT/AOT_stimuli/rescaled_final/1021_rv.mp4	0.0	532.4486129283905	0.991814136505127
74	429.94753193855286	pulse	0	t		72.0	2.5	/experiments/knapen_AOT/AOT_stimuli/rescaled_final/1021_rv.mp4	0.0	533.4323139190674	
74	429.9556450843811	movie	1		245	72.0	2.5	/experiments/knapen_AOT/AOT_stimuli/rescaled_final/1021_rv.mp4	0.0	533.4404270648956	2.508730888366699
74	431.548465013504	pulse	1	t		72.0	2.5	/experiments/knapen_AOT/AOT_stimuli/rescaled_final/1021_rv.mp4	0.0	535.0332469940186	
74	432.4643759727478	fix_post	2		12	72.0	2.5	/experiments/knapen_AOT/AOT_stimuli/rescaled_final/1021_rv.mp4	0.0	535.9491579532623	0.10003900527954102
75	432.56441497802734	fix_pre	0		120	73.0	2.5	/experiments/knapen_AOT/AOT_stimuli/rescaled_final/0600_rv.mp4	0.0	536.0491969585419	1.000082015991211
75	433.1479160785675	pulse	0	t		73.0	2.5	/experiments/knapen_AOT/AOT_stimuli/rescaled_final/0600_rv.mp4	0.0	536.632698059082	
75	433.56449699401855	movie	1		245	73.0	2.5	/experiments/knapen_AOT/AOT_stimuli/rescaled_final/0600_rv.mp4	0.0	537.0492789745331	2.500394105911255
75	434.7482669353485	pulse	1	t		73.0	2.5	/experiments/knapen_AOT/AOT_stimuli/rescaled_final/0600_rv.mp4	0.0	538.233048915863	
75	436.0648910999298	fix_post	2		12	73.0	2.5	/experiments/knapen_AOT/AOT_stimuli/rescaled_final/0600_rv.mp4	0.0	539.5496730804443	0.09998679161071777
76	436.1648778915405	fix_pre	0		120	74.0	2.5	/experiments/knapen_AOT/AOT_stimuli/rescaled_final/1550_rv.mp4	0.0	539.649659872055	1.0002470016479492
76	436.34862899780273	pulse	0	t		74.0	2.5	/experiments/knapen_AOT/AOT_stimuli/rescaled_final/1550_rv.mp4	0.0	539.8334109783173	
76	437.1651248931885	movie	1		244	74.0	2.5	/experiments/knapen_AOT/AOT_stimuli/rescaled_final/1550_rv.mp4	0.0	540.649906873703	2.500291109085083
76	437.94873905181885	pulse	1	t		74.0	2.5	/experiments/knapen_AOT/AOT_stimuli/rescaled_final/1550_rv.mp4	0.0	541.4335210323334	
76	439.54891300201416	pulse	1	t		74.0	2.5	/experiments/knapen_AOT/AOT_stimuli/rescaled_final/1550_rv.mp4	0.0	543.0336949825287	
76	439.66541600227356	fix_post	2		12	74.0	2.5	/experiments/knapen_AOT/AOT_stimuli/rescaled_final/1550_rv.mp4	0.0	543.1501979827881	0.10001611709594727
77	439.7654321193695	fix_pre	0		120	75.0	2.5	blank	1.0	543.250214099884	1.000154972076416
77	440.7655870914459	movie	1		299	75.0	2.5	blank	1.0	544.2503690719604	2.492064952850342
77	441.14916706085205	pulse	1	t		75.0	2.5	blank	1.0	544.6339490413666	
77	442.74948596954346	pulse	1	t		75.0	2.5	blank	1.0	546.234267950058	
77	443.25765204429626	fix_post	2		12	75.0	2.5	blank	1.0	546.7424340248108	0.0999898910522461
78	443.3576419353485	fix_pre	0		120	76.0	2.5	/experiments/knapen_AOT/AOT_stimuli/rescaled_final/2162_rv.mp4	0.0	546.842423915863	1.0001530647277832
78	444.34969997406006	pulse	0	t		76.0	2.5	/experiments/knapen_AOT/AOT_stimuli/rescaled_final/2162_rv.mp4	0.0	547.8344819545746	
78	444.3577950000763	movie	1		240	76.0	2.5	/experiments/knapen_AOT/AOT_stimuli/rescaled_final/2162_rv.mp4	0.0	547.8425769805908	2.508760929107666
78	445.9503970146179	pulse	1	t		76.0	2.5	/experiments/knapen_AOT/AOT_stimuli/rescaled_final/2162_rv.mp4	0.0	549.4351789951324	
78	446.86655592918396	fix_post	2		12	76.0	2.5	/experiments/knapen_AOT/AOT_stimuli/rescaled_final/2162_rv.mp4	0.0	550.3513379096985	0.09997415542602539
79	446.96653008461	fix_pre	0		120	77.0	2.5	/experiments/knapen_AOT/AOT_stimuli/rescaled_final/0463_fw.mp4	0.0	550.4513120651245	1.000154972076416
79	447.5501329898834	pulse	0	t		77.0	2.5	/experiments/knapen_AOT/AOT_stimuli/rescaled_final/0463_fw.mp4	0.0	551.034914970398	
79	447.9666850566864	movie	1		244	77.0	2.5	/experiments/knapen_AOT/AOT_stimuli/rescaled_final/0463_fw.mp4	0.0	551.4514670372009	2.5003929138183594
79	449.1464080810547	pulse	1	t		77.0	2.5	/experiments/knapen_AOT/AOT_stimuli/rescaled_final/0463_fw.mp4	0.0	552.6311900615692	
79	450.46707797050476	fix_post	2		12	77.0	2.5	/experiments/knapen_AOT/AOT_stimuli/rescaled_final/0463_fw.mp4	0.0	553.9518599510193	0.09997010231018066
80	450.56704807281494	fix_pre	0		120	78.0	2.5	/experiments/knapen_AOT/AOT_stimuli/rescaled_final/2035_rv.mp4	0.0	554.0518300533295	1.0001640319824219
80	450.75077390670776	pulse	0	t		78.0	2.5	/experiments/knapen_AOT/AOT_stimuli/rescaled_final/2035_rv.mp4	0.0	554.2355558872223	
80	451.56721210479736	movie	1		243	78.0	2.5	/experiments/knapen_AOT/AOT_stimuli/rescaled_final/2035_rv.mp4	0.0	555.0519940853119	2.500417947769165
80	452.3509120941162	pulse	1	t		78.0	2.5	/experiments/knapen_AOT/AOT_stimuli/rescaled_final/2035_rv.mp4	0.0	555.8356940746307	
80	453.9531350135803	pulse	1	t		78.0	2.5	/experiments/knapen_AOT/AOT_stimuli/rescaled_final/2035_rv.mp4	0.0	557.4379169940948	
80	454.0676300525665	fix_post	2		12	78.0	2.5	/experiments/knapen_AOT/AOT_stimuli/rescaled_final/2035_rv.mp4	0.0	557.552412033081	0.09995388984680176
81	454.16758394241333	fix_pre	0		120	79.0	2.5	/experiments/knapen_AOT/AOT_stimuli/rescaled_final/0082_fw.mp4	0.0	557.6523659229279	1.0001511573791504
81	455.1677350997925	movie	1		244	79.0	2.5	/experiments/knapen_AOT/AOT_stimuli/rescaled_final/0082_fw.mp4	0.0	558.652517080307	2.4920408725738525
81	455.5516710281372	pulse	1	t		79.0	2.5	/experiments/knapen_AOT/AOT_stimuli/rescaled_final/0082_fw.mp4	0.0	559.0364530086517	
81	457.15166211128235	pulse	1	t		79.0	2.5	/experiments/knapen_AOT/AOT_stimuli/rescaled_final/0082_fw.mp4	0.0	560.6364440917969	
81	457.65977597236633	fix_post	2		12	79.0	2.5	/experiments/knapen_AOT/AOT_stimuli/rescaled_final/0082_fw.mp4	0.0	561.1445579528809	0.10002493858337402
82	457.7598009109497	fix_pre	0		120	80.0	2.5	/experiments/knapen_AOT/AOT_stimuli/rescaled_final/0567_rv.mp4	0.0	561.2445828914642	1.0002140998840332
82	458.7518310546875	pulse	0	t		80.0	2.5	/experiments/knapen_AOT/AOT_stimuli/rescaled_final/0567_rv.mp4	0.0	562.236613035202	
82	458.76001501083374	movie	1		245	80.0	2.5	/experiments/knapen_AOT/AOT_stimuli/rescaled_final/0567_rv.mp4	0.0	562.2447969913483	2.5086328983306885
82	460.35342502593994	pulse	1	t		80.0	2.5	/experiments/knapen_AOT/AOT_stimuli/rescaled_final/0567_rv.mp4	0.0	563.8382070064545	
82	461.26864790916443	fix_post	2		12	80.0	2.5	/experiments/knapen_AOT/AOT_stimuli/rescaled_final/0567_rv.mp4	0.0	564.753429889679	0.1000211238861084
83	461.36866903305054	fix_pre	0		120	81.0	2.5	/experiments/knapen_AOT/AOT_stimuli/rescaled_final/1982_rv.mp4	0.0	564.8534510135651	1.0001630783081055
83	461.9523870944977	pulse	0	t		81.0	2.5	/experiments/knapen_AOT/AOT_stimuli/rescaled_final/1982_rv.mp4	0.0	565.4371690750122	
83	462.36883211135864	movie	1		244	81.0	2.5	/experiments/knapen_AOT/AOT_stimuli/rescaled_final/1982_rv.mp4	0.0	565.8536140918732	2.5003387928009033
83	463.5488181114197	pulse	1	t		81.0	2.5	/experiments/knapen_AOT/AOT_stimuli/rescaled_final/1982_rv.mp4	0.0	567.0336000919342	
83	464.86917090415955	fix_post	2		12	81.0	2.5	/experiments/knapen_AOT/AOT_stimuli/rescaled_final/1982_rv.mp4	0.0	568.3539528846741	0.10006499290466309
84	464.9692358970642	fix_pre	0		120	82.0	2.5	/experiments/knapen_AOT/AOT_stimuli/rescaled_final/0355_rv.mp4	0.0	568.4540178775787	1.000115156173706
84	465.1528298854828	pulse	0	t		82.0	2.5	/experiments/knapen_AOT/AOT_stimuli/rescaled_final/0355_rv.mp4	0.0	568.6376118659973	
84	465.9693510532379	movie	1		245	82.0	2.5	/experiments/knapen_AOT/AOT_stimuli/rescaled_final/0355_rv.mp4	0.0	569.4541330337524	2.500403881072998
84	466.7529339790344	pulse	1	t		82.0	2.5	/experiments/knapen_AOT/AOT_stimuli/rescaled_final/0355_rv.mp4	0.0	570.237715959549	
84	468.3507618904114	pulse	1	t		82.0	2.5	/experiments/knapen_AOT/AOT_stimuli/rescaled_final/0355_rv.mp4	0.0	571.8355438709259	
84	468.4697549343109	fix_post	2		12	82.0	2.5	/experiments/knapen_AOT/AOT_stimuli/rescaled_final/0355_rv.mp4	0.0	571.9545369148254	0.09998416900634766
85	468.56973910331726	fix_pre	0		120	83.0	2.5	blank	1.0	572.0545210838318	1.000152826309204
85	469.56989192962646	movie	1		299	83.0	2.5	blank	1.0	573.054673910141	2.492065191268921
85	469.953537940979	pulse	1	t		83.0	2.5	blank	1.0	573.4383199214935	
85	471.54623103141785	pulse	1	t		83.0	2.5	blank	1.0	575.0310130119324	
85	472.0619571208954	fix_post	2		12	83.0	2.5	blank	1.0	575.5467391014099	0.09997296333312988
87	472.1619300842285	stim	0		1716					575.646712064743	14.30222201347351
87	473.14668703079224	pulse	0	t						576.6314690113068	
87	474.746887922287	pulse	0	t						578.2316699028015	
87	476.3460690975189	pulse	0	t						579.8308510780334	
87	477.9463050365448	pulse	0	t						581.4310870170593	
87	479.54662895202637	pulse	0	t						583.0314109325409	
87	481.14682602882385	pulse	0	t						584.6316080093384	
87	482.74699997901917	pulse	0	t						586.2317819595337	
87	484.3472640514374	pulse	0	t						587.8320460319519	
87	485.94746804237366	pulse	0	t						589.4322500228882	
