trial_nr	onset	event_type	phase	response	nr_frames	movie_index	movie_duration	movie_file	blank	onset_abs	duration
0	0.16645455360412598	stim	0		1					18.342263221740723	0.00829768180847168
0	0.16912412643432617	response	0	space						18.344932794570923	
1	0.17475223541259766	stim	0		4283					18.350560903549194	35.70671772956848
1	35.871333837509155	pulse	0	t						54.04714250564575	
1	35.88146996498108	stim	1		1715					54.057278633117676	14.30071210861206
1	37.46381855010986	pulse	1	t						55.63962721824646	
1	39.064002990722656	pulse	1	t						57.23981165885925	
1	40.66420936584473	pulse	1	t						58.84001803398132	
1	42.26449537277222	pulse	1	t						60.44030404090881	
1	43.86470675468445	pulse	1	t						62.040515422821045	
1	45.46513295173645	pulse	1	t						63.64094161987305	
1	47.06533694267273	pulse	1	t						65.24114561080933	
1	48.665544748306274	pulse	1	t						66.84135341644287	
2	50.18218207359314	fix_pre	0		11	0.0	2.5	/experiments/Knapen_AOT/AOT_stimuli/rescaled_final/0842_rv.mp4	0.0	68.35799074172974	0.10838007926940918
2	50.265775203704834	pulse	0	t		0.0	2.5	/experiments/Knapen_AOT/AOT_stimuli/rescaled_final/0842_rv.mp4	0.0	68.44158387184143	
2	50.29056215286255	movie	1		288	0.0	2.5	/experiments/Knapen_AOT/AOT_stimuli/rescaled_final/0842_rv.mp4	0.0	68.46637082099915	2.491997718811035
2	51.86453938484192	pulse	1	t		0.0	2.5	/experiments/Knapen_AOT/AOT_stimuli/rescaled_final/0842_rv.mp4	0.0	70.04034805297852	
2	52.782559871673584	fix_post	2		12	0.0	2.5	/experiments/Knapen_AOT/AOT_stimuli/rescaled_final/0842_rv.mp4	0.0	70.95836853981018	0.09998726844787598
3	52.88254714012146	fix_pre	0		120	1.0	2.5	/experiments/Knapen_AOT/AOT_stimuli/rescaled_final/0040_fw.mp4	0.0	71.05835580825806	1.0085272789001465
3	53.46614122390747	pulse	0	t		1.0	2.5	/experiments/Knapen_AOT/AOT_stimuli/rescaled_final/0040_fw.mp4	0.0	71.64194989204407	
3	53.891074419021606	movie	1		291	1.0	2.5	/experiments/Knapen_AOT/AOT_stimuli/rescaled_final/0040_fw.mp4	0.0	72.0668830871582	2.4919755458831787
3	55.06548357009888	pulse	1	t		1.0	2.5	/experiments/Knapen_AOT/AOT_stimuli/rescaled_final/0040_fw.mp4	0.0	73.24129223823547	
3	56.383049964904785	fix_post	2		12	1.0	2.5	/experiments/Knapen_AOT/AOT_stimuli/rescaled_final/0040_fw.mp4	0.0	74.55885863304138	0.09999966621398926
4	56.483049631118774	fix_pre	0		120	2.0	2.5	/experiments/Knapen_AOT/AOT_stimuli/rescaled_final/1213_fw.mp4	0.0	74.65885829925537	1.0085945129394531
4	56.66673946380615	pulse	0	t		2.0	2.5	/experiments/Knapen_AOT/AOT_stimuli/rescaled_final/1213_fw.mp4	0.0	74.84254813194275	
4	57.49164414405823	movie	1		283	2.0	2.5	/experiments/Knapen_AOT/AOT_stimuli/rescaled_final/1213_fw.mp4	0.0	75.66745281219482	2.4919822216033936
4	58.26473832130432	pulse	1	t		2.0	2.5	/experiments/Knapen_AOT/AOT_stimuli/rescaled_final/1213_fw.mp4	0.0	76.44054698944092	
4	59.86677932739258	pulse	1	t		2.0	2.5	/experiments/Knapen_AOT/AOT_stimuli/rescaled_final/1213_fw.mp4	0.0	78.04258799552917	
4	59.98362636566162	fix_post	2		12	2.0	2.5	/experiments/Knapen_AOT/AOT_stimuli/rescaled_final/1213_fw.mp4	0.0	78.15943503379822	0.10000967979431152
5	60.08363604545593	fix_pre	0		120	3.0	2.5	/experiments/Knapen_AOT/AOT_stimuli/rescaled_final/1929_rv.mp4	0.0	78.25944471359253	1.0084869861602783
5	61.09212303161621	movie	1		290	3.0	2.5	/experiments/Knapen_AOT/AOT_stimuli/rescaled_final/1929_rv.mp4	0.0	79.26793169975281	2.492023468017578
5	61.465540170669556	pulse	1	t		3.0	2.5	/experiments/Knapen_AOT/AOT_stimuli/rescaled_final/1929_rv.mp4	0.0	79.64134883880615	
5	63.06548047065735	pulse	1	t		3.0	2.5	/experiments/Knapen_AOT/AOT_stimuli/rescaled_final/1929_rv.mp4	0.0	81.24128913879395	
5	63.58414649963379	fix_post	2		12	3.0	2.5	/experiments/Knapen_AOT/AOT_stimuli/rescaled_final/1929_rv.mp4	0.0	81.75995516777039	0.1000065803527832
6	63.68415307998657	fix_pre	0		119	4.0	2.5	/experiments/Knapen_AOT/AOT_stimuli/rescaled_final/1456_rv.mp4	0.0	81.85996174812317	1.000262975692749
6	64.66811537742615	pulse	0	t		4.0	2.5	/experiments/Knapen_AOT/AOT_stimuli/rescaled_final/1456_rv.mp4	0.0	82.84392404556274	
6	64.68441605567932	movie	1		294	4.0	2.5	/experiments/Knapen_AOT/AOT_stimuli/rescaled_final/1456_rv.mp4	0.0	82.86022472381592	2.500397205352783
6	66.26686882972717	pulse	1	t		4.0	2.5	/experiments/Knapen_AOT/AOT_stimuli/rescaled_final/1456_rv.mp4	0.0	84.44267749786377	
6	67.1848132610321	fix_post	2		12	4.0	2.5	/experiments/Knapen_AOT/AOT_stimuli/rescaled_final/1456_rv.mp4	0.0	85.3606219291687	0.10010504722595215
7	67.28491830825806	fix_pre	0		120	5.0	2.5	/experiments/Knapen_AOT/AOT_stimuli/rescaled_final/0702_fw.mp4	0.0	85.46072697639465	1.008342981338501
7	67.86835169792175	pulse	0	t		5.0	2.5	/experiments/Knapen_AOT/AOT_stimuli/rescaled_final/0702_fw.mp4	0.0	86.04416036605835	
7	68.29326128959656	movie	1		290	5.0	2.5	/experiments/Knapen_AOT/AOT_stimuli/rescaled_final/0702_fw.mp4	0.0	86.46906995773315	2.4919662475585938
7	69.46647691726685	pulse	1	t		5.0	2.5	/experiments/Knapen_AOT/AOT_stimuli/rescaled_final/0702_fw.mp4	0.0	87.64228558540344	
7	70.78522753715515	fix_post	2		12	5.0	2.5	/experiments/Knapen_AOT/AOT_stimuli/rescaled_final/0702_fw.mp4	0.0	88.96103620529175	0.10005712509155273
8	70.8852846622467	fix_pre	0		120	6.0	2.5	blank	1.0	89.0610933303833	1.000112771987915
8	71.0688796043396	pulse	0	t		6.0	2.5	blank	1.0	89.2446882724762	
8	71.88539743423462	movie	1		300	6.0	2.5	blank	1.0	90.06120610237122	2.500380277633667
8	72.66903924942017	pulse	1	t		6.0	2.5	blank	1.0	90.84484791755676	
8	74.26139640808105	pulse	1	t		6.0	2.5	blank	1.0	92.43720507621765	
8	74.38577771186829	fix_post	2		12	6.0	2.5	blank	1.0	92.56158638000488	0.10002923011779785
9	74.48580694198608	fix_pre	0		120	7.0	2.5	/experiments/Knapen_AOT/AOT_stimuli/rescaled_final/0882_rv.mp4	0.0	92.66161561012268	1.0084846019744873
9	75.49429154396057	movie	1		282	7.0	2.5	/experiments/Knapen_AOT/AOT_stimuli/rescaled_final/0882_rv.mp4	0.0	93.67010021209717	2.4919931888580322
9	75.8615357875824	pulse	1	t		7.0	2.5	/experiments/Knapen_AOT/AOT_stimuli/rescaled_final/0882_rv.mp4	0.0	94.037344455719	
9	77.46153354644775	pulse	1	t		7.0	2.5	/experiments/Knapen_AOT/AOT_stimuli/rescaled_final/0882_rv.mp4	0.0	95.63734221458435	
9	77.9862847328186	fix_post	2		12	7.0	2.5	/experiments/Knapen_AOT/AOT_stimuli/rescaled_final/0882_rv.mp4	0.0	96.1620934009552	0.10004043579101562
10	78.08632516860962	fix_pre	0		118	8.0	2.5	/experiments/Knapen_AOT/AOT_stimuli/rescaled_final/0214_fw.mp4	0.0	96.26213383674622	0.9918618202209473
10	79.06171178817749	pulse	0	t		8.0	2.5	/experiments/Knapen_AOT/AOT_stimuli/rescaled_final/0214_fw.mp4	0.0	97.23752045631409	
10	79.07818698883057	movie	1		285	8.0	2.5	/experiments/Knapen_AOT/AOT_stimuli/rescaled_final/0214_fw.mp4	0.0	97.25399565696716	2.500312328338623
10	80.66135001182556	pulse	1	t		8.0	2.5	/experiments/Knapen_AOT/AOT_stimuli/rescaled_final/0214_fw.mp4	0.0	98.83715867996216	
10	81.57849931716919	fix_post	2		12	8.0	2.5	/experiments/Knapen_AOT/AOT_stimuli/rescaled_final/0214_fw.mp4	0.0	99.75430798530579	0.10001707077026367
11	81.67851638793945	fix_pre	0		120	9.0	2.5	/experiments/Knapen_AOT/AOT_stimuli/rescaled_final/2034_fw.mp4	0.0	99.85432505607605	1.008538007736206
11	82.26223230361938	pulse	0	t		9.0	2.5	/experiments/Knapen_AOT/AOT_stimuli/rescaled_final/2034_fw.mp4	0.0	100.43804097175598	
11	82.68705439567566	movie	1		288	9.0	2.5	/experiments/Knapen_AOT/AOT_stimuli/rescaled_final/2034_fw.mp4	0.0	100.86286306381226	2.49204683303833
11	83.86240482330322	pulse	1	t		9.0	2.5	/experiments/Knapen_AOT/AOT_stimuli/rescaled_final/2034_fw.mp4	0.0	102.03821349143982	
11	85.17910122871399	fix_post	2		12	9.0	2.5	/experiments/Knapen_AOT/AOT_stimuli/rescaled_final/2034_fw.mp4	0.0	103.35490989685059	0.09999990463256836
12	85.27910113334656	fix_pre	0		120	10.0	2.5	/experiments/Knapen_AOT/AOT_stimuli/rescaled_final/0645_rv.mp4	0.0	103.45490980148315	1.008460283279419
12	85.46265125274658	pulse	0	t		10.0	2.5	/experiments/Knapen_AOT/AOT_stimuli/rescaled_final/0645_rv.mp4	0.0	103.63845992088318	
12	86.28756141662598	movie	1		291	10.0	2.5	/experiments/Knapen_AOT/AOT_stimuli/rescaled_final/0645_rv.mp4	0.0	104.46337008476257	2.4920616149902344
12	87.06309986114502	pulse	1	t		10.0	2.5	/experiments/Knapen_AOT/AOT_stimuli/rescaled_final/0645_rv.mp4	0.0	105.23890852928162	
12	88.66360425949097	pulse	1	t		10.0	2.5	/experiments/Knapen_AOT/AOT_stimuli/rescaled_final/0645_rv.mp4	0.0	106.83941292762756	
12	88.77962303161621	fix_post	2		12	10.0	2.5	/experiments/Knapen_AOT/AOT_stimuli/rescaled_final/0645_rv.mp4	0.0	106.95543169975281	0.10000348091125488
13	88.87962651252747	fix_pre	0		120	11.0	2.5	/experiments/Knapen_AOT/AOT_stimuli/rescaled_final/1169_fw.mp4	0.0	107.05543518066406	1.0084939002990723
13	89.88812041282654	movie	1		288	11.0	2.5	/experiments/Knapen_AOT/AOT_stimuli/rescaled_final/1169_fw.mp4	0.0	108.06392908096313	2.492002487182617
13	90.26162981987	pulse	1	t		11.0	2.5	/experiments/Knapen_AOT/AOT_stimuli/rescaled_final/1169_fw.mp4	0.0	108.43743848800659	
13	91.8635458946228	pulse	1	t		11.0	2.5	/experiments/Knapen_AOT/AOT_stimuli/rescaled_final/1169_fw.mp4	0.0	110.0393545627594	
13	92.38012290000916	fix_post	2		12	11.0	2.5	/experiments/Knapen_AOT/AOT_stimuli/rescaled_final/1169_fw.mp4	0.0	110.55593156814575	0.10003161430358887
14	92.48015451431274	fix_pre	0		119	12.0	2.5	blank	1.0	110.65596318244934	0.9917953014373779
14	93.46388530731201	pulse	0	t		12.0	2.5	blank	1.0	111.63969397544861	
14	93.47194981575012	movie	1		301	12.0	2.5	blank	1.0	111.64775848388672	2.508737325668335
14	95.06399369239807	pulse	1	t		12.0	2.5	blank	1.0	113.23980236053467	
14	95.98068714141846	fix_post	2		12	12.0	2.5	blank	1.0	114.15649580955505	0.10005784034729004
15	96.08074498176575	fix_pre	0		120	13.0	2.5	/experiments/Knapen_AOT/AOT_stimuli/rescaled_final/0405_fw.mp4	0.0	114.25655364990234	1.0085103511810303
15	96.66428017616272	pulse	0	t		13.0	2.5	/experiments/Knapen_AOT/AOT_stimuli/rescaled_final/0405_fw.mp4	0.0	114.84008884429932	
15	97.08925533294678	movie	1		279	13.0	2.5	/experiments/Knapen_AOT/AOT_stimuli/rescaled_final/0405_fw.mp4	0.0	115.26506400108337	2.4919753074645996
15	98.263756275177	pulse	1	t		13.0	2.5	/experiments/Knapen_AOT/AOT_stimuli/rescaled_final/0405_fw.mp4	0.0	116.4395649433136	
15	99.58123064041138	fix_post	2		12	13.0	2.5	/experiments/Knapen_AOT/AOT_stimuli/rescaled_final/0405_fw.mp4	0.0	117.75703930854797	0.10007691383361816
16	99.681307554245	fix_pre	0		120	14.0	2.5	/experiments/Knapen_AOT/AOT_stimuli/rescaled_final/0279_fw.mp4	0.0	117.85711622238159	1.0084543228149414
16	99.86472201347351	pulse	0	t		14.0	2.5	/experiments/Knapen_AOT/AOT_stimuli/rescaled_final/0279_fw.mp4	0.0	118.04053068161011	
16	100.68976187705994	movie	1		286	14.0	2.5	/experiments/Knapen_AOT/AOT_stimuli/rescaled_final/0279_fw.mp4	0.0	118.86557054519653	2.491997480392456
16	101.4629716873169	pulse	1	t		14.0	2.5	/experiments/Knapen_AOT/AOT_stimuli/rescaled_final/0279_fw.mp4	0.0	119.63878035545349	
16	103.06531548500061	pulse	1	t		14.0	2.5	/experiments/Knapen_AOT/AOT_stimuli/rescaled_final/0279_fw.mp4	0.0	121.2411241531372	
16	103.18175935745239	fix_post	2		12	14.0	2.5	/experiments/Knapen_AOT/AOT_stimuli/rescaled_final/0279_fw.mp4	0.0	121.35756802558899	0.1000518798828125
17	103.2818112373352	fix_pre	0		120	15.0	2.5	/experiments/Knapen_AOT/AOT_stimuli/rescaled_final/0107_fw.mp4	0.0	121.4576199054718	1.0084960460662842
17	104.29030728340149	movie	1		282	15.0	2.5	/experiments/Knapen_AOT/AOT_stimuli/rescaled_final/0107_fw.mp4	0.0	122.46611595153809	2.492008686065674
17	104.66374683380127	pulse	1	t		15.0	2.5	/experiments/Knapen_AOT/AOT_stimuli/rescaled_final/0107_fw.mp4	0.0	122.83955550193787	
17	106.26358199119568	pulse	1	t		15.0	2.5	/experiments/Knapen_AOT/AOT_stimuli/rescaled_final/0107_fw.mp4	0.0	124.43939065933228	
17	106.78231596946716	fix_post	2		12	15.0	2.5	/experiments/Knapen_AOT/AOT_stimuli/rescaled_final/0107_fw.mp4	0.0	124.95812463760376	0.10000443458557129
18	106.88232040405273	fix_pre	0		119	16.0	2.5	/experiments/Knapen_AOT/AOT_stimuli/rescaled_final/0119_rv.mp4	0.0	125.05812907218933	1.000154972076416
18	107.86593055725098	pulse	0	t		16.0	2.5	/experiments/Knapen_AOT/AOT_stimuli/rescaled_final/0119_rv.mp4	0.0	126.04173922538757	
18	107.88247537612915	movie	1		278	16.0	2.5	/experiments/Knapen_AOT/AOT_stimuli/rescaled_final/0119_rv.mp4	0.0	126.05828404426575	2.500364303588867
18	109.46471190452576	pulse	1	t		16.0	2.5	/experiments/Knapen_AOT/AOT_stimuli/rescaled_final/0119_rv.mp4	0.0	127.64052057266235	
18	110.38283967971802	fix_post	2		12	16.0	2.5	/experiments/Knapen_AOT/AOT_stimuli/rescaled_final/0119_rv.mp4	0.0	128.55864834785461	0.1000823974609375
19	110.48292207717896	fix_pre	0		120	17.0	2.5	/experiments/Knapen_AOT/AOT_stimuli/rescaled_final/0978_fw.mp4	0.0	128.65873074531555	1.0085184574127197
19	111.06641554832458	pulse	0	t		17.0	2.5	/experiments/Knapen_AOT/AOT_stimuli/rescaled_final/0978_fw.mp4	0.0	129.24222421646118	
19	111.49144053459167	movie	1		292	17.0	2.5	/experiments/Knapen_AOT/AOT_stimuli/rescaled_final/0978_fw.mp4	0.0	129.66724920272827	2.492034912109375
19	112.66529726982117	pulse	1	t		17.0	2.5	/experiments/Knapen_AOT/AOT_stimuli/rescaled_final/0978_fw.mp4	0.0	130.84110593795776	
19	113.98347544670105	fix_post	2		12	17.0	2.5	/experiments/Knapen_AOT/AOT_stimuli/rescaled_final/0978_fw.mp4	0.0	132.15928411483765	0.09992146492004395
20	114.0833969116211	fix_pre	0		120	18.0	2.5	/experiments/Knapen_AOT/AOT_stimuli/rescaled_final/0430_fw.mp4	0.0	132.2592055797577	1.0085253715515137
20	114.26703906059265	pulse	0	t		18.0	2.5	/experiments/Knapen_AOT/AOT_stimuli/rescaled_final/0430_fw.mp4	0.0	132.44284772872925	
20	115.09192228317261	movie	1		274	18.0	2.5	/experiments/Knapen_AOT/AOT_stimuli/rescaled_final/0430_fw.mp4	0.0	133.2677309513092	2.4920010566711426
20	115.86516308784485	pulse	1	t		18.0	2.5	/experiments/Knapen_AOT/AOT_stimuli/rescaled_final/0430_fw.mp4	0.0	134.04097175598145	
20	117.46518111228943	pulse	1	t		18.0	2.5	/experiments/Knapen_AOT/AOT_stimuli/rescaled_final/0430_fw.mp4	0.0	135.64098978042603	
20	117.58392333984375	fix_post	2		12	18.0	2.5	/experiments/Knapen_AOT/AOT_stimuli/rescaled_final/0430_fw.mp4	0.0	135.75973200798035	0.10003995895385742
21	117.68396329879761	fix_pre	0		120	19.0	2.5	/experiments/Knapen_AOT/AOT_stimuli/rescaled_final/2035_fw.mp4	0.0	135.8597719669342	1.0084528923034668
21	118.69241619110107	movie	1		293	19.0	2.5	/experiments/Knapen_AOT/AOT_stimuli/rescaled_final/2035_fw.mp4	0.0	136.86822485923767	2.492029905319214
21	119.06624245643616	pulse	1	t		19.0	2.5	/experiments/Knapen_AOT/AOT_stimuli/rescaled_final/2035_fw.mp4	0.0	137.24205112457275	
21	120.66686654090881	pulse	1	t		19.0	2.5	/experiments/Knapen_AOT/AOT_stimuli/rescaled_final/2035_fw.mp4	0.0	138.8426752090454	
21	121.18444609642029	fix_post	2		12	19.0	2.5	/experiments/Knapen_AOT/AOT_stimuli/rescaled_final/2035_fw.mp4	0.0	139.36025476455688	0.10000872611999512
22	121.28445482254028	fix_pre	0		119	20.0	2.5	/experiments/Knapen_AOT/AOT_stimuli/rescaled_final/0575_fw.mp4	0.0	139.46026349067688	1.0001695156097412
22	122.26827192306519	pulse	0	t		20.0	2.5	/experiments/Knapen_AOT/AOT_stimuli/rescaled_final/0575_fw.mp4	0.0	140.44408059120178	
22	122.28462433815002	movie	1		295	20.0	2.5	/experiments/Knapen_AOT/AOT_stimuli/rescaled_final/0575_fw.mp4	0.0	140.46043300628662	2.5003647804260254
22	123.86737561225891	pulse	1	t		20.0	2.5	/experiments/Knapen_AOT/AOT_stimuli/rescaled_final/0575_fw.mp4	0.0	142.0431842803955	
22	124.78498911857605	fix_post	2		12	20.0	2.5	/experiments/Knapen_AOT/AOT_stimuli/rescaled_final/0575_fw.mp4	0.0	142.96079778671265	0.10001063346862793
23	124.88499975204468	fix_pre	0		120	21.0	2.5	blank	1.0	143.06080842018127	1.0001513957977295
23	125.46879363059998	pulse	0	t		21.0	2.5	blank	1.0	143.64460229873657	
23	125.88515114784241	movie	1		300	21.0	2.5	blank	1.0	144.060959815979	2.5004024505615234
23	127.0690484046936	pulse	1	t		21.0	2.5	blank	1.0	145.2448570728302	
23	128.38555359840393	fix_post	2		12	21.0	2.5	blank	1.0	146.56136226654053	0.1000361442565918
24	128.48558974266052	fix_pre	0		120	22.0	2.5	/experiments/Knapen_AOT/AOT_stimuli/rescaled_final/1108_fw.mp4	0.0	146.66139841079712	1.0084633827209473
24	128.6619372367859	pulse	0	t		22.0	2.5	/experiments/Knapen_AOT/AOT_stimuli/rescaled_final/1108_fw.mp4	0.0	146.83774590492249	
24	129.49405312538147	movie	1		288	22.0	2.5	/experiments/Knapen_AOT/AOT_stimuli/rescaled_final/1108_fw.mp4	0.0	147.66986179351807	2.4920339584350586
24	130.26756691932678	pulse	1	t		22.0	2.5	/experiments/Knapen_AOT/AOT_stimuli/rescaled_final/1108_fw.mp4	0.0	148.44337558746338	
24	131.86766123771667	pulse	1	t		22.0	2.5	/experiments/Knapen_AOT/AOT_stimuli/rescaled_final/1108_fw.mp4	0.0	150.04346990585327	
24	131.98608708381653	fix_post	2		12	22.0	2.5	/experiments/Knapen_AOT/AOT_stimuli/rescaled_final/1108_fw.mp4	0.0	150.16189575195312	0.10003066062927246
25	132.0861177444458	fix_pre	0		120	23.0	2.5	/experiments/Knapen_AOT/AOT_stimuli/rescaled_final/0648_fw.mp4	0.0	150.2619264125824	1.0085091590881348
25	133.09462690353394	movie	1		293	23.0	2.5	/experiments/Knapen_AOT/AOT_stimuli/rescaled_final/0648_fw.mp4	0.0	151.27043557167053	2.4919917583465576
25	133.469318151474	pulse	1	t		23.0	2.5	/experiments/Knapen_AOT/AOT_stimuli/rescaled_final/0648_fw.mp4	0.0	151.6451268196106	
25	135.06201076507568	pulse	1	t		23.0	2.5	/experiments/Knapen_AOT/AOT_stimuli/rescaled_final/0648_fw.mp4	0.0	153.23781943321228	
25	135.5866186618805	fix_post	2		12	23.0	2.5	/experiments/Knapen_AOT/AOT_stimuli/rescaled_final/0648_fw.mp4	0.0	153.7624273300171	0.10001301765441895
26	135.6866316795349	fix_pre	0		118	24.0	2.5	/experiments/Knapen_AOT/AOT_stimuli/rescaled_final/2086_rv.mp4	0.0	153.8624403476715	0.9918358325958252
26	136.66209387779236	pulse	0	t		24.0	2.5	/experiments/Knapen_AOT/AOT_stimuli/rescaled_final/2086_rv.mp4	0.0	154.83790254592896	
26	136.67846751213074	movie	1		299	24.0	2.5	/experiments/Knapen_AOT/AOT_stimuli/rescaled_final/2086_rv.mp4	0.0	154.85427618026733	2.5003788471221924
26	138.2625768184662	pulse	1	t		24.0	2.5	/experiments/Knapen_AOT/AOT_stimuli/rescaled_final/2086_rv.mp4	0.0	156.43838548660278	
26	139.17884635925293	fix_post	2		12	24.0	2.5	/experiments/Knapen_AOT/AOT_stimuli/rescaled_final/2086_rv.mp4	0.0	157.35465502738953	0.10002565383911133
27	139.27887201309204	fix_pre	0		120	25.0	2.5	/experiments/Knapen_AOT/AOT_stimuli/rescaled_final/1123_fw.mp4	0.0	157.45468068122864	1.0084667205810547
27	139.86269283294678	pulse	0	t		25.0	2.5	/experiments/Knapen_AOT/AOT_stimuli/rescaled_final/1123_fw.mp4	0.0	158.03850150108337	
27	140.2873387336731	movie	1		294	25.0	2.5	/experiments/Knapen_AOT/AOT_stimuli/rescaled_final/1123_fw.mp4	0.0	158.4631474018097	2.492009401321411
27	141.4626452922821	pulse	1	t		25.0	2.5	/experiments/Knapen_AOT/AOT_stimuli/rescaled_final/1123_fw.mp4	0.0	159.6384539604187	
27	142.7793481349945	fix_post	2		12	25.0	2.5	/experiments/Knapen_AOT/AOT_stimuli/rescaled_final/1123_fw.mp4	0.0	160.9551568031311	0.10003328323364258
28	142.87938141822815	fix_pre	0		120	26.0	2.5	blank	1.0	161.05519008636475	1.0001411437988281
28	143.06299471855164	pulse	0	t		26.0	2.5	blank	1.0	161.23880338668823	
28	143.87952256202698	movie	1		300	26.0	2.5	blank	1.0	162.05533123016357	2.5003957748413086
28	144.6635820865631	pulse	1	t		26.0	2.5	blank	1.0	162.8393907546997	
28	146.26367449760437	pulse	1	t		26.0	2.5	blank	1.0	164.43948316574097	
28	146.3799183368683	fix_post	2		12	26.0	2.5	blank	1.0	164.55572700500488	0.10004472732543945
29	146.47996306419373	fix_pre	0		120	27.0	2.5	/experiments/Knapen_AOT/AOT_stimuli/rescaled_final/0694_fw.mp4	0.0	164.65577173233032	1.0085277557373047
29	147.48849081993103	movie	1		291	27.0	2.5	/experiments/Knapen_AOT/AOT_stimuli/rescaled_final/0694_fw.mp4	0.0	165.66429948806763	2.4919557571411133
29	147.86203980445862	pulse	1	t		27.0	2.5	/experiments/Knapen_AOT/AOT_stimuli/rescaled_final/0694_fw.mp4	0.0	166.03784847259521	
29	149.46206903457642	pulse	1	t		27.0	2.5	/experiments/Knapen_AOT/AOT_stimuli/rescaled_final/0694_fw.mp4	0.0	167.637877702713	
29	149.98044657707214	fix_post	2		12	27.0	2.5	/experiments/Knapen_AOT/AOT_stimuli/rescaled_final/0694_fw.mp4	0.0	168.15625524520874	0.10002398490905762
30	150.0804705619812	fix_pre	0		119	28.0	2.5	/experiments/Knapen_AOT/AOT_stimuli/rescaled_final/1298_rv.mp4	0.0	168.2562792301178	1.0001611709594727
30	151.0644030570984	pulse	0	t		28.0	2.5	/experiments/Knapen_AOT/AOT_stimuli/rescaled_final/1298_rv.mp4	0.0	169.24021172523499	
30	151.08063173294067	movie	1		277	28.0	2.5	/experiments/Knapen_AOT/AOT_stimuli/rescaled_final/1298_rv.mp4	0.0	169.25644040107727	2.5003859996795654
30	152.66300320625305	pulse	1	t		28.0	2.5	/experiments/Knapen_AOT/AOT_stimuli/rescaled_final/1298_rv.mp4	0.0	170.83881187438965	
30	153.58101773262024	fix_post	2		12	28.0	2.5	/experiments/Knapen_AOT/AOT_stimuli/rescaled_final/1298_rv.mp4	0.0	171.75682640075684	0.10000872611999512
31	153.68102645874023	fix_pre	0		120	29.0	2.5	/experiments/Knapen_AOT/AOT_stimuli/rescaled_final/1341_fw.mp4	0.0	171.85683512687683	1.008519172668457
31	154.26463961601257	pulse	0	t		29.0	2.5	/experiments/Knapen_AOT/AOT_stimuli/rescaled_final/1341_fw.mp4	0.0	172.44044828414917	
31	154.6895456314087	movie	1		287	29.0	2.5	/experiments/Knapen_AOT/AOT_stimuli/rescaled_final/1341_fw.mp4	0.0	172.8653542995453	2.4919800758361816
31	155.86288285255432	pulse	1	t		29.0	2.5	/experiments/Knapen_AOT/AOT_stimuli/rescaled_final/1341_fw.mp4	0.0	174.03869152069092	
31	157.18152570724487	fix_post	2		12	29.0	2.5	/experiments/Knapen_AOT/AOT_stimuli/rescaled_final/1341_fw.mp4	0.0	175.35733437538147	0.10030388832092285
32	157.2818295955658	fix_pre	0		120	30.0	2.5	/experiments/Knapen_AOT/AOT_stimuli/rescaled_final/1108_rv.mp4	0.0	175.4576382637024	1.008392095565796
32	157.46510481834412	pulse	0	t		30.0	2.5	/experiments/Knapen_AOT/AOT_stimuli/rescaled_final/1108_rv.mp4	0.0	175.6409134864807	
32	158.2902216911316	movie	1		291	30.0	2.5	/experiments/Knapen_AOT/AOT_stimuli/rescaled_final/1108_rv.mp4	0.0	176.4660303592682	2.491837739944458
32	159.0635540485382	pulse	1	t		30.0	2.5	/experiments/Knapen_AOT/AOT_stimuli/rescaled_final/1108_rv.mp4	0.0	177.2393627166748	
32	160.66548037528992	pulse	1	t		30.0	2.5	/experiments/Knapen_AOT/AOT_stimuli/rescaled_final/1108_rv.mp4	0.0	178.8412890434265	
32	160.78205943107605	fix_post	2		12	30.0	2.5	/experiments/Knapen_AOT/AOT_stimuli/rescaled_final/1108_rv.mp4	0.0	178.95786809921265	0.10001564025878906
33	160.88207507133484	fix_pre	0		120	31.0	2.5	/experiments/Knapen_AOT/AOT_stimuli/rescaled_final/0031_fw.mp4	0.0	179.05788373947144	1.0084881782531738
33	161.890563249588	movie	1		293	31.0	2.5	/experiments/Knapen_AOT/AOT_stimuli/rescaled_final/0031_fw.mp4	0.0	180.0663719177246	2.4921517372131348
33	162.2633512020111	pulse	1	t		31.0	2.5	/experiments/Knapen_AOT/AOT_stimuli/rescaled_final/0031_fw.mp4	0.0	180.4391598701477	
33	163.86325693130493	pulse	1	t		31.0	2.5	/experiments/Knapen_AOT/AOT_stimuli/rescaled_final/0031_fw.mp4	0.0	182.03906559944153	
33	164.38271498680115	fix_post	2		12	31.0	2.5	/experiments/Knapen_AOT/AOT_stimuli/rescaled_final/0031_fw.mp4	0.0	182.55852365493774	0.09991884231567383
34	164.48263382911682	fix_pre	0		119	32.0	2.5	/experiments/Knapen_AOT/AOT_stimuli/rescaled_final/1561_rv.mp4	0.0	182.65844249725342	1.0001332759857178
34	165.4662230014801	pulse	0	t		32.0	2.5	/experiments/Knapen_AOT/AOT_stimuli/rescaled_final/1561_rv.mp4	0.0	183.6420316696167	
34	165.48276710510254	movie	1		296	32.0	2.5	/experiments/Knapen_AOT/AOT_stimuli/rescaled_final/1561_rv.mp4	0.0	183.65857577323914	2.5004067420959473
34	167.06482458114624	pulse	1	t		32.0	2.5	/experiments/Knapen_AOT/AOT_stimuli/rescaled_final/1561_rv.mp4	0.0	185.24063324928284	
34	167.9831738471985	fix_post	2		12	32.0	2.5	/experiments/Knapen_AOT/AOT_stimuli/rescaled_final/1561_rv.mp4	0.0	186.15898251533508	0.09999847412109375
35	168.08317232131958	fix_pre	0		120	33.0	2.5	blank	1.0	186.25898098945618	1.000136137008667
35	168.66673636436462	pulse	0	t		33.0	2.5	blank	1.0	186.84254503250122	
35	169.08330845832825	movie	1		300	33.0	2.5	blank	1.0	187.25911712646484	2.500415563583374
35	170.26698756217957	pulse	1	t		33.0	2.5	blank	1.0	188.44279623031616	
35	171.58372402191162	fix_post	2		12	33.0	2.5	blank	1.0	189.75953269004822	0.09998703002929688
36	171.68371105194092	fix_pre	0		120	34.0	2.5	/experiments/Knapen_AOT/AOT_stimuli/rescaled_final/0119_rv.mp4	0.0	189.85951972007751	1.0085740089416504
36	171.867427110672	pulse	0	t		34.0	2.5	/experiments/Knapen_AOT/AOT_stimuli/rescaled_final/0119_rv.mp4	0.0	190.0432357788086	
36	172.69228506088257	movie	1		274	34.0	2.5	/experiments/Knapen_AOT/AOT_stimuli/rescaled_final/0119_rv.mp4	0.0	190.86809372901917	2.4920156002044678
36	173.46554112434387	pulse	1	t		34.0	2.5	/experiments/Knapen_AOT/AOT_stimuli/rescaled_final/0119_rv.mp4	0.0	191.64134979248047	
36	175.0657615661621	pulse	1	t		34.0	2.5	/experiments/Knapen_AOT/AOT_stimuli/rescaled_final/0119_rv.mp4	0.0	193.2415702342987	
36	175.18430066108704	fix_post	2		12	34.0	2.5	/experiments/Knapen_AOT/AOT_stimuli/rescaled_final/0119_rv.mp4	0.0	193.36010932922363	0.09997892379760742
37	175.28427958488464	fix_pre	0		120	35.0	2.5	/experiments/Knapen_AOT/AOT_stimuli/rescaled_final/1973_fw.mp4	0.0	193.46008825302124	1.0084731578826904
37	176.29275274276733	movie	1		281	35.0	2.5	/experiments/Knapen_AOT/AOT_stimuli/rescaled_final/1973_fw.mp4	0.0	194.46856141090393	2.4920337200164795
37	176.66661715507507	pulse	1	t		35.0	2.5	/experiments/Knapen_AOT/AOT_stimuli/rescaled_final/1973_fw.mp4	0.0	194.84242582321167	
37	178.2658360004425	pulse	1	t		35.0	2.5	/experiments/Knapen_AOT/AOT_stimuli/rescaled_final/1973_fw.mp4	0.0	196.4416446685791	
37	178.7847864627838	fix_post	2		12	35.0	2.5	/experiments/Knapen_AOT/AOT_stimuli/rescaled_final/1973_fw.mp4	0.0	196.9605951309204	0.1000223159790039
38	178.88480877876282	fix_pre	0		119	36.0	2.5	/experiments/Knapen_AOT/AOT_stimuli/rescaled_final/0832_rv.mp4	0.0	197.0606174468994	1.0002381801605225
38	179.8684961795807	pulse	0	t		36.0	2.5	/experiments/Knapen_AOT/AOT_stimuli/rescaled_final/0832_rv.mp4	0.0	198.04430484771729	
38	179.88504695892334	movie	1		284	36.0	2.5	/experiments/Knapen_AOT/AOT_stimuli/rescaled_final/0832_rv.mp4	0.0	198.06085562705994	2.5002832412719727
38	181.46728444099426	pulse	1	t		36.0	2.5	/experiments/Knapen_AOT/AOT_stimuli/rescaled_final/0832_rv.mp4	0.0	199.64309310913086	
38	182.3853302001953	fix_post	2		12	36.0	2.5	/experiments/Knapen_AOT/AOT_stimuli/rescaled_final/0832_rv.mp4	0.0	200.5611388683319	0.10008406639099121
39	182.4854142665863	fix_pre	0		120	37.0	2.5	/experiments/Knapen_AOT/AOT_stimuli/rescaled_final/1407_rv.mp4	0.0	200.6612229347229	1.00844144821167
39	183.06893229484558	pulse	0	t		37.0	2.5	/experiments/Knapen_AOT/AOT_stimuli/rescaled_final/1407_rv.mp4	0.0	201.24474096298218	
39	183.49385571479797	movie	1		269	37.0	2.5	/experiments/Knapen_AOT/AOT_stimuli/rescaled_final/1407_rv.mp4	0.0	201.66966438293457	2.492011785507202
39	184.6676197052002	pulse	1	t		37.0	2.5	/experiments/Knapen_AOT/AOT_stimuli/rescaled_final/1407_rv.mp4	0.0	202.8434283733368	
39	185.98586750030518	fix_post	2		12	37.0	2.5	/experiments/Knapen_AOT/AOT_stimuli/rescaled_final/1407_rv.mp4	0.0	204.16167616844177	0.10002613067626953
40	186.08589363098145	fix_pre	0		120	38.0	2.5	/experiments/Knapen_AOT/AOT_stimuli/rescaled_final/1454_rv.mp4	0.0	204.26170229911804	1.0085341930389404
40	186.26151490211487	pulse	0	t		38.0	2.5	/experiments/Knapen_AOT/AOT_stimuli/rescaled_final/1454_rv.mp4	0.0	204.43732357025146	
40	187.09442782402039	movie	1		281	38.0	2.5	/experiments/Knapen_AOT/AOT_stimuli/rescaled_final/1454_rv.mp4	0.0	205.27023649215698	2.4920475482940674
40	187.86137056350708	pulse	1	t		38.0	2.5	/experiments/Knapen_AOT/AOT_stimuli/rescaled_final/1454_rv.mp4	0.0	206.03717923164368	
40	189.46164393424988	pulse	1	t		38.0	2.5	/experiments/Knapen_AOT/AOT_stimuli/rescaled_final/1454_rv.mp4	0.0	207.63745260238647	
40	189.58647537231445	fix_post	2		12	38.0	2.5	/experiments/Knapen_AOT/AOT_stimuli/rescaled_final/1454_rv.mp4	0.0	207.76228404045105	0.10001921653747559
41	189.68649458885193	fix_pre	0		120	39.0	2.5	/experiments/Knapen_AOT/AOT_stimuli/rescaled_final/1505_rv.mp4	0.0	207.86230325698853	1.0084285736083984
41	190.69492316246033	movie	1		283	39.0	2.5	/experiments/Knapen_AOT/AOT_stimuli/rescaled_final/1505_rv.mp4	0.0	208.87073183059692	2.492029905319214
41	191.0618121623993	pulse	1	t		39.0	2.5	/experiments/Knapen_AOT/AOT_stimuli/rescaled_final/1505_rv.mp4	0.0	209.2376208305359	
41	192.6620228290558	pulse	1	t		39.0	2.5	/experiments/Knapen_AOT/AOT_stimuli/rescaled_final/1505_rv.mp4	0.0	210.83783149719238	
41	193.18695306777954	fix_post	2		12	39.0	2.5	/experiments/Knapen_AOT/AOT_stimuli/rescaled_final/1505_rv.mp4	0.0	211.36276173591614	0.10001873970031738
42	193.28697180747986	fix_pre	0		118	40.0	2.5	/experiments/Knapen_AOT/AOT_stimuli/rescaled_final/1005_fw.mp4	0.0	211.46278047561646	0.9918234348297119
42	194.2622675895691	pulse	0	t		40.0	2.5	/experiments/Knapen_AOT/AOT_stimuli/rescaled_final/1005_fw.mp4	0.0	212.4380762577057	
42	194.27879524230957	movie	1		269	40.0	2.5	/experiments/Knapen_AOT/AOT_stimuli/rescaled_final/1005_fw.mp4	0.0	212.45460391044617	2.5003764629364014
42	195.86254906654358	pulse	1	t		40.0	2.5	/experiments/Knapen_AOT/AOT_stimuli/rescaled_final/1005_fw.mp4	0.0	214.03835773468018	
42	196.77917170524597	fix_post	2		12	40.0	2.5	/experiments/Knapen_AOT/AOT_stimuli/rescaled_final/1005_fw.mp4	0.0	214.95498037338257	0.10004401206970215
43	196.87921571731567	fix_pre	0		120	41.0	2.5	blank	1.0	215.05502438545227	1.0001015663146973
43	197.4627959728241	pulse	0	t		41.0	2.5	blank	1.0	215.6386046409607	
43	197.87931728363037	movie	1		300	41.0	2.5	blank	1.0	216.05512595176697	2.500514030456543
43	199.06301641464233	pulse	1	t		41.0	2.5	blank	1.0	217.23882508277893	
43	200.3798313140869	fix_post	2		12	41.0	2.5	blank	1.0	218.5556399822235	0.09986662864685059
44	200.47969794273376	fix_pre	0		120	42.0	2.5	/experiments/Knapen_AOT/AOT_stimuli/rescaled_final/0157_rv.mp4	0.0	218.65550661087036	1.0085644721984863
44	200.6632354259491	pulse	0	t		42.0	2.5	/experiments/Knapen_AOT/AOT_stimuli/rescaled_final/0157_rv.mp4	0.0	218.8390440940857	
44	201.48826241493225	movie	1		279	42.0	2.5	/experiments/Knapen_AOT/AOT_stimuli/rescaled_final/0157_rv.mp4	0.0	219.66407108306885	2.4919705390930176
44	202.26149821281433	pulse	1	t		42.0	2.5	/experiments/Knapen_AOT/AOT_stimuli/rescaled_final/0157_rv.mp4	0.0	220.43730688095093	
44	203.8619246482849	pulse	1	t		42.0	2.5	/experiments/Knapen_AOT/AOT_stimuli/rescaled_final/0157_rv.mp4	0.0	222.0377333164215	
44	203.98023295402527	fix_post	2		12	42.0	2.5	/experiments/Knapen_AOT/AOT_stimuli/rescaled_final/0157_rv.mp4	0.0	222.15604162216187	0.1000370979309082
45	204.08027005195618	fix_pre	0		120	43.0	2.5	/experiments/Knapen_AOT/AOT_stimuli/rescaled_final/2129_rv.mp4	0.0	222.25607872009277	1.0085268020629883
45	205.08879685401917	movie	1		284	43.0	2.5	/experiments/Knapen_AOT/AOT_stimuli/rescaled_final/2129_rv.mp4	0.0	223.26460552215576	2.4920661449432373
45	205.46381092071533	pulse	1	t		43.0	2.5	/experiments/Knapen_AOT/AOT_stimuli/rescaled_final/2129_rv.mp4	0.0	223.63961958885193	
45	207.06218671798706	pulse	1	t		43.0	2.5	/experiments/Knapen_AOT/AOT_stimuli/rescaled_final/2129_rv.mp4	0.0	225.23799538612366	
45	207.5808629989624	fix_post	2		12	43.0	2.5	/experiments/Knapen_AOT/AOT_stimuli/rescaled_final/2129_rv.mp4	0.0	225.756671667099	0.09990835189819336
46	207.6807713508606	fix_pre	0		119	44.0	2.5	/experiments/Knapen_AOT/AOT_stimuli/rescaled_final/0168_fw.mp4	0.0	225.8565800189972	1.0003879070281982
46	208.66448879241943	pulse	0	t		44.0	2.5	/experiments/Knapen_AOT/AOT_stimuli/rescaled_final/0168_fw.mp4	0.0	226.84029746055603	
46	208.6811592578888	movie	1		276	44.0	2.5	/experiments/Knapen_AOT/AOT_stimuli/rescaled_final/0168_fw.mp4	0.0	226.8569679260254	2.5001776218414307
46	210.26352453231812	pulse	1	t		44.0	2.5	/experiments/Knapen_AOT/AOT_stimuli/rescaled_final/0168_fw.mp4	0.0	228.4393332004547	
46	211.18133687973022	fix_post	2		12	44.0	2.5	/experiments/Knapen_AOT/AOT_stimuli/rescaled_final/0168_fw.mp4	0.0	229.35714554786682	0.09999537467956543
47	211.2813322544098	fix_pre	0		120	45.0	2.5	/experiments/Knapen_AOT/AOT_stimuli/rescaled_final/0978_rv.mp4	0.0	229.4571409225464	1.008535623550415
47	211.8649423122406	pulse	0	t		45.0	2.5	/experiments/Knapen_AOT/AOT_stimuli/rescaled_final/0978_rv.mp4	0.0	230.0407509803772	
47	212.2898678779602	movie	1		277	45.0	2.5	/experiments/Knapen_AOT/AOT_stimuli/rescaled_final/0978_rv.mp4	0.0	230.4656765460968	2.492009162902832
47	213.46318364143372	pulse	1	t		45.0	2.5	/experiments/Knapen_AOT/AOT_stimuli/rescaled_final/0978_rv.mp4	0.0	231.6389923095703	
47	214.78187704086304	fix_post	2		12	45.0	2.5	/experiments/Knapen_AOT/AOT_stimuli/rescaled_final/0978_rv.mp4	0.0	232.95768570899963	0.10000848770141602
48	214.88188552856445	fix_pre	0		120	46.0	2.5	/experiments/Knapen_AOT/AOT_stimuli/rescaled_final/0763_rv.mp4	0.0	233.05769419670105	1.008491039276123
48	215.06537222862244	pulse	0	t		46.0	2.5	/experiments/Knapen_AOT/AOT_stimuli/rescaled_final/0763_rv.mp4	0.0	233.24118089675903	
48	215.89037656784058	movie	1		270	46.0	2.5	/experiments/Knapen_AOT/AOT_stimuli/rescaled_final/0763_rv.mp4	0.0	234.06618523597717	2.492084503173828
48	216.66380095481873	pulse	1	t		46.0	2.5	/experiments/Knapen_AOT/AOT_stimuli/rescaled_final/0763_rv.mp4	0.0	234.83960962295532	
48	218.26397275924683	pulse	1	t		46.0	2.5	/experiments/Knapen_AOT/AOT_stimuli/rescaled_final/0763_rv.mp4	0.0	236.43978142738342	
48	218.3824610710144	fix_post	2		12	46.0	2.5	/experiments/Knapen_AOT/AOT_stimuli/rescaled_final/0763_rv.mp4	0.0	236.558269739151	0.09998345375061035
49	218.48244452476501	fix_pre	0		120	47.0	2.5	/experiments/Knapen_AOT/AOT_stimuli/rescaled_final/0882_fw.mp4	0.0	236.6582531929016	1.0084898471832275
49	219.49093437194824	movie	1		282	47.0	2.5	/experiments/Knapen_AOT/AOT_stimuli/rescaled_final/0882_fw.mp4	0.0	237.66674304008484	2.4920921325683594
49	219.86408734321594	pulse	1	t		47.0	2.5	/experiments/Knapen_AOT/AOT_stimuli/rescaled_final/0882_fw.mp4	0.0	238.03989601135254	
49	221.4644215106964	pulse	1	t		47.0	2.5	/experiments/Knapen_AOT/AOT_stimuli/rescaled_final/0882_fw.mp4	0.0	239.640230178833	
49	221.9830265045166	fix_post	2		12	47.0	2.5	/experiments/Knapen_AOT/AOT_stimuli/rescaled_final/0882_fw.mp4	0.0	240.1588351726532	0.09994006156921387
50	222.08296656608582	fix_pre	0		119	48.0	2.5	blank	1.0	240.2587752342224	0.9918184280395508
50	223.06667518615723	pulse	0	t		48.0	2.5	blank	1.0	241.24248385429382	
50	223.07478499412537	movie	1		301	48.0	2.5	blank	1.0	241.25059366226196	2.508721351623535
50	224.66709446907043	pulse	1	t		48.0	2.5	blank	1.0	242.84290313720703	
50	225.5835063457489	fix_post	2		12	48.0	2.5	blank	1.0	243.7593150138855	0.10008502006530762
51	225.6835913658142	fix_pre	0		120	49.0	2.5	/experiments/Knapen_AOT/AOT_stimuli/rescaled_final/0469_fw.mp4	0.0	243.8594000339508	1.0083951950073242
51	226.26718068122864	pulse	0	t		49.0	2.5	/experiments/Knapen_AOT/AOT_stimuli/rescaled_final/0469_fw.mp4	0.0	244.44298934936523	
51	226.69198656082153	movie	1		267	49.0	2.5	/experiments/Knapen_AOT/AOT_stimuli/rescaled_final/0469_fw.mp4	0.0	244.86779522895813	2.4920456409454346
51	227.86530208587646	pulse	1	t		49.0	2.5	/experiments/Knapen_AOT/AOT_stimuli/rescaled_final/0469_fw.mp4	0.0	246.04111075401306	
51	229.18403220176697	fix_post	2		12	49.0	2.5	/experiments/Knapen_AOT/AOT_stimuli/rescaled_final/0469_fw.mp4	0.0	247.35984086990356	0.1000204086303711
52	229.28405261039734	fix_pre	0		120	50.0	2.5	/experiments/Knapen_AOT/AOT_stimuli/rescaled_final/0062_fw.mp4	0.0	247.45986127853394	1.0085418224334717
52	229.46760725975037	pulse	0	t		50.0	2.5	/experiments/Knapen_AOT/AOT_stimuli/rescaled_final/0062_fw.mp4	0.0	247.64341592788696	
52	230.2925944328308	movie	1		278	50.0	2.5	/experiments/Knapen_AOT/AOT_stimuli/rescaled_final/0062_fw.mp4	0.0	248.4684031009674	2.4919772148132324
52	231.06588983535767	pulse	1	t		50.0	2.5	/experiments/Knapen_AOT/AOT_stimuli/rescaled_final/0062_fw.mp4	0.0	249.24169850349426	
52	232.66624093055725	pulse	1	t		50.0	2.5	/experiments/Knapen_AOT/AOT_stimuli/rescaled_final/0062_fw.mp4	0.0	250.84204959869385	
52	232.78457164764404	fix_post	2		12	50.0	2.5	/experiments/Knapen_AOT/AOT_stimuli/rescaled_final/0062_fw.mp4	0.0	250.96038031578064	0.10001802444458008
53	232.88458967208862	fix_pre	0		120	51.0	2.5	/experiments/Knapen_AOT/AOT_stimuli/rescaled_final/1654_rv.mp4	0.0	251.06039834022522	1.00856614112854
53	233.89315581321716	movie	1		273	51.0	2.5	/experiments/Knapen_AOT/AOT_stimuli/rescaled_final/1654_rv.mp4	0.0	252.06896448135376	2.492093563079834
53	234.26739764213562	pulse	1	t		51.0	2.5	/experiments/Knapen_AOT/AOT_stimuli/rescaled_final/1654_rv.mp4	0.0	252.44320631027222	
53	235.86671447753906	pulse	1	t		51.0	2.5	/experiments/Knapen_AOT/AOT_stimuli/rescaled_final/1654_rv.mp4	0.0	254.04252314567566	
53	236.385249376297	fix_post	2		12	51.0	2.5	/experiments/Knapen_AOT/AOT_stimuli/rescaled_final/1654_rv.mp4	0.0	254.5610580444336	0.09990119934082031
54	236.48515057563782	fix_pre	0		119	52.0	2.5	/experiments/Knapen_AOT/AOT_stimuli/rescaled_final/1956_fw.mp4	0.0	254.6609592437744	1.0001146793365479
54	237.468896150589	pulse	0	t		52.0	2.5	/experiments/Knapen_AOT/AOT_stimuli/rescaled_final/1956_fw.mp4	0.0	255.6447048187256	
54	237.48526525497437	movie	1		279	52.0	2.5	/experiments/Knapen_AOT/AOT_stimuli/rescaled_final/1956_fw.mp4	0.0	255.66107392311096	2.5004069805145264
54	239.06865453720093	pulse	1	t		52.0	2.5	/experiments/Knapen_AOT/AOT_stimuli/rescaled_final/1956_fw.mp4	0.0	257.2444632053375	
54	239.9856722354889	fix_post	2		11	52.0	2.5	/experiments/Knapen_AOT/AOT_stimuli/rescaled_final/1956_fw.mp4	0.0	258.1614809036255	0.10003495216369629
55	240.0857071876526	fix_pre	0		120	53.0	2.5	/experiments/Knapen_AOT/AOT_stimuli/rescaled_final/1217_rv.mp4	0.0	258.2615158557892	1.0084888935089111
55	240.66950225830078	pulse	0	t		53.0	2.5	/experiments/Knapen_AOT/AOT_stimuli/rescaled_final/1217_rv.mp4	0.0	258.8453109264374	
55	241.0941960811615	movie	1		287	53.0	2.5	/experiments/Knapen_AOT/AOT_stimuli/rescaled_final/1217_rv.mp4	0.0	259.2700047492981	2.492002248764038
55	242.2677218914032	pulse	1	t		53.0	2.5	/experiments/Knapen_AOT/AOT_stimuli/rescaled_final/1217_rv.mp4	0.0	260.4435305595398	
55	243.58619832992554	fix_post	2		12	53.0	2.5	/experiments/Knapen_AOT/AOT_stimuli/rescaled_final/1217_rv.mp4	0.0	261.76200699806213	0.10002279281616211
56	243.6862211227417	fix_pre	0		120	54.0	2.5	/experiments/Knapen_AOT/AOT_stimuli/rescaled_final/0739_rv.mp4	0.0	261.8620297908783	1.0085256099700928
56	243.86181712150574	pulse	0	t		54.0	2.5	/experiments/Knapen_AOT/AOT_stimuli/rescaled_final/0739_rv.mp4	0.0	262.03762578964233	
56	244.6947467327118	movie	1		289	54.0	2.5	/experiments/Knapen_AOT/AOT_stimuli/rescaled_final/0739_rv.mp4	0.0	262.8705554008484	2.491999626159668
56	245.46186423301697	pulse	1	t		54.0	2.5	/experiments/Knapen_AOT/AOT_stimuli/rescaled_final/0739_rv.mp4	0.0	263.63767290115356	
56	247.06194019317627	pulse	1	t		54.0	2.5	/experiments/Knapen_AOT/AOT_stimuli/rescaled_final/0739_rv.mp4	0.0	265.23774886131287	
56	247.18674635887146	fix_post	2		12	54.0	2.5	/experiments/Knapen_AOT/AOT_stimuli/rescaled_final/0739_rv.mp4	0.0	265.36255502700806	0.10001635551452637
57	247.286762714386	fix_pre	0		120	55.0	2.5	blank	1.0	265.4625713825226	1.0001411437988281
57	248.28690385818481	movie	1		300	55.0	2.5	blank	1.0	266.4627125263214	2.5003700256347656
57	248.6622498035431	pulse	1	t		55.0	2.5	blank	1.0	266.8380584716797	
57	250.26240587234497	pulse	1	t		55.0	2.5	blank	1.0	268.43821454048157	
57	250.78727388381958	fix_post	2		12	55.0	2.5	blank	1.0	268.9630825519562	0.10006046295166016
58	250.88733434677124	fix_pre	0		118	56.0	2.5	/experiments/Knapen_AOT/AOT_stimuli/rescaled_final/1205_rv.mp4	0.0	269.06314301490784	0.9917757511138916
58	251.86267375946045	pulse	0	t		56.0	2.5	/experiments/Knapen_AOT/AOT_stimuli/rescaled_final/1205_rv.mp4	0.0	270.03848242759705	
58	251.87911009788513	movie	1		280	56.0	2.5	/experiments/Knapen_AOT/AOT_stimuli/rescaled_final/1205_rv.mp4	0.0	270.05491876602173	2.5003838539123535
58	253.46297693252563	pulse	1	t		56.0	2.5	/experiments/Knapen_AOT/AOT_stimuli/rescaled_final/1205_rv.mp4	0.0	271.63878560066223	
58	254.37949395179749	fix_post	2		12	56.0	2.5	/experiments/Knapen_AOT/AOT_stimuli/rescaled_final/1205_rv.mp4	0.0	272.5553026199341	0.1000053882598877
59	254.47949934005737	fix_pre	0		120	57.0	2.5	/experiments/Knapen_AOT/AOT_stimuli/rescaled_final/0565_rv.mp4	0.0	272.65530800819397	1.0085253715515137
59	255.06318378448486	pulse	0	t		57.0	2.5	/experiments/Knapen_AOT/AOT_stimuli/rescaled_final/0565_rv.mp4	0.0	273.23899245262146	
59	255.4880247116089	movie	1		273	57.0	2.5	/experiments/Knapen_AOT/AOT_stimuli/rescaled_final/0565_rv.mp4	0.0	273.6638333797455	2.4919822216033936
59	256.66341757774353	pulse	1	t		57.0	2.5	/experiments/Knapen_AOT/AOT_stimuli/rescaled_final/0565_rv.mp4	0.0	274.8392262458801	
59	257.9800069332123	fix_post	2		12	57.0	2.5	/experiments/Knapen_AOT/AOT_stimuli/rescaled_final/0565_rv.mp4	0.0	276.1558156013489	0.1000516414642334
60	258.0800585746765	fix_pre	0		120	58.0	2.5	/experiments/Knapen_AOT/AOT_stimuli/rescaled_final/0842_fw.mp4	0.0	276.2558672428131	1.0085718631744385
60	258.2637560367584	pulse	0	t		58.0	2.5	/experiments/Knapen_AOT/AOT_stimuli/rescaled_final/0842_fw.mp4	0.0	276.439564704895	
60	259.08863043785095	movie	1		288	58.0	2.5	/experiments/Knapen_AOT/AOT_stimuli/rescaled_final/0842_fw.mp4	0.0	277.26443910598755	2.491926908493042
60	259.8620009422302	pulse	1	t		58.0	2.5	/experiments/Knapen_AOT/AOT_stimuli/rescaled_final/0842_fw.mp4	0.0	278.0378096103668	
60	261.46230721473694	pulse	1	t		58.0	2.5	/experiments/Knapen_AOT/AOT_stimuli/rescaled_final/0842_fw.mp4	0.0	279.63811588287354	
60	261.580557346344	fix_post	2		12	58.0	2.5	/experiments/Knapen_AOT/AOT_stimuli/rescaled_final/0842_fw.mp4	0.0	279.7563660144806	0.10009121894836426
61	261.68064856529236	fix_pre	0		120	59.0	2.5	/experiments/Knapen_AOT/AOT_stimuli/rescaled_final/2033_rv.mp4	0.0	279.85645723342896	1.0084538459777832
61	262.68910241127014	movie	1		264	59.0	2.5	/experiments/Knapen_AOT/AOT_stimuli/rescaled_final/2033_rv.mp4	0.0	280.86491107940674	2.4920456409454346
61	263.06445598602295	pulse	1	t		59.0	2.5	/experiments/Knapen_AOT/AOT_stimuli/rescaled_final/2033_rv.mp4	0.0	281.24026465415955	
61	264.6625437736511	pulse	1	t		59.0	2.5	/experiments/Knapen_AOT/AOT_stimuli/rescaled_final/2033_rv.mp4	0.0	282.8383524417877	
61	265.1811480522156	fix_post	2		12	59.0	2.5	/experiments/Knapen_AOT/AOT_stimuli/rescaled_final/2033_rv.mp4	0.0	283.3569567203522	0.09997272491455078
62	265.2811207771301	fix_pre	0		119	60.0	2.5	/experiments/Knapen_AOT/AOT_stimuli/rescaled_final/1341_rv.mp4	0.0	283.4569294452667	1.0002353191375732
62	266.265020608902	pulse	0	t		60.0	2.5	/experiments/Knapen_AOT/AOT_stimuli/rescaled_final/1341_rv.mp4	0.0	284.4408292770386	
62	266.2813560962677	movie	1		282	60.0	2.5	/experiments/Knapen_AOT/AOT_stimuli/rescaled_final/1341_rv.mp4	0.0	284.4571647644043	2.500291585922241
62	267.86322951316833	pulse	1	t		60.0	2.5	/experiments/Knapen_AOT/AOT_stimuli/rescaled_final/1341_rv.mp4	0.0	286.03903818130493	
62	268.78164768218994	fix_post	2		12	60.0	2.5	/experiments/Knapen_AOT/AOT_stimuli/rescaled_final/1341_rv.mp4	0.0	286.95745635032654	0.10009360313415527
63	268.8817412853241	fix_pre	0		120	61.0	2.5	blank	1.0	287.0575499534607	1.0000662803649902
63	269.4653832912445	pulse	0	t		61.0	2.5	blank	1.0	287.6411919593811	
63	269.8818075656891	movie	1		300	61.0	2.5	blank	1.0	288.0576162338257	2.5003793239593506
63	271.0656359195709	pulse	1	t		61.0	2.5	blank	1.0	289.2414445877075	
63	272.38218688964844	fix_post	2		11	61.0	2.5	blank	1.0	290.55799555778503	0.10000944137573242
64	272.48219633102417	fix_pre	0		120	62.0	2.5	/experiments/Knapen_AOT/AOT_stimuli/rescaled_final/1673_rv.mp4	0.0	290.65800499916077	1.008518934249878
64	272.6658282279968	pulse	0	t		62.0	2.5	/experiments/Knapen_AOT/AOT_stimuli/rescaled_final/1673_rv.mp4	0.0	290.8416368961334	
64	273.49071526527405	movie	1		284	62.0	2.5	/experiments/Knapen_AOT/AOT_stimuli/rescaled_final/1673_rv.mp4	0.0	291.66652393341064	2.4920284748077393
64	274.26560044288635	pulse	1	t		62.0	2.5	/experiments/Knapen_AOT/AOT_stimuli/rescaled_final/1673_rv.mp4	0.0	292.44140911102295	
64	275.86436462402344	pulse	1	t		62.0	2.5	/experiments/Knapen_AOT/AOT_stimuli/rescaled_final/1673_rv.mp4	0.0	294.04017329216003	
64	275.9827437400818	fix_post	2		12	62.0	2.5	/experiments/Knapen_AOT/AOT_stimuli/rescaled_final/1673_rv.mp4	0.0	294.1585524082184	0.10001158714294434
65	276.08275532722473	fix_pre	0		120	63.0	2.5	/experiments/Knapen_AOT/AOT_stimuli/rescaled_final/0832_fw.mp4	0.0	294.2585639953613	1.008493423461914
65	277.09124875068665	movie	1		280	63.0	2.5	/experiments/Knapen_AOT/AOT_stimuli/rescaled_final/0832_fw.mp4	0.0	295.26705741882324	2.4920341968536377
65	277.46555519104004	pulse	1	t		63.0	2.5	/experiments/Knapen_AOT/AOT_stimuli/rescaled_final/0832_fw.mp4	0.0	295.64136385917664	
65	279.0648729801178	pulse	1	t		63.0	2.5	/experiments/Knapen_AOT/AOT_stimuli/rescaled_final/0832_fw.mp4	0.0	297.2406816482544	
65	279.5832829475403	fix_post	2		12	63.0	2.5	/experiments/Knapen_AOT/AOT_stimuli/rescaled_final/0832_fw.mp4	0.0	297.7590916156769	0.10002303123474121
66	279.683305978775	fix_pre	0		119	64.0	2.5	/experiments/Knapen_AOT/AOT_stimuli/rescaled_final/0279_rv.mp4	0.0	297.8591146469116	1.0001678466796875
66	280.66715931892395	pulse	0	t		64.0	2.5	/experiments/Knapen_AOT/AOT_stimuli/rescaled_final/0279_rv.mp4	0.0	298.84296798706055	
66	280.6834738254547	movie	1		267	64.0	2.5	/experiments/Knapen_AOT/AOT_stimuli/rescaled_final/0279_rv.mp4	0.0	298.8592824935913	2.5087263584136963
66	282.2658712863922	pulse	1	t		64.0	2.5	/experiments/Knapen_AOT/AOT_stimuli/rescaled_final/0279_rv.mp4	0.0	300.4416799545288	
66	283.1922001838684	fix_post	2		11	64.0	2.5	/experiments/Knapen_AOT/AOT_stimuli/rescaled_final/0279_rv.mp4	0.0	301.368008852005	0.09163856506347656
67	283.2838387489319	fix_pre	0		120	65.0	2.5	/experiments/Knapen_AOT/AOT_stimuli/rescaled_final/0770_rv.mp4	0.0	301.4596474170685	1.008558750152588
67	283.8674576282501	pulse	0	t		65.0	2.5	/experiments/Knapen_AOT/AOT_stimuli/rescaled_final/0770_rv.mp4	0.0	302.0432662963867	
67	284.2923974990845	movie	1		278	65.0	2.5	/experiments/Knapen_AOT/AOT_stimuli/rescaled_final/0770_rv.mp4	0.0	302.46820616722107	2.4919822216033936
67	285.46613216400146	pulse	1	t		65.0	2.5	/experiments/Knapen_AOT/AOT_stimuli/rescaled_final/0770_rv.mp4	0.0	303.64194083213806	
67	286.78437972068787	fix_post	2		12	65.0	2.5	/experiments/Knapen_AOT/AOT_stimuli/rescaled_final/0770_rv.mp4	0.0	304.96018838882446	0.10002708435058594
68	286.88440680503845	fix_pre	0		120	66.0	2.5	/experiments/Knapen_AOT/AOT_stimuli/rescaled_final/1028_rv.mp4	0.0	305.06021547317505	1.008474349975586
68	287.06841802597046	pulse	0	t		66.0	2.5	/experiments/Knapen_AOT/AOT_stimuli/rescaled_final/1028_rv.mp4	0.0	305.24422669410706	
68	287.89288115501404	movie	1		280	66.0	2.5	/experiments/Knapen_AOT/AOT_stimuli/rescaled_final/1028_rv.mp4	0.0	306.06868982315063	2.492009162902832
68	288.6662018299103	pulse	1	t		66.0	2.5	/experiments/Knapen_AOT/AOT_stimuli/rescaled_final/1028_rv.mp4	0.0	306.8420104980469	
68	290.26631331443787	pulse	1	t		66.0	2.5	/experiments/Knapen_AOT/AOT_stimuli/rescaled_final/1028_rv.mp4	0.0	308.44212198257446	
68	290.38489031791687	fix_post	2		12	66.0	2.5	/experiments/Knapen_AOT/AOT_stimuli/rescaled_final/1028_rv.mp4	0.0	308.56069898605347	0.10013866424560547
69	290.4850289821625	fix_pre	0		120	67.0	2.5	/experiments/Knapen_AOT/AOT_stimuli/rescaled_final/1489_rv.mp4	0.0	308.6608376502991	1.0084168910980225
69	291.4934458732605	movie	1		283	67.0	2.5	/experiments/Knapen_AOT/AOT_stimuli/rescaled_final/1489_rv.mp4	0.0	309.6692545413971	2.4919986724853516
69	291.86735701560974	pulse	1	t		67.0	2.5	/experiments/Knapen_AOT/AOT_stimuli/rescaled_final/1489_rv.mp4	0.0	310.04316568374634	
69	293.4668598175049	pulse	1	t		67.0	2.5	/experiments/Knapen_AOT/AOT_stimuli/rescaled_final/1489_rv.mp4	0.0	311.6426684856415	
69	293.98544454574585	fix_post	2		12	67.0	2.5	/experiments/Knapen_AOT/AOT_stimuli/rescaled_final/1489_rv.mp4	0.0	312.16125321388245	0.1000370979309082
70	294.08548164367676	fix_pre	0		119	68.0	2.5	/experiments/Knapen_AOT/AOT_stimuli/rescaled_final/0040_rv.mp4	0.0	312.26129031181335	1.0001490116119385
70	295.06919169425964	pulse	0	t		68.0	2.5	/experiments/Knapen_AOT/AOT_stimuli/rescaled_final/0040_rv.mp4	0.0	313.24500036239624	
70	295.0856306552887	movie	1		281	68.0	2.5	/experiments/Knapen_AOT/AOT_stimuli/rescaled_final/0040_rv.mp4	0.0	313.2614393234253	2.5003528594970703
70	296.6679947376251	pulse	1	t		68.0	2.5	/experiments/Knapen_AOT/AOT_stimuli/rescaled_final/0040_rv.mp4	0.0	314.8438034057617	
70	297.58598351478577	fix_post	2		12	68.0	2.5	/experiments/Knapen_AOT/AOT_stimuli/rescaled_final/0040_rv.mp4	0.0	315.76179218292236	0.10001564025878906
71	297.68599915504456	fix_pre	0		120	69.0	2.5	/experiments/Knapen_AOT/AOT_stimuli/rescaled_final/1445_fw.mp4	0.0	315.86180782318115	1.0084786415100098
71	298.26974296569824	pulse	0	t		69.0	2.5	/experiments/Knapen_AOT/AOT_stimuli/rescaled_final/1445_fw.mp4	0.0	316.44555163383484	
71	298.69447779655457	movie	1		264	69.0	2.5	/experiments/Knapen_AOT/AOT_stimuli/rescaled_final/1445_fw.mp4	0.0	316.87028646469116	2.4920835494995117
71	299.87082028388977	pulse	1	t		69.0	2.5	/experiments/Knapen_AOT/AOT_stimuli/rescaled_final/1445_fw.mp4	0.0	318.04662895202637	
71	301.1865613460541	fix_post	2		12	69.0	2.5	/experiments/Knapen_AOT/AOT_stimuli/rescaled_final/1445_fw.mp4	0.0	319.3623700141907	0.10008597373962402
72	301.2866473197937	fix_pre	0		120	70.0	2.5	blank	1.0	319.4624559879303	1.0001022815704346
72	301.4625005722046	pulse	0	t		70.0	2.5	blank	1.0	319.6383092403412	
72	302.28674960136414	movie	1		300	70.0	2.5	blank	1.0	320.46255826950073	2.500307559967041
72	303.0622732639313	pulse	1	t		70.0	2.5	blank	1.0	321.23808193206787	
72	304.6623868942261	pulse	1	t		70.0	2.5	blank	1.0	322.83819556236267	
72	304.7870571613312	fix_post	2		12	70.0	2.5	blank	1.0	322.9628658294678	0.10001230239868164
73	304.88706946372986	fix_pre	0		120	71.0	2.5	/experiments/Knapen_AOT/AOT_stimuli/rescaled_final/2164_fw.mp4	0.0	323.06287813186646	1.0085251331329346
73	305.8955945968628	movie	1		279	71.0	2.5	/experiments/Knapen_AOT/AOT_stimuli/rescaled_final/2164_fw.mp4	0.0	324.0714032649994	2.4920241832733154
73	306.2622013092041	pulse	1	t		71.0	2.5	/experiments/Knapen_AOT/AOT_stimuli/rescaled_final/2164_fw.mp4	0.0	324.4380099773407	
73	307.86287450790405	pulse	1	t		71.0	2.5	/experiments/Knapen_AOT/AOT_stimuli/rescaled_final/2164_fw.mp4	0.0	326.03868317604065	
73	308.3876187801361	fix_post	2		12	71.0	2.5	/experiments/Knapen_AOT/AOT_stimuli/rescaled_final/2164_fw.mp4	0.0	326.5634274482727	0.10005807876586914
74	308.487676858902	fix_pre	0		118	72.0	2.5	/experiments/Knapen_AOT/AOT_stimuli/rescaled_final/2034_fw.mp4	0.0	326.6634855270386	0.9917638301849365
74	309.4632017612457	pulse	0	t		72.0	2.5	/experiments/Knapen_AOT/AOT_stimuli/rescaled_final/2034_fw.mp4	0.0	327.6390104293823	
74	309.4794406890869	movie	1		273	72.0	2.5	/experiments/Knapen_AOT/AOT_stimuli/rescaled_final/2034_fw.mp4	0.0	327.6552493572235	2.500398874282837
74	311.06341671943665	pulse	1	t		72.0	2.5	/experiments/Knapen_AOT/AOT_stimuli/rescaled_final/2034_fw.mp4	0.0	329.23922538757324	
74	311.97983956336975	fix_post	2		12	72.0	2.5	/experiments/Knapen_AOT/AOT_stimuli/rescaled_final/2034_fw.mp4	0.0	330.15564823150635	0.09999418258666992
75	312.0798337459564	fix_pre	0		120	73.0	2.5	/experiments/Knapen_AOT/AOT_stimuli/rescaled_final/1986_rv.mp4	0.0	330.255642414093	1.0085155963897705
75	312.6635036468506	pulse	0	t		73.0	2.5	/experiments/Knapen_AOT/AOT_stimuli/rescaled_final/1986_rv.mp4	0.0	330.8393123149872	
75	313.0883493423462	movie	1		285	73.0	2.5	/experiments/Knapen_AOT/AOT_stimuli/rescaled_final/1986_rv.mp4	0.0	331.2641580104828	2.492025136947632
75	314.2622311115265	pulse	1	t		73.0	2.5	/experiments/Knapen_AOT/AOT_stimuli/rescaled_final/1986_rv.mp4	0.0	332.4380397796631	
75	315.5803744792938	fix_post	2		12	73.0	2.5	/experiments/Knapen_AOT/AOT_stimuli/rescaled_final/1986_rv.mp4	0.0	333.7561831474304	0.09998345375061035
76	315.68035793304443	fix_pre	0		120	74.0	2.5	/experiments/Knapen_AOT/AOT_stimuli/rescaled_final/2142_fw.mp4	0.0	333.85616660118103	1.008610725402832
76	315.8643572330475	pulse	0	t		74.0	2.5	/experiments/Knapen_AOT/AOT_stimuli/rescaled_final/2142_fw.mp4	0.0	334.0401659011841	
76	316.68896865844727	movie	1		279	74.0	2.5	/experiments/Knapen_AOT/AOT_stimuli/rescaled_final/2142_fw.mp4	0.0	334.86477732658386	2.491931438446045
76	317.46423530578613	pulse	1	t		74.0	2.5	/experiments/Knapen_AOT/AOT_stimuli/rescaled_final/2142_fw.mp4	0.0	335.64004397392273	
76	319.0624430179596	pulse	1	t		74.0	2.5	/experiments/Knapen_AOT/AOT_stimuli/rescaled_final/2142_fw.mp4	0.0	337.2382516860962	
76	319.1809000968933	fix_post	2		12	74.0	2.5	/experiments/Knapen_AOT/AOT_stimuli/rescaled_final/2142_fw.mp4	0.0	337.3567087650299	0.10007238388061523
77	319.2809724807739	fix_pre	0		120	75.0	2.5	/experiments/Knapen_AOT/AOT_stimuli/rescaled_final/0119_fw.mp4	0.0	337.4567811489105	1.008500576019287
77	320.2894730567932	movie	1		283	75.0	2.5	/experiments/Knapen_AOT/AOT_stimuli/rescaled_final/0119_fw.mp4	0.0	338.4652817249298	2.4919769763946533
77	320.66332387924194	pulse	1	t		75.0	2.5	/experiments/Knapen_AOT/AOT_stimuli/rescaled_final/0119_fw.mp4	0.0	338.83913254737854	
77	322.26315927505493	pulse	1	t		75.0	2.5	/experiments/Knapen_AOT/AOT_stimuli/rescaled_final/0119_fw.mp4	0.0	340.4389679431915	
77	322.78145003318787	fix_post	2		12	75.0	2.5	/experiments/Knapen_AOT/AOT_stimuli/rescaled_final/0119_fw.mp4	0.0	340.95725870132446	0.10000109672546387
78	322.88145112991333	fix_pre	0		119	76.0	2.5	/experiments/Knapen_AOT/AOT_stimuli/rescaled_final/0614_rv.mp4	0.0	341.0572597980499	1.000415563583374
78	323.8653898239136	pulse	0	t		76.0	2.5	/experiments/Knapen_AOT/AOT_stimuli/rescaled_final/0614_rv.mp4	0.0	342.04119849205017	
78	323.8818666934967	movie	1		271	76.0	2.5	/experiments/Knapen_AOT/AOT_stimuli/rescaled_final/0614_rv.mp4	0.0	342.0576753616333	2.5000932216644287
78	325.4640371799469	pulse	1	t		76.0	2.5	/experiments/Knapen_AOT/AOT_stimuli/rescaled_final/0614_rv.mp4	0.0	343.6398458480835	
78	326.38195991516113	fix_post	2		12	76.0	2.5	/experiments/Knapen_AOT/AOT_stimuli/rescaled_final/0614_rv.mp4	0.0	344.55776858329773	0.10003805160522461
79	326.48199796676636	fix_pre	0		120	77.0	2.5	blank	1.0	344.65780663490295	1.0002477169036865
79	327.0656530857086	pulse	0	t		77.0	2.5	blank	1.0	345.2414617538452	
79	327.48224568367004	movie	1		300	77.0	2.5	blank	1.0	345.65805435180664	2.5002565383911133
79	328.666122674942	pulse	1	t		77.0	2.5	blank	1.0	346.8419313430786	
79	329.98250222206116	fix_post	2		12	77.0	2.5	blank	1.0	348.15831089019775	0.1000065803527832
80	330.08250880241394	fix_pre	0		120	78.0	2.5	/experiments/Knapen_AOT/AOT_stimuli/rescaled_final/0713_fw.mp4	0.0	348.25831747055054	1.008507490158081
80	330.2661428451538	pulse	0	t		78.0	2.5	/experiments/Knapen_AOT/AOT_stimuli/rescaled_final/0713_fw.mp4	0.0	348.4419515132904	
80	331.091016292572	movie	1		275	78.0	2.5	/experiments/Knapen_AOT/AOT_stimuli/rescaled_final/0713_fw.mp4	0.0	349.2668249607086	2.4920709133148193
80	331.86665987968445	pulse	1	t		78.0	2.5	/experiments/Knapen_AOT/AOT_stimuli/rescaled_final/0713_fw.mp4	0.0	350.04246854782104	
80	333.4647605419159	pulse	1	t		78.0	2.5	/experiments/Knapen_AOT/AOT_stimuli/rescaled_final/0713_fw.mp4	0.0	351.6405692100525	
80	333.58308720588684	fix_post	2		12	78.0	2.5	/experiments/Knapen_AOT/AOT_stimuli/rescaled_final/0713_fw.mp4	0.0	351.75889587402344	0.10004472732543945
81	333.6831319332123	fix_pre	0		120	79.0	2.5	/experiments/Knapen_AOT/AOT_stimuli/rescaled_final/1947_fw.mp4	0.0	351.8589406013489	1.0084974765777588
81	334.69162940979004	movie	1		268	79.0	2.5	/experiments/Knapen_AOT/AOT_stimuli/rescaled_final/1947_fw.mp4	0.0	352.86743807792664	2.4919822216033936
81	335.0650839805603	pulse	1	t		79.0	2.5	/experiments/Knapen_AOT/AOT_stimuli/rescaled_final/1947_fw.mp4	0.0	353.2408926486969	
81	336.66625475883484	pulse	1	t		79.0	2.5	/experiments/Knapen_AOT/AOT_stimuli/rescaled_final/1947_fw.mp4	0.0	354.84206342697144	
81	337.18361163139343	fix_post	2		12	79.0	2.5	/experiments/Knapen_AOT/AOT_stimuli/rescaled_final/1947_fw.mp4	0.0	355.35942029953003	0.10002708435058594
82	337.283638715744	fix_pre	0		119	80.0	2.5	/experiments/Knapen_AOT/AOT_stimuli/rescaled_final/0946_fw.mp4	0.0	355.4594473838806	1.0085022449493408
82	338.2673292160034	pulse	0	t		80.0	2.5	/experiments/Knapen_AOT/AOT_stimuli/rescaled_final/0946_fw.mp4	0.0	356.44313788414	
82	338.29214096069336	movie	1		270	80.0	2.5	/experiments/Knapen_AOT/AOT_stimuli/rescaled_final/0946_fw.mp4	0.0	356.46794962882996	2.4919986724853516
82	339.8662393093109	pulse	1	t		80.0	2.5	/experiments/Knapen_AOT/AOT_stimuli/rescaled_final/0946_fw.mp4	0.0	358.0420479774475	
82	340.7841396331787	fix_post	2		12	80.0	2.5	/experiments/Knapen_AOT/AOT_stimuli/rescaled_final/0946_fw.mp4	0.0	358.9599483013153	0.10008764266967773
83	340.8842272758484	fix_pre	0		120	81.0	2.5	/experiments/Knapen_AOT/AOT_stimuli/rescaled_final/0100_rv.mp4	0.0	359.060035943985	1.0084376335144043
83	341.467809677124	pulse	0	t		81.0	2.5	/experiments/Knapen_AOT/AOT_stimuli/rescaled_final/0100_rv.mp4	0.0	359.6436183452606	
83	341.8926649093628	movie	1		276	81.0	2.5	/experiments/Knapen_AOT/AOT_stimuli/rescaled_final/0100_rv.mp4	0.0	360.0684735774994	2.4920310974121094
83	343.06678795814514	pulse	1	t		81.0	2.5	/experiments/Knapen_AOT/AOT_stimuli/rescaled_final/0100_rv.mp4	0.0	361.24259662628174	
83	344.3846960067749	fix_post	2		12	81.0	2.5	/experiments/Knapen_AOT/AOT_stimuli/rescaled_final/0100_rv.mp4	0.0	362.5605046749115	0.10000419616699219
84	344.4847002029419	fix_pre	0		120	82.0	2.5	/experiments/Knapen_AOT/AOT_stimuli/rescaled_final/0145_fw.mp4	0.0	362.6605088710785	1.0084640979766846
84	344.668261051178	pulse	0	t		82.0	2.5	/experiments/Knapen_AOT/AOT_stimuli/rescaled_final/0145_fw.mp4	0.0	362.8440697193146	
84	345.4931643009186	movie	1		275	82.0	2.5	/experiments/Knapen_AOT/AOT_stimuli/rescaled_final/0145_fw.mp4	0.0	363.6689729690552	2.492172956466675
84	346.2673439979553	pulse	1	t		82.0	2.5	/experiments/Knapen_AOT/AOT_stimuli/rescaled_final/0145_fw.mp4	0.0	364.4431526660919	
84	347.86754846572876	pulse	1	t		82.0	2.5	/experiments/Knapen_AOT/AOT_stimuli/rescaled_final/0145_fw.mp4	0.0	366.04335713386536	
84	347.98533725738525	fix_post	2		12	82.0	2.5	/experiments/Knapen_AOT/AOT_stimuli/rescaled_final/0145_fw.mp4	0.0	366.16114592552185	0.09997153282165527
85	348.0853087902069	fix_pre	0		120	83.0	2.5	blank	1.0	366.2611174583435	1.0000965595245361
85	349.08540534973145	movie	1		300	83.0	2.5	blank	1.0	367.26121401786804	2.5004465579986572
85	349.4690465927124	pulse	1	t		83.0	2.5	blank	1.0	367.644855260849	
85	351.0619637966156	pulse	1	t		83.0	2.5	blank	1.0	369.2377724647522	
85	351.5858519077301	fix_post	2		12	83.0	2.5	blank	1.0	369.7616605758667	0.09993410110473633
87	351.68578600883484	stim	0		1715					369.86159467697144	14.293780088424683
87	352.6621050834656	pulse	0	t						370.8379137516022	
87	354.26164150238037	pulse	0	t						372.43745017051697	
87	355.86179780960083	pulse	0	t						374.0376064777374	
87	357.46200299263	pulse	0	t						375.6378116607666	
87	359.06212615966797	pulse	0	t						377.23793482780457	
87	360.6623258590698	pulse	0	t						378.8381345272064	
87	362.2627456188202	pulse	0	t						380.4385542869568	
87	363.86280250549316	pulse	0	t						382.03861117362976	
87	365.46325302124023	pulse	0	t						383.63906168937683	
