trial_nr	onset	event_type	phase	response	nr_frames	movie_index	movie_duration	movie_file	blank	onset_abs	duration
0	0.20836400985717773	stim	0		28					22.18616485595703	0.2333521842956543
0	0.4336271286010742	response	0	space						22.411427974700928	
1	0.44171619415283203	stim	0		5148					22.419517040252686	42.919206857681274
1	43.34567713737488	pulse	0	t						65.32347798347473	
1	43.360923051834106	stim	1		1715					65.33872389793396	14.29763412475586
1	44.94013714790344	pulse	1	t						66.9179379940033	
1	46.54038119316101	pulse	1	t						68.51818203926086	
1	48.1406090259552	pulse	1	t						70.11840987205505	
1	49.7408401966095	pulse	1	t						71.71864104270935	
1	51.33359718322754	pulse	1	t						73.31139802932739	
1	52.933781147003174	pulse	1	t						74.91158199310303	
1	54.53402614593506	pulse	1	t						76.51182699203491	
1	56.133424043655396	pulse	1	t						78.11122488975525	
2	57.658557176589966	fix_pre	0		10	0.0	2.5	/experiments/knapen_AOT/AOT_stimuli/rescaled_final/1553_fw.mp4	0.0	79.63635802268982	0.08339381217956543
2	57.73369312286377	pulse	0	t		0.0	2.5	/experiments/knapen_AOT/AOT_stimuli/rescaled_final/1553_fw.mp4	0.0	79.71149396896362	
2	57.74195098876953	movie	1		243	0.0	2.5	/experiments/knapen_AOT/AOT_stimuli/rescaled_final/1553_fw.mp4	0.0	79.71975183486938	2.5086100101470947
2	59.33458709716797	pulse	1	t		0.0	2.5	/experiments/knapen_AOT/AOT_stimuli/rescaled_final/1553_fw.mp4	0.0	81.31238794326782	
2	60.250560998916626	fix_post	2		12	0.0	2.5	/experiments/knapen_AOT/AOT_stimuli/rescaled_final/1553_fw.mp4	0.0	82.22836184501648	0.10008502006530762
3	60.350646018981934	fix_pre	0		120	1.0	2.5	/experiments/knapen_AOT/AOT_stimuli/rescaled_final/1509_fw.mp4	0.0	82.32844686508179	1.0001201629638672
3	60.93435001373291	pulse	0	t		1.0	2.5	/experiments/knapen_AOT/AOT_stimuli/rescaled_final/1509_fw.mp4	0.0	82.91215085983276	
3	61.3507661819458	movie	1		246	1.0	2.5	/experiments/knapen_AOT/AOT_stimuli/rescaled_final/1509_fw.mp4	0.0	83.32856702804565	2.5003788471221924
3	62.53451204299927	pulse	1	t		1.0	2.5	/experiments/knapen_AOT/AOT_stimuli/rescaled_final/1509_fw.mp4	0.0	84.51231288909912	
3	63.85114502906799	fix_post	2		12	1.0	2.5	/experiments/knapen_AOT/AOT_stimuli/rescaled_final/1509_fw.mp4	0.0	85.82894587516785	0.0999901294708252
4	63.95113515853882	fix_pre	0		120	2.0	2.5	/experiments/knapen_AOT/AOT_stimuli/rescaled_final/1365_fw.mp4	0.0	85.92893600463867	1.000154972076416
4	64.13473701477051	pulse	0	t		2.0	2.5	/experiments/knapen_AOT/AOT_stimuli/rescaled_final/1365_fw.mp4	0.0	86.11253786087036	
4	64.95129013061523	movie	1		244	2.0	2.5	/experiments/knapen_AOT/AOT_stimuli/rescaled_final/1365_fw.mp4	0.0	86.92909097671509	2.5003960132598877
4	65.73491501808167	pulse	1	t		2.0	2.5	/experiments/knapen_AOT/AOT_stimuli/rescaled_final/1365_fw.mp4	0.0	87.71271586418152	
4	67.33553910255432	pulse	1	t		2.0	2.5	/experiments/knapen_AOT/AOT_stimuli/rescaled_final/1365_fw.mp4	0.0	89.31333994865417	
4	67.45168614387512	fix_post	2		12	2.0	2.5	/experiments/knapen_AOT/AOT_stimuli/rescaled_final/1365_fw.mp4	0.0	89.42948698997498	0.09999394416809082
5	67.55168008804321	fix_pre	0		120	3.0	2.5	/experiments/knapen_AOT/AOT_stimuli/rescaled_final/1550_rv.mp4	0.0	89.52948093414307	1.0001420974731445
5	68.55182218551636	movie	1		244	3.0	2.5	/experiments/knapen_AOT/AOT_stimuli/rescaled_final/1550_rv.mp4	0.0	90.52962303161621	2.4920759201049805
5	68.93652820587158	pulse	1	t		3.0	2.5	/experiments/knapen_AOT/AOT_stimuli/rescaled_final/1550_rv.mp4	0.0	90.91432905197144	
5	70.53575110435486	pulse	1	t		3.0	2.5	/experiments/knapen_AOT/AOT_stimuli/rescaled_final/1550_rv.mp4	0.0	92.51355195045471	
5	71.04389810562134	fix_post	2		12	3.0	2.5	/experiments/knapen_AOT/AOT_stimuli/rescaled_final/1550_rv.mp4	0.0	93.02169895172119	0.09999489784240723
6	71.14389300346375	fix_pre	0		120	4.0	2.5	/experiments/knapen_AOT/AOT_stimuli/rescaled_final/1148_rv.mp4	0.0	93.1216938495636	1.0001640319824219
6	72.13593912124634	pulse	0	t		4.0	2.5	/experiments/knapen_AOT/AOT_stimuli/rescaled_final/1148_rv.mp4	0.0	94.11373996734619	
6	72.14405703544617	movie	1		244	4.0	2.5	/experiments/knapen_AOT/AOT_stimuli/rescaled_final/1148_rv.mp4	0.0	94.12185788154602	2.5087101459503174
6	73.73685908317566	pulse	1	t		4.0	2.5	/experiments/knapen_AOT/AOT_stimuli/rescaled_final/1148_rv.mp4	0.0	95.71465992927551	
6	74.65276718139648	fix_post	2		12	4.0	2.5	/experiments/knapen_AOT/AOT_stimuli/rescaled_final/1148_rv.mp4	0.0	96.63056802749634	0.10001683235168457
7	74.75278401374817	fix_pre	0		120	5.0	2.5	/experiments/knapen_AOT/AOT_stimuli/rescaled_final/1127_fw.mp4	0.0	96.73058485984802	1.0001201629638672
7	75.33629512786865	pulse	0	t		5.0	2.5	/experiments/knapen_AOT/AOT_stimuli/rescaled_final/1127_fw.mp4	0.0	97.3140959739685	
7	75.75290417671204	movie	1		244	5.0	2.5	/experiments/knapen_AOT/AOT_stimuli/rescaled_final/1127_fw.mp4	0.0	97.73070502281189	2.500349998474121
7	76.93673014640808	pulse	1	t		5.0	2.5	/experiments/knapen_AOT/AOT_stimuli/rescaled_final/1127_fw.mp4	0.0	98.91453099250793	
7	78.25325417518616	fix_post	2		12	5.0	2.5	/experiments/knapen_AOT/AOT_stimuli/rescaled_final/1127_fw.mp4	0.0	100.23105502128601	0.10008502006530762
8	78.35333919525146	fix_pre	0		120	6.0	2.5	/experiments/knapen_AOT/AOT_stimuli/rescaled_final/1301_fw.mp4	0.0	100.33114004135132	1.000140905380249
8	78.53694200515747	pulse	0	t		6.0	2.5	/experiments/knapen_AOT/AOT_stimuli/rescaled_final/1301_fw.mp4	0.0	100.51474285125732	
8	79.35348010063171	movie	1		244	6.0	2.5	/experiments/knapen_AOT/AOT_stimuli/rescaled_final/1301_fw.mp4	0.0	101.33128094673157	2.5003559589385986
8	80.13707113265991	pulse	1	t		6.0	2.5	/experiments/knapen_AOT/AOT_stimuli/rescaled_final/1301_fw.mp4	0.0	102.11487197875977	
8	81.73774313926697	pulse	1	t		6.0	2.5	/experiments/knapen_AOT/AOT_stimuli/rescaled_final/1301_fw.mp4	0.0	103.71554398536682	
8	81.85383605957031	fix_post	2		12	6.0	2.5	/experiments/knapen_AOT/AOT_stimuli/rescaled_final/1301_fw.mp4	0.0	103.83163690567017	0.10001206398010254
9	81.95384812355042	fix_pre	0		120	7.0	2.5	blank	1.0	103.93164896965027	1.0001399517059326
9	82.95398807525635	movie	1		299	7.0	2.5	blank	1.0	104.9317889213562	2.492048978805542
9	83.33756399154663	pulse	1	t		7.0	2.5	blank	1.0	105.31536483764648	
9	84.93799710273743	pulse	1	t		7.0	2.5	blank	1.0	106.91579794883728	
9	85.44603705406189	fix_post	2		12	7.0	2.5	blank	1.0	107.42383790016174	0.10001707077026367
10	85.54605412483215	fix_pre	0		120	8.0	2.5	/experiments/knapen_AOT/AOT_stimuli/rescaled_final/2076_fw.mp4	0.0	107.523854970932	1.0001180171966553
10	86.5380790233612	pulse	0	t		8.0	2.5	/experiments/knapen_AOT/AOT_stimuli/rescaled_final/2076_fw.mp4	0.0	108.51587986946106	
10	86.54617214202881	movie	1		246	8.0	2.5	/experiments/knapen_AOT/AOT_stimuli/rescaled_final/2076_fw.mp4	0.0	108.52397298812866	2.5087530612945557
10	88.13901209831238	pulse	1	t		8.0	2.5	/experiments/knapen_AOT/AOT_stimuli/rescaled_final/2076_fw.mp4	0.0	110.11681294441223	
10	89.05492520332336	fix_post	2		12	8.0	2.5	/experiments/knapen_AOT/AOT_stimuli/rescaled_final/2076_fw.mp4	0.0	111.03272604942322	0.0999898910522461
11	89.15491509437561	fix_pre	0		120	9.0	2.5	/experiments/knapen_AOT/AOT_stimuli/rescaled_final/0233_fw.mp4	0.0	111.13271594047546	1.0001590251922607
11	89.73851013183594	pulse	0	t		9.0	2.5	/experiments/knapen_AOT/AOT_stimuli/rescaled_final/0233_fw.mp4	0.0	111.71631097793579	
11	90.15507411956787	movie	1		243	9.0	2.5	/experiments/knapen_AOT/AOT_stimuli/rescaled_final/0233_fw.mp4	0.0	112.13287496566772	2.500375986099243
11	91.33899807929993	pulse	1	t		9.0	2.5	/experiments/knapen_AOT/AOT_stimuli/rescaled_final/0233_fw.mp4	0.0	113.31679892539978	
11	92.65545010566711	fix_post	2		12	9.0	2.5	/experiments/knapen_AOT/AOT_stimuli/rescaled_final/0233_fw.mp4	0.0	114.63325095176697	0.10001206398010254
12	92.75546216964722	fix_pre	0		120	10.0	2.5	/experiments/knapen_AOT/AOT_stimuli/rescaled_final/0477_fw.mp4	0.0	114.73326301574707	1.0001590251922607
12	92.9391131401062	pulse	0	t		10.0	2.5	/experiments/knapen_AOT/AOT_stimuli/rescaled_final/0477_fw.mp4	0.0	114.91691398620605	
12	93.75562119483948	movie	1		244	10.0	2.5	/experiments/knapen_AOT/AOT_stimuli/rescaled_final/0477_fw.mp4	0.0	115.73342204093933	2.500324010848999
12	94.53927707672119	pulse	1	t		10.0	2.5	/experiments/knapen_AOT/AOT_stimuli/rescaled_final/0477_fw.mp4	0.0	116.51707792282104	
12	96.13947916030884	pulse	1	t		10.0	2.5	/experiments/knapen_AOT/AOT_stimuli/rescaled_final/0477_fw.mp4	0.0	118.11728000640869	
12	96.25594520568848	fix_post	2		9	10.0	2.5	/experiments/knapen_AOT/AOT_stimuli/rescaled_final/0477_fw.mp4	0.0	118.23374605178833	0.10009098052978516
13	96.35603618621826	fix_pre	0		120	11.0	2.5	/experiments/knapen_AOT/AOT_stimuli/rescaled_final/1985_fw.mp4	0.0	118.33383703231812	1.0001239776611328
13	97.3561601638794	movie	1		245	11.0	2.5	/experiments/knapen_AOT/AOT_stimuli/rescaled_final/1985_fw.mp4	0.0	119.33396100997925	2.492017984390259
13	97.74008703231812	pulse	1	t		11.0	2.5	/experiments/knapen_AOT/AOT_stimuli/rescaled_final/1985_fw.mp4	0.0	119.71788787841797	
13	99.34008812904358	pulse	1	t		11.0	2.5	/experiments/knapen_AOT/AOT_stimuli/rescaled_final/1985_fw.mp4	0.0	121.31788897514343	
13	99.84817814826965	fix_post	2		12	11.0	2.5	/experiments/knapen_AOT/AOT_stimuli/rescaled_final/1985_fw.mp4	0.0	121.8259789943695	0.10002994537353516
14	99.94820809364319	fix_pre	0		120	12.0	2.5	/experiments/knapen_AOT/AOT_stimuli/rescaled_final/1983_fw.mp4	0.0	121.92600893974304	1.0001261234283447
14	100.94024014472961	pulse	0	t		12.0	2.5	/experiments/knapen_AOT/AOT_stimuli/rescaled_final/1983_fw.mp4	0.0	122.91804099082947	
14	100.94833421707153	movie	1		248	12.0	2.5	/experiments/knapen_AOT/AOT_stimuli/rescaled_final/1983_fw.mp4	0.0	122.92613506317139	2.5087318420410156
14	102.54467606544495	pulse	1	t		12.0	2.5	/experiments/knapen_AOT/AOT_stimuli/rescaled_final/1983_fw.mp4	0.0	124.5224769115448	
14	103.45706605911255	fix_post	2		12	12.0	2.5	/experiments/knapen_AOT/AOT_stimuli/rescaled_final/1983_fw.mp4	0.0	125.4348669052124	0.10001611709594727
15	103.5570821762085	fix_pre	0		120	13.0	2.5	blank	1.0	125.53488302230835	1.0001459121704102
15	104.14071822166443	pulse	0	t		13.0	2.5	blank	1.0	126.11851906776428	
15	104.5572280883789	movie	1		300	13.0	2.5	blank	1.0	126.53502893447876	2.500354051589966
15	105.74104309082031	pulse	1	t		13.0	2.5	blank	1.0	127.71884393692017	
15	107.05758213996887	fix_post	2		12	13.0	2.5	blank	1.0	129.03538298606873	0.10001397132873535
16	107.15759611129761	fix_pre	0		120	14.0	2.5	/experiments/knapen_AOT/AOT_stimuli/rescaled_final/2150_rv.mp4	0.0	129.13539695739746	1.0001389980316162
16	107.34121799468994	pulse	0	t		14.0	2.5	/experiments/knapen_AOT/AOT_stimuli/rescaled_final/2150_rv.mp4	0.0	129.3190188407898	
16	108.15773510932922	movie	1		243	14.0	2.5	/experiments/knapen_AOT/AOT_stimuli/rescaled_final/2150_rv.mp4	0.0	130.13553595542908	2.500396966934204
16	108.93413400650024	pulse	1	t		14.0	2.5	/experiments/knapen_AOT/AOT_stimuli/rescaled_final/2150_rv.mp4	0.0	130.9119348526001	
16	110.54151821136475	pulse	1	t		14.0	2.5	/experiments/knapen_AOT/AOT_stimuli/rescaled_final/2150_rv.mp4	0.0	132.5193190574646	
16	110.65813207626343	fix_post	2		12	14.0	2.5	/experiments/knapen_AOT/AOT_stimuli/rescaled_final/2150_rv.mp4	0.0	132.63593292236328	0.09999799728393555
17	110.75813007354736	fix_pre	0		119	15.0	2.5	/experiments/knapen_AOT/AOT_stimuli/rescaled_final/2060_fw.mp4	0.0	132.73593091964722	0.9918429851531982
17	111.74997305870056	movie	1		243	15.0	2.5	/experiments/knapen_AOT/AOT_stimuli/rescaled_final/2060_fw.mp4	0.0	133.72777390480042	2.5003340244293213
17	112.13803815841675	pulse	1	t		15.0	2.5	/experiments/knapen_AOT/AOT_stimuli/rescaled_final/2060_fw.mp4	0.0	134.1158390045166	
17	113.7346441745758	pulse	1	t		15.0	2.5	/experiments/knapen_AOT/AOT_stimuli/rescaled_final/2060_fw.mp4	0.0	135.71244502067566	
17	114.25030708312988	fix_post	2		12	15.0	2.5	/experiments/knapen_AOT/AOT_stimuli/rescaled_final/2060_fw.mp4	0.0	136.22810792922974	0.10001492500305176
18	114.35032200813293	fix_pre	0		120	16.0	2.5	/experiments/knapen_AOT/AOT_stimuli/rescaled_final/0390_fw.mp4	0.0	136.3281228542328	1.0001881122589111
18	115.33478212356567	pulse	0	t		16.0	2.5	/experiments/knapen_AOT/AOT_stimuli/rescaled_final/0390_fw.mp4	0.0	137.31258296966553	
18	115.35051012039185	movie	1		245	16.0	2.5	/experiments/knapen_AOT/AOT_stimuli/rescaled_final/0390_fw.mp4	0.0	137.3283109664917	2.5086610317230225
18	116.93436598777771	pulse	1	t		16.0	2.5	/experiments/knapen_AOT/AOT_stimuli/rescaled_final/0390_fw.mp4	0.0	138.91216683387756	
18	117.85917115211487	fix_post	2		12	16.0	2.5	/experiments/knapen_AOT/AOT_stimuli/rescaled_final/0390_fw.mp4	0.0	139.83697199821472	0.10003495216369629
19	117.95920610427856	fix_pre	0		120	17.0	2.5	/experiments/knapen_AOT/AOT_stimuli/rescaled_final/2174_fw.mp4	0.0	139.93700695037842	1.0001800060272217
19	118.53441619873047	pulse	0	t		17.0	2.5	/experiments/knapen_AOT/AOT_stimuli/rescaled_final/2174_fw.mp4	0.0	140.51221704483032	
19	118.95938611030579	movie	1		245	17.0	2.5	/experiments/knapen_AOT/AOT_stimuli/rescaled_final/2174_fw.mp4	0.0	140.93718695640564	2.500361919403076
19	120.13586211204529	pulse	1	t		17.0	2.5	/experiments/knapen_AOT/AOT_stimuli/rescaled_final/2174_fw.mp4	0.0	142.11366295814514	
19	121.45974802970886	fix_post	2		12	17.0	2.5	/experiments/knapen_AOT/AOT_stimuli/rescaled_final/2174_fw.mp4	0.0	143.43754887580872	0.10000205039978027
20	121.55975008010864	fix_pre	0		120	18.0	2.5	/experiments/knapen_AOT/AOT_stimuli/rescaled_final/2153_rv.mp4	0.0	143.5375509262085	1.0002501010894775
20	121.73505806922913	pulse	0	t		18.0	2.5	/experiments/knapen_AOT/AOT_stimuli/rescaled_final/2153_rv.mp4	0.0	143.71285891532898	
20	122.56000018119812	movie	1		243	18.0	2.5	/experiments/knapen_AOT/AOT_stimuli/rescaled_final/2153_rv.mp4	0.0	144.53780102729797	2.491956949234009
20	123.33530521392822	pulse	1	t		18.0	2.5	/experiments/knapen_AOT/AOT_stimuli/rescaled_final/2153_rv.mp4	0.0	145.31310606002808	
20	124.93540716171265	pulse	1	t		18.0	2.5	/experiments/knapen_AOT/AOT_stimuli/rescaled_final/2153_rv.mp4	0.0	146.9132080078125	
20	125.05195713043213	fix_post	2		13	18.0	2.5	/experiments/knapen_AOT/AOT_stimuli/rescaled_final/2153_rv.mp4	0.0	147.02975797653198	0.10832095146179199
21	125.16027808189392	fix_pre	0		119	19.0	2.5	/experiments/knapen_AOT/AOT_stimuli/rescaled_final/0500_fw.mp4	0.0	147.13807892799377	0.9918220043182373
21	126.15210008621216	movie	1		245	19.0	2.5	/experiments/knapen_AOT/AOT_stimuli/rescaled_final/0500_fw.mp4	0.0	148.129900932312	2.500368118286133
21	126.53619408607483	pulse	1	t		19.0	2.5	/experiments/knapen_AOT/AOT_stimuli/rescaled_final/0500_fw.mp4	0.0	148.51399493217468	
21	128.13592314720154	pulse	1	t		19.0	2.5	/experiments/knapen_AOT/AOT_stimuli/rescaled_final/0500_fw.mp4	0.0	150.1137239933014	
21	128.6524682044983	fix_post	2		12	19.0	2.5	/experiments/knapen_AOT/AOT_stimuli/rescaled_final/0500_fw.mp4	0.0	150.63026905059814	0.10000181198120117
22	128.7524700164795	fix_pre	0		119	20.0	2.5	/experiments/knapen_AOT/AOT_stimuli/rescaled_final/1017_fw.mp4	0.0	150.73027086257935	0.9918689727783203
22	129.7362790107727	pulse	0	t		20.0	2.5	/experiments/knapen_AOT/AOT_stimuli/rescaled_final/1017_fw.mp4	0.0	151.71407985687256	
22	129.7443389892578	movie	1		246	20.0	2.5	/experiments/knapen_AOT/AOT_stimuli/rescaled_final/1017_fw.mp4	0.0	151.72213983535767	2.5087032318115234
22	131.33767819404602	pulse	1	t		20.0	2.5	/experiments/knapen_AOT/AOT_stimuli/rescaled_final/1017_fw.mp4	0.0	153.31547904014587	
22	132.25304222106934	fix_post	2		12	20.0	2.5	/experiments/knapen_AOT/AOT_stimuli/rescaled_final/1017_fw.mp4	0.0	154.2308430671692	0.09997391700744629
23	132.35301613807678	fix_pre	0		120	21.0	2.5	blank	1.0	154.33081698417664	1.0001790523529053
23	132.9366490840912	pulse	0	t		21.0	2.5	blank	1.0	154.91444993019104	
23	133.3531951904297	movie	1		300	21.0	2.5	blank	1.0	155.33099603652954	2.5003528594970703
23	134.53683710098267	pulse	1	t		21.0	2.5	blank	1.0	156.51463794708252	
23	135.85354804992676	fix_post	2		12	21.0	2.5	blank	1.0	157.8313488960266	0.1000211238861084
24	135.95356917381287	fix_pre	0		120	22.0	2.5	/experiments/knapen_AOT/AOT_stimuli/rescaled_final/1127_rv.mp4	0.0	157.93137001991272	1.0001449584960938
24	136.1372480392456	pulse	0	t		22.0	2.5	/experiments/knapen_AOT/AOT_stimuli/rescaled_final/1127_rv.mp4	0.0	158.11504888534546	
24	136.95371413230896	movie	1		244	22.0	2.5	/experiments/knapen_AOT/AOT_stimuli/rescaled_final/1127_rv.mp4	0.0	158.9315149784088	2.500398874282837
24	137.73739504814148	pulse	1	t		22.0	2.5	/experiments/knapen_AOT/AOT_stimuli/rescaled_final/1127_rv.mp4	0.0	159.71519589424133	
24	139.33786416053772	pulse	1	t		22.0	2.5	/experiments/knapen_AOT/AOT_stimuli/rescaled_final/1127_rv.mp4	0.0	161.31566500663757	
24	139.4541130065918	fix_post	2		12	22.0	2.5	/experiments/knapen_AOT/AOT_stimuli/rescaled_final/1127_rv.mp4	0.0	161.43191385269165	0.09999513626098633
25	139.55410814285278	fix_pre	0		120	23.0	2.5	/experiments/knapen_AOT/AOT_stimuli/rescaled_final/1326_rv.mp4	0.0	161.53190898895264	1.0001380443572998
25	140.55424618721008	movie	1		242	23.0	2.5	/experiments/knapen_AOT/AOT_stimuli/rescaled_final/1326_rv.mp4	0.0	162.53204703330994	2.4920639991760254
25	140.93909907341003	pulse	1	t		23.0	2.5	/experiments/knapen_AOT/AOT_stimuli/rescaled_final/1326_rv.mp4	0.0	162.9168999195099	
25	142.53821420669556	pulse	1	t		23.0	2.5	/experiments/knapen_AOT/AOT_stimuli/rescaled_final/1326_rv.mp4	0.0	164.5160150527954	
25	143.0463101863861	fix_post	2		12	23.0	2.5	/experiments/knapen_AOT/AOT_stimuli/rescaled_final/1326_rv.mp4	0.0	165.02411103248596	0.09998893737792969
26	143.14629912376404	fix_pre	0		120	24.0	2.5	/experiments/knapen_AOT/AOT_stimuli/rescaled_final/1148_fw.mp4	0.0	165.1240999698639	1.0001509189605713
26	144.13841319084167	pulse	0	t		24.0	2.5	/experiments/knapen_AOT/AOT_stimuli/rescaled_final/1148_fw.mp4	0.0	166.11621403694153	
26	144.1464500427246	movie	1		244	24.0	2.5	/experiments/knapen_AOT/AOT_stimuli/rescaled_final/1148_fw.mp4	0.0	166.12425088882446	2.5086910724639893
26	145.74315118789673	pulse	1	t		24.0	2.5	/experiments/knapen_AOT/AOT_stimuli/rescaled_final/1148_fw.mp4	0.0	167.72095203399658	
26	146.6551411151886	fix_post	2		12	24.0	2.5	/experiments/knapen_AOT/AOT_stimuli/rescaled_final/1148_fw.mp4	0.0	168.63294196128845	0.10004997253417969
27	146.75519108772278	fix_pre	0		120	25.0	2.5	/experiments/knapen_AOT/AOT_stimuli/rescaled_final/0440_rv.mp4	0.0	168.73299193382263	1.000128984451294
27	147.33887004852295	pulse	0	t		25.0	2.5	/experiments/knapen_AOT/AOT_stimuli/rescaled_final/0440_rv.mp4	0.0	169.3166708946228	
27	147.75532007217407	movie	1		244	25.0	2.5	/experiments/knapen_AOT/AOT_stimuli/rescaled_final/0440_rv.mp4	0.0	169.73312091827393	2.5003750324249268
27	148.93909215927124	pulse	1	t		25.0	2.5	/experiments/knapen_AOT/AOT_stimuli/rescaled_final/0440_rv.mp4	0.0	170.9168930053711	
27	150.255695104599	fix_post	2		12	25.0	2.5	/experiments/knapen_AOT/AOT_stimuli/rescaled_final/0440_rv.mp4	0.0	172.23349595069885	0.10002493858337402
28	150.35572004318237	fix_pre	0		120	26.0	2.5	/experiments/knapen_AOT/AOT_stimuli/rescaled_final/0246_fw.mp4	0.0	172.33352088928223	1.0001411437988281
28	150.5393841266632	pulse	0	t		26.0	2.5	/experiments/knapen_AOT/AOT_stimuli/rescaled_final/0246_fw.mp4	0.0	172.51718497276306	
28	151.3558611869812	movie	1		244	26.0	2.5	/experiments/knapen_AOT/AOT_stimuli/rescaled_final/0246_fw.mp4	0.0	173.33366203308105	2.5003819465637207
28	152.13952708244324	pulse	1	t		26.0	2.5	/experiments/knapen_AOT/AOT_stimuli/rescaled_final/0246_fw.mp4	0.0	174.1173279285431	
28	153.74259305000305	pulse	1	t		26.0	2.5	/experiments/knapen_AOT/AOT_stimuli/rescaled_final/0246_fw.mp4	0.0	175.7203938961029	
28	153.85624313354492	fix_post	2		12	26.0	2.5	/experiments/knapen_AOT/AOT_stimuli/rescaled_final/0246_fw.mp4	0.0	175.83404397964478	0.10000395774841309
29	153.95624709129333	fix_pre	0		120	27.0	2.5	blank	1.0	175.9340479373932	1.0001640319824219
29	154.95641112327576	movie	1		297	27.0	2.5	blank	1.0	176.9342119693756	2.492065906524658
29	155.33996415138245	pulse	1	t		27.0	2.5	blank	1.0	177.3177649974823	
29	156.9402780532837	pulse	1	t		27.0	2.5	blank	1.0	178.91807889938354	
29	157.44847702980042	fix_post	2		12	27.0	2.5	blank	1.0	179.42627787590027	0.09998106956481934
30	157.54845809936523	fix_pre	0		120	28.0	2.5	/experiments/knapen_AOT/AOT_stimuli/rescaled_final/0876_fw.mp4	0.0	179.5262589454651	1.000166893005371
30	158.5404372215271	pulse	0	t		28.0	2.5	/experiments/knapen_AOT/AOT_stimuli/rescaled_final/0876_fw.mp4	0.0	180.51823806762695	
30	158.5486249923706	movie	1		244	28.0	2.5	/experiments/knapen_AOT/AOT_stimuli/rescaled_final/0876_fw.mp4	0.0	180.52642583847046	2.5086660385131836
30	160.14584016799927	pulse	1	t		28.0	2.5	/experiments/knapen_AOT/AOT_stimuli/rescaled_final/0876_fw.mp4	0.0	182.12364101409912	
30	161.0572910308838	fix_post	2		12	28.0	2.5	/experiments/knapen_AOT/AOT_stimuli/rescaled_final/0876_fw.mp4	0.0	183.03509187698364	0.1000220775604248
31	161.1573131084442	fix_pre	0		120	29.0	2.5	/experiments/knapen_AOT/AOT_stimuli/rescaled_final/2060_rv.mp4	0.0	183.13511395454407	1.0001540184020996
31	161.7410111427307	pulse	0	t		29.0	2.5	/experiments/knapen_AOT/AOT_stimuli/rescaled_final/2060_rv.mp4	0.0	183.71881198883057	
31	162.1574671268463	movie	1		243	29.0	2.5	/experiments/knapen_AOT/AOT_stimuli/rescaled_final/2060_rv.mp4	0.0	184.13526797294617	2.500382900238037
31	163.33396911621094	pulse	1	t		29.0	2.5	/experiments/knapen_AOT/AOT_stimuli/rescaled_final/2060_rv.mp4	0.0	185.3117699623108	
31	164.65785002708435	fix_post	2		12	29.0	2.5	/experiments/knapen_AOT/AOT_stimuli/rescaled_final/2060_rv.mp4	0.0	186.6356508731842	0.10002613067626953
32	164.75787615776062	fix_pre	0		120	30.0	2.5	/experiments/knapen_AOT/AOT_stimuli/rescaled_final/1307_rv.mp4	0.0	186.73567700386047	1.000135898590088
32	164.9340090751648	pulse	0	t		30.0	2.5	/experiments/knapen_AOT/AOT_stimuli/rescaled_final/1307_rv.mp4	0.0	186.91180992126465	
32	165.7580120563507	movie	1		244	30.0	2.5	/experiments/knapen_AOT/AOT_stimuli/rescaled_final/1307_rv.mp4	0.0	187.73581290245056	2.5004119873046875
32	166.53428506851196	pulse	1	t		30.0	2.5	/experiments/knapen_AOT/AOT_stimuli/rescaled_final/1307_rv.mp4	0.0	188.51208591461182	
32	168.14183020591736	pulse	1	t		30.0	2.5	/experiments/knapen_AOT/AOT_stimuli/rescaled_final/1307_rv.mp4	0.0	190.1196310520172	
32	168.2584240436554	fix_post	2		11	30.0	2.5	/experiments/knapen_AOT/AOT_stimuli/rescaled_final/1307_rv.mp4	0.0	190.23622488975525	0.09163713455200195
33	168.3500611782074	fix_pre	0		120	31.0	2.5	/experiments/knapen_AOT/AOT_stimuli/rescaled_final/1068_rv.mp4	0.0	190.32786202430725	1.0001459121704102
33	169.3502070903778	movie	1		244	31.0	2.5	/experiments/knapen_AOT/AOT_stimuli/rescaled_final/1068_rv.mp4	0.0	191.32800793647766	2.5003559589385986
33	169.73507809638977	pulse	1	t		31.0	2.5	/experiments/knapen_AOT/AOT_stimuli/rescaled_final/1068_rv.mp4	0.0	191.71287894248962	
33	171.33403420448303	pulse	1	t		31.0	2.5	/experiments/knapen_AOT/AOT_stimuli/rescaled_final/1068_rv.mp4	0.0	193.31183505058289	
33	171.8505630493164	fix_post	2		12	31.0	2.5	/experiments/knapen_AOT/AOT_stimuli/rescaled_final/1068_rv.mp4	0.0	193.82836389541626	0.1000511646270752
34	171.95061421394348	fix_pre	0		119	32.0	2.5	/experiments/knapen_AOT/AOT_stimuli/rescaled_final/0008_rv.mp4	0.0	193.92841506004333	0.9917869567871094
34	172.93420600891113	pulse	0	t		32.0	2.5	/experiments/knapen_AOT/AOT_stimuli/rescaled_final/0008_rv.mp4	0.0	194.912006855011	
34	172.9424011707306	movie	1		244	32.0	2.5	/experiments/knapen_AOT/AOT_stimuli/rescaled_final/0008_rv.mp4	0.0	194.92020201683044	2.508711814880371
34	174.53477811813354	pulse	1	t		32.0	2.5	/experiments/knapen_AOT/AOT_stimuli/rescaled_final/0008_rv.mp4	0.0	196.5125789642334	
34	175.45111298561096	fix_post	2		12	32.0	2.5	/experiments/knapen_AOT/AOT_stimuli/rescaled_final/0008_rv.mp4	0.0	197.42891383171082	0.10003304481506348
35	175.55114603042603	fix_pre	0		120	33.0	2.5	blank	1.0	197.52894687652588	1.0001380443572998
35	176.13487601280212	pulse	0	t		33.0	2.5	blank	1.0	198.11267685890198	
35	176.55128407478333	movie	1		300	33.0	2.5	blank	1.0	198.52908492088318	2.5003750324249268
35	177.73511600494385	pulse	1	t		33.0	2.5	blank	1.0	199.7129168510437	
35	179.05165910720825	fix_post	2		12	33.0	2.5	blank	1.0	201.0294599533081	0.10004305839538574
36	179.15170216560364	fix_pre	0		120	34.0	2.5	/experiments/knapen_AOT/AOT_stimuli/rescaled_final/1307_fw.mp4	0.0	201.1295030117035	1.0001640319824219
36	179.33525013923645	pulse	0	t		34.0	2.5	/experiments/knapen_AOT/AOT_stimuli/rescaled_final/1307_fw.mp4	0.0	201.3130509853363	
36	180.15186619758606	movie	1		244	34.0	2.5	/experiments/knapen_AOT/AOT_stimuli/rescaled_final/1307_fw.mp4	0.0	202.1296670436859	2.500356912612915
36	180.93544006347656	pulse	1	t		34.0	2.5	/experiments/knapen_AOT/AOT_stimuli/rescaled_final/1307_fw.mp4	0.0	202.91324090957642	
36	182.5355670452118	pulse	1	t		34.0	2.5	/experiments/knapen_AOT/AOT_stimuli/rescaled_final/1307_fw.mp4	0.0	204.51336789131165	
36	182.65222311019897	fix_post	2		12	34.0	2.5	/experiments/knapen_AOT/AOT_stimuli/rescaled_final/1307_fw.mp4	0.0	204.63002395629883	0.09998106956481934
37	182.7522041797638	fix_pre	0		119	35.0	2.5	/experiments/knapen_AOT/AOT_stimuli/rescaled_final/1502_fw.mp4	0.0	204.73000502586365	0.9918689727783203
37	183.74407315254211	movie	1		245	35.0	2.5	/experiments/knapen_AOT/AOT_stimuli/rescaled_final/1502_fw.mp4	0.0	205.72187399864197	2.5003299713134766
37	184.13604521751404	pulse	1	t		35.0	2.5	/experiments/knapen_AOT/AOT_stimuli/rescaled_final/1502_fw.mp4	0.0	206.1138460636139	
37	185.73626518249512	pulse	1	t		35.0	2.5	/experiments/knapen_AOT/AOT_stimuli/rescaled_final/1502_fw.mp4	0.0	207.71406602859497	
37	186.2444031238556	fix_post	2		12	35.0	2.5	/experiments/knapen_AOT/AOT_stimuli/rescaled_final/1502_fw.mp4	0.0	208.22220396995544	0.10001087188720703
38	186.3444139957428	fix_pre	0		120	36.0	2.5	/experiments/knapen_AOT/AOT_stimuli/rescaled_final/1522_rv.mp4	0.0	208.32221484184265	1.0002501010894775
38	187.33641004562378	pulse	0	t		36.0	2.5	/experiments/knapen_AOT/AOT_stimuli/rescaled_final/1522_rv.mp4	0.0	209.31421089172363	
38	187.34466409683228	movie	1		245	36.0	2.5	/experiments/knapen_AOT/AOT_stimuli/rescaled_final/1522_rv.mp4	0.0	209.32246494293213	2.5086209774017334
38	188.9406750202179	pulse	1	t		36.0	2.5	/experiments/knapen_AOT/AOT_stimuli/rescaled_final/1522_rv.mp4	0.0	210.91847586631775	
38	189.853285074234	fix_post	2		12	36.0	2.5	/experiments/knapen_AOT/AOT_stimuli/rescaled_final/1522_rv.mp4	0.0	211.83108592033386	0.10000991821289062
39	189.9532949924469	fix_pre	0		120	37.0	2.5	/experiments/knapen_AOT/AOT_stimuli/rescaled_final/2154_fw.mp4	0.0	211.93109583854675	1.000150203704834
39	190.53703022003174	pulse	0	t		37.0	2.5	/experiments/knapen_AOT/AOT_stimuli/rescaled_final/2154_fw.mp4	0.0	212.5148310661316	
39	190.95344519615173	movie	1		247	37.0	2.5	/experiments/knapen_AOT/AOT_stimuli/rescaled_final/2154_fw.mp4	0.0	212.9312460422516	2.50036883354187
39	192.1373221874237	pulse	1	t		37.0	2.5	/experiments/knapen_AOT/AOT_stimuli/rescaled_final/2154_fw.mp4	0.0	214.11512303352356	
39	193.4538140296936	fix_post	2		12	37.0	2.5	/experiments/knapen_AOT/AOT_stimuli/rescaled_final/2154_fw.mp4	0.0	215.43161487579346	0.10002017021179199
40	193.5538341999054	fix_pre	0		120	38.0	2.5	/experiments/knapen_AOT/AOT_stimuli/rescaled_final/0927_fw.mp4	0.0	215.53163504600525	1.000187873840332
40	193.7373411655426	pulse	0	t		38.0	2.5	/experiments/knapen_AOT/AOT_stimuli/rescaled_final/0927_fw.mp4	0.0	215.71514201164246	
40	194.55402207374573	movie	1		243	38.0	2.5	/experiments/knapen_AOT/AOT_stimuli/rescaled_final/0927_fw.mp4	0.0	216.53182291984558	2.5003271102905273
40	195.33759307861328	pulse	1	t		38.0	2.5	/experiments/knapen_AOT/AOT_stimuli/rescaled_final/0927_fw.mp4	0.0	217.31539392471313	
40	196.9376311302185	pulse	1	t		38.0	2.5	/experiments/knapen_AOT/AOT_stimuli/rescaled_final/0927_fw.mp4	0.0	218.91543197631836	
40	197.05434918403625	fix_post	2		12	38.0	2.5	/experiments/knapen_AOT/AOT_stimuli/rescaled_final/0927_fw.mp4	0.0	219.0321500301361	0.10003995895385742
41	197.1543891429901	fix_pre	0		119	39.0	2.5	/experiments/knapen_AOT/AOT_stimuli/rescaled_final/0526_fw.mp4	0.0	219.13218998908997	0.9917988777160645
41	198.14618802070618	movie	1		244	39.0	2.5	/experiments/knapen_AOT/AOT_stimuli/rescaled_final/0526_fw.mp4	0.0	220.12398886680603	2.5003740787506104
41	198.53819704055786	pulse	1	t		39.0	2.5	/experiments/knapen_AOT/AOT_stimuli/rescaled_final/0526_fw.mp4	0.0	220.51599788665771	
41	200.13835215568542	pulse	1	t		39.0	2.5	/experiments/knapen_AOT/AOT_stimuli/rescaled_final/0526_fw.mp4	0.0	222.11615300178528	
41	200.6465620994568	fix_post	2		12	39.0	2.5	/experiments/knapen_AOT/AOT_stimuli/rescaled_final/0526_fw.mp4	0.0	222.62436294555664	0.10005688667297363
42	200.74661898612976	fix_pre	0		120	40.0	2.5	/experiments/knapen_AOT/AOT_stimuli/rescaled_final/0633_fw.mp4	0.0	222.72441983222961	1.000101089477539
42	201.73851799964905	pulse	0	t		40.0	2.5	/experiments/knapen_AOT/AOT_stimuli/rescaled_final/0633_fw.mp4	0.0	223.7163188457489	
42	201.7467200756073	movie	1		244	40.0	2.5	/experiments/knapen_AOT/AOT_stimuli/rescaled_final/0633_fw.mp4	0.0	223.72452092170715	2.508697032928467
42	203.33939003944397	pulse	1	t		40.0	2.5	/experiments/knapen_AOT/AOT_stimuli/rescaled_final/0633_fw.mp4	0.0	225.31719088554382	
42	204.25541710853577	fix_post	2		12	40.0	2.5	/experiments/knapen_AOT/AOT_stimuli/rescaled_final/0633_fw.mp4	0.0	226.23321795463562	0.10000801086425781
43	204.35542511940002	fix_pre	0		120	41.0	2.5	blank	1.0	226.33322596549988	1.0001680850982666
43	204.93915605545044	pulse	0	t		41.0	2.5	blank	1.0	226.9169569015503	
43	205.3555932044983	movie	1		300	41.0	2.5	blank	1.0	227.33339405059814	2.5004258155822754
43	206.53933715820312	pulse	1	t		41.0	2.5	blank	1.0	228.51713800430298	
43	207.85601902008057	fix_post	2		12	41.0	2.5	blank	1.0	229.83381986618042	0.09999299049377441
44	207.95601201057434	fix_pre	0		120	42.0	2.5	/experiments/knapen_AOT/AOT_stimuli/rescaled_final/1257_fw.mp4	0.0	229.9338128566742	1.0001311302185059
44	208.13950300216675	pulse	0	t		42.0	2.5	/experiments/knapen_AOT/AOT_stimuli/rescaled_final/1257_fw.mp4	0.0	230.1173038482666	
44	208.95614314079285	movie	1		246	42.0	2.5	/experiments/knapen_AOT/AOT_stimuli/rescaled_final/1257_fw.mp4	0.0	230.9339439868927	2.500386953353882
44	209.73979210853577	pulse	1	t		42.0	2.5	/experiments/knapen_AOT/AOT_stimuli/rescaled_final/1257_fw.mp4	0.0	231.71759295463562	
44	211.3401460647583	pulse	1	t		42.0	2.5	/experiments/knapen_AOT/AOT_stimuli/rescaled_final/1257_fw.mp4	0.0	233.31794691085815	
44	211.45653009414673	fix_post	2		12	42.0	2.5	/experiments/knapen_AOT/AOT_stimuli/rescaled_final/1257_fw.mp4	0.0	233.43433094024658	0.09999895095825195
45	211.55652904510498	fix_pre	0		119	43.0	2.5	/experiments/knapen_AOT/AOT_stimuli/rescaled_final/1542_rv.mp4	0.0	233.53432989120483	0.991793155670166
45	212.54832220077515	movie	1		244	43.0	2.5	/experiments/knapen_AOT/AOT_stimuli/rescaled_final/1542_rv.mp4	0.0	234.526123046875	2.500396966934204
45	212.9365952014923	pulse	1	t		43.0	2.5	/experiments/knapen_AOT/AOT_stimuli/rescaled_final/1542_rv.mp4	0.0	234.91439604759216	
45	214.54050517082214	pulse	1	t		43.0	2.5	/experiments/knapen_AOT/AOT_stimuli/rescaled_final/1542_rv.mp4	0.0	236.518306016922	
45	215.04871916770935	fix_post	2		12	43.0	2.5	/experiments/knapen_AOT/AOT_stimuli/rescaled_final/1542_rv.mp4	0.0	237.0265200138092	0.10003399848937988
46	215.14875316619873	fix_pre	0		118	44.0	2.5	/experiments/knapen_AOT/AOT_stimuli/rescaled_final/1191_fw.mp4	0.0	237.12655401229858	1.0001239776611328
46	216.14071416854858	pulse	0	t		44.0	2.5	/experiments/knapen_AOT/AOT_stimuli/rescaled_final/1191_fw.mp4	0.0	238.11851501464844	
46	216.14887714385986	movie	1		245	44.0	2.5	/experiments/knapen_AOT/AOT_stimuli/rescaled_final/1191_fw.mp4	0.0	238.12667798995972	2.5087008476257324
46	217.74133014678955	pulse	1	t		44.0	2.5	/experiments/knapen_AOT/AOT_stimuli/rescaled_final/1191_fw.mp4	0.0	239.7191309928894	
46	218.6575779914856	fix_post	2		12	44.0	2.5	/experiments/knapen_AOT/AOT_stimuli/rescaled_final/1191_fw.mp4	0.0	240.63537883758545	0.10002708435058594
47	218.75760507583618	fix_pre	0		120	45.0	2.5	/experiments/knapen_AOT/AOT_stimuli/rescaled_final/1802_fw.mp4	0.0	240.73540592193604	1.000190019607544
47	219.3413281440735	pulse	0	t		45.0	2.5	/experiments/knapen_AOT/AOT_stimuli/rescaled_final/1802_fw.mp4	0.0	241.31912899017334	
47	219.75779509544373	movie	1		243	45.0	2.5	/experiments/knapen_AOT/AOT_stimuli/rescaled_final/1802_fw.mp4	0.0	241.73559594154358	2.5003209114074707
47	220.94161820411682	pulse	1	t		45.0	2.5	/experiments/knapen_AOT/AOT_stimuli/rescaled_final/1802_fw.mp4	0.0	242.91941905021667	
47	222.2581160068512	fix_post	2		12	45.0	2.5	/experiments/knapen_AOT/AOT_stimuli/rescaled_final/1802_fw.mp4	0.0	244.23591685295105	0.10001420974731445
48	222.3581302165985	fix_pre	0		120	46.0	2.5	/experiments/knapen_AOT/AOT_stimuli/rescaled_final/1002_fw.mp4	0.0	244.33593106269836	1.0001599788665771
48	222.54165506362915	pulse	0	t		46.0	2.5	/experiments/knapen_AOT/AOT_stimuli/rescaled_final/1002_fw.mp4	0.0	244.519455909729	
48	223.3582901954651	movie	1		244	46.0	2.5	/experiments/knapen_AOT/AOT_stimuli/rescaled_final/1002_fw.mp4	0.0	245.33609104156494	2.500337839126587
48	224.13445520401	pulse	1	t		46.0	2.5	/experiments/knapen_AOT/AOT_stimuli/rescaled_final/1002_fw.mp4	0.0	246.11225605010986	
48	225.73976302146912	pulse	1	t		46.0	2.5	/experiments/knapen_AOT/AOT_stimuli/rescaled_final/1002_fw.mp4	0.0	247.71756386756897	
48	225.85862803459167	fix_post	2		12	46.0	2.5	/experiments/knapen_AOT/AOT_stimuli/rescaled_final/1002_fw.mp4	0.0	247.83642888069153	0.10005402565002441
49	225.9586820602417	fix_pre	0		119	47.0	2.5	blank	1.0	247.93648290634155	0.9917840957641602
49	226.95046615600586	movie	1		300	47.0	2.5	blank	1.0	248.9282670021057	2.5004160404205322
49	227.3350419998169	pulse	1	t		47.0	2.5	blank	1.0	249.31284284591675	
49	228.93523621559143	pulse	1	t		47.0	2.5	blank	1.0	250.91303706169128	
49	229.4508821964264	fix_post	2		12	47.0	2.5	blank	1.0	251.42868304252625	0.09998679161071777
50	229.5508689880371	fix_pre	0		119	48.0	2.5	/experiments/knapen_AOT/AOT_stimuli/rescaled_final/0267_rv.mp4	0.0	251.52866983413696	0.9918391704559326
50	230.53460717201233	pulse	0	t		48.0	2.5	/experiments/knapen_AOT/AOT_stimuli/rescaled_final/0267_rv.mp4	0.0	252.51240801811218	
50	230.54270815849304	movie	1		246	48.0	2.5	/experiments/knapen_AOT/AOT_stimuli/rescaled_final/0267_rv.mp4	0.0	252.5205090045929	2.508685827255249
50	232.13521718978882	pulse	1	t		48.0	2.5	/experiments/knapen_AOT/AOT_stimuli/rescaled_final/0267_rv.mp4	0.0	254.11301803588867	
50	233.0513939857483	fix_post	2		12	48.0	2.5	/experiments/knapen_AOT/AOT_stimuli/rescaled_final/0267_rv.mp4	0.0	255.02919483184814	0.1000370979309082
51	233.1514310836792	fix_pre	0		120	49.0	2.5	/experiments/knapen_AOT/AOT_stimuli/rescaled_final/1636_rv.mp4	0.0	255.12923192977905	1.0001540184020996
51	233.7349510192871	pulse	0	t		49.0	2.5	/experiments/knapen_AOT/AOT_stimuli/rescaled_final/1636_rv.mp4	0.0	255.71275186538696	
51	234.1515851020813	movie	1		245	49.0	2.5	/experiments/knapen_AOT/AOT_stimuli/rescaled_final/1636_rv.mp4	0.0	256.12938594818115	2.5003550052642822
51	235.33534121513367	pulse	1	t		49.0	2.5	/experiments/knapen_AOT/AOT_stimuli/rescaled_final/1636_rv.mp4	0.0	257.3131420612335	
51	236.65194010734558	fix_post	2		12	49.0	2.5	/experiments/knapen_AOT/AOT_stimuli/rescaled_final/1636_rv.mp4	0.0	258.62974095344543	0.10002899169921875
52	236.7519690990448	fix_pre	0		120	50.0	2.5	/experiments/knapen_AOT/AOT_stimuli/rescaled_final/2076_rv.mp4	0.0	258.72976994514465	1.000154972076416
52	236.9354591369629	pulse	0	t		50.0	2.5	/experiments/knapen_AOT/AOT_stimuli/rescaled_final/2076_rv.mp4	0.0	258.91325998306274	
52	237.75212407112122	movie	1		244	50.0	2.5	/experiments/knapen_AOT/AOT_stimuli/rescaled_final/2076_rv.mp4	0.0	259.72992491722107	2.500452995300293
52	238.53586316108704	pulse	1	t		50.0	2.5	/experiments/knapen_AOT/AOT_stimuli/rescaled_final/2076_rv.mp4	0.0	260.5136640071869	
52	240.13599610328674	pulse	1	t		50.0	2.5	/experiments/knapen_AOT/AOT_stimuli/rescaled_final/2076_rv.mp4	0.0	262.1137969493866	
52	240.2525770664215	fix_post	2		12	50.0	2.5	/experiments/knapen_AOT/AOT_stimuli/rescaled_final/2076_rv.mp4	0.0	262.23037791252136	0.09991002082824707
53	240.35248708724976	fix_pre	0		120	51.0	2.5	/experiments/knapen_AOT/AOT_stimuli/rescaled_final/0029_rv.mp4	0.0	262.3302879333496	1.000154972076416
53	241.35264205932617	movie	1		243	51.0	2.5	/experiments/knapen_AOT/AOT_stimuli/rescaled_final/0029_rv.mp4	0.0	263.330442905426	2.4920051097869873
53	241.73665308952332	pulse	1	t		51.0	2.5	/experiments/knapen_AOT/AOT_stimuli/rescaled_final/0029_rv.mp4	0.0	263.71445393562317	
53	243.33645105361938	pulse	1	t		51.0	2.5	/experiments/knapen_AOT/AOT_stimuli/rescaled_final/0029_rv.mp4	0.0	265.31425189971924	
53	243.84464716911316	fix_post	2		12	51.0	2.5	/experiments/knapen_AOT/AOT_stimuli/rescaled_final/0029_rv.mp4	0.0	265.822448015213	0.10004997253417969
54	243.94469714164734	fix_pre	0		120	52.0	2.5	/experiments/knapen_AOT/AOT_stimuli/rescaled_final/1519_rv.mp4	0.0	265.9224979877472	1.000148057937622
54	244.93680000305176	pulse	0	t		52.0	2.5	/experiments/knapen_AOT/AOT_stimuli/rescaled_final/1519_rv.mp4	0.0	266.9146008491516	
54	244.94484519958496	movie	1		244	52.0	2.5	/experiments/knapen_AOT/AOT_stimuli/rescaled_final/1519_rv.mp4	0.0	266.9226460456848	2.508687973022461
54	246.5374481678009	pulse	1	t		52.0	2.5	/experiments/knapen_AOT/AOT_stimuli/rescaled_final/1519_rv.mp4	0.0	268.51524901390076	
54	247.45353317260742	fix_post	2		12	52.0	2.5	/experiments/knapen_AOT/AOT_stimuli/rescaled_final/1519_rv.mp4	0.0	269.4313340187073	0.10003995895385742
55	247.55357313156128	fix_pre	0		120	53.0	2.5	/experiments/knapen_AOT/AOT_stimuli/rescaled_final/1674_rv.mp4	0.0	269.53137397766113	1.0001699924468994
55	248.1371660232544	pulse	0	t		53.0	2.5	/experiments/knapen_AOT/AOT_stimuli/rescaled_final/1674_rv.mp4	0.0	270.11496686935425	
55	248.55374312400818	movie	1		244	53.0	2.5	/experiments/knapen_AOT/AOT_stimuli/rescaled_final/1674_rv.mp4	0.0	270.53154397010803	2.5003440380096436
55	249.73748517036438	pulse	1	t		53.0	2.5	/experiments/knapen_AOT/AOT_stimuli/rescaled_final/1674_rv.mp4	0.0	271.71528601646423	
55	251.05408716201782	fix_post	2		12	53.0	2.5	/experiments/knapen_AOT/AOT_stimuli/rescaled_final/1674_rv.mp4	0.0	273.0318880081177	0.10000896453857422
56	251.1540961265564	fix_pre	0		120	54.0	2.5	/experiments/knapen_AOT/AOT_stimuli/rescaled_final/0697_fw.mp4	0.0	273.13189697265625	1.0001449584960938
56	251.3377230167389	pulse	0	t		54.0	2.5	/experiments/knapen_AOT/AOT_stimuli/rescaled_final/0697_fw.mp4	0.0	273.31552386283875	
56	252.1542410850525	movie	1		243	54.0	2.5	/experiments/knapen_AOT/AOT_stimuli/rescaled_final/0697_fw.mp4	0.0	274.13204193115234	2.500382900238037
56	252.93802618980408	pulse	1	t		54.0	2.5	/experiments/knapen_AOT/AOT_stimuli/rescaled_final/0697_fw.mp4	0.0	274.91582703590393	
56	254.53815507888794	pulse	1	t		54.0	2.5	/experiments/knapen_AOT/AOT_stimuli/rescaled_final/0697_fw.mp4	0.0	276.5159559249878	
56	254.65462398529053	fix_post	2		12	54.0	2.5	/experiments/knapen_AOT/AOT_stimuli/rescaled_final/0697_fw.mp4	0.0	276.6324248313904	0.10005712509155273
57	254.75468111038208	fix_pre	0		120	55.0	2.5	blank	1.0	276.73248195648193	1.0001111030578613
57	255.75479221343994	movie	1		299	55.0	2.5	blank	1.0	277.7325930595398	2.492114782333374
57	256.1383330821991	pulse	1	t		55.0	2.5	blank	1.0	278.11613392829895	
57	257.73865699768066	pulse	1	t		55.0	2.5	blank	1.0	279.7164578437805	
57	258.2469069957733	fix_post	2		12	55.0	2.5	blank	1.0	280.22470784187317	0.09996318817138672
58	258.3468701839447	fix_pre	0		120	56.0	2.5	/experiments/knapen_AOT/AOT_stimuli/rescaled_final/0684_rv.mp4	0.0	280.32467103004456	1.000119924545288
58	259.3389620780945	pulse	0	t		56.0	2.5	/experiments/knapen_AOT/AOT_stimuli/rescaled_final/0684_rv.mp4	0.0	281.31676292419434	
58	259.34699010849	movie	1		244	56.0	2.5	/experiments/knapen_AOT/AOT_stimuli/rescaled_final/0684_rv.mp4	0.0	281.32479095458984	2.508718967437744
58	260.93955421447754	pulse	1	t		56.0	2.5	/experiments/knapen_AOT/AOT_stimuli/rescaled_final/0684_rv.mp4	0.0	282.9173550605774	
58	261.85570907592773	fix_post	2		12	56.0	2.5	/experiments/knapen_AOT/AOT_stimuli/rescaled_final/0684_rv.mp4	0.0	283.8335099220276	0.09998798370361328
59	261.95569705963135	fix_pre	0		120	57.0	2.5	/experiments/knapen_AOT/AOT_stimuli/rescaled_final/1829_rv.mp4	0.0	283.9334979057312	1.0002191066741943
59	262.5392680168152	pulse	0	t		57.0	2.5	/experiments/knapen_AOT/AOT_stimuli/rescaled_final/1829_rv.mp4	0.0	284.51706886291504	
59	262.95591616630554	movie	1		245	57.0	2.5	/experiments/knapen_AOT/AOT_stimuli/rescaled_final/1829_rv.mp4	0.0	284.9337170124054	2.500314950942993
59	264.13979411125183	pulse	1	t		57.0	2.5	/experiments/knapen_AOT/AOT_stimuli/rescaled_final/1829_rv.mp4	0.0	286.1175949573517	
59	265.45623111724854	fix_post	2		12	57.0	2.5	/experiments/knapen_AOT/AOT_stimuli/rescaled_final/1829_rv.mp4	0.0	287.4340319633484	0.10001707077026367
60	265.5562481880188	fix_pre	0		120	58.0	2.5	/experiments/knapen_AOT/AOT_stimuli/rescaled_final/1002_rv.mp4	0.0	287.53404903411865	1.000154972076416
60	265.739933013916	pulse	0	t		58.0	2.5	/experiments/knapen_AOT/AOT_stimuli/rescaled_final/1002_rv.mp4	0.0	287.71773386001587	
60	266.5564031600952	movie	1		247	58.0	2.5	/experiments/knapen_AOT/AOT_stimuli/rescaled_final/1002_rv.mp4	0.0	288.53420400619507	2.500377893447876
60	267.34014201164246	pulse	1	t		58.0	2.5	/experiments/knapen_AOT/AOT_stimuli/rescaled_final/1002_rv.mp4	0.0	289.3179428577423	
60	268.9403131008148	pulse	1	t		58.0	2.5	/experiments/knapen_AOT/AOT_stimuli/rescaled_final/1002_rv.mp4	0.0	290.9181139469147	
60	269.0567810535431	fix_post	2		12	58.0	2.5	/experiments/knapen_AOT/AOT_stimuli/rescaled_final/1002_rv.mp4	0.0	291.03458189964294	0.10002398490905762
61	269.15680503845215	fix_pre	0		120	59.0	2.5	/experiments/knapen_AOT/AOT_stimuli/rescaled_final/1542_rv.mp4	0.0	291.134605884552	1.0002050399780273
61	270.1570100784302	movie	1		243	59.0	2.5	/experiments/knapen_AOT/AOT_stimuli/rescaled_final/1542_rv.mp4	0.0	292.13481092453003	2.4919989109039307
61	270.5452411174774	pulse	1	t		59.0	2.5	/experiments/knapen_AOT/AOT_stimuli/rescaled_final/1542_rv.mp4	0.0	292.52304196357727	
61	272.1408631801605	pulse	1	t		59.0	2.5	/experiments/knapen_AOT/AOT_stimuli/rescaled_final/1542_rv.mp4	0.0	294.1186640262604	
61	272.6490089893341	fix_post	2		12	59.0	2.5	/experiments/knapen_AOT/AOT_stimuli/rescaled_final/1542_rv.mp4	0.0	294.62680983543396	0.10000109672546387
62	272.74901008605957	fix_pre	0		120	60.0	2.5	/experiments/knapen_AOT/AOT_stimuli/rescaled_final/1690_fw.mp4	0.0	294.7268109321594	1.0001440048217773
62	273.74100708961487	pulse	0	t		60.0	2.5	/experiments/knapen_AOT/AOT_stimuli/rescaled_final/1690_fw.mp4	0.0	295.7188079357147	
62	273.74915409088135	movie	1		246	60.0	2.5	/experiments/knapen_AOT/AOT_stimuli/rescaled_final/1690_fw.mp4	0.0	295.7269549369812	2.5087060928344727
62	275.3417661190033	pulse	1	t		60.0	2.5	/experiments/knapen_AOT/AOT_stimuli/rescaled_final/1690_fw.mp4	0.0	297.31956696510315	
62	276.2578601837158	fix_post	2		10	60.0	2.5	/experiments/knapen_AOT/AOT_stimuli/rescaled_final/1690_fw.mp4	0.0	298.2356610298157	0.09998488426208496
63	276.3578450679779	fix_pre	0		120	61.0	2.5	/experiments/knapen_AOT/AOT_stimuli/rescaled_final/1796_rv.mp4	0.0	298.33564591407776	1.0001869201660156
63	276.9414701461792	pulse	0	t		61.0	2.5	/experiments/knapen_AOT/AOT_stimuli/rescaled_final/1796_rv.mp4	0.0	298.91927099227905	
63	277.3580319881439	movie	1		245	61.0	2.5	/experiments/knapen_AOT/AOT_stimuli/rescaled_final/1796_rv.mp4	0.0	299.3358328342438	2.500364065170288
63	278.54184913635254	pulse	1	t		61.0	2.5	/experiments/knapen_AOT/AOT_stimuli/rescaled_final/1796_rv.mp4	0.0	300.5196499824524	
63	279.8583960533142	fix_post	2		12	61.0	2.5	/experiments/knapen_AOT/AOT_stimuli/rescaled_final/1796_rv.mp4	0.0	301.83619689941406	0.10007500648498535
64	279.9584710597992	fix_pre	0		120	62.0	2.5	blank	1.0	301.93627190589905	1.0000791549682617
64	280.1344530582428	pulse	0	t		62.0	2.5	blank	1.0	302.11225390434265	
64	280.95855021476746	movie	1		300	62.0	2.5	blank	1.0	302.9363510608673	2.5004007816314697
64	281.73475909233093	pulse	1	t		62.0	2.5	blank	1.0	303.7125599384308	
64	283.3348150253296	pulse	1	t		62.0	2.5	blank	1.0	305.31261587142944	
64	283.4589509963989	fix_post	2		12	62.0	2.5	blank	1.0	305.4367518424988	0.09998822212219238
65	283.5589392185211	fix_pre	0		120	63.0	2.5	/experiments/knapen_AOT/AOT_stimuli/rescaled_final/1626_rv.mp4	0.0	305.536740064621	1.0001628398895264
65	284.55910205841064	movie	1		243	63.0	2.5	/experiments/knapen_AOT/AOT_stimuli/rescaled_final/1626_rv.mp4	0.0	306.5369029045105	2.492021083831787
65	284.93438816070557	pulse	1	t		63.0	2.5	/experiments/knapen_AOT/AOT_stimuli/rescaled_final/1626_rv.mp4	0.0	306.9121890068054	
65	286.5346190929413	pulse	1	t		63.0	2.5	/experiments/knapen_AOT/AOT_stimuli/rescaled_final/1626_rv.mp4	0.0	308.51241993904114	
65	287.05112314224243	fix_post	2		12	63.0	2.5	/experiments/knapen_AOT/AOT_stimuli/rescaled_final/1626_rv.mp4	0.0	309.0289239883423	0.10004401206970215
66	287.15116715431213	fix_pre	0		119	64.0	2.5	/experiments/knapen_AOT/AOT_stimuli/rescaled_final/1641_fw.mp4	0.0	309.128968000412	0.9917750358581543
66	288.1349251270294	pulse	0	t		64.0	2.5	/experiments/knapen_AOT/AOT_stimuli/rescaled_final/1641_fw.mp4	0.0	310.1127259731293	
66	288.1429421901703	movie	1		244	64.0	2.5	/experiments/knapen_AOT/AOT_stimuli/rescaled_final/1641_fw.mp4	0.0	310.12074303627014	2.5087149143218994
66	289.7357671260834	pulse	1	t		64.0	2.5	/experiments/knapen_AOT/AOT_stimuli/rescaled_final/1641_fw.mp4	0.0	311.7135679721832	
66	290.6516571044922	fix_post	2		12	64.0	2.5	/experiments/knapen_AOT/AOT_stimuli/rescaled_final/1641_fw.mp4	0.0	312.62945795059204	0.10003995895385742
67	290.75169706344604	fix_pre	0		120	65.0	2.5	/experiments/knapen_AOT/AOT_stimuli/rescaled_final/0192_rv.mp4	0.0	312.7294979095459	1.0001640319824219
67	291.33533000946045	pulse	0	t		65.0	2.5	/experiments/knapen_AOT/AOT_stimuli/rescaled_final/0192_rv.mp4	0.0	313.3131308555603	
67	291.75186109542847	movie	1		245	65.0	2.5	/experiments/knapen_AOT/AOT_stimuli/rescaled_final/0192_rv.mp4	0.0	313.7296619415283	2.5003340244293213
67	292.9355721473694	pulse	1	t		65.0	2.5	/experiments/knapen_AOT/AOT_stimuli/rescaled_final/0192_rv.mp4	0.0	314.91337299346924	
67	294.2521951198578	fix_post	2		12	65.0	2.5	/experiments/knapen_AOT/AOT_stimuli/rescaled_final/0192_rv.mp4	0.0	316.22999596595764	0.10000896453857422
68	294.35220408439636	fix_pre	0		120	66.0	2.5	/experiments/knapen_AOT/AOT_stimuli/rescaled_final/0811_fw.mp4	0.0	316.3300049304962	1.0001909732818604
68	294.53577518463135	pulse	0	t		66.0	2.5	/experiments/knapen_AOT/AOT_stimuli/rescaled_final/0811_fw.mp4	0.0	316.5135760307312	
68	295.3523950576782	movie	1		244	66.0	2.5	/experiments/knapen_AOT/AOT_stimuli/rescaled_final/0811_fw.mp4	0.0	317.3301959037781	2.5003881454467773
68	296.1360080242157	pulse	1	t		66.0	2.5	/experiments/knapen_AOT/AOT_stimuli/rescaled_final/0811_fw.mp4	0.0	318.11380887031555	
68	297.73630714416504	pulse	1	t		66.0	2.5	/experiments/knapen_AOT/AOT_stimuli/rescaled_final/0811_fw.mp4	0.0	319.7141079902649	
68	297.852783203125	fix_post	2		12	66.0	2.5	/experiments/knapen_AOT/AOT_stimuli/rescaled_final/0811_fw.mp4	0.0	319.83058404922485	0.09997987747192383
69	297.9527630805969	fix_pre	0		120	67.0	2.5	/experiments/knapen_AOT/AOT_stimuli/rescaled_final/0588_rv.mp4	0.0	319.9305639266968	1.0001590251922607
69	298.9529221057892	movie	1		243	67.0	2.5	/experiments/knapen_AOT/AOT_stimuli/rescaled_final/0588_rv.mp4	0.0	320.93072295188904	2.4920079708099365
69	299.33716106414795	pulse	1	t		67.0	2.5	/experiments/knapen_AOT/AOT_stimuli/rescaled_final/0588_rv.mp4	0.0	321.3149619102478	
69	300.93673300743103	pulse	1	t		67.0	2.5	/experiments/knapen_AOT/AOT_stimuli/rescaled_final/0588_rv.mp4	0.0	322.9145338535309	
69	301.4449300765991	fix_post	2		12	67.0	2.5	/experiments/knapen_AOT/AOT_stimuli/rescaled_final/0588_rv.mp4	0.0	323.422730922699	0.10009908676147461
70	301.5450291633606	fix_pre	0		120	68.0	2.5	blank	1.0	323.52283000946045	1.0001349449157715
70	302.536954164505	pulse	0	t		68.0	2.5	blank	1.0	324.51475501060486	
70	302.54516410827637	movie	1		301	68.0	2.5	blank	1.0	324.5229649543762	2.5086820125579834
70	304.13726711273193	pulse	1	t		68.0	2.5	blank	1.0	326.1150679588318	
70	305.05384612083435	fix_post	2		12	68.0	2.5	blank	1.0	327.0316469669342	0.09998297691345215
71	305.1538290977478	fix_pre	0		120	69.0	2.5	/experiments/knapen_AOT/AOT_stimuli/rescaled_final/1303_rv.mp4	0.0	327.13162994384766	1.0001680850982666
71	305.73740100860596	pulse	0	t		69.0	2.5	/experiments/knapen_AOT/AOT_stimuli/rescaled_final/1303_rv.mp4	0.0	327.7152018547058	
71	306.15399718284607	movie	1		244	69.0	2.5	/experiments/knapen_AOT/AOT_stimuli/rescaled_final/1303_rv.mp4	0.0	328.1317980289459	2.50032901763916
71	307.33775806427	pulse	1	t		69.0	2.5	/experiments/knapen_AOT/AOT_stimuli/rescaled_final/1303_rv.mp4	0.0	329.3155589103699	
71	308.65432620048523	fix_post	2		12	69.0	2.5	/experiments/knapen_AOT/AOT_stimuli/rescaled_final/1303_rv.mp4	0.0	330.6321270465851	0.1000678539276123
72	308.75439405441284	fix_pre	0		120	70.0	2.5	/experiments/knapen_AOT/AOT_stimuli/rescaled_final/1303_fw.mp4	0.0	330.7321949005127	1.0001580715179443
72	308.9380362033844	pulse	0	t		70.0	2.5	/experiments/knapen_AOT/AOT_stimuli/rescaled_final/1303_fw.mp4	0.0	330.91583704948425	
72	309.7545521259308	movie	1		244	70.0	2.5	/experiments/knapen_AOT/AOT_stimuli/rescaled_final/1303_fw.mp4	0.0	331.73235297203064	2.500380039215088
72	310.5382881164551	pulse	1	t		70.0	2.5	/experiments/knapen_AOT/AOT_stimuli/rescaled_final/1303_fw.mp4	0.0	332.51608896255493	
72	312.1389000415802	pulse	1	t		70.0	2.5	/experiments/knapen_AOT/AOT_stimuli/rescaled_final/1303_fw.mp4	0.0	334.11670088768005	
72	312.2549321651459	fix_post	2		12	70.0	2.5	/experiments/knapen_AOT/AOT_stimuli/rescaled_final/1303_fw.mp4	0.0	334.2327330112457	0.09997701644897461
73	312.35490918159485	fix_pre	0		120	71.0	2.5	/experiments/knapen_AOT/AOT_stimuli/rescaled_final/1985_fw.mp4	0.0	334.3327100276947	1.0001728534698486
73	313.3550820350647	movie	1		245	71.0	2.5	/experiments/knapen_AOT/AOT_stimuli/rescaled_final/1985_fw.mp4	0.0	335.33288288116455	2.492042064666748
73	313.73906207084656	pulse	1	t		71.0	2.5	/experiments/knapen_AOT/AOT_stimuli/rescaled_final/1985_fw.mp4	0.0	335.7168629169464	
73	315.3389091491699	pulse	1	t		71.0	2.5	/experiments/knapen_AOT/AOT_stimuli/rescaled_final/1985_fw.mp4	0.0	337.3167099952698	
73	315.84712409973145	fix_post	2		12	71.0	2.5	/experiments/knapen_AOT/AOT_stimuli/rescaled_final/1985_fw.mp4	0.0	337.8249249458313	0.09997892379760742
74	315.94710302352905	fix_pre	0		120	72.0	2.5	/experiments/knapen_AOT/AOT_stimuli/rescaled_final/1132_fw.mp4	0.0	337.9249038696289	1.000154972076416
74	316.93918800354004	pulse	0	t		72.0	2.5	/experiments/knapen_AOT/AOT_stimuli/rescaled_final/1132_fw.mp4	0.0	338.9169888496399	
74	316.94725799560547	movie	1		246	72.0	2.5	/experiments/knapen_AOT/AOT_stimuli/rescaled_final/1132_fw.mp4	0.0	338.9250588417053	2.508803129196167
74	318.53975009918213	pulse	1	t		72.0	2.5	/experiments/knapen_AOT/AOT_stimuli/rescaled_final/1132_fw.mp4	0.0	340.517550945282	
74	319.45606112480164	fix_post	2		12	72.0	2.5	/experiments/knapen_AOT/AOT_stimuli/rescaled_final/1132_fw.mp4	0.0	341.4338619709015	0.09993290901184082
75	319.5559940338135	fix_pre	0		120	73.0	2.5	/experiments/knapen_AOT/AOT_stimuli/rescaled_final/1425_fw.mp4	0.0	341.53379487991333	1.0001931190490723
75	320.13967204093933	pulse	0	t		73.0	2.5	/experiments/knapen_AOT/AOT_stimuli/rescaled_final/1425_fw.mp4	0.0	342.1174728870392	
75	320.55618715286255	movie	1		247	73.0	2.5	/experiments/knapen_AOT/AOT_stimuli/rescaled_final/1425_fw.mp4	0.0	342.5339879989624	2.5003089904785156
75	321.739963054657	pulse	1	t		73.0	2.5	/experiments/knapen_AOT/AOT_stimuli/rescaled_final/1425_fw.mp4	0.0	343.71776390075684	
75	323.05649614334106	fix_post	2		12	73.0	2.5	/experiments/knapen_AOT/AOT_stimuli/rescaled_final/1425_fw.mp4	0.0	345.0342969894409	0.10003805160522461
76	323.1565341949463	fix_pre	0		120	74.0	2.5	/experiments/knapen_AOT/AOT_stimuli/rescaled_final/0694_fw.mp4	0.0	345.13433504104614	1.0001418590545654
76	323.3400731086731	pulse	0	t		74.0	2.5	/experiments/knapen_AOT/AOT_stimuli/rescaled_final/0694_fw.mp4	0.0	345.31787395477295	
76	324.15667605400085	movie	1		243	74.0	2.5	/experiments/knapen_AOT/AOT_stimuli/rescaled_final/0694_fw.mp4	0.0	346.1344769001007	2.5004100799560547
76	324.9403700828552	pulse	1	t		74.0	2.5	/experiments/knapen_AOT/AOT_stimuli/rescaled_final/0694_fw.mp4	0.0	346.9181709289551	
76	326.54079604148865	pulse	1	t		74.0	2.5	/experiments/knapen_AOT/AOT_stimuli/rescaled_final/0694_fw.mp4	0.0	348.5185968875885	
76	326.6570861339569	fix_post	2		12	74.0	2.5	/experiments/knapen_AOT/AOT_stimuli/rescaled_final/0694_fw.mp4	0.0	348.63488698005676	0.09999299049377441
77	326.7570791244507	fix_pre	0		120	75.0	2.5	blank	1.0	348.73487997055054	1.0001270771026611
77	327.75720620155334	movie	1		299	75.0	2.5	blank	1.0	349.7350070476532	2.4920477867126465
77	328.14079999923706	pulse	1	t		75.0	2.5	blank	1.0	350.1186008453369	
77	329.7410271167755	pulse	1	t		75.0	2.5	blank	1.0	351.71882796287537	
77	330.249253988266	fix_post	2		12	75.0	2.5	blank	1.0	352.22705483436584	0.10006403923034668
78	330.34931802749634	fix_pre	0		120	76.0	2.5	/experiments/knapen_AOT/AOT_stimuli/rescaled_final/1092_fw.mp4	0.0	352.3271188735962	1.0001990795135498
78	331.3412501811981	pulse	0	t		76.0	2.5	/experiments/knapen_AOT/AOT_stimuli/rescaled_final/1092_fw.mp4	0.0	353.319051027298	
78	331.3495171070099	movie	1		246	76.0	2.5	/experiments/knapen_AOT/AOT_stimuli/rescaled_final/1092_fw.mp4	0.0	353.32731795310974	2.5085959434509277
78	332.9458010196686	pulse	1	t		76.0	2.5	/experiments/knapen_AOT/AOT_stimuli/rescaled_final/1092_fw.mp4	0.0	354.92360186576843	
78	333.8581130504608	fix_post	2		12	76.0	2.5	/experiments/knapen_AOT/AOT_stimuli/rescaled_final/1092_fw.mp4	0.0	355.83591389656067	0.10001611709594727
79	333.95812916755676	fix_pre	0		120	77.0	2.5	/experiments/knapen_AOT/AOT_stimuli/rescaled_final/0729_rv.mp4	0.0	355.9359300136566	1.0001459121704102
79	334.5342071056366	pulse	0	t		77.0	2.5	/experiments/knapen_AOT/AOT_stimuli/rescaled_final/0729_rv.mp4	0.0	356.51200795173645	
79	334.9582750797272	movie	1		244	77.0	2.5	/experiments/knapen_AOT/AOT_stimuli/rescaled_final/0729_rv.mp4	0.0	356.936075925827	2.5005409717559814
79	336.1340341567993	pulse	1	t		77.0	2.5	/experiments/knapen_AOT/AOT_stimuli/rescaled_final/0729_rv.mp4	0.0	358.11183500289917	
79	337.45881605148315	fix_post	2		10	77.0	2.5	/experiments/knapen_AOT/AOT_stimuli/rescaled_final/0729_rv.mp4	0.0	359.436616897583	0.09985208511352539
80	337.5586681365967	fix_pre	0		120	78.0	2.5	/experiments/knapen_AOT/AOT_stimuli/rescaled_final/0159_fw.mp4	0.0	359.53646898269653	1.0001800060272217
80	337.7340371608734	pulse	0	t		78.0	2.5	/experiments/knapen_AOT/AOT_stimuli/rescaled_final/0159_fw.mp4	0.0	359.71183800697327	
80	338.5588481426239	movie	1		243	78.0	2.5	/experiments/knapen_AOT/AOT_stimuli/rescaled_final/0159_fw.mp4	0.0	360.53664898872375	2.500319004058838
80	339.3340702056885	pulse	1	t		78.0	2.5	/experiments/knapen_AOT/AOT_stimuli/rescaled_final/0159_fw.mp4	0.0	361.31187105178833	
80	340.9343101978302	pulse	1	t		78.0	2.5	/experiments/knapen_AOT/AOT_stimuli/rescaled_final/0159_fw.mp4	0.0	362.91211104393005	
80	341.05916714668274	fix_post	2		12	78.0	2.5	/experiments/knapen_AOT/AOT_stimuli/rescaled_final/0159_fw.mp4	0.0	363.0369679927826	0.10003089904785156
81	341.1591980457306	fix_pre	0		119	79.0	2.5	/experiments/knapen_AOT/AOT_stimuli/rescaled_final/1550_fw.mp4	0.0	363.13699889183044	0.9918889999389648
81	342.15108704566956	movie	1		245	79.0	2.5	/experiments/knapen_AOT/AOT_stimuli/rescaled_final/1550_fw.mp4	0.0	364.1288878917694	2.500333070755005
81	342.53934717178345	pulse	1	t		79.0	2.5	/experiments/knapen_AOT/AOT_stimuli/rescaled_final/1550_fw.mp4	0.0	364.5171480178833	
81	344.1349971294403	pulse	1	t		79.0	2.5	/experiments/knapen_AOT/AOT_stimuli/rescaled_final/1550_fw.mp4	0.0	366.11279797554016	
81	344.65142011642456	fix_post	2		12	79.0	2.5	/experiments/knapen_AOT/AOT_stimuli/rescaled_final/1550_fw.mp4	0.0	366.6292209625244	0.100006103515625
82	344.7514262199402	fix_pre	0		119	80.0	2.5	/experiments/knapen_AOT/AOT_stimuli/rescaled_final/0949_fw.mp4	0.0	366.72922706604004	0.9917919635772705
82	345.7350900173187	pulse	0	t		80.0	2.5	/experiments/knapen_AOT/AOT_stimuli/rescaled_final/0949_fw.mp4	0.0	367.7128908634186	
82	345.74321818351746	movie	1		246	80.0	2.5	/experiments/knapen_AOT/AOT_stimuli/rescaled_final/0949_fw.mp4	0.0	367.7210190296173	2.5086870193481445
82	347.33577609062195	pulse	1	t		80.0	2.5	/experiments/knapen_AOT/AOT_stimuli/rescaled_final/0949_fw.mp4	0.0	369.3135769367218	
82	348.2519052028656	fix_post	2		12	80.0	2.5	/experiments/knapen_AOT/AOT_stimuli/rescaled_final/0949_fw.mp4	0.0	370.22970604896545	0.10008788108825684
83	348.35199308395386	fix_pre	0		120	81.0	2.5	/experiments/knapen_AOT/AOT_stimuli/rescaled_final/1224_fw.mp4	0.0	370.3297939300537	1.0001139640808105
83	348.9355671405792	pulse	0	t		81.0	2.5	/experiments/knapen_AOT/AOT_stimuli/rescaled_final/1224_fw.mp4	0.0	370.9133679866791	
83	349.35210704803467	movie	1		244	81.0	2.5	/experiments/knapen_AOT/AOT_stimuli/rescaled_final/1224_fw.mp4	0.0	371.3299078941345	2.500383138656616
83	350.5359570980072	pulse	1	t		81.0	2.5	/experiments/knapen_AOT/AOT_stimuli/rescaled_final/1224_fw.mp4	0.0	372.51375794410706	
83	351.8524901866913	fix_post	2		12	81.0	2.5	/experiments/knapen_AOT/AOT_stimuli/rescaled_final/1224_fw.mp4	0.0	373.83029103279114	0.10007691383361816
84	351.9525671005249	fix_pre	0		120	82.0	2.5	/experiments/knapen_AOT/AOT_stimuli/rescaled_final/0744_fw.mp4	0.0	373.93036794662476	1.000072956085205
84	352.1361491680145	pulse	0	t		82.0	2.5	/experiments/knapen_AOT/AOT_stimuli/rescaled_final/0744_fw.mp4	0.0	374.1139500141144	
84	352.9526400566101	movie	1		245	82.0	2.5	/experiments/knapen_AOT/AOT_stimuli/rescaled_final/0744_fw.mp4	0.0	374.93044090270996	2.500365972518921
84	353.7362530231476	pulse	1	t		82.0	2.5	/experiments/knapen_AOT/AOT_stimuli/rescaled_final/0744_fw.mp4	0.0	375.71405386924744	
84	355.3340780735016	pulse	1	t		82.0	2.5	/experiments/knapen_AOT/AOT_stimuli/rescaled_final/0744_fw.mp4	0.0	377.31187891960144	
84	355.453006029129	fix_post	2		12	82.0	2.5	/experiments/knapen_AOT/AOT_stimuli/rescaled_final/0744_fw.mp4	0.0	377.4308068752289	0.10004305839538574
85	355.5530490875244	fix_pre	0		120	83.0	2.5	blank	1.0	377.53084993362427	1.0001161098480225
85	356.55316519737244	movie	1		299	83.0	2.5	blank	1.0	378.5309660434723	2.492060899734497
85	356.9369201660156	pulse	1	t		83.0	2.5	blank	1.0	378.9147210121155	
85	358.5370891094208	pulse	1	t		83.0	2.5	blank	1.0	380.51488995552063	
85	359.04522609710693	fix_post	2		12	83.0	2.5	blank	1.0	381.0230269432068	0.10000896453857422
87	359.1452350616455	stim	0		1716					381.12303590774536	14.302150011062622
87	360.1372380256653	pulse	0	t						382.11503887176514	
87	361.73753809928894	pulse	0	t						383.7153389453888	
87	363.33777713775635	pulse	0	t						385.3155779838562	
87	364.93792605400085	pulse	0	t						386.9157269001007	
87	366.5382001399994	pulse	0	t						388.51600098609924	
87	368.13834714889526	pulse	0	t						390.1161479949951	
87	369.7386791706085	pulse	0	t						391.7164800167084	
87	371.33902502059937	pulse	0	t						393.3168258666992	
87	372.93922305107117	pulse	0	t						394.917023897171	
