trial_nr	onset	event_type	phase	response	nr_frames	movie_index	movie_duration	movie_file	blank	onset_abs	duration
0	0.14987492561340332	stim	0		99					21.548184871673584	0.825031042098999
0	0.9668498039245605	response	0	space						22.36515974998474	
1	0.9749059677124023	stim	0		13258					22.373215913772583	110.48279690742493
1	111.45308184623718	pulse	0	t						132.85139179229736	
1	111.45770287513733	stim	1		1717					132.8560128211975	14.30818796157837
1	113.04947185516357	pulse	1	t						134.44778180122375	
1	114.64906692504883	pulse	1	t						136.047376871109	
1	116.24923396110535	pulse	1	t						137.64754390716553	
1	117.84951400756836	pulse	1	t						139.24782395362854	
1	119.4495038986206	pulse	1	t						140.8478138446808	
1	121.04936981201172	pulse	1	t						142.4476797580719	
1	122.64944100379944	pulse	1	t						144.04775094985962	
1	124.24937081336975	pulse	1	t						145.64768075942993	
2	125.7658908367157	fix_pre	0		11	0.0	2.5	/experiments/AOT/AOT_stimuli/rescaled_final/1770_rv.mp4	0.0	147.16420078277588	0.09164214134216309
2	125.84941983222961	pulse	0	t		0.0	2.5	/experiments/AOT/AOT_stimuli/rescaled_final/1770_rv.mp4	0.0	147.2477297782898	
2	125.85753297805786	movie	1		243	0.0	2.5	/experiments/AOT/AOT_stimuli/rescaled_final/1770_rv.mp4	0.0	147.25584292411804	2.5079329013824463
2	127.45061993598938	pulse	1	t		0.0	2.5	/experiments/AOT/AOT_stimuli/rescaled_final/1770_rv.mp4	0.0	148.84892988204956	
2	128.3654658794403	fix_post	2		12	0.0	2.5	/experiments/AOT/AOT_stimuli/rescaled_final/1770_rv.mp4	0.0	149.7637758255005	0.10041499137878418
3	128.4658808708191	fix_pre	0		120	1.0	2.5	/experiments/AOT/AOT_stimuli/rescaled_final/1459_fw.mp4	0.0	149.86419081687927	0.9999480247497559
3	129.04931688308716	pulse	0	t		1.0	2.5	/experiments/AOT/AOT_stimuli/rescaled_final/1459_fw.mp4	0.0	150.44762682914734	
3	129.46582889556885	movie	1		244	1.0	2.5	/experiments/AOT/AOT_stimuli/rescaled_final/1459_fw.mp4	0.0	150.86413884162903	2.500023126602173
3	130.64949297904968	pulse	1	t		1.0	2.5	/experiments/AOT/AOT_stimuli/rescaled_final/1459_fw.mp4	0.0	152.04780292510986	
3	131.96585202217102	fix_post	2		12	1.0	2.5	/experiments/AOT/AOT_stimuli/rescaled_final/1459_fw.mp4	0.0	153.3641619682312	0.09997081756591797
4	132.06582283973694	fix_pre	0		120	2.0	2.5	/experiments/AOT/AOT_stimuli/rescaled_final/2065_rv.mp4	0.0	153.46413278579712	1.0001380443572998
4	132.2492640018463	pulse	0	t		2.0	2.5	/experiments/AOT/AOT_stimuli/rescaled_final/2065_rv.mp4	0.0	153.6475739479065	
4	133.06596088409424	movie	1		243	2.0	2.5	/experiments/AOT/AOT_stimuli/rescaled_final/2065_rv.mp4	0.0	154.46427083015442	2.499936103820801
4	133.84941482543945	pulse	1	t		2.0	2.5	/experiments/AOT/AOT_stimuli/rescaled_final/2065_rv.mp4	0.0	155.24772477149963	
4	135.4478898048401	pulse	1	t		2.0	2.5	/experiments/AOT/AOT_stimuli/rescaled_final/2065_rv.mp4	0.0	156.84619975090027	
4	135.56589698791504	fix_post	2		12	2.0	2.5	/experiments/AOT/AOT_stimuli/rescaled_final/2065_rv.mp4	0.0	156.96420693397522	0.09989500045776367
5	135.6657919883728	fix_pre	0		120	3.0	2.5	/experiments/AOT/AOT_stimuli/rescaled_final/1310_rv.mp4	0.0	157.06410193443298	1.0001108646392822
5	136.66590285301208	movie	1		245	3.0	2.5	/experiments/AOT/AOT_stimuli/rescaled_final/1310_rv.mp4	0.0	158.06421279907227	2.4998910427093506
5	137.04888486862183	pulse	1	t		3.0	2.5	/experiments/AOT/AOT_stimuli/rescaled_final/1310_rv.mp4	0.0	158.447194814682	
5	138.64932298660278	pulse	1	t		3.0	2.5	/experiments/AOT/AOT_stimuli/rescaled_final/1310_rv.mp4	0.0	160.04763293266296	
5	139.16579389572144	fix_post	2		12	3.0	2.5	/experiments/AOT/AOT_stimuli/rescaled_final/1310_rv.mp4	0.0	160.56410384178162	0.10005903244018555
6	139.26585292816162	fix_pre	0		119	4.0	2.5	/experiments/AOT/AOT_stimuli/rescaled_final/0244_fw.mp4	0.0	160.6641628742218	0.9915828704833984
6	140.24938702583313	pulse	0	t		4.0	2.5	/experiments/AOT/AOT_stimuli/rescaled_final/0244_fw.mp4	0.0	161.6476969718933	
6	140.25743579864502	movie	1		247	4.0	2.5	/experiments/AOT/AOT_stimuli/rescaled_final/0244_fw.mp4	0.0	161.6557457447052	2.5085020065307617
6	141.84956789016724	pulse	1	t		4.0	2.5	/experiments/AOT/AOT_stimuli/rescaled_final/0244_fw.mp4	0.0	163.24787783622742	
6	142.76593780517578	fix_post	2		12	4.0	2.5	/experiments/AOT/AOT_stimuli/rescaled_final/0244_fw.mp4	0.0	164.16424775123596	0.09987711906433105
7	142.8658149242401	fix_pre	0		120	5.0	2.5	blank	1.0	164.2641248703003	1.0001420974731445
7	143.44932794570923	pulse	0	t		5.0	2.5	blank	1.0	164.8476378917694	
7	143.86595702171326	movie	1		300	5.0	2.5	blank	1.0	165.26426696777344	2.4998738765716553
7	145.0494258403778	pulse	1	t		5.0	2.5	blank	1.0	166.447735786438	
7	146.3658308982849	fix_post	2		12	5.0	2.5	blank	1.0	167.7641408443451	0.09961509704589844
8	146.4654459953308	fix_pre	0		120	6.0	2.5	/experiments/AOT/AOT_stimuli/rescaled_final/1638_rv.mp4	0.0	167.863755941391	1.0003399848937988
8	146.64932584762573	pulse	0	t		6.0	2.5	/experiments/AOT/AOT_stimuli/rescaled_final/1638_rv.mp4	0.0	168.0476357936859	
8	147.4657859802246	movie	1		244	6.0	2.5	/experiments/AOT/AOT_stimuli/rescaled_final/1638_rv.mp4	0.0	168.8640959262848	2.5000038146972656
8	148.2492618560791	pulse	1	t		6.0	2.5	/experiments/AOT/AOT_stimuli/rescaled_final/1638_rv.mp4	0.0	169.64757180213928	
8	149.84785985946655	pulse	1	t		6.0	2.5	/experiments/AOT/AOT_stimuli/rescaled_final/1638_rv.mp4	0.0	171.24616980552673	
8	149.96578979492188	fix_post	2		12	6.0	2.5	/experiments/AOT/AOT_stimuli/rescaled_final/1638_rv.mp4	0.0	171.36409974098206	0.100067138671875
9	150.06585693359375	fix_pre	0		120	7.0	2.5	/experiments/AOT/AOT_stimuli/rescaled_final/1878_fw.mp4	0.0	171.46416687965393	0.9999270439147949
9	151.06578397750854	movie	1		245	7.0	2.5	/experiments/AOT/AOT_stimuli/rescaled_final/1878_fw.mp4	0.0	172.46409392356873	2.5000100135803223
9	151.45044684410095	pulse	1	t		7.0	2.5	/experiments/AOT/AOT_stimuli/rescaled_final/1878_fw.mp4	0.0	172.84875679016113	
9	153.04929280281067	pulse	1	t		7.0	2.5	/experiments/AOT/AOT_stimuli/rescaled_final/1878_fw.mp4	0.0	174.44760274887085	
9	153.56579399108887	fix_post	2		12	7.0	2.5	/experiments/AOT/AOT_stimuli/rescaled_final/1878_fw.mp4	0.0	174.96410393714905	0.10002779960632324
10	153.6658217906952	fix_pre	0		119	8.0	2.5	/experiments/AOT/AOT_stimuli/rescaled_final/1920_rv.mp4	0.0	175.06413173675537	0.9916410446166992
10	154.64932894706726	pulse	0	t		8.0	2.5	/experiments/AOT/AOT_stimuli/rescaled_final/1920_rv.mp4	0.0	176.04763889312744	
10	154.6574628353119	movie	1		246	8.0	2.5	/experiments/AOT/AOT_stimuli/rescaled_final/1920_rv.mp4	0.0	176.05577278137207	2.50833797454834
10	156.24894285202026	pulse	1	t		8.0	2.5	/experiments/AOT/AOT_stimuli/rescaled_final/1920_rv.mp4	0.0	177.64725279808044	
10	157.16580080986023	fix_post	2		12	8.0	2.5	/experiments/AOT/AOT_stimuli/rescaled_final/1920_rv.mp4	0.0	178.5641107559204	0.09994721412658691
11	157.26574802398682	fix_pre	0		120	9.0	2.5	/experiments/AOT/AOT_stimuli/rescaled_final/2061_rv.mp4	0.0	178.664057970047	0.999985933303833
11	157.84927701950073	pulse	0	t		9.0	2.5	/experiments/AOT/AOT_stimuli/rescaled_final/2061_rv.mp4	0.0	179.2475869655609	
11	158.26573395729065	movie	1		243	9.0	2.5	/experiments/AOT/AOT_stimuli/rescaled_final/2061_rv.mp4	0.0	179.66404390335083	2.4999759197235107
11	159.4493248462677	pulse	1	t		9.0	2.5	/experiments/AOT/AOT_stimuli/rescaled_final/2061_rv.mp4	0.0	180.84763479232788	
11	160.76570987701416	fix_post	2		12	9.0	2.5	/experiments/AOT/AOT_stimuli/rescaled_final/2061_rv.mp4	0.0	182.16401982307434	0.09994912147521973
12	160.86565899848938	fix_pre	0		120	10.0	2.5	/experiments/AOT/AOT_stimuli/rescaled_final/0205_fw.mp4	0.0	182.26396894454956	1.0001327991485596
12	161.04924297332764	pulse	0	t		10.0	2.5	/experiments/AOT/AOT_stimuli/rescaled_final/0205_fw.mp4	0.0	182.44755291938782	
12	161.86579179763794	movie	1		244	10.0	2.5	/experiments/AOT/AOT_stimuli/rescaled_final/0205_fw.mp4	0.0	183.26410174369812	2.499918222427368
12	162.64918279647827	pulse	1	t		10.0	2.5	/experiments/AOT/AOT_stimuli/rescaled_final/0205_fw.mp4	0.0	184.04749274253845	
12	164.24927186965942	pulse	1	t		10.0	2.5	/experiments/AOT/AOT_stimuli/rescaled_final/0205_fw.mp4	0.0	185.6475818157196	
12	164.3657100200653	fix_post	2		12	10.0	2.5	/experiments/AOT/AOT_stimuli/rescaled_final/0205_fw.mp4	0.0	185.7640199661255	0.10007500648498535
13	164.4657850265503	fix_pre	0		120	11.0	2.5	/experiments/AOT/AOT_stimuli/rescaled_final/1172_fw.mp4	0.0	185.86409497261047	0.9999699592590332
13	165.46575498580933	movie	1		243	11.0	2.5	/experiments/AOT/AOT_stimuli/rescaled_final/1172_fw.mp4	0.0	186.8640649318695	2.49996280670166
13	165.84910702705383	pulse	1	t		11.0	2.5	/experiments/AOT/AOT_stimuli/rescaled_final/1172_fw.mp4	0.0	187.247416973114	
13	167.4492108821869	pulse	1	t		11.0	2.5	/experiments/AOT/AOT_stimuli/rescaled_final/1172_fw.mp4	0.0	188.84752082824707	
13	167.965717792511	fix_post	2		12	11.0	2.5	/experiments/AOT/AOT_stimuli/rescaled_final/1172_fw.mp4	0.0	189.36402773857117	0.09956121444702148
14	168.065279006958	fix_pre	0		119	12.0	2.5	/experiments/AOT/AOT_stimuli/rescaled_final/0787_rv.mp4	0.0	189.4635889530182	0.9921519756317139
14	169.04919481277466	pulse	0	t		12.0	2.5	/experiments/AOT/AOT_stimuli/rescaled_final/0787_rv.mp4	0.0	190.44750475883484	
14	169.05743098258972	movie	1		247	12.0	2.5	/experiments/AOT/AOT_stimuli/rescaled_final/0787_rv.mp4	0.0	190.4557409286499	2.5079779624938965
14	170.64825201034546	pulse	1	t		12.0	2.5	/experiments/AOT/AOT_stimuli/rescaled_final/0787_rv.mp4	0.0	192.04656195640564	
14	171.56540894508362	fix_post	2		12	12.0	2.5	/experiments/AOT/AOT_stimuli/rescaled_final/0787_rv.mp4	0.0	192.9637188911438	0.10044193267822266
15	171.66585087776184	fix_pre	0		120	13.0	2.5	/experiments/AOT/AOT_stimuli/rescaled_final/1742_rv.mp4	0.0	193.06416082382202	0.9997429847717285
15	172.2490940093994	pulse	0	t		13.0	2.5	/experiments/AOT/AOT_stimuli/rescaled_final/1742_rv.mp4	0.0	193.6474039554596	
15	172.66559386253357	movie	1		243	13.0	2.5	/experiments/AOT/AOT_stimuli/rescaled_final/1742_rv.mp4	0.0	194.06390380859375	2.500088930130005
15	173.8493390083313	pulse	1	t		13.0	2.5	/experiments/AOT/AOT_stimuli/rescaled_final/1742_rv.mp4	0.0	195.24764895439148	
15	175.16568279266357	fix_post	2		12	13.0	2.5	/experiments/AOT/AOT_stimuli/rescaled_final/1742_rv.mp4	0.0	196.56399273872375	0.10000920295715332
16	175.26569199562073	fix_pre	0		120	14.0	2.5	blank	1.0	196.6640019416809	1.0000920295715332
16	175.4491457939148	pulse	0	t		14.0	2.5	blank	1.0	196.84745573997498	
16	176.26578402519226	movie	1		300	14.0	2.5	blank	1.0	197.66409397125244	2.4998838901519775
16	177.04923796653748	pulse	1	t		14.0	2.5	blank	1.0	198.44754791259766	
16	178.6491458415985	pulse	1	t		14.0	2.5	blank	1.0	200.0474557876587	
16	178.76566791534424	fix_post	2		12	14.0	2.5	blank	1.0	200.16397786140442	0.09998607635498047
17	178.86565399169922	fix_pre	0		120	15.0	2.5	/experiments/AOT/AOT_stimuli/rescaled_final/0914_fw.mp4	0.0	200.2639639377594	1.0000050067901611
17	179.86565899848938	movie	1		249	15.0	2.5	/experiments/AOT/AOT_stimuli/rescaled_final/0914_fw.mp4	0.0	201.26396894454956	2.5000228881835938
17	180.2488329410553	pulse	1	t		15.0	2.5	/experiments/AOT/AOT_stimuli/rescaled_final/0914_fw.mp4	0.0	201.64714288711548	
17	181.84905886650085	pulse	1	t		15.0	2.5	/experiments/AOT/AOT_stimuli/rescaled_final/0914_fw.mp4	0.0	203.24736881256104	
17	182.36568188667297	fix_post	2		12	15.0	2.5	/experiments/AOT/AOT_stimuli/rescaled_final/0914_fw.mp4	0.0	203.76399183273315	0.09991002082824707
18	182.46559190750122	fix_pre	0		119	16.0	2.5	/experiments/AOT/AOT_stimuli/rescaled_final/1581_fw.mp4	0.0	203.8639018535614	0.9916880130767822
18	183.44911289215088	pulse	0	t		16.0	2.5	/experiments/AOT/AOT_stimuli/rescaled_final/1581_fw.mp4	0.0	204.84742283821106	
18	183.457279920578	movie	1		248	16.0	2.5	/experiments/AOT/AOT_stimuli/rescaled_final/1581_fw.mp4	0.0	204.85558986663818	2.5083870887756348
18	185.0486090183258	pulse	1	t		16.0	2.5	/experiments/AOT/AOT_stimuli/rescaled_final/1581_fw.mp4	0.0	206.446918964386	
18	185.96566700935364	fix_post	2		12	16.0	2.5	/experiments/AOT/AOT_stimuli/rescaled_final/1581_fw.mp4	0.0	207.36397695541382	0.10008382797241211
19	186.06575083732605	fix_pre	0		120	17.0	2.5	/experiments/AOT/AOT_stimuli/rescaled_final/1447_rv.mp4	0.0	207.46406078338623	0.9998750686645508
19	186.64914393424988	pulse	0	t		17.0	2.5	/experiments/AOT/AOT_stimuli/rescaled_final/1447_rv.mp4	0.0	208.04745388031006	
19	187.0656259059906	movie	1		245	17.0	2.5	/experiments/AOT/AOT_stimuli/rescaled_final/1447_rv.mp4	0.0	208.46393585205078	2.499911069869995
19	188.24924993515015	pulse	1	t		17.0	2.5	/experiments/AOT/AOT_stimuli/rescaled_final/1447_rv.mp4	0.0	209.64755988121033	
19	189.5655369758606	fix_post	2		12	17.0	2.5	/experiments/AOT/AOT_stimuli/rescaled_final/1447_rv.mp4	0.0	210.96384692192078	0.10005903244018555
20	189.66559600830078	fix_pre	0		120	18.0	2.5	/experiments/AOT/AOT_stimuli/rescaled_final/0777_rv.mp4	0.0	211.06390595436096	0.9996600151062012
20	189.84911584854126	pulse	0	t		18.0	2.5	/experiments/AOT/AOT_stimuli/rescaled_final/0777_rv.mp4	0.0	211.24742579460144	
20	190.66525602340698	movie	1		244	18.0	2.5	/experiments/AOT/AOT_stimuli/rescaled_final/0777_rv.mp4	0.0	212.06356596946716	2.500337839126587
20	191.44908690452576	pulse	1	t		18.0	2.5	/experiments/AOT/AOT_stimuli/rescaled_final/0777_rv.mp4	0.0	212.84739685058594	
20	193.0496690273285	pulse	1	t		18.0	2.5	/experiments/AOT/AOT_stimuli/rescaled_final/0777_rv.mp4	0.0	214.44797897338867	
20	193.16559386253357	fix_post	2		12	18.0	2.5	/experiments/AOT/AOT_stimuli/rescaled_final/0777_rv.mp4	0.0	214.56390380859375	0.09996199607849121
21	193.26555585861206	fix_pre	0		120	19.0	2.5	blank	1.0	214.66386580467224	1.0000121593475342
21	194.2655680179596	movie	1		300	19.0	2.5	blank	1.0	215.66387796401978	2.4999778270721436
21	194.64904499053955	pulse	1	t		19.0	2.5	blank	1.0	216.04735493659973	
21	196.24902892112732	pulse	1	t		19.0	2.5	blank	1.0	217.6473388671875	
21	196.76554584503174	fix_post	2		12	19.0	2.5	blank	1.0	218.16385579109192	0.10000014305114746
22	196.86554598808289	fix_pre	0		119	20.0	2.5	/experiments/AOT/AOT_stimuli/rescaled_final/1385_fw.mp4	0.0	218.26385593414307	0.9916889667510986
22	197.8493299484253	pulse	0	t		20.0	2.5	/experiments/AOT/AOT_stimuli/rescaled_final/1385_fw.mp4	0.0	219.24763989448547	
22	197.85723495483398	movie	1		247	20.0	2.5	/experiments/AOT/AOT_stimuli/rescaled_final/1385_fw.mp4	0.0	219.25554490089417	2.508394956588745
22	199.44852900505066	pulse	1	t		20.0	2.5	/experiments/AOT/AOT_stimuli/rescaled_final/1385_fw.mp4	0.0	220.84683895111084	
22	200.36562991142273	fix_post	2		12	20.0	2.5	/experiments/AOT/AOT_stimuli/rescaled_final/1385_fw.mp4	0.0	221.7639398574829	0.09990191459655762
23	200.4655318260193	fix_pre	0		120	21.0	2.5	/experiments/AOT/AOT_stimuli/rescaled_final/0360_fw.mp4	0.0	221.86384177207947	1.0002150535583496
23	201.04907894134521	pulse	0	t		21.0	2.5	/experiments/AOT/AOT_stimuli/rescaled_final/0360_fw.mp4	0.0	222.4473888874054	
23	201.46574687957764	movie	1		246	21.0	2.5	/experiments/AOT/AOT_stimuli/rescaled_final/0360_fw.mp4	0.0	222.86405682563782	2.4998741149902344
23	202.64906787872314	pulse	1	t		21.0	2.5	/experiments/AOT/AOT_stimuli/rescaled_final/0360_fw.mp4	0.0	224.04737782478333	
23	203.96562099456787	fix_post	2		12	21.0	2.5	/experiments/AOT/AOT_stimuli/rescaled_final/0360_fw.mp4	0.0	225.36393094062805	0.09998583793640137
24	204.06560683250427	fix_pre	0		120	22.0	2.5	/experiments/AOT/AOT_stimuli/rescaled_final/1768_rv.mp4	0.0	225.46391677856445	0.9999740123748779
24	204.2490680217743	pulse	0	t		22.0	2.5	/experiments/AOT/AOT_stimuli/rescaled_final/1768_rv.mp4	0.0	225.64737796783447	
24	205.06558084487915	movie	1		244	22.0	2.5	/experiments/AOT/AOT_stimuli/rescaled_final/1768_rv.mp4	0.0	226.46389079093933	2.499964952468872
24	205.8489990234375	pulse	1	t		22.0	2.5	/experiments/AOT/AOT_stimuli/rescaled_final/1768_rv.mp4	0.0	227.24730896949768	
24	207.44730186462402	pulse	1	t		22.0	2.5	/experiments/AOT/AOT_stimuli/rescaled_final/1768_rv.mp4	0.0	228.8456118106842	
24	207.56554579734802	fix_post	2		12	22.0	2.5	/experiments/AOT/AOT_stimuli/rescaled_final/1768_rv.mp4	0.0	228.9638557434082	0.0999300479888916
25	207.6654758453369	fix_pre	0		120	23.0	2.5	/experiments/AOT/AOT_stimuli/rescaled_final/1039_rv.mp4	0.0	229.0637857913971	1.0000741481781006
25	208.66554999351501	movie	1		245	23.0	2.5	/experiments/AOT/AOT_stimuli/rescaled_final/1039_rv.mp4	0.0	230.0638599395752	2.49960994720459
25	209.04858899116516	pulse	1	t		23.0	2.5	/experiments/AOT/AOT_stimuli/rescaled_final/1039_rv.mp4	0.0	230.44689893722534	
25	210.6490409374237	pulse	1	t		23.0	2.5	/experiments/AOT/AOT_stimuli/rescaled_final/1039_rv.mp4	0.0	232.0473508834839	
25	211.1651599407196	fix_post	2		12	23.0	2.5	/experiments/AOT/AOT_stimuli/rescaled_final/1039_rv.mp4	0.0	232.56346988677979	0.10032296180725098
26	211.26548290252686	fix_pre	0		119	24.0	2.5	/experiments/AOT/AOT_stimuli/rescaled_final/0774_rv.mp4	0.0	232.66379284858704	0.9917030334472656
26	212.24902296066284	pulse	0	t		24.0	2.5	/experiments/AOT/AOT_stimuli/rescaled_final/0774_rv.mp4	0.0	233.64733290672302	
26	212.25718593597412	movie	1		246	24.0	2.5	/experiments/AOT/AOT_stimuli/rescaled_final/0774_rv.mp4	0.0	233.6554958820343	2.508241891860962
26	213.84884691238403	pulse	1	t		24.0	2.5	/experiments/AOT/AOT_stimuli/rescaled_final/0774_rv.mp4	0.0	235.2471568584442	
26	214.76542782783508	fix_post	2		12	24.0	2.5	/experiments/AOT/AOT_stimuli/rescaled_final/0774_rv.mp4	0.0	236.16373777389526	0.09960699081420898
27	214.8650348186493	fix_pre	0		120	25.0	2.5	/experiments/AOT/AOT_stimuli/rescaled_final/1462_rv.mp4	0.0	236.26334476470947	1.0003960132598877
27	215.44894289970398	pulse	0	t		25.0	2.5	/experiments/AOT/AOT_stimuli/rescaled_final/1462_rv.mp4	0.0	236.84725284576416	
27	215.86543083190918	movie	1		248	25.0	2.5	/experiments/AOT/AOT_stimuli/rescaled_final/1462_rv.mp4	0.0	237.26374077796936	2.4999799728393555
27	217.0490128993988	pulse	1	t		25.0	2.5	/experiments/AOT/AOT_stimuli/rescaled_final/1462_rv.mp4	0.0	238.44732284545898	
27	218.36541080474854	fix_post	2		12	25.0	2.5	/experiments/AOT/AOT_stimuli/rescaled_final/1462_rv.mp4	0.0	239.76372075080872	0.10003399848937988
28	218.46544480323792	fix_pre	0		120	26.0	2.5	/experiments/AOT/AOT_stimuli/rescaled_final/0709_rv.mp4	0.0	239.8637547492981	1.0000081062316895
28	218.64898490905762	pulse	0	t		26.0	2.5	/experiments/AOT/AOT_stimuli/rescaled_final/0709_rv.mp4	0.0	240.0472948551178	
28	219.4654529094696	movie	1		243	26.0	2.5	/experiments/AOT/AOT_stimuli/rescaled_final/0709_rv.mp4	0.0	240.86376285552979	2.4999771118164062
28	220.24895596504211	pulse	1	t		26.0	2.5	/experiments/AOT/AOT_stimuli/rescaled_final/0709_rv.mp4	0.0	241.6472659111023	
28	221.84719491004944	pulse	1	t		26.0	2.5	/experiments/AOT/AOT_stimuli/rescaled_final/0709_rv.mp4	0.0	243.24550485610962	
28	221.965430021286	fix_post	2		12	26.0	2.5	/experiments/AOT/AOT_stimuli/rescaled_final/0709_rv.mp4	0.0	243.3637399673462	0.10005879402160645
29	222.06548881530762	fix_pre	0		120	27.0	2.5	/experiments/AOT/AOT_stimuli/rescaled_final/1312_fw.mp4	0.0	243.4637987613678	0.999567985534668
29	223.06505680084229	movie	1		245	27.0	2.5	/experiments/AOT/AOT_stimuli/rescaled_final/1312_fw.mp4	0.0	244.46336674690247	2.5000040531158447
29	223.44853901863098	pulse	1	t		27.0	2.5	/experiments/AOT/AOT_stimuli/rescaled_final/1312_fw.mp4	0.0	244.84684896469116	
29	225.04859495162964	pulse	1	t		27.0	2.5	/experiments/AOT/AOT_stimuli/rescaled_final/1312_fw.mp4	0.0	246.44690489768982	
29	225.56506085395813	fix_post	2		12	27.0	2.5	/experiments/AOT/AOT_stimuli/rescaled_final/1312_fw.mp4	0.0	246.9633708000183	0.10037112236022949
30	225.66543197631836	fix_pre	0		119	28.0	2.5	blank	1.0	247.06374192237854	0.9916698932647705
30	226.64852380752563	pulse	0	t		28.0	2.5	blank	1.0	248.04683375358582	
30	226.65710186958313	movie	1		301	28.0	2.5	blank	1.0	248.0554118156433	2.5083510875701904
30	228.2491970062256	pulse	1	t		28.0	2.5	blank	1.0	249.64750695228577	
30	229.16545295715332	fix_post	2		12	28.0	2.5	blank	1.0	250.5637629032135	0.10003304481506348
31	229.26548600196838	fix_pre	0		120	29.0	2.5	/experiments/AOT/AOT_stimuli/rescaled_final/1297_rv.mp4	0.0	250.66379594802856	0.9999349117279053
31	229.84889197349548	pulse	0	t		29.0	2.5	/experiments/AOT/AOT_stimuli/rescaled_final/1297_rv.mp4	0.0	251.24720191955566	
31	230.2654209136963	movie	1		245	29.0	2.5	/experiments/AOT/AOT_stimuli/rescaled_final/1297_rv.mp4	0.0	251.66373085975647	2.4999709129333496
31	231.44893789291382	pulse	1	t		29.0	2.5	/experiments/AOT/AOT_stimuli/rescaled_final/1297_rv.mp4	0.0	252.847247838974	
31	232.76539182662964	fix_post	2		12	29.0	2.5	/experiments/AOT/AOT_stimuli/rescaled_final/1297_rv.mp4	0.0	254.16370177268982	0.10005807876586914
32	232.8654499053955	fix_pre	0		120	30.0	2.5	/experiments/AOT/AOT_stimuli/rescaled_final/2065_fw.mp4	0.0	254.2637598514557	0.9999139308929443
32	233.04890894889832	pulse	0	t		30.0	2.5	/experiments/AOT/AOT_stimuli/rescaled_final/2065_fw.mp4	0.0	254.4472188949585	
32	233.86536383628845	movie	1		245	30.0	2.5	/experiments/AOT/AOT_stimuli/rescaled_final/2065_fw.mp4	0.0	255.26367378234863	2.4999730587005615
32	234.64883184432983	pulse	1	t		30.0	2.5	/experiments/AOT/AOT_stimuli/rescaled_final/2065_fw.mp4	0.0	256.04714179039	
32	236.24728202819824	pulse	1	t		30.0	2.5	/experiments/AOT/AOT_stimuli/rescaled_final/2065_fw.mp4	0.0	257.6455919742584	
32	236.365336894989	fix_post	2		12	30.0	2.5	/experiments/AOT/AOT_stimuli/rescaled_final/2065_fw.mp4	0.0	257.7636468410492	0.09996891021728516
33	236.4653058052063	fix_pre	0		120	31.0	2.5	/experiments/AOT/AOT_stimuli/rescaled_final/2024_rv.mp4	0.0	257.8636157512665	1.0000641345977783
33	237.46536993980408	movie	1		245	31.0	2.5	/experiments/AOT/AOT_stimuli/rescaled_final/2024_rv.mp4	0.0	258.86367988586426	2.500032901763916
33	237.8501648902893	pulse	1	t		31.0	2.5	/experiments/AOT/AOT_stimuli/rescaled_final/2024_rv.mp4	0.0	259.2484748363495	
33	239.44894886016846	pulse	1	t		31.0	2.5	/experiments/AOT/AOT_stimuli/rescaled_final/2024_rv.mp4	0.0	260.84725880622864	
33	239.965402841568	fix_post	2		12	31.0	2.5	/experiments/AOT/AOT_stimuli/rescaled_final/2024_rv.mp4	0.0	261.3637127876282	0.09995818138122559
34	240.06536102294922	fix_pre	0		119	32.0	2.5	/experiments/AOT/AOT_stimuli/rescaled_final/0757_fw.mp4	0.0	261.4636709690094	0.9917159080505371
34	241.04883098602295	pulse	0	t		32.0	2.5	/experiments/AOT/AOT_stimuli/rescaled_final/0757_fw.mp4	0.0	262.44714093208313	
34	241.05707693099976	movie	1		246	32.0	2.5	/experiments/AOT/AOT_stimuli/rescaled_final/0757_fw.mp4	0.0	262.45538687705994	2.5083298683166504
34	242.64853882789612	pulse	1	t		32.0	2.5	/experiments/AOT/AOT_stimuli/rescaled_final/0757_fw.mp4	0.0	264.0468487739563	
34	243.5654067993164	fix_post	2		12	32.0	2.5	/experiments/AOT/AOT_stimuli/rescaled_final/0757_fw.mp4	0.0	264.9637167453766	0.09997820854187012
35	243.66538500785828	fix_pre	0		120	33.0	2.5	/experiments/AOT/AOT_stimuli/rescaled_final/1553_fw.mp4	0.0	265.06369495391846	0.9996349811553955
35	244.24882793426514	pulse	0	t		33.0	2.5	/experiments/AOT/AOT_stimuli/rescaled_final/1553_fw.mp4	0.0	265.6471378803253	
35	244.66501998901367	movie	1		244	33.0	2.5	/experiments/AOT/AOT_stimuli/rescaled_final/1553_fw.mp4	0.0	266.06332993507385	2.5002639293670654
35	245.84883093833923	pulse	1	t		33.0	2.5	/experiments/AOT/AOT_stimuli/rescaled_final/1553_fw.mp4	0.0	267.2471408843994	
35	247.16528391838074	fix_post	2		12	33.0	2.5	/experiments/AOT/AOT_stimuli/rescaled_final/1553_fw.mp4	0.0	268.5635938644409	0.10009908676147461
36	247.2653830051422	fix_pre	0		120	34.0	2.5	blank	1.0	268.6636929512024	0.9999399185180664
36	247.4488809108734	pulse	0	t		34.0	2.5	blank	1.0	268.8471908569336	
36	248.26532292366028	movie	1		300	34.0	2.5	blank	1.0	269.66363286972046	2.499967098236084
36	249.04875302314758	pulse	1	t		34.0	2.5	blank	1.0	270.44706296920776	
36	250.64877486228943	pulse	1	t		34.0	2.5	blank	1.0	272.0470848083496	
36	250.76529002189636	fix_post	2		12	34.0	2.5	blank	1.0	272.16359996795654	0.10000896453857422
37	250.86529898643494	fix_pre	0		120	35.0	2.5	/experiments/AOT/AOT_stimuli/rescaled_final/0903_rv.mp4	0.0	272.2636089324951	1.000044822692871
37	251.8653438091278	movie	1		246	35.0	2.5	/experiments/AOT/AOT_stimuli/rescaled_final/0903_rv.mp4	0.0	273.263653755188	2.5000979900360107
37	252.2484049797058	pulse	1	t		35.0	2.5	/experiments/AOT/AOT_stimuli/rescaled_final/0903_rv.mp4	0.0	273.646714925766	
37	253.8487229347229	pulse	1	t		35.0	2.5	/experiments/AOT/AOT_stimuli/rescaled_final/0903_rv.mp4	0.0	275.2470328807831	
37	254.36544179916382	fix_post	2		12	35.0	2.5	/experiments/AOT/AOT_stimuli/rescaled_final/0903_rv.mp4	0.0	275.763751745224	0.09989309310913086
38	254.46533489227295	fix_pre	0		119	36.0	2.5	/experiments/AOT/AOT_stimuli/rescaled_final/0423_rv.mp4	0.0	275.86364483833313	0.9915580749511719
38	255.44874596595764	pulse	0	t		36.0	2.5	/experiments/AOT/AOT_stimuli/rescaled_final/0423_rv.mp4	0.0	276.8470559120178	
38	255.45689296722412	movie	1		245	36.0	2.5	/experiments/AOT/AOT_stimuli/rescaled_final/0423_rv.mp4	0.0	276.8552029132843	2.50839900970459
38	257.0499029159546	pulse	1	t		36.0	2.5	/experiments/AOT/AOT_stimuli/rescaled_final/0423_rv.mp4	0.0	278.44821286201477	
38	257.9652919769287	fix_post	2		12	36.0	2.5	/experiments/AOT/AOT_stimuli/rescaled_final/0423_rv.mp4	0.0	279.3636019229889	0.1000208854675293
39	258.06531286239624	fix_pre	0		120	37.0	2.5	/experiments/AOT/AOT_stimuli/rescaled_final/0336_rv.mp4	0.0	279.4636228084564	0.9999880790710449
39	258.648729801178	pulse	0	t		37.0	2.5	/experiments/AOT/AOT_stimuli/rescaled_final/0336_rv.mp4	0.0	280.04703974723816	
39	259.0653009414673	movie	1		244	37.0	2.5	/experiments/AOT/AOT_stimuli/rescaled_final/0336_rv.mp4	0.0	280.46361088752747	2.4999799728393555
39	260.24898982048035	pulse	1	t		37.0	2.5	/experiments/AOT/AOT_stimuli/rescaled_final/0336_rv.mp4	0.0	281.6472997665405	
39	261.56528091430664	fix_post	2		12	37.0	2.5	/experiments/AOT/AOT_stimuli/rescaled_final/0336_rv.mp4	0.0	282.9635908603668	0.09988689422607422
40	261.6651678085327	fix_pre	0		120	38.0	2.5	/experiments/AOT/AOT_stimuli/rescaled_final/0404_rv.mp4	0.0	283.0634777545929	1.0000991821289062
40	261.8486399650574	pulse	0	t		38.0	2.5	/experiments/AOT/AOT_stimuli/rescaled_final/0404_rv.mp4	0.0	283.24694991111755	
40	262.6652669906616	movie	1		243	38.0	2.5	/experiments/AOT/AOT_stimuli/rescaled_final/0404_rv.mp4	0.0	284.0635769367218	2.499924898147583
40	263.4487109184265	pulse	1	t		38.0	2.5	/experiments/AOT/AOT_stimuli/rescaled_final/0404_rv.mp4	0.0	284.8470208644867	
40	265.0570869445801	pulse	1	t		38.0	2.5	/experiments/AOT/AOT_stimuli/rescaled_final/0404_rv.mp4	0.0	286.45539689064026	
40	265.1651918888092	fix_post	2		12	38.0	2.5	/experiments/AOT/AOT_stimuli/rescaled_final/0404_rv.mp4	0.0	286.5635018348694	0.10005903244018555
41	265.2652509212494	fix_pre	0		120	39.0	2.5	/experiments/AOT/AOT_stimuli/rescaled_final/0597_rv.mp4	0.0	286.66356086730957	1.0000519752502441
41	266.26530289649963	movie	1		244	39.0	2.5	/experiments/AOT/AOT_stimuli/rescaled_final/0597_rv.mp4	0.0	287.6636128425598	2.499885082244873
41	266.6482729911804	pulse	1	t		39.0	2.5	/experiments/AOT/AOT_stimuli/rescaled_final/0597_rv.mp4	0.0	288.0465829372406	
41	268.2485828399658	pulse	1	t		39.0	2.5	/experiments/AOT/AOT_stimuli/rescaled_final/0597_rv.mp4	0.0	289.646892786026	
41	268.7651879787445	fix_post	2		12	39.0	2.5	/experiments/AOT/AOT_stimuli/rescaled_final/0597_rv.mp4	0.0	290.1634979248047	0.10002493858337402
42	268.8652129173279	fix_pre	0		119	40.0	2.5	/experiments/AOT/AOT_stimuli/rescaled_final/1124_fw.mp4	0.0	290.26352286338806	0.9916269779205322
42	269.848671913147	pulse	0	t		40.0	2.5	/experiments/AOT/AOT_stimuli/rescaled_final/1124_fw.mp4	0.0	291.24698185920715	
42	269.8568398952484	movie	1		246	40.0	2.5	/experiments/AOT/AOT_stimuli/rescaled_final/1124_fw.mp4	0.0	291.2551498413086	2.5083670616149902
42	271.4480628967285	pulse	1	t		40.0	2.5	/experiments/AOT/AOT_stimuli/rescaled_final/1124_fw.mp4	0.0	292.8463728427887	
42	272.3652069568634	fix_post	2		12	40.0	2.5	/experiments/AOT/AOT_stimuli/rescaled_final/1124_fw.mp4	0.0	293.7635169029236	0.09996390342712402
43	272.4651708602905	fix_pre	0		120	41.0	2.5	blank	1.0	293.8634808063507	1.0000560283660889
43	273.0487229824066	pulse	0	t		41.0	2.5	blank	1.0	294.4470329284668	
43	273.4652268886566	movie	1		300	41.0	2.5	blank	1.0	294.8635368347168	2.5000290870666504
43	274.64860582351685	pulse	1	t		41.0	2.5	blank	1.0	296.046915769577	
43	275.96525597572327	fix_post	2		12	41.0	2.5	blank	1.0	297.36356592178345	0.09995198249816895
44	276.06520795822144	fix_pre	0		120	42.0	2.5	/experiments/AOT/AOT_stimuli/rescaled_final/1272_rv.mp4	0.0	297.4635179042816	0.9995770454406738
44	276.24865102767944	pulse	0	t		42.0	2.5	/experiments/AOT/AOT_stimuli/rescaled_final/1272_rv.mp4	0.0	297.6469609737396	
44	277.0647850036621	movie	1		244	42.0	2.5	/experiments/AOT/AOT_stimuli/rescaled_final/1272_rv.mp4	0.0	298.4630949497223	2.5004618167877197
44	277.8487949371338	pulse	1	t		42.0	2.5	/experiments/AOT/AOT_stimuli/rescaled_final/1272_rv.mp4	0.0	299.24710488319397	
44	279.44863080978394	pulse	1	t		42.0	2.5	/experiments/AOT/AOT_stimuli/rescaled_final/1272_rv.mp4	0.0	300.8469407558441	
44	279.56524682044983	fix_post	2		12	42.0	2.5	/experiments/AOT/AOT_stimuli/rescaled_final/1272_rv.mp4	0.0	300.96355676651	0.09985709190368652
45	279.6651039123535	fix_pre	0		120	43.0	2.5	/experiments/AOT/AOT_stimuli/rescaled_final/0448_fw.mp4	0.0	301.0634138584137	1.0000660419464111
45	280.6651699542999	movie	1		245	43.0	2.5	/experiments/AOT/AOT_stimuli/rescaled_final/0448_fw.mp4	0.0	302.0634799003601	2.5001208782196045
45	281.0482339859009	pulse	1	t		43.0	2.5	/experiments/AOT/AOT_stimuli/rescaled_final/0448_fw.mp4	0.0	302.44654393196106	
45	282.64824295043945	pulse	1	t		43.0	2.5	/experiments/AOT/AOT_stimuli/rescaled_final/0448_fw.mp4	0.0	304.04655289649963	
45	283.16529083251953	fix_post	2		12	43.0	2.5	/experiments/AOT/AOT_stimuli/rescaled_final/0448_fw.mp4	0.0	304.5636007785797	0.100006103515625
46	283.26529693603516	fix_pre	0		119	44.0	2.5	/experiments/AOT/AOT_stimuli/rescaled_final/0809_rv.mp4	0.0	304.66360688209534	0.9918489456176758
46	284.2489318847656	pulse	0	t		44.0	2.5	/experiments/AOT/AOT_stimuli/rescaled_final/0809_rv.mp4	0.0	305.6472418308258	
46	284.25714588165283	movie	1		244	44.0	2.5	/experiments/AOT/AOT_stimuli/rescaled_final/0809_rv.mp4	0.0	305.655455827713	2.508100986480713
46	285.8482029438019	pulse	1	t		44.0	2.5	/experiments/AOT/AOT_stimuli/rescaled_final/0809_rv.mp4	0.0	307.24651288986206	
46	286.76524686813354	fix_post	2		12	44.0	2.5	/experiments/AOT/AOT_stimuli/rescaled_final/0809_rv.mp4	0.0	308.1635568141937	0.09994912147521973
47	286.86519598960876	fix_pre	0		120	45.0	2.5	/experiments/AOT/AOT_stimuli/rescaled_final/1447_fw.mp4	0.0	308.26350593566895	0.9999668598175049
47	287.4486598968506	pulse	0	t		45.0	2.5	/experiments/AOT/AOT_stimuli/rescaled_final/1447_fw.mp4	0.0	308.84696984291077	
47	287.86516284942627	movie	1		244	45.0	2.5	/experiments/AOT/AOT_stimuli/rescaled_final/1447_fw.mp4	0.0	309.26347279548645	2.499917984008789
47	289.04869079589844	pulse	1	t		45.0	2.5	/experiments/AOT/AOT_stimuli/rescaled_final/1447_fw.mp4	0.0	310.4470007419586	
47	290.36508083343506	fix_post	2		12	45.0	2.5	/experiments/AOT/AOT_stimuli/rescaled_final/1447_fw.mp4	0.0	311.76339077949524	0.10003209114074707
48	290.4651129245758	fix_pre	0		120	46.0	2.5	/experiments/AOT/AOT_stimuli/rescaled_final/0708_rv.mp4	0.0	311.863422870636	1.0000100135803223
48	290.64856696128845	pulse	0	t		46.0	2.5	/experiments/AOT/AOT_stimuli/rescaled_final/0708_rv.mp4	0.0	312.04687690734863	
48	291.4651229381561	movie	1		246	46.0	2.5	/experiments/AOT/AOT_stimuli/rescaled_final/0708_rv.mp4	0.0	312.8634328842163	2.499572992324829
48	292.24845790863037	pulse	1	t		46.0	2.5	/experiments/AOT/AOT_stimuli/rescaled_final/0708_rv.mp4	0.0	313.64676785469055	
48	293.8471438884735	pulse	1	t		46.0	2.5	/experiments/AOT/AOT_stimuli/rescaled_final/0708_rv.mp4	0.0	315.2454538345337	
48	293.96469593048096	fix_post	2		12	46.0	2.5	/experiments/AOT/AOT_stimuli/rescaled_final/0708_rv.mp4	0.0	315.36300587654114	0.10042405128479004
49	294.06511998176575	fix_pre	0		120	47.0	2.5	blank	1.0	315.4634299278259	0.9995598793029785
49	295.0646798610687	movie	1		300	47.0	2.5	blank	1.0	316.4629898071289	2.5000250339508057
49	295.44845700263977	pulse	1	t		47.0	2.5	blank	1.0	316.84676694869995	
49	297.048485994339	pulse	1	t		47.0	2.5	blank	1.0	318.44679594039917	
49	297.56470489501953	fix_post	2		12	47.0	2.5	blank	1.0	318.9630148410797	0.10047602653503418
50	297.66518092155457	fix_pre	0		119	48.0	2.5	/experiments/AOT/AOT_stimuli/rescaled_final/0113_fw.mp4	0.0	319.06349086761475	0.9915139675140381
50	298.6484968662262	pulse	0	t		48.0	2.5	/experiments/AOT/AOT_stimuli/rescaled_final/0113_fw.mp4	0.0	320.0468068122864	
50	298.6566948890686	movie	1		246	48.0	2.5	/experiments/AOT/AOT_stimuli/rescaled_final/0113_fw.mp4	0.0	320.0550048351288	2.508362054824829
50	300.24815583229065	pulse	1	t		48.0	2.5	/experiments/AOT/AOT_stimuli/rescaled_final/0113_fw.mp4	0.0	321.64646577835083	
50	301.16505694389343	fix_post	2		12	48.0	2.5	/experiments/AOT/AOT_stimuli/rescaled_final/0113_fw.mp4	0.0	322.5633668899536	0.09999394416809082
51	301.2650508880615	fix_pre	0		120	49.0	2.5	/experiments/AOT/AOT_stimuli/rescaled_final/0360_fw.mp4	0.0	322.6633608341217	1.0000410079956055
51	301.84961199760437	pulse	0	t		49.0	2.5	/experiments/AOT/AOT_stimuli/rescaled_final/0360_fw.mp4	0.0	323.24792194366455	
51	302.26509189605713	movie	1		244	49.0	2.5	/experiments/AOT/AOT_stimuli/rescaled_final/0360_fw.mp4	0.0	323.6634018421173	2.4999589920043945
51	303.4485638141632	pulse	1	t		49.0	2.5	/experiments/AOT/AOT_stimuli/rescaled_final/0360_fw.mp4	0.0	324.8468737602234	
51	304.7650508880615	fix_post	2		12	49.0	2.5	/experiments/AOT/AOT_stimuli/rescaled_final/0360_fw.mp4	0.0	326.1633608341217	0.09995913505554199
52	304.86501002311707	fix_pre	0		120	50.0	2.5	/experiments/AOT/AOT_stimuli/rescaled_final/1517_rv.mp4	0.0	326.26331996917725	1.0000228881835938
52	305.048378944397	pulse	0	t		50.0	2.5	/experiments/AOT/AOT_stimuli/rescaled_final/1517_rv.mp4	0.0	326.44668889045715	
52	305.86503291130066	movie	1		244	50.0	2.5	/experiments/AOT/AOT_stimuli/rescaled_final/1517_rv.mp4	0.0	327.26334285736084	2.4999680519104004
52	306.6484959125519	pulse	1	t		50.0	2.5	/experiments/AOT/AOT_stimuli/rescaled_final/1517_rv.mp4	0.0	328.04680585861206	
52	308.2471477985382	pulse	1	t		50.0	2.5	/experiments/AOT/AOT_stimuli/rescaled_final/1517_rv.mp4	0.0	329.6454577445984	
52	308.36500096321106	fix_post	2		12	50.0	2.5	/experiments/AOT/AOT_stimuli/rescaled_final/1517_rv.mp4	0.0	329.76331090927124	0.09997892379760742
53	308.46497988700867	fix_pre	0		120	51.0	2.5	/experiments/AOT/AOT_stimuli/rescaled_final/1958_rv.mp4	0.0	329.86328983306885	0.9999399185180664
53	309.46491980552673	movie	1		243	51.0	2.5	/experiments/AOT/AOT_stimuli/rescaled_final/1958_rv.mp4	0.0	330.8632297515869	2.500150203704834
53	309.8482029438019	pulse	1	t		51.0	2.5	/experiments/AOT/AOT_stimuli/rescaled_final/1958_rv.mp4	0.0	331.24651288986206	
53	311.4483938217163	pulse	1	t		51.0	2.5	/experiments/AOT/AOT_stimuli/rescaled_final/1958_rv.mp4	0.0	332.8467037677765	
53	311.96507000923157	fix_post	2		12	51.0	2.5	/experiments/AOT/AOT_stimuli/rescaled_final/1958_rv.mp4	0.0	333.36337995529175	0.09992194175720215
54	312.06499195098877	fix_pre	0		119	52.0	2.5	/experiments/AOT/AOT_stimuli/rescaled_final/0738_fw.mp4	0.0	333.46330189704895	0.9916620254516602
54	313.0484809875488	pulse	0	t		52.0	2.5	/experiments/AOT/AOT_stimuli/rescaled_final/0738_fw.mp4	0.0	334.446790933609	
54	313.05665397644043	movie	1		247	52.0	2.5	/experiments/AOT/AOT_stimuli/rescaled_final/0738_fw.mp4	0.0	334.4549639225006	2.5083119869232178
54	314.6480939388275	pulse	1	t		52.0	2.5	/experiments/AOT/AOT_stimuli/rescaled_final/0738_fw.mp4	0.0	336.0464038848877	
54	315.56496596336365	fix_post	2		12	52.0	2.5	/experiments/AOT/AOT_stimuli/rescaled_final/0738_fw.mp4	0.0	336.9632759094238	0.09998488426208496
55	315.66495084762573	fix_pre	0		120	53.0	2.5	/experiments/AOT/AOT_stimuli/rescaled_final/0326_rv.mp4	0.0	337.0632607936859	1.0000951290130615
55	316.2484529018402	pulse	0	t		53.0	2.5	/experiments/AOT/AOT_stimuli/rescaled_final/0326_rv.mp4	0.0	337.6467628479004	
55	316.6650459766388	movie	1		247	53.0	2.5	/experiments/AOT/AOT_stimuli/rescaled_final/0326_rv.mp4	0.0	338.063355922699	2.4998648166656494
55	317.84844398498535	pulse	1	t		53.0	2.5	/experiments/AOT/AOT_stimuli/rescaled_final/0326_rv.mp4	0.0	339.24675393104553	
55	319.16491079330444	fix_post	2		12	53.0	2.5	/experiments/AOT/AOT_stimuli/rescaled_final/0326_rv.mp4	0.0	340.5632207393646	0.1000070571899414
56	319.2649178504944	fix_pre	0		120	54.0	2.5	/experiments/AOT/AOT_stimuli/rescaled_final/2134_rv.mp4	0.0	340.66322779655457	1.0000720024108887
56	319.4484748840332	pulse	0	t		54.0	2.5	/experiments/AOT/AOT_stimuli/rescaled_final/2134_rv.mp4	0.0	340.8467848300934	
56	320.2649898529053	movie	1		245	54.0	2.5	/experiments/AOT/AOT_stimuli/rescaled_final/2134_rv.mp4	0.0	341.66329979896545	2.499936103820801
56	321.0484428405762	pulse	1	t		54.0	2.5	/experiments/AOT/AOT_stimuli/rescaled_final/2134_rv.mp4	0.0	342.44675278663635	
56	322.64714884757996	pulse	1	t		54.0	2.5	/experiments/AOT/AOT_stimuli/rescaled_final/2134_rv.mp4	0.0	344.04545879364014	
56	322.7649259567261	fix_post	2		12	54.0	2.5	/experiments/AOT/AOT_stimuli/rescaled_final/2134_rv.mp4	0.0	344.16323590278625	0.10004997253417969
57	322.86497592926025	fix_pre	0		120	55.0	2.5	/experiments/AOT/AOT_stimuli/rescaled_final/0998_fw.mp4	0.0	344.26328587532043	0.9999790191650391
57	323.8649549484253	movie	1		244	55.0	2.5	/experiments/AOT/AOT_stimuli/rescaled_final/0998_fw.mp4	0.0	345.2632648944855	2.499566078186035
57	324.2479348182678	pulse	1	t		55.0	2.5	/experiments/AOT/AOT_stimuli/rescaled_final/0998_fw.mp4	0.0	345.646244764328	
57	325.8483898639679	pulse	1	t		55.0	2.5	/experiments/AOT/AOT_stimuli/rescaled_final/0998_fw.mp4	0.0	347.2466998100281	
57	326.3645210266113	fix_post	2		12	55.0	2.5	/experiments/AOT/AOT_stimuli/rescaled_final/0998_fw.mp4	0.0	347.7628309726715	0.10043883323669434
58	326.464959859848	fix_pre	0		119	56.0	2.5	blank	1.0	347.8632698059082	0.9916470050811768
58	327.4483799934387	pulse	0	t		56.0	2.5	blank	1.0	348.8466899394989	
58	327.4566068649292	movie	1		301	56.0	2.5	blank	1.0	348.8549168109894	2.508406162261963
58	329.0484218597412	pulse	1	t		56.0	2.5	blank	1.0	350.4467318058014	
58	329.96501302719116	fix_post	2		12	56.0	2.5	blank	1.0	351.36332297325134	0.09985589981079102
59	330.06486892700195	fix_pre	0		120	57.0	2.5	/experiments/AOT/AOT_stimuli/rescaled_final/0360_rv.mp4	0.0	351.46317887306213	0.9996099472045898
59	330.6483838558197	pulse	0	t		57.0	2.5	/experiments/AOT/AOT_stimuli/rescaled_final/0360_rv.mp4	0.0	352.0466938018799	
59	331.06447887420654	movie	1		245	57.0	2.5	/experiments/AOT/AOT_stimuli/rescaled_final/0360_rv.mp4	0.0	352.4627888202667	2.50046706199646
59	332.24837589263916	pulse	1	t		57.0	2.5	/experiments/AOT/AOT_stimuli/rescaled_final/0360_rv.mp4	0.0	353.64668583869934	
59	333.564945936203	fix_post	2		12	57.0	2.5	/experiments/AOT/AOT_stimuli/rescaled_final/0360_rv.mp4	0.0	354.9632558822632	0.09992289543151855
60	333.6648688316345	fix_pre	0		120	58.0	2.5	/experiments/AOT/AOT_stimuli/rescaled_final/1569_fw.mp4	0.0	355.0631787776947	0.9999761581420898
60	333.84832286834717	pulse	0	t		58.0	2.5	/experiments/AOT/AOT_stimuli/rescaled_final/1569_fw.mp4	0.0	355.24663281440735	
60	334.6648449897766	movie	1		246	58.0	2.5	/experiments/AOT/AOT_stimuli/rescaled_final/1569_fw.mp4	0.0	356.0631549358368	2.499703884124756
60	335.44826579093933	pulse	1	t		58.0	2.5	/experiments/AOT/AOT_stimuli/rescaled_final/1569_fw.mp4	0.0	356.8465757369995	
60	337.0480020046234	pulse	1	t		58.0	2.5	/experiments/AOT/AOT_stimuli/rescaled_final/1569_fw.mp4	0.0	358.4463119506836	
60	337.16454887390137	fix_post	2		12	58.0	2.5	/experiments/AOT/AOT_stimuli/rescaled_final/1569_fw.mp4	0.0	358.56285881996155	0.10029411315917969
61	337.26484298706055	fix_pre	0		120	59.0	2.5	/experiments/AOT/AOT_stimuli/rescaled_final/1462_fw.mp4	0.0	358.6631529331207	1.0001540184020996
61	338.26499700546265	movie	1		250	59.0	2.5	/experiments/AOT/AOT_stimuli/rescaled_final/1462_fw.mp4	0.0	359.6633069515228	2.4998528957366943
61	338.64765787124634	pulse	1	t		59.0	2.5	/experiments/AOT/AOT_stimuli/rescaled_final/1462_fw.mp4	0.0	360.0459678173065	
61	340.24864196777344	pulse	1	t		59.0	2.5	/experiments/AOT/AOT_stimuli/rescaled_final/1462_fw.mp4	0.0	361.6469519138336	
61	340.76484990119934	fix_post	2		12	59.0	2.5	/experiments/AOT/AOT_stimuli/rescaled_final/1462_fw.mp4	0.0	362.1631598472595	0.10002493858337402
62	340.8648748397827	fix_pre	0		119	60.0	2.5	/experiments/AOT/AOT_stimuli/rescaled_final/2143_rv.mp4	0.0	362.2631847858429	0.9916801452636719
62	341.8482949733734	pulse	0	t		60.0	2.5	/experiments/AOT/AOT_stimuli/rescaled_final/2143_rv.mp4	0.0	363.2466049194336	
62	341.8565549850464	movie	1		245	60.0	2.5	/experiments/AOT/AOT_stimuli/rescaled_final/2143_rv.mp4	0.0	363.25486493110657	2.508301019668579
62	343.4478249549866	pulse	1	t		60.0	2.5	/experiments/AOT/AOT_stimuli/rescaled_final/2143_rv.mp4	0.0	364.84613490104675	
62	344.36485600471497	fix_post	2		12	60.0	2.5	/experiments/AOT/AOT_stimuli/rescaled_final/2143_rv.mp4	0.0	365.76316595077515	0.1000068187713623
63	344.4648628234863	fix_pre	0		120	61.0	2.5	/experiments/AOT/AOT_stimuli/rescaled_final/0809_fw.mp4	0.0	365.8631727695465	0.999981164932251
63	345.0484700202942	pulse	0	t		61.0	2.5	/experiments/AOT/AOT_stimuli/rescaled_final/0809_fw.mp4	0.0	366.44677996635437	
63	345.4648439884186	movie	1		244	61.0	2.5	/experiments/AOT/AOT_stimuli/rescaled_final/0809_fw.mp4	0.0	366.86315393447876	2.4999449253082275
63	346.6484639644623	pulse	1	t		61.0	2.5	/experiments/AOT/AOT_stimuli/rescaled_final/0809_fw.mp4	0.0	368.04677391052246	
63	347.9647889137268	fix_post	2		12	61.0	2.5	/experiments/AOT/AOT_stimuli/rescaled_final/0809_fw.mp4	0.0	369.363098859787	0.10007190704345703
64	348.06486082077026	fix_pre	0		120	62.0	2.5	/experiments/AOT/AOT_stimuli/rescaled_final/0774_fw.mp4	0.0	369.46317076683044	0.9999370574951172
64	348.24825501441956	pulse	0	t		62.0	2.5	/experiments/AOT/AOT_stimuli/rescaled_final/0774_fw.mp4	0.0	369.64656496047974	
64	349.0647978782654	movie	1		245	62.0	2.5	/experiments/AOT/AOT_stimuli/rescaled_final/0774_fw.mp4	0.0	370.46310782432556	2.5000429153442383
64	349.8482449054718	pulse	1	t		62.0	2.5	/experiments/AOT/AOT_stimuli/rescaled_final/0774_fw.mp4	0.0	371.246554851532	
64	351.44840383529663	pulse	1	t		62.0	2.5	/experiments/AOT/AOT_stimuli/rescaled_final/0774_fw.mp4	0.0	372.8467137813568	
64	351.5648407936096	fix_post	2		12	62.0	2.5	/experiments/AOT/AOT_stimuli/rescaled_final/0774_fw.mp4	0.0	372.9631507396698	0.10001921653747559
65	351.6648600101471	fix_pre	0		120	63.0	2.5	blank	1.0	373.0631699562073	0.9999408721923828
65	352.6648008823395	movie	1		300	63.0	2.5	blank	1.0	374.06311082839966	2.5000691413879395
65	353.048232793808	pulse	1	t		63.0	2.5	blank	1.0	374.44654273986816	
65	354.64824080467224	pulse	1	t		63.0	2.5	blank	1.0	376.0465507507324	
65	355.1648700237274	fix_post	2		12	63.0	2.5	blank	1.0	376.5631799697876	0.09990882873535156
66	355.26477885246277	fix_pre	0		119	64.0	2.5	/experiments/AOT/AOT_stimuli/rescaled_final/0384_rv.mp4	0.0	376.66308879852295	0.9916350841522217
66	356.2481880187988	pulse	0	t		64.0	2.5	/experiments/AOT/AOT_stimuli/rescaled_final/0384_rv.mp4	0.0	377.646497964859	
66	356.256413936615	movie	1		245	64.0	2.5	/experiments/AOT/AOT_stimuli/rescaled_final/0384_rv.mp4	0.0	377.65472388267517	2.5082879066467285
66	357.8489270210266	pulse	1	t		64.0	2.5	/experiments/AOT/AOT_stimuli/rescaled_final/0384_rv.mp4	0.0	379.2472369670868	
66	358.7647018432617	fix_post	2		12	64.0	2.5	/experiments/AOT/AOT_stimuli/rescaled_final/0384_rv.mp4	0.0	380.1630117893219	0.10018110275268555
67	358.8648829460144	fix_pre	0		120	65.0	2.5	/experiments/AOT/AOT_stimuli/rescaled_final/1298_rv.mp4	0.0	380.2631928920746	0.9998278617858887
67	359.4482388496399	pulse	0	t		65.0	2.5	/experiments/AOT/AOT_stimuli/rescaled_final/1298_rv.mp4	0.0	380.8465487957001	
67	359.8647108078003	movie	1		244	65.0	2.5	/experiments/AOT/AOT_stimuli/rescaled_final/1298_rv.mp4	0.0	381.2630207538605	2.500030040740967
67	361.04817295074463	pulse	1	t		65.0	2.5	/experiments/AOT/AOT_stimuli/rescaled_final/1298_rv.mp4	0.0	382.4464828968048	
67	362.36474084854126	fix_post	2		12	65.0	2.5	/experiments/AOT/AOT_stimuli/rescaled_final/1298_rv.mp4	0.0	383.76305079460144	0.10004401206970215
68	362.46478486061096	fix_pre	0		120	66.0	2.5	/experiments/AOT/AOT_stimuli/rescaled_final/1083_rv.mp4	0.0	383.86309480667114	0.9999940395355225
68	362.6481750011444	pulse	0	t		66.0	2.5	/experiments/AOT/AOT_stimuli/rescaled_final/1083_rv.mp4	0.0	384.0464849472046	
68	363.4647789001465	movie	1		245	66.0	2.5	/experiments/AOT/AOT_stimuli/rescaled_final/1083_rv.mp4	0.0	384.86308884620667	2.499972105026245
68	364.2482159137726	pulse	1	t		66.0	2.5	/experiments/AOT/AOT_stimuli/rescaled_final/1083_rv.mp4	0.0	385.64652585983276	
68	365.8565537929535	pulse	1	t		66.0	2.5	/experiments/AOT/AOT_stimuli/rescaled_final/1083_rv.mp4	0.0	387.2548637390137	
68	365.96475100517273	fix_post	2		12	66.0	2.5	/experiments/AOT/AOT_stimuli/rescaled_final/1083_rv.mp4	0.0	387.3630609512329	0.09964680671691895
69	366.06439781188965	fix_pre	0		120	67.0	2.5	/experiments/AOT/AOT_stimuli/rescaled_final/0717_fw.mp4	0.0	387.46270775794983	1.0003471374511719
69	367.0647449493408	movie	1		247	67.0	2.5	/experiments/AOT/AOT_stimuli/rescaled_final/0717_fw.mp4	0.0	388.463054895401	2.500009059906006
69	367.44811487197876	pulse	1	t		67.0	2.5	/experiments/AOT/AOT_stimuli/rescaled_final/0717_fw.mp4	0.0	388.84642481803894	
69	369.04816484451294	pulse	1	t		67.0	2.5	/experiments/AOT/AOT_stimuli/rescaled_final/0717_fw.mp4	0.0	390.4464747905731	
69	369.5647540092468	fix_post	2		12	67.0	2.5	/experiments/AOT/AOT_stimuli/rescaled_final/0717_fw.mp4	0.0	390.963063955307	0.09995079040527344
70	369.6647047996521	fix_pre	0		119	68.0	2.5	/experiments/AOT/AOT_stimuli/rescaled_final/0844_fw.mp4	0.0	391.0630147457123	0.9916911125183105
70	370.6481409072876	pulse	0	t		68.0	2.5	/experiments/AOT/AOT_stimuli/rescaled_final/0844_fw.mp4	0.0	392.0464508533478	
70	370.6563959121704	movie	1		248	68.0	2.5	/experiments/AOT/AOT_stimuli/rescaled_final/0844_fw.mp4	0.0	392.0547058582306	2.5084290504455566
70	372.24781584739685	pulse	1	t		68.0	2.5	/experiments/AOT/AOT_stimuli/rescaled_final/0844_fw.mp4	0.0	393.64612579345703	
70	373.16482496261597	fix_post	2		12	68.0	2.5	/experiments/AOT/AOT_stimuli/rescaled_final/0844_fw.mp4	0.0	394.56313490867615	0.09994196891784668
71	373.2647669315338	fix_pre	0		120	69.0	2.5	blank	1.0	394.663076877594	0.9999439716339111
71	373.84837198257446	pulse	0	t		69.0	2.5	blank	1.0	395.24668192863464	
71	374.2647109031677	movie	1		300	69.0	2.5	blank	1.0	395.6630208492279	2.499958038330078
71	375.44824600219727	pulse	1	t		69.0	2.5	blank	1.0	396.84655594825745	
71	376.7646689414978	fix_post	2		12	69.0	2.5	blank	1.0	398.162978887558	0.1000070571899414
72	376.86467599868774	fix_pre	0		120	70.0	2.5	/experiments/AOT/AOT_stimuli/rescaled_final/0960_rv.mp4	0.0	398.2629859447479	0.9999408721923828
72	377.04819679260254	pulse	0	t		70.0	2.5	/experiments/AOT/AOT_stimuli/rescaled_final/0960_rv.mp4	0.0	398.4465067386627	
72	377.8646168708801	movie	1		245	70.0	2.5	/experiments/AOT/AOT_stimuli/rescaled_final/0960_rv.mp4	0.0	399.2629268169403	2.500123977661133
72	378.64818596839905	pulse	1	t		70.0	2.5	/experiments/AOT/AOT_stimuli/rescaled_final/0960_rv.mp4	0.0	400.04649591445923	
72	380.24762988090515	pulse	1	t		70.0	2.5	/experiments/AOT/AOT_stimuli/rescaled_final/0960_rv.mp4	0.0	401.64593982696533	
72	380.36474084854126	fix_post	2		12	70.0	2.5	/experiments/AOT/AOT_stimuli/rescaled_final/0960_rv.mp4	0.0	401.76305079460144	0.09991598129272461
73	380.464656829834	fix_pre	0		120	71.0	2.5	/experiments/AOT/AOT_stimuli/rescaled_final/0809_rv.mp4	0.0	401.86296677589417	0.9999780654907227
73	381.4646348953247	movie	1		243	71.0	2.5	/experiments/AOT/AOT_stimuli/rescaled_final/0809_rv.mp4	0.0	402.8629448413849	2.5001230239868164
73	381.8481090068817	pulse	1	t		71.0	2.5	/experiments/AOT/AOT_stimuli/rescaled_final/0809_rv.mp4	0.0	403.2464189529419	
73	383.4480860233307	pulse	1	t		71.0	2.5	/experiments/AOT/AOT_stimuli/rescaled_final/0809_rv.mp4	0.0	404.84639596939087	
73	383.9647579193115	fix_post	2		12	71.0	2.5	/experiments/AOT/AOT_stimuli/rescaled_final/0809_rv.mp4	0.0	405.3630678653717	0.09985995292663574
74	384.06461787223816	fix_pre	0		119	72.0	2.5	/experiments/AOT/AOT_stimuli/rescaled_final/0844_fw.mp4	0.0	405.46292781829834	0.9916529655456543
74	385.0480818748474	pulse	0	t		72.0	2.5	/experiments/AOT/AOT_stimuli/rescaled_final/0844_fw.mp4	0.0	406.4463918209076	
74	385.0562708377838	movie	1		248	72.0	2.5	/experiments/AOT/AOT_stimuli/rescaled_final/0844_fw.mp4	0.0	406.454580783844	2.5083811283111572
74	386.6475179195404	pulse	1	t		72.0	2.5	/experiments/AOT/AOT_stimuli/rescaled_final/0844_fw.mp4	0.0	408.0458278656006	
74	387.56465196609497	fix_post	2		12	72.0	2.5	/experiments/AOT/AOT_stimuli/rescaled_final/0844_fw.mp4	0.0	408.96296191215515	0.09994387626647949
75	387.66459584236145	fix_pre	0		120	73.0	2.5	/experiments/AOT/AOT_stimuli/rescaled_final/2011_rv.mp4	0.0	409.06290578842163	1.0000691413879395
75	388.24804496765137	pulse	0	t		73.0	2.5	/experiments/AOT/AOT_stimuli/rescaled_final/2011_rv.mp4	0.0	409.64635491371155	
75	388.6646649837494	movie	1		245	73.0	2.5	/experiments/AOT/AOT_stimuli/rescaled_final/2011_rv.mp4	0.0	410.06297492980957	2.4999008178710938
75	389.8482029438019	pulse	1	t		73.0	2.5	/experiments/AOT/AOT_stimuli/rescaled_final/2011_rv.mp4	0.0	411.24651288986206	
75	391.1645658016205	fix_post	2		12	73.0	2.5	/experiments/AOT/AOT_stimuli/rescaled_final/2011_rv.mp4	0.0	412.56287574768066	0.10008120536804199
76	391.2646470069885	fix_pre	0		120	74.0	2.5	/experiments/AOT/AOT_stimuli/rescaled_final/1467_rv.mp4	0.0	412.6629569530487	1.0000050067901611
76	391.44803190231323	pulse	0	t		74.0	2.5	/experiments/AOT/AOT_stimuli/rescaled_final/1467_rv.mp4	0.0	412.8463418483734	
76	392.2646520137787	movie	1		245	74.0	2.5	/experiments/AOT/AOT_stimuli/rescaled_final/1467_rv.mp4	0.0	413.66296195983887	2.500074863433838
76	393.0485110282898	pulse	1	t		74.0	2.5	/experiments/AOT/AOT_stimuli/rescaled_final/1467_rv.mp4	0.0	414.44682097435	
76	394.64779686927795	pulse	1	t		74.0	2.5	/experiments/AOT/AOT_stimuli/rescaled_final/1467_rv.mp4	0.0	416.04610681533813	
76	394.7647268772125	fix_post	2		12	74.0	2.5	/experiments/AOT/AOT_stimuli/rescaled_final/1467_rv.mp4	0.0	416.1630368232727	0.09966111183166504
77	394.8643879890442	fix_pre	0		120	75.0	2.5	blank	1.0	416.26269793510437	1.0001089572906494
77	395.86449694633484	movie	1		300	75.0	2.5	blank	1.0	417.262806892395	2.5001258850097656
77	396.24801683425903	pulse	1	t		75.0	2.5	blank	1.0	417.6463267803192	
77	397.8481378555298	pulse	1	t		75.0	2.5	blank	1.0	419.24644780158997	
77	398.3646228313446	fix_post	2		12	75.0	2.5	blank	1.0	419.7629327774048	0.09993219375610352
78	398.4645550251007	fix_pre	0		119	76.0	2.5	/experiments/AOT/AOT_stimuli/rescaled_final/0205_fw.mp4	0.0	419.8628649711609	0.9917140007019043
78	399.44813799858093	pulse	0	t		76.0	2.5	/experiments/AOT/AOT_stimuli/rescaled_final/0205_fw.mp4	0.0	420.8464479446411	
78	399.4562690258026	movie	1		246	76.0	2.5	/experiments/AOT/AOT_stimuli/rescaled_final/0205_fw.mp4	0.0	420.8545789718628	2.5084519386291504
78	401.04751992225647	pulse	1	t		76.0	2.5	/experiments/AOT/AOT_stimuli/rescaled_final/0205_fw.mp4	0.0	422.44582986831665	
78	401.96472096443176	fix_post	2		12	76.0	2.5	/experiments/AOT/AOT_stimuli/rescaled_final/0205_fw.mp4	0.0	423.36303091049194	0.09994697570800781
79	402.06466794013977	fix_pre	0		120	77.0	2.5	/experiments/AOT/AOT_stimuli/rescaled_final/0694_fw.mp4	0.0	423.46297788619995	0.9998970031738281
79	402.6480038166046	pulse	0	t		77.0	2.5	/experiments/AOT/AOT_stimuli/rescaled_final/0694_fw.mp4	0.0	424.0463137626648	
79	403.0645649433136	movie	1		245	77.0	2.5	/experiments/AOT/AOT_stimuli/rescaled_final/0694_fw.mp4	0.0	424.4628748893738	2.4995429515838623
79	404.24796891212463	pulse	1	t		77.0	2.5	/experiments/AOT/AOT_stimuli/rescaled_final/0694_fw.mp4	0.0	425.6462788581848	
79	405.56410789489746	fix_post	2		12	77.0	2.5	/experiments/AOT/AOT_stimuli/rescaled_final/0694_fw.mp4	0.0	426.96241784095764	0.10039210319519043
80	405.66449999809265	fix_pre	0		120	78.0	2.5	/experiments/AOT/AOT_stimuli/rescaled_final/0274_rv.mp4	0.0	427.06280994415283	1.0000488758087158
80	405.8479390144348	pulse	0	t		78.0	2.5	/experiments/AOT/AOT_stimuli/rescaled_final/0274_rv.mp4	0.0	427.246248960495	
80	406.66454887390137	movie	1		245	78.0	2.5	/experiments/AOT/AOT_stimuli/rescaled_final/0274_rv.mp4	0.0	428.06285881996155	2.5000219345092773
80	407.4479329586029	pulse	1	t		78.0	2.5	/experiments/AOT/AOT_stimuli/rescaled_final/0274_rv.mp4	0.0	428.8462429046631	
80	409.04842591285706	pulse	1	t		78.0	2.5	/experiments/AOT/AOT_stimuli/rescaled_final/0274_rv.mp4	0.0	430.44673585891724	
80	409.16457080841064	fix_post	2		12	78.0	2.5	/experiments/AOT/AOT_stimuli/rescaled_final/0274_rv.mp4	0.0	430.5628807544708	0.09995102882385254
81	409.2645218372345	fix_pre	0		120	79.0	2.5	/experiments/AOT/AOT_stimuli/rescaled_final/0694_rv.mp4	0.0	430.6628317832947	0.9999330043792725
81	410.26445484161377	movie	1		244	79.0	2.5	/experiments/AOT/AOT_stimuli/rescaled_final/0694_rv.mp4	0.0	431.66276478767395	2.500077962875366
81	410.6476318836212	pulse	1	t		79.0	2.5	/experiments/AOT/AOT_stimuli/rescaled_final/0694_rv.mp4	0.0	432.0459418296814	
81	412.2479178905487	pulse	1	t		79.0	2.5	/experiments/AOT/AOT_stimuli/rescaled_final/0694_rv.mp4	0.0	433.6462278366089	
81	412.76453280448914	fix_post	2		12	79.0	2.5	/experiments/AOT/AOT_stimuli/rescaled_final/0694_rv.mp4	0.0	434.1628427505493	0.10001420974731445
82	412.86454701423645	fix_pre	0		119	80.0	2.5	/experiments/AOT/AOT_stimuli/rescaled_final/0064_rv.mp4	0.0	434.26285696029663	0.9916298389434814
82	413.84800481796265	pulse	0	t		80.0	2.5	/experiments/AOT/AOT_stimuli/rescaled_final/0064_rv.mp4	0.0	435.2463147640228	
82	413.85617685317993	movie	1		247	80.0	2.5	/experiments/AOT/AOT_stimuli/rescaled_final/0064_rv.mp4	0.0	435.2544867992401	2.507946014404297
82	415.44759488105774	pulse	1	t		80.0	2.5	/experiments/AOT/AOT_stimuli/rescaled_final/0064_rv.mp4	0.0	436.8459048271179	
82	416.36412286758423	fix_post	2		12	80.0	2.5	/experiments/AOT/AOT_stimuli/rescaled_final/0064_rv.mp4	0.0	437.7624328136444	0.10038995742797852
83	416.4645128250122	fix_pre	0		120	81.0	2.5	/experiments/AOT/AOT_stimuli/rescaled_final/1920_rv.mp4	0.0	437.8628227710724	0.9999911785125732
83	417.04795598983765	pulse	0	t		81.0	2.5	/experiments/AOT/AOT_stimuli/rescaled_final/1920_rv.mp4	0.0	438.4462659358978	
83	417.4645040035248	movie	1		243	81.0	2.5	/experiments/AOT/AOT_stimuli/rescaled_final/1920_rv.mp4	0.0	438.86281394958496	2.500037908554077
83	418.6479969024658	pulse	1	t		81.0	2.5	/experiments/AOT/AOT_stimuli/rescaled_final/1920_rv.mp4	0.0	440.046306848526	
83	419.96454191207886	fix_post	2		12	81.0	2.5	/experiments/AOT/AOT_stimuli/rescaled_final/1920_rv.mp4	0.0	441.36285185813904	0.10002303123474121
84	420.0645649433136	fix_pre	0		120	82.0	2.5	/experiments/AOT/AOT_stimuli/rescaled_final/2176_fw.mp4	0.0	441.4628748893738	0.9999170303344727
84	420.2478859424591	pulse	0	t		82.0	2.5	/experiments/AOT/AOT_stimuli/rescaled_final/2176_fw.mp4	0.0	441.6461958885193	
84	421.06448197364807	movie	1		245	82.0	2.5	/experiments/AOT/AOT_stimuli/rescaled_final/2176_fw.mp4	0.0	442.46279191970825	2.499608039855957
84	421.8479609489441	pulse	1	t		82.0	2.5	/experiments/AOT/AOT_stimuli/rescaled_final/2176_fw.mp4	0.0	443.2462708950043	
84	423.4479629993439	pulse	1	t		82.0	2.5	/experiments/AOT/AOT_stimuli/rescaled_final/2176_fw.mp4	0.0	444.84627294540405	
84	423.564090013504	fix_post	2		12	82.0	2.5	/experiments/AOT/AOT_stimuli/rescaled_final/2176_fw.mp4	0.0	444.9623999595642	0.10044288635253906
85	423.66453289985657	fix_pre	0		120	83.0	2.5	blank	1.0	445.06284284591675	0.9999220371246338
85	424.6644549369812	movie	1		300	83.0	2.5	blank	1.0	446.0627648830414	2.499985933303833
85	425.04788088798523	pulse	1	t		83.0	2.5	blank	1.0	446.4461908340454	
85	426.6478338241577	pulse	1	t		83.0	2.5	blank	1.0	448.0461437702179	
85	427.16444087028503	fix_post	2		12	83.0	2.5	blank	1.0	448.5627508163452	0.10010313987731934
87	427.26454401016235	stim	0		1716					448.66285395622253	14.29988980293274
87	428.2478070259094	pulse	0	t						449.6461169719696	
87	429.84789395332336	pulse	0	t						451.24620389938354	
87	431.44790291786194	pulse	0	t						452.8462128639221	
87	433.04790782928467	pulse	0	t						454.44621777534485	
87	434.647864818573	pulse	0	t						456.0461747646332	
87	436.24781584739685	pulse	0	t						457.64612579345703	
87	437.8478548526764	pulse	0	t						459.2461647987366	
87	439.4478828907013	pulse	0	t						460.8461928367615	
87	441.04792284965515	pulse	0	t						462.44623279571533	
