trial_nr	onset	event_type	phase	response	nr_frames	movie_index	movie_duration	movie_file	blank	onset_abs	duration
0	0.15822601318359375	stim	0		160					22.372525930404663	1.3333091735839844
0	1.4835760593414307	response	0	space						23.6978759765625	
1	1.4915351867675781	stim	0		139748					23.705835103988647	1164.5693278312683
1	1166.0454890727997	pulse	0	t						1188.2597889900208	
1	1166.060863018036	stim	1		1717					1188.275162935257	14.308348178863525
1	1167.6444380283356	pulse	1	t						1189.8587379455566	
1	1169.2443540096283	pulse	1	t						1191.4586539268494	
1	1170.844356060028	pulse	1	t						1193.0586559772491	
1	1172.4443891048431	pulse	1	t						1194.6586890220642	
1	1174.0452330112457	pulse	1	t						1196.2595329284668	
1	1175.645190000534	pulse	1	t						1197.8594899177551	
1	1177.2450380325317	pulse	1	t						1199.4593379497528	
1	1178.8450391292572	pulse	1	t						1201.0593390464783	
2	1180.3692111968994	fix_pre	0		11	0.0	2.5	/experiments/AOT/AOT_stimuli/rescaled_final/0447_rv.mp4	0.0	1202.5835111141205	0.0995028018951416
2	1180.4449961185455	pulse	0	t		0.0	2.5	/experiments/AOT/AOT_stimuli/rescaled_final/0447_rv.mp4	0.0	1202.6592960357666	
2	1180.4687139987946	movie	1		242	0.0	2.5	/experiments/AOT/AOT_stimuli/rescaled_final/0447_rv.mp4	0.0	1202.6830139160156	2.5004031658172607
2	1182.0525431632996	pulse	1	t		0.0	2.5	/experiments/AOT/AOT_stimuli/rescaled_final/0447_rv.mp4	0.0	1204.2668430805206	
2	1182.9691171646118	fix_post	2		12	0.0	2.5	/experiments/AOT/AOT_stimuli/rescaled_final/0447_rv.mp4	0.0	1205.1834170818329	0.10001897811889648
3	1183.0691361427307	fix_pre	0		120	1.0	2.5	/experiments/AOT/AOT_stimuli/rescaled_final/1426_rv.mp4	0.0	1205.2834360599518	1.0000410079956055
3	1183.644245147705	pulse	0	t		1.0	2.5	/experiments/AOT/AOT_stimuli/rescaled_final/1426_rv.mp4	0.0	1205.8585450649261	
3	1184.0691771507263	movie	1		245	1.0	2.5	/experiments/AOT/AOT_stimuli/rescaled_final/1426_rv.mp4	0.0	1206.2834770679474	2.499842882156372
3	1185.252613067627	pulse	1	t		1.0	2.5	/experiments/AOT/AOT_stimuli/rescaled_final/1426_rv.mp4	0.0	1207.466912984848	
3	1186.5690200328827	fix_post	2		12	1.0	2.5	/experiments/AOT/AOT_stimuli/rescaled_final/1426_rv.mp4	0.0	1208.7833199501038	0.10004115104675293
4	1186.6690611839294	fix_pre	0		120	2.0	2.5	/experiments/AOT/AOT_stimuli/rescaled_final/1655_fw.mp4	0.0	1208.8833611011505	0.9996609687805176
4	1186.8442511558533	pulse	0	t		2.0	2.5	/experiments/AOT/AOT_stimuli/rescaled_final/1655_fw.mp4	0.0	1209.0585510730743	
4	1187.66872215271	movie	1		242	2.0	2.5	/experiments/AOT/AOT_stimuli/rescaled_final/1655_fw.mp4	0.0	1209.883022069931	2.5003409385681152
4	1188.4441380500793	pulse	1	t		2.0	2.5	/experiments/AOT/AOT_stimuli/rescaled_final/1655_fw.mp4	0.0	1210.6584379673004	
4	1190.050789117813	pulse	1	t		2.0	2.5	/experiments/AOT/AOT_stimuli/rescaled_final/1655_fw.mp4	0.0	1212.2650890350342	
4	1190.169063091278	fix_post	2		12	2.0	2.5	/experiments/AOT/AOT_stimuli/rescaled_final/1655_fw.mp4	0.0	1212.3833630084991	0.10001206398010254
5	1190.2690751552582	fix_pre	0		120	3.0	2.5	/experiments/AOT/AOT_stimuli/rescaled_final/1851_fw.mp4	0.0	1212.4833750724792	1.000014066696167
5	1191.2690892219543	movie	1		244	3.0	2.5	/experiments/AOT/AOT_stimuli/rescaled_final/1851_fw.mp4	0.0	1213.4833891391754	2.4996178150177
5	1191.6519570350647	pulse	1	t		3.0	2.5	/experiments/AOT/AOT_stimuli/rescaled_final/1851_fw.mp4	0.0	1213.8662569522858	
5	1193.2451751232147	pulse	1	t		3.0	2.5	/experiments/AOT/AOT_stimuli/rescaled_final/1851_fw.mp4	0.0	1215.4594750404358	
5	1193.768707036972	fix_post	2		12	3.0	2.5	/experiments/AOT/AOT_stimuli/rescaled_final/1851_fw.mp4	0.0	1215.9830069541931	0.1003570556640625
6	1193.869064092636	fix_pre	0		119	4.0	2.5	/experiments/AOT/AOT_stimuli/rescaled_final/0820_rv.mp4	0.0	1216.0833640098572	0.9916861057281494
6	1194.8450779914856	pulse	0	t		4.0	2.5	/experiments/AOT/AOT_stimuli/rescaled_final/0820_rv.mp4	0.0	1217.0593779087067	
6	1194.8607501983643	movie	1		243	4.0	2.5	/experiments/AOT/AOT_stimuli/rescaled_final/0820_rv.mp4	0.0	1217.0750501155853	2.508410930633545
6	1196.4522421360016	pulse	1	t		4.0	2.5	/experiments/AOT/AOT_stimuli/rescaled_final/0820_rv.mp4	0.0	1218.6665420532227	
6	1197.3691611289978	fix_post	2		12	4.0	2.5	/experiments/AOT/AOT_stimuli/rescaled_final/0820_rv.mp4	0.0	1219.5834610462189	0.10004091262817383
7	1197.469202041626	fix_pre	0		120	5.0	2.5	/experiments/AOT/AOT_stimuli/rescaled_final/1655_rv.mp4	0.0	1219.683501958847	0.9998841285705566
7	1198.045044183731	pulse	0	t		5.0	2.5	/experiments/AOT/AOT_stimuli/rescaled_final/1655_rv.mp4	0.0	1220.2593441009521	
7	1198.4690861701965	movie	1		242	5.0	2.5	/experiments/AOT/AOT_stimuli/rescaled_final/1655_rv.mp4	0.0	1220.6833860874176	2.5001139640808105
7	1199.6452090740204	pulse	1	t		5.0	2.5	/experiments/AOT/AOT_stimuli/rescaled_final/1655_rv.mp4	0.0	1221.8595089912415	
7	1200.9692001342773	fix_post	2		12	5.0	2.5	/experiments/AOT/AOT_stimuli/rescaled_final/1655_rv.mp4	0.0	1223.1835000514984	0.09992504119873047
8	1201.069125175476	fix_pre	0		120	6.0	2.5	/experiments/AOT/AOT_stimuli/rescaled_final/1922_rv.mp4	0.0	1223.2834250926971	1.0000078678131104
8	1201.2450530529022	pulse	0	t		6.0	2.5	/experiments/AOT/AOT_stimuli/rescaled_final/1922_rv.mp4	0.0	1223.4593529701233	
8	1202.0691330432892	movie	1		244	6.0	2.5	/experiments/AOT/AOT_stimuli/rescaled_final/1922_rv.mp4	0.0	1224.2834329605103	2.499951124191284
8	1202.8442192077637	pulse	1	t		6.0	2.5	/experiments/AOT/AOT_stimuli/rescaled_final/1922_rv.mp4	0.0	1225.0585191249847	
8	1204.4502620697021	pulse	1	t		6.0	2.5	/experiments/AOT/AOT_stimuli/rescaled_final/1922_rv.mp4	0.0	1226.6645619869232	
8	1204.5690841674805	fix_post	2		12	6.0	2.5	/experiments/AOT/AOT_stimuli/rescaled_final/1922_rv.mp4	0.0	1226.7833840847015	0.0999598503112793
9	1204.6690440177917	fix_pre	0		120	7.0	2.5	blank	1.0	1226.8833439350128	0.9998891353607178
9	1205.6689331531525	movie	1		300	7.0	2.5	blank	1.0	1227.8832330703735	2.5000970363616943
9	1206.0453910827637	pulse	1	t		7.0	2.5	blank	1.0	1228.2596909999847	
9	1207.6451661586761	pulse	1	t		7.0	2.5	blank	1.0	1229.8594660758972	
9	1208.1690301895142	fix_post	2		12	7.0	2.5	blank	1.0	1230.3833301067352	0.10001492500305176
10	1208.2690451145172	fix_pre	0		119	8.0	2.5	/experiments/AOT/AOT_stimuli/rescaled_final/2007_fw.mp4	0.0	1230.4833450317383	0.9916698932647705
10	1209.2450890541077	pulse	0	t		8.0	2.5	/experiments/AOT/AOT_stimuli/rescaled_final/2007_fw.mp4	0.0	1231.4593889713287	
10	1209.260715007782	movie	1		244	8.0	2.5	/experiments/AOT/AOT_stimuli/rescaled_final/2007_fw.mp4	0.0	1231.475014925003	2.508287191390991
10	1210.8520431518555	pulse	1	t		8.0	2.5	/experiments/AOT/AOT_stimuli/rescaled_final/2007_fw.mp4	0.0	1233.0663430690765	
10	1211.769002199173	fix_post	2		12	8.0	2.5	/experiments/AOT/AOT_stimuli/rescaled_final/2007_fw.mp4	0.0	1233.983302116394	0.09990286827087402
11	1211.8689050674438	fix_pre	0		120	9.0	2.5	/experiments/AOT/AOT_stimuli/rescaled_final/1574_rv.mp4	0.0	1234.083204984665	1.0001111030578613
11	1212.44487118721	pulse	0	t		9.0	2.5	/experiments/AOT/AOT_stimuli/rescaled_final/1574_rv.mp4	0.0	1234.6591711044312	
11	1212.8690161705017	movie	1		243	9.0	2.5	/experiments/AOT/AOT_stimuli/rescaled_final/1574_rv.mp4	0.0	1235.0833160877228	2.499936819076538
11	1214.052621126175	pulse	1	t		9.0	2.5	/experiments/AOT/AOT_stimuli/rescaled_final/1574_rv.mp4	0.0	1236.266921043396	
11	1215.3689529895782	fix_post	2		12	9.0	2.5	/experiments/AOT/AOT_stimuli/rescaled_final/1574_rv.mp4	0.0	1237.5832529067993	0.1000220775604248
12	1215.4689750671387	fix_pre	0		120	10.0	2.5	/experiments/AOT/AOT_stimuli/rescaled_final/1308_rv.mp4	0.0	1237.6832749843597	0.9999310970306396
12	1215.6448440551758	pulse	0	t		10.0	2.5	/experiments/AOT/AOT_stimuli/rescaled_final/1308_rv.mp4	0.0	1237.8591439723969	
12	1216.4689061641693	movie	1		245	10.0	2.5	/experiments/AOT/AOT_stimuli/rescaled_final/1308_rv.mp4	0.0	1238.6832060813904	2.500016927719116
12	1217.2449600696564	pulse	1	t		10.0	2.5	/experiments/AOT/AOT_stimuli/rescaled_final/1308_rv.mp4	0.0	1239.4592599868774	
12	1218.8511900901794	pulse	1	t		10.0	2.5	/experiments/AOT/AOT_stimuli/rescaled_final/1308_rv.mp4	0.0	1241.0654900074005	
12	1218.9689230918884	fix_post	2		12	10.0	2.5	/experiments/AOT/AOT_stimuli/rescaled_final/1308_rv.mp4	0.0	1241.1832230091095	0.09996891021728516
13	1219.0688920021057	fix_pre	0		120	11.0	2.5	/experiments/AOT/AOT_stimuli/rescaled_final/1740_rv.mp4	0.0	1241.2831919193268	1.0000591278076172
13	1220.0689511299133	movie	1		244	11.0	2.5	/experiments/AOT/AOT_stimuli/rescaled_final/1740_rv.mp4	0.0	1242.2832510471344	2.5000388622283936
13	1220.4520041942596	pulse	1	t		11.0	2.5	/experiments/AOT/AOT_stimuli/rescaled_final/1740_rv.mp4	0.0	1242.6663041114807	
13	1222.0451250076294	pulse	1	t		11.0	2.5	/experiments/AOT/AOT_stimuli/rescaled_final/1740_rv.mp4	0.0	1244.2594249248505	
13	1222.5689899921417	fix_post	2		12	11.0	2.5	/experiments/AOT/AOT_stimuli/rescaled_final/1740_rv.mp4	0.0	1244.7832899093628	0.09999799728393555
14	1222.6689879894257	fix_pre	0		119	12.0	2.5	/experiments/AOT/AOT_stimuli/rescaled_final/2104_rv.mp4	0.0	1244.8832879066467	0.9916732311248779
14	1223.6449391841888	pulse	0	t		12.0	2.5	/experiments/AOT/AOT_stimuli/rescaled_final/2104_rv.mp4	0.0	1245.85923910141	
14	1223.6606612205505	movie	1		244	12.0	2.5	/experiments/AOT/AOT_stimuli/rescaled_final/2104_rv.mp4	0.0	1245.8749611377716	2.5082178115844727
14	1225.253713130951	pulse	1	t		12.0	2.5	/experiments/AOT/AOT_stimuli/rescaled_final/2104_rv.mp4	0.0	1247.468013048172	
14	1226.168879032135	fix_post	2		12	12.0	2.5	/experiments/AOT/AOT_stimuli/rescaled_final/2104_rv.mp4	0.0	1248.383178949356	0.1000051498413086
15	1226.2688841819763	fix_pre	0		120	13.0	2.5	/experiments/AOT/AOT_stimuli/rescaled_final/1769_fw.mp4	0.0	1248.4831840991974	1.0000109672546387
15	1226.84494805336	pulse	0	t		13.0	2.5	/experiments/AOT/AOT_stimuli/rescaled_final/1769_fw.mp4	0.0	1249.059247970581	
15	1227.268895149231	movie	1		243	13.0	2.5	/experiments/AOT/AOT_stimuli/rescaled_final/1769_fw.mp4	0.0	1249.483195066452	2.500063896179199
15	1228.4524760246277	pulse	1	t		13.0	2.5	/experiments/AOT/AOT_stimuli/rescaled_final/1769_fw.mp4	0.0	1250.6667759418488	
15	1229.7689590454102	fix_post	2		12	13.0	2.5	/experiments/AOT/AOT_stimuli/rescaled_final/1769_fw.mp4	0.0	1251.9832589626312	0.0999300479888916
16	1229.868889093399	fix_pre	0		120	14.0	2.5	blank	1.0	1252.0831890106201	0.9996299743652344
16	1230.0450031757355	pulse	0	t		14.0	2.5	blank	1.0	1252.2593030929565	
16	1230.8685190677643	movie	1		300	14.0	2.5	blank	1.0	1253.0828189849854	2.4999570846557617
16	1231.644986152649	pulse	1	t		14.0	2.5	blank	1.0	1253.85928606987	
16	1233.2449860572815	pulse	1	t		14.0	2.5	blank	1.0	1255.4592859745026	
16	1233.36847615242	fix_post	2		12	14.0	2.5	blank	1.0	1255.582776069641	0.1004939079284668
17	1233.4689700603485	fix_pre	0		120	15.0	2.5	/experiments/AOT/AOT_stimuli/rescaled_final/2097_fw.mp4	0.0	1255.6832699775696	1.0000300407409668
17	1234.4690001010895	movie	1		242	15.0	2.5	/experiments/AOT/AOT_stimuli/rescaled_final/2097_fw.mp4	0.0	1256.6833000183105	2.499919891357422
17	1234.8523151874542	pulse	1	t		15.0	2.5	/experiments/AOT/AOT_stimuli/rescaled_final/2097_fw.mp4	0.0	1257.0666151046753	
17	1236.4449651241302	pulse	1	t		15.0	2.5	/experiments/AOT/AOT_stimuli/rescaled_final/2097_fw.mp4	0.0	1258.6592650413513	
17	1236.968919992447	fix_post	2		12	15.0	2.5	/experiments/AOT/AOT_stimuli/rescaled_final/2097_fw.mp4	0.0	1259.183219909668	0.09997200965881348
18	1237.0688920021057	fix_pre	0		119	16.0	2.5	/experiments/AOT/AOT_stimuli/rescaled_final/1471_rv.mp4	0.0	1259.2831919193268	0.9916272163391113
18	1238.0524101257324	pulse	0	t		16.0	2.5	/experiments/AOT/AOT_stimuli/rescaled_final/1471_rv.mp4	0.0	1260.2667100429535	
18	1238.0605192184448	movie	1		243	16.0	2.5	/experiments/AOT/AOT_stimuli/rescaled_final/1471_rv.mp4	0.0	1260.274819135666	2.5083417892456055
18	1239.651943206787	pulse	1	t		16.0	2.5	/experiments/AOT/AOT_stimuli/rescaled_final/1471_rv.mp4	0.0	1261.8662431240082	
18	1240.5688610076904	fix_post	2		12	16.0	2.5	/experiments/AOT/AOT_stimuli/rescaled_final/1471_rv.mp4	0.0	1262.7831609249115	0.10001301765441895
19	1240.6688740253448	fix_pre	0		120	17.0	2.5	/experiments/AOT/AOT_stimuli/rescaled_final/1395_rv.mp4	0.0	1262.883173942566	0.9999439716339111
19	1241.2448530197144	pulse	0	t		17.0	2.5	/experiments/AOT/AOT_stimuli/rescaled_final/1395_rv.mp4	0.0	1263.4591529369354	
19	1241.6688179969788	movie	1		244	17.0	2.5	/experiments/AOT/AOT_stimuli/rescaled_final/1395_rv.mp4	0.0	1263.8831179141998	2.4996511936187744
19	1242.8454880714417	pulse	1	t		17.0	2.5	/experiments/AOT/AOT_stimuli/rescaled_final/1395_rv.mp4	0.0	1265.0597879886627	
19	1244.1684691905975	fix_post	2		12	17.0	2.5	/experiments/AOT/AOT_stimuli/rescaled_final/1395_rv.mp4	0.0	1266.3827691078186	0.10036301612854004
20	1244.268832206726	fix_pre	0		120	18.0	2.5	/experiments/AOT/AOT_stimuli/rescaled_final/0028_fw.mp4	0.0	1266.4831321239471	1.000032901763916
20	1244.4449400901794	pulse	0	t		18.0	2.5	/experiments/AOT/AOT_stimuli/rescaled_final/0028_fw.mp4	0.0	1266.6592400074005	
20	1245.26886510849	movie	1		242	18.0	2.5	/experiments/AOT/AOT_stimuli/rescaled_final/0028_fw.mp4	0.0	1267.483165025711	2.4994819164276123
20	1246.0450570583344	pulse	1	t		18.0	2.5	/experiments/AOT/AOT_stimuli/rescaled_final/0028_fw.mp4	0.0	1268.2593569755554	
20	1247.6507120132446	pulse	1	t		18.0	2.5	/experiments/AOT/AOT_stimuli/rescaled_final/0028_fw.mp4	0.0	1269.8650119304657	
20	1247.7683470249176	fix_post	2		12	18.0	2.5	/experiments/AOT/AOT_stimuli/rescaled_final/0028_fw.mp4	0.0	1269.9826469421387	0.10049605369567871
21	1247.8688430786133	fix_pre	0		120	19.0	2.5	/experiments/AOT/AOT_stimuli/rescaled_final/1235_rv.mp4	0.0	1270.0831429958344	0.9999289512634277
21	1248.8687720298767	movie	1		244	19.0	2.5	/experiments/AOT/AOT_stimuli/rescaled_final/1235_rv.mp4	0.0	1271.0830719470978	2.500068187713623
21	1249.2536180019379	pulse	1	t		19.0	2.5	/experiments/AOT/AOT_stimuli/rescaled_final/1235_rv.mp4	0.0	1271.467917919159	
21	1250.844871044159	pulse	1	t		19.0	2.5	/experiments/AOT/AOT_stimuli/rescaled_final/1235_rv.mp4	0.0	1273.05917096138	
21	1251.3688402175903	fix_post	2		12	19.0	2.5	/experiments/AOT/AOT_stimuli/rescaled_final/1235_rv.mp4	0.0	1273.5831401348114	0.10002589225769043
22	1251.468866109848	fix_pre	0		119	20.0	2.5	/experiments/AOT/AOT_stimuli/rescaled_final/1278_fw.mp4	0.0	1273.683166027069	0.9915580749511719
22	1252.4446640014648	pulse	0	t		20.0	2.5	/experiments/AOT/AOT_stimuli/rescaled_final/1278_fw.mp4	0.0	1274.658963918686	
22	1252.4604241847992	movie	1		244	20.0	2.5	/experiments/AOT/AOT_stimuli/rescaled_final/1278_fw.mp4	0.0	1274.6747241020203	2.508352041244507
22	1254.051856994629	pulse	1	t		20.0	2.5	/experiments/AOT/AOT_stimuli/rescaled_final/1278_fw.mp4	0.0	1276.26615691185	
22	1254.9687762260437	fix_post	2		12	20.0	2.5	/experiments/AOT/AOT_stimuli/rescaled_final/1278_fw.mp4	0.0	1277.1830761432648	0.09999489784240723
23	1255.068771123886	fix_pre	0		120	21.0	2.5	blank	1.0	1277.2830710411072	0.999953031539917
23	1255.6521940231323	pulse	0	t		21.0	2.5	blank	1.0	1277.8664939403534	
23	1256.068724155426	movie	1		300	21.0	2.5	blank	1.0	1278.283024072647	2.50006103515625
23	1257.252454996109	pulse	1	t		21.0	2.5	blank	1.0	1279.46675491333	
23	1258.5687851905823	fix_post	2		12	21.0	2.5	blank	1.0	1280.7830851078033	0.09997081756591797
24	1258.6687560081482	fix_pre	0		120	22.0	2.5	/experiments/AOT/AOT_stimuli/rescaled_final/0334_fw.mp4	0.0	1280.8830559253693	0.99965500831604
24	1258.8448572158813	pulse	0	t		22.0	2.5	/experiments/AOT/AOT_stimuli/rescaled_final/0334_fw.mp4	0.0	1281.0591571331024	
24	1259.6684110164642	movie	1		244	22.0	2.5	/experiments/AOT/AOT_stimuli/rescaled_final/0334_fw.mp4	0.0	1281.8827109336853	2.500153064727783
24	1260.4517931938171	pulse	1	t		22.0	2.5	/experiments/AOT/AOT_stimuli/rescaled_final/0334_fw.mp4	0.0	1282.6660931110382	
24	1262.0485050678253	pulse	1	t		22.0	2.5	/experiments/AOT/AOT_stimuli/rescaled_final/0334_fw.mp4	0.0	1284.2628049850464	
24	1262.168564081192	fix_post	2		12	22.0	2.5	/experiments/AOT/AOT_stimuli/rescaled_final/0334_fw.mp4	0.0	1284.382863998413	0.10005998611450195
25	1262.2686240673065	fix_pre	0		120	23.0	2.5	/experiments/AOT/AOT_stimuli/rescaled_final/1844_rv.mp4	0.0	1284.4829239845276	1.0001280307769775
25	1263.2687520980835	movie	1		246	23.0	2.5	/experiments/AOT/AOT_stimuli/rescaled_final/1844_rv.mp4	0.0	1285.4830520153046	2.499588966369629
25	1263.6517350673676	pulse	1	t		23.0	2.5	/experiments/AOT/AOT_stimuli/rescaled_final/1844_rv.mp4	0.0	1285.8660349845886	
25	1265.2448420524597	pulse	1	t		23.0	2.5	/experiments/AOT/AOT_stimuli/rescaled_final/1844_rv.mp4	0.0	1287.4591419696808	
25	1265.7683410644531	fix_post	2		12	23.0	2.5	/experiments/AOT/AOT_stimuli/rescaled_final/1844_rv.mp4	0.0	1287.9826409816742	0.10038113594055176
26	1265.8687222003937	fix_pre	0		119	24.0	2.5	/experiments/AOT/AOT_stimuli/rescaled_final/2056_fw.mp4	0.0	1288.0830221176147	0.9917078018188477
26	1266.8448371887207	pulse	0	t		24.0	2.5	/experiments/AOT/AOT_stimuli/rescaled_final/2056_fw.mp4	0.0	1289.0591371059418	
26	1266.8604300022125	movie	1		245	24.0	2.5	/experiments/AOT/AOT_stimuli/rescaled_final/2056_fw.mp4	0.0	1289.0747299194336	2.5079071521759033
26	1268.4516770839691	pulse	1	t		24.0	2.5	/experiments/AOT/AOT_stimuli/rescaled_final/2056_fw.mp4	0.0	1290.6659770011902	
26	1269.3683371543884	fix_post	2		12	24.0	2.5	/experiments/AOT/AOT_stimuli/rescaled_final/2056_fw.mp4	0.0	1291.5826370716095	0.10044693946838379
27	1269.4687840938568	fix_pre	0		120	25.0	2.5	/experiments/AOT/AOT_stimuli/rescaled_final/0803_fw.mp4	0.0	1291.6830840110779	0.9999380111694336
27	1270.0521612167358	pulse	0	t		25.0	2.5	/experiments/AOT/AOT_stimuli/rescaled_final/0803_fw.mp4	0.0	1292.266461133957	
27	1270.4687221050262	movie	1		244	25.0	2.5	/experiments/AOT/AOT_stimuli/rescaled_final/0803_fw.mp4	0.0	1292.6830220222473	2.4995670318603516
27	1271.6522240638733	pulse	1	t		25.0	2.5	/experiments/AOT/AOT_stimuli/rescaled_final/0803_fw.mp4	0.0	1293.8665239810944	
27	1272.9682891368866	fix_post	2		12	25.0	2.5	/experiments/AOT/AOT_stimuli/rescaled_final/0803_fw.mp4	0.0	1295.1825890541077	0.1003730297088623
28	1273.0686621665955	fix_pre	0		120	26.0	2.5	/experiments/AOT/AOT_stimuli/rescaled_final/0314_rv.mp4	0.0	1295.2829620838165	0.9999608993530273
28	1273.2521471977234	pulse	0	t		26.0	2.5	/experiments/AOT/AOT_stimuli/rescaled_final/0314_rv.mp4	0.0	1295.4664471149445	
28	1274.0686230659485	movie	1		244	26.0	2.5	/experiments/AOT/AOT_stimuli/rescaled_final/0314_rv.mp4	0.0	1296.2829229831696	2.5000369548797607
28	1274.852133989334	pulse	1	t		26.0	2.5	/experiments/AOT/AOT_stimuli/rescaled_final/0314_rv.mp4	0.0	1297.0664339065552	
28	1276.4508271217346	pulse	1	t		26.0	2.5	/experiments/AOT/AOT_stimuli/rescaled_final/0314_rv.mp4	0.0	1298.6651270389557	
28	1276.5686600208282	fix_post	2		12	26.0	2.5	/experiments/AOT/AOT_stimuli/rescaled_final/0314_rv.mp4	0.0	1298.7829599380493	0.10004019737243652
29	1276.6687002182007	fix_pre	0		120	27.0	2.5	blank	1.0	1298.8830001354218	1.000044822692871
29	1277.6687450408936	movie	1		300	27.0	2.5	blank	1.0	1299.8830449581146	2.4999799728393555
29	1278.0446591377258	pulse	1	t		27.0	2.5	blank	1.0	1300.258959054947	
29	1279.6446051597595	pulse	1	t		27.0	2.5	blank	1.0	1301.8589050769806	
29	1280.168725013733	fix_post	2		12	27.0	2.5	blank	1.0	1302.383024930954	0.09950804710388184
30	1280.2682330608368	fix_pre	0		119	28.0	2.5	/experiments/AOT/AOT_stimuli/rescaled_final/1365_rv.mp4	0.0	1302.4825329780579	0.9920971393585205
30	1281.2446200847626	pulse	0	t		28.0	2.5	/experiments/AOT/AOT_stimuli/rescaled_final/1365_rv.mp4	0.0	1303.4589200019836	
30	1281.2603302001953	movie	1		244	28.0	2.5	/experiments/AOT/AOT_stimuli/rescaled_final/1365_rv.mp4	0.0	1303.4746301174164	2.5083069801330566
30	1282.8533880710602	pulse	1	t		28.0	2.5	/experiments/AOT/AOT_stimuli/rescaled_final/1365_rv.mp4	0.0	1305.0676879882812	
30	1283.7686371803284	fix_post	2		12	28.0	2.5	/experiments/AOT/AOT_stimuli/rescaled_final/1365_rv.mp4	0.0	1305.9829370975494	0.09997987747192383
31	1283.8686170578003	fix_pre	0		120	29.0	2.5	/experiments/AOT/AOT_stimuli/rescaled_final/0964_rv.mp4	0.0	1306.0829169750214	1.0001299381256104
31	1284.4445941448212	pulse	0	t		29.0	2.5	/experiments/AOT/AOT_stimuli/rescaled_final/0964_rv.mp4	0.0	1306.6588940620422	
31	1284.868746995926	movie	1		244	29.0	2.5	/experiments/AOT/AOT_stimuli/rescaled_final/0964_rv.mp4	0.0	1307.083046913147	2.4998650550842285
31	1286.0522201061249	pulse	1	t		29.0	2.5	/experiments/AOT/AOT_stimuli/rescaled_final/0964_rv.mp4	0.0	1308.266520023346	
31	1287.3686120510101	fix_post	2		12	29.0	2.5	/experiments/AOT/AOT_stimuli/rescaled_final/0964_rv.mp4	0.0	1309.5829119682312	0.09997916221618652
32	1287.4685912132263	fix_pre	0		120	30.0	2.5	/experiments/AOT/AOT_stimuli/rescaled_final/1901_rv.mp4	0.0	1309.6828911304474	0.9999938011169434
32	1287.6521620750427	pulse	0	t		30.0	2.5	/experiments/AOT/AOT_stimuli/rescaled_final/1901_rv.mp4	0.0	1309.8664619922638	
32	1288.4685850143433	movie	1		245	30.0	2.5	/experiments/AOT/AOT_stimuli/rescaled_final/1901_rv.mp4	0.0	1310.6828849315643	2.5000760555267334
32	1289.2521641254425	pulse	1	t		30.0	2.5	/experiments/AOT/AOT_stimuli/rescaled_final/1901_rv.mp4	0.0	1311.4664640426636	
32	1290.8507730960846	pulse	1	t		30.0	2.5	/experiments/AOT/AOT_stimuli/rescaled_final/1901_rv.mp4	0.0	1313.0650730133057	
32	1290.96866106987	fix_post	2		12	30.0	2.5	/experiments/AOT/AOT_stimuli/rescaled_final/1901_rv.mp4	0.0	1313.182960987091	0.09995603561401367
33	1291.068617105484	fix_pre	0		120	31.0	2.5	/experiments/AOT/AOT_stimuli/rescaled_final/0917_fw.mp4	0.0	1313.282917022705	1.0000169277191162
33	1292.0686340332031	movie	1		244	31.0	2.5	/experiments/AOT/AOT_stimuli/rescaled_final/0917_fw.mp4	0.0	1314.2829339504242	2.4999279975891113
33	1292.4518461227417	pulse	1	t		31.0	2.5	/experiments/AOT/AOT_stimuli/rescaled_final/0917_fw.mp4	0.0	1314.6661460399628	
33	1294.044753074646	pulse	1	t		31.0	2.5	/experiments/AOT/AOT_stimuli/rescaled_final/0917_fw.mp4	0.0	1316.259052991867	
33	1294.5685620307922	fix_post	2		12	31.0	2.5	/experiments/AOT/AOT_stimuli/rescaled_final/0917_fw.mp4	0.0	1316.7828619480133	0.10002303123474121
34	1294.668585062027	fix_pre	0		119	32.0	2.5	/experiments/AOT/AOT_stimuli/rescaled_final/1901_fw.mp4	0.0	1316.882884979248	0.991657018661499
34	1295.6446011066437	pulse	0	t		32.0	2.5	/experiments/AOT/AOT_stimuli/rescaled_final/1901_fw.mp4	0.0	1317.8589010238647	
34	1295.6602420806885	movie	1		245	32.0	2.5	/experiments/AOT/AOT_stimuli/rescaled_final/1901_fw.mp4	0.0	1317.8745419979095	2.5083630084991455
34	1297.2520220279694	pulse	1	t		32.0	2.5	/experiments/AOT/AOT_stimuli/rescaled_final/1901_fw.mp4	0.0	1319.4663219451904	
34	1298.1686050891876	fix_post	2		12	32.0	2.5	/experiments/AOT/AOT_stimuli/rescaled_final/1901_fw.mp4	0.0	1320.3829050064087	0.09995198249816895
35	1298.2685570716858	fix_pre	0		120	33.0	2.5	blank	1.0	1320.4828569889069	0.9999990463256836
35	1298.8445620536804	pulse	0	t		33.0	2.5	blank	1.0	1321.0588619709015	
35	1299.2685561180115	movie	1		300	33.0	2.5	blank	1.0	1321.4828560352325	2.4999680519104004
35	1300.444473028183	pulse	1	t		33.0	2.5	blank	1.0	1322.658772945404	
35	1301.7685241699219	fix_post	2		12	33.0	2.5	blank	1.0	1323.982824087143	0.10000491142272949
36	1301.8685290813446	fix_pre	0		120	34.0	2.5	/experiments/AOT/AOT_stimuli/rescaled_final/2007_rv.mp4	0.0	1324.0828289985657	1.0000739097595215
36	1302.0520541667938	pulse	0	t		34.0	2.5	/experiments/AOT/AOT_stimuli/rescaled_final/2007_rv.mp4	0.0	1324.266354084015	
36	1302.8686029911041	movie	1		243	34.0	2.5	/experiments/AOT/AOT_stimuli/rescaled_final/2007_rv.mp4	0.0	1325.0829029083252	2.4998531341552734
36	1303.6520781517029	pulse	1	t		34.0	2.5	/experiments/AOT/AOT_stimuli/rescaled_final/2007_rv.mp4	0.0	1325.866378068924	
36	1305.2502992153168	pulse	1	t		34.0	2.5	/experiments/AOT/AOT_stimuli/rescaled_final/2007_rv.mp4	0.0	1327.4645991325378	
36	1305.3684561252594	fix_post	2		12	34.0	2.5	/experiments/AOT/AOT_stimuli/rescaled_final/2007_rv.mp4	0.0	1327.5827560424805	0.10006093978881836
37	1305.4685170650482	fix_pre	0		120	35.0	2.5	/experiments/AOT/AOT_stimuli/rescaled_final/1492_rv.mp4	0.0	1327.6828169822693	0.9999301433563232
37	1306.4684472084045	movie	1		243	35.0	2.5	/experiments/AOT/AOT_stimuli/rescaled_final/1492_rv.mp4	0.0	1328.6827471256256	2.4996910095214844
37	1306.8514590263367	pulse	1	t		35.0	2.5	/experiments/AOT/AOT_stimuli/rescaled_final/1492_rv.mp4	0.0	1329.0657589435577	
37	1308.4519791603088	pulse	1	t		35.0	2.5	/experiments/AOT/AOT_stimuli/rescaled_final/1492_rv.mp4	0.0	1330.66627907753	
37	1308.968138217926	fix_post	2		12	35.0	2.5	/experiments/AOT/AOT_stimuli/rescaled_final/1492_rv.mp4	0.0	1331.182438135147	0.10032200813293457
38	1309.068460226059	fix_pre	0		119	36.0	2.5	/experiments/AOT/AOT_stimuli/rescaled_final/2147_rv.mp4	0.0	1331.28276014328	0.9917547702789307
38	1310.052038192749	pulse	0	t		36.0	2.5	/experiments/AOT/AOT_stimuli/rescaled_final/2147_rv.mp4	0.0	1332.26633810997	
38	1310.060214996338	movie	1		245	36.0	2.5	/experiments/AOT/AOT_stimuli/rescaled_final/2147_rv.mp4	0.0	1332.274514913559	2.5083391666412354
38	1311.6521000862122	pulse	1	t		36.0	2.5	/experiments/AOT/AOT_stimuli/rescaled_final/2147_rv.mp4	0.0	1333.8664000034332	
38	1312.5685541629791	fix_post	2		12	36.0	2.5	/experiments/AOT/AOT_stimuli/rescaled_final/2147_rv.mp4	0.0	1334.7828540802002	0.09992194175720215
39	1312.6684761047363	fix_pre	0		120	37.0	2.5	/experiments/AOT/AOT_stimuli/rescaled_final/0654_fw.mp4	0.0	1334.8827760219574	1.0000789165496826
39	1313.24449300766	pulse	0	t		37.0	2.5	/experiments/AOT/AOT_stimuli/rescaled_final/0654_fw.mp4	0.0	1335.458792924881	
39	1313.668555021286	movie	1		244	37.0	2.5	/experiments/AOT/AOT_stimuli/rescaled_final/0654_fw.mp4	0.0	1335.882854938507	2.499937057495117
39	1314.8520410060883	pulse	1	t		37.0	2.5	/experiments/AOT/AOT_stimuli/rescaled_final/0654_fw.mp4	0.0	1337.0663409233093	
39	1316.1684920787811	fix_post	2		12	37.0	2.5	/experiments/AOT/AOT_stimuli/rescaled_final/0654_fw.mp4	0.0	1338.3827919960022	0.09997296333312988
40	1316.2684650421143	fix_pre	0		120	38.0	2.5	/experiments/AOT/AOT_stimuli/rescaled_final/1128_rv.mp4	0.0	1338.4827649593353	1.000197172164917
40	1316.4446551799774	pulse	0	t		38.0	2.5	/experiments/AOT/AOT_stimuli/rescaled_final/1128_rv.mp4	0.0	1338.6589550971985	
40	1317.2686622142792	movie	1		243	38.0	2.5	/experiments/AOT/AOT_stimuli/rescaled_final/1128_rv.mp4	0.0	1339.4829621315002	2.4997928142547607
40	1318.051815032959	pulse	1	t		38.0	2.5	/experiments/AOT/AOT_stimuli/rescaled_final/1128_rv.mp4	0.0	1340.26611495018	
40	1319.650442123413	pulse	1	t		38.0	2.5	/experiments/AOT/AOT_stimuli/rescaled_final/1128_rv.mp4	0.0	1341.8647420406342	
40	1319.768455028534	fix_post	2		12	38.0	2.5	/experiments/AOT/AOT_stimuli/rescaled_final/1128_rv.mp4	0.0	1341.982754945755	0.1000051498413086
41	1319.8684601783752	fix_pre	0		120	39.0	2.5	/experiments/AOT/AOT_stimuli/rescaled_final/1641_fw.mp4	0.0	1342.0827600955963	1.0000109672546387
41	1320.8684711456299	movie	1		242	39.0	2.5	/experiments/AOT/AOT_stimuli/rescaled_final/1641_fw.mp4	0.0	1343.082771062851	2.4995720386505127
41	1321.2516779899597	pulse	1	t		39.0	2.5	/experiments/AOT/AOT_stimuli/rescaled_final/1641_fw.mp4	0.0	1343.4659779071808	
41	1322.8520410060883	pulse	1	t		39.0	2.5	/experiments/AOT/AOT_stimuli/rescaled_final/1641_fw.mp4	0.0	1345.0663409233093	
41	1323.3680431842804	fix_post	2		12	39.0	2.5	/experiments/AOT/AOT_stimuli/rescaled_final/1641_fw.mp4	0.0	1345.5823431015015	0.10031390190124512
42	1323.4683570861816	fix_pre	0		119	40.0	2.5	/experiments/AOT/AOT_stimuli/rescaled_final/1307_fw.mp4	0.0	1345.6826570034027	0.9916970729827881
42	1324.451963186264	pulse	0	t		40.0	2.5	/experiments/AOT/AOT_stimuli/rescaled_final/1307_fw.mp4	0.0	1346.666263103485	
42	1324.4600541591644	movie	1		245	40.0	2.5	/experiments/AOT/AOT_stimuli/rescaled_final/1307_fw.mp4	0.0	1346.6743540763855	2.5079870223999023
42	1326.051539182663	pulse	1	t		40.0	2.5	/experiments/AOT/AOT_stimuli/rescaled_final/1307_fw.mp4	0.0	1348.265839099884	
42	1326.9680411815643	fix_post	2		12	40.0	2.5	/experiments/AOT/AOT_stimuli/rescaled_final/1307_fw.mp4	0.0	1349.1823410987854	0.10045289993286133
43	1327.0684940814972	fix_pre	0		120	41.0	2.5	blank	1.0	1349.2827939987183	0.9999160766601562
43	1327.6519391536713	pulse	0	t		41.0	2.5	blank	1.0	1349.8662390708923	
43	1328.0684101581573	movie	1		300	41.0	2.5	blank	1.0	1350.2827100753784	2.499974012374878
43	1329.2443511486053	pulse	1	t		41.0	2.5	blank	1.0	1351.4586510658264	
43	1330.5683841705322	fix_post	2		12	41.0	2.5	blank	1.0	1352.7826840877533	0.1000528335571289
44	1330.6684370040894	fix_pre	0		120	42.0	2.5	/experiments/AOT/AOT_stimuli/rescaled_final/0674_fw.mp4	0.0	1352.8827369213104	0.9999821186065674
44	1330.8518731594086	pulse	0	t		42.0	2.5	/experiments/AOT/AOT_stimuli/rescaled_final/0674_fw.mp4	0.0	1353.0661730766296	
44	1331.668419122696	movie	1		245	42.0	2.5	/experiments/AOT/AOT_stimuli/rescaled_final/0674_fw.mp4	0.0	1353.882719039917	2.500032901763916
44	1332.444461107254	pulse	1	t		42.0	2.5	/experiments/AOT/AOT_stimuli/rescaled_final/0674_fw.mp4	0.0	1354.658761024475	
44	1334.050478219986	pulse	1	t		42.0	2.5	/experiments/AOT/AOT_stimuli/rescaled_final/0674_fw.mp4	0.0	1356.264778137207	
44	1334.1684520244598	fix_post	2		12	42.0	2.5	/experiments/AOT/AOT_stimuli/rescaled_final/0674_fw.mp4	0.0	1356.382751941681	0.09991717338562012
45	1334.2683691978455	fix_pre	0		120	43.0	2.5	/experiments/AOT/AOT_stimuli/rescaled_final/0820_fw.mp4	0.0	1356.4826691150665	1.0000529289245605
45	1335.26842212677	movie	1		243	43.0	2.5	/experiments/AOT/AOT_stimuli/rescaled_final/0820_fw.mp4	0.0	1357.482722043991	2.499652862548828
45	1335.6512551307678	pulse	1	t		43.0	2.5	/experiments/AOT/AOT_stimuli/rescaled_final/0820_fw.mp4	0.0	1357.865555047989	
45	1337.2519052028656	pulse	1	t		43.0	2.5	/experiments/AOT/AOT_stimuli/rescaled_final/0820_fw.mp4	0.0	1359.4662051200867	
45	1337.7680749893188	fix_post	2		12	43.0	2.5	/experiments/AOT/AOT_stimuli/rescaled_final/0820_fw.mp4	0.0	1359.98237490654	0.10037112236022949
46	1337.868446111679	fix_pre	0		119	44.0	2.5	/experiments/AOT/AOT_stimuli/rescaled_final/1655_rv.mp4	0.0	1360.0827460289001	0.9916679859161377
46	1338.8519101142883	pulse	0	t		44.0	2.5	/experiments/AOT/AOT_stimuli/rescaled_final/1655_rv.mp4	0.0	1361.0662100315094	
46	1338.8601140975952	movie	1		243	44.0	2.5	/experiments/AOT/AOT_stimuli/rescaled_final/1655_rv.mp4	0.0	1361.0744140148163	2.508302927017212
46	1340.4530670642853	pulse	1	t		44.0	2.5	/experiments/AOT/AOT_stimuli/rescaled_final/1655_rv.mp4	0.0	1362.6673669815063	
46	1341.3684170246124	fix_post	2		12	44.0	2.5	/experiments/AOT/AOT_stimuli/rescaled_final/1655_rv.mp4	0.0	1363.5827169418335	0.09995412826538086
47	1341.4683711528778	fix_pre	0		120	45.0	2.5	/experiments/AOT/AOT_stimuli/rescaled_final/1492_fw.mp4	0.0	1363.6826710700989	0.9999549388885498
47	1342.0518550872803	pulse	0	t		45.0	2.5	/experiments/AOT/AOT_stimuli/rescaled_final/1492_fw.mp4	0.0	1364.2661550045013	
47	1342.4683260917664	movie	1		244	45.0	2.5	/experiments/AOT/AOT_stimuli/rescaled_final/1492_fw.mp4	0.0	1364.6826260089874	2.5000100135803223
47	1343.6519181728363	pulse	1	t		45.0	2.5	/experiments/AOT/AOT_stimuli/rescaled_final/1492_fw.mp4	0.0	1365.8662180900574	
47	1344.9683361053467	fix_post	2		12	45.0	2.5	/experiments/AOT/AOT_stimuli/rescaled_final/1492_fw.mp4	0.0	1367.1826360225677	0.10004806518554688
48	1345.0683841705322	fix_pre	0		120	46.0	2.5	/experiments/AOT/AOT_stimuli/rescaled_final/1128_fw.mp4	0.0	1367.2826840877533	0.9999709129333496
48	1345.25181722641	pulse	0	t		46.0	2.5	/experiments/AOT/AOT_stimuli/rescaled_final/1128_fw.mp4	0.0	1367.466117143631	
48	1346.0683550834656	movie	1		243	46.0	2.5	/experiments/AOT/AOT_stimuli/rescaled_final/1128_fw.mp4	0.0	1368.2826550006866	2.4999170303344727
48	1346.8517971038818	pulse	1	t		46.0	2.5	/experiments/AOT/AOT_stimuli/rescaled_final/1128_fw.mp4	0.0	1369.066097021103	
48	1348.450411081314	pulse	1	t		46.0	2.5	/experiments/AOT/AOT_stimuli/rescaled_final/1128_fw.mp4	0.0	1370.6647109985352	
48	1348.5682721138	fix_post	2		12	46.0	2.5	/experiments/AOT/AOT_stimuli/rescaled_final/1128_fw.mp4	0.0	1370.7825720310211	0.10003900527954102
49	1348.6683111190796	fix_pre	0		120	47.0	2.5	/experiments/AOT/AOT_stimuli/rescaled_final/1852_rv.mp4	0.0	1370.8826110363007	1.0000550746917725
49	1349.6683661937714	movie	1		243	47.0	2.5	/experiments/AOT/AOT_stimuli/rescaled_final/1852_rv.mp4	0.0	1371.8826661109924	2.499936819076538
49	1350.0514380931854	pulse	1	t		47.0	2.5	/experiments/AOT/AOT_stimuli/rescaled_final/1852_rv.mp4	0.0	1372.2657380104065	
49	1351.6517870426178	pulse	1	t		47.0	2.5	/experiments/AOT/AOT_stimuli/rescaled_final/1852_rv.mp4	0.0	1373.8660869598389	
49	1352.168303012848	fix_post	2		12	47.0	2.5	/experiments/AOT/AOT_stimuli/rescaled_final/1852_rv.mp4	0.0	1374.382602930069	0.1000361442565918
50	1352.2683391571045	fix_pre	0		119	48.0	2.5	/experiments/AOT/AOT_stimuli/rescaled_final/1874_rv.mp4	0.0	1374.4826390743256	0.9916219711303711
50	1353.2517790794373	pulse	0	t		48.0	2.5	/experiments/AOT/AOT_stimuli/rescaled_final/1874_rv.mp4	0.0	1375.4660789966583	
50	1353.2599611282349	movie	1		245	48.0	2.5	/experiments/AOT/AOT_stimuli/rescaled_final/1874_rv.mp4	0.0	1375.474261045456	2.508302927017212
50	1354.8513741493225	pulse	1	t		48.0	2.5	/experiments/AOT/AOT_stimuli/rescaled_final/1874_rv.mp4	0.0	1377.0656740665436	
50	1355.768264055252	fix_post	2		12	48.0	2.5	/experiments/AOT/AOT_stimuli/rescaled_final/1874_rv.mp4	0.0	1377.9825639724731	0.09999513626098633
51	1355.868259191513	fix_pre	0		120	49.0	2.5	blank	1.0	1378.0825591087341	1.0000028610229492
51	1356.4529120922089	pulse	0	t		49.0	2.5	blank	1.0	1378.66721200943	
51	1356.868262052536	movie	1		300	49.0	2.5	blank	1.0	1379.082561969757	2.5000641345977783
51	1358.0517501831055	pulse	1	t		49.0	2.5	blank	1.0	1380.2660501003265	
51	1359.3683261871338	fix_post	2		12	49.0	2.5	blank	1.0	1381.5826261043549	0.09995794296264648
52	1359.4682841300964	fix_pre	0		120	50.0	2.5	/experiments/AOT/AOT_stimuli/rescaled_final/1857_rv.mp4	0.0	1381.6825840473175	0.9999880790710449
52	1359.6517930030823	pulse	0	t		50.0	2.5	/experiments/AOT/AOT_stimuli/rescaled_final/1857_rv.mp4	0.0	1381.8660929203033	
52	1360.4682722091675	movie	1		242	50.0	2.5	/experiments/AOT/AOT_stimuli/rescaled_final/1857_rv.mp4	0.0	1382.6825721263885	2.499941825866699
52	1361.2517549991608	pulse	1	t		50.0	2.5	/experiments/AOT/AOT_stimuli/rescaled_final/1857_rv.mp4	0.0	1383.4660549163818	
52	1362.849944114685	pulse	1	t		50.0	2.5	/experiments/AOT/AOT_stimuli/rescaled_final/1857_rv.mp4	0.0	1385.0642440319061	
52	1362.9682140350342	fix_post	2		12	50.0	2.5	/experiments/AOT/AOT_stimuli/rescaled_final/1857_rv.mp4	0.0	1385.1825139522552	0.10016012191772461
53	1363.068374156952	fix_pre	0		120	51.0	2.5	/experiments/AOT/AOT_stimuli/rescaled_final/0627_rv.mp4	0.0	1385.282674074173	0.9998929500579834
53	1364.06826710701	movie	1		244	51.0	2.5	/experiments/AOT/AOT_stimuli/rescaled_final/0627_rv.mp4	0.0	1386.282567024231	2.4999749660491943
53	1364.452819108963	pulse	1	t		51.0	2.5	/experiments/AOT/AOT_stimuli/rescaled_final/0627_rv.mp4	0.0	1386.667119026184	
53	1366.0517570972443	pulse	1	t		51.0	2.5	/experiments/AOT/AOT_stimuli/rescaled_final/0627_rv.mp4	0.0	1388.2660570144653	
53	1366.568242073059	fix_post	2		12	51.0	2.5	/experiments/AOT/AOT_stimuli/rescaled_final/0627_rv.mp4	0.0	1388.7825419902802	0.09995007514953613
54	1366.6681921482086	fix_pre	0		119	52.0	2.5	/experiments/AOT/AOT_stimuli/rescaled_final/0737_rv.mp4	0.0	1388.8824920654297	0.9917209148406982
54	1367.6518151760101	pulse	0	t		52.0	2.5	/experiments/AOT/AOT_stimuli/rescaled_final/0737_rv.mp4	0.0	1389.8661150932312	
54	1367.6599130630493	movie	1		246	52.0	2.5	/experiments/AOT/AOT_stimuli/rescaled_final/0737_rv.mp4	0.0	1389.8742129802704	2.5083401203155518
54	1369.2513110637665	pulse	1	t		52.0	2.5	/experiments/AOT/AOT_stimuli/rescaled_final/0737_rv.mp4	0.0	1391.4656109809875	
54	1370.1682531833649	fix_post	2		12	52.0	2.5	/experiments/AOT/AOT_stimuli/rescaled_final/0737_rv.mp4	0.0	1392.382553100586	0.09996485710144043
55	1370.2682180404663	fix_pre	0		120	53.0	2.5	/experiments/AOT/AOT_stimuli/rescaled_final/2069_rv.mp4	0.0	1392.4825179576874	0.9999971389770508
55	1370.8517479896545	pulse	0	t		53.0	2.5	/experiments/AOT/AOT_stimuli/rescaled_final/2069_rv.mp4	0.0	1393.0660479068756	
55	1371.2682151794434	movie	1		243	53.0	2.5	/experiments/AOT/AOT_stimuli/rescaled_final/2069_rv.mp4	0.0	1393.4825150966644	2.499863862991333
55	1372.451511144638	pulse	1	t		53.0	2.5	/experiments/AOT/AOT_stimuli/rescaled_final/2069_rv.mp4	0.0	1394.6658110618591	
55	1373.7680790424347	fix_post	2		12	53.0	2.5	/experiments/AOT/AOT_stimuli/rescaled_final/2069_rv.mp4	0.0	1395.9823789596558	0.09997010231018066
56	1373.8680491447449	fix_pre	0		120	54.0	2.5	/experiments/AOT/AOT_stimuli/rescaled_final/0629_fw.mp4	0.0	1396.082349061966	1.0001769065856934
56	1374.0515501499176	pulse	0	t		54.0	2.5	/experiments/AOT/AOT_stimuli/rescaled_final/0629_fw.mp4	0.0	1396.2658500671387	
56	1374.8682260513306	movie	1		243	54.0	2.5	/experiments/AOT/AOT_stimuli/rescaled_final/0629_fw.mp4	0.0	1397.0825259685516	2.499917984008789
56	1375.6516392230988	pulse	1	t		54.0	2.5	/experiments/AOT/AOT_stimuli/rescaled_final/0629_fw.mp4	0.0	1397.8659391403198	
56	1377.2476160526276	pulse	1	t		54.0	2.5	/experiments/AOT/AOT_stimuli/rescaled_final/0629_fw.mp4	0.0	1399.4619159698486	
56	1377.3681440353394	fix_post	2		12	54.0	2.5	/experiments/AOT/AOT_stimuli/rescaled_final/0629_fw.mp4	0.0	1399.5824439525604	0.10006999969482422
57	1377.4682140350342	fix_pre	0		120	55.0	2.5	/experiments/AOT/AOT_stimuli/rescaled_final/0187_rv.mp4	0.0	1399.6825139522552	0.9999420642852783
57	1378.4681560993195	movie	1		246	55.0	2.5	/experiments/AOT/AOT_stimuli/rescaled_final/0187_rv.mp4	0.0	1400.6824560165405	2.500001907348633
57	1378.8528311252594	pulse	1	t		55.0	2.5	/experiments/AOT/AOT_stimuli/rescaled_final/0187_rv.mp4	0.0	1401.0671310424805	
57	1380.451595067978	pulse	1	t		55.0	2.5	/experiments/AOT/AOT_stimuli/rescaled_final/0187_rv.mp4	0.0	1402.665894985199	
57	1380.968158006668	fix_post	2		12	55.0	2.5	/experiments/AOT/AOT_stimuli/rescaled_final/0187_rv.mp4	0.0	1403.1824579238892	0.09995102882385254
58	1381.068109035492	fix_pre	0		119	56.0	2.5	blank	1.0	1403.282408952713	0.9916810989379883
58	1382.051687002182	pulse	0	t		56.0	2.5	blank	1.0	1404.265986919403	
58	1382.05979013443	movie	1		301	56.0	2.5	blank	1.0	1404.274090051651	2.5079848766326904
58	1383.651626110077	pulse	1	t		56.0	2.5	blank	1.0	1405.865926027298	
58	1384.5677750110626	fix_post	2		12	56.0	2.5	blank	1.0	1406.7820749282837	0.10032415390014648
59	1384.6680991649628	fix_pre	0		120	57.0	2.5	/experiments/AOT/AOT_stimuli/rescaled_final/0734_fw.mp4	0.0	1406.8823990821838	1.0001070499420166
59	1385.2515931129456	pulse	0	t		57.0	2.5	/experiments/AOT/AOT_stimuli/rescaled_final/0734_fw.mp4	0.0	1407.4658930301666	
59	1385.6682062149048	movie	1		243	57.0	2.5	/experiments/AOT/AOT_stimuli/rescaled_final/0734_fw.mp4	0.0	1407.8825061321259	2.499891996383667
59	1386.8517291545868	pulse	1	t		57.0	2.5	/experiments/AOT/AOT_stimuli/rescaled_final/0734_fw.mp4	0.0	1409.0660290718079	
59	1388.1680982112885	fix_post	2		12	57.0	2.5	/experiments/AOT/AOT_stimuli/rescaled_final/0734_fw.mp4	0.0	1410.3823981285095	0.09997892379760742
60	1388.268077135086	fix_pre	0		120	58.0	2.5	/experiments/AOT/AOT_stimuli/rescaled_final/1508_fw.mp4	0.0	1410.4823770523071	1.0000410079956055
60	1388.4516971111298	pulse	0	t		58.0	2.5	/experiments/AOT/AOT_stimuli/rescaled_final/1508_fw.mp4	0.0	1410.6659970283508	
60	1389.2681181430817	movie	1		242	58.0	2.5	/experiments/AOT/AOT_stimuli/rescaled_final/1508_fw.mp4	0.0	1411.4824180603027	2.4999358654022217
60	1390.051595211029	pulse	1	t		58.0	2.5	/experiments/AOT/AOT_stimuli/rescaled_final/1508_fw.mp4	0.0	1412.2658951282501	
60	1391.6499600410461	pulse	1	t		58.0	2.5	/experiments/AOT/AOT_stimuli/rescaled_final/1508_fw.mp4	0.0	1413.8642599582672	
60	1391.768054008484	fix_post	2		12	58.0	2.5	/experiments/AOT/AOT_stimuli/rescaled_final/1508_fw.mp4	0.0	1413.982353925705	0.100067138671875
61	1391.8681211471558	fix_pre	0		120	59.0	2.5	/experiments/AOT/AOT_stimuli/rescaled_final/0668_fw.mp4	0.0	1414.0824210643768	0.9996418952941895
61	1392.86776304245	movie	1		242	59.0	2.5	/experiments/AOT/AOT_stimuli/rescaled_final/0668_fw.mp4	0.0	1415.082062959671	2.500333070755005
61	1393.251540184021	pulse	1	t		59.0	2.5	/experiments/AOT/AOT_stimuli/rescaled_final/0668_fw.mp4	0.0	1415.465840101242	
61	1394.85156416893	pulse	1	t		59.0	2.5	/experiments/AOT/AOT_stimuli/rescaled_final/0668_fw.mp4	0.0	1417.0658640861511	
61	1395.368096113205	fix_post	2		12	59.0	2.5	/experiments/AOT/AOT_stimuli/rescaled_final/0668_fw.mp4	0.0	1417.582396030426	0.09998893737792969
62	1395.4680850505829	fix_pre	0		119	60.0	2.5	/experiments/AOT/AOT_stimuli/rescaled_final/0386_fw.mp4	0.0	1417.682384967804	0.9916930198669434
62	1396.4515399932861	pulse	0	t		60.0	2.5	/experiments/AOT/AOT_stimuli/rescaled_final/0386_fw.mp4	0.0	1418.6658399105072	
62	1396.4597780704498	movie	1		245	60.0	2.5	/experiments/AOT/AOT_stimuli/rescaled_final/0386_fw.mp4	0.0	1418.674077987671	2.5083389282226562
62	1398.051437139511	pulse	1	t		60.0	2.5	/experiments/AOT/AOT_stimuli/rescaled_final/0386_fw.mp4	0.0	1420.2657370567322	
62	1398.9681169986725	fix_post	2		12	60.0	2.5	/experiments/AOT/AOT_stimuli/rescaled_final/0386_fw.mp4	0.0	1421.1824169158936	0.09995508193969727
63	1399.0680720806122	fix_pre	0		120	61.0	2.5	blank	1.0	1421.2823719978333	0.9999899864196777
63	1399.651516199112	pulse	0	t		61.0	2.5	blank	1.0	1421.865816116333	
63	1400.0680620670319	movie	1		300	61.0	2.5	blank	1.0	1422.282361984253	2.500066041946411
63	1401.2515170574188	pulse	1	t		61.0	2.5	blank	1.0	1423.46581697464	
63	1402.5681281089783	fix_post	2		12	61.0	2.5	blank	1.0	1424.7824280261993	0.09995388984680176
64	1402.668081998825	fix_pre	0		120	62.0	2.5	/experiments/AOT/AOT_stimuli/rescaled_final/1164_fw.mp4	0.0	1424.8823819160461	0.999993085861206
64	1402.8515660762787	pulse	0	t		62.0	2.5	/experiments/AOT/AOT_stimuli/rescaled_final/1164_fw.mp4	0.0	1425.0658659934998	
64	1403.6680750846863	movie	1		245	62.0	2.5	/experiments/AOT/AOT_stimuli/rescaled_final/1164_fw.mp4	0.0	1425.8823750019073	2.4999239444732666
64	1404.451488018036	pulse	1	t		62.0	2.5	/experiments/AOT/AOT_stimuli/rescaled_final/1164_fw.mp4	0.0	1426.665787935257	
64	1406.0499520301819	pulse	1	t		62.0	2.5	/experiments/AOT/AOT_stimuli/rescaled_final/1164_fw.mp4	0.0	1428.264251947403	
64	1406.1679990291595	fix_post	2		12	62.0	2.5	/experiments/AOT/AOT_stimuli/rescaled_final/1164_fw.mp4	0.0	1428.3822989463806	0.10000014305114746
65	1406.2679991722107	fix_pre	0		120	63.0	2.5	/experiments/AOT/AOT_stimuli/rescaled_final/2154_fw.mp4	0.0	1428.4822990894318	1.0000629425048828
65	1407.2680621147156	movie	1		246	63.0	2.5	/experiments/AOT/AOT_stimuli/rescaled_final/2154_fw.mp4	0.0	1429.4823620319366	2.4999070167541504
65	1407.6526792049408	pulse	1	t		63.0	2.5	/experiments/AOT/AOT_stimuli/rescaled_final/2154_fw.mp4	0.0	1429.8669791221619	
65	1409.2515671253204	pulse	1	t		63.0	2.5	/experiments/AOT/AOT_stimuli/rescaled_final/2154_fw.mp4	0.0	1431.4658670425415	
65	1409.7679691314697	fix_post	2		12	63.0	2.5	/experiments/AOT/AOT_stimuli/rescaled_final/2154_fw.mp4	0.0	1431.9822690486908	0.10003805160522461
66	1409.868007183075	fix_pre	0		119	64.0	2.5	/experiments/AOT/AOT_stimuli/rescaled_final/1026_rv.mp4	0.0	1432.082307100296	0.9916880130767822
66	1410.8514950275421	pulse	0	t		64.0	2.5	/experiments/AOT/AOT_stimuli/rescaled_final/1026_rv.mp4	0.0	1433.0657949447632	
66	1410.8596951961517	movie	1		244	64.0	2.5	/experiments/AOT/AOT_stimuli/rescaled_final/1026_rv.mp4	0.0	1433.0739951133728	2.508384943008423
66	1412.4529230594635	pulse	1	t		64.0	2.5	/experiments/AOT/AOT_stimuli/rescaled_final/1026_rv.mp4	0.0	1434.6672229766846	
66	1413.3680801391602	fix_post	2		12	64.0	2.5	/experiments/AOT/AOT_stimuli/rescaled_final/1026_rv.mp4	0.0	1435.5823800563812	0.0999598503112793
67	1413.4680399894714	fix_pre	0		120	65.0	2.5	/experiments/AOT/AOT_stimuli/rescaled_final/1969_rv.mp4	0.0	1435.6823399066925	1.0007190704345703
67	1414.0515332221985	pulse	0	t		65.0	2.5	/experiments/AOT/AOT_stimuli/rescaled_final/1969_rv.mp4	0.0	1436.2658331394196	
67	1414.468759059906	movie	1		242	65.0	2.5	/experiments/AOT/AOT_stimuli/rescaled_final/1969_rv.mp4	0.0	1436.683058977127	2.4993460178375244
67	1415.651515007019	pulse	1	t		65.0	2.5	/experiments/AOT/AOT_stimuli/rescaled_final/1969_rv.mp4	0.0	1437.86581492424	
67	1416.9681050777435	fix_post	2		12	65.0	2.5	/experiments/AOT/AOT_stimuli/rescaled_final/1969_rv.mp4	0.0	1439.1824049949646	0.09998512268066406
68	1417.0680902004242	fix_pre	0		120	66.0	2.5	/experiments/AOT/AOT_stimuli/rescaled_final/1852_fw.mp4	0.0	1439.2823901176453	1.0000369548797607
68	1417.2514860630035	pulse	0	t		66.0	2.5	/experiments/AOT/AOT_stimuli/rescaled_final/1852_fw.mp4	0.0	1439.4657859802246	
68	1418.068127155304	movie	1		243	66.0	2.5	/experiments/AOT/AOT_stimuli/rescaled_final/1852_fw.mp4	0.0	1440.282427072525	2.49993896484375
68	1418.8515141010284	pulse	1	t		66.0	2.5	/experiments/AOT/AOT_stimuli/rescaled_final/1852_fw.mp4	0.0	1441.0658140182495	
68	1420.4499561786652	pulse	1	t		66.0	2.5	/experiments/AOT/AOT_stimuli/rescaled_final/1852_fw.mp4	0.0	1442.6642560958862	
68	1420.5680661201477	fix_post	2		12	66.0	2.5	/experiments/AOT/AOT_stimuli/rescaled_final/1852_fw.mp4	0.0	1442.7823660373688	0.09992408752441406
69	1420.6679902076721	fix_pre	0		120	67.0	2.5	/experiments/AOT/AOT_stimuli/rescaled_final/0431_fw.mp4	0.0	1442.8822901248932	1.0000369548797607
69	1421.6680271625519	movie	1		242	67.0	2.5	/experiments/AOT/AOT_stimuli/rescaled_final/0431_fw.mp4	0.0	1443.882327079773	2.499990940093994
69	1422.0515789985657	pulse	1	t		67.0	2.5	/experiments/AOT/AOT_stimuli/rescaled_final/0431_fw.mp4	0.0	1444.2658789157867	
69	1423.6514911651611	pulse	1	t		67.0	2.5	/experiments/AOT/AOT_stimuli/rescaled_final/0431_fw.mp4	0.0	1445.8657910823822	
69	1424.1680181026459	fix_post	2		12	67.0	2.5	/experiments/AOT/AOT_stimuli/rescaled_final/0431_fw.mp4	0.0	1446.382318019867	0.09996199607849121
70	1424.2679800987244	fix_pre	0		119	68.0	2.5	/experiments/AOT/AOT_stimuli/rescaled_final/0190_rv.mp4	0.0	1446.4822800159454	0.9917099475860596
70	1425.2515029907227	pulse	0	t		68.0	2.5	/experiments/AOT/AOT_stimuli/rescaled_final/0190_rv.mp4	0.0	1447.4658029079437	
70	1425.2596900463104	movie	1		245	68.0	2.5	/experiments/AOT/AOT_stimuli/rescaled_final/0190_rv.mp4	0.0	1447.4739899635315	2.508249044418335
70	1426.850434064865	pulse	1	t		68.0	2.5	/experiments/AOT/AOT_stimuli/rescaled_final/0190_rv.mp4	0.0	1449.0647339820862	
70	1427.7679390907288	fix_post	2		12	68.0	2.5	/experiments/AOT/AOT_stimuli/rescaled_final/0190_rv.mp4	0.0	1449.9822390079498	0.09965896606445312
71	1427.8675980567932	fix_pre	0		120	69.0	2.5	/experiments/AOT/AOT_stimuli/rescaled_final/1499_rv.mp4	0.0	1450.0818979740143	1.0001270771026611
71	1428.4515571594238	pulse	0	t		69.0	2.5	/experiments/AOT/AOT_stimuli/rescaled_final/1499_rv.mp4	0.0	1450.665857076645	
71	1428.8677251338959	movie	1		245	69.0	2.5	/experiments/AOT/AOT_stimuli/rescaled_final/1499_rv.mp4	0.0	1451.082025051117	2.5002338886260986
71	1430.0517530441284	pulse	1	t		69.0	2.5	/experiments/AOT/AOT_stimuli/rescaled_final/1499_rv.mp4	0.0	1452.2660529613495	
71	1431.367959022522	fix_post	2		12	69.0	2.5	/experiments/AOT/AOT_stimuli/rescaled_final/1499_rv.mp4	0.0	1453.582258939743	0.09997105598449707
72	1431.4679300785065	fix_pre	0		120	70.0	2.5	blank	1.0	1453.6822299957275	0.9995949268341064
72	1431.6514120101929	pulse	0	t		70.0	2.5	blank	1.0	1453.865711927414	
72	1432.4675250053406	movie	1		300	70.0	2.5	blank	1.0	1454.6818249225616	2.500383138656616
72	1433.2514181137085	pulse	1	t		70.0	2.5	blank	1.0	1455.4657180309296	
72	1434.8513050079346	pulse	1	t		70.0	2.5	blank	1.0	1457.0656049251556	
72	1434.9679081439972	fix_post	2		12	70.0	2.5	blank	1.0	1457.1822080612183	0.10001301765441895
73	1435.0679211616516	fix_pre	0		120	71.0	2.5	/experiments/AOT/AOT_stimuli/rescaled_final/2162_fw.mp4	0.0	1457.2822210788727	0.9999358654022217
73	1436.0678570270538	movie	1		245	71.0	2.5	/experiments/AOT/AOT_stimuli/rescaled_final/2162_fw.mp4	0.0	1458.282156944275	2.5000360012054443
73	1436.4508759975433	pulse	1	t		71.0	2.5	/experiments/AOT/AOT_stimuli/rescaled_final/2162_fw.mp4	0.0	1458.6651759147644	
73	1438.0512721538544	pulse	1	t		71.0	2.5	/experiments/AOT/AOT_stimuli/rescaled_final/2162_fw.mp4	0.0	1460.2655720710754	
73	1438.5678930282593	fix_post	2		12	71.0	2.5	/experiments/AOT/AOT_stimuli/rescaled_final/2162_fw.mp4	0.0	1460.7821929454803	0.10002017021179199
74	1438.667913198471	fix_pre	0		119	72.0	2.5	/experiments/AOT/AOT_stimuli/rescaled_final/0338_rv.mp4	0.0	1460.8822131156921	0.9916210174560547
74	1439.6513760089874	pulse	0	t		72.0	2.5	/experiments/AOT/AOT_stimuli/rescaled_final/0338_rv.mp4	0.0	1461.8656759262085	
74	1439.6595342159271	movie	1		244	72.0	2.5	/experiments/AOT/AOT_stimuli/rescaled_final/0338_rv.mp4	0.0	1461.8738341331482	2.5083539485931396
74	1441.2510471343994	pulse	1	t		72.0	2.5	/experiments/AOT/AOT_stimuli/rescaled_final/0338_rv.mp4	0.0	1463.4653470516205	
74	1442.1678881645203	fix_post	2		12	72.0	2.5	/experiments/AOT/AOT_stimuli/rescaled_final/0338_rv.mp4	0.0	1464.3821880817413	0.09994387626647949
75	1442.2678320407867	fix_pre	0		120	73.0	2.5	/experiments/AOT/AOT_stimuli/rescaled_final/0825_fw.mp4	0.0	1464.4821319580078	1.0000240802764893
75	1442.8513531684875	pulse	0	t		73.0	2.5	/experiments/AOT/AOT_stimuli/rescaled_final/0825_fw.mp4	0.0	1465.0656530857086	
75	1443.2678561210632	movie	1		246	73.0	2.5	/experiments/AOT/AOT_stimuli/rescaled_final/0825_fw.mp4	0.0	1465.4821560382843	2.499948024749756
75	1444.45139503479	pulse	1	t		73.0	2.5	/experiments/AOT/AOT_stimuli/rescaled_final/0825_fw.mp4	0.0	1466.665694952011	
75	1445.767804145813	fix_post	2		12	73.0	2.5	/experiments/AOT/AOT_stimuli/rescaled_final/0825_fw.mp4	0.0	1467.982104063034	0.10001802444458008
76	1445.8678221702576	fix_pre	0		120	74.0	2.5	/experiments/AOT/AOT_stimuli/rescaled_final/1582_fw.mp4	0.0	1468.0821220874786	1.0000150203704834
76	1446.051322221756	pulse	0	t		74.0	2.5	/experiments/AOT/AOT_stimuli/rescaled_final/1582_fw.mp4	0.0	1468.265622138977	
76	1446.867837190628	movie	1		244	74.0	2.5	/experiments/AOT/AOT_stimuli/rescaled_final/1582_fw.mp4	0.0	1469.0821371078491	2.4999849796295166
76	1447.6513350009918	pulse	1	t		74.0	2.5	/experiments/AOT/AOT_stimuli/rescaled_final/1582_fw.mp4	0.0	1469.865634918213	
76	1449.2500541210175	pulse	1	t		74.0	2.5	/experiments/AOT/AOT_stimuli/rescaled_final/1582_fw.mp4	0.0	1471.4643540382385	
76	1449.3678221702576	fix_post	2		12	74.0	2.5	/experiments/AOT/AOT_stimuli/rescaled_final/1582_fw.mp4	0.0	1471.5821220874786	0.0999908447265625
77	1449.4678130149841	fix_pre	0		120	75.0	2.5	blank	1.0	1471.6821129322052	1.0001220703125
77	1450.4679350852966	movie	1		300	75.0	2.5	blank	1.0	1472.6822350025177	2.4998939037323
77	1450.8513641357422	pulse	1	t		75.0	2.5	blank	1.0	1473.0656640529633	
77	1452.4513111114502	pulse	1	t		75.0	2.5	blank	1.0	1474.6656110286713	
77	1452.967828989029	fix_post	2		12	75.0	2.5	blank	1.0	1475.18212890625	0.09952616691589355
78	1453.0673551559448	fix_pre	0		119	76.0	2.5	/experiments/AOT/AOT_stimuli/rescaled_final/0107_fw.mp4	0.0	1475.281655073166	0.992089033126831
78	1454.051274061203	pulse	0	t		76.0	2.5	/experiments/AOT/AOT_stimuli/rescaled_final/0107_fw.mp4	0.0	1476.265573978424	
78	1454.0594441890717	movie	1		246	76.0	2.5	/experiments/AOT/AOT_stimuli/rescaled_final/0107_fw.mp4	0.0	1476.2737441062927	2.508359909057617
78	1455.650787115097	pulse	1	t		76.0	2.5	/experiments/AOT/AOT_stimuli/rescaled_final/0107_fw.mp4	0.0	1477.8650870323181	
78	1456.5678040981293	fix_post	2		12	76.0	2.5	/experiments/AOT/AOT_stimuli/rescaled_final/0107_fw.mp4	0.0	1478.7821040153503	0.09995293617248535
79	1456.6677570343018	fix_pre	0		120	77.0	2.5	/experiments/AOT/AOT_stimuli/rescaled_final/0355_rv.mp4	0.0	1478.8820569515228	1.0000309944152832
79	1457.2524971961975	pulse	0	t		77.0	2.5	/experiments/AOT/AOT_stimuli/rescaled_final/0355_rv.mp4	0.0	1479.4667971134186	
79	1457.667788028717	movie	1		244	77.0	2.5	/experiments/AOT/AOT_stimuli/rescaled_final/0355_rv.mp4	0.0	1479.882087945938	2.4999711513519287
79	1458.8513350486755	pulse	1	t		77.0	2.5	/experiments/AOT/AOT_stimuli/rescaled_final/0355_rv.mp4	0.0	1481.0656349658966	
79	1460.167759180069	fix_post	2		12	77.0	2.5	/experiments/AOT/AOT_stimuli/rescaled_final/0355_rv.mp4	0.0	1482.38205909729	0.09999394416809082
80	1460.267753124237	fix_pre	0		120	78.0	2.5	/experiments/AOT/AOT_stimuli/rescaled_final/0391_fw.mp4	0.0	1482.4820530414581	0.9999940395355225
80	1460.4512741565704	pulse	0	t		78.0	2.5	/experiments/AOT/AOT_stimuli/rescaled_final/0391_fw.mp4	0.0	1482.6655740737915	
80	1461.2677471637726	movie	1		243	78.0	2.5	/experiments/AOT/AOT_stimuli/rescaled_final/0391_fw.mp4	0.0	1483.4820470809937	2.5000159740448
80	1462.051206111908	pulse	1	t		78.0	2.5	/experiments/AOT/AOT_stimuli/rescaled_final/0391_fw.mp4	0.0	1484.265506029129	
80	1463.6498081684113	pulse	1	t		78.0	2.5	/experiments/AOT/AOT_stimuli/rescaled_final/0391_fw.mp4	0.0	1485.8641080856323	
80	1463.7677631378174	fix_post	2		12	78.0	2.5	/experiments/AOT/AOT_stimuli/rescaled_final/0391_fw.mp4	0.0	1485.9820630550385	0.09996795654296875
81	1463.8677310943604	fix_pre	0		120	79.0	2.5	/experiments/AOT/AOT_stimuli/rescaled_final/0673_fw.mp4	0.0	1486.0820310115814	0.9995810985565186
81	1464.8673121929169	movie	1		244	79.0	2.5	/experiments/AOT/AOT_stimuli/rescaled_final/0673_fw.mp4	0.0	1487.081612110138	2.4999279975891113
81	1465.2509820461273	pulse	1	t		79.0	2.5	/experiments/AOT/AOT_stimuli/rescaled_final/0673_fw.mp4	0.0	1487.4652819633484	
81	1466.8511991500854	pulse	1	t		79.0	2.5	/experiments/AOT/AOT_stimuli/rescaled_final/0673_fw.mp4	0.0	1489.0654990673065	
81	1467.367240190506	fix_post	2		12	79.0	2.5	/experiments/AOT/AOT_stimuli/rescaled_final/0673_fw.mp4	0.0	1489.581540107727	0.10062003135681152
82	1467.4678602218628	fix_pre	0		119	80.0	2.5	/experiments/AOT/AOT_stimuli/rescaled_final/1153_rv.mp4	0.0	1489.6821601390839	0.9915688037872314
82	1468.4512221813202	pulse	0	t		80.0	2.5	/experiments/AOT/AOT_stimuli/rescaled_final/1153_rv.mp4	0.0	1490.6655220985413	
82	1468.45942902565	movie	1		248	80.0	2.5	/experiments/AOT/AOT_stimuli/rescaled_final/1153_rv.mp4	0.0	1490.673728942871	2.5078811645507812
82	1470.0521371364594	pulse	1	t		80.0	2.5	/experiments/AOT/AOT_stimuli/rescaled_final/1153_rv.mp4	0.0	1492.2664370536804	
82	1470.9673101902008	fix_post	2		12	80.0	2.5	/experiments/AOT/AOT_stimuli/rescaled_final/1153_rv.mp4	0.0	1493.1816101074219	0.10036182403564453
83	1471.0676720142365	fix_pre	0		120	81.0	2.5	/experiments/AOT/AOT_stimuli/rescaled_final/1128_rv.mp4	0.0	1493.2819719314575	1.000110149383545
83	1471.6513030529022	pulse	0	t		81.0	2.5	/experiments/AOT/AOT_stimuli/rescaled_final/1128_rv.mp4	0.0	1493.8656029701233	
83	1472.06778216362	movie	1		243	81.0	2.5	/experiments/AOT/AOT_stimuli/rescaled_final/1128_rv.mp4	0.0	1494.282082080841	2.4999208450317383
83	1473.2513451576233	pulse	1	t		81.0	2.5	/experiments/AOT/AOT_stimuli/rescaled_final/1128_rv.mp4	0.0	1495.4656450748444	
83	1474.5677030086517	fix_post	2		12	81.0	2.5	/experiments/AOT/AOT_stimuli/rescaled_final/1128_rv.mp4	0.0	1496.7820029258728	0.0999901294708252
84	1474.6676931381226	fix_pre	0		120	82.0	2.5	blank	1.0	1496.8819930553436	1.0000460147857666
84	1474.8512871265411	pulse	0	t		82.0	2.5	blank	1.0	1497.0655870437622	
84	1475.6677391529083	movie	1		300	82.0	2.5	blank	1.0	1497.8820390701294	2.4999489784240723
84	1476.4512121677399	pulse	1	t		82.0	2.5	blank	1.0	1498.665512084961	
84	1478.051197052002	pulse	1	t		82.0	2.5	blank	1.0	1500.265496969223	
84	1478.1676881313324	fix_post	2		12	82.0	2.5	blank	1.0	1500.3819880485535	0.09997391700744629
85	1478.2676620483398	fix_pre	0		120	83.0	2.5	/experiments/AOT/AOT_stimuli/rescaled_final/0258_fw.mp4	0.0	1500.481961965561	1.0001721382141113
85	1479.267834186554	movie	1		244	83.0	2.5	/experiments/AOT/AOT_stimuli/rescaled_final/0258_fw.mp4	0.0	1501.482134103775	2.499884843826294
85	1479.6508061885834	pulse	1	t		83.0	2.5	/experiments/AOT/AOT_stimuli/rescaled_final/0258_fw.mp4	0.0	1501.8651061058044	
85	1481.2511970996857	pulse	1	t		83.0	2.5	/experiments/AOT/AOT_stimuli/rescaled_final/0258_fw.mp4	0.0	1503.4654970169067	
85	1481.7677190303802	fix_post	2		12	83.0	2.5	/experiments/AOT/AOT_stimuli/rescaled_final/0258_fw.mp4	0.0	1503.9820189476013	0.09996199607849121
87	1481.8676810264587	stim	0		1716					1504.0819809436798	14.29996919631958
87	1482.850783109665	pulse	0	t						1505.065083026886	
87	1484.4512832164764	pulse	0	t						1506.6655831336975	
87	1486.0510702133179	pulse	0	t						1508.265370130539	
87	1487.6511611938477	pulse	0	t						1509.8654611110687	
87	1489.2510890960693	pulse	0	t						1511.4653890132904	
87	1490.8510692119598	pulse	0	t						1513.065369129181	
87	1492.4510881900787	pulse	0	t						1514.6653881072998	
87	1494.0510301589966	pulse	0	t						1516.2653300762177	
87	1495.6510422229767	pulse	0	t						1517.8653421401978	
