trial_nr	onset	event_type	phase	response	nr_frames	movie_index	movie_duration	movie_file	blank	onset_abs	duration
0	0.2084510326385498	stim	0		37					85.18929600715637	0.30820608139038086
0	0.508634090423584	response	0	space						85.4894790649414	
1	0.5166571140289307	stim	0		4272					85.49750208854675	35.61498689651489
1	36.12157702445984	pulse	0	t						121.10242199897766	
1	36.13164401054382	stim	1		1716					121.11248898506165	14.300772905349731
1	37.714142084121704	pulse	1	t						122.69498705863953	
1	39.314249992370605	pulse	1	t						124.29509496688843	
1	40.91455602645874	pulse	1	t						125.89540100097656	
1	42.5148229598999	pulse	1	t						127.49566793441772	
1	44.115012884140015	pulse	1	t						129.09585785865784	
1	45.7153480052948	pulse	1	t						130.69619297981262	
1	47.3154571056366	pulse	1	t						132.29630208015442	
1	48.915700912475586	pulse	1	t						133.8965458869934	
2	50.432416915893555	fix_pre	0		11	0.0	2.5	/experiments/knapen_AOT/AOT_stimuli/rescaled_final/0061_fw.mp4	0.0	135.41326189041138	0.0917661190032959
2	50.51595687866211	pulse	0	t		0.0	2.5	/experiments/knapen_AOT/AOT_stimuli/rescaled_final/0061_fw.mp4	0.0	135.49680185317993	
2	50.52418303489685	movie	1		243	0.0	2.5	/experiments/knapen_AOT/AOT_stimuli/rescaled_final/0061_fw.mp4	0.0	135.50502800941467	2.508631944656372
2	52.12116599082947	pulse	1	t		0.0	2.5	/experiments/knapen_AOT/AOT_stimuli/rescaled_final/0061_fw.mp4	0.0	137.1020109653473	
2	53.03281497955322	fix_post	2		12	0.0	2.5	/experiments/knapen_AOT/AOT_stimuli/rescaled_final/0061_fw.mp4	0.0	138.01365995407104	0.10001301765441895
3	53.13282799720764	fix_pre	0		120	1.0	2.5	/experiments/knapen_AOT/AOT_stimuli/rescaled_final/0740_rv.mp4	0.0	138.11367297172546	1.0001840591430664
3	53.71640992164612	pulse	0	t		1.0	2.5	/experiments/knapen_AOT/AOT_stimuli/rescaled_final/0740_rv.mp4	0.0	138.69725489616394	
3	54.13301205635071	movie	1		244	1.0	2.5	/experiments/knapen_AOT/AOT_stimuli/rescaled_final/0740_rv.mp4	0.0	139.11385703086853	2.5003550052642822
3	55.31680107116699	pulse	1	t		1.0	2.5	/experiments/knapen_AOT/AOT_stimuli/rescaled_final/0740_rv.mp4	0.0	140.29764604568481	
3	56.63336706161499	fix_post	2		12	1.0	2.5	/experiments/knapen_AOT/AOT_stimuli/rescaled_final/0740_rv.mp4	0.0	141.6142120361328	0.10001802444458008
4	56.73338508605957	fix_pre	0		120	2.0	2.5	/experiments/knapen_AOT/AOT_stimuli/rescaled_final/1387_fw.mp4	0.0	141.7142300605774	1.000126838684082
4	56.91689491271973	pulse	0	t		2.0	2.5	/experiments/knapen_AOT/AOT_stimuli/rescaled_final/1387_fw.mp4	0.0	141.89773988723755	
4	57.73351192474365	movie	1		243	2.0	2.5	/experiments/knapen_AOT/AOT_stimuli/rescaled_final/1387_fw.mp4	0.0	142.71435689926147	2.500432014465332
4	58.517247915267944	pulse	1	t		2.0	2.5	/experiments/knapen_AOT/AOT_stimuli/rescaled_final/1387_fw.mp4	0.0	143.49809288978577	
4	60.11718392372131	pulse	1	t		2.0	2.5	/experiments/knapen_AOT/AOT_stimuli/rescaled_final/1387_fw.mp4	0.0	145.09802889823914	
4	60.233943939208984	fix_post	2		12	2.0	2.5	/experiments/knapen_AOT/AOT_stimuli/rescaled_final/1387_fw.mp4	0.0	145.2147889137268	0.09992814064025879
5	60.33387207984924	fix_pre	0		120	3.0	2.5	/experiments/knapen_AOT/AOT_stimuli/rescaled_final/0553_rv.mp4	0.0	145.31471705436707	1.000255823135376
5	61.33412790298462	movie	1		241	3.0	2.5	/experiments/knapen_AOT/AOT_stimuli/rescaled_final/0553_rv.mp4	0.0	146.31497287750244	2.492105007171631
5	61.71855902671814	pulse	1	t		3.0	2.5	/experiments/knapen_AOT/AOT_stimuli/rescaled_final/0553_rv.mp4	0.0	146.69940400123596	
5	63.31786608695984	pulse	1	t		3.0	2.5	/experiments/knapen_AOT/AOT_stimuli/rescaled_final/0553_rv.mp4	0.0	148.29871106147766	
5	63.82623291015625	fix_post	2		12	3.0	2.5	/experiments/knapen_AOT/AOT_stimuli/rescaled_final/0553_rv.mp4	0.0	148.80707788467407	0.09994196891784668
6	63.9261748790741	fix_pre	0		120	4.0	2.5	/experiments/knapen_AOT/AOT_stimuli/rescaled_final/2034_rv.mp4	0.0	148.90701985359192	1.0001661777496338
6	64.91807508468628	pulse	0	t		4.0	2.5	/experiments/knapen_AOT/AOT_stimuli/rescaled_final/2034_rv.mp4	0.0	149.8989200592041	
6	64.92634105682373	movie	1		245	4.0	2.5	/experiments/knapen_AOT/AOT_stimuli/rescaled_final/2034_rv.mp4	0.0	149.90718603134155	2.5086328983306885
6	66.51976299285889	pulse	1	t		4.0	2.5	/experiments/knapen_AOT/AOT_stimuli/rescaled_final/2034_rv.mp4	0.0	151.5006079673767	
6	67.43497395515442	fix_post	2		12	4.0	2.5	/experiments/knapen_AOT/AOT_stimuli/rescaled_final/2034_rv.mp4	0.0	152.41581892967224	0.10000801086425781
7	67.53498196601868	fix_pre	0		120	5.0	2.5	/experiments/knapen_AOT/AOT_stimuli/rescaled_final/0298_rv.mp4	0.0	152.5158269405365	1.0002031326293945
7	68.11861896514893	pulse	0	t		5.0	2.5	/experiments/knapen_AOT/AOT_stimuli/rescaled_final/0298_rv.mp4	0.0	153.09946393966675	
7	68.53518509864807	movie	1		242	5.0	2.5	/experiments/knapen_AOT/AOT_stimuli/rescaled_final/0298_rv.mp4	0.0	153.5160300731659	2.500459909439087
7	69.71888709068298	pulse	1	t		5.0	2.5	/experiments/knapen_AOT/AOT_stimuli/rescaled_final/0298_rv.mp4	0.0	154.6997320652008	
7	71.03564500808716	fix_post	2		12	5.0	2.5	/experiments/knapen_AOT/AOT_stimuli/rescaled_final/0298_rv.mp4	0.0	156.01648998260498	0.09991598129272461
8	71.13556098937988	fix_pre	0		120	6.0	2.5	blank	1.0	156.1164059638977	1.000119924545288
8	71.31165790557861	pulse	0	t		6.0	2.5	blank	1.0	156.29250288009644	
8	72.13568091392517	movie	1		300	6.0	2.5	blank	1.0	157.116525888443	2.500413179397583
8	72.91174602508545	pulse	1	t		6.0	2.5	blank	1.0	157.89259099960327	
8	74.51203894615173	pulse	1	t		6.0	2.5	blank	1.0	159.49288392066956	
8	74.63609409332275	fix_post	2		12	6.0	2.5	blank	1.0	159.61693906784058	0.09997391700744629
9	74.7360680103302	fix_pre	0		120	7.0	2.5	/experiments/knapen_AOT/AOT_stimuli/rescaled_final/0233_fw.mp4	0.0	159.71691298484802	1.0001718997955322
9	75.73623991012573	movie	1		241	7.0	2.5	/experiments/knapen_AOT/AOT_stimuli/rescaled_final/0233_fw.mp4	0.0	160.71708488464355	2.4922311305999756
9	76.12113690376282	pulse	1	t		7.0	2.5	/experiments/knapen_AOT/AOT_stimuli/rescaled_final/0233_fw.mp4	0.0	161.10198187828064	
9	77.71194791793823	pulse	1	t		7.0	2.5	/experiments/knapen_AOT/AOT_stimuli/rescaled_final/0233_fw.mp4	0.0	162.69279289245605	
9	78.22847104072571	fix_post	2		12	7.0	2.5	/experiments/knapen_AOT/AOT_stimuli/rescaled_final/0233_fw.mp4	0.0	163.20931601524353	0.09981584548950195
10	78.32828688621521	fix_pre	0		119	8.0	2.5	/experiments/knapen_AOT/AOT_stimuli/rescaled_final/1381_fw.mp4	0.0	163.30913186073303	0.9918670654296875
10	79.3118839263916	pulse	0	t		8.0	2.5	/experiments/knapen_AOT/AOT_stimuli/rescaled_final/1381_fw.mp4	0.0	164.29272890090942	
10	79.3201539516449	movie	1		244	8.0	2.5	/experiments/knapen_AOT/AOT_stimuli/rescaled_final/1381_fw.mp4	0.0	164.30099892616272	2.5086710453033447
10	80.91269087791443	pulse	1	t		8.0	2.5	/experiments/knapen_AOT/AOT_stimuli/rescaled_final/1381_fw.mp4	0.0	165.89353585243225	
10	81.82882499694824	fix_post	2		12	8.0	2.5	/experiments/knapen_AOT/AOT_stimuli/rescaled_final/1381_fw.mp4	0.0	166.80966997146606	0.09997892379760742
11	81.92880392074585	fix_pre	0		120	9.0	2.5	/experiments/knapen_AOT/AOT_stimuli/rescaled_final/2081_fw.mp4	0.0	166.90964889526367	1.0001740455627441
11	82.51249408721924	pulse	0	t		9.0	2.5	/experiments/knapen_AOT/AOT_stimuli/rescaled_final/2081_fw.mp4	0.0	167.49333906173706	
11	82.9289779663086	movie	1		243	9.0	2.5	/experiments/knapen_AOT/AOT_stimuli/rescaled_final/2081_fw.mp4	0.0	167.90982294082642	2.5005221366882324
11	84.11279010772705	pulse	1	t		9.0	2.5	/experiments/knapen_AOT/AOT_stimuli/rescaled_final/2081_fw.mp4	0.0	169.09363508224487	
11	85.42950010299683	fix_post	2		12	9.0	2.5	/experiments/knapen_AOT/AOT_stimuli/rescaled_final/2081_fw.mp4	0.0	170.41034507751465	0.09988594055175781
12	85.52938604354858	fix_pre	0		120	10.0	2.5	/experiments/knapen_AOT/AOT_stimuli/rescaled_final/0557_rv.mp4	0.0	170.5102310180664	1.0002310276031494
12	85.71281409263611	pulse	0	t		10.0	2.5	/experiments/knapen_AOT/AOT_stimuli/rescaled_final/0557_rv.mp4	0.0	170.69365906715393	
12	86.52961707115173	movie	1		243	10.0	2.5	/experiments/knapen_AOT/AOT_stimuli/rescaled_final/0557_rv.mp4	0.0	171.51046204566956	2.500300884246826
12	87.31308507919312	pulse	1	t		10.0	2.5	/experiments/knapen_AOT/AOT_stimuli/rescaled_final/0557_rv.mp4	0.0	172.29393005371094	
12	88.91326999664307	pulse	1	t		10.0	2.5	/experiments/knapen_AOT/AOT_stimuli/rescaled_final/0557_rv.mp4	0.0	173.8941149711609	
12	89.02991795539856	fix_post	2		12	10.0	2.5	/experiments/knapen_AOT/AOT_stimuli/rescaled_final/0557_rv.mp4	0.0	174.01076292991638	0.09995007514953613
13	89.1298680305481	fix_pre	0		119	11.0	2.5	/experiments/knapen_AOT/AOT_stimuli/rescaled_final/0430_fw.mp4	0.0	174.11071300506592	0.9917950630187988
13	90.1216630935669	movie	1		241	11.0	2.5	/experiments/knapen_AOT/AOT_stimuli/rescaled_final/0430_fw.mp4	0.0	175.10250806808472	2.517220973968506
13	90.51367902755737	pulse	1	t		11.0	2.5	/experiments/knapen_AOT/AOT_stimuli/rescaled_final/0430_fw.mp4	0.0	175.4945240020752	
13	92.11384606361389	pulse	1	t		11.0	2.5	/experiments/knapen_AOT/AOT_stimuli/rescaled_final/0430_fw.mp4	0.0	177.0946910381317	
13	92.6388840675354	fix_post	2		10	11.0	2.5	/experiments/knapen_AOT/AOT_stimuli/rescaled_final/0430_fw.mp4	0.0	177.61972904205322	0.08321189880371094
14	92.72209596633911	fix_pre	0		120	12.0	2.5	/experiments/knapen_AOT/AOT_stimuli/rescaled_final/0093_fw.mp4	0.0	177.70294094085693	1.0001220703125
14	93.71400904655457	pulse	0	t		12.0	2.5	/experiments/knapen_AOT/AOT_stimuli/rescaled_final/0093_fw.mp4	0.0	178.6948540210724	
14	93.72221803665161	movie	1		245	12.0	2.5	/experiments/knapen_AOT/AOT_stimuli/rescaled_final/0093_fw.mp4	0.0	178.70306301116943	2.5086870193481445
14	95.31483507156372	pulse	1	t		12.0	2.5	/experiments/knapen_AOT/AOT_stimuli/rescaled_final/0093_fw.mp4	0.0	180.29568004608154	
14	96.23090505599976	fix_post	2		12	12.0	2.5	/experiments/knapen_AOT/AOT_stimuli/rescaled_final/0093_fw.mp4	0.0	181.21175003051758	0.10008096694946289
15	96.33098602294922	fix_pre	0		120	13.0	2.5	/experiments/knapen_AOT/AOT_stimuli/rescaled_final/0096_fw.mp4	0.0	181.31183099746704	1.000196933746338
15	96.91454410552979	pulse	0	t		13.0	2.5	/experiments/knapen_AOT/AOT_stimuli/rescaled_final/0096_fw.mp4	0.0	181.8953890800476	
15	97.33118295669556	movie	1		242	13.0	2.5	/experiments/knapen_AOT/AOT_stimuli/rescaled_final/0096_fw.mp4	0.0	182.31202793121338	2.5005171298980713
15	98.51489210128784	pulse	1	t		13.0	2.5	/experiments/knapen_AOT/AOT_stimuli/rescaled_final/0096_fw.mp4	0.0	183.49573707580566	
15	99.83170008659363	fix_post	2		12	13.0	2.5	/experiments/knapen_AOT/AOT_stimuli/rescaled_final/0096_fw.mp4	0.0	184.81254506111145	0.09981298446655273
16	99.93151307106018	fix_pre	0		120	14.0	2.5	blank	1.0	184.912358045578	1.0001678466796875
16	100.11498403549194	pulse	0	t		14.0	2.5	blank	1.0	185.09582901000977	
16	100.93168091773987	movie	1		300	14.0	2.5	blank	1.0	185.9125258922577	2.5003230571746826
16	101.71532106399536	pulse	1	t		14.0	2.5	blank	1.0	186.69616603851318	
16	103.31562995910645	pulse	1	t		14.0	2.5	blank	1.0	188.29647493362427	
16	103.43200397491455	fix_post	2		12	14.0	2.5	blank	1.0	188.41284894943237	0.10010099411010742
17	103.53210496902466	fix_pre	0		119	15.0	2.5	/experiments/knapen_AOT/AOT_stimuli/rescaled_final/2044_rv.mp4	0.0	188.51294994354248	0.9916989803314209
17	104.52380394935608	movie	1		243	15.0	2.5	/experiments/knapen_AOT/AOT_stimuli/rescaled_final/2044_rv.mp4	0.0	189.5046489238739	2.500601053237915
17	104.91597008705139	pulse	1	t		15.0	2.5	/experiments/knapen_AOT/AOT_stimuli/rescaled_final/2044_rv.mp4	0.0	189.8968150615692	
17	106.51591491699219	pulse	1	t		15.0	2.5	/experiments/knapen_AOT/AOT_stimuli/rescaled_final/2044_rv.mp4	0.0	191.49675989151	
17	107.024405002594	fix_post	2		12	15.0	2.5	/experiments/knapen_AOT/AOT_stimuli/rescaled_final/2044_rv.mp4	0.0	192.00524997711182	0.09986710548400879
18	107.124272108078	fix_pre	0		120	16.0	2.5	/experiments/knapen_AOT/AOT_stimuli/rescaled_final/1087_fw.mp4	0.0	192.10511708259583	1.0001039505004883
18	108.11628794670105	pulse	0	t		16.0	2.5	/experiments/knapen_AOT/AOT_stimuli/rescaled_final/1087_fw.mp4	0.0	193.09713292121887	
18	108.12437605857849	movie	1		244	16.0	2.5	/experiments/knapen_AOT/AOT_stimuli/rescaled_final/1087_fw.mp4	0.0	193.1052210330963	2.5087778568267822
18	109.71699810028076	pulse	1	t		16.0	2.5	/experiments/knapen_AOT/AOT_stimuli/rescaled_final/1087_fw.mp4	0.0	194.69784307479858	
18	110.63315391540527	fix_post	2		12	16.0	2.5	/experiments/knapen_AOT/AOT_stimuli/rescaled_final/1087_fw.mp4	0.0	195.6139988899231	0.09997200965881348
19	110.73312592506409	fix_pre	0		120	17.0	2.5	/experiments/knapen_AOT/AOT_stimuli/rescaled_final/0739_rv.mp4	0.0	195.7139708995819	1.0001311302185059
19	111.31677103042603	pulse	0	t		17.0	2.5	/experiments/knapen_AOT/AOT_stimuli/rescaled_final/0739_rv.mp4	0.0	196.29761600494385	
19	111.73325705528259	movie	1		243	17.0	2.5	/experiments/knapen_AOT/AOT_stimuli/rescaled_final/0739_rv.mp4	0.0	196.71410202980042	2.5005569458007812
19	112.91703009605408	pulse	1	t		17.0	2.5	/experiments/knapen_AOT/AOT_stimuli/rescaled_final/0739_rv.mp4	0.0	197.8978750705719	
19	114.23381400108337	fix_post	2		12	17.0	2.5	/experiments/knapen_AOT/AOT_stimuli/rescaled_final/0739_rv.mp4	0.0	199.2146589756012	0.09987807273864746
20	114.33369207382202	fix_pre	0		120	18.0	2.5	/experiments/knapen_AOT/AOT_stimuli/rescaled_final/1014_fw.mp4	0.0	199.31453704833984	1.0000879764556885
20	114.51715803146362	pulse	0	t		18.0	2.5	/experiments/knapen_AOT/AOT_stimuli/rescaled_final/1014_fw.mp4	0.0	199.49800300598145	
20	115.33378005027771	movie	1		242	18.0	2.5	/experiments/knapen_AOT/AOT_stimuli/rescaled_final/1014_fw.mp4	0.0	200.31462502479553	2.5004868507385254
20	116.11749601364136	pulse	1	t		18.0	2.5	/experiments/knapen_AOT/AOT_stimuli/rescaled_final/1014_fw.mp4	0.0	201.09834098815918	
20	117.71744298934937	pulse	1	t		18.0	2.5	/experiments/knapen_AOT/AOT_stimuli/rescaled_final/1014_fw.mp4	0.0	202.6982879638672	
20	117.83426690101624	fix_post	2		12	18.0	2.5	/experiments/knapen_AOT/AOT_stimuli/rescaled_final/1014_fw.mp4	0.0	202.81511187553406	0.10000801086425781
21	117.9342749118805	fix_pre	0		120	19.0	2.5	/experiments/knapen_AOT/AOT_stimuli/rescaled_final/1491_rv.mp4	0.0	202.91511988639832	1.0000569820404053
21	118.9343318939209	movie	1		242	19.0	2.5	/experiments/knapen_AOT/AOT_stimuli/rescaled_final/1491_rv.mp4	0.0	203.91517686843872	2.4922690391540527
21	119.31913304328918	pulse	1	t		19.0	2.5	/experiments/knapen_AOT/AOT_stimuli/rescaled_final/1491_rv.mp4	0.0	204.299978017807	
21	120.91807389259338	pulse	1	t		19.0	2.5	/experiments/knapen_AOT/AOT_stimuli/rescaled_final/1491_rv.mp4	0.0	205.8989188671112	
21	121.42660093307495	fix_post	2		12	19.0	2.5	/experiments/knapen_AOT/AOT_stimuli/rescaled_final/1491_rv.mp4	0.0	206.40744590759277	0.0998220443725586
22	121.52642297744751	fix_pre	0		120	20.0	2.5	/experiments/knapen_AOT/AOT_stimuli/rescaled_final/0061_fw.mp4	0.0	206.50726795196533	1.0001139640808105
22	122.51834297180176	pulse	0	t		20.0	2.5	/experiments/knapen_AOT/AOT_stimuli/rescaled_final/0061_fw.mp4	0.0	207.49918794631958	
22	122.52653694152832	movie	1		244	20.0	2.5	/experiments/knapen_AOT/AOT_stimuli/rescaled_final/0061_fw.mp4	0.0	207.50738191604614	2.5086851119995117
22	124.11903595924377	pulse	1	t		20.0	2.5	/experiments/knapen_AOT/AOT_stimuli/rescaled_final/0061_fw.mp4	0.0	209.0998809337616	
22	125.03522205352783	fix_post	2		12	20.0	2.5	/experiments/knapen_AOT/AOT_stimuli/rescaled_final/0061_fw.mp4	0.0	210.01606702804565	0.10003805160522461
23	125.13526010513306	fix_pre	0		120	21.0	2.5	blank	1.0	210.11610507965088	1.0001239776611328
23	125.71134805679321	pulse	0	t		21.0	2.5	blank	1.0	210.69219303131104	
23	126.13538408279419	movie	1		300	21.0	2.5	blank	1.0	211.116229057312	2.5003578662872314
23	127.31163311004639	pulse	1	t		21.0	2.5	blank	1.0	212.2924780845642	
23	128.63574194908142	fix_post	2		12	21.0	2.5	blank	1.0	213.61658692359924	0.10002899169921875
24	128.73577094078064	fix_pre	0		120	22.0	2.5	/experiments/knapen_AOT/AOT_stimuli/rescaled_final/1098_rv.mp4	0.0	213.71661591529846	1.000223159790039
24	128.91176509857178	pulse	0	t		22.0	2.5	/experiments/knapen_AOT/AOT_stimuli/rescaled_final/1098_rv.mp4	0.0	213.8926100730896	
24	129.73599410057068	movie	1		244	22.0	2.5	/experiments/knapen_AOT/AOT_stimuli/rescaled_final/1098_rv.mp4	0.0	214.7168390750885	2.5003018379211426
24	130.51216101646423	pulse	1	t		22.0	2.5	/experiments/knapen_AOT/AOT_stimuli/rescaled_final/1098_rv.mp4	0.0	215.49300599098206	
24	132.11151909828186	pulse	1	t		22.0	2.5	/experiments/knapen_AOT/AOT_stimuli/rescaled_final/1098_rv.mp4	0.0	217.09236407279968	
24	132.23629593849182	fix_post	2		12	22.0	2.5	/experiments/knapen_AOT/AOT_stimuli/rescaled_final/1098_rv.mp4	0.0	217.21714091300964	0.10003113746643066
25	132.33632707595825	fix_pre	0		120	23.0	2.5	/experiments/knapen_AOT/AOT_stimuli/rescaled_final/0045_fw.mp4	0.0	217.31717205047607	1.0001788139343262
25	133.33650588989258	movie	1		241	23.0	2.5	/experiments/knapen_AOT/AOT_stimuli/rescaled_final/0045_fw.mp4	0.0	218.3173508644104	2.4921631813049316
25	133.71163892745972	pulse	1	t		23.0	2.5	/experiments/knapen_AOT/AOT_stimuli/rescaled_final/0045_fw.mp4	0.0	218.69248390197754	
25	135.31205105781555	pulse	1	t		23.0	2.5	/experiments/knapen_AOT/AOT_stimuli/rescaled_final/0045_fw.mp4	0.0	220.29289603233337	
25	135.8286690711975	fix_post	2		12	23.0	2.5	/experiments/knapen_AOT/AOT_stimuli/rescaled_final/0045_fw.mp4	0.0	220.80951404571533	0.09992384910583496
26	135.92859292030334	fix_pre	0		119	24.0	2.5	/experiments/knapen_AOT/AOT_stimuli/rescaled_final/0666_fw.mp4	0.0	220.90943789482117	0.9917240142822266
26	136.91225504875183	pulse	0	t		24.0	2.5	/experiments/knapen_AOT/AOT_stimuli/rescaled_final/0666_fw.mp4	0.0	221.89310002326965	
26	136.92031693458557	movie	1		243	24.0	2.5	/experiments/knapen_AOT/AOT_stimuli/rescaled_final/0666_fw.mp4	0.0	221.9011619091034	2.5088679790496826
26	138.51290202140808	pulse	1	t		24.0	2.5	/experiments/knapen_AOT/AOT_stimuli/rescaled_final/0666_fw.mp4	0.0	223.4937469959259	
26	139.42918491363525	fix_post	2		12	24.0	2.5	/experiments/knapen_AOT/AOT_stimuli/rescaled_final/0666_fw.mp4	0.0	224.41002988815308	0.09991312026977539
27	139.52909803390503	fix_pre	0		120	25.0	2.5	/experiments/knapen_AOT/AOT_stimuli/rescaled_final/1122_fw.mp4	0.0	224.50994300842285	1.0001389980316162
27	140.1126799583435	pulse	0	t		25.0	2.5	/experiments/knapen_AOT/AOT_stimuli/rescaled_final/1122_fw.mp4	0.0	225.09352493286133	
27	140.52923703193665	movie	1		243	25.0	2.5	/experiments/knapen_AOT/AOT_stimuli/rescaled_final/1122_fw.mp4	0.0	225.51008200645447	2.500483989715576
27	141.71294403076172	pulse	1	t		25.0	2.5	/experiments/knapen_AOT/AOT_stimuli/rescaled_final/1122_fw.mp4	0.0	226.69378900527954	
27	143.02972102165222	fix_post	2		12	25.0	2.5	/experiments/knapen_AOT/AOT_stimuli/rescaled_final/1122_fw.mp4	0.0	228.01056599617004	0.09990191459655762
28	143.12962293624878	fix_pre	0		120	26.0	2.5	/experiments/knapen_AOT/AOT_stimuli/rescaled_final/0229_rv.mp4	0.0	228.1104679107666	1.000096082687378
28	143.3131890296936	pulse	0	t		26.0	2.5	/experiments/knapen_AOT/AOT_stimuli/rescaled_final/0229_rv.mp4	0.0	228.29403400421143	
28	144.12971901893616	movie	1		242	26.0	2.5	/experiments/knapen_AOT/AOT_stimuli/rescaled_final/0229_rv.mp4	0.0	229.11056399345398	2.5005669593811035
28	144.91344904899597	pulse	1	t		26.0	2.5	/experiments/knapen_AOT/AOT_stimuli/rescaled_final/0229_rv.mp4	0.0	229.8942940235138	
28	146.5138590335846	pulse	1	t		26.0	2.5	/experiments/knapen_AOT/AOT_stimuli/rescaled_final/0229_rv.mp4	0.0	231.49470400810242	
28	146.63028597831726	fix_post	2		12	26.0	2.5	/experiments/knapen_AOT/AOT_stimuli/rescaled_final/0229_rv.mp4	0.0	231.61113095283508	0.09999799728393555
29	146.7302839756012	fix_pre	0		120	27.0	2.5	/experiments/knapen_AOT/AOT_stimuli/rescaled_final/1347_rv.mp4	0.0	231.71112895011902	0.9999899864196777
29	147.73027396202087	movie	1		242	27.0	2.5	/experiments/knapen_AOT/AOT_stimuli/rescaled_final/1347_rv.mp4	0.0	232.7111189365387	2.4923229217529297
29	148.11835408210754	pulse	1	t		27.0	2.5	/experiments/knapen_AOT/AOT_stimuli/rescaled_final/1347_rv.mp4	0.0	233.09919905662537	
29	149.71411395072937	pulse	1	t		27.0	2.5	/experiments/knapen_AOT/AOT_stimuli/rescaled_final/1347_rv.mp4	0.0	234.6949589252472	
29	150.2225968837738	fix_post	2		12	27.0	2.5	/experiments/knapen_AOT/AOT_stimuli/rescaled_final/1347_rv.mp4	0.0	235.20344185829163	0.09972810745239258
30	150.3223249912262	fix_pre	0		120	28.0	2.5	blank	1.0	235.30316996574402	1.0002388954162598
30	151.31440901756287	pulse	0	t		28.0	2.5	blank	1.0	236.2952539920807	
30	151.32256388664246	movie	1		301	28.0	2.5	blank	1.0	236.30340886116028	2.508683204650879
30	152.9146339893341	pulse	1	t		28.0	2.5	blank	1.0	237.89547896385193	
30	153.83124709129333	fix_post	2		9	28.0	2.5	blank	1.0	238.81209206581116	0.10000896453857422
31	153.9312560558319	fix_pre	0		120	29.0	2.5	/experiments/knapen_AOT/AOT_stimuli/rescaled_final/0229_fw.mp4	0.0	238.91210103034973	1.0000839233398438
31	154.514790058136	pulse	0	t		29.0	2.5	/experiments/knapen_AOT/AOT_stimuli/rescaled_final/0229_fw.mp4	0.0	239.4956350326538	
31	154.93133997917175	movie	1		242	29.0	2.5	/experiments/knapen_AOT/AOT_stimuli/rescaled_final/0229_fw.mp4	0.0	239.91218495368958	2.500473976135254
31	156.1151089668274	pulse	1	t		29.0	2.5	/experiments/knapen_AOT/AOT_stimuli/rescaled_final/0229_fw.mp4	0.0	241.09595394134521	
31	157.431813955307	fix_post	2		12	29.0	2.5	/experiments/knapen_AOT/AOT_stimuli/rescaled_final/0229_fw.mp4	0.0	242.41265892982483	0.09993314743041992
32	157.53174710273743	fix_pre	0		120	30.0	2.5	/experiments/knapen_AOT/AOT_stimuli/rescaled_final/0911_fw.mp4	0.0	242.51259207725525	1.0001299381256104
32	157.7154130935669	pulse	0	t		30.0	2.5	/experiments/knapen_AOT/AOT_stimuli/rescaled_final/0911_fw.mp4	0.0	242.69625806808472	
32	158.53187704086304	movie	1		243	30.0	2.5	/experiments/knapen_AOT/AOT_stimuli/rescaled_final/0911_fw.mp4	0.0	243.51272201538086	2.5004630088806152
32	159.315593957901	pulse	1	t		30.0	2.5	/experiments/knapen_AOT/AOT_stimuli/rescaled_final/0911_fw.mp4	0.0	244.29643893241882	
32	160.91569590568542	pulse	1	t		30.0	2.5	/experiments/knapen_AOT/AOT_stimuli/rescaled_final/0911_fw.mp4	0.0	245.89654088020325	
32	161.03234004974365	fix_post	2		12	30.0	2.5	/experiments/knapen_AOT/AOT_stimuli/rescaled_final/0911_fw.mp4	0.0	246.01318502426147	0.10007190704345703
33	161.1324119567871	fix_pre	0		120	31.0	2.5	/experiments/knapen_AOT/AOT_stimuli/rescaled_final/0553_fw.mp4	0.0	246.11325693130493	1.0000081062316895
33	162.1324200630188	movie	1		242	31.0	2.5	/experiments/knapen_AOT/AOT_stimuli/rescaled_final/0553_fw.mp4	0.0	247.11326503753662	2.4920899868011475
33	162.5166049003601	pulse	1	t		31.0	2.5	/experiments/knapen_AOT/AOT_stimuli/rescaled_final/0553_fw.mp4	0.0	247.49744987487793	
33	164.11634302139282	pulse	1	t		31.0	2.5	/experiments/knapen_AOT/AOT_stimuli/rescaled_final/0553_fw.mp4	0.0	249.09718799591064	
33	164.62451004981995	fix_post	2		12	31.0	2.5	/experiments/knapen_AOT/AOT_stimuli/rescaled_final/0553_fw.mp4	0.0	249.60535502433777	0.10000300407409668
34	164.72451305389404	fix_pre	0		120	32.0	2.5	/experiments/knapen_AOT/AOT_stimuli/rescaled_final/1999_fw.mp4	0.0	249.70535802841187	1.0001208782196045
34	165.7164568901062	pulse	0	t		32.0	2.5	/experiments/knapen_AOT/AOT_stimuli/rescaled_final/1999_fw.mp4	0.0	250.69730186462402	
34	165.72463393211365	movie	1		243	32.0	2.5	/experiments/knapen_AOT/AOT_stimuli/rescaled_final/1999_fw.mp4	0.0	250.70547890663147	2.5088369846343994
34	167.3173909187317	pulse	1	t		32.0	2.5	/experiments/knapen_AOT/AOT_stimuli/rescaled_final/1999_fw.mp4	0.0	252.2982358932495	
34	168.23347091674805	fix_post	2		12	32.0	2.5	/experiments/knapen_AOT/AOT_stimuli/rescaled_final/1999_fw.mp4	0.0	253.21431589126587	0.09995818138122559
35	168.33342909812927	fix_pre	0		120	33.0	2.5	/experiments/knapen_AOT/AOT_stimuli/rescaled_final/0947_fw.mp4	0.0	253.3142740726471	1.000060796737671
35	168.91689610481262	pulse	0	t		33.0	2.5	/experiments/knapen_AOT/AOT_stimuli/rescaled_final/0947_fw.mp4	0.0	253.89774107933044	
35	169.33348989486694	movie	1		243	33.0	2.5	/experiments/knapen_AOT/AOT_stimuli/rescaled_final/0947_fw.mp4	0.0	254.31433486938477	2.500488042831421
35	170.51740193367004	pulse	1	t		33.0	2.5	/experiments/knapen_AOT/AOT_stimuli/rescaled_final/0947_fw.mp4	0.0	255.49824690818787	
35	171.83397793769836	fix_post	2		12	33.0	2.5	/experiments/knapen_AOT/AOT_stimuli/rescaled_final/0947_fw.mp4	0.0	256.8148229122162	0.0999460220336914
36	171.93392395973206	fix_pre	0		120	34.0	2.5	/experiments/knapen_AOT/AOT_stimuli/rescaled_final/1565_rv.mp4	0.0	256.9147689342499	1.0001349449157715
36	172.11750388145447	pulse	0	t		34.0	2.5	/experiments/knapen_AOT/AOT_stimuli/rescaled_final/1565_rv.mp4	0.0	257.0983488559723	
36	172.93405890464783	movie	1		243	34.0	2.5	/experiments/knapen_AOT/AOT_stimuli/rescaled_final/1565_rv.mp4	0.0	257.91490387916565	2.500560998916626
36	173.7177219390869	pulse	1	t		34.0	2.5	/experiments/knapen_AOT/AOT_stimuli/rescaled_final/1565_rv.mp4	0.0	258.69856691360474	
36	175.3178949356079	pulse	1	t		34.0	2.5	/experiments/knapen_AOT/AOT_stimuli/rescaled_final/1565_rv.mp4	0.0	260.29873991012573	
36	175.43461990356445	fix_post	2		12	34.0	2.5	/experiments/knapen_AOT/AOT_stimuli/rescaled_final/1565_rv.mp4	0.0	260.4154648780823	0.09984803199768066
37	175.53446793556213	fix_pre	0		120	35.0	2.5	blank	1.0	260.51531291007996	1.00018310546875
37	176.53465104103088	movie	1		299	35.0	2.5	blank	1.0	261.5154960155487	2.491956949234009
37	176.91812205314636	pulse	1	t		35.0	2.5	blank	1.0	261.8989670276642	
37	178.5184988975525	pulse	1	t		35.0	2.5	blank	1.0	263.4993438720703	
37	179.0266079902649	fix_post	2		12	35.0	2.5	blank	1.0	264.0074529647827	0.10002493858337402
38	179.12663292884827	fix_pre	0		120	36.0	2.5	/experiments/knapen_AOT/AOT_stimuli/rescaled_final/1924_rv.mp4	0.0	264.1074779033661	1.0001120567321777
38	180.1187388896942	pulse	0	t		36.0	2.5	/experiments/knapen_AOT/AOT_stimuli/rescaled_final/1924_rv.mp4	0.0	265.09958386421204	
38	180.12674498558044	movie	1		244	36.0	2.5	/experiments/knapen_AOT/AOT_stimuli/rescaled_final/1924_rv.mp4	0.0	265.10758996009827	2.508781909942627
38	181.71959710121155	pulse	1	t		36.0	2.5	/experiments/knapen_AOT/AOT_stimuli/rescaled_final/1924_rv.mp4	0.0	266.70044207572937	
38	182.63552689552307	fix_post	2		12	36.0	2.5	/experiments/knapen_AOT/AOT_stimuli/rescaled_final/1924_rv.mp4	0.0	267.6163718700409	0.1000211238861084
39	182.73554801940918	fix_pre	0		120	37.0	2.5	/experiments/knapen_AOT/AOT_stimuli/rescaled_final/0281_rv.mp4	0.0	267.716392993927	1.0001640319824219
39	183.3191020488739	pulse	0	t		37.0	2.5	/experiments/knapen_AOT/AOT_stimuli/rescaled_final/0281_rv.mp4	0.0	268.2999470233917	
39	183.7357120513916	movie	1		243	37.0	2.5	/experiments/knapen_AOT/AOT_stimuli/rescaled_final/0281_rv.mp4	0.0	268.7165570259094	2.5003859996795654
39	184.91229104995728	pulse	1	t		37.0	2.5	/experiments/knapen_AOT/AOT_stimuli/rescaled_final/0281_rv.mp4	0.0	269.8931360244751	
39	186.23609805107117	fix_post	2		12	37.0	2.5	/experiments/knapen_AOT/AOT_stimuli/rescaled_final/0281_rv.mp4	0.0	271.216943025589	0.09998798370361328
40	186.33608603477478	fix_pre	0		120	38.0	2.5	/experiments/knapen_AOT/AOT_stimuli/rescaled_final/0164_fw.mp4	0.0	271.3169310092926	1.0001170635223389
40	186.51199889183044	pulse	0	t		38.0	2.5	/experiments/knapen_AOT/AOT_stimuli/rescaled_final/0164_fw.mp4	0.0	271.49284386634827	
40	187.33620309829712	movie	1		242	38.0	2.5	/experiments/knapen_AOT/AOT_stimuli/rescaled_final/0164_fw.mp4	0.0	272.31704807281494	2.500638961791992
40	188.11248803138733	pulse	1	t		38.0	2.5	/experiments/knapen_AOT/AOT_stimuli/rescaled_final/0164_fw.mp4	0.0	273.09333300590515	
40	189.72005009651184	pulse	1	t		38.0	2.5	/experiments/knapen_AOT/AOT_stimuli/rescaled_final/0164_fw.mp4	0.0	274.70089507102966	
40	189.8368420600891	fix_post	2		12	38.0	2.5	/experiments/knapen_AOT/AOT_stimuli/rescaled_final/0164_fw.mp4	0.0	274.81768703460693	0.09978795051574707
41	189.93663001060486	fix_pre	0		120	39.0	2.5	/experiments/knapen_AOT/AOT_stimuli/rescaled_final/2081_fw.mp4	0.0	274.9174749851227	1.0000848770141602
41	190.93671488761902	movie	1		242	39.0	2.5	/experiments/knapen_AOT/AOT_stimuli/rescaled_final/2081_fw.mp4	0.0	275.91755986213684	2.4920341968536377
41	191.3208339214325	pulse	1	t		39.0	2.5	/experiments/knapen_AOT/AOT_stimuli/rescaled_final/2081_fw.mp4	0.0	276.3016788959503	
41	192.91228103637695	pulse	1	t		39.0	2.5	/experiments/knapen_AOT/AOT_stimuli/rescaled_final/2081_fw.mp4	0.0	277.8931260108948	
41	193.42874908447266	fix_post	2		12	39.0	2.5	/experiments/knapen_AOT/AOT_stimuli/rescaled_final/2081_fw.mp4	0.0	278.4095940589905	0.10001397132873535
42	193.5287630558014	fix_pre	0		119	40.0	2.5	/experiments/knapen_AOT/AOT_stimuli/rescaled_final/0666_rv.mp4	0.0	278.5096080303192	0.9918599128723145
42	194.51237893104553	pulse	0	t		40.0	2.5	/experiments/knapen_AOT/AOT_stimuli/rescaled_final/0666_rv.mp4	0.0	279.49322390556335	
42	194.5206229686737	movie	1		243	40.0	2.5	/experiments/knapen_AOT/AOT_stimuli/rescaled_final/0666_rv.mp4	0.0	279.5014679431915	2.508820056915283
42	196.11334991455078	pulse	1	t		40.0	2.5	/experiments/knapen_AOT/AOT_stimuli/rescaled_final/0666_rv.mp4	0.0	281.0941948890686	
42	197.029443025589	fix_post	2		12	40.0	2.5	/experiments/knapen_AOT/AOT_stimuli/rescaled_final/0666_rv.mp4	0.0	282.0102880001068	0.09987497329711914
43	197.1293179988861	fix_pre	0		120	41.0	2.5	/experiments/knapen_AOT/AOT_stimuli/rescaled_final/1117_rv.mp4	0.0	282.11016297340393	1.0002410411834717
43	197.7128369808197	pulse	0	t		41.0	2.5	/experiments/knapen_AOT/AOT_stimuli/rescaled_final/1117_rv.mp4	0.0	282.6936819553375	
43	198.12955904006958	movie	1		242	41.0	2.5	/experiments/knapen_AOT/AOT_stimuli/rescaled_final/1117_rv.mp4	0.0	283.1104040145874	2.5003819465637207
43	199.31321597099304	pulse	1	t		41.0	2.5	/experiments/knapen_AOT/AOT_stimuli/rescaled_final/1117_rv.mp4	0.0	284.29406094551086	
43	200.6299409866333	fix_post	2		12	41.0	2.5	/experiments/knapen_AOT/AOT_stimuli/rescaled_final/1117_rv.mp4	0.0	285.6107859611511	0.0999000072479248
44	200.72984099388123	fix_pre	0		120	42.0	2.5	blank	1.0	285.71068596839905	1.00018310546875
44	200.91340708732605	pulse	0	t		42.0	2.5	blank	1.0	285.8942520618439	
44	201.73002409934998	movie	1		300	42.0	2.5	blank	1.0	286.7108690738678	2.500398874282837
44	202.51356196403503	pulse	1	t		42.0	2.5	blank	1.0	287.49440693855286	
44	204.11382699012756	pulse	1	t		42.0	2.5	blank	1.0	289.0946719646454	
44	204.2304229736328	fix_post	2		12	42.0	2.5	blank	1.0	289.21126794815063	0.10000896453857422
45	204.3304319381714	fix_pre	0		120	43.0	2.5	/experiments/knapen_AOT/AOT_stimuli/rescaled_final/1590_rv.mp4	0.0	289.3112769126892	1.0001380443572998
45	205.3305699825287	movie	1		242	43.0	2.5	/experiments/knapen_AOT/AOT_stimuli/rescaled_final/1590_rv.mp4	0.0	290.3114149570465	2.4920520782470703
45	205.7154459953308	pulse	1	t		43.0	2.5	/experiments/knapen_AOT/AOT_stimuli/rescaled_final/1590_rv.mp4	0.0	290.69629096984863	
45	207.31435108184814	pulse	1	t		43.0	2.5	/experiments/knapen_AOT/AOT_stimuli/rescaled_final/1590_rv.mp4	0.0	292.29519605636597	
45	207.82262206077576	fix_post	2		12	43.0	2.5	/experiments/knapen_AOT/AOT_stimuli/rescaled_final/1590_rv.mp4	0.0	292.8034670352936	0.10000801086425781
46	207.92263007164001	fix_pre	0		120	44.0	2.5	/experiments/knapen_AOT/AOT_stimuli/rescaled_final/1309_fw.mp4	0.0	292.90347504615784	1.000105857849121
46	208.91466808319092	pulse	0	t		44.0	2.5	/experiments/knapen_AOT/AOT_stimuli/rescaled_final/1309_fw.mp4	0.0	293.89551305770874	
46	208.92273592948914	movie	1		244	44.0	2.5	/experiments/knapen_AOT/AOT_stimuli/rescaled_final/1309_fw.mp4	0.0	293.90358090400696	2.5088319778442383
46	210.51536393165588	pulse	1	t		44.0	2.5	/experiments/knapen_AOT/AOT_stimuli/rescaled_final/1309_fw.mp4	0.0	295.4962089061737	
46	211.43156790733337	fix_post	2		12	44.0	2.5	/experiments/knapen_AOT/AOT_stimuli/rescaled_final/1309_fw.mp4	0.0	296.4124128818512	0.0999300479888916
47	211.53149795532227	fix_pre	0		120	45.0	2.5	/experiments/knapen_AOT/AOT_stimuli/rescaled_final/0698_fw.mp4	0.0	296.5123429298401	1.0001389980316162
47	212.11509108543396	pulse	0	t		45.0	2.5	/experiments/knapen_AOT/AOT_stimuli/rescaled_final/0698_fw.mp4	0.0	297.0959360599518	
47	212.53163695335388	movie	1		243	45.0	2.5	/experiments/knapen_AOT/AOT_stimuli/rescaled_final/0698_fw.mp4	0.0	297.5124819278717	2.5004501342773438
47	213.7118580341339	pulse	1	t		45.0	2.5	/experiments/knapen_AOT/AOT_stimuli/rescaled_final/0698_fw.mp4	0.0	298.69270300865173	
47	215.03208708763123	fix_post	2		12	45.0	2.5	/experiments/knapen_AOT/AOT_stimuli/rescaled_final/0698_fw.mp4	0.0	300.01293206214905	0.09992289543151855
48	215.13200998306274	fix_pre	0		120	46.0	2.5	/experiments/knapen_AOT/AOT_stimuli/rescaled_final/0877_fw.mp4	0.0	300.11285495758057	1.0001471042633057
48	215.31565690040588	pulse	0	t		46.0	2.5	/experiments/knapen_AOT/AOT_stimuli/rescaled_final/0877_fw.mp4	0.0	300.2965018749237	
48	216.13215708732605	movie	1		239	46.0	2.5	/experiments/knapen_AOT/AOT_stimuli/rescaled_final/0877_fw.mp4	0.0	301.1130020618439	2.500588893890381
48	216.91587710380554	pulse	1	t		46.0	2.5	/experiments/knapen_AOT/AOT_stimuli/rescaled_final/0877_fw.mp4	0.0	301.89672207832336	
48	218.51610589027405	pulse	1	t		46.0	2.5	/experiments/knapen_AOT/AOT_stimuli/rescaled_final/0877_fw.mp4	0.0	303.49695086479187	
48	218.63274598121643	fix_post	2		12	46.0	2.5	/experiments/knapen_AOT/AOT_stimuli/rescaled_final/0877_fw.mp4	0.0	303.61359095573425	0.09989094734191895
49	218.73263692855835	fix_pre	0		120	47.0	2.5	blank	1.0	303.7134819030762	1.0000431537628174
49	219.73268008232117	movie	1		299	47.0	2.5	blank	1.0	304.713525056839	2.4920859336853027
49	220.11624789237976	pulse	1	t		47.0	2.5	blank	1.0	305.0970928668976	
49	221.71645402908325	pulse	1	t		47.0	2.5	blank	1.0	306.6972990036011	
49	222.22476601600647	fix_post	2		12	47.0	2.5	blank	1.0	307.2056109905243	0.09993696212768555
50	222.32470297813416	fix_pre	0		120	48.0	2.5	/experiments/knapen_AOT/AOT_stimuli/rescaled_final/1394_fw.mp4	0.0	307.305547952652	1.0001931190490723
50	223.31676602363586	pulse	0	t		48.0	2.5	/experiments/knapen_AOT/AOT_stimuli/rescaled_final/1394_fw.mp4	0.0	308.2976109981537	
50	223.32489609718323	movie	1		243	48.0	2.5	/experiments/knapen_AOT/AOT_stimuli/rescaled_final/1394_fw.mp4	0.0	308.30574107170105	2.5087809562683105
50	224.91747999191284	pulse	1	t		48.0	2.5	/experiments/knapen_AOT/AOT_stimuli/rescaled_final/1394_fw.mp4	0.0	309.89832496643066	
50	225.83367705345154	fix_post	2		12	48.0	2.5	/experiments/knapen_AOT/AOT_stimuli/rescaled_final/1394_fw.mp4	0.0	310.81452202796936	0.09996199607849121
51	225.93363904953003	fix_pre	0		120	49.0	2.5	/experiments/knapen_AOT/AOT_stimuli/rescaled_final/0157_fw.mp4	0.0	310.91448402404785	1.000143051147461
51	226.51723194122314	pulse	0	t		49.0	2.5	/experiments/knapen_AOT/AOT_stimuli/rescaled_final/0157_fw.mp4	0.0	311.49807691574097	
51	226.9337821006775	movie	1		242	49.0	2.5	/experiments/knapen_AOT/AOT_stimuli/rescaled_final/0157_fw.mp4	0.0	311.9146270751953	2.5005908012390137
51	228.11756992340088	pulse	1	t		49.0	2.5	/experiments/knapen_AOT/AOT_stimuli/rescaled_final/0157_fw.mp4	0.0	313.0984148979187	
51	229.4343729019165	fix_post	2		12	49.0	2.5	/experiments/knapen_AOT/AOT_stimuli/rescaled_final/0157_fw.mp4	0.0	314.4152178764343	0.09987711906433105
52	229.53425002098083	fix_pre	0		120	50.0	2.5	/experiments/knapen_AOT/AOT_stimuli/rescaled_final/0025_rv.mp4	0.0	314.51509499549866	1.0000560283660889
52	229.71778392791748	pulse	0	t		50.0	2.5	/experiments/knapen_AOT/AOT_stimuli/rescaled_final/0025_rv.mp4	0.0	314.6986289024353	
52	230.53430604934692	movie	1		243	50.0	2.5	/experiments/knapen_AOT/AOT_stimuli/rescaled_final/0025_rv.mp4	0.0	315.51515102386475	2.500530958175659
52	231.3179759979248	pulse	1	t		50.0	2.5	/experiments/knapen_AOT/AOT_stimuli/rescaled_final/0025_rv.mp4	0.0	316.2988209724426	
52	232.9188530445099	pulse	1	t		50.0	2.5	/experiments/knapen_AOT/AOT_stimuli/rescaled_final/0025_rv.mp4	0.0	317.8996980190277	
52	233.03483700752258	fix_post	2		12	50.0	2.5	/experiments/knapen_AOT/AOT_stimuli/rescaled_final/0025_rv.mp4	0.0	318.0156819820404	0.09992504119873047
53	233.1347620487213	fix_pre	0		120	51.0	2.5	/experiments/knapen_AOT/AOT_stimuli/rescaled_final/0829_rv.mp4	0.0	318.11560702323914	1.000087022781372
53	234.13484907150269	movie	1		241	51.0	2.5	/experiments/knapen_AOT/AOT_stimuli/rescaled_final/0829_rv.mp4	0.0	319.1156940460205	2.4921388626098633
53	234.51896905899048	pulse	1	t		51.0	2.5	/experiments/knapen_AOT/AOT_stimuli/rescaled_final/0829_rv.mp4	0.0	319.4998140335083	
53	236.11865711212158	pulse	1	t		51.0	2.5	/experiments/knapen_AOT/AOT_stimuli/rescaled_final/0829_rv.mp4	0.0	321.0995020866394	
53	236.62698793411255	fix_post	2		12	51.0	2.5	/experiments/knapen_AOT/AOT_stimuli/rescaled_final/0829_rv.mp4	0.0	321.60783290863037	0.09995913505554199
54	236.7269470691681	fix_pre	0		120	52.0	2.5	/experiments/knapen_AOT/AOT_stimuli/rescaled_final/0569_fw.mp4	0.0	321.7077920436859	1.0000889301300049
54	237.7188949584961	pulse	0	t		52.0	2.5	/experiments/knapen_AOT/AOT_stimuli/rescaled_final/0569_fw.mp4	0.0	322.6997399330139	
54	237.7270359992981	movie	1		245	52.0	2.5	/experiments/knapen_AOT/AOT_stimuli/rescaled_final/0569_fw.mp4	0.0	322.7078809738159	2.5087039470672607
54	239.3196210861206	pulse	1	t		52.0	2.5	/experiments/knapen_AOT/AOT_stimuli/rescaled_final/0569_fw.mp4	0.0	324.3004660606384	
54	240.23573994636536	fix_post	2		12	52.0	2.5	/experiments/knapen_AOT/AOT_stimuli/rescaled_final/0569_fw.mp4	0.0	325.2165849208832	0.10001611709594727
55	240.3357560634613	fix_pre	0		120	53.0	2.5	/experiments/knapen_AOT/AOT_stimuli/rescaled_final/0569_rv.mp4	0.0	325.3166010379791	1.0001788139343262
55	240.91197800636292	pulse	0	t		53.0	2.5	/experiments/knapen_AOT/AOT_stimuli/rescaled_final/0569_rv.mp4	0.0	325.89282298088074	
55	241.33593487739563	movie	1		244	53.0	2.5	/experiments/knapen_AOT/AOT_stimuli/rescaled_final/0569_rv.mp4	0.0	326.31677985191345	2.500411033630371
55	242.51263689994812	pulse	1	t		53.0	2.5	/experiments/knapen_AOT/AOT_stimuli/rescaled_final/0569_rv.mp4	0.0	327.49348187446594	
55	243.836345911026	fix_post	2		12	53.0	2.5	/experiments/knapen_AOT/AOT_stimuli/rescaled_final/0569_rv.mp4	0.0	328.8171908855438	0.10001611709594727
56	243.93636202812195	fix_pre	0		120	54.0	2.5	/experiments/knapen_AOT/AOT_stimuli/rescaled_final/1044_rv.mp4	0.0	328.91720700263977	1.0000779628753662
56	244.11233711242676	pulse	0	t		54.0	2.5	/experiments/knapen_AOT/AOT_stimuli/rescaled_final/1044_rv.mp4	0.0	329.0931820869446	
56	244.93643999099731	movie	1		243	54.0	2.5	/experiments/knapen_AOT/AOT_stimuli/rescaled_final/1044_rv.mp4	0.0	329.91728496551514	2.500507116317749
56	245.7118330001831	pulse	1	t		54.0	2.5	/experiments/knapen_AOT/AOT_stimuli/rescaled_final/1044_rv.mp4	0.0	330.6926779747009	
56	247.31190609931946	pulse	1	t		54.0	2.5	/experiments/knapen_AOT/AOT_stimuli/rescaled_final/1044_rv.mp4	0.0	332.2927510738373	
56	247.43694710731506	fix_post	2		12	54.0	2.5	/experiments/knapen_AOT/AOT_stimuli/rescaled_final/1044_rv.mp4	0.0	332.4177920818329	0.09990596771240234
57	247.53685307502747	fix_pre	0		120	55.0	2.5	/experiments/knapen_AOT/AOT_stimuli/rescaled_final/0125_fw.mp4	0.0	332.5176980495453	1.0002098083496094
57	248.53706288337708	movie	1		242	55.0	2.5	/experiments/knapen_AOT/AOT_stimuli/rescaled_final/0125_fw.mp4	0.0	333.5179078578949	2.5004851818084717
57	248.9121959209442	pulse	1	t		55.0	2.5	/experiments/knapen_AOT/AOT_stimuli/rescaled_final/0125_fw.mp4	0.0	333.89304089546204	
57	250.51269793510437	pulse	1	t		55.0	2.5	/experiments/knapen_AOT/AOT_stimuli/rescaled_final/0125_fw.mp4	0.0	335.4935429096222	
57	251.03754806518555	fix_post	2		12	55.0	2.5	/experiments/knapen_AOT/AOT_stimuli/rescaled_final/0125_fw.mp4	0.0	336.01839303970337	0.0998988151550293
58	251.13744688034058	fix_pre	0		118	56.0	2.5	blank	1.0	336.1182918548584	0.9833931922912598
58	252.1127290725708	pulse	0	t		56.0	2.5	blank	1.0	337.0935740470886	
58	252.12084007263184	movie	1		301	56.0	2.5	blank	1.0	337.10168504714966	2.5087389945983887
58	253.71288204193115	pulse	1	t		56.0	2.5	blank	1.0	338.693727016449	
58	254.62957906723022	fix_post	2		12	56.0	2.5	blank	1.0	339.61042404174805	0.09999990463256836
59	254.7295789718628	fix_pre	0		120	57.0	2.5	/experiments/knapen_AOT/AOT_stimuli/rescaled_final/2132_rv.mp4	0.0	339.7104239463806	1.0001280307769775
59	255.3131890296936	pulse	0	t		57.0	2.5	/experiments/knapen_AOT/AOT_stimuli/rescaled_final/2132_rv.mp4	0.0	340.2940340042114	
59	255.72970700263977	movie	1		242	57.0	2.5	/experiments/knapen_AOT/AOT_stimuli/rescaled_final/2132_rv.mp4	0.0	340.7105519771576	2.500670909881592
59	256.913498878479	pulse	1	t		57.0	2.5	/experiments/knapen_AOT/AOT_stimuli/rescaled_final/2132_rv.mp4	0.0	341.8943438529968	
59	258.23037791252136	fix_post	2		12	57.0	2.5	/experiments/knapen_AOT/AOT_stimuli/rescaled_final/2132_rv.mp4	0.0	343.2112228870392	0.09979009628295898
60	258.3301680088043	fix_pre	0		120	58.0	2.5	/experiments/knapen_AOT/AOT_stimuli/rescaled_final/0002_fw.mp4	0.0	343.31101298332214	1.0001649856567383
60	258.51374888420105	pulse	0	t		58.0	2.5	/experiments/knapen_AOT/AOT_stimuli/rescaled_final/0002_fw.mp4	0.0	343.4945938587189	
60	259.33033299446106	movie	1		242	58.0	2.5	/experiments/knapen_AOT/AOT_stimuli/rescaled_final/0002_fw.mp4	0.0	344.3111779689789	2.5004630088806152
60	260.1138770580292	pulse	1	t		58.0	2.5	/experiments/knapen_AOT/AOT_stimuli/rescaled_final/0002_fw.mp4	0.0	345.094722032547	
60	261.7146780490875	pulse	1	t		58.0	2.5	/experiments/knapen_AOT/AOT_stimuli/rescaled_final/0002_fw.mp4	0.0	346.69552302360535	
60	261.8307960033417	fix_post	2		12	58.0	2.5	/experiments/knapen_AOT/AOT_stimuli/rescaled_final/0002_fw.mp4	0.0	346.8116409778595	0.09986400604248047
61	261.93066000938416	fix_pre	0		120	59.0	2.5	/experiments/knapen_AOT/AOT_stimuli/rescaled_final/0679_fw.mp4	0.0	346.911504983902	1.000140905380249
61	262.9308009147644	movie	1		242	59.0	2.5	/experiments/knapen_AOT/AOT_stimuli/rescaled_final/0679_fw.mp4	0.0	347.9116458892822	2.4921681880950928
61	263.318913936615	pulse	1	t		59.0	2.5	/experiments/knapen_AOT/AOT_stimuli/rescaled_final/0679_fw.mp4	0.0	348.2997589111328	
61	264.9148440361023	pulse	1	t		59.0	2.5	/experiments/knapen_AOT/AOT_stimuli/rescaled_final/0679_fw.mp4	0.0	349.8956890106201	
61	265.4229691028595	fix_post	2		12	59.0	2.5	/experiments/knapen_AOT/AOT_stimuli/rescaled_final/0679_fw.mp4	0.0	350.4038140773773	0.09987998008728027
62	265.5228490829468	fix_pre	0		120	60.0	2.5	/experiments/knapen_AOT/AOT_stimuli/rescaled_final/0584_rv.mp4	0.0	350.5036940574646	1.000243902206421
62	266.51478099823	pulse	0	t		60.0	2.5	/experiments/knapen_AOT/AOT_stimuli/rescaled_final/0584_rv.mp4	0.0	351.4956259727478	
62	266.5230929851532	movie	1		244	60.0	2.5	/experiments/knapen_AOT/AOT_stimuli/rescaled_final/0584_rv.mp4	0.0	351.503937959671	2.508660078048706
62	268.11639499664307	pulse	1	t		60.0	2.5	/experiments/knapen_AOT/AOT_stimuli/rescaled_final/0584_rv.mp4	0.0	353.0972399711609	
62	269.0317530632019	fix_post	2		12	60.0	2.5	/experiments/knapen_AOT/AOT_stimuli/rescaled_final/0584_rv.mp4	0.0	354.0125980377197	0.09995698928833008
63	269.13171005249023	fix_pre	0		120	61.0	2.5	blank	1.0	354.11255502700806	1.0001709461212158
63	269.71540689468384	pulse	0	t		61.0	2.5	blank	1.0	354.69625186920166	
63	270.13188099861145	movie	1		300	61.0	2.5	blank	1.0	355.1127259731293	2.5004398822784424
63	271.3157079219818	pulse	1	t		61.0	2.5	blank	1.0	356.29655289649963	
63	272.6323208808899	fix_post	2		12	61.0	2.5	blank	1.0	357.6131658554077	0.10003113746643066
64	272.7323520183563	fix_pre	0		120	62.0	2.5	/experiments/knapen_AOT/AOT_stimuli/rescaled_final/1665_fw.mp4	0.0	357.71319699287415	1.0000660419464111
64	272.915855884552	pulse	0	t		62.0	2.5	/experiments/knapen_AOT/AOT_stimuli/rescaled_final/1665_fw.mp4	0.0	357.8967008590698	
64	273.73241806030273	movie	1		242	62.0	2.5	/experiments/knapen_AOT/AOT_stimuli/rescaled_final/1665_fw.mp4	0.0	358.71326303482056	2.500447988510132
64	274.51600098609924	pulse	1	t		62.0	2.5	/experiments/knapen_AOT/AOT_stimuli/rescaled_final/1665_fw.mp4	0.0	359.49684596061707	
64	276.116103887558	pulse	1	t		62.0	2.5	/experiments/knapen_AOT/AOT_stimuli/rescaled_final/1665_fw.mp4	0.0	361.0969488620758	
64	276.23286604881287	fix_post	2		12	62.0	2.5	/experiments/knapen_AOT/AOT_stimuli/rescaled_final/1665_fw.mp4	0.0	361.2137110233307	0.09992194175720215
65	276.33278799057007	fix_pre	0		120	63.0	2.5	/experiments/knapen_AOT/AOT_stimuli/rescaled_final/0028_fw.mp4	0.0	361.3136329650879	1.000204086303711
65	277.3329920768738	movie	1		241	63.0	2.5	/experiments/knapen_AOT/AOT_stimuli/rescaled_final/0028_fw.mp4	0.0	362.3138370513916	2.492074966430664
65	277.7170960903168	pulse	1	t		63.0	2.5	/experiments/knapen_AOT/AOT_stimuli/rescaled_final/0028_fw.mp4	0.0	362.6979410648346	
65	279.3168489933014	pulse	1	t		63.0	2.5	/experiments/knapen_AOT/AOT_stimuli/rescaled_final/0028_fw.mp4	0.0	364.2976939678192	
65	279.82506704330444	fix_post	2		12	63.0	2.5	/experiments/knapen_AOT/AOT_stimuli/rescaled_final/0028_fw.mp4	0.0	364.80591201782227	0.0999598503112793
66	279.9250268936157	fix_pre	0		116	64.0	2.5	/experiments/knapen_AOT/AOT_stimuli/rescaled_final/0665_rv.mp4	0.0	364.90587186813354	1.0002431869506836
66	280.9169569015503	pulse	0	t		64.0	2.5	/experiments/knapen_AOT/AOT_stimuli/rescaled_final/0665_rv.mp4	0.0	365.8978018760681	
66	280.9252700805664	movie	1		243	64.0	2.5	/experiments/knapen_AOT/AOT_stimuli/rescaled_final/0665_rv.mp4	0.0	365.90611505508423	2.508647918701172
66	282.51844906806946	pulse	1	t		64.0	2.5	/experiments/knapen_AOT/AOT_stimuli/rescaled_final/0665_rv.mp4	0.0	367.4992940425873	
66	283.4339179992676	fix_post	2		12	64.0	2.5	/experiments/knapen_AOT/AOT_stimuli/rescaled_final/0665_rv.mp4	0.0	368.4147629737854	0.0999460220336914
67	283.53386402130127	fix_pre	0		120	65.0	2.5	/experiments/knapen_AOT/AOT_stimuli/rescaled_final/0125_fw.mp4	0.0	368.5147089958191	1.0001459121704102
67	284.1176118850708	pulse	0	t		65.0	2.5	/experiments/knapen_AOT/AOT_stimuli/rescaled_final/0125_fw.mp4	0.0	369.0984568595886	
67	284.5340099334717	movie	1		242	65.0	2.5	/experiments/knapen_AOT/AOT_stimuli/rescaled_final/0125_fw.mp4	0.0	369.5148549079895	2.500427007675171
67	285.7179379463196	pulse	1	t		65.0	2.5	/experiments/knapen_AOT/AOT_stimuli/rescaled_final/0125_fw.mp4	0.0	370.6987829208374	
67	287.03443694114685	fix_post	2		12	65.0	2.5	/experiments/knapen_AOT/AOT_stimuli/rescaled_final/0125_fw.mp4	0.0	372.0152819156647	0.10006093978881836
68	287.13449788093567	fix_pre	0		120	66.0	2.5	/experiments/knapen_AOT/AOT_stimuli/rescaled_final/1531_rv.mp4	0.0	372.1153428554535	1.000087022781372
68	287.31793093681335	pulse	0	t		66.0	2.5	/experiments/knapen_AOT/AOT_stimuli/rescaled_final/1531_rv.mp4	0.0	372.2987759113312	
68	288.13458490371704	movie	1		244	66.0	2.5	/experiments/knapen_AOT/AOT_stimuli/rescaled_final/1531_rv.mp4	0.0	373.11542987823486	2.500452995300293
68	288.91817808151245	pulse	1	t		66.0	2.5	/experiments/knapen_AOT/AOT_stimuli/rescaled_final/1531_rv.mp4	0.0	373.8990230560303	
68	290.51819491386414	pulse	1	t		66.0	2.5	/experiments/knapen_AOT/AOT_stimuli/rescaled_final/1531_rv.mp4	0.0	375.49903988838196	
68	290.63503789901733	fix_post	2		12	66.0	2.5	/experiments/knapen_AOT/AOT_stimuli/rescaled_final/1531_rv.mp4	0.0	375.61588287353516	0.09993410110473633
69	290.73497200012207	fix_pre	0		119	67.0	2.5	/experiments/knapen_AOT/AOT_stimuli/rescaled_final/1394_rv.mp4	0.0	375.7158169746399	0.9918699264526367
69	291.7268419265747	movie	1		242	67.0	2.5	/experiments/knapen_AOT/AOT_stimuli/rescaled_final/1394_rv.mp4	0.0	376.70768690109253	2.500514030456543
69	292.11888003349304	pulse	1	t		67.0	2.5	/experiments/knapen_AOT/AOT_stimuli/rescaled_final/1394_rv.mp4	0.0	377.09972500801086	
69	293.7189509868622	pulse	1	t		67.0	2.5	/experiments/knapen_AOT/AOT_stimuli/rescaled_final/1394_rv.mp4	0.0	378.69979596138	
69	294.22735595703125	fix_post	2		12	67.0	2.5	/experiments/knapen_AOT/AOT_stimuli/rescaled_final/1394_rv.mp4	0.0	379.2082009315491	0.09987998008728027
70	294.32723593711853	fix_pre	0		120	68.0	2.5	/experiments/knapen_AOT/AOT_stimuli/rescaled_final/0520_rv.mp4	0.0	379.30808091163635	1.0001561641693115
70	295.31915402412415	pulse	0	t		68.0	2.5	/experiments/knapen_AOT/AOT_stimuli/rescaled_final/0520_rv.mp4	0.0	380.29999899864197	
70	295.32739210128784	movie	1		244	68.0	2.5	/experiments/knapen_AOT/AOT_stimuli/rescaled_final/0520_rv.mp4	0.0	380.30823707580566	2.5087249279022217
70	296.9197781085968	pulse	1	t		68.0	2.5	/experiments/knapen_AOT/AOT_stimuli/rescaled_final/0520_rv.mp4	0.0	381.9006230831146	
70	297.83611702919006	fix_post	2		12	68.0	2.5	/experiments/knapen_AOT/AOT_stimuli/rescaled_final/0520_rv.mp4	0.0	382.8169620037079	0.09993696212768555
71	297.93605399131775	fix_pre	0		120	69.0	2.5	blank	1.0	382.91689896583557	1.0001330375671387
71	298.5197560787201	pulse	0	t		69.0	2.5	blank	1.0	383.5006010532379	
71	298.9361870288849	movie	1		300	69.0	2.5	blank	1.0	383.9170320034027	2.5004100799560547
71	300.1124050617218	pulse	1	t		69.0	2.5	blank	1.0	385.0932500362396	
71	301.43659710884094	fix_post	2		12	69.0	2.5	blank	1.0	386.41744208335876	0.09998083114624023
72	301.5365779399872	fix_pre	0		120	70.0	2.5	/experiments/knapen_AOT/AOT_stimuli/rescaled_final/0596_fw.mp4	0.0	386.517422914505	1.0001749992370605
72	301.71270990371704	pulse	0	t		70.0	2.5	/experiments/knapen_AOT/AOT_stimuli/rescaled_final/0596_fw.mp4	0.0	386.69355487823486	
72	302.53675293922424	movie	1		243	70.0	2.5	/experiments/knapen_AOT/AOT_stimuli/rescaled_final/0596_fw.mp4	0.0	387.51759791374207	2.500530958175659
72	303.3129448890686	pulse	1	t		70.0	2.5	/experiments/knapen_AOT/AOT_stimuli/rescaled_final/0596_fw.mp4	0.0	388.2937898635864	
72	304.92025804519653	pulse	1	t		70.0	2.5	/experiments/knapen_AOT/AOT_stimuli/rescaled_final/0596_fw.mp4	0.0	389.90110301971436	
72	305.0372838973999	fix_post	2		12	70.0	2.5	/experiments/knapen_AOT/AOT_stimuli/rescaled_final/0596_fw.mp4	0.0	390.0181288719177	0.09981012344360352
73	305.1370940208435	fix_pre	0		119	71.0	2.5	/experiments/knapen_AOT/AOT_stimuli/rescaled_final/0553_fw.mp4	0.0	390.1179389953613	0.9918608665466309
73	306.12895488739014	movie	1		242	71.0	2.5	/experiments/knapen_AOT/AOT_stimuli/rescaled_final/0553_fw.mp4	0.0	391.10979986190796	2.5003390312194824
73	306.5138831138611	pulse	1	t		71.0	2.5	/experiments/knapen_AOT/AOT_stimuli/rescaled_final/0553_fw.mp4	0.0	391.4947280883789	
73	308.11284494400024	pulse	1	t		71.0	2.5	/experiments/knapen_AOT/AOT_stimuli/rescaled_final/0553_fw.mp4	0.0	393.09368991851807	
73	308.6292939186096	fix_post	2		12	71.0	2.5	/experiments/knapen_AOT/AOT_stimuli/rescaled_final/0553_fw.mp4	0.0	393.61013889312744	0.10007119178771973
74	308.72936511039734	fix_pre	0		119	72.0	2.5	/experiments/knapen_AOT/AOT_stimuli/rescaled_final/0184_fw.mp4	0.0	393.71021008491516	0.9917709827423096
74	309.71292901039124	pulse	0	t		72.0	2.5	/experiments/knapen_AOT/AOT_stimuli/rescaled_final/0184_fw.mp4	0.0	394.69377398490906	
74	309.72113609313965	movie	1		244	72.0	2.5	/experiments/knapen_AOT/AOT_stimuli/rescaled_final/0184_fw.mp4	0.0	394.70198106765747	2.5087218284606934
74	311.314001083374	pulse	1	t		72.0	2.5	/experiments/knapen_AOT/AOT_stimuli/rescaled_final/0184_fw.mp4	0.0	396.29484605789185	
74	312.22985792160034	fix_post	2		12	72.0	2.5	/experiments/knapen_AOT/AOT_stimuli/rescaled_final/0184_fw.mp4	0.0	397.21070289611816	0.09998416900634766
75	312.3298420906067	fix_pre	0		120	73.0	2.5	/experiments/knapen_AOT/AOT_stimuli/rescaled_final/0262_fw.mp4	0.0	397.3106870651245	1.0001909732818604
75	312.91340804100037	pulse	0	t		73.0	2.5	/experiments/knapen_AOT/AOT_stimuli/rescaled_final/0262_fw.mp4	0.0	397.8942530155182	
75	313.33003306388855	movie	1		245	73.0	2.5	/experiments/knapen_AOT/AOT_stimuli/rescaled_final/0262_fw.mp4	0.0	398.3108780384064	2.500391960144043
75	314.5138449668884	pulse	1	t		73.0	2.5	/experiments/knapen_AOT/AOT_stimuli/rescaled_final/0262_fw.mp4	0.0	399.49468994140625	
75	315.8304250240326	fix_post	2		12	73.0	2.5	/experiments/knapen_AOT/AOT_stimuli/rescaled_final/0262_fw.mp4	0.0	400.8112699985504	0.10000491142272949
76	315.9304299354553	fix_pre	0		120	74.0	2.5	/experiments/knapen_AOT/AOT_stimuli/rescaled_final/1311_fw.mp4	0.0	400.91127490997314	1.0001649856567383
76	316.1139590740204	pulse	0	t		74.0	2.5	/experiments/knapen_AOT/AOT_stimuli/rescaled_final/1311_fw.mp4	0.0	401.0948040485382	
76	316.93059492111206	movie	1		243	74.0	2.5	/experiments/knapen_AOT/AOT_stimuli/rescaled_final/1311_fw.mp4	0.0	401.9114398956299	2.5004611015319824
76	317.7143380641937	pulse	1	t		74.0	2.5	/experiments/knapen_AOT/AOT_stimuli/rescaled_final/1311_fw.mp4	0.0	402.69518303871155	
76	319.315052986145	pulse	1	t		74.0	2.5	/experiments/knapen_AOT/AOT_stimuli/rescaled_final/1311_fw.mp4	0.0	404.29589796066284	
76	319.43105602264404	fix_post	2		12	74.0	2.5	/experiments/knapen_AOT/AOT_stimuli/rescaled_final/1311_fw.mp4	0.0	404.41190099716187	0.09993195533752441
77	319.53098797798157	fix_pre	0		120	75.0	2.5	/experiments/knapen_AOT/AOT_stimuli/rescaled_final/1371_rv.mp4	0.0	404.5118329524994	1.0002429485321045
77	320.5312309265137	movie	1		241	75.0	2.5	/experiments/knapen_AOT/AOT_stimuli/rescaled_final/1371_rv.mp4	0.0	405.5120759010315	2.492033004760742
77	320.9152009487152	pulse	1	t		75.0	2.5	/experiments/knapen_AOT/AOT_stimuli/rescaled_final/1371_rv.mp4	0.0	405.89604592323303	
77	322.51487398147583	pulse	1	t		75.0	2.5	/experiments/knapen_AOT/AOT_stimuli/rescaled_final/1371_rv.mp4	0.0	407.49571895599365	
77	323.0232639312744	fix_post	2		12	75.0	2.5	/experiments/knapen_AOT/AOT_stimuli/rescaled_final/1371_rv.mp4	0.0	408.00410890579224	0.09990501403808594
78	323.1231689453125	fix_pre	0		120	76.0	2.5	blank	1.0	408.1040139198303	1.0001189708709717
78	324.11519408226013	pulse	0	t		76.0	2.5	blank	1.0	409.09603905677795	
78	324.1232879161835	movie	1		301	76.0	2.5	blank	1.0	409.1041328907013	2.5087389945983887
78	325.71551489830017	pulse	1	t		76.0	2.5	blank	1.0	410.696359872818	
78	326.63202691078186	fix_post	2		12	76.0	2.5	blank	1.0	411.6128718852997	0.10006117820739746
79	326.73208808898926	fix_pre	0		120	77.0	2.5	/experiments/knapen_AOT/AOT_stimuli/rescaled_final/1201_rv.mp4	0.0	411.7129330635071	1.0000698566436768
79	327.31563210487366	pulse	0	t		77.0	2.5	/experiments/knapen_AOT/AOT_stimuli/rescaled_final/1201_rv.mp4	0.0	412.2964770793915	
79	327.73215794563293	movie	1		243	77.0	2.5	/experiments/knapen_AOT/AOT_stimuli/rescaled_final/1201_rv.mp4	0.0	412.71300292015076	2.500504970550537
79	328.9160490036011	pulse	1	t		77.0	2.5	/experiments/knapen_AOT/AOT_stimuli/rescaled_final/1201_rv.mp4	0.0	413.8968939781189	
79	330.2326629161835	fix_post	2		12	77.0	2.5	/experiments/knapen_AOT/AOT_stimuli/rescaled_final/1201_rv.mp4	0.0	415.2135078907013	0.0999000072479248
80	330.3325629234314	fix_pre	0		120	78.0	2.5	/experiments/knapen_AOT/AOT_stimuli/rescaled_final/2030_rv.mp4	0.0	415.3134078979492	1.0001001358032227
80	330.51608204841614	pulse	0	t		78.0	2.5	/experiments/knapen_AOT/AOT_stimuli/rescaled_final/2030_rv.mp4	0.0	415.49692702293396	
80	331.3326630592346	movie	1		242	78.0	2.5	/experiments/knapen_AOT/AOT_stimuli/rescaled_final/2030_rv.mp4	0.0	416.31350803375244	2.500581979751587
80	332.1164479255676	pulse	1	t		78.0	2.5	/experiments/knapen_AOT/AOT_stimuli/rescaled_final/2030_rv.mp4	0.0	417.09729290008545	
80	333.7166509628296	pulse	1	t		78.0	2.5	/experiments/knapen_AOT/AOT_stimuli/rescaled_final/2030_rv.mp4	0.0	418.6974959373474	
80	333.8332450389862	fix_post	2		12	78.0	2.5	/experiments/knapen_AOT/AOT_stimuli/rescaled_final/2030_rv.mp4	0.0	418.814090013504	0.09988903999328613
81	333.9331340789795	fix_pre	0		120	79.0	2.5	/experiments/knapen_AOT/AOT_stimuli/rescaled_final/1025_fw.mp4	0.0	418.9139790534973	1.0001018047332764
81	334.93323588371277	movie	1		241	79.0	2.5	/experiments/knapen_AOT/AOT_stimuli/rescaled_final/1025_fw.mp4	0.0	419.9140808582306	2.4921770095825195
81	335.31747007369995	pulse	1	t		79.0	2.5	/experiments/knapen_AOT/AOT_stimuli/rescaled_final/1025_fw.mp4	0.0	420.2983150482178	
81	336.9170300960541	pulse	1	t		79.0	2.5	/experiments/knapen_AOT/AOT_stimuli/rescaled_final/1025_fw.mp4	0.0	421.8978750705719	
81	337.4254128932953	fix_post	2		12	79.0	2.5	/experiments/knapen_AOT/AOT_stimuli/rescaled_final/1025_fw.mp4	0.0	422.4062578678131	0.09991002082824707
82	337.52532291412354	fix_pre	0		120	80.0	2.5	/experiments/knapen_AOT/AOT_stimuli/rescaled_final/1295_rv.mp4	0.0	422.50616788864136	1.0000879764556885
82	338.5174069404602	pulse	0	t		80.0	2.5	/experiments/knapen_AOT/AOT_stimuli/rescaled_final/1295_rv.mp4	0.0	423.498251914978	
82	338.5254108905792	movie	1		244	80.0	2.5	/experiments/knapen_AOT/AOT_stimuli/rescaled_final/1295_rv.mp4	0.0	423.50625586509705	2.5088372230529785
82	340.12193393707275	pulse	1	t		80.0	2.5	/experiments/knapen_AOT/AOT_stimuli/rescaled_final/1295_rv.mp4	0.0	425.1027789115906	
82	341.0342481136322	fix_post	2		12	80.0	2.5	/experiments/knapen_AOT/AOT_stimuli/rescaled_final/1295_rv.mp4	0.0	426.01509308815	0.09989786148071289
83	341.1341459751129	fix_pre	0		120	81.0	2.5	/experiments/knapen_AOT/AOT_stimuli/rescaled_final/0869_fw.mp4	0.0	426.11499094963074	1.0002050399780273
83	341.7177219390869	pulse	0	t		81.0	2.5	/experiments/knapen_AOT/AOT_stimuli/rescaled_final/0869_fw.mp4	0.0	426.69856691360474	
83	342.13435101509094	movie	1		241	81.0	2.5	/experiments/knapen_AOT/AOT_stimuli/rescaled_final/0869_fw.mp4	0.0	427.11519598960876	2.5088388919830322
83	343.318186044693	pulse	1	t		81.0	2.5	/experiments/knapen_AOT/AOT_stimuli/rescaled_final/0869_fw.mp4	0.0	428.2990310192108	
83	344.643189907074	fix_post	2		11	81.0	2.5	/experiments/knapen_AOT/AOT_stimuli/rescaled_final/0869_fw.mp4	0.0	429.6240348815918	0.09150815010070801
84	344.7346980571747	fix_pre	0		120	82.0	2.5	/experiments/knapen_AOT/AOT_stimuli/rescaled_final/0877_rv.mp4	0.0	429.7155430316925	1.0001368522644043
84	344.9184799194336	pulse	0	t		82.0	2.5	/experiments/knapen_AOT/AOT_stimuli/rescaled_final/0877_rv.mp4	0.0	429.8993248939514	
84	345.7348349094391	movie	1		243	82.0	2.5	/experiments/knapen_AOT/AOT_stimuli/rescaled_final/0877_rv.mp4	0.0	430.7156798839569	2.5005741119384766
84	346.5184450149536	pulse	1	t		82.0	2.5	/experiments/knapen_AOT/AOT_stimuli/rescaled_final/0877_rv.mp4	0.0	431.49928998947144	
84	348.1187210083008	pulse	1	t		82.0	2.5	/experiments/knapen_AOT/AOT_stimuli/rescaled_final/0877_rv.mp4	0.0	433.0995659828186	
84	348.23540902137756	fix_post	2		12	82.0	2.5	/experiments/knapen_AOT/AOT_stimuli/rescaled_final/0877_rv.mp4	0.0	433.2162539958954	0.09985899925231934
85	348.3352680206299	fix_pre	0		120	83.0	2.5	blank	1.0	433.3161129951477	1.0001180171966553
85	349.33538603782654	movie	1		299	83.0	2.5	blank	1.0	434.31623101234436	2.492081880569458
85	349.71888303756714	pulse	1	t		83.0	2.5	blank	1.0	434.69972801208496	
85	351.3191668987274	pulse	1	t		83.0	2.5	blank	1.0	436.30001187324524	
85	351.827467918396	fix_post	2		12	83.0	2.5	blank	1.0	436.8083128929138	0.10002899169921875
87	351.9274969100952	stim	0		1716					436.90834188461304	14.302205085754395
87	352.9121460914612	pulse	0	t						437.892991065979	
87	354.51242995262146	pulse	0	t						439.4932749271393	
87	356.11266803741455	pulse	0	t						441.0935130119324	
87	357.7127830982208	pulse	0	t						442.69362807273865	
87	359.31196689605713	pulse	0	t						444.29281187057495	
87	360.91219997406006	pulse	0	t						445.8930449485779	
87	362.5125811100006	pulse	0	t						447.49342608451843	
87	364.1127920150757	pulse	0	t						449.0936369895935	
87	365.71288990974426	pulse	0	t						450.6937348842621	
