trial_nr	onset	event_type	phase	response	nr_frames	movie_index	movie_duration	movie_file	blank	onset_abs	duration
0	0.14994001388549805	stim	0		161					22.598764896392822	1.3415300846099854
0	1.4835190773010254	response	0	space						23.93234395980835	
1	1.4914700984954834	stim	0		2697					23.940294981002808	22.474910974502563
1	23.9623441696167	pulse	0	t						46.41116905212402	
1	23.966381072998047	stim	1		1717					46.41520595550537	14.308259010314941
1	25.558248043060303	pulse	1	t						48.00707292556763	
1	27.15823006629944	pulse	1	t						49.60705494880676	
1	28.75823402404785	pulse	1	t						51.207058906555176	
1	30.358164072036743	pulse	1	t						52.80698895454407	
1	31.958243131637573	pulse	1	t						54.4070680141449	
1	33.55814814567566	pulse	1	t						56.00697302818298	
1	35.15812706947327	pulse	1	t						57.60695195198059	
1	36.75813603401184	pulse	1	t						59.206960916519165	
2	38.27464008331299	fix_pre	0		11	0.0	2.5	/experiments/AOT/AOT_stimuli/rescaled_final/1338_fw.mp4	0.0	60.72346496582031	0.09167194366455078
2	38.358182191848755	pulse	0	t		0.0	2.5	/experiments/AOT/AOT_stimuli/rescaled_final/1338_fw.mp4	0.0	60.80700707435608	
2	38.36631202697754	movie	1		244	0.0	2.5	/experiments/AOT/AOT_stimuli/rescaled_final/1338_fw.mp4	0.0	60.81513690948486	2.508355140686035
2	39.95776009559631	pulse	1	t		0.0	2.5	/experiments/AOT/AOT_stimuli/rescaled_final/1338_fw.mp4	0.0	62.40658497810364	
2	40.874667167663574	fix_post	2		12	0.0	2.5	/experiments/AOT/AOT_stimuli/rescaled_final/1338_fw.mp4	0.0	63.3234920501709	0.10003995895385742
3	40.97470712661743	fix_pre	0		120	1.0	2.5	/experiments/AOT/AOT_stimuli/rescaled_final/0840_rv.mp4	0.0	63.423532009124756	0.9999690055847168
3	41.55822205543518	pulse	0	t		1.0	2.5	/experiments/AOT/AOT_stimuli/rescaled_final/0840_rv.mp4	0.0	64.0070469379425	
3	41.97467613220215	movie	1		244	1.0	2.5	/experiments/AOT/AOT_stimuli/rescaled_final/0840_rv.mp4	0.0	64.42350101470947	2.500032901763916
3	43.15821409225464	pulse	1	t		1.0	2.5	/experiments/AOT/AOT_stimuli/rescaled_final/0840_rv.mp4	0.0	65.60703897476196	
3	44.474709033966064	fix_post	2		12	1.0	2.5	/experiments/AOT/AOT_stimuli/rescaled_final/0840_rv.mp4	0.0	66.92353391647339	0.09998011589050293
4	44.57468914985657	fix_pre	0		120	2.0	2.5	/experiments/AOT/AOT_stimuli/rescaled_final/0318_rv.mp4	0.0	67.02351403236389	1.0
4	44.75813317298889	pulse	0	t		2.0	2.5	/experiments/AOT/AOT_stimuli/rescaled_final/0318_rv.mp4	0.0	67.20695805549622	
4	45.57468914985657	movie	1		244	2.0	2.5	/experiments/AOT/AOT_stimuli/rescaled_final/0318_rv.mp4	0.0	68.02351403236389	2.4999358654022217
4	46.358108043670654	pulse	1	t		2.0	2.5	/experiments/AOT/AOT_stimuli/rescaled_final/0318_rv.mp4	0.0	68.80693292617798	
4	47.96655201911926	pulse	1	t		2.0	2.5	/experiments/AOT/AOT_stimuli/rescaled_final/0318_rv.mp4	0.0	70.41537690162659	
4	48.07462501525879	fix_post	2		12	2.0	2.5	/experiments/AOT/AOT_stimuli/rescaled_final/0318_rv.mp4	0.0	70.52344989776611	0.10007119178771973
5	48.17469620704651	fix_pre	0		120	3.0	2.5	/experiments/AOT/AOT_stimuli/rescaled_final/0432_rv.mp4	0.0	70.62352108955383	0.9999978542327881
5	49.1746940612793	movie	1		244	3.0	2.5	/experiments/AOT/AOT_stimuli/rescaled_final/0432_rv.mp4	0.0	71.62351894378662	2.4998369216918945
5	49.56611919403076	pulse	1	t		3.0	2.5	/experiments/AOT/AOT_stimuli/rescaled_final/0432_rv.mp4	0.0	72.01494407653809	
5	51.15789604187012	pulse	1	t		3.0	2.5	/experiments/AOT/AOT_stimuli/rescaled_final/0432_rv.mp4	0.0	73.60672092437744	
5	51.67453098297119	fix_post	2		12	3.0	2.5	/experiments/AOT/AOT_stimuli/rescaled_final/0432_rv.mp4	0.0	74.12335586547852	0.1003880500793457
6	51.77491903305054	fix_pre	0		119	4.0	2.5	/experiments/AOT/AOT_stimuli/rescaled_final/2174_fw.mp4	0.0	74.22374391555786	0.9913899898529053
6	52.75815200805664	pulse	0	t		4.0	2.5	/experiments/AOT/AOT_stimuli/rescaled_final/2174_fw.mp4	0.0	75.20697689056396	
6	52.76630902290344	movie	1		246	4.0	2.5	/experiments/AOT/AOT_stimuli/rescaled_final/2174_fw.mp4	0.0	75.21513390541077	2.5082640647888184
6	54.35820198059082	pulse	1	t		4.0	2.5	/experiments/AOT/AOT_stimuli/rescaled_final/2174_fw.mp4	0.0	76.80702686309814	
6	55.27457308769226	fix_post	2		12	4.0	2.5	/experiments/AOT/AOT_stimuli/rescaled_final/2174_fw.mp4	0.0	77.72339797019958	0.10001111030578613
7	55.37458419799805	fix_pre	0		120	5.0	2.5	/experiments/AOT/AOT_stimuli/rescaled_final/0363_rv.mp4	0.0	77.82340908050537	0.9999849796295166
7	55.958123207092285	pulse	0	t		5.0	2.5	/experiments/AOT/AOT_stimuli/rescaled_final/0363_rv.mp4	0.0	78.40694808959961	
7	56.37456917762756	movie	1		245	5.0	2.5	/experiments/AOT/AOT_stimuli/rescaled_final/0363_rv.mp4	0.0	78.82339406013489	2.5000178813934326
7	57.55812120437622	pulse	1	t		5.0	2.5	/experiments/AOT/AOT_stimuli/rescaled_final/0363_rv.mp4	0.0	80.00694608688354	
7	58.874587059020996	fix_post	2		12	5.0	2.5	/experiments/AOT/AOT_stimuli/rescaled_final/0363_rv.mp4	0.0	81.32341194152832	0.10007095336914062
8	58.97465801239014	fix_pre	0		120	6.0	2.5	/experiments/AOT/AOT_stimuli/rescaled_final/1187_rv.mp4	0.0	81.42348289489746	0.9999051094055176
8	59.15799808502197	pulse	0	t		6.0	2.5	/experiments/AOT/AOT_stimuli/rescaled_final/1187_rv.mp4	0.0	81.6068229675293	
8	59.974563121795654	movie	1		245	6.0	2.5	/experiments/AOT/AOT_stimuli/rescaled_final/1187_rv.mp4	0.0	82.42338800430298	2.499955892562866
8	60.75804805755615	pulse	1	t		6.0	2.5	/experiments/AOT/AOT_stimuli/rescaled_final/1187_rv.mp4	0.0	83.20687294006348	
8	62.35754203796387	pulse	1	t		6.0	2.5	/experiments/AOT/AOT_stimuli/rescaled_final/1187_rv.mp4	0.0	84.80636692047119	
8	62.47451901435852	fix_post	2		12	6.0	2.5	/experiments/AOT/AOT_stimuli/rescaled_final/1187_rv.mp4	0.0	84.92334389686584	0.10002708435058594
9	62.574546098709106	fix_pre	0		120	7.0	2.5	blank	1.0	85.02337098121643	0.9999740123748779
9	63.574520111083984	movie	1		300	7.0	2.5	blank	1.0	86.02334499359131	2.499969005584717
9	63.958139181137085	pulse	1	t		7.0	2.5	blank	1.0	86.40696406364441	
9	65.55794405937195	pulse	1	t		7.0	2.5	blank	1.0	88.00676894187927	
9	66.0744891166687	fix_post	2		12	7.0	2.5	blank	1.0	88.52331399917603	0.1000220775604248
10	66.17451119422913	fix_pre	0		119	8.0	2.5	/experiments/AOT/AOT_stimuli/rescaled_final/1166_fw.mp4	0.0	88.62333607673645	0.9916448593139648
10	67.15805220603943	pulse	0	t		8.0	2.5	/experiments/AOT/AOT_stimuli/rescaled_final/1166_fw.mp4	0.0	89.60687708854675	
10	67.16615605354309	movie	1		245	8.0	2.5	/experiments/AOT/AOT_stimuli/rescaled_final/1166_fw.mp4	0.0	89.61498093605042	2.5083930492401123
10	68.7581901550293	pulse	1	t		8.0	2.5	/experiments/AOT/AOT_stimuli/rescaled_final/1166_fw.mp4	0.0	91.20701503753662	
10	69.6745491027832	fix_post	2		12	8.0	2.5	/experiments/AOT/AOT_stimuli/rescaled_final/1166_fw.mp4	0.0	92.12337398529053	0.09991788864135742
11	69.77446699142456	fix_pre	0		120	9.0	2.5	/experiments/AOT/AOT_stimuli/rescaled_final/1700_fw.mp4	0.0	92.22329187393188	0.9999899864196777
11	70.35805797576904	pulse	0	t		9.0	2.5	/experiments/AOT/AOT_stimuli/rescaled_final/1700_fw.mp4	0.0	92.80688285827637	
11	70.77445697784424	movie	1		243	9.0	2.5	/experiments/AOT/AOT_stimuli/rescaled_final/1700_fw.mp4	0.0	93.22328186035156	2.4999401569366455
11	71.95805597305298	pulse	1	t		9.0	2.5	/experiments/AOT/AOT_stimuli/rescaled_final/1700_fw.mp4	0.0	94.4068808555603	
11	73.27439713478088	fix_post	2		12	9.0	2.5	/experiments/AOT/AOT_stimuli/rescaled_final/1700_fw.mp4	0.0	95.72322201728821	0.10007596015930176
12	73.37447309494019	fix_pre	0		120	10.0	2.5	/experiments/AOT/AOT_stimuli/rescaled_final/1889_rv.mp4	0.0	95.82329797744751	1.000006914138794
12	73.55796408653259	pulse	0	t		10.0	2.5	/experiments/AOT/AOT_stimuli/rescaled_final/1889_rv.mp4	0.0	96.00678896903992	
12	74.37448000907898	movie	1		244	10.0	2.5	/experiments/AOT/AOT_stimuli/rescaled_final/1889_rv.mp4	0.0	96.8233048915863	2.4999351501464844
12	75.1579761505127	pulse	1	t		10.0	2.5	/experiments/AOT/AOT_stimuli/rescaled_final/1889_rv.mp4	0.0	97.60680103302002	
12	76.76631808280945	pulse	1	t		10.0	2.5	/experiments/AOT/AOT_stimuli/rescaled_final/1889_rv.mp4	0.0	99.21514296531677	
12	76.87441515922546	fix_post	2		12	10.0	2.5	/experiments/AOT/AOT_stimuli/rescaled_final/1889_rv.mp4	0.0	99.32324004173279	0.09963798522949219
13	76.97405314445496	fix_pre	0		120	11.0	2.5	/experiments/AOT/AOT_stimuli/rescaled_final/1274_rv.mp4	0.0	99.42287802696228	1.0004608631134033
13	77.97451400756836	movie	1		245	11.0	2.5	/experiments/AOT/AOT_stimuli/rescaled_final/1274_rv.mp4	0.0	100.42333889007568	2.4998791217803955
13	78.36638712882996	pulse	1	t		11.0	2.5	/experiments/AOT/AOT_stimuli/rescaled_final/1274_rv.mp4	0.0	100.81521201133728	
13	79.95799803733826	pulse	1	t		11.0	2.5	/experiments/AOT/AOT_stimuli/rescaled_final/1274_rv.mp4	0.0	102.40682291984558	
13	80.47439312934875	fix_post	2		12	11.0	2.5	/experiments/AOT/AOT_stimuli/rescaled_final/1274_rv.mp4	0.0	102.92321801185608	0.1001439094543457
14	80.5745370388031	fix_pre	0		119	12.0	2.5	/experiments/AOT/AOT_stimuli/rescaled_final/1008_fw.mp4	0.0	103.02336192131042	0.9915449619293213
14	81.55794620513916	pulse	0	t		12.0	2.5	/experiments/AOT/AOT_stimuli/rescaled_final/1008_fw.mp4	0.0	104.00677108764648	
14	81.56608200073242	movie	1		244	12.0	2.5	/experiments/AOT/AOT_stimuli/rescaled_final/1008_fw.mp4	0.0	104.01490688323975	2.508301019668579
14	83.15932011604309	pulse	1	t		12.0	2.5	/experiments/AOT/AOT_stimuli/rescaled_final/1008_fw.mp4	0.0	105.60814499855042	
14	84.074383020401	fix_post	2		12	12.0	2.5	/experiments/AOT/AOT_stimuli/rescaled_final/1008_fw.mp4	0.0	106.52320790290833	0.09960198402404785
15	84.17398500442505	fix_pre	0		120	13.0	2.5	blank	1.0	106.62280988693237	1.0004761219024658
15	84.75798511505127	pulse	0	t		13.0	2.5	blank	1.0	107.2068099975586	
15	85.17446112632751	movie	1		300	13.0	2.5	blank	1.0	107.62328600883484	2.4999489784240723
15	86.35789108276367	pulse	1	t		13.0	2.5	blank	1.0	108.806715965271	
15	87.67441010475159	fix_post	2		12	13.0	2.5	blank	1.0	110.12323498725891	0.10007309913635254
16	87.77448320388794	fix_pre	0		120	14.0	2.5	/experiments/AOT/AOT_stimuli/rescaled_final/2049_fw.mp4	0.0	110.22330808639526	0.9999887943267822
16	87.95791697502136	pulse	0	t		14.0	2.5	/experiments/AOT/AOT_stimuli/rescaled_final/2049_fw.mp4	0.0	110.40674185752869	
16	88.77447199821472	movie	1		243	14.0	2.5	/experiments/AOT/AOT_stimuli/rescaled_final/2049_fw.mp4	0.0	111.22329688072205	2.499890089035034
16	89.55791211128235	pulse	1	t		14.0	2.5	/experiments/AOT/AOT_stimuli/rescaled_final/2049_fw.mp4	0.0	112.00673699378967	
16	91.16624808311462	pulse	1	t		14.0	2.5	/experiments/AOT/AOT_stimuli/rescaled_final/2049_fw.mp4	0.0	113.61507296562195	
16	91.27436208724976	fix_post	2		12	14.0	2.5	/experiments/AOT/AOT_stimuli/rescaled_final/2049_fw.mp4	0.0	113.72318696975708	0.10009503364562988
17	91.37445712089539	fix_pre	0		120	15.0	2.5	/experiments/AOT/AOT_stimuli/rescaled_final/1606_rv.mp4	0.0	113.82328200340271	0.9999849796295166
17	92.3744421005249	movie	1		244	15.0	2.5	/experiments/AOT/AOT_stimuli/rescaled_final/1606_rv.mp4	0.0	114.82326698303223	2.499588966369629
17	92.75923109054565	pulse	1	t		15.0	2.5	/experiments/AOT/AOT_stimuli/rescaled_final/1606_rv.mp4	0.0	115.20805597305298	
17	94.35777997970581	pulse	1	t		15.0	2.5	/experiments/AOT/AOT_stimuli/rescaled_final/1606_rv.mp4	0.0	116.80660486221313	
17	94.87403106689453	fix_post	2		12	15.0	2.5	/experiments/AOT/AOT_stimuli/rescaled_final/1606_rv.mp4	0.0	117.32285594940186	0.10032796859741211
18	94.97435903549194	fix_pre	0		119	16.0	2.5	/experiments/AOT/AOT_stimuli/rescaled_final/1634_fw.mp4	0.0	117.42318391799927	0.9916419982910156
18	95.95789813995361	pulse	0	t		16.0	2.5	/experiments/AOT/AOT_stimuli/rescaled_final/1634_fw.mp4	0.0	118.40672302246094	
18	95.96600103378296	movie	1		247	16.0	2.5	/experiments/AOT/AOT_stimuli/rescaled_final/1634_fw.mp4	0.0	118.41482591629028	2.5084280967712402
18	97.56624412536621	pulse	1	t		16.0	2.5	/experiments/AOT/AOT_stimuli/rescaled_final/1634_fw.mp4	0.0	120.01506900787354	
18	98.4744291305542	fix_post	2		12	16.0	2.5	/experiments/AOT/AOT_stimuli/rescaled_final/1634_fw.mp4	0.0	120.92325401306152	0.09989190101623535
19	98.57432103157043	fix_pre	0		120	17.0	2.5	/experiments/AOT/AOT_stimuli/rescaled_final/1709_rv.mp4	0.0	121.02314591407776	1.0000309944152832
19	99.15906500816345	pulse	0	t		17.0	2.5	/experiments/AOT/AOT_stimuli/rescaled_final/1709_rv.mp4	0.0	121.60788989067078	
19	99.57435202598572	movie	1		242	17.0	2.5	/experiments/AOT/AOT_stimuli/rescaled_final/1709_rv.mp4	0.0	122.02317690849304	2.500087022781372
19	100.75807404518127	pulse	1	t		17.0	2.5	/experiments/AOT/AOT_stimuli/rescaled_final/1709_rv.mp4	0.0	123.2068989276886	
19	102.07443904876709	fix_post	2		12	17.0	2.5	/experiments/AOT/AOT_stimuli/rescaled_final/1709_rv.mp4	0.0	124.52326393127441	0.09985113143920898
20	102.1742901802063	fix_pre	0		120	18.0	2.5	/experiments/AOT/AOT_stimuli/rescaled_final/0265_rv.mp4	0.0	124.62311506271362	1.000175952911377
20	102.35785412788391	pulse	0	t		18.0	2.5	/experiments/AOT/AOT_stimuli/rescaled_final/0265_rv.mp4	0.0	124.80667901039124	
20	103.17446613311768	movie	1		245	18.0	2.5	/experiments/AOT/AOT_stimuli/rescaled_final/0265_rv.mp4	0.0	125.623291015625	2.4995720386505127
20	103.95784020423889	pulse	1	t		18.0	2.5	/experiments/AOT/AOT_stimuli/rescaled_final/0265_rv.mp4	0.0	126.40666508674622	
20	105.55758619308472	pulse	1	t		18.0	2.5	/experiments/AOT/AOT_stimuli/rescaled_final/0265_rv.mp4	0.0	128.00641107559204	
20	105.67403817176819	fix_post	2		12	18.0	2.5	/experiments/AOT/AOT_stimuli/rescaled_final/0265_rv.mp4	0.0	128.1228630542755	0.10042381286621094
21	105.7744619846344	fix_pre	0		120	19.0	2.5	/experiments/AOT/AOT_stimuli/rescaled_final/0058_fw.mp4	0.0	128.22328686714172	1.0000741481781006
21	106.7745361328125	movie	1		246	19.0	2.5	/experiments/AOT/AOT_stimuli/rescaled_final/0058_fw.mp4	0.0	129.22336101531982	2.4998559951782227
21	107.15869617462158	pulse	1	t		19.0	2.5	/experiments/AOT/AOT_stimuli/rescaled_final/0058_fw.mp4	0.0	129.6075210571289	
21	108.75778603553772	pulse	1	t		19.0	2.5	/experiments/AOT/AOT_stimuli/rescaled_final/0058_fw.mp4	0.0	131.20661091804504	
21	109.27439212799072	fix_post	2		12	19.0	2.5	/experiments/AOT/AOT_stimuli/rescaled_final/0058_fw.mp4	0.0	131.72321701049805	0.09996485710144043
22	109.37435698509216	fix_pre	0		119	20.0	2.5	/experiments/AOT/AOT_stimuli/rescaled_final/1223_rv.mp4	0.0	131.8231818675995	0.991671085357666
22	110.35776901245117	pulse	0	t		20.0	2.5	/experiments/AOT/AOT_stimuli/rescaled_final/1223_rv.mp4	0.0	132.8065938949585	
22	110.36602807044983	movie	1		246	20.0	2.5	/experiments/AOT/AOT_stimuli/rescaled_final/1223_rv.mp4	0.0	132.81485295295715	2.508357048034668
22	111.96623611450195	pulse	1	t		20.0	2.5	/experiments/AOT/AOT_stimuli/rescaled_final/1223_rv.mp4	0.0	134.41506099700928	
22	112.8743851184845	fix_post	2		12	20.0	2.5	/experiments/AOT/AOT_stimuli/rescaled_final/1223_rv.mp4	0.0	135.32321000099182	0.09999394416809082
23	112.97437906265259	fix_pre	0		120	21.0	2.5	blank	1.0	135.4232039451599	0.9999411106109619
23	113.55778813362122	pulse	0	t		21.0	2.5	blank	1.0	136.00661301612854	
23	113.97432017326355	movie	1		300	21.0	2.5	blank	1.0	136.42314505577087	2.4999749660491943
23	115.15777611732483	pulse	1	t		21.0	2.5	blank	1.0	137.60660099983215	
23	116.47429513931274	fix_post	2		12	21.0	2.5	blank	1.0	138.92312002182007	0.10006499290466309
24	116.57436013221741	fix_pre	0		120	22.0	2.5	/experiments/AOT/AOT_stimuli/rescaled_final/1429_fw.mp4	0.0	139.02318501472473	0.9999089241027832
24	116.75789499282837	pulse	0	t		22.0	2.5	/experiments/AOT/AOT_stimuli/rescaled_final/1429_fw.mp4	0.0	139.2067198753357	
24	117.57426905632019	movie	1		245	22.0	2.5	/experiments/AOT/AOT_stimuli/rescaled_final/1429_fw.mp4	0.0	140.02309393882751	2.4999849796295166
24	118.3577229976654	pulse	1	t		22.0	2.5	/experiments/AOT/AOT_stimuli/rescaled_final/1429_fw.mp4	0.0	140.80654788017273	
24	119.95780897140503	pulse	1	t		22.0	2.5	/experiments/AOT/AOT_stimuli/rescaled_final/1429_fw.mp4	0.0	142.40663385391235	
24	120.0742540359497	fix_post	2		12	22.0	2.5	/experiments/AOT/AOT_stimuli/rescaled_final/1429_fw.mp4	0.0	142.52307891845703	0.10001397132873535
25	120.17426800727844	fix_pre	0		120	23.0	2.5	/experiments/AOT/AOT_stimuli/rescaled_final/0432_fw.mp4	0.0	142.62309288978577	0.9999539852142334
25	121.17422199249268	movie	1		246	23.0	2.5	/experiments/AOT/AOT_stimuli/rescaled_final/0432_fw.mp4	0.0	143.623046875	2.5000391006469727
25	121.55714917182922	pulse	1	t		23.0	2.5	/experiments/AOT/AOT_stimuli/rescaled_final/0432_fw.mp4	0.0	144.00597405433655	
25	123.15770101547241	pulse	1	t		23.0	2.5	/experiments/AOT/AOT_stimuli/rescaled_final/0432_fw.mp4	0.0	145.60652589797974	
25	123.67426109313965	fix_post	2		12	23.0	2.5	/experiments/AOT/AOT_stimuli/rescaled_final/0432_fw.mp4	0.0	146.12308597564697	0.09999895095825195
26	123.7742600440979	fix_pre	0		119	24.0	2.5	/experiments/AOT/AOT_stimuli/rescaled_final/0715_fw.mp4	0.0	146.22308492660522	0.9916911125183105
26	124.75777912139893	pulse	0	t		24.0	2.5	/experiments/AOT/AOT_stimuli/rescaled_final/0715_fw.mp4	0.0	147.20660400390625	
26	124.76595115661621	movie	1		247	24.0	2.5	/experiments/AOT/AOT_stimuli/rescaled_final/0715_fw.mp4	0.0	147.21477603912354	2.5082650184631348
26	126.36615920066833	pulse	1	t		24.0	2.5	/experiments/AOT/AOT_stimuli/rescaled_final/0715_fw.mp4	0.0	148.81498408317566	
26	127.27421617507935	fix_post	2		12	24.0	2.5	/experiments/AOT/AOT_stimuli/rescaled_final/0715_fw.mp4	0.0	149.72304105758667	0.10001683235168457
27	127.37423300743103	fix_pre	0		120	25.0	2.5	/experiments/AOT/AOT_stimuli/rescaled_final/0983_rv.mp4	0.0	149.82305788993835	1.00006103515625
27	127.95770907402039	pulse	0	t		25.0	2.5	/experiments/AOT/AOT_stimuli/rescaled_final/0983_rv.mp4	0.0	150.4065339565277	
27	128.37429404258728	movie	1		244	25.0	2.5	/experiments/AOT/AOT_stimuli/rescaled_final/0983_rv.mp4	0.0	150.8231189250946	2.499540090560913
27	129.5578110218048	pulse	1	t		25.0	2.5	/experiments/AOT/AOT_stimuli/rescaled_final/0983_rv.mp4	0.0	152.00663590431213	
27	130.8738341331482	fix_post	2		12	25.0	2.5	/experiments/AOT/AOT_stimuli/rescaled_final/0983_rv.mp4	0.0	153.32265901565552	0.10043787956237793
28	130.97427201271057	fix_pre	0		120	26.0	2.5	blank	1.0	153.4230968952179	0.9999830722808838
28	131.15781903266907	pulse	0	t		26.0	2.5	blank	1.0	153.6066439151764	
28	131.97425508499146	movie	1		300	26.0	2.5	blank	1.0	154.42307996749878	2.499941110610962
28	132.7576961517334	pulse	1	t		26.0	2.5	blank	1.0	155.20652103424072	
28	134.35766220092773	pulse	1	t		26.0	2.5	blank	1.0	156.80648708343506	
28	134.47419619560242	fix_post	2		12	26.0	2.5	blank	1.0	156.92302107810974	0.09993100166320801
29	134.57412719726562	fix_pre	0		120	27.0	2.5	/experiments/AOT/AOT_stimuli/rescaled_final/1709_fw.mp4	0.0	157.02295207977295	1.0002589225769043
29	135.57438611984253	movie	1		243	27.0	2.5	/experiments/AOT/AOT_stimuli/rescaled_final/1709_fw.mp4	0.0	158.02321100234985	2.499750852584839
29	135.95729804039001	pulse	1	t		27.0	2.5	/experiments/AOT/AOT_stimuli/rescaled_final/1709_fw.mp4	0.0	158.40612292289734	
29	137.55766606330872	pulse	1	t		27.0	2.5	/experiments/AOT/AOT_stimuli/rescaled_final/1709_fw.mp4	0.0	160.00649094581604	
29	138.07413697242737	fix_post	2		12	27.0	2.5	/experiments/AOT/AOT_stimuli/rescaled_final/1709_fw.mp4	0.0	160.5229618549347	0.10003399848937988
30	138.17417097091675	fix_pre	0		119	28.0	2.5	/experiments/AOT/AOT_stimuli/rescaled_final/0249_rv.mp4	0.0	160.62299585342407	0.9917030334472656
30	139.1576690673828	pulse	0	t		28.0	2.5	/experiments/AOT/AOT_stimuli/rescaled_final/0249_rv.mp4	0.0	161.60649394989014	
30	139.165874004364	movie	1		246	28.0	2.5	/experiments/AOT/AOT_stimuli/rescaled_final/0249_rv.mp4	0.0	161.61469888687134	2.5083301067352295
30	140.7574110031128	pulse	1	t		28.0	2.5	/experiments/AOT/AOT_stimuli/rescaled_final/0249_rv.mp4	0.0	163.20623588562012	
30	141.67420411109924	fix_post	2		12	28.0	2.5	/experiments/AOT/AOT_stimuli/rescaled_final/0249_rv.mp4	0.0	164.12302899360657	0.10003304481506348
31	141.7742371559143	fix_pre	0		120	29.0	2.5	/experiments/AOT/AOT_stimuli/rescaled_final/0883_rv.mp4	0.0	164.22306203842163	0.9999649524688721
31	142.3577060699463	pulse	0	t		29.0	2.5	/experiments/AOT/AOT_stimuli/rescaled_final/0883_rv.mp4	0.0	164.8065309524536	
31	142.77420210838318	movie	1		247	29.0	2.5	/experiments/AOT/AOT_stimuli/rescaled_final/0883_rv.mp4	0.0	165.2230269908905	2.4999489784240723
31	143.9576780796051	pulse	1	t		29.0	2.5	/experiments/AOT/AOT_stimuli/rescaled_final/0883_rv.mp4	0.0	166.40650296211243	
31	145.27415108680725	fix_post	2		12	29.0	2.5	/experiments/AOT/AOT_stimuli/rescaled_final/0883_rv.mp4	0.0	167.72297596931458	0.10005593299865723
32	145.3742070198059	fix_pre	0		120	30.0	2.5	/experiments/AOT/AOT_stimuli/rescaled_final/0058_rv.mp4	0.0	167.82303190231323	0.9999010562896729
32	145.55764317512512	pulse	0	t		30.0	2.5	/experiments/AOT/AOT_stimuli/rescaled_final/0058_rv.mp4	0.0	168.00646805763245	
32	146.37410807609558	movie	1		246	30.0	2.5	/experiments/AOT/AOT_stimuli/rescaled_final/0058_rv.mp4	0.0	168.8229329586029	2.499983072280884
32	147.15762400627136	pulse	1	t		30.0	2.5	/experiments/AOT/AOT_stimuli/rescaled_final/0058_rv.mp4	0.0	169.6064488887787	
32	148.75802516937256	pulse	1	t		30.0	2.5	/experiments/AOT/AOT_stimuli/rescaled_final/0058_rv.mp4	0.0	171.20685005187988	
32	148.87409114837646	fix_post	2		12	30.0	2.5	/experiments/AOT/AOT_stimuli/rescaled_final/0058_rv.mp4	0.0	171.3229160308838	0.09997105598449707
33	148.97406220436096	fix_pre	0		120	31.0	2.5	/experiments/AOT/AOT_stimuli/rescaled_final/0486_fw.mp4	0.0	171.4228870868683	1.0000498294830322
33	149.974112033844	movie	1		246	31.0	2.5	/experiments/AOT/AOT_stimuli/rescaled_final/0486_fw.mp4	0.0	172.42293691635132	2.4999570846557617
33	150.3582751750946	pulse	1	t		31.0	2.5	/experiments/AOT/AOT_stimuli/rescaled_final/0486_fw.mp4	0.0	172.80710005760193	
33	151.95757412910461	pulse	1	t		31.0	2.5	/experiments/AOT/AOT_stimuli/rescaled_final/0486_fw.mp4	0.0	174.40639901161194	
33	152.47406911849976	fix_post	2		12	31.0	2.5	/experiments/AOT/AOT_stimuli/rescaled_final/0486_fw.mp4	0.0	174.92289400100708	0.09995698928833008
34	152.5740261077881	fix_pre	0		119	32.0	2.5	/experiments/AOT/AOT_stimuli/rescaled_final/1196_fw.mp4	0.0	175.0228509902954	0.9916729927062988
34	153.55752110481262	pulse	0	t		32.0	2.5	/experiments/AOT/AOT_stimuli/rescaled_final/1196_fw.mp4	0.0	176.00634598731995	
34	153.56569910049438	movie	1		245	32.0	2.5	/experiments/AOT/AOT_stimuli/rescaled_final/1196_fw.mp4	0.0	176.0145239830017	2.5084469318389893
34	155.15715312957764	pulse	1	t		32.0	2.5	/experiments/AOT/AOT_stimuli/rescaled_final/1196_fw.mp4	0.0	177.60597801208496	
34	156.07414603233337	fix_post	2		12	32.0	2.5	/experiments/AOT/AOT_stimuli/rescaled_final/1196_fw.mp4	0.0	178.5229709148407	0.10002994537353516
35	156.1741759777069	fix_pre	0		120	33.0	2.5	/experiments/AOT/AOT_stimuli/rescaled_final/0492_fw.mp4	0.0	178.62300086021423	0.9999551773071289
35	156.75756216049194	pulse	0	t		33.0	2.5	/experiments/AOT/AOT_stimuli/rescaled_final/0492_fw.mp4	0.0	179.20638704299927	
35	157.17413115501404	movie	1		243	33.0	2.5	/experiments/AOT/AOT_stimuli/rescaled_final/0492_fw.mp4	0.0	179.62295603752136	2.4999639987945557
35	158.35863709449768	pulse	1	t		33.0	2.5	/experiments/AOT/AOT_stimuli/rescaled_final/0492_fw.mp4	0.0	180.807461977005	
35	159.6740951538086	fix_post	2		12	33.0	2.5	/experiments/AOT/AOT_stimuli/rescaled_final/0492_fw.mp4	0.0	182.12292003631592	0.1000208854675293
36	159.77411603927612	fix_pre	0		120	34.0	2.5	blank	1.0	182.22294092178345	0.9999740123748779
36	159.95761704444885	pulse	0	t		34.0	2.5	blank	1.0	182.40644192695618	
36	160.774090051651	movie	1		300	34.0	2.5	blank	1.0	183.22291493415833	2.5003130435943604
36	161.55801606178284	pulse	1	t		34.0	2.5	blank	1.0	184.00684094429016	
36	163.1577970981598	pulse	1	t		34.0	2.5	blank	1.0	185.60662198066711	
36	163.27440309524536	fix_post	2		12	34.0	2.5	blank	1.0	185.72322797775269	0.09995603561401367
37	163.37435913085938	fix_pre	0		120	35.0	2.5	/experiments/AOT/AOT_stimuli/rescaled_final/0968_rv.mp4	0.0	185.8231840133667	0.9997310638427734
37	164.37409019470215	movie	1		244	35.0	2.5	/experiments/AOT/AOT_stimuli/rescaled_final/0968_rv.mp4	0.0	186.82291507720947	2.499905824661255
37	164.75881910324097	pulse	1	t		35.0	2.5	/experiments/AOT/AOT_stimuli/rescaled_final/0968_rv.mp4	0.0	187.2076439857483	
37	166.35760617256165	pulse	1	t		35.0	2.5	/experiments/AOT/AOT_stimuli/rescaled_final/0968_rv.mp4	0.0	188.80643105506897	
37	166.8739960193634	fix_post	2		12	35.0	2.5	/experiments/AOT/AOT_stimuli/rescaled_final/0968_rv.mp4	0.0	189.32282090187073	0.10006117820739746
38	166.9740571975708	fix_pre	0		119	36.0	2.5	/experiments/AOT/AOT_stimuli/rescaled_final/2119_fw.mp4	0.0	189.42288208007812	0.9917027950286865
38	167.95753812789917	pulse	0	t		36.0	2.5	/experiments/AOT/AOT_stimuli/rescaled_final/2119_fw.mp4	0.0	190.4063630104065	
38	167.9657599925995	movie	1		251	36.0	2.5	/experiments/AOT/AOT_stimuli/rescaled_final/2119_fw.mp4	0.0	190.4145848751068	2.508254051208496
38	169.55758118629456	pulse	1	t		36.0	2.5	/experiments/AOT/AOT_stimuli/rescaled_final/2119_fw.mp4	0.0	192.00640606880188	
38	170.47401404380798	fix_post	2		12	36.0	2.5	/experiments/AOT/AOT_stimuli/rescaled_final/2119_fw.mp4	0.0	192.9228389263153	0.09993100166320801
39	170.5739450454712	fix_pre	0		120	37.0	2.5	/experiments/AOT/AOT_stimuli/rescaled_final/1187_fw.mp4	0.0	193.02276992797852	0.9999830722808838
39	171.15750408172607	pulse	0	t		37.0	2.5	/experiments/AOT/AOT_stimuli/rescaled_final/1187_fw.mp4	0.0	193.6063289642334	
39	171.57392811775208	movie	1		244	37.0	2.5	/experiments/AOT/AOT_stimuli/rescaled_final/1187_fw.mp4	0.0	194.0227530002594	2.500027894973755
39	172.75766611099243	pulse	1	t		37.0	2.5	/experiments/AOT/AOT_stimuli/rescaled_final/1187_fw.mp4	0.0	195.20649099349976	
39	174.07395601272583	fix_post	2		12	37.0	2.5	/experiments/AOT/AOT_stimuli/rescaled_final/1187_fw.mp4	0.0	196.52278089523315	0.09995698928833008
40	174.17391300201416	fix_pre	0		120	38.0	2.5	/experiments/AOT/AOT_stimuli/rescaled_final/0577_rv.mp4	0.0	196.62273788452148	1.0000720024108887
40	174.3582410812378	pulse	0	t		38.0	2.5	/experiments/AOT/AOT_stimuli/rescaled_final/0577_rv.mp4	0.0	196.80706596374512	
40	175.17398500442505	movie	1		244	38.0	2.5	/experiments/AOT/AOT_stimuli/rescaled_final/0577_rv.mp4	0.0	197.62280988693237	2.499979019165039
40	175.9583179950714	pulse	1	t		38.0	2.5	/experiments/AOT/AOT_stimuli/rescaled_final/0577_rv.mp4	0.0	198.40714287757874	
40	177.5659031867981	pulse	1	t		38.0	2.5	/experiments/AOT/AOT_stimuli/rescaled_final/0577_rv.mp4	0.0	200.01472806930542	
40	177.6739640235901	fix_post	2		12	38.0	2.5	/experiments/AOT/AOT_stimuli/rescaled_final/0577_rv.mp4	0.0	200.1227889060974	0.09998011589050293
41	177.7739441394806	fix_pre	0		120	39.0	2.5	/experiments/AOT/AOT_stimuli/rescaled_final/0400_rv.mp4	0.0	200.22276902198792	0.9999639987945557
41	178.77390813827515	movie	1		245	39.0	2.5	/experiments/AOT/AOT_stimuli/rescaled_final/0400_rv.mp4	0.0	201.22273302078247	2.5000479221343994
41	179.16585111618042	pulse	1	t		39.0	2.5	/experiments/AOT/AOT_stimuli/rescaled_final/0400_rv.mp4	0.0	201.61467599868774	
41	180.75747108459473	pulse	1	t		39.0	2.5	/experiments/AOT/AOT_stimuli/rescaled_final/0400_rv.mp4	0.0	203.20629596710205	
41	181.27395606040955	fix_post	2		12	39.0	2.5	/experiments/AOT/AOT_stimuli/rescaled_final/0400_rv.mp4	0.0	203.72278094291687	0.10010004043579102
42	181.37405610084534	fix_pre	0		119	40.0	2.5	/experiments/AOT/AOT_stimuli/rescaled_final/1851_rv.mp4	0.0	203.82288098335266	0.9914751052856445
42	182.35744500160217	pulse	0	t		40.0	2.5	/experiments/AOT/AOT_stimuli/rescaled_final/1851_rv.mp4	0.0	204.8062698841095	
42	182.36553120613098	movie	1		245	40.0	2.5	/experiments/AOT/AOT_stimuli/rescaled_final/1851_rv.mp4	0.0	204.8143560886383	2.5084187984466553
42	183.95713996887207	pulse	1	t		40.0	2.5	/experiments/AOT/AOT_stimuli/rescaled_final/1851_rv.mp4	0.0	206.4059648513794	
42	184.87395000457764	fix_post	2		12	40.0	2.5	/experiments/AOT/AOT_stimuli/rescaled_final/1851_rv.mp4	0.0	207.32277488708496	0.10001897811889648
43	184.97396898269653	fix_pre	0		120	41.0	2.5	blank	1.0	207.42279386520386	0.9999041557312012
43	185.5574221611023	pulse	0	t		41.0	2.5	blank	1.0	208.00624704360962	
43	185.97387313842773	movie	1		300	41.0	2.5	blank	1.0	208.42269802093506	2.500051975250244
43	187.15740609169006	pulse	1	t		41.0	2.5	blank	1.0	209.6062309741974	
43	188.47392511367798	fix_post	2		12	41.0	2.5	blank	1.0	210.9227499961853	0.0999600887298584
44	188.57388520240784	fix_pre	0		120	42.0	2.5	/experiments/AOT/AOT_stimuli/rescaled_final/2122_fw.mp4	0.0	211.02271008491516	1.0000457763671875
44	188.75734114646912	pulse	0	t		42.0	2.5	/experiments/AOT/AOT_stimuli/rescaled_final/2122_fw.mp4	0.0	211.20616602897644	
44	189.57393097877502	movie	1		245	42.0	2.5	/experiments/AOT/AOT_stimuli/rescaled_final/2122_fw.mp4	0.0	212.02275586128235	2.5000112056732178
44	190.3582661151886	pulse	1	t		42.0	2.5	/experiments/AOT/AOT_stimuli/rescaled_final/2122_fw.mp4	0.0	212.80709099769592	
44	191.95777297019958	pulse	1	t		42.0	2.5	/experiments/AOT/AOT_stimuli/rescaled_final/2122_fw.mp4	0.0	214.4065978527069	
44	192.07394218444824	fix_post	2		12	42.0	2.5	/experiments/AOT/AOT_stimuli/rescaled_final/2122_fw.mp4	0.0	214.52276706695557	0.09996199607849121
45	192.17390418052673	fix_pre	0		120	43.0	2.5	/experiments/AOT/AOT_stimuli/rescaled_final/1309_rv.mp4	0.0	214.62272906303406	1.0000298023223877
45	193.17393398284912	movie	1		244	43.0	2.5	/experiments/AOT/AOT_stimuli/rescaled_final/1309_rv.mp4	0.0	215.62275886535645	2.4999589920043945
45	193.5657980442047	pulse	1	t		43.0	2.5	/experiments/AOT/AOT_stimuli/rescaled_final/1309_rv.mp4	0.0	216.01462292671204	
45	195.15824699401855	pulse	1	t		43.0	2.5	/experiments/AOT/AOT_stimuli/rescaled_final/1309_rv.mp4	0.0	217.60707187652588	
45	195.67389297485352	fix_post	2		12	43.0	2.5	/experiments/AOT/AOT_stimuli/rescaled_final/1309_rv.mp4	0.0	218.12271785736084	0.09997105598449707
46	195.773864030838	fix_pre	0		119	44.0	2.5	/experiments/AOT/AOT_stimuli/rescaled_final/1288_fw.mp4	0.0	218.22268891334534	0.9916861057281494
46	196.75742316246033	pulse	0	t		44.0	2.5	/experiments/AOT/AOT_stimuli/rescaled_final/1288_fw.mp4	0.0	219.20624804496765	
46	196.76555013656616	movie	1		246	44.0	2.5	/experiments/AOT/AOT_stimuli/rescaled_final/1288_fw.mp4	0.0	219.2143750190735	2.5084328651428223
46	198.36578011512756	pulse	1	t		44.0	2.5	/experiments/AOT/AOT_stimuli/rescaled_final/1288_fw.mp4	0.0	220.8146049976349	
46	199.27398300170898	fix_post	2		12	44.0	2.5	/experiments/AOT/AOT_stimuli/rescaled_final/1288_fw.mp4	0.0	221.7228078842163	0.0998539924621582
47	199.37383699417114	fix_pre	0		119	45.0	2.5	/experiments/AOT/AOT_stimuli/rescaled_final/0106_rv.mp4	0.0	221.82266187667847	1.0000901222229004
47	199.95724606513977	pulse	0	t		45.0	2.5	/experiments/AOT/AOT_stimuli/rescaled_final/0106_rv.mp4	0.0	222.4060709476471	
47	200.37392711639404	movie	1		242	45.0	2.5	/experiments/AOT/AOT_stimuli/rescaled_final/0106_rv.mp4	0.0	222.82275199890137	2.4999608993530273
47	201.55744004249573	pulse	1	t		45.0	2.5	/experiments/AOT/AOT_stimuli/rescaled_final/0106_rv.mp4	0.0	224.00626492500305	
47	202.87388801574707	fix_post	2		12	45.0	2.5	/experiments/AOT/AOT_stimuli/rescaled_final/0106_rv.mp4	0.0	225.3227128982544	0.09997797012329102
48	202.97386598587036	fix_pre	0		120	46.0	2.5	/experiments/AOT/AOT_stimuli/rescaled_final/1640_fw.mp4	0.0	225.42269086837769	0.9999442100524902
48	203.15738010406494	pulse	0	t		46.0	2.5	/experiments/AOT/AOT_stimuli/rescaled_final/1640_fw.mp4	0.0	225.60620498657227	
48	203.97381019592285	movie	1		243	46.0	2.5	/experiments/AOT/AOT_stimuli/rescaled_final/1640_fw.mp4	0.0	226.42263507843018	2.4997048377990723
48	204.75749111175537	pulse	1	t		46.0	2.5	/experiments/AOT/AOT_stimuli/rescaled_final/1640_fw.mp4	0.0	227.2063159942627	
48	206.36575508117676	pulse	1	t		46.0	2.5	/experiments/AOT/AOT_stimuli/rescaled_final/1640_fw.mp4	0.0	228.81457996368408	
48	206.47351503372192	fix_post	2		12	46.0	2.5	/experiments/AOT/AOT_stimuli/rescaled_final/1640_fw.mp4	0.0	228.92233991622925	0.10031294822692871
49	206.57382798194885	fix_pre	0		120	47.0	2.5	/experiments/AOT/AOT_stimuli/rescaled_final/0492_rv.mp4	0.0	229.02265286445618	1.0000550746917725
49	207.57388305664062	movie	1		242	47.0	2.5	/experiments/AOT/AOT_stimuli/rescaled_final/0492_rv.mp4	0.0	230.02270793914795	2.4995689392089844
49	207.96574020385742	pulse	1	t		47.0	2.5	/experiments/AOT/AOT_stimuli/rescaled_final/0492_rv.mp4	0.0	230.41456508636475	
49	209.55819606781006	pulse	1	t		47.0	2.5	/experiments/AOT/AOT_stimuli/rescaled_final/0492_rv.mp4	0.0	232.00702095031738	
49	210.0734519958496	fix_post	2		12	47.0	2.5	/experiments/AOT/AOT_stimuli/rescaled_final/0492_rv.mp4	0.0	232.52227687835693	0.1003730297088623
50	210.17382502555847	fix_pre	0		120	48.0	2.5	/experiments/AOT/AOT_stimuli/rescaled_final/0367_rv.mp4	0.0	232.6226499080658	0.9999971389770508
50	211.1580810546875	pulse	0	t		48.0	2.5	/experiments/AOT/AOT_stimuli/rescaled_final/0367_rv.mp4	0.0	233.60690593719482	
50	211.17382216453552	movie	1		245	48.0	2.5	/experiments/AOT/AOT_stimuli/rescaled_final/0367_rv.mp4	0.0	233.62264704704285	2.5083110332489014
50	212.76523804664612	pulse	1	t		48.0	2.5	/experiments/AOT/AOT_stimuli/rescaled_final/0367_rv.mp4	0.0	235.21406292915344	
50	213.68213319778442	fix_post	2		12	48.0	2.5	/experiments/AOT/AOT_stimuli/rescaled_final/0367_rv.mp4	0.0	236.13095808029175	0.10006284713745117
51	213.78219604492188	fix_pre	0		120	49.0	2.5	blank	1.0	236.2310209274292	1.0000219345092773
51	214.35732007026672	pulse	0	t		49.0	2.5	blank	1.0	236.80614495277405	
51	214.78221797943115	movie	1		300	49.0	2.5	blank	1.0	237.23104286193848	2.499566078186035
51	215.95748114585876	pulse	1	t		49.0	2.5	blank	1.0	238.4063060283661	
51	217.2817840576172	fix_post	2		12	49.0	2.5	blank	1.0	239.7306089401245	0.09994006156921387
52	217.3817241191864	fix_pre	0		120	50.0	2.5	/experiments/AOT/AOT_stimuli/rescaled_final/1352_rv.mp4	0.0	239.83054900169373	1.0001559257507324
52	217.55733013153076	pulse	0	t		50.0	2.5	/experiments/AOT/AOT_stimuli/rescaled_final/1352_rv.mp4	0.0	240.0061550140381	
52	218.38188004493713	movie	1		243	50.0	2.5	/experiments/AOT/AOT_stimuli/rescaled_final/1352_rv.mp4	0.0	240.83070492744446	2.5002119541168213
52	219.1575150489807	pulse	1	t		50.0	2.5	/experiments/AOT/AOT_stimuli/rescaled_final/1352_rv.mp4	0.0	241.60633993148804	
52	220.75719118118286	pulse	1	t		50.0	2.5	/experiments/AOT/AOT_stimuli/rescaled_final/1352_rv.mp4	0.0	243.20601606369019	
52	220.88209199905396	fix_post	2		12	50.0	2.5	/experiments/AOT/AOT_stimuli/rescaled_final/1352_rv.mp4	0.0	243.33091688156128	0.09999203681945801
53	220.9820840358734	fix_pre	0		120	51.0	2.5	/experiments/AOT/AOT_stimuli/rescaled_final/1323_fw.mp4	0.0	243.43090891838074	0.999985933303833
53	221.98206996917725	movie	1		243	51.0	2.5	/experiments/AOT/AOT_stimuli/rescaled_final/1323_fw.mp4	0.0	244.43089485168457	2.5001771450042725
53	222.36575603485107	pulse	1	t		51.0	2.5	/experiments/AOT/AOT_stimuli/rescaled_final/1323_fw.mp4	0.0	244.8145809173584	
53	223.95821499824524	pulse	1	t		51.0	2.5	/experiments/AOT/AOT_stimuli/rescaled_final/1323_fw.mp4	0.0	246.40703988075256	
53	224.48224711418152	fix_post	2		12	51.0	2.5	/experiments/AOT/AOT_stimuli/rescaled_final/1323_fw.mp4	0.0	246.93107199668884	0.09979701042175293
54	224.58204412460327	fix_pre	0		119	52.0	2.5	/experiments/AOT/AOT_stimuli/rescaled_final/1598_rv.mp4	0.0	247.0308690071106	0.9916670322418213
54	225.55793499946594	pulse	0	t		52.0	2.5	/experiments/AOT/AOT_stimuli/rescaled_final/1598_rv.mp4	0.0	248.00675988197327	
54	225.5737111568451	movie	1		244	52.0	2.5	/experiments/AOT/AOT_stimuli/rescaled_final/1598_rv.mp4	0.0	248.02253603935242	2.5082948207855225
54	227.16500806808472	pulse	1	t		52.0	2.5	/experiments/AOT/AOT_stimuli/rescaled_final/1598_rv.mp4	0.0	249.61383295059204	
54	228.08200597763062	fix_post	2		12	52.0	2.5	/experiments/AOT/AOT_stimuli/rescaled_final/1598_rv.mp4	0.0	250.53083086013794	0.10003519058227539
55	228.1820411682129	fix_pre	0		120	53.0	2.5	/experiments/AOT/AOT_stimuli/rescaled_final/0106_fw.mp4	0.0	250.63086605072021	1.0000059604644775
55	228.7579791545868	pulse	0	t		53.0	2.5	/experiments/AOT/AOT_stimuli/rescaled_final/0106_fw.mp4	0.0	251.20680403709412	
55	229.18204712867737	movie	1		243	53.0	2.5	/experiments/AOT/AOT_stimuli/rescaled_final/0106_fw.mp4	0.0	251.6308720111847	2.499959945678711
55	230.3655982017517	pulse	1	t		53.0	2.5	/experiments/AOT/AOT_stimuli/rescaled_final/0106_fw.mp4	0.0	252.81442308425903	
55	231.68200707435608	fix_post	2		12	53.0	2.5	/experiments/AOT/AOT_stimuli/rescaled_final/0106_fw.mp4	0.0	254.1308319568634	0.09998011589050293
56	231.78198719024658	fix_pre	0		120	54.0	2.5	/experiments/AOT/AOT_stimuli/rescaled_final/0364_fw.mp4	0.0	254.2308120727539	1.000013828277588
56	231.9579300880432	pulse	0	t		54.0	2.5	/experiments/AOT/AOT_stimuli/rescaled_final/0364_fw.mp4	0.0	254.40675497055054	
56	232.78200101852417	movie	1		247	54.0	2.5	/experiments/AOT/AOT_stimuli/rescaled_final/0364_fw.mp4	0.0	255.2308259010315	2.4996449947357178
56	233.55718302726746	pulse	1	t		54.0	2.5	/experiments/AOT/AOT_stimuli/rescaled_final/0364_fw.mp4	0.0	256.0060079097748	
56	235.1615891456604	pulse	1	t		54.0	2.5	/experiments/AOT/AOT_stimuli/rescaled_final/0364_fw.mp4	0.0	257.6104140281677	
56	235.2816460132599	fix_post	2		12	54.0	2.5	/experiments/AOT/AOT_stimuli/rescaled_final/0364_fw.mp4	0.0	257.7304708957672	0.1003580093383789
57	235.38200402259827	fix_pre	0		120	55.0	2.5	blank	1.0	257.8308289051056	1.0000591278076172
57	236.38206315040588	movie	1		300	55.0	2.5	blank	1.0	258.8308880329132	2.4999709129333496
57	236.75713300704956	pulse	1	t		55.0	2.5	blank	1.0	259.2059578895569	
57	238.35789704322815	pulse	1	t		55.0	2.5	blank	1.0	260.8067219257355	
57	238.88203406333923	fix_post	2		12	55.0	2.5	blank	1.0	261.33085894584656	0.10000991821289062
58	238.98204398155212	fix_pre	0		119	56.0	2.5	/experiments/AOT/AOT_stimuli/rescaled_final/0968_rv.mp4	0.0	261.43086886405945	0.9916141033172607
58	239.95807099342346	pulse	0	t		56.0	2.5	/experiments/AOT/AOT_stimuli/rescaled_final/0968_rv.mp4	0.0	262.4068958759308	
58	239.97365808486938	movie	1		244	56.0	2.5	/experiments/AOT/AOT_stimuli/rescaled_final/0968_rv.mp4	0.0	262.4224829673767	2.5083119869232178
58	241.5650520324707	pulse	1	t		56.0	2.5	/experiments/AOT/AOT_stimuli/rescaled_final/0968_rv.mp4	0.0	264.013876914978	
58	242.4819700717926	fix_post	2		12	56.0	2.5	/experiments/AOT/AOT_stimuli/rescaled_final/0968_rv.mp4	0.0	264.9307949542999	0.09994912147521973
59	242.58191919326782	fix_pre	0		120	57.0	2.5	/experiments/AOT/AOT_stimuli/rescaled_final/0865_fw.mp4	0.0	265.03074407577515	1.0000720024108887
59	243.1578381061554	pulse	0	t		57.0	2.5	/experiments/AOT/AOT_stimuli/rescaled_final/0865_fw.mp4	0.0	265.6066629886627	
59	243.5819911956787	movie	1		243	57.0	2.5	/experiments/AOT/AOT_stimuli/rescaled_final/0865_fw.mp4	0.0	266.03081607818604	2.5000228881835938
59	244.75880312919617	pulse	1	t		57.0	2.5	/experiments/AOT/AOT_stimuli/rescaled_final/0865_fw.mp4	0.0	267.2076280117035	
59	246.0820140838623	fix_post	2		12	57.0	2.5	/experiments/AOT/AOT_stimuli/rescaled_final/0865_fw.mp4	0.0	268.53083896636963	0.10005307197570801
60	246.182067155838	fix_pre	0		120	58.0	2.5	/experiments/AOT/AOT_stimuli/rescaled_final/0364_rv.mp4	0.0	268.63089203834534	0.9998910427093506
60	246.35796308517456	pulse	0	t		58.0	2.5	/experiments/AOT/AOT_stimuli/rescaled_final/0364_rv.mp4	0.0	268.8067879676819	
60	247.18195819854736	movie	1		244	58.0	2.5	/experiments/AOT/AOT_stimuli/rescaled_final/0364_rv.mp4	0.0	269.6307830810547	2.499931812286377
60	247.95798707008362	pulse	1	t		58.0	2.5	/experiments/AOT/AOT_stimuli/rescaled_final/0364_rv.mp4	0.0	270.40681195259094	
60	249.5571370124817	pulse	1	t		58.0	2.5	/experiments/AOT/AOT_stimuli/rescaled_final/0364_rv.mp4	0.0	272.005961894989	
60	249.68189001083374	fix_post	2		12	58.0	2.5	/experiments/AOT/AOT_stimuli/rescaled_final/0364_rv.mp4	0.0	272.13071489334106	0.10002708435058594
61	249.78191709518433	fix_pre	0		120	59.0	2.5	/experiments/AOT/AOT_stimuli/rescaled_final/1236_fw.mp4	0.0	272.23074197769165	1.0000650882720947
61	250.78198218345642	movie	1		243	59.0	2.5	/experiments/AOT/AOT_stimuli/rescaled_final/1236_fw.mp4	0.0	273.23080706596375	2.4996337890625
61	251.1571400165558	pulse	1	t		59.0	2.5	/experiments/AOT/AOT_stimuli/rescaled_final/1236_fw.mp4	0.0	273.6059648990631	
61	252.75713920593262	pulse	1	t		59.0	2.5	/experiments/AOT/AOT_stimuli/rescaled_final/1236_fw.mp4	0.0	275.20596408843994	
61	253.28161597251892	fix_post	2		12	59.0	2.5	/experiments/AOT/AOT_stimuli/rescaled_final/1236_fw.mp4	0.0	275.73044085502625	0.10024619102478027
62	253.3818621635437	fix_pre	0		119	60.0	2.5	/experiments/AOT/AOT_stimuli/rescaled_final/1752_fw.mp4	0.0	275.830687046051	0.9917588233947754
62	254.35787796974182	pulse	0	t		60.0	2.5	/experiments/AOT/AOT_stimuli/rescaled_final/1752_fw.mp4	0.0	276.80670285224915	
62	254.37362098693848	movie	1		246	60.0	2.5	/experiments/AOT/AOT_stimuli/rescaled_final/1752_fw.mp4	0.0	276.8224458694458	2.508308172225952
62	255.96525597572327	pulse	1	t		60.0	2.5	/experiments/AOT/AOT_stimuli/rescaled_final/1752_fw.mp4	0.0	278.4140808582306	
62	256.88192915916443	fix_post	2		12	60.0	2.5	/experiments/AOT/AOT_stimuli/rescaled_final/1752_fw.mp4	0.0	279.33075404167175	0.10000801086425781
63	256.9819371700287	fix_pre	0		120	61.0	2.5	/experiments/AOT/AOT_stimuli/rescaled_final/2119_rv.mp4	0.0	279.430762052536	1.0000238418579102
63	257.5579149723053	pulse	0	t		61.0	2.5	/experiments/AOT/AOT_stimuli/rescaled_final/2119_rv.mp4	0.0	280.0067398548126	
63	257.9819610118866	movie	1		250	61.0	2.5	/experiments/AOT/AOT_stimuli/rescaled_final/2119_rv.mp4	0.0	280.4307858943939	2.500019073486328
63	259.15822315216064	pulse	1	t		61.0	2.5	/experiments/AOT/AOT_stimuli/rescaled_final/2119_rv.mp4	0.0	281.60704803466797	
63	260.4819800853729	fix_post	2		12	61.0	2.5	/experiments/AOT/AOT_stimuli/rescaled_final/2119_rv.mp4	0.0	282.93080496788025	0.0998990535736084
64	260.58187913894653	fix_pre	0		120	62.0	2.5	/experiments/AOT/AOT_stimuli/rescaled_final/0834_fw.mp4	0.0	283.03070402145386	1.000072956085205
64	260.75788712501526	pulse	0	t		62.0	2.5	/experiments/AOT/AOT_stimuli/rescaled_final/0834_fw.mp4	0.0	283.2067120075226	
64	261.58195209503174	movie	1		244	62.0	2.5	/experiments/AOT/AOT_stimuli/rescaled_final/0834_fw.mp4	0.0	284.03077697753906	2.4995410442352295
64	262.3579092025757	pulse	1	t		62.0	2.5	/experiments/AOT/AOT_stimuli/rescaled_final/0834_fw.mp4	0.0	284.806734085083	
64	263.96395611763	pulse	1	t		62.0	2.5	/experiments/AOT/AOT_stimuli/rescaled_final/0834_fw.mp4	0.0	286.41278100013733	
64	264.08149313926697	fix_post	2		12	62.0	2.5	/experiments/AOT/AOT_stimuli/rescaled_final/0834_fw.mp4	0.0	286.5303180217743	0.10042190551757812
65	264.18191504478455	fix_pre	0		120	63.0	2.5	blank	1.0	286.63073992729187	1.0000920295715332
65	265.1820070743561	movie	1		300	63.0	2.5	blank	1.0	287.6308319568634	2.499962091445923
65	265.5571711063385	pulse	1	t		63.0	2.5	blank	1.0	288.0059959888458	
65	267.15706419944763	pulse	1	t		63.0	2.5	blank	1.0	289.60588908195496	
65	267.681969165802	fix_post	2		12	63.0	2.5	blank	1.0	290.1307940483093	0.09990882873535156
66	267.78187799453735	fix_pre	0		118	64.0	2.5	/experiments/AOT/AOT_stimuli/rescaled_final/0088_rv.mp4	0.0	290.2307028770447	0.9833111763000488
66	268.75705313682556	pulse	0	t		64.0	2.5	/experiments/AOT/AOT_stimuli/rescaled_final/0088_rv.mp4	0.0	291.2058780193329	
66	268.7651891708374	movie	1		246	64.0	2.5	/experiments/AOT/AOT_stimuli/rescaled_final/0088_rv.mp4	0.0	291.2140140533447	2.508435010910034
66	270.3653600215912	pulse	1	t		64.0	2.5	/experiments/AOT/AOT_stimuli/rescaled_final/0088_rv.mp4	0.0	292.8141849040985	
66	271.27362418174744	fix_post	2		12	64.0	2.5	/experiments/AOT/AOT_stimuli/rescaled_final/0088_rv.mp4	0.0	293.72244906425476	0.09994792938232422
67	271.37357211112976	fix_pre	0		120	65.0	2.5	/experiments/AOT/AOT_stimuli/rescaled_final/0432_rv.mp4	0.0	293.8223969936371	0.9998989105224609
67	271.9578809738159	pulse	0	t		65.0	2.5	/experiments/AOT/AOT_stimuli/rescaled_final/0432_rv.mp4	0.0	294.40670585632324	
67	272.3734710216522	movie	1		245	65.0	2.5	/experiments/AOT/AOT_stimuli/rescaled_final/0432_rv.mp4	0.0	294.82229590415955	2.4999020099639893
67	273.55810713768005	pulse	1	t		65.0	2.5	/experiments/AOT/AOT_stimuli/rescaled_final/0432_rv.mp4	0.0	296.0069320201874	
67	274.8733730316162	fix_post	2		12	65.0	2.5	/experiments/AOT/AOT_stimuli/rescaled_final/0432_rv.mp4	0.0	297.32219791412354	0.10003113746643066
68	274.97340416908264	fix_pre	0		120	66.0	2.5	/experiments/AOT/AOT_stimuli/rescaled_final/1376_fw.mp4	0.0	297.42222905158997	1.0001318454742432
68	275.15788102149963	pulse	0	t		66.0	2.5	/experiments/AOT/AOT_stimuli/rescaled_final/1376_fw.mp4	0.0	297.60670590400696	
68	275.9735360145569	movie	1		246	66.0	2.5	/experiments/AOT/AOT_stimuli/rescaled_final/1376_fw.mp4	0.0	298.4223608970642	2.4998600482940674
68	276.75790905952454	pulse	1	t		66.0	2.5	/experiments/AOT/AOT_stimuli/rescaled_final/1376_fw.mp4	0.0	299.20673394203186	
68	278.36530900001526	pulse	1	t		66.0	2.5	/experiments/AOT/AOT_stimuli/rescaled_final/1376_fw.mp4	0.0	300.8141338825226	
68	278.47339606285095	fix_post	2		12	66.0	2.5	/experiments/AOT/AOT_stimuli/rescaled_final/1376_fw.mp4	0.0	300.9222209453583	0.10004901885986328
69	278.5734450817108	fix_pre	0		120	67.0	2.5	/experiments/AOT/AOT_stimuli/rescaled_final/0100_rv.mp4	0.0	301.02226996421814	1.0000269412994385
69	279.57347202301025	movie	1		245	67.0	2.5	/experiments/AOT/AOT_stimuli/rescaled_final/0100_rv.mp4	0.0	302.0222969055176	2.4999420642852783
69	279.9653329849243	pulse	1	t		67.0	2.5	/experiments/AOT/AOT_stimuli/rescaled_final/0100_rv.mp4	0.0	302.41415786743164	
69	281.5577600002289	pulse	1	t		67.0	2.5	/experiments/AOT/AOT_stimuli/rescaled_final/0100_rv.mp4	0.0	304.0065848827362	
69	282.07341408729553	fix_post	2		12	67.0	2.5	/experiments/AOT/AOT_stimuli/rescaled_final/0100_rv.mp4	0.0	304.52223896980286	0.10006403923034668
70	282.1734781265259	fix_pre	0		120	68.0	2.5	/experiments/AOT/AOT_stimuli/rescaled_final/0994_rv.mp4	0.0	304.6223030090332	1.0000159740447998
70	283.15769505500793	pulse	0	t		68.0	2.5	/experiments/AOT/AOT_stimuli/rescaled_final/0994_rv.mp4	0.0	305.60651993751526	
70	283.1734941005707	movie	1		247	68.0	2.5	/experiments/AOT/AOT_stimuli/rescaled_final/0994_rv.mp4	0.0	305.622318983078	2.508270025253296
70	284.764554977417	pulse	1	t		68.0	2.5	/experiments/AOT/AOT_stimuli/rescaled_final/0994_rv.mp4	0.0	307.2133798599243	
70	285.681764125824	fix_post	2		12	68.0	2.5	/experiments/AOT/AOT_stimuli/rescaled_final/0994_rv.mp4	0.0	308.1305890083313	0.09991002082824707
71	285.7816741466522	fix_pre	0		120	69.0	2.5	/experiments/AOT/AOT_stimuli/rescaled_final/1851_fw.mp4	0.0	308.23049902915955	1.0000848770141602
71	286.3651750087738	pulse	0	t		69.0	2.5	/experiments/AOT/AOT_stimuli/rescaled_final/1851_fw.mp4	0.0	308.8139998912811	
71	286.7817590236664	movie	1		246	69.0	2.5	/experiments/AOT/AOT_stimuli/rescaled_final/1851_fw.mp4	0.0	309.2305839061737	2.499983072280884
71	287.9652931690216	pulse	1	t		69.0	2.5	/experiments/AOT/AOT_stimuli/rescaled_final/1851_fw.mp4	0.0	310.41411805152893	
71	289.28174209594727	fix_post	2		12	69.0	2.5	/experiments/AOT/AOT_stimuli/rescaled_final/1851_fw.mp4	0.0	311.7305669784546	0.10004687309265137
72	289.3817889690399	fix_pre	0		120	70.0	2.5	blank	1.0	311.83061385154724	0.9999840259552002
72	289.5578861236572	pulse	0	t		70.0	2.5	blank	1.0	312.00671100616455	
72	290.3817729949951	movie	1		300	70.0	2.5	blank	1.0	312.83059787750244	2.499572992324829
72	291.1576581001282	pulse	1	t		70.0	2.5	blank	1.0	313.6064829826355	
72	292.75762009620667	pulse	1	t		70.0	2.5	blank	1.0	315.206444978714	
72	292.88134598731995	fix_post	2		12	70.0	2.5	blank	1.0	315.33017086982727	0.10036802291870117
73	292.98171401023865	fix_pre	0		120	71.0	2.5	/experiments/AOT/AOT_stimuli/rescaled_final/1216_rv.mp4	0.0	315.430538892746	1.000020980834961
73	293.9817349910736	movie	1		243	71.0	2.5	/experiments/AOT/AOT_stimuli/rescaled_final/1216_rv.mp4	0.0	316.43055987358093	2.4999840259552
73	294.3648910522461	pulse	1	t		71.0	2.5	/experiments/AOT/AOT_stimuli/rescaled_final/1216_rv.mp4	0.0	316.8137159347534	
73	295.9578800201416	pulse	1	t		71.0	2.5	/experiments/AOT/AOT_stimuli/rescaled_final/1216_rv.mp4	0.0	318.4067049026489	
73	296.4817190170288	fix_post	2		12	71.0	2.5	/experiments/AOT/AOT_stimuli/rescaled_final/1216_rv.mp4	0.0	318.93054389953613	0.0999150276184082
74	296.5816340446472	fix_pre	0		119	72.0	2.5	/experiments/AOT/AOT_stimuli/rescaled_final/1275_rv.mp4	0.0	319.03045892715454	0.9917190074920654
74	297.5577461719513	pulse	0	t		72.0	2.5	/experiments/AOT/AOT_stimuli/rescaled_final/1275_rv.mp4	0.0	320.0065710544586	
74	297.5733530521393	movie	1		248	72.0	2.5	/experiments/AOT/AOT_stimuli/rescaled_final/1275_rv.mp4	0.0	320.0221779346466	2.5083529949188232
74	299.1660361289978	pulse	1	t		72.0	2.5	/experiments/AOT/AOT_stimuli/rescaled_final/1275_rv.mp4	0.0	321.6148610115051	
74	300.0817060470581	fix_post	2		12	72.0	2.5	/experiments/AOT/AOT_stimuli/rescaled_final/1275_rv.mp4	0.0	322.53053092956543	0.10004210472106934
75	300.1817481517792	fix_pre	0		120	73.0	2.5	/experiments/AOT/AOT_stimuli/rescaled_final/1323_fw.mp4	0.0	322.6305730342865	0.9998798370361328
75	300.75762605667114	pulse	0	t		73.0	2.5	/experiments/AOT/AOT_stimuli/rescaled_final/1323_fw.mp4	0.0	323.20645093917847	
75	301.1816279888153	movie	1		245	73.0	2.5	/experiments/AOT/AOT_stimuli/rescaled_final/1323_fw.mp4	0.0	323.63045287132263	2.500068187713623
75	302.36526799201965	pulse	1	t		73.0	2.5	/experiments/AOT/AOT_stimuli/rescaled_final/1323_fw.mp4	0.0	324.814092874527	
75	303.68169617652893	fix_post	2		12	73.0	2.5	/experiments/AOT/AOT_stimuli/rescaled_final/1323_fw.mp4	0.0	326.13052105903625	0.09991788864135742
76	303.7816140651703	fix_pre	0		120	74.0	2.5	/experiments/AOT/AOT_stimuli/rescaled_final/0965_fw.mp4	0.0	326.2304389476776	0.9999721050262451
76	303.9651720523834	pulse	0	t		74.0	2.5	/experiments/AOT/AOT_stimuli/rescaled_final/0965_fw.mp4	0.0	326.41399693489075	
76	304.78158617019653	movie	1		246	74.0	2.5	/experiments/AOT/AOT_stimuli/rescaled_final/0965_fw.mp4	0.0	327.23041105270386	2.5000698566436768
76	305.56513500213623	pulse	1	t		74.0	2.5	/experiments/AOT/AOT_stimuli/rescaled_final/0965_fw.mp4	0.0	328.01395988464355	
76	307.16367411613464	pulse	1	t		74.0	2.5	/experiments/AOT/AOT_stimuli/rescaled_final/0965_fw.mp4	0.0	329.61249899864197	
76	307.2816560268402	fix_post	2		12	74.0	2.5	/experiments/AOT/AOT_stimuli/rescaled_final/0965_fw.mp4	0.0	329.73048090934753	0.09999799728393555
77	307.38165402412415	fix_pre	0		120	75.0	2.5	blank	1.0	329.83047890663147	1.0000560283660889
77	308.38171005249023	movie	1		300	75.0	2.5	blank	1.0	330.83053493499756	2.499891996383667
77	308.7576379776001	pulse	1	t		75.0	2.5	blank	1.0	331.2064628601074	
77	310.35761404037476	pulse	1	t		75.0	2.5	blank	1.0	332.8064389228821	
77	310.8816020488739	fix_post	2		12	75.0	2.5	blank	1.0	333.3304269313812	0.10010313987731934
78	310.9817051887512	fix_pre	0		119	76.0	2.5	/experiments/AOT/AOT_stimuli/rescaled_final/1004_fw.mp4	0.0	333.43053007125854	0.9915909767150879
78	311.95759201049805	pulse	0	t		76.0	2.5	/experiments/AOT/AOT_stimuli/rescaled_final/1004_fw.mp4	0.0	334.40641689300537	
78	311.9732961654663	movie	1		246	76.0	2.5	/experiments/AOT/AOT_stimuli/rescaled_final/1004_fw.mp4	0.0	334.42212104797363	2.50834584236145
78	313.5661780834198	pulse	1	t		76.0	2.5	/experiments/AOT/AOT_stimuli/rescaled_final/1004_fw.mp4	0.0	336.0150029659271	
78	314.48164200782776	fix_post	2		12	76.0	2.5	/experiments/AOT/AOT_stimuli/rescaled_final/1004_fw.mp4	0.0	336.9304668903351	0.09995198249816895
79	314.5815939903259	fix_pre	0		120	77.0	2.5	/experiments/AOT/AOT_stimuli/rescaled_final/1241_rv.mp4	0.0	337.03041887283325	1.000002145767212
79	315.15767908096313	pulse	0	t		77.0	2.5	/experiments/AOT/AOT_stimuli/rescaled_final/1241_rv.mp4	0.0	337.60650396347046	
79	315.58159613609314	movie	1		244	77.0	2.5	/experiments/AOT/AOT_stimuli/rescaled_final/1241_rv.mp4	0.0	338.03042101860046	2.4999868869781494
79	316.76514315605164	pulse	1	t		77.0	2.5	/experiments/AOT/AOT_stimuli/rescaled_final/1241_rv.mp4	0.0	339.21396803855896	
79	318.0815830230713	fix_post	2		12	77.0	2.5	/experiments/AOT/AOT_stimuli/rescaled_final/1241_rv.mp4	0.0	340.5304079055786	0.10003805160522461
80	318.1816210746765	fix_pre	0		120	78.0	2.5	/experiments/AOT/AOT_stimuli/rescaled_final/2029_fw.mp4	0.0	340.63044595718384	0.9999449253082275
80	318.3651030063629	pulse	0	t		78.0	2.5	/experiments/AOT/AOT_stimuli/rescaled_final/2029_fw.mp4	0.0	340.81392788887024	
80	319.18156599998474	movie	1		244	78.0	2.5	/experiments/AOT/AOT_stimuli/rescaled_final/2029_fw.mp4	0.0	341.63039088249207	2.5000720024108887
80	319.965047121048	pulse	1	t		78.0	2.5	/experiments/AOT/AOT_stimuli/rescaled_final/2029_fw.mp4	0.0	342.4138720035553	
80	321.56112718582153	pulse	1	t		78.0	2.5	/experiments/AOT/AOT_stimuli/rescaled_final/2029_fw.mp4	0.0	344.00995206832886	
80	321.68163800239563	fix_post	2		12	78.0	2.5	/experiments/AOT/AOT_stimuli/rescaled_final/2029_fw.mp4	0.0	344.13046288490295	0.09995412826538086
81	321.781592130661	fix_pre	0		120	79.0	2.5	/experiments/AOT/AOT_stimuli/rescaled_final/0582_rv.mp4	0.0	344.23041701316833	1.0000050067901611
81	322.7815971374512	movie	1		244	79.0	2.5	/experiments/AOT/AOT_stimuli/rescaled_final/0582_rv.mp4	0.0	345.2304220199585	2.4999828338623047
81	323.1646821498871	pulse	1	t		79.0	2.5	/experiments/AOT/AOT_stimuli/rescaled_final/0582_rv.mp4	0.0	345.6135070323944	
81	324.75772619247437	pulse	1	t		79.0	2.5	/experiments/AOT/AOT_stimuli/rescaled_final/0582_rv.mp4	0.0	347.2065510749817	
81	325.2815799713135	fix_post	2		12	79.0	2.5	/experiments/AOT/AOT_stimuli/rescaled_final/0582_rv.mp4	0.0	347.7304048538208	0.10007619857788086
82	325.38165616989136	fix_pre	0		119	80.0	2.5	/experiments/AOT/AOT_stimuli/rescaled_final/0740_rv.mp4	0.0	347.8304810523987	0.9916419982910156
82	326.3575360774994	pulse	0	t		80.0	2.5	/experiments/AOT/AOT_stimuli/rescaled_final/0740_rv.mp4	0.0	348.8063609600067	
82	326.3732981681824	movie	1		250	80.0	2.5	/experiments/AOT/AOT_stimuli/rescaled_final/0740_rv.mp4	0.0	348.8221230506897	2.5079100131988525
82	327.9643430709839	pulse	1	t		80.0	2.5	/experiments/AOT/AOT_stimuli/rescaled_final/0740_rv.mp4	0.0	350.4131679534912	
82	328.8812081813812	fix_post	2		12	80.0	2.5	/experiments/AOT/AOT_stimuli/rescaled_final/0740_rv.mp4	0.0	351.33003306388855	0.10001587867736816
83	328.9812240600586	fix_pre	0		120	81.0	2.5	/experiments/AOT/AOT_stimuli/rescaled_final/0100_fw.mp4	0.0	351.4300489425659	1.0002250671386719
83	329.55774998664856	pulse	0	t		81.0	2.5	/experiments/AOT/AOT_stimuli/rescaled_final/0100_fw.mp4	0.0	352.0065748691559	
83	329.98144912719727	movie	1		246	81.0	2.5	/experiments/AOT/AOT_stimuli/rescaled_final/0100_fw.mp4	0.0	352.4302740097046	2.5000579357147217
83	331.1649990081787	pulse	1	t		81.0	2.5	/experiments/AOT/AOT_stimuli/rescaled_final/0100_fw.mp4	0.0	353.61382389068604	
83	332.481507062912	fix_post	2		12	81.0	2.5	/experiments/AOT/AOT_stimuli/rescaled_final/0100_fw.mp4	0.0	354.9303319454193	0.1001291275024414
84	332.58163619041443	fix_pre	0		120	82.0	2.5	blank	1.0	355.03046107292175	0.9999489784240723
84	332.75749802589417	pulse	0	t		82.0	2.5	blank	1.0	355.2063229084015	
84	333.5815851688385	movie	1		300	82.0	2.5	blank	1.0	356.0304100513458	2.499868869781494
84	334.36505818367004	pulse	1	t		82.0	2.5	blank	1.0	356.81388306617737	
84	335.96494817733765	pulse	1	t		82.0	2.5	blank	1.0	358.41377305984497	
84	336.08145403862	fix_post	2		12	82.0	2.5	blank	1.0	358.5302789211273	0.10007095336914062
85	336.18152499198914	fix_pre	0		120	83.0	2.5	/experiments/AOT/AOT_stimuli/rescaled_final/1694_rv.mp4	0.0	358.63034987449646	0.9999780654907227
85	337.18150305747986	movie	1		243	83.0	2.5	/experiments/AOT/AOT_stimuli/rescaled_final/1694_rv.mp4	0.0	359.6303279399872	2.500023126602173
85	337.56469202041626	pulse	1	t		83.0	2.5	/experiments/AOT/AOT_stimuli/rescaled_final/1694_rv.mp4	0.0	360.0135169029236	
85	339.16495299339294	pulse	1	t		83.0	2.5	/experiments/AOT/AOT_stimuli/rescaled_final/1694_rv.mp4	0.0	361.61377787590027	
85	339.68152618408203	fix_post	2		12	83.0	2.5	/experiments/AOT/AOT_stimuli/rescaled_final/1694_rv.mp4	0.0	362.13035106658936	0.09990692138671875
87	339.78143310546875	stim	0		1716					362.2302579879761	14.299974918365479
87	340.75762605667114	pulse	0	t						363.20645093917847	
87	342.3578221797943	pulse	0	t						364.80664706230164	
87	343.9574751853943	pulse	0	t						366.4063000679016	
87	345.557471036911	pulse	0	t						368.00629591941833	
87	347.1575222015381	pulse	0	t						369.6063470840454	
87	348.7574920654297	pulse	0	t						371.206316947937	
87	350.3649230003357	pulse	0	t						372.813747882843	
87	351.9649751186371	pulse	0	t						374.4138000011444	
87	353.56497406959534	pulse	0	t						376.01379895210266	
