trial_nr	onset	event_type	phase	response	nr_frames	movie_index	movie_duration	movie_file	blank	onset_abs	duration
0	0.10834789276123047	stim	0		23					38.65441083908081	0.1915581226348877
0	0.2920570373535156	response	0	space						38.838119983673096	
1	0.29990601539611816	stim	0		4751					38.8459689617157	39.591426849365234
1	39.88738703727722	pulse	0	t						78.4334499835968	
1	39.89133286476135	stim	1		1717					78.43739581108093	14.30834698677063
1	41.48324203491211	pulse	1	t						80.02930498123169	
1	43.08316898345947	pulse	1	t						81.62923192977905	
1	44.68319582939148	pulse	1	t						83.22925877571106	
1	46.283180952072144	pulse	1	t						84.82924389839172	
1	47.883167028427124	pulse	1	t						86.4292299747467	
1	49.48311495780945	pulse	1	t						88.02917790412903	
1	51.08308506011963	pulse	1	t						89.62914800643921	
1	52.68309497833252	pulse	1	t						91.2291579246521	
2	54.19967985153198	fix_pre	0		11	0.0	2.5	/experiments/AOT/AOT_stimuli/rescaled_final/1058_fw.mp4	0.0	92.74574279785156	0.09166216850280762
2	54.283119916915894	pulse	0	t		0.0	2.5	/experiments/AOT/AOT_stimuli/rescaled_final/1058_fw.mp4	0.0	92.82918286323547	
2	54.29134202003479	movie	1		243	0.0	2.5	/experiments/AOT/AOT_stimuli/rescaled_final/1058_fw.mp4	0.0	92.83740496635437	2.508297920227051
2	55.88271403312683	pulse	1	t		0.0	2.5	/experiments/AOT/AOT_stimuli/rescaled_final/1058_fw.mp4	0.0	94.42877697944641	
2	56.79963994026184	fix_post	2		12	0.0	2.5	/experiments/AOT/AOT_stimuli/rescaled_final/1058_fw.mp4	0.0	95.34570288658142	0.10000395774841309
3	56.899643898010254	fix_pre	0		120	1.0	2.5	/experiments/AOT/AOT_stimuli/rescaled_final/1894_fw.mp4	0.0	95.44570684432983	0.9999721050262451
3	57.48316192626953	pulse	0	t		1.0	2.5	/experiments/AOT/AOT_stimuli/rescaled_final/1894_fw.mp4	0.0	96.02922487258911	
3	57.8996160030365	movie	1		244	1.0	2.5	/experiments/AOT/AOT_stimuli/rescaled_final/1894_fw.mp4	0.0	96.44567894935608	2.499976873397827
3	59.08316087722778	pulse	1	t		1.0	2.5	/experiments/AOT/AOT_stimuli/rescaled_final/1894_fw.mp4	0.0	97.62922382354736	
3	60.399592876434326	fix_post	2		12	1.0	2.5	/experiments/AOT/AOT_stimuli/rescaled_final/1894_fw.mp4	0.0	98.9456558227539	0.0999460220336914
4	60.49953889846802	fix_pre	0		120	2.0	2.5	/experiments/AOT/AOT_stimuli/rescaled_final/1978_fw.mp4	0.0	99.0456018447876	1.0000550746917725
4	60.683186054229736	pulse	0	t		2.0	2.5	/experiments/AOT/AOT_stimuli/rescaled_final/1978_fw.mp4	0.0	99.22924900054932	
4	61.49959397315979	movie	1		244	2.0	2.5	/experiments/AOT/AOT_stimuli/rescaled_final/1978_fw.mp4	0.0	100.04565691947937	2.4995930194854736
4	62.28316903114319	pulse	1	t		2.0	2.5	/experiments/AOT/AOT_stimuli/rescaled_final/1978_fw.mp4	0.0	100.82923197746277	
4	63.88183403015137	pulse	1	t		2.0	2.5	/experiments/AOT/AOT_stimuli/rescaled_final/1978_fw.mp4	0.0	102.42789697647095	
4	63.999186992645264	fix_post	2		12	2.0	2.5	/experiments/AOT/AOT_stimuli/rescaled_final/1978_fw.mp4	0.0	102.54524993896484	0.10043883323669434
5	64.09962582588196	fix_pre	0		120	3.0	2.5	/experiments/AOT/AOT_stimuli/rescaled_final/0907_rv.mp4	0.0	102.64568877220154	0.9999182224273682
5	65.09954404830933	movie	1		244	3.0	2.5	/experiments/AOT/AOT_stimuli/rescaled_final/0907_rv.mp4	0.0	103.6456069946289	2.499581813812256
5	65.48273587226868	pulse	1	t		3.0	2.5	/experiments/AOT/AOT_stimuli/rescaled_final/0907_rv.mp4	0.0	104.02879881858826	
5	67.0829918384552	pulse	1	t		3.0	2.5	/experiments/AOT/AOT_stimuli/rescaled_final/0907_rv.mp4	0.0	105.62905478477478	
5	67.59912586212158	fix_post	2		12	3.0	2.5	/experiments/AOT/AOT_stimuli/rescaled_final/0907_rv.mp4	0.0	106.14518880844116	0.1004641056060791
6	67.69958996772766	fix_pre	0		119	4.0	2.5	/experiments/AOT/AOT_stimuli/rescaled_final/0243_rv.mp4	0.0	106.24565291404724	0.9917199611663818
6	68.68306183815002	pulse	0	t		4.0	2.5	/experiments/AOT/AOT_stimuli/rescaled_final/0243_rv.mp4	0.0	107.2291247844696	
6	68.69130992889404	movie	1		248	4.0	2.5	/experiments/AOT/AOT_stimuli/rescaled_final/0243_rv.mp4	0.0	107.23737287521362	2.50787091255188
6	70.2826280593872	pulse	1	t		4.0	2.5	/experiments/AOT/AOT_stimuli/rescaled_final/0243_rv.mp4	0.0	108.82869100570679	
6	71.19918084144592	fix_post	2		12	4.0	2.5	/experiments/AOT/AOT_stimuli/rescaled_final/0243_rv.mp4	0.0	109.7452437877655	0.10038399696350098
7	71.29956483840942	fix_pre	0		120	5.0	2.5	/experiments/AOT/AOT_stimuli/rescaled_final/0074_fw.mp4	0.0	109.845627784729	1.0001230239868164
7	71.88276100158691	pulse	0	t		5.0	2.5	/experiments/AOT/AOT_stimuli/rescaled_final/0074_fw.mp4	0.0	110.4288239479065	
7	72.29968786239624	movie	1		248	5.0	2.5	/experiments/AOT/AOT_stimuli/rescaled_final/0074_fw.mp4	0.0	110.84575080871582	2.4998769760131836
7	73.48333883285522	pulse	1	t		5.0	2.5	/experiments/AOT/AOT_stimuli/rescaled_final/0074_fw.mp4	0.0	112.0294017791748	
7	74.79956483840942	fix_post	2		12	5.0	2.5	/experiments/AOT/AOT_stimuli/rescaled_final/0074_fw.mp4	0.0	113.345627784729	0.09998703002929688
8	74.89955186843872	fix_pre	0		120	6.0	2.5	/experiments/AOT/AOT_stimuli/rescaled_final/2177_fw.mp4	0.0	113.4456148147583	0.9999630451202393
8	75.08303093910217	pulse	0	t		6.0	2.5	/experiments/AOT/AOT_stimuli/rescaled_final/2177_fw.mp4	0.0	113.62909388542175	
8	75.89951491355896	movie	1		246	6.0	2.5	/experiments/AOT/AOT_stimuli/rescaled_final/2177_fw.mp4	0.0	114.44557785987854	2.499974012374878
8	76.6830358505249	pulse	1	t		6.0	2.5	/experiments/AOT/AOT_stimuli/rescaled_final/2177_fw.mp4	0.0	115.22909879684448	
8	78.28300905227661	pulse	1	t		6.0	2.5	/experiments/AOT/AOT_stimuli/rescaled_final/2177_fw.mp4	0.0	116.82907199859619	
8	78.39948892593384	fix_post	2		12	6.0	2.5	/experiments/AOT/AOT_stimuli/rescaled_final/2177_fw.mp4	0.0	116.94555187225342	0.09994101524353027
9	78.49942994117737	fix_pre	0		120	7.0	2.5	blank	1.0	117.04549288749695	0.9997060298919678
9	79.49913597106934	movie	1		300	7.0	2.5	blank	1.0	118.04519891738892	2.5003879070281982
9	79.88295197486877	pulse	1	t		7.0	2.5	blank	1.0	118.42901492118835	
9	81.48302602767944	pulse	1	t		7.0	2.5	blank	1.0	120.02908897399902	
9	81.99952387809753	fix_post	2		12	7.0	2.5	blank	1.0	120.54558682441711	0.09955501556396484
10	82.0990788936615	fix_pre	0		119	8.0	2.5	/experiments/AOT/AOT_stimuli/rescaled_final/1028_fw.mp4	0.0	120.64514183998108	0.9920361042022705
10	83.08297085762024	pulse	0	t		8.0	2.5	/experiments/AOT/AOT_stimuli/rescaled_final/1028_fw.mp4	0.0	121.62903380393982	
10	83.09111499786377	movie	1		251	8.0	2.5	/experiments/AOT/AOT_stimuli/rescaled_final/1028_fw.mp4	0.0	121.63717794418335	2.5083279609680176
10	84.68251585960388	pulse	1	t		8.0	2.5	/experiments/AOT/AOT_stimuli/rescaled_final/1028_fw.mp4	0.0	123.22857880592346	
10	85.59944295883179	fix_post	2		12	8.0	2.5	/experiments/AOT/AOT_stimuli/rescaled_final/1028_fw.mp4	0.0	124.14550590515137	0.10003495216369629
11	85.69947791099548	fix_pre	0		120	9.0	2.5	/experiments/AOT/AOT_stimuli/rescaled_final/1182_fw.mp4	0.0	124.24554085731506	0.9999520778656006
11	86.28294205665588	pulse	0	t		9.0	2.5	/experiments/AOT/AOT_stimuli/rescaled_final/1182_fw.mp4	0.0	124.82900500297546	
11	86.69942998886108	movie	1		244	9.0	2.5	/experiments/AOT/AOT_stimuli/rescaled_final/1182_fw.mp4	0.0	125.24549293518066	2.4999849796295166
11	87.88302683830261	pulse	1	t		9.0	2.5	/experiments/AOT/AOT_stimuli/rescaled_final/1182_fw.mp4	0.0	126.42908978462219	
11	89.1994149684906	fix_post	2		12	9.0	2.5	/experiments/AOT/AOT_stimuli/rescaled_final/1182_fw.mp4	0.0	127.74547791481018	0.10004997253417969
12	89.29946494102478	fix_pre	0		120	10.0	2.5	/experiments/AOT/AOT_stimuli/rescaled_final/1182_rv.mp4	0.0	127.84552788734436	1.0000081062316895
12	89.48296785354614	pulse	0	t		10.0	2.5	/experiments/AOT/AOT_stimuli/rescaled_final/1182_rv.mp4	0.0	128.02903079986572	
12	90.29947304725647	movie	1		244	10.0	2.5	/experiments/AOT/AOT_stimuli/rescaled_final/1182_rv.mp4	0.0	128.84553599357605	2.499560832977295
12	91.08293294906616	pulse	1	t		10.0	2.5	/experiments/AOT/AOT_stimuli/rescaled_final/1182_rv.mp4	0.0	129.62899589538574	
12	92.68289685249329	pulse	1	t		10.0	2.5	/experiments/AOT/AOT_stimuli/rescaled_final/1182_rv.mp4	0.0	131.22895979881287	
12	92.79903388023376	fix_post	2		12	10.0	2.5	/experiments/AOT/AOT_stimuli/rescaled_final/1182_rv.mp4	0.0	131.34509682655334	0.10037112236022949
13	92.899405002594	fix_pre	0		120	11.0	2.5	/experiments/AOT/AOT_stimuli/rescaled_final/0999_rv.mp4	0.0	131.44546794891357	1.0000429153442383
13	93.89944791793823	movie	1		244	11.0	2.5	/experiments/AOT/AOT_stimuli/rescaled_final/0999_rv.mp4	0.0	132.4455108642578	2.499948024749756
13	94.2826988697052	pulse	1	t		11.0	2.5	/experiments/AOT/AOT_stimuli/rescaled_final/0999_rv.mp4	0.0	132.82876181602478	
13	95.88289499282837	pulse	1	t		11.0	2.5	/experiments/AOT/AOT_stimuli/rescaled_final/0999_rv.mp4	0.0	134.42895793914795	
13	96.39939594268799	fix_post	2		12	11.0	2.5	/experiments/AOT/AOT_stimuli/rescaled_final/0999_rv.mp4	0.0	134.94545888900757	0.10008096694946289
14	96.49947690963745	fix_pre	0		119	12.0	2.5	/experiments/AOT/AOT_stimuli/rescaled_final/1731_rv.mp4	0.0	135.04553985595703	0.9915380477905273
14	97.48297691345215	pulse	0	t		12.0	2.5	/experiments/AOT/AOT_stimuli/rescaled_final/1731_rv.mp4	0.0	136.02903985977173	
14	97.49101495742798	movie	1		245	12.0	2.5	/experiments/AOT/AOT_stimuli/rescaled_final/1731_rv.mp4	0.0	136.03707790374756	2.508441925048828
14	99.08282804489136	pulse	1	t		12.0	2.5	/experiments/AOT/AOT_stimuli/rescaled_final/1731_rv.mp4	0.0	137.62889099121094	
14	99.9994568824768	fix_post	2		12	12.0	2.5	/experiments/AOT/AOT_stimuli/rescaled_final/1731_rv.mp4	0.0	138.5455198287964	0.09993505477905273
15	100.09939193725586	fix_pre	0		120	13.0	2.5	/experiments/AOT/AOT_stimuli/rescaled_final/0785_rv.mp4	0.0	138.64545488357544	1.0000600814819336
15	100.68296098709106	pulse	0	t		13.0	2.5	/experiments/AOT/AOT_stimuli/rescaled_final/0785_rv.mp4	0.0	139.22902393341064	
15	101.0994520187378	movie	1		244	13.0	2.5	/experiments/AOT/AOT_stimuli/rescaled_final/0785_rv.mp4	0.0	139.64551496505737	2.499572992324829
15	102.28300189971924	pulse	1	t		13.0	2.5	/experiments/AOT/AOT_stimuli/rescaled_final/0785_rv.mp4	0.0	140.82906484603882	
15	103.59902501106262	fix_post	2		12	13.0	2.5	/experiments/AOT/AOT_stimuli/rescaled_final/0785_rv.mp4	0.0	142.1450879573822	0.10038995742797852
16	103.6994149684906	fix_pre	0		120	14.0	2.5	blank	1.0	142.24547791481018	0.9995489120483398
16	103.88288998603821	pulse	0	t		14.0	2.5	blank	1.0	142.4289529323578	
16	104.69896388053894	movie	1		300	14.0	2.5	blank	1.0	143.24502682685852	2.5004141330718994
16	105.48283004760742	pulse	1	t		14.0	2.5	blank	1.0	144.028892993927	
16	107.08289194107056	pulse	1	t		14.0	2.5	blank	1.0	145.62895488739014	
16	107.19937801361084	fix_post	2		12	14.0	2.5	blank	1.0	145.74544095993042	0.10006499290466309
17	107.2994430065155	fix_pre	0		120	15.0	2.5	/experiments/AOT/AOT_stimuli/rescaled_final/1465_rv.mp4	0.0	145.84550595283508	0.9999959468841553
17	108.29943895339966	movie	1		245	15.0	2.5	/experiments/AOT/AOT_stimuli/rescaled_final/1465_rv.mp4	0.0	146.84550189971924	2.500549077987671
17	108.68239498138428	pulse	1	t		15.0	2.5	/experiments/AOT/AOT_stimuli/rescaled_final/1465_rv.mp4	0.0	147.22845792770386	
17	110.2828278541565	pulse	1	t		15.0	2.5	/experiments/AOT/AOT_stimuli/rescaled_final/1465_rv.mp4	0.0	148.82889080047607	
17	110.79998803138733	fix_post	2		12	15.0	2.5	/experiments/AOT/AOT_stimuli/rescaled_final/1465_rv.mp4	0.0	149.3460509777069	0.09935593605041504
18	110.89934396743774	fix_pre	0		119	16.0	2.5	/experiments/AOT/AOT_stimuli/rescaled_final/0616_fw.mp4	0.0	149.44540691375732	0.991642951965332
18	111.88282704353333	pulse	0	t		16.0	2.5	/experiments/AOT/AOT_stimuli/rescaled_final/0616_fw.mp4	0.0	150.4288899898529	
18	111.89098691940308	movie	1		245	16.0	2.5	/experiments/AOT/AOT_stimuli/rescaled_final/0616_fw.mp4	0.0	150.43704986572266	2.508384943008423
18	113.48291897773743	pulse	1	t		16.0	2.5	/experiments/AOT/AOT_stimuli/rescaled_final/0616_fw.mp4	0.0	152.028981924057	
18	114.3993718624115	fix_post	2		12	16.0	2.5	/experiments/AOT/AOT_stimuli/rescaled_final/0616_fw.mp4	0.0	152.94543480873108	0.0999600887298584
19	114.49933195114136	fix_pre	0		120	17.0	2.5	/experiments/AOT/AOT_stimuli/rescaled_final/1627_rv.mp4	0.0	153.04539489746094	0.99959397315979
19	115.08287692070007	pulse	0	t		17.0	2.5	/experiments/AOT/AOT_stimuli/rescaled_final/1627_rv.mp4	0.0	153.62893986701965	
19	115.49892592430115	movie	1		244	17.0	2.5	/experiments/AOT/AOT_stimuli/rescaled_final/1627_rv.mp4	0.0	154.04498887062073	2.5003960132598877
19	116.68282699584961	pulse	1	t		17.0	2.5	/experiments/AOT/AOT_stimuli/rescaled_final/1627_rv.mp4	0.0	155.2288899421692	
19	117.99932193756104	fix_post	2		12	17.0	2.5	/experiments/AOT/AOT_stimuli/rescaled_final/1627_rv.mp4	0.0	156.54538488388062	0.09992194175720215
20	118.09924387931824	fix_pre	0		120	18.0	2.5	/experiments/AOT/AOT_stimuli/rescaled_final/0138_rv.mp4	0.0	156.64530682563782	1.0000760555267334
20	118.28280782699585	pulse	0	t		18.0	2.5	/experiments/AOT/AOT_stimuli/rescaled_final/0138_rv.mp4	0.0	156.82887077331543	
20	119.09931993484497	movie	1		243	18.0	2.5	/experiments/AOT/AOT_stimuli/rescaled_final/0138_rv.mp4	0.0	157.64538288116455	2.4996159076690674
20	119.8828718662262	pulse	1	t		18.0	2.5	/experiments/AOT/AOT_stimuli/rescaled_final/0138_rv.mp4	0.0	158.42893481254578	
20	121.4912748336792	pulse	1	t		18.0	2.5	/experiments/AOT/AOT_stimuli/rescaled_final/0138_rv.mp4	0.0	160.03733777999878	
20	121.59893584251404	fix_post	2		12	18.0	2.5	/experiments/AOT/AOT_stimuli/rescaled_final/0138_rv.mp4	0.0	160.14499878883362	0.10032510757446289
21	121.6992609500885	fix_pre	0		120	19.0	2.5	/experiments/AOT/AOT_stimuli/rescaled_final/0118_fw.mp4	0.0	160.24532389640808	1.000046968460083
21	122.69930791854858	movie	1		244	19.0	2.5	/experiments/AOT/AOT_stimuli/rescaled_final/0118_fw.mp4	0.0	161.24537086486816	2.500037908554077
21	123.0830328464508	pulse	1	t		19.0	2.5	/experiments/AOT/AOT_stimuli/rescaled_final/0118_fw.mp4	0.0	161.62909579277039	
21	124.68277883529663	pulse	1	t		19.0	2.5	/experiments/AOT/AOT_stimuli/rescaled_final/0118_fw.mp4	0.0	163.2288417816162	
21	125.19934582710266	fix_post	2		12	19.0	2.5	/experiments/AOT/AOT_stimuli/rescaled_final/0118_fw.mp4	0.0	163.74540877342224	0.09995722770690918
22	125.29930305480957	fix_pre	0		119	20.0	2.5	blank	1.0	163.84536600112915	0.9912979602813721
22	126.28234505653381	pulse	0	t		20.0	2.5	blank	1.0	164.8284080028534	
22	126.29060101509094	movie	1		301	20.0	2.5	blank	1.0	164.83666396141052	2.50895094871521
22	127.88251495361328	pulse	1	t		20.0	2.5	blank	1.0	166.42857789993286	
22	128.79955196380615	fix_post	2		12	20.0	2.5	blank	1.0	167.34561491012573	0.09998703002929688
23	128.89953899383545	fix_pre	0		120	21.0	2.5	/experiments/AOT/AOT_stimuli/rescaled_final/2115_fw.mp4	0.0	167.44560194015503	0.9997320175170898
23	129.48275685310364	pulse	0	t		21.0	2.5	/experiments/AOT/AOT_stimuli/rescaled_final/2115_fw.mp4	0.0	168.02881979942322	
23	129.89927101135254	movie	1		246	21.0	2.5	/experiments/AOT/AOT_stimuli/rescaled_final/2115_fw.mp4	0.0	168.44533395767212	2.5001230239868164
23	131.08270692825317	pulse	1	t		21.0	2.5	/experiments/AOT/AOT_stimuli/rescaled_final/2115_fw.mp4	0.0	169.62876987457275	
23	132.39939403533936	fix_post	2		12	21.0	2.5	/experiments/AOT/AOT_stimuli/rescaled_final/2115_fw.mp4	0.0	170.94545698165894	0.09986495971679688
24	132.49925899505615	fix_pre	0		120	22.0	2.5	/experiments/AOT/AOT_stimuli/rescaled_final/0584_rv.mp4	0.0	171.04532194137573	0.9999420642852783
24	132.68276500701904	pulse	0	t		22.0	2.5	/experiments/AOT/AOT_stimuli/rescaled_final/0584_rv.mp4	0.0	171.22882795333862	
24	133.49920105934143	movie	1		245	22.0	2.5	/experiments/AOT/AOT_stimuli/rescaled_final/0584_rv.mp4	0.0	172.045264005661	2.4995899200439453
24	134.2827548980713	pulse	1	t		22.0	2.5	/experiments/AOT/AOT_stimuli/rescaled_final/0584_rv.mp4	0.0	172.82881784439087	
24	135.8912799358368	pulse	1	t		22.0	2.5	/experiments/AOT/AOT_stimuli/rescaled_final/0584_rv.mp4	0.0	174.43734288215637	
24	135.99879097938538	fix_post	2		12	22.0	2.5	/experiments/AOT/AOT_stimuli/rescaled_final/0584_rv.mp4	0.0	174.54485392570496	0.10043096542358398
25	136.09922194480896	fix_pre	0		120	23.0	2.5	/experiments/AOT/AOT_stimuli/rescaled_final/1622_fw.mp4	0.0	174.64528489112854	0.9996039867401123
25	137.09882593154907	movie	1		245	23.0	2.5	/experiments/AOT/AOT_stimuli/rescaled_final/1622_fw.mp4	0.0	175.64488887786865	2.50034499168396
25	137.48367190361023	pulse	1	t		23.0	2.5	/experiments/AOT/AOT_stimuli/rescaled_final/1622_fw.mp4	0.0	176.0297348499298	
25	139.08273005485535	pulse	1	t		23.0	2.5	/experiments/AOT/AOT_stimuli/rescaled_final/1622_fw.mp4	0.0	177.62879300117493	
25	139.59917092323303	fix_post	2		12	23.0	2.5	/experiments/AOT/AOT_stimuli/rescaled_final/1622_fw.mp4	0.0	178.1452338695526	0.10000896453857422
26	139.6991798877716	fix_pre	0		119	24.0	2.5	/experiments/AOT/AOT_stimuli/rescaled_final/0197_rv.mp4	0.0	178.2452428340912	0.9917831420898438
26	140.68265104293823	pulse	0	t		24.0	2.5	/experiments/AOT/AOT_stimuli/rescaled_final/0197_rv.mp4	0.0	179.2287139892578	
26	140.69096302986145	movie	1		246	24.0	2.5	/experiments/AOT/AOT_stimuli/rescaled_final/0197_rv.mp4	0.0	179.23702597618103	2.5082449913024902
26	142.28216886520386	pulse	1	t		24.0	2.5	/experiments/AOT/AOT_stimuli/rescaled_final/0197_rv.mp4	0.0	180.82823181152344	
26	143.19920802116394	fix_post	2		12	24.0	2.5	/experiments/AOT/AOT_stimuli/rescaled_final/0197_rv.mp4	0.0	181.74527096748352	0.09992003440856934
27	143.2991280555725	fix_pre	0		120	25.0	2.5	/experiments/AOT/AOT_stimuli/rescaled_final/0415_rv.mp4	0.0	181.8451910018921	0.999647855758667
27	143.88260197639465	pulse	0	t		25.0	2.5	/experiments/AOT/AOT_stimuli/rescaled_final/0415_rv.mp4	0.0	182.42866492271423	
27	144.29877591133118	movie	1		245	25.0	2.5	/experiments/AOT/AOT_stimuli/rescaled_final/0415_rv.mp4	0.0	182.84483885765076	2.500515937805176
27	145.48266696929932	pulse	1	t		25.0	2.5	/experiments/AOT/AOT_stimuli/rescaled_final/0415_rv.mp4	0.0	184.0287299156189	
27	146.79929184913635	fix_post	2		12	25.0	2.5	/experiments/AOT/AOT_stimuli/rescaled_final/0415_rv.mp4	0.0	185.34535479545593	0.09987711906433105
28	146.89916896820068	fix_pre	0		120	26.0	2.5	blank	1.0	185.44523191452026	0.9996309280395508
28	147.0827169418335	pulse	0	t		26.0	2.5	blank	1.0	185.62877988815308	
28	147.89879989624023	movie	1		300	26.0	2.5	blank	1.0	186.44486284255981	2.5003650188446045
28	148.6826889514923	pulse	1	t		26.0	2.5	blank	1.0	187.2287518978119	
28	150.2826108932495	pulse	1	t		26.0	2.5	blank	1.0	188.8286738395691	
28	150.39916491508484	fix_post	2		12	26.0	2.5	blank	1.0	188.94522786140442	0.10004305839538574
29	150.49920797348022	fix_pre	0		120	27.0	2.5	/experiments/AOT/AOT_stimuli/rescaled_final/2085_fw.mp4	0.0	189.0452709197998	0.999945878982544
29	151.49915385246277	movie	1		245	27.0	2.5	/experiments/AOT/AOT_stimuli/rescaled_final/2085_fw.mp4	0.0	190.04521679878235	2.499559164047241
29	151.8824269771576	pulse	1	t		27.0	2.5	/experiments/AOT/AOT_stimuli/rescaled_final/2085_fw.mp4	0.0	190.42848992347717	
29	153.48273086547852	pulse	1	t		27.0	2.5	/experiments/AOT/AOT_stimuli/rescaled_final/2085_fw.mp4	0.0	192.0287938117981	
29	153.99871301651	fix_post	2		12	27.0	2.5	/experiments/AOT/AOT_stimuli/rescaled_final/2085_fw.mp4	0.0	192.5447759628296	0.10046792030334473
30	154.09918093681335	fix_pre	0		119	28.0	2.5	/experiments/AOT/AOT_stimuli/rescaled_final/1121_rv.mp4	0.0	192.64524388313293	0.9916698932647705
30	155.0828058719635	pulse	0	t		28.0	2.5	/experiments/AOT/AOT_stimuli/rescaled_final/1121_rv.mp4	0.0	193.62886881828308	
30	155.09085083007812	movie	1		246	28.0	2.5	/experiments/AOT/AOT_stimuli/rescaled_final/1121_rv.mp4	0.0	193.6369137763977	2.5083370208740234
30	156.68265390396118	pulse	1	t		28.0	2.5	/experiments/AOT/AOT_stimuli/rescaled_final/1121_rv.mp4	0.0	195.22871685028076	
30	157.59918785095215	fix_post	2		12	28.0	2.5	/experiments/AOT/AOT_stimuli/rescaled_final/1121_rv.mp4	0.0	196.14525079727173	0.09995317459106445
31	157.6991410255432	fix_pre	0		120	29.0	2.5	/experiments/AOT/AOT_stimuli/rescaled_final/1488_rv.mp4	0.0	196.2452039718628	0.9995269775390625
31	158.28263902664185	pulse	0	t		29.0	2.5	/experiments/AOT/AOT_stimuli/rescaled_final/1488_rv.mp4	0.0	196.82870197296143	
31	158.69866800308228	movie	1		245	29.0	2.5	/experiments/AOT/AOT_stimuli/rescaled_final/1488_rv.mp4	0.0	197.24473094940186	2.5000200271606445
31	159.88260102272034	pulse	1	t		29.0	2.5	/experiments/AOT/AOT_stimuli/rescaled_final/1488_rv.mp4	0.0	198.42866396903992	
31	161.19868803024292	fix_post	2		12	29.0	2.5	/experiments/AOT/AOT_stimuli/rescaled_final/1488_rv.mp4	0.0	199.7447509765625	0.10046195983886719
32	161.2991499900818	fix_pre	0		120	30.0	2.5	/experiments/AOT/AOT_stimuli/rescaled_final/1273_rv.mp4	0.0	199.84521293640137	0.999985933303833
32	161.4826409816742	pulse	0	t		30.0	2.5	/experiments/AOT/AOT_stimuli/rescaled_final/1273_rv.mp4	0.0	200.02870392799377	
32	162.29913592338562	movie	1		245	30.0	2.5	/experiments/AOT/AOT_stimuli/rescaled_final/1273_rv.mp4	0.0	200.8451988697052	2.500092029571533
32	163.0825638771057	pulse	1	t		30.0	2.5	/experiments/AOT/AOT_stimuli/rescaled_final/1273_rv.mp4	0.0	201.6286268234253	
32	164.6827359199524	pulse	1	t		30.0	2.5	/experiments/AOT/AOT_stimuli/rescaled_final/1273_rv.mp4	0.0	203.22879886627197	
32	164.79922795295715	fix_post	2		12	30.0	2.5	/experiments/AOT/AOT_stimuli/rescaled_final/1273_rv.mp4	0.0	203.34529089927673	0.0997920036315918
33	164.89901995658875	fix_pre	0		120	31.0	2.5	/experiments/AOT/AOT_stimuli/rescaled_final/1448_rv.mp4	0.0	203.44508290290833	1.000182867050171
33	165.89920282363892	movie	1		244	31.0	2.5	/experiments/AOT/AOT_stimuli/rescaled_final/1448_rv.mp4	0.0	204.4452657699585	2.499399185180664
33	166.29094290733337	pulse	1	t		31.0	2.5	/experiments/AOT/AOT_stimuli/rescaled_final/1448_rv.mp4	0.0	204.83700585365295	
33	167.8826298713684	pulse	1	t		31.0	2.5	/experiments/AOT/AOT_stimuli/rescaled_final/1448_rv.mp4	0.0	206.428692817688	
33	168.39860200881958	fix_post	2		12	31.0	2.5	/experiments/AOT/AOT_stimuli/rescaled_final/1448_rv.mp4	0.0	206.94466495513916	0.10047483444213867
34	168.49907684326172	fix_pre	0		119	32.0	2.5	/experiments/AOT/AOT_stimuli/rescaled_final/0328_fw.mp4	0.0	207.0451397895813	0.9916081428527832
34	169.48267102241516	pulse	0	t		32.0	2.5	/experiments/AOT/AOT_stimuli/rescaled_final/0328_fw.mp4	0.0	208.02873396873474	
34	169.4906849861145	movie	1		244	32.0	2.5	/experiments/AOT/AOT_stimuli/rescaled_final/0328_fw.mp4	0.0	208.03674793243408	2.5083658695220947
34	171.08376598358154	pulse	1	t		32.0	2.5	/experiments/AOT/AOT_stimuli/rescaled_final/0328_fw.mp4	0.0	209.62982892990112	
34	171.9990508556366	fix_post	2		12	32.0	2.5	/experiments/AOT/AOT_stimuli/rescaled_final/0328_fw.mp4	0.0	210.54511380195618	0.09998917579650879
35	172.0990400314331	fix_pre	0		120	33.0	2.5	/experiments/AOT/AOT_stimuli/rescaled_final/0764_rv.mp4	0.0	210.64510297775269	1.0000519752502441
35	172.68280792236328	pulse	0	t		33.0	2.5	/experiments/AOT/AOT_stimuli/rescaled_final/0764_rv.mp4	0.0	211.22887086868286	
35	173.09909200668335	movie	1		245	33.0	2.5	/experiments/AOT/AOT_stimuli/rescaled_final/0764_rv.mp4	0.0	211.64515495300293	2.500072956085205
35	174.28255605697632	pulse	1	t		33.0	2.5	/experiments/AOT/AOT_stimuli/rescaled_final/0764_rv.mp4	0.0	212.8286190032959	
35	175.59916496276855	fix_post	2		12	33.0	2.5	/experiments/AOT/AOT_stimuli/rescaled_final/0764_rv.mp4	0.0	214.14522790908813	0.09989595413208008
36	175.69906091690063	fix_pre	0		120	34.0	2.5	/experiments/AOT/AOT_stimuli/rescaled_final/0953_fw.mp4	0.0	214.24512386322021	1.000020980834961
36	175.88247299194336	pulse	0	t		34.0	2.5	/experiments/AOT/AOT_stimuli/rescaled_final/0953_fw.mp4	0.0	214.42853593826294	
36	176.6990818977356	movie	1		243	34.0	2.5	/experiments/AOT/AOT_stimuli/rescaled_final/0953_fw.mp4	0.0	215.24514484405518	2.499959945678711
36	177.48256182670593	pulse	1	t		34.0	2.5	/experiments/AOT/AOT_stimuli/rescaled_final/0953_fw.mp4	0.0	216.0286247730255	
36	179.09096097946167	pulse	1	t		34.0	2.5	/experiments/AOT/AOT_stimuli/rescaled_final/0953_fw.mp4	0.0	217.63702392578125	
36	179.1990418434143	fix_post	2		12	34.0	2.5	/experiments/AOT/AOT_stimuli/rescaled_final/0953_fw.mp4	0.0	217.7451047897339	0.10005712509155273
37	179.29909896850586	fix_pre	0		120	35.0	2.5	blank	1.0	217.84516191482544	0.9999110698699951
37	180.29901003837585	movie	1		300	35.0	2.5	blank	1.0	218.84507298469543	2.5001909732818604
37	180.6826410293579	pulse	1	t		35.0	2.5	blank	1.0	219.2287039756775	
37	182.28262400627136	pulse	1	t		35.0	2.5	blank	1.0	220.82868695259094	
37	182.79920101165771	fix_post	2		12	35.0	2.5	blank	1.0	221.3452639579773	0.09949088096618652
38	182.8986918926239	fix_pre	0		119	36.0	2.5	/experiments/AOT/AOT_stimuli/rescaled_final/0778_rv.mp4	0.0	221.44475483894348	0.9921419620513916
38	183.88269090652466	pulse	0	t		36.0	2.5	/experiments/AOT/AOT_stimuli/rescaled_final/0778_rv.mp4	0.0	222.42875385284424	
38	183.8908338546753	movie	1		246	36.0	2.5	/experiments/AOT/AOT_stimuli/rescaled_final/0778_rv.mp4	0.0	222.43689680099487	2.508172035217285
38	185.4835238456726	pulse	1	t		36.0	2.5	/experiments/AOT/AOT_stimuli/rescaled_final/0778_rv.mp4	0.0	224.0295867919922	
38	186.39900588989258	fix_post	2		12	36.0	2.5	/experiments/AOT/AOT_stimuli/rescaled_final/0778_rv.mp4	0.0	224.94506883621216	0.09998202323913574
39	186.4989879131317	fix_pre	0		120	37.0	2.5	/experiments/AOT/AOT_stimuli/rescaled_final/0138_fw.mp4	0.0	225.0450508594513	1.0000309944152832
39	187.0825159549713	pulse	0	t		37.0	2.5	/experiments/AOT/AOT_stimuli/rescaled_final/0138_fw.mp4	0.0	225.6285789012909	
39	187.499018907547	movie	1		243	37.0	2.5	/experiments/AOT/AOT_stimuli/rescaled_final/0138_fw.mp4	0.0	226.04508185386658	2.4999730587005615
39	188.68252992630005	pulse	1	t		37.0	2.5	/experiments/AOT/AOT_stimuli/rescaled_final/0138_fw.mp4	0.0	227.22859287261963	
39	189.99899196624756	fix_post	2		12	37.0	2.5	/experiments/AOT/AOT_stimuli/rescaled_final/0138_fw.mp4	0.0	228.54505491256714	0.09996390342712402
40	190.09895586967468	fix_pre	0		120	38.0	2.5	/experiments/AOT/AOT_stimuli/rescaled_final/1722_rv.mp4	0.0	228.64501881599426	0.9999871253967285
40	190.28241801261902	pulse	0	t		38.0	2.5	/experiments/AOT/AOT_stimuli/rescaled_final/1722_rv.mp4	0.0	228.8284809589386	
40	191.0989429950714	movie	1		243	38.0	2.5	/experiments/AOT/AOT_stimuli/rescaled_final/1722_rv.mp4	0.0	229.645005941391	2.4995670318603516
40	191.88248300552368	pulse	1	t		38.0	2.5	/experiments/AOT/AOT_stimuli/rescaled_final/1722_rv.mp4	0.0	230.42854595184326	
40	193.4908390045166	pulse	1	t		38.0	2.5	/experiments/AOT/AOT_stimuli/rescaled_final/1722_rv.mp4	0.0	232.03690195083618	
40	193.59851002693176	fix_post	2		12	38.0	2.5	/experiments/AOT/AOT_stimuli/rescaled_final/1722_rv.mp4	0.0	232.14457297325134	0.09997987747192383
41	193.6984899044037	fix_pre	0		120	39.0	2.5	/experiments/AOT/AOT_stimuli/rescaled_final/1775_fw.mp4	0.0	232.24455285072327	1.0003941059112549
41	194.69888401031494	movie	1		244	39.0	2.5	/experiments/AOT/AOT_stimuli/rescaled_final/1775_fw.mp4	0.0	233.24494695663452	2.4995880126953125
41	195.0907769203186	pulse	1	t		39.0	2.5	/experiments/AOT/AOT_stimuli/rescaled_final/1775_fw.mp4	0.0	233.63683986663818	
41	196.68246603012085	pulse	1	t		39.0	2.5	/experiments/AOT/AOT_stimuli/rescaled_final/1775_fw.mp4	0.0	235.22852897644043	
41	197.19847202301025	fix_post	2		12	39.0	2.5	/experiments/AOT/AOT_stimuli/rescaled_final/1775_fw.mp4	0.0	235.74453496932983	0.10041499137878418
42	197.29888701438904	fix_pre	0		119	40.0	2.5	/experiments/AOT/AOT_stimuli/rescaled_final/0923_fw.mp4	0.0	235.84494996070862	0.9917669296264648
42	198.282399892807	pulse	0	t		40.0	2.5	/experiments/AOT/AOT_stimuli/rescaled_final/0923_fw.mp4	0.0	236.8284628391266	
42	198.2906539440155	movie	1		247	40.0	2.5	/experiments/AOT/AOT_stimuli/rescaled_final/0923_fw.mp4	0.0	236.83671689033508	2.5082459449768066
42	199.88250184059143	pulse	1	t		40.0	2.5	/experiments/AOT/AOT_stimuli/rescaled_final/0923_fw.mp4	0.0	238.428564786911	
42	200.7988998889923	fix_post	2		12	40.0	2.5	/experiments/AOT/AOT_stimuli/rescaled_final/0923_fw.mp4	0.0	239.3449628353119	0.10000300407409668
43	200.8989028930664	fix_pre	0		120	41.0	2.5	/experiments/AOT/AOT_stimuli/rescaled_final/1310_rv.mp4	0.0	239.444965839386	1.0001161098480225
43	201.4825520515442	pulse	0	t		41.0	2.5	/experiments/AOT/AOT_stimuli/rescaled_final/1310_rv.mp4	0.0	240.02861499786377	
43	201.89901900291443	movie	1		247	41.0	2.5	/experiments/AOT/AOT_stimuli/rescaled_final/1310_rv.mp4	0.0	240.445081949234	2.4999828338623047
43	203.08248901367188	pulse	1	t		41.0	2.5	/experiments/AOT/AOT_stimuli/rescaled_final/1310_rv.mp4	0.0	241.62855195999146	
43	204.39900183677673	fix_post	2		12	41.0	2.5	/experiments/AOT/AOT_stimuli/rescaled_final/1310_rv.mp4	0.0	242.9450647830963	0.10002803802490234
44	204.49902987480164	fix_pre	0		120	42.0	2.5	blank	1.0	243.04509282112122	1.0001351833343506
44	204.68241786956787	pulse	0	t		42.0	2.5	blank	1.0	243.22848081588745	
44	205.499165058136	movie	1		300	42.0	2.5	blank	1.0	244.04522800445557	2.4997828006744385
44	206.2823770046234	pulse	1	t		42.0	2.5	blank	1.0	244.828439950943	
44	207.88242983818054	pulse	1	t		42.0	2.5	blank	1.0	246.42849278450012	
44	207.99894785881042	fix_post	2		12	42.0	2.5	blank	1.0	246.54501080513	0.09997320175170898
45	208.09892106056213	fix_pre	0		120	43.0	2.5	/experiments/AOT/AOT_stimuli/rescaled_final/1197_fw.mp4	0.0	246.6449840068817	1.000114917755127
45	209.09903597831726	movie	1		243	43.0	2.5	/experiments/AOT/AOT_stimuli/rescaled_final/1197_fw.mp4	0.0	247.64509892463684	2.499786853790283
45	209.48355388641357	pulse	1	t		43.0	2.5	/experiments/AOT/AOT_stimuli/rescaled_final/1197_fw.mp4	0.0	248.02961683273315	
45	211.08235502243042	pulse	1	t		43.0	2.5	/experiments/AOT/AOT_stimuli/rescaled_final/1197_fw.mp4	0.0	249.62841796875	
45	211.59882283210754	fix_post	2		12	43.0	2.5	/experiments/AOT/AOT_stimuli/rescaled_final/1197_fw.mp4	0.0	250.14488577842712	0.1000981330871582
46	211.6989209651947	fix_pre	0		119	44.0	2.5	/experiments/AOT/AOT_stimuli/rescaled_final/0612_fw.mp4	0.0	250.24498391151428	0.9916219711303711
46	212.68254685401917	pulse	0	t		44.0	2.5	/experiments/AOT/AOT_stimuli/rescaled_final/0612_fw.mp4	0.0	251.22860980033875	
46	212.69054293632507	movie	1		245	44.0	2.5	/experiments/AOT/AOT_stimuli/rescaled_final/0612_fw.mp4	0.0	251.23660588264465	2.508296012878418
46	214.2907588481903	pulse	1	t		44.0	2.5	/experiments/AOT/AOT_stimuli/rescaled_final/0612_fw.mp4	0.0	252.8368217945099	
46	215.1988389492035	fix_post	2		12	44.0	2.5	/experiments/AOT/AOT_stimuli/rescaled_final/0612_fw.mp4	0.0	253.74490189552307	0.10002303123474121
47	215.29886198043823	fix_pre	0		120	45.0	2.5	/experiments/AOT/AOT_stimuli/rescaled_final/1383_rv.mp4	0.0	253.8449249267578	0.9999608993530273
47	215.88239789009094	pulse	0	t		45.0	2.5	/experiments/AOT/AOT_stimuli/rescaled_final/1383_rv.mp4	0.0	254.42846083641052	
47	216.29882287979126	movie	1		243	45.0	2.5	/experiments/AOT/AOT_stimuli/rescaled_final/1383_rv.mp4	0.0	254.84488582611084	2.4996659755706787
47	217.48241090774536	pulse	1	t		45.0	2.5	/experiments/AOT/AOT_stimuli/rescaled_final/1383_rv.mp4	0.0	256.02847385406494	
47	218.79848885536194	fix_post	2		12	45.0	2.5	/experiments/AOT/AOT_stimuli/rescaled_final/1383_rv.mp4	0.0	257.3445518016815	0.10040903091430664
48	218.89889788627625	fix_pre	0		120	46.0	2.5	/experiments/AOT/AOT_stimuli/rescaled_final/0807_rv.mp4	0.0	257.4449608325958	1.0000159740447998
48	219.08241486549377	pulse	0	t		46.0	2.5	/experiments/AOT/AOT_stimuli/rescaled_final/0807_rv.mp4	0.0	257.62847781181335	
48	219.89891386032104	movie	1		246	46.0	2.5	/experiments/AOT/AOT_stimuli/rescaled_final/0807_rv.mp4	0.0	258.4449768066406	2.5000569820404053
48	220.68235182762146	pulse	1	t		46.0	2.5	/experiments/AOT/AOT_stimuli/rescaled_final/0807_rv.mp4	0.0	259.22841477394104	
48	222.29084587097168	pulse	1	t		46.0	2.5	/experiments/AOT/AOT_stimuli/rescaled_final/0807_rv.mp4	0.0	260.83690881729126	
48	222.39897084236145	fix_post	2		12	46.0	2.5	/experiments/AOT/AOT_stimuli/rescaled_final/0807_rv.mp4	0.0	260.94503378868103	0.0998990535736084
49	222.49886989593506	fix_pre	0		120	47.0	2.5	/experiments/AOT/AOT_stimuli/rescaled_final/1894_rv.mp4	0.0	261.04493284225464	1.000028133392334
49	223.4988980293274	movie	1		245	47.0	2.5	/experiments/AOT/AOT_stimuli/rescaled_final/1894_rv.mp4	0.0	262.044960975647	2.4998979568481445
49	223.88196897506714	pulse	1	t		47.0	2.5	/experiments/AOT/AOT_stimuli/rescaled_final/1894_rv.mp4	0.0	262.4280319213867	
49	225.48322105407715	pulse	1	t		47.0	2.5	/experiments/AOT/AOT_stimuli/rescaled_final/1894_rv.mp4	0.0	264.02928400039673	
49	225.99879598617554	fix_post	2		12	47.0	2.5	/experiments/AOT/AOT_stimuli/rescaled_final/1894_rv.mp4	0.0	264.5448589324951	0.0999598503112793
50	226.09875583648682	fix_pre	0		119	48.0	2.5	blank	1.0	264.6448187828064	0.9917290210723877
50	227.0823528766632	pulse	0	t		48.0	2.5	blank	1.0	265.6284158229828	
50	227.0904848575592	movie	1		301	48.0	2.5	blank	1.0	265.6365478038788	2.507862091064453
50	228.68230986595154	pulse	1	t		48.0	2.5	blank	1.0	267.2283728122711	
50	229.59834694862366	fix_post	2		12	48.0	2.5	blank	1.0	268.14440989494324	0.10043787956237793
51	229.69878482818604	fix_pre	0		120	49.0	2.5	/experiments/AOT/AOT_stimuli/rescaled_final/1805_fw.mp4	0.0	268.2448477745056	0.9999961853027344
51	230.28234100341797	pulse	0	t		49.0	2.5	/experiments/AOT/AOT_stimuli/rescaled_final/1805_fw.mp4	0.0	268.82840394973755	
51	230.69878101348877	movie	1		245	49.0	2.5	/experiments/AOT/AOT_stimuli/rescaled_final/1805_fw.mp4	0.0	269.24484395980835	2.499562978744507
51	231.88230895996094	pulse	1	t		49.0	2.5	/experiments/AOT/AOT_stimuli/rescaled_final/1805_fw.mp4	0.0	270.4283719062805	
51	233.19834399223328	fix_post	2		12	49.0	2.5	/experiments/AOT/AOT_stimuli/rescaled_final/1805_fw.mp4	0.0	271.74440693855286	0.10043001174926758
52	233.29877400398254	fix_pre	0		120	50.0	2.5	/experiments/AOT/AOT_stimuli/rescaled_final/1535_rv.mp4	0.0	271.8448369503021	0.9996018409729004
52	233.48228096961975	pulse	0	t		50.0	2.5	/experiments/AOT/AOT_stimuli/rescaled_final/1535_rv.mp4	0.0	272.02834391593933	
52	234.29837584495544	movie	1		244	50.0	2.5	/experiments/AOT/AOT_stimuli/rescaled_final/1535_rv.mp4	0.0	272.844438791275	2.5003490447998047
52	235.08240485191345	pulse	1	t		50.0	2.5	/experiments/AOT/AOT_stimuli/rescaled_final/1535_rv.mp4	0.0	273.62846779823303	
52	236.6907160282135	pulse	1	t		50.0	2.5	/experiments/AOT/AOT_stimuli/rescaled_final/1535_rv.mp4	0.0	275.2367789745331	
52	236.79872488975525	fix_post	2		12	50.0	2.5	/experiments/AOT/AOT_stimuli/rescaled_final/1535_rv.mp4	0.0	275.34478783607483	0.10005402565002441
53	236.89877891540527	fix_pre	0		120	51.0	2.5	/experiments/AOT/AOT_stimuli/rescaled_final/0785_fw.mp4	0.0	275.44484186172485	1.0000720024108887
53	237.89885091781616	movie	1		245	51.0	2.5	/experiments/AOT/AOT_stimuli/rescaled_final/0785_fw.mp4	0.0	276.44491386413574	2.4996531009674072
53	238.29018187522888	pulse	1	t		51.0	2.5	/experiments/AOT/AOT_stimuli/rescaled_final/0785_fw.mp4	0.0	276.83624482154846	
53	239.88187503814697	pulse	1	t		51.0	2.5	/experiments/AOT/AOT_stimuli/rescaled_final/0785_fw.mp4	0.0	278.42793798446655	
53	240.39850401878357	fix_post	2		12	51.0	2.5	/experiments/AOT/AOT_stimuli/rescaled_final/0785_fw.mp4	0.0	278.94456696510315	0.10007286071777344
54	240.49857687950134	fix_pre	0		120	52.0	2.5	/experiments/AOT/AOT_stimuli/rescaled_final/1393_rv.mp4	0.0	279.0446398258209	1.0000760555267334
54	241.48300290107727	pulse	0	t		52.0	2.5	/experiments/AOT/AOT_stimuli/rescaled_final/1393_rv.mp4	0.0	280.02906584739685	
54	241.49865293502808	movie	1		248	52.0	2.5	/experiments/AOT/AOT_stimuli/rescaled_final/1393_rv.mp4	0.0	280.04471588134766	2.508392095565796
54	243.09021592140198	pulse	1	t		52.0	2.5	/experiments/AOT/AOT_stimuli/rescaled_final/1393_rv.mp4	0.0	281.63627886772156	
54	244.00704503059387	fix_post	2		12	52.0	2.5	/experiments/AOT/AOT_stimuli/rescaled_final/1393_rv.mp4	0.0	282.55310797691345	0.10000085830688477
55	244.10704588890076	fix_pre	0		120	53.0	2.5	/experiments/AOT/AOT_stimuli/rescaled_final/1663_fw.mp4	0.0	282.65310883522034	1.000014066696167
55	244.68305492401123	pulse	0	t		53.0	2.5	/experiments/AOT/AOT_stimuli/rescaled_final/1663_fw.mp4	0.0	283.2291178703308	
55	245.10705995559692	movie	1		246	53.0	2.5	/experiments/AOT/AOT_stimuli/rescaled_final/1663_fw.mp4	0.0	283.6531229019165	2.4999470710754395
55	246.28221082687378	pulse	1	t		53.0	2.5	/experiments/AOT/AOT_stimuli/rescaled_final/1663_fw.mp4	0.0	284.82827377319336	
55	247.60700702667236	fix_post	2		12	53.0	2.5	/experiments/AOT/AOT_stimuli/rescaled_final/1663_fw.mp4	0.0	286.15306997299194	0.0999460220336914
56	247.70695304870605	fix_pre	0		120	54.0	2.5	/experiments/AOT/AOT_stimuli/rescaled_final/1451_rv.mp4	0.0	286.25301599502563	1.0000338554382324
56	247.8822898864746	pulse	0	t		54.0	2.5	/experiments/AOT/AOT_stimuli/rescaled_final/1451_rv.mp4	0.0	286.4283528327942	
56	248.7069869041443	movie	1		244	54.0	2.5	/experiments/AOT/AOT_stimuli/rescaled_final/1451_rv.mp4	0.0	287.25304985046387	2.500046968460083
56	249.48206782341003	pulse	1	t		54.0	2.5	/experiments/AOT/AOT_stimuli/rescaled_final/1451_rv.mp4	0.0	288.0281307697296	
56	251.08208799362183	pulse	1	t		54.0	2.5	/experiments/AOT/AOT_stimuli/rescaled_final/1451_rv.mp4	0.0	289.6281509399414	
56	251.20703387260437	fix_post	2		12	54.0	2.5	/experiments/AOT/AOT_stimuli/rescaled_final/1451_rv.mp4	0.0	289.75309681892395	0.10004997253417969
57	251.30708384513855	fix_pre	0		120	55.0	2.5	blank	1.0	289.85314679145813	0.9995431900024414
57	252.306627035141	movie	1		300	55.0	2.5	blank	1.0	290.85268998146057	2.500379800796509
57	252.68212985992432	pulse	1	t		55.0	2.5	blank	1.0	291.2281928062439	
57	254.28208994865417	pulse	1	t		55.0	2.5	blank	1.0	292.82815289497375	
57	254.8070068359375	fix_post	2		12	55.0	2.5	blank	1.0	293.3530697822571	0.1000051498413086
58	254.9070119857788	fix_pre	0		118	56.0	2.5	/experiments/AOT/AOT_stimuli/rescaled_final/0731_rv.mp4	0.0	293.4530749320984	0.9833889007568359
58	255.88221502304077	pulse	0	t		56.0	2.5	/experiments/AOT/AOT_stimuli/rescaled_final/0731_rv.mp4	0.0	294.42827796936035	
58	255.89040088653564	movie	1		247	56.0	2.5	/experiments/AOT/AOT_stimuli/rescaled_final/0731_rv.mp4	0.0	294.4364638328552	2.508254051208496
58	257.4906978607178	pulse	1	t		56.0	2.5	/experiments/AOT/AOT_stimuli/rescaled_final/0731_rv.mp4	0.0	296.03676080703735	
58	258.39865493774414	fix_post	2		12	56.0	2.5	/experiments/AOT/AOT_stimuli/rescaled_final/0731_rv.mp4	0.0	296.9447178840637	0.09996700286865234
59	258.4986219406128	fix_pre	0		120	57.0	2.5	/experiments/AOT/AOT_stimuli/rescaled_final/1018_fw.mp4	0.0	297.0446848869324	0.9999749660491943
59	259.08338689804077	pulse	0	t		57.0	2.5	/experiments/AOT/AOT_stimuli/rescaled_final/1018_fw.mp4	0.0	297.62944984436035	
59	259.498596906662	movie	1		246	57.0	2.5	/experiments/AOT/AOT_stimuli/rescaled_final/1018_fw.mp4	0.0	298.04465985298157	2.4999959468841553
59	260.6831648349762	pulse	1	t		57.0	2.5	/experiments/AOT/AOT_stimuli/rescaled_final/1018_fw.mp4	0.0	299.2292277812958	
59	261.99859285354614	fix_post	2		12	57.0	2.5	/experiments/AOT/AOT_stimuli/rescaled_final/1018_fw.mp4	0.0	300.5446557998657	0.09994006156921387
60	262.09853291511536	fix_pre	0		120	58.0	2.5	/experiments/AOT/AOT_stimuli/rescaled_final/1383_rv.mp4	0.0	300.64459586143494	1.0000441074371338
60	262.2828118801117	pulse	0	t		58.0	2.5	/experiments/AOT/AOT_stimuli/rescaled_final/1383_rv.mp4	0.0	300.8288748264313	
60	263.0985770225525	movie	1		245	58.0	2.5	/experiments/AOT/AOT_stimuli/rescaled_final/1383_rv.mp4	0.0	301.64463996887207	2.5000150203704834
60	263.8829560279846	pulse	1	t		58.0	2.5	/experiments/AOT/AOT_stimuli/rescaled_final/1383_rv.mp4	0.0	302.4290189743042	
60	265.482617855072	pulse	1	t		58.0	2.5	/experiments/AOT/AOT_stimuli/rescaled_final/1383_rv.mp4	0.0	304.0286808013916	
60	265.598592042923	fix_post	2		12	58.0	2.5	/experiments/AOT/AOT_stimuli/rescaled_final/1383_rv.mp4	0.0	304.14465498924255	0.10000991821289062
61	265.69860196113586	fix_pre	0		120	59.0	2.5	/experiments/AOT/AOT_stimuli/rescaled_final/1032_rv.mp4	0.0	304.24466490745544	0.999945878982544
61	266.6985478401184	movie	1		245	59.0	2.5	/experiments/AOT/AOT_stimuli/rescaled_final/1032_rv.mp4	0.0	305.244610786438	2.499594211578369
61	267.08222103118896	pulse	1	t		59.0	2.5	/experiments/AOT/AOT_stimuli/rescaled_final/1032_rv.mp4	0.0	305.62828397750854	
61	268.682137966156	pulse	1	t		59.0	2.5	/experiments/AOT/AOT_stimuli/rescaled_final/1032_rv.mp4	0.0	307.2282009124756	
61	269.1981420516968	fix_post	2		12	59.0	2.5	/experiments/AOT/AOT_stimuli/rescaled_final/1032_rv.mp4	0.0	307.74420499801636	0.10045385360717773
62	269.29859590530396	fix_pre	0		119	60.0	2.5	/experiments/AOT/AOT_stimuli/rescaled_final/1480_fw.mp4	0.0	307.84465885162354	0.9916479587554932
62	270.2820680141449	pulse	0	t		60.0	2.5	/experiments/AOT/AOT_stimuli/rescaled_final/1480_fw.mp4	0.0	308.8281309604645	
62	270.29024386405945	movie	1		245	60.0	2.5	/experiments/AOT/AOT_stimuli/rescaled_final/1480_fw.mp4	0.0	308.836306810379	2.5083019733428955
62	271.88207602500916	pulse	1	t		60.0	2.5	/experiments/AOT/AOT_stimuli/rescaled_final/1480_fw.mp4	0.0	310.42813897132874	
62	272.79854583740234	fix_post	2		12	60.0	2.5	/experiments/AOT/AOT_stimuli/rescaled_final/1480_fw.mp4	0.0	311.3446087837219	0.10000920295715332
63	272.8985550403595	fix_pre	0		120	61.0	2.5	blank	1.0	311.4446179866791	0.9999949932098389
63	273.482941865921	pulse	0	t		61.0	2.5	blank	1.0	312.0290048122406	
63	273.89855003356934	movie	1		300	61.0	2.5	blank	1.0	312.4446129798889	2.500020980834961
63	275.0829050540924	pulse	1	t		61.0	2.5	blank	1.0	313.628968000412	
63	276.3985710144043	fix_post	2		12	61.0	2.5	blank	1.0	314.9446339607239	0.09996485710144043
64	276.49853587150574	fix_pre	0		120	62.0	2.5	/experiments/AOT/AOT_stimuli/rescaled_final/1775_rv.mp4	0.0	315.0445988178253	1.0000200271606445
64	276.6828339099884	pulse	0	t		62.0	2.5	/experiments/AOT/AOT_stimuli/rescaled_final/1775_rv.mp4	0.0	315.228896856308	
64	277.4985558986664	movie	1		244	62.0	2.5	/experiments/AOT/AOT_stimuli/rescaled_final/1775_rv.mp4	0.0	316.04461884498596	2.5000009536743164
64	278.2829420566559	pulse	1	t		62.0	2.5	/experiments/AOT/AOT_stimuli/rescaled_final/1775_rv.mp4	0.0	316.82900500297546	
64	279.8904459476471	pulse	1	t		62.0	2.5	/experiments/AOT/AOT_stimuli/rescaled_final/1775_rv.mp4	0.0	318.4365088939667	
64	279.9985568523407	fix_post	2		12	62.0	2.5	/experiments/AOT/AOT_stimuli/rescaled_final/1775_rv.mp4	0.0	318.5446197986603	0.09987616539001465
65	280.0984330177307	fix_pre	0		120	63.0	2.5	/experiments/AOT/AOT_stimuli/rescaled_final/0937_rv.mp4	0.0	318.6444959640503	1.000140905380249
65	281.09857392311096	movie	1		243	63.0	2.5	/experiments/AOT/AOT_stimuli/rescaled_final/0937_rv.mp4	0.0	319.64463686943054	2.4999709129333496
65	281.48301792144775	pulse	1	t		63.0	2.5	/experiments/AOT/AOT_stimuli/rescaled_final/0937_rv.mp4	0.0	320.02908086776733	
65	283.0819709300995	pulse	1	t		63.0	2.5	/experiments/AOT/AOT_stimuli/rescaled_final/0937_rv.mp4	0.0	321.62803387641907	
65	283.5985448360443	fix_post	2		12	63.0	2.5	/experiments/AOT/AOT_stimuli/rescaled_final/0937_rv.mp4	0.0	322.1446077823639	0.10002517700195312
66	283.69857001304626	fix_pre	0		119	64.0	2.5	/experiments/AOT/AOT_stimuli/rescaled_final/1056_fw.mp4	0.0	322.24463295936584	0.9915950298309326
66	284.6820569038391	pulse	0	t		64.0	2.5	/experiments/AOT/AOT_stimuli/rescaled_final/1056_fw.mp4	0.0	323.2281198501587	
66	284.6901650428772	movie	1		244	64.0	2.5	/experiments/AOT/AOT_stimuli/rescaled_final/1056_fw.mp4	0.0	323.2362279891968	2.5083367824554443
66	286.2903778553009	pulse	1	t		64.0	2.5	/experiments/AOT/AOT_stimuli/rescaled_final/1056_fw.mp4	0.0	324.8364408016205	
66	287.19850182533264	fix_post	2		12	64.0	2.5	/experiments/AOT/AOT_stimuli/rescaled_final/1056_fw.mp4	0.0	325.7445647716522	0.09998917579650879
67	287.29849100112915	fix_pre	0		120	65.0	2.5	/experiments/AOT/AOT_stimuli/rescaled_final/0937_rv.mp4	0.0	325.84455394744873	0.9999918937683105
67	287.88207483291626	pulse	0	t		65.0	2.5	/experiments/AOT/AOT_stimuli/rescaled_final/0937_rv.mp4	0.0	326.42813777923584	
67	288.29848289489746	movie	1		243	65.0	2.5	/experiments/AOT/AOT_stimuli/rescaled_final/0937_rv.mp4	0.0	326.84454584121704	2.5000100135803223
67	289.4830448627472	pulse	1	t		65.0	2.5	/experiments/AOT/AOT_stimuli/rescaled_final/0937_rv.mp4	0.0	328.0291078090668	
67	290.7984929084778	fix_post	2		12	65.0	2.5	/experiments/AOT/AOT_stimuli/rescaled_final/0937_rv.mp4	0.0	329.34455585479736	0.09993100166320801
68	290.898423910141	fix_pre	0		120	66.0	2.5	/experiments/AOT/AOT_stimuli/rescaled_final/1273_fw.mp4	0.0	329.44448685646057	1.000046968460083
68	291.0827898979187	pulse	0	t		66.0	2.5	/experiments/AOT/AOT_stimuli/rescaled_final/1273_fw.mp4	0.0	329.6288528442383	
68	291.8984708786011	movie	1		247	66.0	2.5	/experiments/AOT/AOT_stimuli/rescaled_final/1273_fw.mp4	0.0	330.44453382492065	2.499652147293091
68	292.6828758716583	pulse	1	t		66.0	2.5	/experiments/AOT/AOT_stimuli/rescaled_final/1273_fw.mp4	0.0	331.2289388179779	
68	294.2869110107422	pulse	1	t		66.0	2.5	/experiments/AOT/AOT_stimuli/rescaled_final/1273_fw.mp4	0.0	332.83297395706177	
68	294.39812302589417	fix_post	2		12	66.0	2.5	/experiments/AOT/AOT_stimuli/rescaled_final/1273_fw.mp4	0.0	332.94418597221375	0.09992790222167969
69	294.49805092811584	fix_pre	0		120	67.0	2.5	/experiments/AOT/AOT_stimuli/rescaled_final/0243_fw.mp4	0.0	333.0441138744354	1.000148057937622
69	295.49819898605347	movie	1		246	67.0	2.5	/experiments/AOT/AOT_stimuli/rescaled_final/0243_fw.mp4	0.0	334.04426193237305	2.499763011932373
69	295.89047503471375	pulse	1	t		67.0	2.5	/experiments/AOT/AOT_stimuli/rescaled_final/0243_fw.mp4	0.0	334.4365379810333	
69	297.4828908443451	pulse	1	t		67.0	2.5	/experiments/AOT/AOT_stimuli/rescaled_final/0243_fw.mp4	0.0	336.0289537906647	
69	297.99796199798584	fix_post	2		12	67.0	2.5	/experiments/AOT/AOT_stimuli/rescaled_final/0243_fw.mp4	0.0	336.5440249443054	0.10051298141479492
70	298.09847497940063	fix_pre	0		120	68.0	2.5	/experiments/AOT/AOT_stimuli/rescaled_final/1681_fw.mp4	0.0	336.6445379257202	0.9999339580535889
70	299.08276987075806	pulse	0	t		68.0	2.5	/experiments/AOT/AOT_stimuli/rescaled_final/1681_fw.mp4	0.0	337.62883281707764	
70	299.0984089374542	movie	1		244	68.0	2.5	/experiments/AOT/AOT_stimuli/rescaled_final/1681_fw.mp4	0.0	337.6444718837738	2.507960081100464
70	300.6898970603943	pulse	1	t		68.0	2.5	/experiments/AOT/AOT_stimuli/rescaled_final/1681_fw.mp4	0.0	339.23596000671387	
70	301.6063690185547	fix_post	2		12	68.0	2.5	/experiments/AOT/AOT_stimuli/rescaled_final/1681_fw.mp4	0.0	340.15243196487427	0.10035896301269531
71	301.7067279815674	fix_pre	0		120	69.0	2.5	blank	1.0	340.25279092788696	0.9999470710754395
71	302.28266882896423	pulse	0	t		69.0	2.5	blank	1.0	340.8287317752838	
71	302.7066750526428	movie	1		300	69.0	2.5	blank	1.0	341.2527379989624	2.5001649856567383
71	303.881826877594	pulse	1	t		69.0	2.5	blank	1.0	342.4278898239136	
71	305.20684003829956	fix_post	2		12	69.0	2.5	blank	1.0	343.75290298461914	0.0999000072479248
72	305.3067400455475	fix_pre	0		120	70.0	2.5	/experiments/AOT/AOT_stimuli/rescaled_final/0006_fw.mp4	0.0	343.85280299186707	0.9999508857727051
72	305.4827489852905	pulse	0	t		70.0	2.5	/experiments/AOT/AOT_stimuli/rescaled_final/0006_fw.mp4	0.0	344.0288119316101	
72	306.3066909313202	movie	1		244	70.0	2.5	/experiments/AOT/AOT_stimuli/rescaled_final/0006_fw.mp4	0.0	344.85275387763977	2.500023126602173
72	307.08269000053406	pulse	1	t		70.0	2.5	/experiments/AOT/AOT_stimuli/rescaled_final/0006_fw.mp4	0.0	345.62875294685364	
72	308.6885139942169	pulse	1	t		70.0	2.5	/experiments/AOT/AOT_stimuli/rescaled_final/0006_fw.mp4	0.0	347.2345769405365	
72	308.80671405792236	fix_post	2		12	70.0	2.5	/experiments/AOT/AOT_stimuli/rescaled_final/0006_fw.mp4	0.0	347.35277700424194	0.09994387626647949
73	308.90665793418884	fix_pre	0		120	71.0	2.5	/experiments/AOT/AOT_stimuli/rescaled_final/1566_fw.mp4	0.0	347.4527208805084	1.000025987625122
73	309.90668392181396	movie	1		246	71.0	2.5	/experiments/AOT/AOT_stimuli/rescaled_final/1566_fw.mp4	0.0	348.45274686813354	2.4999399185180664
73	310.2904460430145	pulse	1	t		71.0	2.5	/experiments/AOT/AOT_stimuli/rescaled_final/1566_fw.mp4	0.0	348.8365089893341	
73	311.8828480243683	pulse	1	t		71.0	2.5	/experiments/AOT/AOT_stimuli/rescaled_final/1566_fw.mp4	0.0	350.42891097068787	
73	312.40662384033203	fix_post	2		12	71.0	2.5	/experiments/AOT/AOT_stimuli/rescaled_final/1566_fw.mp4	0.0	350.9526867866516	0.10004901885986328
74	312.5066728591919	fix_pre	0		119	72.0	2.5	/experiments/AOT/AOT_stimuli/rescaled_final/0690_fw.mp4	0.0	351.0527358055115	0.9916670322418213
74	313.4826669692993	pulse	0	t		72.0	2.5	/experiments/AOT/AOT_stimuli/rescaled_final/0690_fw.mp4	0.0	352.0287299156189	
74	313.4983398914337	movie	1		247	72.0	2.5	/experiments/AOT/AOT_stimuli/rescaled_final/0690_fw.mp4	0.0	352.0444028377533	2.508315086364746
74	315.08964705467224	pulse	1	t		72.0	2.5	/experiments/AOT/AOT_stimuli/rescaled_final/0690_fw.mp4	0.0	353.6357100009918	
74	316.00665497779846	fix_post	2		12	72.0	2.5	/experiments/AOT/AOT_stimuli/rescaled_final/0690_fw.mp4	0.0	354.55271792411804	0.09966206550598145
75	316.10631704330444	fix_pre	0		120	73.0	2.5	/experiments/AOT/AOT_stimuli/rescaled_final/1244_fw.mp4	0.0	354.652379989624	1.000398874282837
75	316.68267488479614	pulse	0	t		73.0	2.5	/experiments/AOT/AOT_stimuli/rescaled_final/1244_fw.mp4	0.0	355.2287378311157	
75	317.1067159175873	movie	1		246	73.0	2.5	/experiments/AOT/AOT_stimuli/rescaled_final/1244_fw.mp4	0.0	355.65277886390686	2.4999849796295166
75	318.2833068370819	pulse	1	t		73.0	2.5	/experiments/AOT/AOT_stimuli/rescaled_final/1244_fw.mp4	0.0	356.8293697834015	
75	319.6067008972168	fix_post	2		12	73.0	2.5	/experiments/AOT/AOT_stimuli/rescaled_final/1244_fw.mp4	0.0	358.1527638435364	0.09996700286865234
76	319.70666790008545	fix_pre	0		120	74.0	2.5	/experiments/AOT/AOT_stimuli/rescaled_final/1423_rv.mp4	0.0	358.25273084640503	0.9997069835662842
76	319.8818619251251	pulse	0	t		74.0	2.5	/experiments/AOT/AOT_stimuli/rescaled_final/1423_rv.mp4	0.0	358.4279248714447	
76	320.70637488365173	movie	1		243	74.0	2.5	/experiments/AOT/AOT_stimuli/rescaled_final/1423_rv.mp4	0.0	359.2524378299713	2.500257968902588
76	321.4826910495758	pulse	1	t		74.0	2.5	/experiments/AOT/AOT_stimuli/rescaled_final/1423_rv.mp4	0.0	360.0287539958954	
76	323.08833384513855	pulse	1	t		74.0	2.5	/experiments/AOT/AOT_stimuli/rescaled_final/1423_rv.mp4	0.0	361.63439679145813	
76	323.2066328525543	fix_post	2		12	74.0	2.5	/experiments/AOT/AOT_stimuli/rescaled_final/1423_rv.mp4	0.0	361.7526957988739	0.10008597373962402
77	323.30671882629395	fix_pre	0		120	75.0	2.5	/experiments/AOT/AOT_stimuli/rescaled_final/1596_fw.mp4	0.0	361.8527817726135	0.9995100498199463
77	324.3062288761139	movie	1		244	75.0	2.5	/experiments/AOT/AOT_stimuli/rescaled_final/1596_fw.mp4	0.0	362.8522918224335	2.500035047531128
77	324.6903419494629	pulse	1	t		75.0	2.5	/experiments/AOT/AOT_stimuli/rescaled_final/1596_fw.mp4	0.0	363.23640489578247	
77	326.2827949523926	pulse	1	t		75.0	2.5	/experiments/AOT/AOT_stimuli/rescaled_final/1596_fw.mp4	0.0	364.82885789871216	
77	326.806263923645	fix_post	2		12	75.0	2.5	/experiments/AOT/AOT_stimuli/rescaled_final/1596_fw.mp4	0.0	365.3523268699646	0.10031294822692871
78	326.90657687187195	fix_pre	0		119	76.0	2.5	blank	1.0	365.4526398181915	0.9917051792144775
78	327.88262391090393	pulse	0	t		76.0	2.5	blank	1.0	366.4286868572235	
78	327.8982820510864	movie	1		301	76.0	2.5	blank	1.0	366.444344997406	2.508302927017212
78	329.48251390457153	pulse	1	t		76.0	2.5	blank	1.0	368.0285768508911	
78	330.40658497810364	fix_post	2		12	76.0	2.5	blank	1.0	368.9526479244232	0.09997296333312988
79	330.50655794143677	fix_pre	0		120	77.0	2.5	/experiments/AOT/AOT_stimuli/rescaled_final/1899_rv.mp4	0.0	369.05262088775635	1.0000360012054443
79	331.0826690196991	pulse	0	t		77.0	2.5	/experiments/AOT/AOT_stimuli/rescaled_final/1899_rv.mp4	0.0	369.6287319660187	
79	331.5065939426422	movie	1		245	77.0	2.5	/experiments/AOT/AOT_stimuli/rescaled_final/1899_rv.mp4	0.0	370.0526568889618	2.499953031539917
79	332.69016098976135	pulse	1	t		77.0	2.5	/experiments/AOT/AOT_stimuli/rescaled_final/1899_rv.mp4	0.0	371.23622393608093	
79	334.00654697418213	fix_post	2		12	77.0	2.5	/experiments/AOT/AOT_stimuli/rescaled_final/1899_rv.mp4	0.0	372.5526099205017	0.10005998611450195
80	334.10660696029663	fix_pre	0		120	78.0	2.5	/experiments/AOT/AOT_stimuli/rescaled_final/2035_fw.mp4	0.0	372.6526699066162	0.9999818801879883
80	334.28253984451294	pulse	0	t		78.0	2.5	/experiments/AOT/AOT_stimuli/rescaled_final/2035_fw.mp4	0.0	372.8286027908325	
80	335.1065888404846	movie	1		246	78.0	2.5	/experiments/AOT/AOT_stimuli/rescaled_final/2035_fw.mp4	0.0	373.6526517868042	2.4999701976776123
80	335.88266491889954	pulse	1	t		78.0	2.5	/experiments/AOT/AOT_stimuli/rescaled_final/2035_fw.mp4	0.0	374.4287278652191	
80	337.48855996131897	pulse	1	t		78.0	2.5	/experiments/AOT/AOT_stimuli/rescaled_final/2035_fw.mp4	0.0	376.03462290763855	
80	337.60655903816223	fix_post	2		12	78.0	2.5	/experiments/AOT/AOT_stimuli/rescaled_final/2035_fw.mp4	0.0	376.1526219844818	0.10001587867736816
81	337.7065749168396	fix_pre	0		120	79.0	2.5	/experiments/AOT/AOT_stimuli/rescaled_final/1102_fw.mp4	0.0	376.2526378631592	1.0000810623168945
81	338.7066559791565	movie	1		244	79.0	2.5	/experiments/AOT/AOT_stimuli/rescaled_final/1102_fw.mp4	0.0	377.2527189254761	2.4994049072265625
81	339.0896680355072	pulse	1	t		79.0	2.5	/experiments/AOT/AOT_stimuli/rescaled_final/1102_fw.mp4	0.0	377.6357309818268	
81	340.68270802497864	pulse	1	t		79.0	2.5	/experiments/AOT/AOT_stimuli/rescaled_final/1102_fw.mp4	0.0	379.2287709712982	
81	341.20606088638306	fix_post	2		12	79.0	2.5	/experiments/AOT/AOT_stimuli/rescaled_final/1102_fw.mp4	0.0	379.75212383270264	0.1004951000213623
82	341.3065559864044	fix_pre	0		119	80.0	2.5	/experiments/AOT/AOT_stimuli/rescaled_final/0584_fw.mp4	0.0	379.852618932724	0.9916820526123047
82	342.2824809551239	pulse	0	t		80.0	2.5	/experiments/AOT/AOT_stimuli/rescaled_final/0584_fw.mp4	0.0	380.8285439014435	
82	342.2982380390167	movie	1		247	80.0	2.5	/experiments/AOT/AOT_stimuli/rescaled_final/0584_fw.mp4	0.0	380.8443009853363	2.5082998275756836
82	343.88942694664	pulse	1	t		80.0	2.5	/experiments/AOT/AOT_stimuli/rescaled_final/0584_fw.mp4	0.0	382.4354898929596	
82	344.8065378665924	fix_post	2		12	80.0	2.5	/experiments/AOT/AOT_stimuli/rescaled_final/0584_fw.mp4	0.0	383.352600812912	0.09989500045776367
83	344.90643286705017	fix_pre	0		120	81.0	2.5	/experiments/AOT/AOT_stimuli/rescaled_final/2019_fw.mp4	0.0	383.45249581336975	1.0000901222229004
83	345.4825258255005	pulse	0	t		81.0	2.5	/experiments/AOT/AOT_stimuli/rescaled_final/2019_fw.mp4	0.0	384.02858877182007	
83	345.90652298927307	movie	1		246	81.0	2.5	/experiments/AOT/AOT_stimuli/rescaled_final/2019_fw.mp4	0.0	384.45258593559265	2.4995288848876953
83	347.0829019546509	pulse	1	t		81.0	2.5	/experiments/AOT/AOT_stimuli/rescaled_final/2019_fw.mp4	0.0	385.62896490097046	
83	348.40605187416077	fix_post	2		12	81.0	2.5	/experiments/AOT/AOT_stimuli/rescaled_final/2019_fw.mp4	0.0	386.95211482048035	0.10046696662902832
84	348.5065188407898	fix_pre	0		120	82.0	2.5	/experiments/AOT/AOT_stimuli/rescaled_final/0254_rv.mp4	0.0	387.0525817871094	0.9995920658111572
84	348.6825199127197	pulse	0	t		82.0	2.5	/experiments/AOT/AOT_stimuli/rescaled_final/0254_rv.mp4	0.0	387.2285828590393	
84	349.50611090660095	movie	1		244	82.0	2.5	/experiments/AOT/AOT_stimuli/rescaled_final/0254_rv.mp4	0.0	388.05217385292053	2.5006470680236816
84	350.2820739746094	pulse	1	t		82.0	2.5	/experiments/AOT/AOT_stimuli/rescaled_final/0254_rv.mp4	0.0	388.82813692092896	
84	351.88183999061584	pulse	1	t		82.0	2.5	/experiments/AOT/AOT_stimuli/rescaled_final/0254_rv.mp4	0.0	390.4279029369354	
84	352.00675797462463	fix_post	2		12	82.0	2.5	/experiments/AOT/AOT_stimuli/rescaled_final/0254_rv.mp4	0.0	390.5528209209442	0.09995889663696289
85	352.1067168712616	fix_pre	0		120	83.0	2.5	blank	1.0	390.6527798175812	0.9998180866241455
85	353.10653495788574	movie	1		300	83.0	2.5	blank	1.0	391.6525979042053	2.499953031539917
85	353.49008989334106	pulse	1	t		83.0	2.5	blank	1.0	392.03615283966064	
85	355.08247900009155	pulse	1	t		83.0	2.5	blank	1.0	393.62854194641113	
85	355.60648798942566	fix_post	2		12	83.0	2.5	blank	1.0	394.15255093574524	0.1000819206237793
87	355.70656991004944	stim	0		1716					394.252632856369	14.299890995025635
87	356.6826229095459	pulse	0	t						395.2286858558655	
87	358.282527923584	pulse	0	t						396.82859086990356	
87	359.8825960159302	pulse	0	t						398.42865896224976	
87	361.48261284828186	pulse	0	t						400.02867579460144	
87	363.0825288295746	pulse	0	t						401.62859177589417	
87	364.68247985839844	pulse	0	t						403.228542804718	
87	366.28255891799927	pulse	0	t						404.82862186431885	
87	367.8816020488739	pulse	0	t						406.4276649951935	
87	369.48985505104065	pulse	0	t						408.03591799736023	
