trial_nr	onset	event_type	phase	response	nr_frames	movie_index	movie_duration	movie_file	blank	onset_abs	duration
0	0.20828700065612793	stim	0		35					24.06072688102722	0.2915780544281006
0	0.4918389320373535	response	0	space						24.344278812408447	
1	0.4998650550842285	stim	0		4667					24.352304935455322	38.908364057540894
1	39.39860200881958	pulse	0	t						63.251041889190674	
1	39.40822911262512	stim	1		1715					63.260668992996216	14.299580812454224
1	40.98951601982117	pulse	1	t						64.84195590019226	
1	42.5897741317749	pulse	1	t						66.442214012146	
1	44.18987798690796	pulse	1	t						68.04231786727905	
1	45.782707929611206	pulse	1	t						69.6351478099823	
1	47.38280200958252	pulse	1	t						71.23524188995361	
1	48.983004093170166	pulse	1	t						72.83544397354126	
1	50.5832941532135	pulse	1	t						74.4357340335846	
1	52.183512926101685	pulse	1	t						76.03595280647278	
2	53.707809925079346	fix_pre	0		10	0.0	2.5	/experiments/knapen_AOT/AOT_stimuli/rescaled_final/1053_fw.mp4	0.0	77.56024980545044	0.08330321311950684
2	53.7831289768219	pulse	0	t		0.0	2.5	/experiments/knapen_AOT/AOT_stimuli/rescaled_final/1053_fw.mp4	0.0	77.635568857193	
2	53.79111313819885	movie	1		244	0.0	2.5	/experiments/knapen_AOT/AOT_stimuli/rescaled_final/1053_fw.mp4	0.0	77.64355301856995	2.5087718963623047
2	55.3873929977417	pulse	1	t		0.0	2.5	/experiments/knapen_AOT/AOT_stimuli/rescaled_final/1053_fw.mp4	0.0	79.2398328781128	
2	56.29988503456116	fix_post	2		12	0.0	2.5	/experiments/knapen_AOT/AOT_stimuli/rescaled_final/1053_fw.mp4	0.0	80.15232491493225	0.0999898910522461
3	56.3998749256134	fix_pre	0		120	1.0	2.5	/experiments/knapen_AOT/AOT_stimuli/rescaled_final/1796_fw.mp4	0.0	80.2523148059845	1.000157117843628
3	56.98355007171631	pulse	0	t		1.0	2.5	/experiments/knapen_AOT/AOT_stimuli/rescaled_final/1796_fw.mp4	0.0	80.8359899520874	
3	57.40003204345703	movie	1		245	1.0	2.5	/experiments/knapen_AOT/AOT_stimuli/rescaled_final/1796_fw.mp4	0.0	81.25247192382812	2.5003631114959717
3	58.58386492729187	pulse	1	t		1.0	2.5	/experiments/knapen_AOT/AOT_stimuli/rescaled_final/1796_fw.mp4	0.0	82.43630480766296	
3	59.900395154953	fix_post	2		12	1.0	2.5	/experiments/knapen_AOT/AOT_stimuli/rescaled_final/1796_fw.mp4	0.0	83.7528350353241	0.10000777244567871
4	60.00040292739868	fix_pre	0		120	2.0	2.5	/experiments/knapen_AOT/AOT_stimuli/rescaled_final/0105_fw.mp4	0.0	83.85284280776978	1.0001730918884277
4	60.1839439868927	pulse	0	t		2.0	2.5	/experiments/knapen_AOT/AOT_stimuli/rescaled_final/0105_fw.mp4	0.0	84.0363838672638	
4	61.00057601928711	movie	1		245	2.0	2.5	/experiments/knapen_AOT/AOT_stimuli/rescaled_final/0105_fw.mp4	0.0	84.8530158996582	2.5003349781036377
4	61.78426504135132	pulse	1	t		2.0	2.5	/experiments/knapen_AOT/AOT_stimuli/rescaled_final/0105_fw.mp4	0.0	85.63670492172241	
4	63.38444113731384	pulse	1	t		2.0	2.5	/experiments/knapen_AOT/AOT_stimuli/rescaled_final/0105_fw.mp4	0.0	87.23688101768494	
4	63.50091099739075	fix_post	2		12	2.0	2.5	/experiments/knapen_AOT/AOT_stimuli/rescaled_final/0105_fw.mp4	0.0	87.35335087776184	0.10007095336914062
5	63.60098195075989	fix_pre	0		120	3.0	2.5	/experiments/knapen_AOT/AOT_stimuli/rescaled_final/0797_rv.mp4	0.0	87.45342183113098	1.0000979900360107
5	64.6010799407959	movie	1		243	3.0	2.5	/experiments/knapen_AOT/AOT_stimuli/rescaled_final/0797_rv.mp4	0.0	88.45351982116699	2.492108106613159
5	64.98524808883667	pulse	1	t		3.0	2.5	/experiments/knapen_AOT/AOT_stimuli/rescaled_final/0797_rv.mp4	0.0	88.83768796920776	
5	66.58498501777649	pulse	1	t		3.0	2.5	/experiments/knapen_AOT/AOT_stimuli/rescaled_final/0797_rv.mp4	0.0	90.43742489814758	
5	67.09318804740906	fix_post	2		12	3.0	2.5	/experiments/knapen_AOT/AOT_stimuli/rescaled_final/0797_rv.mp4	0.0	90.94562792778015	0.09997105598449707
6	67.19315910339355	fix_pre	0		120	4.0	2.5	/experiments/knapen_AOT/AOT_stimuli/rescaled_final/0681_rv.mp4	0.0	91.04559898376465	1.0002028942108154
6	68.18522906303406	pulse	0	t		4.0	2.5	/experiments/knapen_AOT/AOT_stimuli/rescaled_final/0681_rv.mp4	0.0	92.03766894340515	
6	68.19336199760437	movie	1		244	4.0	2.5	/experiments/knapen_AOT/AOT_stimuli/rescaled_final/0681_rv.mp4	0.0	92.04580187797546	2.508641004562378
6	69.78569507598877	pulse	1	t		4.0	2.5	/experiments/knapen_AOT/AOT_stimuli/rescaled_final/0681_rv.mp4	0.0	93.63813495635986	
6	70.70200300216675	fix_post	2		12	4.0	2.5	/experiments/knapen_AOT/AOT_stimuli/rescaled_final/0681_rv.mp4	0.0	94.55444288253784	0.1000680923461914
7	70.80207109451294	fix_pre	0		120	5.0	2.5	blank	1.0	94.65451097488403	1.0001230239868164
7	71.3855950832367	pulse	0	t		5.0	2.5	blank	1.0	95.23803496360779	
7	71.80219411849976	movie	1		300	5.0	2.5	blank	1.0	95.65463399887085	2.5003769397735596
7	72.98594808578491	pulse	1	t		5.0	2.5	blank	1.0	96.838387966156	
7	74.30257105827332	fix_post	2		12	5.0	2.5	blank	1.0	98.15501093864441	0.1000058650970459
8	74.40257692337036	fix_pre	0		120	6.0	2.5	/experiments/knapen_AOT/AOT_stimuli/rescaled_final/0221_fw.mp4	0.0	98.25501680374146	1.0001780986785889
8	74.58609700202942	pulse	0	t		6.0	2.5	/experiments/knapen_AOT/AOT_stimuli/rescaled_final/0221_fw.mp4	0.0	98.43853688240051	
8	75.40275502204895	movie	1		239	6.0	2.5	/experiments/knapen_AOT/AOT_stimuli/rescaled_final/0221_fw.mp4	0.0	99.25519490242004	2.500343084335327
8	76.1864640712738	pulse	1	t		6.0	2.5	/experiments/knapen_AOT/AOT_stimuli/rescaled_final/0221_fw.mp4	0.0	100.0389039516449	
8	77.78682804107666	pulse	1	t		6.0	2.5	/experiments/knapen_AOT/AOT_stimuli/rescaled_final/0221_fw.mp4	0.0	101.63926792144775	
8	77.90309810638428	fix_post	2		12	6.0	2.5	/experiments/knapen_AOT/AOT_stimuli/rescaled_final/0221_fw.mp4	0.0	101.75553798675537	0.0999908447265625
9	78.00308895111084	fix_pre	0		120	7.0	2.5	/experiments/knapen_AOT/AOT_stimuli/rescaled_final/1002_rv.mp4	0.0	101.85552883148193	1.000176191329956
9	79.0032651424408	movie	1		244	7.0	2.5	/experiments/knapen_AOT/AOT_stimuli/rescaled_final/1002_rv.mp4	0.0	102.85570502281189	2.492013931274414
9	79.38739800453186	pulse	1	t		7.0	2.5	/experiments/knapen_AOT/AOT_stimuli/rescaled_final/1002_rv.mp4	0.0	103.23983788490295	
9	80.98709392547607	pulse	1	t		7.0	2.5	/experiments/knapen_AOT/AOT_stimuli/rescaled_final/1002_rv.mp4	0.0	104.83953380584717	
9	81.49527907371521	fix_post	2		12	7.0	2.5	/experiments/knapen_AOT/AOT_stimuli/rescaled_final/1002_rv.mp4	0.0	105.3477189540863	0.10002589225769043
10	81.5953049659729	fix_pre	0		120	8.0	2.5	/experiments/knapen_AOT/AOT_stimuli/rescaled_final/0308_rv.mp4	0.0	105.447744846344	1.0001611709594727
10	82.58745813369751	pulse	0	t		8.0	2.5	/experiments/knapen_AOT/AOT_stimuli/rescaled_final/0308_rv.mp4	0.0	106.4398980140686	
10	82.59546613693237	movie	1		245	8.0	2.5	/experiments/knapen_AOT/AOT_stimuli/rescaled_final/0308_rv.mp4	0.0	106.44790601730347	2.5087039470672607
10	84.18841600418091	pulse	1	t		8.0	2.5	/experiments/knapen_AOT/AOT_stimuli/rescaled_final/0308_rv.mp4	0.0	108.040855884552	
10	85.10417008399963	fix_post	2		12	8.0	2.5	/experiments/knapen_AOT/AOT_stimuli/rescaled_final/0308_rv.mp4	0.0	108.95660996437073	0.09999489784240723
11	85.20416498184204	fix_pre	0		120	9.0	2.5	/experiments/knapen_AOT/AOT_stimuli/rescaled_final/1674_rv.mp4	0.0	109.05660486221313	1.0001649856567383
11	85.78777313232422	pulse	0	t		9.0	2.5	/experiments/knapen_AOT/AOT_stimuli/rescaled_final/1674_rv.mp4	0.0	109.64021301269531	
11	86.20432996749878	movie	1		243	9.0	2.5	/experiments/knapen_AOT/AOT_stimuli/rescaled_final/1674_rv.mp4	0.0	110.05676984786987	2.5004031658172607
11	87.3846960067749	pulse	1	t		9.0	2.5	/experiments/knapen_AOT/AOT_stimuli/rescaled_final/1674_rv.mp4	0.0	111.237135887146	
11	88.70473313331604	fix_post	2		12	9.0	2.5	/experiments/knapen_AOT/AOT_stimuli/rescaled_final/1674_rv.mp4	0.0	112.55717301368713	0.10002589225769043
12	88.80475902557373	fix_pre	0		120	10.0	2.5	/experiments/knapen_AOT/AOT_stimuli/rescaled_final/1502_rv.mp4	0.0	112.65719890594482	1.000133991241455
12	88.9882640838623	pulse	0	t		10.0	2.5	/experiments/knapen_AOT/AOT_stimuli/rescaled_final/1502_rv.mp4	0.0	112.8407039642334	
12	89.80489301681519	movie	1		245	10.0	2.5	/experiments/knapen_AOT/AOT_stimuli/rescaled_final/1502_rv.mp4	0.0	113.65733289718628	2.500333070755005
12	90.58867192268372	pulse	1	t		10.0	2.5	/experiments/knapen_AOT/AOT_stimuli/rescaled_final/1502_rv.mp4	0.0	114.44111180305481	
12	92.18877601623535	pulse	1	t		10.0	2.5	/experiments/knapen_AOT/AOT_stimuli/rescaled_final/1502_rv.mp4	0.0	116.04121589660645	
12	92.30522608757019	fix_post	2		12	10.0	2.5	/experiments/knapen_AOT/AOT_stimuli/rescaled_final/1502_rv.mp4	0.0	116.15766596794128	0.10002899169921875
13	92.40525507926941	fix_pre	0		120	11.0	2.5	/experiments/knapen_AOT/AOT_stimuli/rescaled_final/0806_fw.mp4	0.0	116.2576949596405	1.000143051147461
13	93.40539813041687	movie	1		242	11.0	2.5	/experiments/knapen_AOT/AOT_stimuli/rescaled_final/0806_fw.mp4	0.0	117.25783801078796	2.4920549392700195
13	93.79326510429382	pulse	1	t		11.0	2.5	/experiments/knapen_AOT/AOT_stimuli/rescaled_final/0806_fw.mp4	0.0	117.64570498466492	
13	95.38929796218872	pulse	1	t		11.0	2.5	/experiments/knapen_AOT/AOT_stimuli/rescaled_final/0806_fw.mp4	0.0	119.24173784255981	
13	95.89745306968689	fix_post	2		12	11.0	2.5	/experiments/knapen_AOT/AOT_stimuli/rescaled_final/0806_fw.mp4	0.0	119.74989295005798	0.09999895095825195
14	95.99745202064514	fix_pre	0		120	12.0	2.5	/experiments/knapen_AOT/AOT_stimuli/rescaled_final/0005_fw.mp4	0.0	119.84989190101624	1.0001590251922607
14	96.9895350933075	pulse	0	t		12.0	2.5	/experiments/knapen_AOT/AOT_stimuli/rescaled_final/0005_fw.mp4	0.0	120.84197497367859	
14	96.9976110458374	movie	1		244	12.0	2.5	/experiments/knapen_AOT/AOT_stimuli/rescaled_final/0005_fw.mp4	0.0	120.8500509262085	2.5087928771972656
14	98.59027409553528	pulse	1	t		12.0	2.5	/experiments/knapen_AOT/AOT_stimuli/rescaled_final/0005_fw.mp4	0.0	122.44271397590637	
14	99.50640392303467	fix_post	2		12	12.0	2.5	/experiments/knapen_AOT/AOT_stimuli/rescaled_final/0005_fw.mp4	0.0	123.35884380340576	0.099945068359375
15	99.60634899139404	fix_pre	0		120	13.0	2.5	/experiments/knapen_AOT/AOT_stimuli/rescaled_final/1963_fw.mp4	0.0	123.45878887176514	1.000110149383545
15	100.18262004852295	pulse	0	t		13.0	2.5	/experiments/knapen_AOT/AOT_stimuli/rescaled_final/1963_fw.mp4	0.0	124.03505992889404	
15	100.60645914077759	movie	1		244	13.0	2.5	/experiments/knapen_AOT/AOT_stimuli/rescaled_final/1963_fw.mp4	0.0	124.45889902114868	2.5003838539123535
15	101.78269696235657	pulse	1	t		13.0	2.5	/experiments/knapen_AOT/AOT_stimuli/rescaled_final/1963_fw.mp4	0.0	125.63513684272766	
15	103.10684299468994	fix_post	2		12	13.0	2.5	/experiments/knapen_AOT/AOT_stimuli/rescaled_final/1963_fw.mp4	0.0	126.95928287506104	0.10001397132873535
16	103.20685696601868	fix_pre	0		120	14.0	2.5	blank	1.0	127.05929684638977	1.000157117843628
16	103.38288497924805	pulse	0	t		14.0	2.5	blank	1.0	127.23532485961914	
16	104.2070140838623	movie	1		300	14.0	2.5	blank	1.0	128.0594539642334	2.5004019737243652
16	104.98315906524658	pulse	1	t		14.0	2.5	blank	1.0	128.83559894561768	
16	106.58259892463684	pulse	1	t		14.0	2.5	blank	1.0	130.43503880500793	
16	106.70741605758667	fix_post	2		12	14.0	2.5	blank	1.0	130.55985593795776	0.09998893737792969
17	106.8074049949646	fix_pre	0		120	15.0	2.5	/experiments/knapen_AOT/AOT_stimuli/rescaled_final/0620_fw.mp4	0.0	130.6598448753357	1.0001449584960938
17	107.8075499534607	movie	1		242	15.0	2.5	/experiments/knapen_AOT/AOT_stimuli/rescaled_final/0620_fw.mp4	0.0	131.6599898338318	2.492047071456909
17	108.18274092674255	pulse	1	t		15.0	2.5	/experiments/knapen_AOT/AOT_stimuli/rescaled_final/0620_fw.mp4	0.0	132.03518080711365	
17	109.78304100036621	pulse	1	t		15.0	2.5	/experiments/knapen_AOT/AOT_stimuli/rescaled_final/0620_fw.mp4	0.0	133.6354808807373	
17	110.2995970249176	fix_post	2		12	15.0	2.5	/experiments/knapen_AOT/AOT_stimuli/rescaled_final/0620_fw.mp4	0.0	134.1520369052887	0.10000801086425781
18	110.39960503578186	fix_pre	0		119	16.0	2.5	/experiments/knapen_AOT/AOT_stimuli/rescaled_final/1670_fw.mp4	0.0	134.25204491615295	0.9918229579925537
18	111.3833270072937	pulse	0	t		16.0	2.5	/experiments/knapen_AOT/AOT_stimuli/rescaled_final/1670_fw.mp4	0.0	135.2357668876648	
18	111.39142799377441	movie	1		246	16.0	2.5	/experiments/knapen_AOT/AOT_stimuli/rescaled_final/1670_fw.mp4	0.0	135.2438678741455	2.5087239742279053
18	112.98414206504822	pulse	1	t		16.0	2.5	/experiments/knapen_AOT/AOT_stimuli/rescaled_final/1670_fw.mp4	0.0	136.8365819454193	
18	113.90015196800232	fix_post	2		12	16.0	2.5	/experiments/knapen_AOT/AOT_stimuli/rescaled_final/1670_fw.mp4	0.0	137.7525918483734	0.10001206398010254
19	114.00016403198242	fix_pre	0		120	17.0	2.5	/experiments/knapen_AOT/AOT_stimuli/rescaled_final/0841_fw.mp4	0.0	137.85260391235352	1.000148057937622
19	114.58380198478699	pulse	0	t		17.0	2.5	/experiments/knapen_AOT/AOT_stimuli/rescaled_final/0841_fw.mp4	0.0	138.43624186515808	
19	115.00031208992004	movie	1		247	17.0	2.5	/experiments/knapen_AOT/AOT_stimuli/rescaled_final/0841_fw.mp4	0.0	138.85275197029114	2.50034499168396
19	116.18403601646423	pulse	1	t		17.0	2.5	/experiments/knapen_AOT/AOT_stimuli/rescaled_final/0841_fw.mp4	0.0	140.03647589683533	
19	117.500657081604	fix_post	2		12	17.0	2.5	/experiments/knapen_AOT/AOT_stimuli/rescaled_final/0841_fw.mp4	0.0	141.3530969619751	0.10003304481506348
20	117.60069012641907	fix_pre	0		120	18.0	2.5	/experiments/knapen_AOT/AOT_stimuli/rescaled_final/0378_rv.mp4	0.0	141.45313000679016	1.0001428127288818
20	117.78421998023987	pulse	0	t		18.0	2.5	/experiments/knapen_AOT/AOT_stimuli/rescaled_final/0378_rv.mp4	0.0	141.63665986061096	
20	118.60083293914795	movie	1		245	18.0	2.5	/experiments/knapen_AOT/AOT_stimuli/rescaled_final/0378_rv.mp4	0.0	142.45327281951904	2.500385046005249
20	119.38459396362305	pulse	1	t		18.0	2.5	/experiments/knapen_AOT/AOT_stimuli/rescaled_final/0378_rv.mp4	0.0	143.23703384399414	
20	120.98476195335388	pulse	1	t		18.0	2.5	/experiments/knapen_AOT/AOT_stimuli/rescaled_final/0378_rv.mp4	0.0	144.83720183372498	
20	121.1012179851532	fix_post	2		12	18.0	2.5	/experiments/knapen_AOT/AOT_stimuli/rescaled_final/0378_rv.mp4	0.0	144.9536578655243	0.10002899169921875
21	121.20124697685242	fix_pre	0		120	19.0	2.5	blank	1.0	145.0536868572235	1.0001161098480225
21	122.20136308670044	movie	1		299	19.0	2.5	blank	1.0	146.05380296707153	2.4920530319213867
21	122.5849289894104	pulse	1	t		19.0	2.5	blank	1.0	146.4373688697815	
21	124.18515205383301	pulse	1	t		19.0	2.5	blank	1.0	148.0375919342041	
21	124.69341611862183	fix_post	2		12	19.0	2.5	blank	1.0	148.54585599899292	0.10001993179321289
22	124.79343605041504	fix_pre	0		120	20.0	2.5	/experiments/knapen_AOT/AOT_stimuli/rescaled_final/0802_fw.mp4	0.0	148.64587593078613	1.0001680850982666
22	125.78554797172546	pulse	0	t		20.0	2.5	/experiments/knapen_AOT/AOT_stimuli/rescaled_final/0802_fw.mp4	0.0	149.63798785209656	
22	125.7936041355133	movie	1		245	20.0	2.5	/experiments/knapen_AOT/AOT_stimuli/rescaled_final/0802_fw.mp4	0.0	149.6460440158844	2.5086448192596436
22	127.38610196113586	pulse	1	t		20.0	2.5	/experiments/knapen_AOT/AOT_stimuli/rescaled_final/0802_fw.mp4	0.0	151.23854184150696	
22	128.30224895477295	fix_post	2		12	20.0	2.5	/experiments/knapen_AOT/AOT_stimuli/rescaled_final/0802_fw.mp4	0.0	152.15468883514404	0.1000521183013916
23	128.40230107307434	fix_pre	0		120	21.0	2.5	/experiments/knapen_AOT/AOT_stimuli/rescaled_final/1946_rv.mp4	0.0	152.25474095344543	1.0002188682556152
23	128.98599696159363	pulse	0	t		21.0	2.5	/experiments/knapen_AOT/AOT_stimuli/rescaled_final/1946_rv.mp4	0.0	152.83843684196472	
23	129.40251994132996	movie	1		246	21.0	2.5	/experiments/knapen_AOT/AOT_stimuli/rescaled_final/1946_rv.mp4	0.0	153.25495982170105	2.50032901763916
23	130.5862159729004	pulse	1	t		21.0	2.5	/experiments/knapen_AOT/AOT_stimuli/rescaled_final/1946_rv.mp4	0.0	154.43865585327148	
23	131.90284895896912	fix_post	2		12	21.0	2.5	/experiments/knapen_AOT/AOT_stimuli/rescaled_final/1946_rv.mp4	0.0	155.7552888393402	0.09999704360961914
24	132.00284600257874	fix_pre	0		120	22.0	2.5	/experiments/knapen_AOT/AOT_stimuli/rescaled_final/1257_fw.mp4	0.0	155.85528588294983	1.0001311302185059
24	132.18649005889893	pulse	0	t		22.0	2.5	/experiments/knapen_AOT/AOT_stimuli/rescaled_final/1257_fw.mp4	0.0	156.03892993927002	
24	133.00297713279724	movie	1		246	22.0	2.5	/experiments/knapen_AOT/AOT_stimuli/rescaled_final/1257_fw.mp4	0.0	156.85541701316833	2.500415802001953
24	133.78671407699585	pulse	1	t		22.0	2.5	/experiments/knapen_AOT/AOT_stimuli/rescaled_final/1257_fw.mp4	0.0	157.63915395736694	
24	135.3869240283966	pulse	1	t		22.0	2.5	/experiments/knapen_AOT/AOT_stimuli/rescaled_final/1257_fw.mp4	0.0	159.2393639087677	
24	135.5033929347992	fix_post	2		12	22.0	2.5	/experiments/knapen_AOT/AOT_stimuli/rescaled_final/1257_fw.mp4	0.0	159.3558328151703	0.100006103515625
25	135.60339903831482	fix_pre	0		118	23.0	2.5	/experiments/knapen_AOT/AOT_stimuli/rescaled_final/1678_rv.mp4	0.0	159.4558389186859	1.0001420974731445
25	136.60354113578796	movie	1		243	23.0	2.5	/experiments/knapen_AOT/AOT_stimuli/rescaled_final/1678_rv.mp4	0.0	160.45598101615906	2.492043972015381
25	136.9876639842987	pulse	1	t		23.0	2.5	/experiments/knapen_AOT/AOT_stimuli/rescaled_final/1678_rv.mp4	0.0	160.8401038646698	
25	138.58733105659485	pulse	1	t		23.0	2.5	/experiments/knapen_AOT/AOT_stimuli/rescaled_final/1678_rv.mp4	0.0	162.43977093696594	
25	139.09558510780334	fix_post	2		12	23.0	2.5	/experiments/knapen_AOT/AOT_stimuli/rescaled_final/1678_rv.mp4	0.0	162.94802498817444	0.10003495216369629
26	139.19562005996704	fix_pre	0		120	24.0	2.5	/experiments/knapen_AOT/AOT_stimuli/rescaled_final/0390_rv.mp4	0.0	163.04805994033813	1.0001089572906494
26	140.18767404556274	pulse	0	t		24.0	2.5	/experiments/knapen_AOT/AOT_stimuli/rescaled_final/0390_rv.mp4	0.0	164.04011392593384	
26	140.1957290172577	movie	1		245	24.0	2.5	/experiments/knapen_AOT/AOT_stimuli/rescaled_final/0390_rv.mp4	0.0	164.04816889762878	2.508759021759033
26	141.7891309261322	pulse	1	t		24.0	2.5	/experiments/knapen_AOT/AOT_stimuli/rescaled_final/0390_rv.mp4	0.0	165.6415708065033	
26	142.70448803901672	fix_post	2		12	24.0	2.5	/experiments/knapen_AOT/AOT_stimuli/rescaled_final/0390_rv.mp4	0.0	166.55692791938782	0.09997200965881348
27	142.80446004867554	fix_pre	0		120	25.0	2.5	/experiments/knapen_AOT/AOT_stimuli/rescaled_final/1626_rv.mp4	0.0	166.65689992904663	1.0001370906829834
27	143.38809394836426	pulse	0	t		25.0	2.5	/experiments/knapen_AOT/AOT_stimuli/rescaled_final/1626_rv.mp4	0.0	167.24053382873535	
27	143.80459713935852	movie	1		244	25.0	2.5	/experiments/knapen_AOT/AOT_stimuli/rescaled_final/1626_rv.mp4	0.0	167.65703701972961	2.5004098415374756
27	144.9844229221344	pulse	1	t		25.0	2.5	/experiments/knapen_AOT/AOT_stimuli/rescaled_final/1626_rv.mp4	0.0	168.8368628025055	
27	146.305006980896	fix_post	2		12	25.0	2.5	/experiments/knapen_AOT/AOT_stimuli/rescaled_final/1626_rv.mp4	0.0	170.1574468612671	0.09999203681945801
28	146.40499901771545	fix_pre	0		120	26.0	2.5	/experiments/knapen_AOT/AOT_stimuli/rescaled_final/0477_fw.mp4	0.0	170.25743889808655	1.0001440048217773
28	146.58864903450012	pulse	0	t		26.0	2.5	/experiments/knapen_AOT/AOT_stimuli/rescaled_final/0477_fw.mp4	0.0	170.44108891487122	
28	147.40514302253723	movie	1		245	26.0	2.5	/experiments/knapen_AOT/AOT_stimuli/rescaled_final/0477_fw.mp4	0.0	171.25758290290833	2.500375986099243
28	148.1888289451599	pulse	1	t		26.0	2.5	/experiments/knapen_AOT/AOT_stimuli/rescaled_final/0477_fw.mp4	0.0	172.041268825531	
28	149.78658294677734	pulse	1	t		26.0	2.5	/experiments/knapen_AOT/AOT_stimuli/rescaled_final/0477_fw.mp4	0.0	173.63902282714844	
28	149.90551900863647	fix_post	2		12	26.0	2.5	/experiments/knapen_AOT/AOT_stimuli/rescaled_final/0477_fw.mp4	0.0	173.75795888900757	0.09998607635498047
29	150.00550508499146	fix_pre	0		120	27.0	2.5	/experiments/knapen_AOT/AOT_stimuli/rescaled_final/0802_fw.mp4	0.0	173.85794496536255	1.0001778602600098
29	151.00568294525146	movie	1		243	27.0	2.5	/experiments/knapen_AOT/AOT_stimuli/rescaled_final/0802_fw.mp4	0.0	174.85812282562256	2.492042064666748
29	151.38988995552063	pulse	1	t		27.0	2.5	/experiments/knapen_AOT/AOT_stimuli/rescaled_final/0802_fw.mp4	0.0	175.24232983589172	
29	152.98949813842773	pulse	1	t		27.0	2.5	/experiments/knapen_AOT/AOT_stimuli/rescaled_final/0802_fw.mp4	0.0	176.84193801879883	
29	153.4977250099182	fix_post	2		12	27.0	2.5	/experiments/knapen_AOT/AOT_stimuli/rescaled_final/0802_fw.mp4	0.0	177.3501648902893	0.10001301765441895
30	153.59773802757263	fix_pre	0		120	28.0	2.5	blank	1.0	177.45017790794373	1.0001311302185059
30	154.5898449420929	pulse	0	t		28.0	2.5	blank	1.0	178.442284822464	
30	154.59786915779114	movie	1		301	28.0	2.5	blank	1.0	178.45030903816223	2.5087199211120605
30	156.18996715545654	pulse	1	t		28.0	2.5	blank	1.0	180.04240703582764	
30	157.1065890789032	fix_post	2		12	28.0	2.5	blank	1.0	180.9590289592743	0.10000801086425781
31	157.20659708976746	fix_pre	0		120	29.0	2.5	/experiments/knapen_AOT/AOT_stimuli/rescaled_final/1770_rv.mp4	0.0	181.05903697013855	1.0001909732818604
31	157.79035210609436	pulse	0	t		29.0	2.5	/experiments/knapen_AOT/AOT_stimuli/rescaled_final/1770_rv.mp4	0.0	181.64279198646545	
31	158.20678806304932	movie	1		243	29.0	2.5	/experiments/knapen_AOT/AOT_stimuli/rescaled_final/1770_rv.mp4	0.0	182.0592279434204	2.5003280639648438
31	159.39050006866455	pulse	1	t		29.0	2.5	/experiments/knapen_AOT/AOT_stimuli/rescaled_final/1770_rv.mp4	0.0	183.24293994903564	
31	160.70711612701416	fix_post	2		12	29.0	2.5	/experiments/knapen_AOT/AOT_stimuli/rescaled_final/1770_rv.mp4	0.0	184.55955600738525	0.10004281997680664
32	160.80715894699097	fix_pre	0		120	30.0	2.5	/experiments/knapen_AOT/AOT_stimuli/rescaled_final/1106_fw.mp4	0.0	184.65959882736206	1.0001230239868164
32	160.98334503173828	pulse	0	t		30.0	2.5	/experiments/knapen_AOT/AOT_stimuli/rescaled_final/1106_fw.mp4	0.0	184.83578491210938	
32	161.80728197097778	movie	1		243	30.0	2.5	/experiments/knapen_AOT/AOT_stimuli/rescaled_final/1106_fw.mp4	0.0	185.65972185134888	2.5003550052642822
32	162.5834469795227	pulse	1	t		30.0	2.5	/experiments/knapen_AOT/AOT_stimuli/rescaled_final/1106_fw.mp4	0.0	186.4358868598938	
32	164.1909670829773	pulse	1	t		30.0	2.5	/experiments/knapen_AOT/AOT_stimuli/rescaled_final/1106_fw.mp4	0.0	188.0434069633484	
32	164.30763697624207	fix_post	2		12	30.0	2.5	/experiments/knapen_AOT/AOT_stimuli/rescaled_final/1106_fw.mp4	0.0	188.16007685661316	0.10004711151123047
33	164.4076840877533	fix_pre	0		120	31.0	2.5	/experiments/knapen_AOT/AOT_stimuli/rescaled_final/1148_fw.mp4	0.0	188.2601239681244	1.000133991241455
33	165.40781807899475	movie	1		242	31.0	2.5	/experiments/knapen_AOT/AOT_stimuli/rescaled_final/1148_fw.mp4	0.0	189.26025795936584	2.4920389652252197
33	165.79606914520264	pulse	1	t		31.0	2.5	/experiments/knapen_AOT/AOT_stimuli/rescaled_final/1148_fw.mp4	0.0	189.64850902557373	
33	167.383465051651	pulse	1	t		31.0	2.5	/experiments/knapen_AOT/AOT_stimuli/rescaled_final/1148_fw.mp4	0.0	191.2359049320221	
33	167.89985704421997	fix_post	2		12	31.0	2.5	/experiments/knapen_AOT/AOT_stimuli/rescaled_final/1148_fw.mp4	0.0	191.75229692459106	0.10002899169921875
34	167.9998860359192	fix_pre	0		119	32.0	2.5	/experiments/knapen_AOT/AOT_stimuli/rescaled_final/2015_rv.mp4	0.0	191.85232591629028	0.9918138980865479
34	168.983540058136	pulse	0	t		32.0	2.5	/experiments/knapen_AOT/AOT_stimuli/rescaled_final/2015_rv.mp4	0.0	192.83597993850708	
34	168.99169993400574	movie	1		244	32.0	2.5	/experiments/knapen_AOT/AOT_stimuli/rescaled_final/2015_rv.mp4	0.0	192.84413981437683	2.508709192276001
34	170.58831095695496	pulse	1	t		32.0	2.5	/experiments/knapen_AOT/AOT_stimuli/rescaled_final/2015_rv.mp4	0.0	194.44075083732605	
34	171.50040912628174	fix_post	2		12	32.0	2.5	/experiments/knapen_AOT/AOT_stimuli/rescaled_final/2015_rv.mp4	0.0	195.35284900665283	0.1000218391418457
35	171.60043096542358	fix_pre	0		120	33.0	2.5	blank	1.0	195.45287084579468	1.0001521110534668
35	172.1839940547943	pulse	0	t		33.0	2.5	blank	1.0	196.0364339351654	
35	172.60058307647705	movie	1		300	33.0	2.5	blank	1.0	196.45302295684814	2.500412940979004
35	173.78437304496765	pulse	1	t		33.0	2.5	blank	1.0	197.63681292533875	
35	175.10099601745605	fix_post	2		12	33.0	2.5	blank	1.0	198.95343589782715	0.09996294975280762
36	175.20095896720886	fix_pre	0		120	34.0	2.5	/experiments/knapen_AOT/AOT_stimuli/rescaled_final/1148_rv.mp4	0.0	199.05339884757996	1.000143051147461
36	175.38454914093018	pulse	0	t		34.0	2.5	/experiments/knapen_AOT/AOT_stimuli/rescaled_final/1148_rv.mp4	0.0	199.23698902130127	
36	176.20110201835632	movie	1		243	34.0	2.5	/experiments/knapen_AOT/AOT_stimuli/rescaled_final/1148_rv.mp4	0.0	200.05354189872742	2.500354051589966
36	176.9847309589386	pulse	1	t		34.0	2.5	/experiments/knapen_AOT/AOT_stimuli/rescaled_final/1148_rv.mp4	0.0	200.8371708393097	
36	178.58494305610657	pulse	1	t		34.0	2.5	/experiments/knapen_AOT/AOT_stimuli/rescaled_final/1148_rv.mp4	0.0	202.43738293647766	
36	178.7014560699463	fix_post	2		12	34.0	2.5	/experiments/knapen_AOT/AOT_stimuli/rescaled_final/1148_rv.mp4	0.0	202.55389595031738	0.10005402565002441
37	178.8015100955963	fix_pre	0		119	35.0	2.5	/experiments/knapen_AOT/AOT_stimuli/rescaled_final/1474_fw.mp4	0.0	202.6539499759674	0.9918630123138428
37	179.79337310791016	movie	1		244	35.0	2.5	/experiments/knapen_AOT/AOT_stimuli/rescaled_final/1474_fw.mp4	0.0	203.64581298828125	2.500321865081787
37	180.1853630542755	pulse	1	t		35.0	2.5	/experiments/knapen_AOT/AOT_stimuli/rescaled_final/1474_fw.mp4	0.0	204.0378029346466	
37	181.7856149673462	pulse	1	t		35.0	2.5	/experiments/knapen_AOT/AOT_stimuli/rescaled_final/1474_fw.mp4	0.0	205.63805484771729	
37	182.29369497299194	fix_post	2		12	35.0	2.5	/experiments/knapen_AOT/AOT_stimuli/rescaled_final/1474_fw.mp4	0.0	206.14613485336304	0.10000205039978027
38	182.39369702339172	fix_pre	0		120	36.0	2.5	/experiments/knapen_AOT/AOT_stimuli/rescaled_final/0553_rv.mp4	0.0	206.24613690376282	1.0001399517059326
38	183.38568305969238	pulse	0	t		36.0	2.5	/experiments/knapen_AOT/AOT_stimuli/rescaled_final/0553_rv.mp4	0.0	207.23812294006348	
38	183.39383697509766	movie	1		245	36.0	2.5	/experiments/knapen_AOT/AOT_stimuli/rescaled_final/0553_rv.mp4	0.0	207.24627685546875	2.5087621212005615
38	184.98736000061035	pulse	1	t		36.0	2.5	/experiments/knapen_AOT/AOT_stimuli/rescaled_final/0553_rv.mp4	0.0	208.83979988098145	
38	185.90259909629822	fix_post	2		12	36.0	2.5	/experiments/knapen_AOT/AOT_stimuli/rescaled_final/0553_rv.mp4	0.0	209.7550389766693	0.0999748706817627
39	186.00257396697998	fix_pre	0		120	37.0	2.5	/experiments/knapen_AOT/AOT_stimuli/rescaled_final/2153_rv.mp4	0.0	209.85501384735107	1.0001411437988281
39	186.58626508712769	pulse	0	t		37.0	2.5	/experiments/knapen_AOT/AOT_stimuli/rescaled_final/2153_rv.mp4	0.0	210.43870496749878	
39	187.0027151107788	movie	1		243	37.0	2.5	/experiments/knapen_AOT/AOT_stimuli/rescaled_final/2153_rv.mp4	0.0	210.8551549911499	2.5003738403320312
39	188.18653297424316	pulse	1	t		37.0	2.5	/experiments/knapen_AOT/AOT_stimuli/rescaled_final/2153_rv.mp4	0.0	212.03897285461426	
39	189.50308895111084	fix_post	2		12	37.0	2.5	/experiments/knapen_AOT/AOT_stimuli/rescaled_final/2153_rv.mp4	0.0	213.35552883148193	0.10001015663146973
40	189.6030991077423	fix_pre	0		120	38.0	2.5	/experiments/knapen_AOT/AOT_stimuli/rescaled_final/0253_rv.mp4	0.0	213.4555389881134	1.0001769065856934
40	189.7866599559784	pulse	0	t		38.0	2.5	/experiments/knapen_AOT/AOT_stimuli/rescaled_final/0253_rv.mp4	0.0	213.6390998363495	
40	190.603276014328	movie	1		245	38.0	2.5	/experiments/knapen_AOT/AOT_stimuli/rescaled_final/0253_rv.mp4	0.0	214.4557158946991	2.500369071960449
40	191.38685297966003	pulse	1	t		38.0	2.5	/experiments/knapen_AOT/AOT_stimuli/rescaled_final/0253_rv.mp4	0.0	215.23929286003113	
40	192.9845850467682	pulse	1	t		38.0	2.5	/experiments/knapen_AOT/AOT_stimuli/rescaled_final/0253_rv.mp4	0.0	216.83702492713928	
40	193.10364508628845	fix_post	2		12	38.0	2.5	/experiments/knapen_AOT/AOT_stimuli/rescaled_final/0253_rv.mp4	0.0	216.95608496665955	0.09999895095825195
41	193.2036440372467	fix_pre	0		119	39.0	2.5	/experiments/knapen_AOT/AOT_stimuli/rescaled_final/1240_rv.mp4	0.0	217.0560839176178	0.9918169975280762
41	194.19546103477478	movie	1		244	39.0	2.5	/experiments/knapen_AOT/AOT_stimuli/rescaled_final/1240_rv.mp4	0.0	218.04790091514587	2.500351905822754
41	194.58310914039612	pulse	1	t		39.0	2.5	/experiments/knapen_AOT/AOT_stimuli/rescaled_final/1240_rv.mp4	0.0	218.4355490207672	
41	196.18779802322388	pulse	1	t		39.0	2.5	/experiments/knapen_AOT/AOT_stimuli/rescaled_final/1240_rv.mp4	0.0	220.04023790359497	
41	196.69581294059753	fix_post	2		11	39.0	2.5	/experiments/knapen_AOT/AOT_stimuli/rescaled_final/1240_rv.mp4	0.0	220.54825282096863	0.10003018379211426
42	196.79584312438965	fix_pre	0		120	40.0	2.5	/experiments/knapen_AOT/AOT_stimuli/rescaled_final/0440_fw.mp4	0.0	220.64828300476074	1.0001640319824219
42	197.78781294822693	pulse	0	t		40.0	2.5	/experiments/knapen_AOT/AOT_stimuli/rescaled_final/0440_fw.mp4	0.0	221.64025282859802	
42	197.79600715637207	movie	1		246	40.0	2.5	/experiments/knapen_AOT/AOT_stimuli/rescaled_final/0440_fw.mp4	0.0	221.64844703674316	2.508685827255249
42	199.39195609092712	pulse	1	t		40.0	2.5	/experiments/knapen_AOT/AOT_stimuli/rescaled_final/0440_fw.mp4	0.0	223.24439597129822	
42	200.30469298362732	fix_post	2		12	40.0	2.5	/experiments/knapen_AOT/AOT_stimuli/rescaled_final/0440_fw.mp4	0.0	224.1571328639984	0.10002398490905762
43	200.40471696853638	fix_pre	0		120	41.0	2.5	/experiments/knapen_AOT/AOT_stimuli/rescaled_final/1981_rv.mp4	0.0	224.25715684890747	1.0001561641693115
43	200.98841500282288	pulse	0	t		41.0	2.5	/experiments/knapen_AOT/AOT_stimuli/rescaled_final/1981_rv.mp4	0.0	224.84085488319397	
43	201.4048731327057	movie	1		244	41.0	2.5	/experiments/knapen_AOT/AOT_stimuli/rescaled_final/1981_rv.mp4	0.0	225.25731301307678	2.500358819961548
43	202.58873105049133	pulse	1	t		41.0	2.5	/experiments/knapen_AOT/AOT_stimuli/rescaled_final/1981_rv.mp4	0.0	226.44117093086243	
43	203.90523195266724	fix_post	2		12	41.0	2.5	/experiments/knapen_AOT/AOT_stimuli/rescaled_final/1981_rv.mp4	0.0	227.75767183303833	0.10002017021179199
44	204.00525212287903	fix_pre	0		120	42.0	2.5	blank	1.0	227.85769200325012	1.0001859664916992
44	204.18889498710632	pulse	0	t		42.0	2.5	blank	1.0	228.04133486747742	
44	205.00543808937073	movie	1		300	42.0	2.5	blank	1.0	228.85787796974182	2.5003490447998047
44	205.78899812698364	pulse	1	t		42.0	2.5	blank	1.0	229.64143800735474	
44	207.38931894302368	pulse	1	t		42.0	2.5	blank	1.0	231.24175882339478	
44	207.50578713417053	fix_post	2		12	42.0	2.5	blank	1.0	231.35822701454163	0.10000395774841309
45	207.60579109191895	fix_pre	0		119	43.0	2.5	/experiments/knapen_AOT/AOT_stimuli/rescaled_final/1138_fw.mp4	0.0	231.45823097229004	0.9918520450592041
45	208.59764313697815	movie	1		244	43.0	2.5	/experiments/knapen_AOT/AOT_stimuli/rescaled_final/1138_fw.mp4	0.0	232.45008301734924	2.5003550052642822
45	208.9895989894867	pulse	1	t		43.0	2.5	/experiments/knapen_AOT/AOT_stimuli/rescaled_final/1138_fw.mp4	0.0	232.8420388698578	
45	210.58988499641418	pulse	1	t		43.0	2.5	/experiments/knapen_AOT/AOT_stimuli/rescaled_final/1138_fw.mp4	0.0	234.44232487678528	
45	211.09799814224243	fix_post	2		12	43.0	2.5	/experiments/knapen_AOT/AOT_stimuli/rescaled_final/1138_fw.mp4	0.0	234.95043802261353	0.09998083114624023
46	211.19797897338867	fix_pre	0		120	44.0	2.5	/experiments/knapen_AOT/AOT_stimuli/rescaled_final/0891_fw.mp4	0.0	235.05041885375977	1.000204086303711
46	212.18996715545654	pulse	0	t		44.0	2.5	/experiments/knapen_AOT/AOT_stimuli/rescaled_final/0891_fw.mp4	0.0	236.04240703582764	
46	212.19818305969238	movie	1		246	44.0	2.5	/experiments/knapen_AOT/AOT_stimuli/rescaled_final/0891_fw.mp4	0.0	236.05062294006348	2.508704900741577
46	213.7906539440155	pulse	1	t		44.0	2.5	/experiments/knapen_AOT/AOT_stimuli/rescaled_final/0891_fw.mp4	0.0	237.6430938243866	
46	214.70688796043396	fix_post	2		12	44.0	2.5	/experiments/knapen_AOT/AOT_stimuli/rescaled_final/0891_fw.mp4	0.0	238.55932784080505	0.0999901294708252
47	214.80687808990479	fix_pre	0		120	45.0	2.5	/experiments/knapen_AOT/AOT_stimuli/rescaled_final/1715_rv.mp4	0.0	238.65931797027588	1.0002059936523438
47	215.3829369544983	pulse	0	t		45.0	2.5	/experiments/knapen_AOT/AOT_stimuli/rescaled_final/1715_rv.mp4	0.0	239.23537683486938	
47	215.80708408355713	movie	1		246	45.0	2.5	/experiments/knapen_AOT/AOT_stimuli/rescaled_final/1715_rv.mp4	0.0	239.65952396392822	2.5003018379211426
47	216.99090194702148	pulse	1	t		45.0	2.5	/experiments/knapen_AOT/AOT_stimuli/rescaled_final/1715_rv.mp4	0.0	240.84334182739258	
47	218.30738592147827	fix_post	2		12	45.0	2.5	/experiments/knapen_AOT/AOT_stimuli/rescaled_final/1715_rv.mp4	0.0	242.15982580184937	0.10003900527954102
48	218.4074249267578	fix_pre	0		120	46.0	2.5	/experiments/knapen_AOT/AOT_stimuli/rescaled_final/1007_rv.mp4	0.0	242.2598648071289	1.0001192092895508
48	218.58337998390198	pulse	0	t		46.0	2.5	/experiments/knapen_AOT/AOT_stimuli/rescaled_final/1007_rv.mp4	0.0	242.43581986427307	
48	219.40754413604736	movie	1		245	46.0	2.5	/experiments/knapen_AOT/AOT_stimuli/rescaled_final/1007_rv.mp4	0.0	243.25998401641846	2.500393867492676
48	220.1838779449463	pulse	1	t		46.0	2.5	/experiments/knapen_AOT/AOT_stimuli/rescaled_final/1007_rv.mp4	0.0	244.03631782531738	
48	221.7831461429596	pulse	1	t		46.0	2.5	/experiments/knapen_AOT/AOT_stimuli/rescaled_final/1007_rv.mp4	0.0	245.6355860233307	
48	221.90793800354004	fix_post	2		12	46.0	2.5	/experiments/knapen_AOT/AOT_stimuli/rescaled_final/1007_rv.mp4	0.0	245.76037788391113	0.09999895095825195
49	222.0079369544983	fix_pre	0		120	47.0	2.5	/experiments/knapen_AOT/AOT_stimuli/rescaled_final/2164_fw.mp4	0.0	245.86037683486938	1.0001471042633057
49	223.0080840587616	movie	1		242	47.0	2.5	/experiments/knapen_AOT/AOT_stimuli/rescaled_final/2164_fw.mp4	0.0	246.8605239391327	2.492050886154175
49	223.38326597213745	pulse	1	t		47.0	2.5	/experiments/knapen_AOT/AOT_stimuli/rescaled_final/2164_fw.mp4	0.0	247.23570585250854	
49	224.98377108573914	pulse	1	t		47.0	2.5	/experiments/knapen_AOT/AOT_stimuli/rescaled_final/2164_fw.mp4	0.0	248.83621096611023	
49	225.50013494491577	fix_post	2		12	47.0	2.5	/experiments/knapen_AOT/AOT_stimuli/rescaled_final/2164_fw.mp4	0.0	249.35257482528687	0.10002899169921875
50	225.600163936615	fix_pre	0		119	48.0	2.5	blank	1.0	249.45260381698608	0.9917960166931152
50	226.58386898040771	pulse	0	t		48.0	2.5	blank	1.0	250.4363088607788	
50	226.5919599533081	movie	1		301	48.0	2.5	blank	1.0	250.4443998336792	2.508749008178711
50	228.18399095535278	pulse	1	t		48.0	2.5	blank	1.0	252.03643083572388	
50	229.10070896148682	fix_post	2		12	48.0	2.5	blank	1.0	252.9531488418579	0.09998798370361328
51	229.20069694519043	fix_pre	0		120	49.0	2.5	/experiments/knapen_AOT/AOT_stimuli/rescaled_final/0620_rv.mp4	0.0	253.05313682556152	1.0001330375671387
51	229.7842400074005	pulse	0	t		49.0	2.5	/experiments/knapen_AOT/AOT_stimuli/rescaled_final/0620_rv.mp4	0.0	253.6366798877716	
51	230.20082998275757	movie	1		243	49.0	2.5	/experiments/knapen_AOT/AOT_stimuli/rescaled_final/0620_rv.mp4	0.0	254.05326986312866	2.5003750324249268
51	231.38463401794434	pulse	1	t		49.0	2.5	/experiments/knapen_AOT/AOT_stimuli/rescaled_final/0620_rv.mp4	0.0	255.23707389831543	
51	232.7012050151825	fix_post	2		12	49.0	2.5	/experiments/knapen_AOT/AOT_stimuli/rescaled_final/0620_rv.mp4	0.0	256.5536448955536	0.10003495216369629
52	232.8012399673462	fix_pre	0		120	50.0	2.5	/experiments/knapen_AOT/AOT_stimuli/rescaled_final/1419_fw.mp4	0.0	256.6536798477173	1.000128984451294
52	232.98489499092102	pulse	0	t		50.0	2.5	/experiments/knapen_AOT/AOT_stimuli/rescaled_final/1419_fw.mp4	0.0	256.8373348712921	
52	233.80136895179749	movie	1		244	50.0	2.5	/experiments/knapen_AOT/AOT_stimuli/rescaled_final/1419_fw.mp4	0.0	257.6538088321686	2.500354051589966
52	234.58499598503113	pulse	1	t		50.0	2.5	/experiments/knapen_AOT/AOT_stimuli/rescaled_final/1419_fw.mp4	0.0	258.4374358654022	
52	236.18559312820435	pulse	1	t		50.0	2.5	/experiments/knapen_AOT/AOT_stimuli/rescaled_final/1419_fw.mp4	0.0	260.03803300857544	
52	236.30172300338745	fix_post	2		12	50.0	2.5	/experiments/knapen_AOT/AOT_stimuli/rescaled_final/1419_fw.mp4	0.0	260.15416288375854	0.10004210472106934
53	236.40176510810852	fix_pre	0		120	51.0	2.5	/experiments/knapen_AOT/AOT_stimuli/rescaled_final/1068_rv.mp4	0.0	260.2542049884796	1.000152826309204
53	237.40191793441772	movie	1		243	51.0	2.5	/experiments/knapen_AOT/AOT_stimuli/rescaled_final/1068_rv.mp4	0.0	261.2543578147888	2.492033004760742
53	237.78600597381592	pulse	1	t		51.0	2.5	/experiments/knapen_AOT/AOT_stimuli/rescaled_final/1068_rv.mp4	0.0	261.638445854187	
53	239.3857340812683	pulse	1	t		51.0	2.5	/experiments/knapen_AOT/AOT_stimuli/rescaled_final/1068_rv.mp4	0.0	263.2381739616394	
53	239.89395093917847	fix_post	2		12	51.0	2.5	/experiments/knapen_AOT/AOT_stimuli/rescaled_final/1068_rv.mp4	0.0	263.74639081954956	0.10000300407409668
54	239.99395394325256	fix_pre	0		120	52.0	2.5	/experiments/knapen_AOT/AOT_stimuli/rescaled_final/0811_rv.mp4	0.0	263.84639382362366	1.0001552104949951
54	240.98599696159363	pulse	0	t		52.0	2.5	/experiments/knapen_AOT/AOT_stimuli/rescaled_final/0811_rv.mp4	0.0	264.8384368419647	
54	240.99410915374756	movie	1		246	52.0	2.5	/experiments/knapen_AOT/AOT_stimuli/rescaled_final/0811_rv.mp4	0.0	264.84654903411865	2.508718967437744
54	242.5907599925995	pulse	1	t		52.0	2.5	/experiments/knapen_AOT/AOT_stimuli/rescaled_final/0811_rv.mp4	0.0	266.4431998729706	
54	243.5028281211853	fix_post	2		12	52.0	2.5	/experiments/knapen_AOT/AOT_stimuli/rescaled_final/0811_rv.mp4	0.0	267.3552680015564	0.10001897811889648
55	243.6028470993042	fix_pre	0		120	53.0	2.5	/experiments/knapen_AOT/AOT_stimuli/rescaled_final/0444_fw.mp4	0.0	267.4552869796753	1.0001540184020996
55	244.18643808364868	pulse	0	t		53.0	2.5	/experiments/knapen_AOT/AOT_stimuli/rescaled_final/0444_fw.mp4	0.0	268.0388779640198	
55	244.6030011177063	movie	1		244	53.0	2.5	/experiments/knapen_AOT/AOT_stimuli/rescaled_final/0444_fw.mp4	0.0	268.4554409980774	2.5004329681396484
55	245.7868950366974	pulse	1	t		53.0	2.5	/experiments/knapen_AOT/AOT_stimuli/rescaled_final/0444_fw.mp4	0.0	269.6393349170685	
55	247.10343408584595	fix_post	2		12	53.0	2.5	/experiments/knapen_AOT/AOT_stimuli/rescaled_final/0444_fw.mp4	0.0	270.95587396621704	0.09998297691345215
56	247.2034170627594	fix_pre	0		120	54.0	2.5	/experiments/knapen_AOT/AOT_stimuli/rescaled_final/0457_rv.mp4	0.0	271.0558569431305	1.0001308917999268
56	247.38692212104797	pulse	0	t		54.0	2.5	/experiments/knapen_AOT/AOT_stimuli/rescaled_final/0457_rv.mp4	0.0	271.23936200141907	
56	248.20354795455933	movie	1		244	54.0	2.5	/experiments/knapen_AOT/AOT_stimuli/rescaled_final/0457_rv.mp4	0.0	272.0559878349304	2.500408172607422
56	248.98718094825745	pulse	1	t		54.0	2.5	/experiments/knapen_AOT/AOT_stimuli/rescaled_final/0457_rv.mp4	0.0	272.83962082862854	
56	250.58970499038696	pulse	1	t		54.0	2.5	/experiments/knapen_AOT/AOT_stimuli/rescaled_final/0457_rv.mp4	0.0	274.44214487075806	
56	250.70395612716675	fix_post	2		12	54.0	2.5	/experiments/knapen_AOT/AOT_stimuli/rescaled_final/0457_rv.mp4	0.0	274.55639600753784	0.09997200965881348
57	250.80392813682556	fix_pre	0		120	55.0	2.5	/experiments/knapen_AOT/AOT_stimuli/rescaled_final/0192_rv.mp4	0.0	274.65636801719666	1.0001239776611328
57	251.8040521144867	movie	1		245	55.0	2.5	/experiments/knapen_AOT/AOT_stimuli/rescaled_final/0192_rv.mp4	0.0	275.6564919948578	2.4920170307159424
57	252.1916971206665	pulse	1	t		55.0	2.5	/experiments/knapen_AOT/AOT_stimuli/rescaled_final/0192_rv.mp4	0.0	276.0441370010376	
57	253.78793001174927	pulse	1	t		55.0	2.5	/experiments/knapen_AOT/AOT_stimuli/rescaled_final/0192_rv.mp4	0.0	277.64036989212036	
57	254.29606914520264	fix_post	2		12	55.0	2.5	/experiments/knapen_AOT/AOT_stimuli/rescaled_final/0192_rv.mp4	0.0	278.14850902557373	0.10008788108825684
58	254.3961570262909	fix_pre	0		118	56.0	2.5	blank	1.0	278.248596906662	1.0000879764556885
58	255.38823795318604	pulse	0	t		56.0	2.5	blank	1.0	279.24067783355713	
58	255.39624500274658	movie	1		301	56.0	2.5	blank	1.0	279.2486848831177	2.5087130069732666
58	256.9884989261627	pulse	1	t		56.0	2.5	blank	1.0	280.8409388065338	
58	257.90495800971985	fix_post	2		12	56.0	2.5	blank	1.0	281.75739789009094	0.10003805160522461
59	258.0049960613251	fix_pre	0		120	57.0	2.5	/experiments/knapen_AOT/AOT_stimuli/rescaled_final/0892_fw.mp4	0.0	281.85743594169617	1.0001380443572998
59	258.5885670185089	pulse	0	t		57.0	2.5	/experiments/knapen_AOT/AOT_stimuli/rescaled_final/0892_fw.mp4	0.0	282.44100689888	
59	259.0051341056824	movie	1		243	57.0	2.5	/experiments/knapen_AOT/AOT_stimuli/rescaled_final/0892_fw.mp4	0.0	282.85757398605347	2.5003600120544434
59	260.18896198272705	pulse	1	t		57.0	2.5	/experiments/knapen_AOT/AOT_stimuli/rescaled_final/0892_fw.mp4	0.0	284.04140186309814	
59	261.5054941177368	fix_post	2		12	57.0	2.5	/experiments/knapen_AOT/AOT_stimuli/rescaled_final/0892_fw.mp4	0.0	285.3579339981079	0.10005497932434082
60	261.60554909706116	fix_pre	0		120	58.0	2.5	/experiments/knapen_AOT/AOT_stimuli/rescaled_final/0681_fw.mp4	0.0	285.45798897743225	1.0001299381256104
60	261.78906297683716	pulse	0	t		58.0	2.5	/experiments/knapen_AOT/AOT_stimuli/rescaled_final/0681_fw.mp4	0.0	285.64150285720825	
60	262.60567903518677	movie	1		244	58.0	2.5	/experiments/knapen_AOT/AOT_stimuli/rescaled_final/0681_fw.mp4	0.0	286.45811891555786	2.5003550052642822
60	263.389368057251	pulse	1	t		58.0	2.5	/experiments/knapen_AOT/AOT_stimuli/rescaled_final/0681_fw.mp4	0.0	287.24180793762207	
60	264.9893879890442	pulse	1	t		58.0	2.5	/experiments/knapen_AOT/AOT_stimuli/rescaled_final/0681_fw.mp4	0.0	288.8418278694153	
60	265.10603404045105	fix_post	2		12	58.0	2.5	/experiments/knapen_AOT/AOT_stimuli/rescaled_final/0681_fw.mp4	0.0	288.95847392082214	0.10002589225769043
61	265.20605993270874	fix_pre	0		120	59.0	2.5	/experiments/knapen_AOT/AOT_stimuli/rescaled_final/0160_rv.mp4	0.0	289.05849981307983	1.0001521110534668
61	266.2062120437622	movie	1		242	59.0	2.5	/experiments/knapen_AOT/AOT_stimuli/rescaled_final/0160_rv.mp4	0.0	290.0586519241333	2.492064952850342
61	266.5903561115265	pulse	1	t		59.0	2.5	/experiments/knapen_AOT/AOT_stimuli/rescaled_final/0160_rv.mp4	0.0	290.4427959918976	
61	268.1900200843811	pulse	1	t		59.0	2.5	/experiments/knapen_AOT/AOT_stimuli/rescaled_final/0160_rv.mp4	0.0	292.0424599647522	
61	268.69827699661255	fix_post	2		12	59.0	2.5	/experiments/knapen_AOT/AOT_stimuli/rescaled_final/0160_rv.mp4	0.0	292.55071687698364	0.10001111030578613
62	268.79828810691833	fix_pre	0		120	60.0	2.5	/experiments/knapen_AOT/AOT_stimuli/rescaled_final/0637_fw.mp4	0.0	292.65072798728943	1.0001189708709717
62	269.7902841567993	pulse	0	t		60.0	2.5	/experiments/knapen_AOT/AOT_stimuli/rescaled_final/0637_fw.mp4	0.0	293.6427240371704	
62	269.7984070777893	movie	1		245	60.0	2.5	/experiments/knapen_AOT/AOT_stimuli/rescaled_final/0637_fw.mp4	0.0	293.6508469581604	2.508734941482544
62	271.3947911262512	pulse	1	t		60.0	2.5	/experiments/knapen_AOT/AOT_stimuli/rescaled_final/0637_fw.mp4	0.0	295.2472310066223	
62	272.30714201927185	fix_post	2		12	60.0	2.5	/experiments/knapen_AOT/AOT_stimuli/rescaled_final/0637_fw.mp4	0.0	296.15958189964294	0.09999203681945801
63	272.4071340560913	fix_pre	0		120	61.0	2.5	/experiments/knapen_AOT/AOT_stimuli/rescaled_final/1509_rv.mp4	0.0	296.2595739364624	1.000175952911377
63	272.98316192626953	pulse	0	t		61.0	2.5	/experiments/knapen_AOT/AOT_stimuli/rescaled_final/1509_rv.mp4	0.0	296.8356018066406	
63	273.4073100090027	movie	1		245	61.0	2.5	/experiments/knapen_AOT/AOT_stimuli/rescaled_final/1509_rv.mp4	0.0	297.2597498893738	2.5003809928894043
63	274.5838849544525	pulse	1	t		61.0	2.5	/experiments/knapen_AOT/AOT_stimuli/rescaled_final/1509_rv.mp4	0.0	298.4363248348236	
63	275.9076910018921	fix_post	2		12	61.0	2.5	/experiments/knapen_AOT/AOT_stimuli/rescaled_final/1509_rv.mp4	0.0	299.7601308822632	0.09998393058776855
64	276.00767493247986	fix_pre	0		120	62.0	2.5	blank	1.0	299.86011481285095	1.000143051147461
64	276.1828360557556	pulse	0	t		62.0	2.5	blank	1.0	300.0352759361267	
64	277.0078179836273	movie	1		300	62.0	2.5	blank	1.0	300.8602578639984	2.5003790855407715
64	277.7831690311432	pulse	1	t		62.0	2.5	blank	1.0	301.6356089115143	
64	279.38353395462036	pulse	1	t		62.0	2.5	blank	1.0	303.23597383499146	
64	279.5081970691681	fix_post	2		12	62.0	2.5	blank	1.0	303.3606369495392	0.10004687309265137
65	279.60824394226074	fix_pre	0		120	63.0	2.5	/experiments/knapen_AOT/AOT_stimuli/rescaled_final/1670_fw.mp4	0.0	303.46068382263184	1.000176191329956
65	280.6084201335907	movie	1		244	63.0	2.5	/experiments/knapen_AOT/AOT_stimuli/rescaled_final/1670_fw.mp4	0.0	304.4608600139618	2.491987943649292
65	280.98375511169434	pulse	1	t		63.0	2.5	/experiments/knapen_AOT/AOT_stimuli/rescaled_final/1670_fw.mp4	0.0	304.83619499206543	
65	282.5839099884033	pulse	1	t		63.0	2.5	/experiments/knapen_AOT/AOT_stimuli/rescaled_final/1670_fw.mp4	0.0	306.4363498687744	
65	283.10040807724	fix_post	2		12	63.0	2.5	/experiments/knapen_AOT/AOT_stimuli/rescaled_final/1670_fw.mp4	0.0	306.9528479576111	0.10001301765441895
66	283.2004210948944	fix_pre	0		119	64.0	2.5	/experiments/knapen_AOT/AOT_stimuli/rescaled_final/0949_rv.mp4	0.0	307.0528609752655	0.9918210506439209
66	284.1840260028839	pulse	0	t		64.0	2.5	/experiments/knapen_AOT/AOT_stimuli/rescaled_final/0949_rv.mp4	0.0	308.036465883255	
66	284.19224214553833	movie	1		246	64.0	2.5	/experiments/knapen_AOT/AOT_stimuli/rescaled_final/0949_rv.mp4	0.0	308.0446820259094	2.5087029933929443
66	285.7852101325989	pulse	1	t		64.0	2.5	/experiments/knapen_AOT/AOT_stimuli/rescaled_final/0949_rv.mp4	0.0	309.63765001296997	
66	286.7009451389313	fix_post	2		12	64.0	2.5	/experiments/knapen_AOT/AOT_stimuli/rescaled_final/0949_rv.mp4	0.0	310.55338501930237	0.10005998611450195
67	286.8010051250458	fix_pre	0		120	65.0	2.5	/experiments/knapen_AOT/AOT_stimuli/rescaled_final/1303_fw.mp4	0.0	310.65344500541687	1.0001718997955322
67	287.3847019672394	pulse	0	t		65.0	2.5	/experiments/knapen_AOT/AOT_stimuli/rescaled_final/1303_fw.mp4	0.0	311.2371418476105	
67	287.8011770248413	movie	1		244	65.0	2.5	/experiments/knapen_AOT/AOT_stimuli/rescaled_final/1303_fw.mp4	0.0	311.6536169052124	2.5003371238708496
67	288.9848599433899	pulse	1	t		65.0	2.5	/experiments/knapen_AOT/AOT_stimuli/rescaled_final/1303_fw.mp4	0.0	312.837299823761	
67	290.30151414871216	fix_post	2		12	65.0	2.5	/experiments/knapen_AOT/AOT_stimuli/rescaled_final/1303_fw.mp4	0.0	314.15395402908325	0.10004997253417969
68	290.40156412124634	fix_pre	0		120	66.0	2.5	/experiments/knapen_AOT/AOT_stimuli/rescaled_final/1017_fw.mp4	0.0	314.25400400161743	1.0000789165496826
68	290.58502411842346	pulse	0	t		66.0	2.5	/experiments/knapen_AOT/AOT_stimuli/rescaled_final/1017_fw.mp4	0.0	314.43746399879456	
68	291.401643037796	movie	1		245	66.0	2.5	/experiments/knapen_AOT/AOT_stimuli/rescaled_final/1017_fw.mp4	0.0	315.2540829181671	2.5003740787506104
68	292.1854200363159	pulse	1	t		66.0	2.5	/experiments/knapen_AOT/AOT_stimuli/rescaled_final/1017_fw.mp4	0.0	316.037859916687	
68	293.7829740047455	pulse	1	t		66.0	2.5	/experiments/knapen_AOT/AOT_stimuli/rescaled_final/1017_fw.mp4	0.0	317.6354138851166	
68	293.90201711654663	fix_post	2		12	66.0	2.5	/experiments/knapen_AOT/AOT_stimuli/rescaled_final/1017_fw.mp4	0.0	317.7544569969177	0.10004281997680664
69	294.00205993652344	fix_pre	0		119	67.0	2.5	/experiments/knapen_AOT/AOT_stimuli/rescaled_final/1127_fw.mp4	0.0	317.85449981689453	0.9917809963226318
69	294.99384093284607	movie	1		246	67.0	2.5	/experiments/knapen_AOT/AOT_stimuli/rescaled_final/1127_fw.mp4	0.0	318.84628081321716	2.500371217727661
69	295.385959148407	pulse	1	t		67.0	2.5	/experiments/knapen_AOT/AOT_stimuli/rescaled_final/1127_fw.mp4	0.0	319.2383990287781	
69	296.9859549999237	pulse	1	t		67.0	2.5	/experiments/knapen_AOT/AOT_stimuli/rescaled_final/1127_fw.mp4	0.0	320.8383948802948	
69	297.49421215057373	fix_post	2		12	67.0	2.5	/experiments/knapen_AOT/AOT_stimuli/rescaled_final/1127_fw.mp4	0.0	321.3466520309448	0.10004091262817383
70	297.5942530632019	fix_pre	0		120	68.0	2.5	/experiments/knapen_AOT/AOT_stimuli/rescaled_final/2097_fw.mp4	0.0	321.446692943573	1.0001158714294434
70	298.5862469673157	pulse	0	t		68.0	2.5	/experiments/knapen_AOT/AOT_stimuli/rescaled_final/2097_fw.mp4	0.0	322.43868684768677	
70	298.59436893463135	movie	1		244	68.0	2.5	/experiments/knapen_AOT/AOT_stimuli/rescaled_final/2097_fw.mp4	0.0	322.44680881500244	2.5087170600891113
70	300.1870050430298	pulse	1	t		68.0	2.5	/experiments/knapen_AOT/AOT_stimuli/rescaled_final/2097_fw.mp4	0.0	324.0394449234009	
70	301.10308599472046	fix_post	2		12	68.0	2.5	/experiments/knapen_AOT/AOT_stimuli/rescaled_final/2097_fw.mp4	0.0	324.95552587509155	0.1000051498413086
71	301.20309114456177	fix_pre	0		120	69.0	2.5	blank	1.0	325.05553102493286	1.0001587867736816
71	301.7868459224701	pulse	0	t		69.0	2.5	blank	1.0	325.6392858028412	
71	302.20324993133545	movie	1		300	69.0	2.5	blank	1.0	326.05568981170654	2.500481128692627
71	303.386873960495	pulse	1	t		69.0	2.5	blank	1.0	327.2393138408661	
71	304.7037310600281	fix_post	2		12	69.0	2.5	blank	1.0	328.55617094039917	0.09998607635498047
72	304.80371713638306	fix_pre	0		120	70.0	2.5	/experiments/knapen_AOT/AOT_stimuli/rescaled_final/0500_rv.mp4	0.0	328.65615701675415	1.0000958442687988
72	304.9872190952301	pulse	0	t		70.0	2.5	/experiments/knapen_AOT/AOT_stimuli/rescaled_final/0500_rv.mp4	0.0	328.8396589756012	
72	305.80381298065186	movie	1		244	70.0	2.5	/experiments/knapen_AOT/AOT_stimuli/rescaled_final/0500_rv.mp4	0.0	329.65625286102295	2.500357151031494
72	306.5875549316406	pulse	1	t		70.0	2.5	/experiments/knapen_AOT/AOT_stimuli/rescaled_final/0500_rv.mp4	0.0	330.4399948120117	
72	308.1876919269562	pulse	1	t		70.0	2.5	/experiments/knapen_AOT/AOT_stimuli/rescaled_final/0500_rv.mp4	0.0	332.04013180732727	
72	308.30417013168335	fix_post	2		12	70.0	2.5	/experiments/knapen_AOT/AOT_stimuli/rescaled_final/0500_rv.mp4	0.0	332.15661001205444	0.10003089904785156
73	308.4042010307312	fix_pre	0		119	71.0	2.5	/experiments/knapen_AOT/AOT_stimuli/rescaled_final/0477_rv.mp4	0.0	332.2566409111023	0.9918129444122314
73	309.39601397514343	movie	1		244	71.0	2.5	/experiments/knapen_AOT/AOT_stimuli/rescaled_final/0477_rv.mp4	0.0	333.2484538555145	2.500307083129883
73	309.7879960536957	pulse	1	t		71.0	2.5	/experiments/knapen_AOT/AOT_stimuli/rescaled_final/0477_rv.mp4	0.0	333.6404359340668	
73	311.38810896873474	pulse	1	t		71.0	2.5	/experiments/knapen_AOT/AOT_stimuli/rescaled_final/0477_rv.mp4	0.0	335.24054884910583	
73	311.8963210582733	fix_post	2		12	71.0	2.5	/experiments/knapen_AOT/AOT_stimuli/rescaled_final/0477_rv.mp4	0.0	335.7487609386444	0.10007786750793457
74	311.99639892578125	fix_pre	0		120	72.0	2.5	/experiments/knapen_AOT/AOT_stimuli/rescaled_final/1802_rv.mp4	0.0	335.84883880615234	1.0001420974731445
74	312.9884979724884	pulse	0	t		72.0	2.5	/experiments/knapen_AOT/AOT_stimuli/rescaled_final/1802_rv.mp4	0.0	336.8409378528595	
74	312.9965410232544	movie	1		244	72.0	2.5	/experiments/knapen_AOT/AOT_stimuli/rescaled_final/1802_rv.mp4	0.0	336.8489809036255	2.5087180137634277
74	314.58960008621216	pulse	1	t		72.0	2.5	/experiments/knapen_AOT/AOT_stimuli/rescaled_final/1802_rv.mp4	0.0	338.44203996658325	
74	315.5052590370178	fix_post	2		12	72.0	2.5	/experiments/knapen_AOT/AOT_stimuli/rescaled_final/1802_rv.mp4	0.0	339.3576989173889	0.10001611709594727
75	315.60527515411377	fix_pre	0		120	73.0	2.5	/experiments/knapen_AOT/AOT_stimuli/rescaled_final/1509_rv.mp4	0.0	339.45771503448486	1.0001537799835205
75	316.1888859272003	pulse	0	t		73.0	2.5	/experiments/knapen_AOT/AOT_stimuli/rescaled_final/1509_rv.mp4	0.0	340.0413258075714	
75	316.6054289340973	movie	1		242	73.0	2.5	/experiments/knapen_AOT/AOT_stimuli/rescaled_final/1509_rv.mp4	0.0	340.4578688144684	2.5003480911254883
75	317.78914308547974	pulse	1	t		73.0	2.5	/experiments/knapen_AOT/AOT_stimuli/rescaled_final/1509_rv.mp4	0.0	341.64158296585083	
75	319.1057770252228	fix_post	2		12	73.0	2.5	/experiments/knapen_AOT/AOT_stimuli/rescaled_final/1509_rv.mp4	0.0	342.9582169055939	0.10000205039978027
76	319.20577907562256	fix_pre	0		120	74.0	2.5	/experiments/knapen_AOT/AOT_stimuli/rescaled_final/0910_fw.mp4	0.0	343.05821895599365	1.000166893005371
76	319.3893630504608	pulse	0	t		74.0	2.5	/experiments/knapen_AOT/AOT_stimuli/rescaled_final/0910_fw.mp4	0.0	343.2418029308319	
76	320.20594596862793	movie	1		243	74.0	2.5	/experiments/knapen_AOT/AOT_stimuli/rescaled_final/0910_fw.mp4	0.0	344.058385848999	2.500352144241333
76	320.9897201061249	pulse	1	t		74.0	2.5	/experiments/knapen_AOT/AOT_stimuli/rescaled_final/0910_fw.mp4	0.0	344.842159986496	
76	322.5898060798645	pulse	1	t		74.0	2.5	/experiments/knapen_AOT/AOT_stimuli/rescaled_final/0910_fw.mp4	0.0	346.4422459602356	
76	322.70629811286926	fix_post	2		12	74.0	2.5	/experiments/knapen_AOT/AOT_stimuli/rescaled_final/0910_fw.mp4	0.0	346.55873799324036	0.10003304481506348
77	322.8063311576843	fix_pre	0		120	75.0	2.5	/experiments/knapen_AOT/AOT_stimuli/rescaled_final/0910_rv.mp4	0.0	346.6587710380554	1.0001418590545654
77	323.8064730167389	movie	1		242	75.0	2.5	/experiments/knapen_AOT/AOT_stimuli/rescaled_final/0910_rv.mp4	0.0	347.65891289711	2.4920461177825928
77	324.19066405296326	pulse	1	t		75.0	2.5	/experiments/knapen_AOT/AOT_stimuli/rescaled_final/0910_rv.mp4	0.0	348.04310393333435	
77	325.783105134964	pulse	1	t		75.0	2.5	/experiments/knapen_AOT/AOT_stimuli/rescaled_final/0910_rv.mp4	0.0	349.6355450153351	
77	326.2985191345215	fix_post	2		12	75.0	2.5	/experiments/knapen_AOT/AOT_stimuli/rescaled_final/0910_rv.mp4	0.0	350.1509590148926	0.10007596015930176
78	326.3985950946808	fix_pre	0		120	76.0	2.5	/experiments/knapen_AOT/AOT_stimuli/rescaled_final/1983_rv.mp4	0.0	350.2510349750519	1.0000908374786377
78	327.3831510543823	pulse	0	t		76.0	2.5	/experiments/knapen_AOT/AOT_stimuli/rescaled_final/1983_rv.mp4	0.0	351.2355909347534	
78	327.3986859321594	movie	1		248	76.0	2.5	/experiments/knapen_AOT/AOT_stimuli/rescaled_final/1983_rv.mp4	0.0	351.2511258125305	2.5087270736694336
78	328.9913890361786	pulse	1	t		76.0	2.5	/experiments/knapen_AOT/AOT_stimuli/rescaled_final/1983_rv.mp4	0.0	352.8438289165497	
78	329.90741300582886	fix_post	2		12	76.0	2.5	/experiments/knapen_AOT/AOT_stimuli/rescaled_final/1983_rv.mp4	0.0	353.75985288619995	0.0999910831451416
79	330.007404088974	fix_pre	0		120	77.0	2.5	blank	1.0	353.8598439693451	1.0002079010009766
79	330.58362913131714	pulse	0	t		77.0	2.5	blank	1.0	354.43606901168823	
79	331.007611989975	movie	1		300	77.0	2.5	blank	1.0	354.86005187034607	2.500326156616211
79	332.18378806114197	pulse	1	t		77.0	2.5	blank	1.0	356.03622794151306	
79	333.5079381465912	fix_post	2		12	77.0	2.5	blank	1.0	357.3603780269623	0.0999917984008789
80	333.60792994499207	fix_pre	0		120	78.0	2.5	/experiments/knapen_AOT/AOT_stimuli/rescaled_final/1770_rv.mp4	0.0	357.46036982536316	1.0001561641693115
80	333.7832860946655	pulse	0	t		78.0	2.5	/experiments/knapen_AOT/AOT_stimuli/rescaled_final/1770_rv.mp4	0.0	357.6357259750366	
80	334.6080861091614	movie	1		243	78.0	2.5	/experiments/knapen_AOT/AOT_stimuli/rescaled_final/1770_rv.mp4	0.0	358.46052598953247	2.500401020050049
80	335.3834171295166	pulse	1	t		78.0	2.5	/experiments/knapen_AOT/AOT_stimuli/rescaled_final/1770_rv.mp4	0.0	359.2358570098877	
80	336.9836230278015	pulse	1	t		78.0	2.5	/experiments/knapen_AOT/AOT_stimuli/rescaled_final/1770_rv.mp4	0.0	360.8360629081726	
80	337.1084871292114	fix_post	2		12	78.0	2.5	/experiments/knapen_AOT/AOT_stimuli/rescaled_final/1770_rv.mp4	0.0	360.9609270095825	0.09998798370361328
81	337.20847511291504	fix_pre	0		119	79.0	2.5	/experiments/knapen_AOT/AOT_stimuli/rescaled_final/0253_fw.mp4	0.0	361.06091499328613	0.9918599128723145
81	338.20033502578735	movie	1		245	79.0	2.5	/experiments/knapen_AOT/AOT_stimuli/rescaled_final/0253_fw.mp4	0.0	362.05277490615845	2.500351905822754
81	338.5850660800934	pulse	1	t		79.0	2.5	/experiments/knapen_AOT/AOT_stimuli/rescaled_final/0253_fw.mp4	0.0	362.4375059604645	
81	340.1840980052948	pulse	1	t		79.0	2.5	/experiments/knapen_AOT/AOT_stimuli/rescaled_final/0253_fw.mp4	0.0	364.0365378856659	
81	340.7006869316101	fix_post	2		12	79.0	2.5	/experiments/knapen_AOT/AOT_stimuli/rescaled_final/0253_fw.mp4	0.0	364.5531268119812	0.1000051498413086
82	340.8006920814514	fix_pre	0		119	80.0	2.5	/experiments/knapen_AOT/AOT_stimuli/rescaled_final/0526_rv.mp4	0.0	364.6531319618225	0.9917969703674316
82	341.7844159603119	pulse	0	t		80.0	2.5	/experiments/knapen_AOT/AOT_stimuli/rescaled_final/0526_rv.mp4	0.0	365.636855840683	
82	341.79248905181885	movie	1		246	80.0	2.5	/experiments/knapen_AOT/AOT_stimuli/rescaled_final/0526_rv.mp4	0.0	365.64492893218994	2.508704900741577
82	343.3851170539856	pulse	1	t		80.0	2.5	/experiments/knapen_AOT/AOT_stimuli/rescaled_final/0526_rv.mp4	0.0	367.2375569343567	
82	344.3011939525604	fix_post	2		12	80.0	2.5	/experiments/knapen_AOT/AOT_stimuli/rescaled_final/0526_rv.mp4	0.0	368.1536338329315	0.10005807876586914
83	344.4012520313263	fix_pre	0		120	81.0	2.5	/experiments/knapen_AOT/AOT_stimuli/rescaled_final/2022_fw.mp4	0.0	368.2536919116974	1.0001299381256104
83	344.98483204841614	pulse	0	t		81.0	2.5	/experiments/knapen_AOT/AOT_stimuli/rescaled_final/2022_fw.mp4	0.0	368.83727192878723	
83	345.4013819694519	movie	1		244	81.0	2.5	/experiments/knapen_AOT/AOT_stimuli/rescaled_final/2022_fw.mp4	0.0	369.253821849823	2.5003809928894043
83	346.58513712882996	pulse	1	t		81.0	2.5	/experiments/knapen_AOT/AOT_stimuli/rescaled_final/2022_fw.mp4	0.0	370.43757700920105	
83	347.9017629623413	fix_post	2		12	81.0	2.5	/experiments/knapen_AOT/AOT_stimuli/rescaled_final/2022_fw.mp4	0.0	371.7542028427124	0.09998512268066406
84	348.001748085022	fix_pre	0		120	82.0	2.5	blank	1.0	371.85418796539307	1.0001540184020996
84	348.18547201156616	pulse	0	t		82.0	2.5	blank	1.0	372.03791189193726	
84	349.0019021034241	movie	1		300	82.0	2.5	blank	1.0	372.85434198379517	2.5003879070281982
84	349.7855169773102	pulse	1	t		82.0	2.5	blank	1.0	373.6379568576813	
84	351.3858230113983	pulse	1	t		82.0	2.5	blank	1.0	375.2382628917694	
84	351.50229001045227	fix_post	2		12	82.0	2.5	blank	1.0	375.35472989082336	0.10003304481506348
85	351.60232305526733	fix_pre	0		120	83.0	2.5	/experiments/knapen_AOT/AOT_stimuli/rescaled_final/1106_rv.mp4	0.0	375.4547629356384	1.0001208782196045
85	352.60244393348694	movie	1		243	83.0	2.5	/experiments/knapen_AOT/AOT_stimuli/rescaled_final/1106_rv.mp4	0.0	376.45488381385803	2.492112159729004
85	352.98653507232666	pulse	1	t		83.0	2.5	/experiments/knapen_AOT/AOT_stimuli/rescaled_final/1106_rv.mp4	0.0	376.83897495269775	
85	354.58641600608826	pulse	1	t		83.0	2.5	/experiments/knapen_AOT/AOT_stimuli/rescaled_final/1106_rv.mp4	0.0	378.43885588645935	
85	355.09455609321594	fix_post	2		12	83.0	2.5	/experiments/knapen_AOT/AOT_stimuli/rescaled_final/1106_rv.mp4	0.0	378.94699597358704	0.09993290901184082
87	355.1944890022278	stim	0		1716					379.0469288825989	14.3022141456604
87	356.18660497665405	pulse	0	t						380.03904485702515	
87	357.7866921424866	pulse	0	t						381.63913202285767	
87	359.3869390487671	pulse	0	t						383.2393789291382	
87	360.9872889518738	pulse	0	t						384.8397288322449	
87	362.58759593963623	pulse	0	t						386.4400358200073	
87	364.1876471042633	pulse	0	t						388.0400869846344	
87	365.7878510951996	pulse	0	t						389.6402909755707	
87	367.3881800174713	pulse	0	t						391.2406198978424	
87	368.9884331226349	pulse	0	t						392.840873003006	
