trial_nr	onset	event_type	phase	response	nr_frames	movie_index	movie_duration	movie_file	blank	onset_abs	duration
0	0.20832395553588867	stim	0		79					18.998199939727783	0.6583840847015381
0	0.8586969375610352	response	0	space						19.64857292175293	
1	0.8667080402374268	stim	0		4499					19.65658402442932	37.510578870773315
1	38.362454891204834	pulse	0	t						57.15233087539673	
1	38.37728691101074	stim	1		1715					57.16716289520264	14.297239065170288
1	39.95606303215027	pulse	1	t						58.74593901634216	
1	41.55641794204712	pulse	1	t						60.346293926239014	
1	43.1567268371582	pulse	1	t						61.9466028213501	
1	44.75682783126831	pulse	1	t						63.546703815460205	
1	46.357014894485474	pulse	1	t						65.14689087867737	
1	47.95731496810913	pulse	1	t						66.74719095230103	
1	49.55762195587158	pulse	1	t						68.34749794006348	
1	51.157811880111694	pulse	1	t						69.94768786430359	
2	52.67452597618103	fix_pre	0		11	0.0	2.5	/experiments/knapen_AOT/AOT_stimuli/rescaled_final/0485_fw.mp4	0.0	71.46440196037292	0.09166884422302246
2	52.75793981552124	pulse	0	t		0.0	2.5	/experiments/knapen_AOT/AOT_stimuli/rescaled_final/0485_fw.mp4	0.0	71.54781579971313	
2	52.76619482040405	movie	1		243	0.0	2.5	/experiments/knapen_AOT/AOT_stimuli/rescaled_final/0485_fw.mp4	0.0	71.55607080459595	2.5087170600891113
2	54.36302995681763	pulse	1	t		0.0	2.5	/experiments/knapen_AOT/AOT_stimuli/rescaled_final/0485_fw.mp4	0.0	73.15290594100952	
2	55.274911880493164	fix_post	2		12	0.0	2.5	/experiments/knapen_AOT/AOT_stimuli/rescaled_final/0485_fw.mp4	0.0	74.06478786468506	0.10000205039978027
3	55.374913930892944	fix_pre	0		120	1.0	2.5	/experiments/knapen_AOT/AOT_stimuli/rescaled_final/2037_fw.mp4	0.0	74.16478991508484	1.000143051147461
3	55.958619832992554	pulse	0	t		1.0	2.5	/experiments/knapen_AOT/AOT_stimuli/rescaled_final/2037_fw.mp4	0.0	74.74849581718445	
3	56.375056982040405	movie	1		243	1.0	2.5	/experiments/knapen_AOT/AOT_stimuli/rescaled_final/2037_fw.mp4	0.0	75.1649329662323	2.500382900238037
3	57.55881094932556	pulse	1	t		1.0	2.5	/experiments/knapen_AOT/AOT_stimuli/rescaled_final/2037_fw.mp4	0.0	76.34868693351746	
3	58.87543988227844	fix_post	2		12	1.0	2.5	/experiments/knapen_AOT/AOT_stimuli/rescaled_final/2037_fw.mp4	0.0	77.66531586647034	0.10002613067626953
4	58.97546601295471	fix_pre	0		120	2.0	2.5	/experiments/knapen_AOT/AOT_stimuli/rescaled_final/1965_fw.mp4	0.0	77.7653419971466	1.0001699924468994
4	59.15156388282776	pulse	0	t		2.0	2.5	/experiments/knapen_AOT/AOT_stimuli/rescaled_final/1965_fw.mp4	0.0	77.94143986701965	
4	59.97563600540161	movie	1		243	2.0	2.5	/experiments/knapen_AOT/AOT_stimuli/rescaled_final/1965_fw.mp4	0.0	78.7655119895935	2.5005249977111816
4	60.75182890892029	pulse	1	t		2.0	2.5	/experiments/knapen_AOT/AOT_stimuli/rescaled_final/1965_fw.mp4	0.0	79.54170489311218	
4	62.35917901992798	pulse	1	t		2.0	2.5	/experiments/knapen_AOT/AOT_stimuli/rescaled_final/1965_fw.mp4	0.0	81.14905500411987	
4	62.47616100311279	fix_post	2		12	2.0	2.5	/experiments/knapen_AOT/AOT_stimuli/rescaled_final/1965_fw.mp4	0.0	81.26603698730469	0.0999150276184082
5	62.5760760307312	fix_pre	0		119	3.0	2.5	/experiments/knapen_AOT/AOT_stimuli/rescaled_final/1657_rv.mp4	0.0	81.3659520149231	0.9917008876800537
5	63.567776918411255	movie	1		242	3.0	2.5	/experiments/knapen_AOT/AOT_stimuli/rescaled_final/1657_rv.mp4	0.0	82.35765290260315	2.500540018081665
5	63.95194697380066	pulse	1	t		3.0	2.5	/experiments/knapen_AOT/AOT_stimuli/rescaled_final/1657_rv.mp4	0.0	82.74182295799255	
5	65.55166983604431	pulse	1	t		3.0	2.5	/experiments/knapen_AOT/AOT_stimuli/rescaled_final/1657_rv.mp4	0.0	84.3415458202362	
5	66.06831693649292	fix_post	2		12	3.0	2.5	/experiments/knapen_AOT/AOT_stimuli/rescaled_final/1657_rv.mp4	0.0	84.85819292068481	0.09992003440856934
6	66.16823697090149	fix_pre	0		119	4.0	2.5	/experiments/knapen_AOT/AOT_stimuli/rescaled_final/1840_fw.mp4	0.0	84.95811295509338	0.9917519092559814
6	67.15182590484619	pulse	0	t		4.0	2.5	/experiments/knapen_AOT/AOT_stimuli/rescaled_final/1840_fw.mp4	0.0	85.94170188903809	
6	67.15998888015747	movie	1		243	4.0	2.5	/experiments/knapen_AOT/AOT_stimuli/rescaled_final/1840_fw.mp4	0.0	85.94986486434937	2.508772134780884
6	68.7523238658905	pulse	1	t		4.0	2.5	/experiments/knapen_AOT/AOT_stimuli/rescaled_final/1840_fw.mp4	0.0	87.5421998500824	
6	69.66876101493835	fix_post	2		12	4.0	2.5	/experiments/knapen_AOT/AOT_stimuli/rescaled_final/1840_fw.mp4	0.0	88.45863699913025	0.09993100166320801
7	69.76869201660156	fix_pre	0		120	5.0	2.5	/experiments/knapen_AOT/AOT_stimuli/rescaled_final/0016_rv.mp4	0.0	88.55856800079346	1.0001678466796875
7	70.35237884521484	pulse	0	t		5.0	2.5	/experiments/knapen_AOT/AOT_stimuli/rescaled_final/0016_rv.mp4	0.0	89.14225482940674	
7	70.76885986328125	movie	1		242	5.0	2.5	/experiments/knapen_AOT/AOT_stimuli/rescaled_final/0016_rv.mp4	0.0	89.55873584747314	2.5004940032958984
7	71.9527359008789	pulse	1	t		5.0	2.5	/experiments/knapen_AOT/AOT_stimuli/rescaled_final/0016_rv.mp4	0.0	90.7426118850708	
7	73.26935386657715	fix_post	2		12	5.0	2.5	/experiments/knapen_AOT/AOT_stimuli/rescaled_final/0016_rv.mp4	0.0	92.05922985076904	0.09992694854736328
8	73.36928081512451	fix_pre	0		120	6.0	2.5	blank	1.0	92.1591567993164	1.000148057937622
8	73.55276894569397	pulse	0	t		6.0	2.5	blank	1.0	92.34264492988586	
8	74.36942887306213	movie	1		300	6.0	2.5	blank	1.0	93.15930485725403	2.5003480911254883
8	75.15300393104553	pulse	1	t		6.0	2.5	blank	1.0	93.94287991523743	
8	76.75320792198181	pulse	1	t		6.0	2.5	blank	1.0	95.5430839061737	
8	76.86977696418762	fix_post	2		12	6.0	2.5	blank	1.0	95.65965294837952	0.09996986389160156
9	76.96974682807922	fix_pre	0		120	7.0	2.5	/experiments/knapen_AOT/AOT_stimuli/rescaled_final/1380_rv.mp4	0.0	95.75962281227112	1.0001561641693115
9	77.96990299224854	movie	1		241	7.0	2.5	/experiments/knapen_AOT/AOT_stimuli/rescaled_final/1380_rv.mp4	0.0	96.75977897644043	2.4921250343322754
9	78.3539469242096	pulse	1	t		7.0	2.5	/experiments/knapen_AOT/AOT_stimuli/rescaled_final/1380_rv.mp4	0.0	97.14382290840149	
9	79.95387196540833	pulse	1	t		7.0	2.5	/experiments/knapen_AOT/AOT_stimuli/rescaled_final/1380_rv.mp4	0.0	98.74374794960022	
9	80.46202802658081	fix_post	2		12	7.0	2.5	/experiments/knapen_AOT/AOT_stimuli/rescaled_final/1380_rv.mp4	0.0	99.2519040107727	0.10002899169921875
10	80.56205701828003	fix_pre	0		120	8.0	2.5	/experiments/knapen_AOT/AOT_stimuli/rescaled_final/2176_rv.mp4	0.0	99.35193300247192	1.0000989437103271
10	81.55392003059387	pulse	0	t		8.0	2.5	/experiments/knapen_AOT/AOT_stimuli/rescaled_final/2176_rv.mp4	0.0	100.34379601478577	
10	81.56215596199036	movie	1		244	8.0	2.5	/experiments/knapen_AOT/AOT_stimuli/rescaled_final/2176_rv.mp4	0.0	100.35203194618225	2.5086910724639893
10	83.15870404243469	pulse	1	t		8.0	2.5	/experiments/knapen_AOT/AOT_stimuli/rescaled_final/2176_rv.mp4	0.0	101.94858002662659	
10	84.07084703445435	fix_post	2		12	8.0	2.5	/experiments/knapen_AOT/AOT_stimuli/rescaled_final/2176_rv.mp4	0.0	102.86072301864624	0.1000359058380127
11	84.17088294029236	fix_pre	0		120	9.0	2.5	/experiments/knapen_AOT/AOT_stimuli/rescaled_final/0424_rv.mp4	0.0	102.96075892448425	1.0000829696655273
11	84.75451493263245	pulse	0	t		9.0	2.5	/experiments/knapen_AOT/AOT_stimuli/rescaled_final/0424_rv.mp4	0.0	103.54439091682434	
11	85.17096590995789	movie	1		242	9.0	2.5	/experiments/knapen_AOT/AOT_stimuli/rescaled_final/0424_rv.mp4	0.0	103.96084189414978	2.5214929580688477
11	86.35478782653809	pulse	1	t		9.0	2.5	/experiments/knapen_AOT/AOT_stimuli/rescaled_final/0424_rv.mp4	0.0	105.14466381072998	
11	87.69245886802673	fix_post	2		10	9.0	2.5	/experiments/knapen_AOT/AOT_stimuli/rescaled_final/0424_rv.mp4	0.0	106.48233485221863	0.07893800735473633
12	87.77139687538147	fix_pre	0		120	10.0	2.5	/experiments/knapen_AOT/AOT_stimuli/rescaled_final/1303_fw.mp4	0.0	106.56127285957336	1.0001420974731445
12	87.9549310207367	pulse	0	t		10.0	2.5	/experiments/knapen_AOT/AOT_stimuli/rescaled_final/1303_fw.mp4	0.0	106.74480700492859	
12	88.77153897285461	movie	1		242	10.0	2.5	/experiments/knapen_AOT/AOT_stimuli/rescaled_final/1303_fw.mp4	0.0	107.56141495704651	2.5004689693450928
12	89.55520582199097	pulse	1	t		10.0	2.5	/experiments/knapen_AOT/AOT_stimuli/rescaled_final/1303_fw.mp4	0.0	108.34508180618286	
12	91.15563488006592	pulse	1	t		10.0	2.5	/experiments/knapen_AOT/AOT_stimuli/rescaled_final/1303_fw.mp4	0.0	109.94551086425781	
12	91.2720079421997	fix_post	2		12	10.0	2.5	/experiments/knapen_AOT/AOT_stimuli/rescaled_final/1303_fw.mp4	0.0	110.0618839263916	0.09993195533752441
13	91.37193989753723	fix_pre	0		120	11.0	2.5	/experiments/knapen_AOT/AOT_stimuli/rescaled_final/0181_rv.mp4	0.0	110.16181588172913	1.0001440048217773
13	92.37208390235901	movie	1		243	11.0	2.5	/experiments/knapen_AOT/AOT_stimuli/rescaled_final/0181_rv.mp4	0.0	111.1619598865509	2.4920310974121094
13	92.75634789466858	pulse	1	t		11.0	2.5	/experiments/knapen_AOT/AOT_stimuli/rescaled_final/0181_rv.mp4	0.0	111.54622387886047	
13	94.35591197013855	pulse	1	t		11.0	2.5	/experiments/knapen_AOT/AOT_stimuli/rescaled_final/0181_rv.mp4	0.0	113.14578795433044	
13	94.86411499977112	fix_post	2		12	11.0	2.5	/experiments/knapen_AOT/AOT_stimuli/rescaled_final/0181_rv.mp4	0.0	113.65399098396301	0.10004281997680664
14	94.96415781974792	fix_pre	0		120	12.0	2.5	blank	1.0	113.75403380393982	1.0001320838928223
14	95.95608592033386	pulse	0	t		12.0	2.5	blank	1.0	114.74596190452576	
14	95.96428990364075	movie	1		301	12.0	2.5	blank	1.0	114.75416588783264	2.508687973022461
14	97.55639386177063	pulse	1	t		12.0	2.5	blank	1.0	116.34626984596252	
14	98.47297787666321	fix_post	2		12	12.0	2.5	blank	1.0	117.2628538608551	0.10001897811889648
15	98.5729968547821	fix_pre	0		120	13.0	2.5	/experiments/knapen_AOT/AOT_stimuli/rescaled_final/1928_rv.mp4	0.0	117.362872838974	1.0001790523529053
15	99.15658593177795	pulse	0	t		13.0	2.5	/experiments/knapen_AOT/AOT_stimuli/rescaled_final/1928_rv.mp4	0.0	117.94646191596985	
15	99.57317590713501	movie	1		243	13.0	2.5	/experiments/knapen_AOT/AOT_stimuli/rescaled_final/1928_rv.mp4	0.0	118.3630518913269	2.500462055206299
15	100.75319695472717	pulse	1	t		13.0	2.5	/experiments/knapen_AOT/AOT_stimuli/rescaled_final/1928_rv.mp4	0.0	119.54307293891907	
15	102.07363796234131	fix_post	2		12	13.0	2.5	/experiments/knapen_AOT/AOT_stimuli/rescaled_final/1928_rv.mp4	0.0	120.8635139465332	0.09999704360961914
16	102.17363500595093	fix_pre	0		120	14.0	2.5	/experiments/knapen_AOT/AOT_stimuli/rescaled_final/2103_fw.mp4	0.0	120.96351099014282	1.0000369548797607
16	102.35704588890076	pulse	0	t		14.0	2.5	/experiments/knapen_AOT/AOT_stimuli/rescaled_final/2103_fw.mp4	0.0	121.14692187309265	
16	103.17367196083069	movie	1		242	14.0	2.5	/experiments/knapen_AOT/AOT_stimuli/rescaled_final/2103_fw.mp4	0.0	121.96354794502258	2.500627040863037
16	103.95741081237793	pulse	1	t		14.0	2.5	/experiments/knapen_AOT/AOT_stimuli/rescaled_final/2103_fw.mp4	0.0	122.74728679656982	
16	105.55778384208679	pulse	1	t		14.0	2.5	/experiments/knapen_AOT/AOT_stimuli/rescaled_final/2103_fw.mp4	0.0	124.34765982627869	
16	105.67429900169373	fix_post	2		12	14.0	2.5	/experiments/knapen_AOT/AOT_stimuli/rescaled_final/2103_fw.mp4	0.0	124.46417498588562	0.0998239517211914
17	105.77412295341492	fix_pre	0		120	15.0	2.5	/experiments/knapen_AOT/AOT_stimuli/rescaled_final/1751_rv.mp4	0.0	124.56399893760681	1.0001099109649658
17	106.77423286437988	movie	1		241	15.0	2.5	/experiments/knapen_AOT/AOT_stimuli/rescaled_final/1751_rv.mp4	0.0	125.56410884857178	2.492216110229492
17	107.15849590301514	pulse	1	t		15.0	2.5	/experiments/knapen_AOT/AOT_stimuli/rescaled_final/1751_rv.mp4	0.0	125.94837188720703	
17	108.7579710483551	pulse	1	t		15.0	2.5	/experiments/knapen_AOT/AOT_stimuli/rescaled_final/1751_rv.mp4	0.0	127.547847032547	
17	109.26644897460938	fix_post	2		12	15.0	2.5	/experiments/knapen_AOT/AOT_stimuli/rescaled_final/1751_rv.mp4	0.0	128.05632495880127	0.09984087944030762
18	109.36628985404968	fix_pre	0		120	16.0	2.5	/experiments/knapen_AOT/AOT_stimuli/rescaled_final/1416_fw.mp4	0.0	128.15616583824158	1.0001211166381836
18	110.35837602615356	pulse	0	t		16.0	2.5	/experiments/knapen_AOT/AOT_stimuli/rescaled_final/1416_fw.mp4	0.0	129.14825201034546	
18	110.36641097068787	movie	1		244	16.0	2.5	/experiments/knapen_AOT/AOT_stimuli/rescaled_final/1416_fw.mp4	0.0	129.15628695487976	2.5088610649108887
18	111.95913481712341	pulse	1	t		16.0	2.5	/experiments/knapen_AOT/AOT_stimuli/rescaled_final/1416_fw.mp4	0.0	130.7490108013153	
18	112.87527203559875	fix_post	2		12	16.0	2.5	/experiments/knapen_AOT/AOT_stimuli/rescaled_final/1416_fw.mp4	0.0	131.66514801979065	0.0998988151550293
19	112.97517085075378	fix_pre	0		120	17.0	2.5	/experiments/knapen_AOT/AOT_stimuli/rescaled_final/1719_fw.mp4	0.0	131.76504683494568	1.0001461505889893
19	113.55873394012451	pulse	0	t		17.0	2.5	/experiments/knapen_AOT/AOT_stimuli/rescaled_final/1719_fw.mp4	0.0	132.3486099243164	
19	113.97531700134277	movie	1		242	17.0	2.5	/experiments/knapen_AOT/AOT_stimuli/rescaled_final/1719_fw.mp4	0.0	132.76519298553467	2.5004618167877197
19	115.15907382965088	pulse	1	t		17.0	2.5	/experiments/knapen_AOT/AOT_stimuli/rescaled_final/1719_fw.mp4	0.0	133.94894981384277	
19	116.4757788181305	fix_post	2		12	17.0	2.5	/experiments/knapen_AOT/AOT_stimuli/rescaled_final/1719_fw.mp4	0.0	135.2656548023224	0.0999150276184082
20	116.5756938457489	fix_pre	0		120	18.0	2.5	/experiments/knapen_AOT/AOT_stimuli/rescaled_final/2050_fw.mp4	0.0	135.3655698299408	1.000136137008667
20	116.75934886932373	pulse	0	t		18.0	2.5	/experiments/knapen_AOT/AOT_stimuli/rescaled_final/2050_fw.mp4	0.0	135.54922485351562	
20	117.57582998275757	movie	1		242	18.0	2.5	/experiments/knapen_AOT/AOT_stimuli/rescaled_final/2050_fw.mp4	0.0	136.36570596694946	2.5005860328674316
20	118.35203099250793	pulse	1	t		18.0	2.5	/experiments/knapen_AOT/AOT_stimuli/rescaled_final/2050_fw.mp4	0.0	137.14190697669983	
20	119.95961999893188	pulse	1	t		18.0	2.5	/experiments/knapen_AOT/AOT_stimuli/rescaled_final/2050_fw.mp4	0.0	138.74949598312378	
20	120.076416015625	fix_post	2		12	18.0	2.5	/experiments/knapen_AOT/AOT_stimuli/rescaled_final/2050_fw.mp4	0.0	138.8662919998169	0.09985184669494629
21	120.17626786231995	fix_pre	0		120	19.0	2.5	blank	1.0	138.96614384651184	1.0000779628753662
21	121.17634582519531	movie	1		299	19.0	2.5	blank	1.0	139.9662218093872	2.4920899868011475
21	121.55263996124268	pulse	1	t		19.0	2.5	blank	1.0	140.34251594543457	
21	123.15258693695068	pulse	1	t		19.0	2.5	blank	1.0	141.94246292114258	
21	123.66843581199646	fix_post	2		12	19.0	2.5	blank	1.0	142.45831179618835	0.10004019737243652
22	123.7684760093689	fix_pre	0		119	20.0	2.5	/experiments/knapen_AOT/AOT_stimuli/rescaled_final/0092_rv.mp4	0.0	142.5583519935608	0.9917929172515869
22	124.75206589698792	pulse	0	t		20.0	2.5	/experiments/knapen_AOT/AOT_stimuli/rescaled_final/0092_rv.mp4	0.0	143.5419418811798	
22	124.76026892662048	movie	1		243	20.0	2.5	/experiments/knapen_AOT/AOT_stimuli/rescaled_final/0092_rv.mp4	0.0	143.55014491081238	2.5086889266967773
22	126.35283493995667	pulse	1	t		20.0	2.5	/experiments/knapen_AOT/AOT_stimuli/rescaled_final/0092_rv.mp4	0.0	145.14271092414856	
22	127.26895785331726	fix_post	2		12	20.0	2.5	/experiments/knapen_AOT/AOT_stimuli/rescaled_final/0092_rv.mp4	0.0	146.05883383750916	0.10006499290466309
23	127.36902284622192	fix_pre	0		120	21.0	2.5	/experiments/knapen_AOT/AOT_stimuli/rescaled_final/0331_rv.mp4	0.0	146.15889883041382	1.000101089477539
23	127.95268201828003	pulse	0	t		21.0	2.5	/experiments/knapen_AOT/AOT_stimuli/rescaled_final/0331_rv.mp4	0.0	146.74255800247192	
23	128.36912393569946	movie	1		242	21.0	2.5	/experiments/knapen_AOT/AOT_stimuli/rescaled_final/0331_rv.mp4	0.0	147.15899991989136	2.500570058822632
23	129.55284786224365	pulse	1	t		21.0	2.5	/experiments/knapen_AOT/AOT_stimuli/rescaled_final/0331_rv.mp4	0.0	148.34272384643555	
23	130.8696939945221	fix_post	2		12	21.0	2.5	/experiments/knapen_AOT/AOT_stimuli/rescaled_final/0331_rv.mp4	0.0	149.659569978714	0.09984302520751953
24	130.96953701972961	fix_pre	0		120	22.0	2.5	/experiments/knapen_AOT/AOT_stimuli/rescaled_final/0696_fw.mp4	0.0	149.7594130039215	1.0001168251037598
24	131.15298295021057	pulse	0	t		22.0	2.5	/experiments/knapen_AOT/AOT_stimuli/rescaled_final/0696_fw.mp4	0.0	149.94285893440247	
24	131.96965384483337	movie	1		242	22.0	2.5	/experiments/knapen_AOT/AOT_stimuli/rescaled_final/0696_fw.mp4	0.0	150.75952982902527	2.5005509853363037
24	132.75332903862	pulse	1	t		22.0	2.5	/experiments/knapen_AOT/AOT_stimuli/rescaled_final/0696_fw.mp4	0.0	151.5432050228119	
24	134.3533229827881	pulse	1	t		22.0	2.5	/experiments/knapen_AOT/AOT_stimuli/rescaled_final/0696_fw.mp4	0.0	153.14319896697998	
24	134.47020483016968	fix_post	2		12	22.0	2.5	/experiments/knapen_AOT/AOT_stimuli/rescaled_final/0696_fw.mp4	0.0	153.26008081436157	0.0998830795288086
25	134.5700879096985	fix_pre	0		119	23.0	2.5	/experiments/knapen_AOT/AOT_stimuli/rescaled_final/1289_rv.mp4	0.0	153.35996389389038	0.9917600154876709
25	135.56184792518616	movie	1		242	23.0	2.5	/experiments/knapen_AOT/AOT_stimuli/rescaled_final/1289_rv.mp4	0.0	154.35172390937805	2.5006229877471924
25	135.9538688659668	pulse	1	t		23.0	2.5	/experiments/knapen_AOT/AOT_stimuli/rescaled_final/1289_rv.mp4	0.0	154.7437448501587	
25	137.5539848804474	pulse	1	t		23.0	2.5	/experiments/knapen_AOT/AOT_stimuli/rescaled_final/1289_rv.mp4	0.0	156.34386086463928	
25	138.06247091293335	fix_post	2		12	23.0	2.5	/experiments/knapen_AOT/AOT_stimuli/rescaled_final/1289_rv.mp4	0.0	156.85234689712524	0.09981513023376465
26	138.16228604316711	fix_pre	0		120	24.0	2.5	/experiments/knapen_AOT/AOT_stimuli/rescaled_final/1367_fw.mp4	0.0	156.952162027359	1.0001029968261719
26	139.15437984466553	pulse	0	t		24.0	2.5	/experiments/knapen_AOT/AOT_stimuli/rescaled_final/1367_fw.mp4	0.0	157.94425582885742	
26	139.1623890399933	movie	1		243	24.0	2.5	/experiments/knapen_AOT/AOT_stimuli/rescaled_final/1367_fw.mp4	0.0	157.95226502418518	2.508791923522949
26	140.75579690933228	pulse	1	t		24.0	2.5	/experiments/knapen_AOT/AOT_stimuli/rescaled_final/1367_fw.mp4	0.0	159.54567289352417	
26	141.67118096351624	fix_post	2		12	24.0	2.5	/experiments/knapen_AOT/AOT_stimuli/rescaled_final/1367_fw.mp4	0.0	160.46105694770813	0.09998106956481934
27	141.77116203308105	fix_pre	0		120	25.0	2.5	/experiments/knapen_AOT/AOT_stimuli/rescaled_final/1519_fw.mp4	0.0	160.56103801727295	1.0001068115234375
27	142.35471391677856	pulse	0	t		25.0	2.5	/experiments/knapen_AOT/AOT_stimuli/rescaled_final/1519_fw.mp4	0.0	161.14458990097046	
27	142.7712688446045	movie	1		242	25.0	2.5	/experiments/knapen_AOT/AOT_stimuli/rescaled_final/1519_fw.mp4	0.0	161.5611448287964	2.500568151473999
27	143.95499300956726	pulse	1	t		25.0	2.5	/experiments/knapen_AOT/AOT_stimuli/rescaled_final/1519_fw.mp4	0.0	162.74486899375916	
27	145.2718369960785	fix_post	2		12	25.0	2.5	/experiments/knapen_AOT/AOT_stimuli/rescaled_final/1519_fw.mp4	0.0	164.06171298027039	0.09985184669494629
28	145.37168884277344	fix_pre	0		120	26.0	2.5	/experiments/knapen_AOT/AOT_stimuli/rescaled_final/0060_fw.mp4	0.0	164.16156482696533	1.0001001358032227
28	145.5551619529724	pulse	0	t		26.0	2.5	/experiments/knapen_AOT/AOT_stimuli/rescaled_final/0060_fw.mp4	0.0	164.3450379371643	
28	146.37178897857666	movie	1		243	26.0	2.5	/experiments/knapen_AOT/AOT_stimuli/rescaled_final/0060_fw.mp4	0.0	165.16166496276855	2.500342845916748
28	147.1555700302124	pulse	1	t		26.0	2.5	/experiments/knapen_AOT/AOT_stimuli/rescaled_final/0060_fw.mp4	0.0	165.9454460144043	
28	148.75694489479065	pulse	1	t		26.0	2.5	/experiments/knapen_AOT/AOT_stimuli/rescaled_final/0060_fw.mp4	0.0	167.54682087898254	
28	148.8721318244934	fix_post	2		12	26.0	2.5	/experiments/knapen_AOT/AOT_stimuli/rescaled_final/0060_fw.mp4	0.0	167.6620078086853	0.10006022453308105
29	148.9721920490265	fix_pre	0		120	27.0	2.5	/experiments/knapen_AOT/AOT_stimuli/rescaled_final/0293_fw.mp4	0.0	167.76206803321838	1.0001919269561768
29	149.97238397598267	movie	1		241	27.0	2.5	/experiments/knapen_AOT/AOT_stimuli/rescaled_final/0293_fw.mp4	0.0	168.76225996017456	2.492142915725708
29	150.3563449382782	pulse	1	t		27.0	2.5	/experiments/knapen_AOT/AOT_stimuli/rescaled_final/0293_fw.mp4	0.0	169.1462209224701	
29	151.9561789035797	pulse	1	t		27.0	2.5	/experiments/knapen_AOT/AOT_stimuli/rescaled_final/0293_fw.mp4	0.0	170.7460548877716	
29	152.46452689170837	fix_post	2		12	27.0	2.5	/experiments/knapen_AOT/AOT_stimuli/rescaled_final/0293_fw.mp4	0.0	171.25440287590027	0.0998690128326416
30	152.56439590454102	fix_pre	0		120	28.0	2.5	blank	1.0	171.3542718887329	1.0001630783081055
30	153.55649781227112	pulse	0	t		28.0	2.5	blank	1.0	172.346373796463	
30	153.56455898284912	movie	1		301	28.0	2.5	blank	1.0	172.35443496704102	2.508671998977661
30	155.15673398971558	pulse	1	t		28.0	2.5	blank	1.0	173.94660997390747	
30	156.07323098182678	fix_post	2		12	28.0	2.5	blank	1.0	174.86310696601868	0.10004806518554688
31	156.17327904701233	fix_pre	0		120	29.0	2.5	/experiments/knapen_AOT/AOT_stimuli/rescaled_final/1719_fw.mp4	0.0	174.96315503120422	1.0001509189605713
31	156.7568759918213	pulse	0	t		29.0	2.5	/experiments/knapen_AOT/AOT_stimuli/rescaled_final/1719_fw.mp4	0.0	175.54675197601318	
31	157.1734299659729	movie	1		243	29.0	2.5	/experiments/knapen_AOT/AOT_stimuli/rescaled_final/1719_fw.mp4	0.0	175.9633059501648	2.5003910064697266
31	158.3571720123291	pulse	1	t		29.0	2.5	/experiments/knapen_AOT/AOT_stimuli/rescaled_final/1719_fw.mp4	0.0	177.147047996521	
31	159.67382097244263	fix_post	2		12	29.0	2.5	/experiments/knapen_AOT/AOT_stimuli/rescaled_final/1719_fw.mp4	0.0	178.46369695663452	0.0999748706817627
32	159.7737958431244	fix_pre	0		120	30.0	2.5	/experiments/knapen_AOT/AOT_stimuli/rescaled_final/1861_rv.mp4	0.0	178.56367182731628	1.0001451969146729
32	159.95735883712769	pulse	0	t		30.0	2.5	/experiments/knapen_AOT/AOT_stimuli/rescaled_final/1861_rv.mp4	0.0	178.74723482131958	
32	160.77394104003906	movie	1		242	30.0	2.5	/experiments/knapen_AOT/AOT_stimuli/rescaled_final/1861_rv.mp4	0.0	179.56381702423096	2.500598907470703
32	161.5576708316803	pulse	1	t		30.0	2.5	/experiments/knapen_AOT/AOT_stimuli/rescaled_final/1861_rv.mp4	0.0	180.3475468158722	
32	163.15762400627136	pulse	1	t		30.0	2.5	/experiments/knapen_AOT/AOT_stimuli/rescaled_final/1861_rv.mp4	0.0	181.94749999046326	
32	163.27453994750977	fix_post	2		9	30.0	2.5	/experiments/knapen_AOT/AOT_stimuli/rescaled_final/1861_rv.mp4	0.0	182.06441593170166	0.09984803199768066
33	163.37438797950745	fix_pre	0		120	31.0	2.5	/experiments/knapen_AOT/AOT_stimuli/rescaled_final/0022_rv.mp4	0.0	182.16426396369934	1.000074863433838
33	164.37446284294128	movie	1		243	31.0	2.5	/experiments/knapen_AOT/AOT_stimuli/rescaled_final/0022_rv.mp4	0.0	183.16433882713318	2.4921112060546875
33	164.75865387916565	pulse	1	t		31.0	2.5	/experiments/knapen_AOT/AOT_stimuli/rescaled_final/0022_rv.mp4	0.0	183.54852986335754	
33	166.35837483406067	pulse	1	t		31.0	2.5	/experiments/knapen_AOT/AOT_stimuli/rescaled_final/0022_rv.mp4	0.0	185.14825081825256	
33	166.86657404899597	fix_post	2		12	31.0	2.5	/experiments/knapen_AOT/AOT_stimuli/rescaled_final/0022_rv.mp4	0.0	185.65645003318787	0.09999680519104004
34	166.966570854187	fix_pre	0		120	32.0	2.5	/experiments/knapen_AOT/AOT_stimuli/rescaled_final/0744_rv.mp4	0.0	185.7564468383789	1.0001089572906494
34	167.95863890647888	pulse	0	t		32.0	2.5	/experiments/knapen_AOT/AOT_stimuli/rescaled_final/0744_rv.mp4	0.0	186.74851489067078	
34	167.96667981147766	movie	1		245	32.0	2.5	/experiments/knapen_AOT/AOT_stimuli/rescaled_final/0744_rv.mp4	0.0	186.75655579566956	2.5087032318115234
34	169.55988693237305	pulse	1	t		32.0	2.5	/experiments/knapen_AOT/AOT_stimuli/rescaled_final/0744_rv.mp4	0.0	188.34976291656494	
34	170.47538304328918	fix_post	2		12	32.0	2.5	/experiments/knapen_AOT/AOT_stimuli/rescaled_final/0744_rv.mp4	0.0	189.26525902748108	0.10007286071777344
35	170.57545590400696	fix_pre	0		120	33.0	2.5	/experiments/knapen_AOT/AOT_stimuli/rescaled_final/1657_fw.mp4	0.0	189.36533188819885	1.000119924545288
35	171.1589949131012	pulse	0	t		33.0	2.5	/experiments/knapen_AOT/AOT_stimuli/rescaled_final/1657_fw.mp4	0.0	189.9488708972931	
35	171.57557582855225	movie	1		242	33.0	2.5	/experiments/knapen_AOT/AOT_stimuli/rescaled_final/1657_fw.mp4	0.0	190.36545181274414	2.5006091594696045
35	172.75232195854187	pulse	1	t		33.0	2.5	/experiments/knapen_AOT/AOT_stimuli/rescaled_final/1657_fw.mp4	0.0	191.54219794273376	
35	174.07618498802185	fix_post	2		12	33.0	2.5	/experiments/knapen_AOT/AOT_stimuli/rescaled_final/1657_fw.mp4	0.0	192.86606097221375	0.09985184669494629
36	174.1760368347168	fix_pre	0		120	34.0	2.5	/experiments/knapen_AOT/AOT_stimuli/rescaled_final/0533_fw.mp4	0.0	192.9659128189087	1.0000641345977783
36	174.35191798210144	pulse	0	t		34.0	2.5	/experiments/knapen_AOT/AOT_stimuli/rescaled_final/0533_fw.mp4	0.0	193.14179396629333	
36	175.17610096931458	movie	1		243	34.0	2.5	/experiments/knapen_AOT/AOT_stimuli/rescaled_final/0533_fw.mp4	0.0	193.96597695350647	2.500385046005249
36	175.9523060321808	pulse	1	t		34.0	2.5	/experiments/knapen_AOT/AOT_stimuli/rescaled_final/0533_fw.mp4	0.0	194.74218201637268	
36	177.55169486999512	pulse	1	t		34.0	2.5	/experiments/knapen_AOT/AOT_stimuli/rescaled_final/0533_fw.mp4	0.0	196.341570854187	
36	177.67648601531982	fix_post	2		12	34.0	2.5	/experiments/knapen_AOT/AOT_stimuli/rescaled_final/0533_fw.mp4	0.0	196.46636199951172	0.10004186630249023
37	177.77652788162231	fix_pre	0		120	35.0	2.5	blank	1.0	196.5664038658142	1.0001511573791504
37	178.77667903900146	movie	1		299	35.0	2.5	blank	1.0	197.56655502319336	2.492034912109375
37	179.15181183815002	pulse	1	t		35.0	2.5	blank	1.0	197.94168782234192	
37	180.75204300880432	pulse	1	t		35.0	2.5	blank	1.0	199.54191899299622	
37	181.26871395111084	fix_post	2		12	35.0	2.5	blank	1.0	200.05858993530273	0.10001492500305176
38	181.3687288761139	fix_pre	0		119	36.0	2.5	/experiments/knapen_AOT/AOT_stimuli/rescaled_final/0137_rv.mp4	0.0	200.1586048603058	0.9918229579925537
38	182.35234904289246	pulse	0	t		36.0	2.5	/experiments/knapen_AOT/AOT_stimuli/rescaled_final/0137_rv.mp4	0.0	201.14222502708435	
38	182.36055183410645	movie	1		243	36.0	2.5	/experiments/knapen_AOT/AOT_stimuli/rescaled_final/0137_rv.mp4	0.0	201.15042781829834	2.5087180137634277
38	183.95319604873657	pulse	1	t		36.0	2.5	/experiments/knapen_AOT/AOT_stimuli/rescaled_final/0137_rv.mp4	0.0	202.74307203292847	
38	184.86926984786987	fix_post	2		12	36.0	2.5	/experiments/knapen_AOT/AOT_stimuli/rescaled_final/0137_rv.mp4	0.0	203.65914583206177	0.09999418258666992
39	184.96926403045654	fix_pre	0		120	37.0	2.5	/experiments/knapen_AOT/AOT_stimuli/rescaled_final/0424_fw.mp4	0.0	203.75914001464844	1.0000898838043213
39	185.5528450012207	pulse	0	t		37.0	2.5	/experiments/knapen_AOT/AOT_stimuli/rescaled_final/0424_fw.mp4	0.0	204.3427209854126	
39	185.96935391426086	movie	1		243	37.0	2.5	/experiments/knapen_AOT/AOT_stimuli/rescaled_final/0424_fw.mp4	0.0	204.75922989845276	2.5004889965057373
39	187.15310883522034	pulse	1	t		37.0	2.5	/experiments/knapen_AOT/AOT_stimuli/rescaled_final/0424_fw.mp4	0.0	205.94298481941223	
39	188.4698429107666	fix_post	2		12	37.0	2.5	/experiments/knapen_AOT/AOT_stimuli/rescaled_final/0424_fw.mp4	0.0	207.2597188949585	0.09989595413208008
40	188.56973886489868	fix_pre	0		120	38.0	2.5	/experiments/knapen_AOT/AOT_stimuli/rescaled_final/1026_rv.mp4	0.0	207.35961484909058	1.0001540184020996
40	188.75328493118286	pulse	0	t		38.0	2.5	/experiments/knapen_AOT/AOT_stimuli/rescaled_final/1026_rv.mp4	0.0	207.54316091537476	
40	189.56989288330078	movie	1		243	38.0	2.5	/experiments/knapen_AOT/AOT_stimuli/rescaled_final/1026_rv.mp4	0.0	208.35976886749268	2.5005381107330322
40	190.35357689857483	pulse	1	t		38.0	2.5	/experiments/knapen_AOT/AOT_stimuli/rescaled_final/1026_rv.mp4	0.0	209.14345288276672	
40	191.95393300056458	pulse	1	t		38.0	2.5	/experiments/knapen_AOT/AOT_stimuli/rescaled_final/1026_rv.mp4	0.0	210.74380898475647	
40	192.0704309940338	fix_post	2		12	38.0	2.5	/experiments/knapen_AOT/AOT_stimuli/rescaled_final/1026_rv.mp4	0.0	210.8603069782257	0.09988999366760254
41	192.17032098770142	fix_pre	0		120	39.0	2.5	/experiments/knapen_AOT/AOT_stimuli/rescaled_final/0341_rv.mp4	0.0	210.9601969718933	1.0001070499420166
41	193.17042803764343	movie	1		243	39.0	2.5	/experiments/knapen_AOT/AOT_stimuli/rescaled_final/0341_rv.mp4	0.0	211.96030402183533	2.4921059608459473
41	193.55842185020447	pulse	1	t		39.0	2.5	/experiments/knapen_AOT/AOT_stimuli/rescaled_final/0341_rv.mp4	0.0	212.34829783439636	
41	195.15435004234314	pulse	1	t		39.0	2.5	/experiments/knapen_AOT/AOT_stimuli/rescaled_final/0341_rv.mp4	0.0	213.94422602653503	
41	195.66253399848938	fix_post	2		12	39.0	2.5	/experiments/knapen_AOT/AOT_stimuli/rescaled_final/0341_rv.mp4	0.0	214.45240998268127	0.10005998611450195
42	195.76259398460388	fix_pre	0		120	40.0	2.5	/experiments/knapen_AOT/AOT_stimuli/rescaled_final/0006_fw.mp4	0.0	214.55246996879578	1.0000698566436768
42	196.75449395179749	pulse	0	t		40.0	2.5	/experiments/knapen_AOT/AOT_stimuli/rescaled_final/0006_fw.mp4	0.0	215.54436993598938	
42	196.76266384124756	movie	1		243	40.0	2.5	/experiments/knapen_AOT/AOT_stimuli/rescaled_final/0006_fw.mp4	0.0	215.55253982543945	2.508740186691284
42	198.35544896125793	pulse	1	t		40.0	2.5	/experiments/knapen_AOT/AOT_stimuli/rescaled_final/0006_fw.mp4	0.0	217.14532494544983	
42	199.27140402793884	fix_post	2		12	40.0	2.5	/experiments/knapen_AOT/AOT_stimuli/rescaled_final/0006_fw.mp4	0.0	218.06128001213074	0.09999394416809082
43	199.37139797210693	fix_pre	0		120	41.0	2.5	blank	1.0	218.16127395629883	1.0002200603485107
43	199.9549388885498	pulse	0	t		41.0	2.5	blank	1.0	218.7448148727417	
43	200.37161803245544	movie	1		300	41.0	2.5	blank	1.0	219.16149401664734	2.5002758502960205
43	201.55528688430786	pulse	1	t		41.0	2.5	blank	1.0	220.34516286849976	
43	202.87189388275146	fix_post	2		12	41.0	2.5	blank	1.0	221.66176986694336	0.09998893737792969
44	202.9718828201294	fix_pre	0		120	42.0	2.5	/experiments/knapen_AOT/AOT_stimuli/rescaled_final/0660_fw.mp4	0.0	221.7617588043213	1.0002191066741943
44	203.1555619239807	pulse	0	t		42.0	2.5	/experiments/knapen_AOT/AOT_stimuli/rescaled_final/0660_fw.mp4	0.0	221.9454379081726	
44	203.9721019268036	movie	1		242	42.0	2.5	/experiments/knapen_AOT/AOT_stimuli/rescaled_final/0660_fw.mp4	0.0	222.76197791099548	2.500504970550537
44	204.7557339668274	pulse	1	t		42.0	2.5	/experiments/knapen_AOT/AOT_stimuli/rescaled_final/0660_fw.mp4	0.0	223.5456099510193	
44	206.35640287399292	pulse	1	t		42.0	2.5	/experiments/knapen_AOT/AOT_stimuli/rescaled_final/0660_fw.mp4	0.0	225.14627885818481	
44	206.47260689735413	fix_post	2		12	42.0	2.5	/experiments/knapen_AOT/AOT_stimuli/rescaled_final/0660_fw.mp4	0.0	225.26248288154602	0.09986495971679688
45	206.57247185707092	fix_pre	0		120	43.0	2.5	/experiments/knapen_AOT/AOT_stimuli/rescaled_final/0294_rv.mp4	0.0	225.36234784126282	1.000108003616333
45	207.57257986068726	movie	1		242	43.0	2.5	/experiments/knapen_AOT/AOT_stimuli/rescaled_final/0294_rv.mp4	0.0	226.36245584487915	2.4921531677246094
45	207.95749187469482	pulse	1	t		43.0	2.5	/experiments/knapen_AOT/AOT_stimuli/rescaled_final/0294_rv.mp4	0.0	226.74736785888672	
45	209.55651783943176	pulse	1	t		43.0	2.5	/experiments/knapen_AOT/AOT_stimuli/rescaled_final/0294_rv.mp4	0.0	228.34639382362366	
45	210.06473302841187	fix_post	2		12	43.0	2.5	/experiments/knapen_AOT/AOT_stimuli/rescaled_final/0294_rv.mp4	0.0	228.85460901260376	0.09992289543151855
46	210.16465592384338	fix_pre	0		120	44.0	2.5	/experiments/knapen_AOT/AOT_stimuli/rescaled_final/1230_rv.mp4	0.0	228.95453190803528	1.0001180171966553
46	211.15668296813965	pulse	0	t		44.0	2.5	/experiments/knapen_AOT/AOT_stimuli/rescaled_final/1230_rv.mp4	0.0	229.94655895233154	
46	211.16477394104004	movie	1		245	44.0	2.5	/experiments/knapen_AOT/AOT_stimuli/rescaled_final/1230_rv.mp4	0.0	229.95464992523193	2.5088119506835938
46	212.75794887542725	pulse	1	t		44.0	2.5	/experiments/knapen_AOT/AOT_stimuli/rescaled_final/1230_rv.mp4	0.0	231.54782485961914	
46	213.67358589172363	fix_post	2		12	44.0	2.5	/experiments/knapen_AOT/AOT_stimuli/rescaled_final/1230_rv.mp4	0.0	232.46346187591553	0.09995293617248535
47	213.77353882789612	fix_pre	0		120	45.0	2.5	/experiments/knapen_AOT/AOT_stimuli/rescaled_final/0533_rv.mp4	0.0	232.563414812088	1.0001301765441895
47	214.35711002349854	pulse	0	t		45.0	2.5	/experiments/knapen_AOT/AOT_stimuli/rescaled_final/0533_rv.mp4	0.0	233.14698600769043	
47	214.7736690044403	movie	1		243	45.0	2.5	/experiments/knapen_AOT/AOT_stimuli/rescaled_final/0533_rv.mp4	0.0	233.5635449886322	2.5004160404205322
47	215.95745587348938	pulse	1	t		45.0	2.5	/experiments/knapen_AOT/AOT_stimuli/rescaled_final/0533_rv.mp4	0.0	234.74733185768127	
47	217.27408504486084	fix_post	2		12	45.0	2.5	/experiments/knapen_AOT/AOT_stimuli/rescaled_final/0533_rv.mp4	0.0	236.06396102905273	0.0999908447265625
48	217.3740758895874	fix_pre	0		120	46.0	2.5	/experiments/knapen_AOT/AOT_stimuli/rescaled_final/0696_rv.mp4	0.0	236.1639518737793	1.0001120567321777
48	217.55776000022888	pulse	0	t		46.0	2.5	/experiments/knapen_AOT/AOT_stimuli/rescaled_final/0696_rv.mp4	0.0	236.34763598442078	
48	218.37418794631958	movie	1		242	46.0	2.5	/experiments/knapen_AOT/AOT_stimuli/rescaled_final/0696_rv.mp4	0.0	237.16406393051147	2.5006139278411865
48	219.1578290462494	pulse	1	t		46.0	2.5	/experiments/knapen_AOT/AOT_stimuli/rescaled_final/0696_rv.mp4	0.0	237.94770503044128	
48	220.75872802734375	pulse	1	t		46.0	2.5	/experiments/knapen_AOT/AOT_stimuli/rescaled_final/0696_rv.mp4	0.0	239.54860401153564	
48	220.87480187416077	fix_post	2		12	46.0	2.5	/experiments/knapen_AOT/AOT_stimuli/rescaled_final/0696_rv.mp4	0.0	239.66467785835266	0.09980416297912598
49	220.9746060371399	fix_pre	0		119	47.0	2.5	/experiments/knapen_AOT/AOT_stimuli/rescaled_final/0876_fw.mp4	0.0	239.7644820213318	0.9918148517608643
49	221.96642088890076	movie	1		242	47.0	2.5	/experiments/knapen_AOT/AOT_stimuli/rescaled_final/0876_fw.mp4	0.0	240.75629687309265	2.5004420280456543
49	222.35434794425964	pulse	1	t		47.0	2.5	/experiments/knapen_AOT/AOT_stimuli/rescaled_final/0876_fw.mp4	0.0	241.14422392845154	
49	223.95867896080017	pulse	1	t		47.0	2.5	/experiments/knapen_AOT/AOT_stimuli/rescaled_final/0876_fw.mp4	0.0	242.74855494499207	
49	224.4668629169464	fix_post	2		12	47.0	2.5	/experiments/knapen_AOT/AOT_stimuli/rescaled_final/0876_fw.mp4	0.0	243.2567389011383	0.09990596771240234
50	224.5667688846588	fix_pre	0		120	48.0	2.5	blank	1.0	243.3566448688507	1.0001499652862549
50	225.5588140487671	pulse	0	t		48.0	2.5	blank	1.0	244.34869003295898	
50	225.56691884994507	movie	1		301	48.0	2.5	blank	1.0	244.35679483413696	2.5087239742279053
50	227.15898299217224	pulse	1	t		48.0	2.5	blank	1.0	245.94885897636414	
50	228.07564282417297	fix_post	2		12	48.0	2.5	blank	1.0	246.86551880836487	0.10003018379211426
51	228.1756730079651	fix_pre	0		120	49.0	2.5	/experiments/knapen_AOT/AOT_stimuli/rescaled_final/2083_fw.mp4	0.0	246.96554899215698	1.0001449584960938
51	228.7593858242035	pulse	0	t		49.0	2.5	/experiments/knapen_AOT/AOT_stimuli/rescaled_final/2083_fw.mp4	0.0	247.54926180839539	
51	229.17581796646118	movie	1		242	49.0	2.5	/experiments/knapen_AOT/AOT_stimuli/rescaled_final/2083_fw.mp4	0.0	247.96569395065308	2.500576972961426
51	230.3596088886261	pulse	1	t		49.0	2.5	/experiments/knapen_AOT/AOT_stimuli/rescaled_final/2083_fw.mp4	0.0	249.149484872818	
51	231.6763949394226	fix_post	2		12	49.0	2.5	/experiments/knapen_AOT/AOT_stimuli/rescaled_final/2083_fw.mp4	0.0	250.4662709236145	0.09985494613647461
52	231.77624988555908	fix_pre	0		120	50.0	2.5	/experiments/knapen_AOT/AOT_stimuli/rescaled_final/1416_fw.mp4	0.0	250.56612586975098	1.0000929832458496
52	231.95226383209229	pulse	0	t		50.0	2.5	/experiments/knapen_AOT/AOT_stimuli/rescaled_final/1416_fw.mp4	0.0	250.74213981628418	
52	232.77634286880493	movie	1		243	50.0	2.5	/experiments/knapen_AOT/AOT_stimuli/rescaled_final/1416_fw.mp4	0.0	251.56621885299683	2.5003890991210938
52	233.55270886421204	pulse	1	t		50.0	2.5	/experiments/knapen_AOT/AOT_stimuli/rescaled_final/1416_fw.mp4	0.0	252.34258484840393	
52	235.160089969635	pulse	1	t		50.0	2.5	/experiments/knapen_AOT/AOT_stimuli/rescaled_final/1416_fw.mp4	0.0	253.9499659538269	
52	235.27673196792603	fix_post	2		12	50.0	2.5	/experiments/knapen_AOT/AOT_stimuli/rescaled_final/1416_fw.mp4	0.0	254.06660795211792	0.10002493858337402
53	235.3767569065094	fix_pre	0		120	51.0	2.5	/experiments/knapen_AOT/AOT_stimuli/rescaled_final/1574_rv.mp4	0.0	254.1666328907013	1.000108003616333
53	236.37686491012573	movie	1		237	51.0	2.5	/experiments/knapen_AOT/AOT_stimuli/rescaled_final/1574_rv.mp4	0.0	255.16674089431763	2.492216110229492
53	236.76479196548462	pulse	1	t		51.0	2.5	/experiments/knapen_AOT/AOT_stimuli/rescaled_final/1574_rv.mp4	0.0	255.5546679496765	
53	238.3525938987732	pulse	1	t		51.0	2.5	/experiments/knapen_AOT/AOT_stimuli/rescaled_final/1574_rv.mp4	0.0	257.1424698829651	
53	238.86908102035522	fix_post	2		12	51.0	2.5	/experiments/knapen_AOT/AOT_stimuli/rescaled_final/1574_rv.mp4	0.0	257.6589570045471	0.09986090660095215
54	238.96894192695618	fix_pre	0		119	52.0	2.5	/experiments/knapen_AOT/AOT_stimuli/rescaled_final/0409_rv.mp4	0.0	257.75881791114807	0.9918200969696045
54	239.95254182815552	pulse	0	t		52.0	2.5	/experiments/knapen_AOT/AOT_stimuli/rescaled_final/0409_rv.mp4	0.0	258.7424178123474	
54	239.96076202392578	movie	1		244	52.0	2.5	/experiments/knapen_AOT/AOT_stimuli/rescaled_final/0409_rv.mp4	0.0	258.7506380081177	2.50876784324646
54	241.55350804328918	pulse	1	t		52.0	2.5	/experiments/knapen_AOT/AOT_stimuli/rescaled_final/0409_rv.mp4	0.0	260.3433840274811	
54	242.46952986717224	fix_post	2		12	52.0	2.5	/experiments/knapen_AOT/AOT_stimuli/rescaled_final/0409_rv.mp4	0.0	261.25940585136414	0.10000109672546387
55	242.5695309638977	fix_pre	0		120	53.0	2.5	/experiments/knapen_AOT/AOT_stimuli/rescaled_final/0226_fw.mp4	0.0	261.3594069480896	1.0001299381256104
55	243.15312886238098	pulse	0	t		53.0	2.5	/experiments/knapen_AOT/AOT_stimuli/rescaled_final/0226_fw.mp4	0.0	261.9430048465729	
55	243.56966090202332	movie	1		243	53.0	2.5	/experiments/knapen_AOT/AOT_stimuli/rescaled_final/0226_fw.mp4	0.0	262.3595368862152	2.5004820823669434
55	244.75347590446472	pulse	1	t		53.0	2.5	/experiments/knapen_AOT/AOT_stimuli/rescaled_final/0226_fw.mp4	0.0	263.5433518886566	
55	246.07014298439026	fix_post	2		12	53.0	2.5	/experiments/knapen_AOT/AOT_stimuli/rescaled_final/0226_fw.mp4	0.0	264.86001896858215	0.09992694854736328
56	246.17006993293762	fix_pre	0		120	54.0	2.5	/experiments/knapen_AOT/AOT_stimuli/rescaled_final/1164_rv.mp4	0.0	264.9599459171295	1.0000700950622559
56	246.35367584228516	pulse	0	t		54.0	2.5	/experiments/knapen_AOT/AOT_stimuli/rescaled_final/1164_rv.mp4	0.0	265.14355182647705	
56	247.17014002799988	movie	1		242	54.0	2.5	/experiments/knapen_AOT/AOT_stimuli/rescaled_final/1164_rv.mp4	0.0	265.9600160121918	2.500566005706787
56	247.9538769721985	pulse	1	t		54.0	2.5	/experiments/knapen_AOT/AOT_stimuli/rescaled_final/1164_rv.mp4	0.0	266.7437529563904	
56	249.55400681495667	pulse	1	t		54.0	2.5	/experiments/knapen_AOT/AOT_stimuli/rescaled_final/1164_rv.mp4	0.0	268.34388279914856	
56	249.67070603370667	fix_post	2		12	54.0	2.5	/experiments/knapen_AOT/AOT_stimuli/rescaled_final/1164_rv.mp4	0.0	268.46058201789856	0.09989786148071289
57	249.77060389518738	fix_pre	0		119	55.0	2.5	/experiments/knapen_AOT/AOT_stimuli/rescaled_final/2050_fw.mp4	0.0	268.5604798793793	0.9918210506439209
57	250.7624249458313	movie	1		242	55.0	2.5	/experiments/knapen_AOT/AOT_stimuli/rescaled_final/2050_fw.mp4	0.0	269.5523009300232	2.500330924987793
57	251.15435886383057	pulse	1	t		55.0	2.5	/experiments/knapen_AOT/AOT_stimuli/rescaled_final/2050_fw.mp4	0.0	269.94423484802246	
57	252.75463795661926	pulse	1	t		55.0	2.5	/experiments/knapen_AOT/AOT_stimuli/rescaled_final/2050_fw.mp4	0.0	271.54451394081116	
57	253.2627558708191	fix_post	2		12	55.0	2.5	/experiments/knapen_AOT/AOT_stimuli/rescaled_final/2050_fw.mp4	0.0	272.052631855011	0.10000205039978027
58	253.36275792121887	fix_pre	0		120	56.0	2.5	blank	1.0	272.15263390541077	1.0001389980316162
58	254.35485196113586	pulse	0	t		56.0	2.5	blank	1.0	273.14472794532776	
58	254.3628969192505	movie	1		301	56.0	2.5	blank	1.0	273.1527729034424	2.508723020553589
58	255.95508790016174	pulse	1	t		56.0	2.5	blank	1.0	274.74496388435364	
58	256.8716199398041	fix_post	2		12	56.0	2.5	blank	1.0	275.661495923996	0.10004687309265137
59	256.97166681289673	fix_pre	0		120	57.0	2.5	/experiments/knapen_AOT/AOT_stimuli/rescaled_final/1770_fw.mp4	0.0	275.7615427970886	1.000103235244751
59	257.55532693862915	pulse	0	t		57.0	2.5	/experiments/knapen_AOT/AOT_stimuli/rescaled_final/1770_fw.mp4	0.0	276.34520292282104	
59	257.9717700481415	movie	1		242	57.0	2.5	/experiments/knapen_AOT/AOT_stimuli/rescaled_final/1770_fw.mp4	0.0	276.7616460323334	2.500525951385498
59	259.1556339263916	pulse	1	t		57.0	2.5	/experiments/knapen_AOT/AOT_stimuli/rescaled_final/1770_fw.mp4	0.0	277.9455099105835	
59	260.472295999527	fix_post	2		12	57.0	2.5	/experiments/knapen_AOT/AOT_stimuli/rescaled_final/1770_fw.mp4	0.0	279.2621719837189	0.09992504119873047
60	260.5722210407257	fix_pre	0		120	58.0	2.5	/experiments/knapen_AOT/AOT_stimuli/rescaled_final/0820_rv.mp4	0.0	279.3620970249176	1.0000998973846436
60	260.7558698654175	pulse	0	t		58.0	2.5	/experiments/knapen_AOT/AOT_stimuli/rescaled_final/0820_rv.mp4	0.0	279.5457458496094	
60	261.57232093811035	movie	1		242	58.0	2.5	/experiments/knapen_AOT/AOT_stimuli/rescaled_final/0820_rv.mp4	0.0	280.36219692230225	2.500459909439087
60	262.35590291023254	pulse	1	t		58.0	2.5	/experiments/knapen_AOT/AOT_stimuli/rescaled_final/0820_rv.mp4	0.0	281.14577889442444	
60	263.9562449455261	pulse	1	t		58.0	2.5	/experiments/knapen_AOT/AOT_stimuli/rescaled_final/0820_rv.mp4	0.0	282.746120929718	
60	264.07278084754944	fix_post	2		12	58.0	2.5	/experiments/knapen_AOT/AOT_stimuli/rescaled_final/0820_rv.mp4	0.0	282.86265683174133	0.09996819496154785
61	264.172749042511	fix_pre	0		120	59.0	2.5	/experiments/knapen_AOT/AOT_stimuli/rescaled_final/0228_rv.mp4	0.0	282.9626250267029	1.0000889301300049
61	265.172837972641	movie	1		241	59.0	2.5	/experiments/knapen_AOT/AOT_stimuli/rescaled_final/0228_rv.mp4	0.0	283.9627139568329	2.4921040534973145
61	265.55718088150024	pulse	1	t		59.0	2.5	/experiments/knapen_AOT/AOT_stimuli/rescaled_final/0228_rv.mp4	0.0	284.34705686569214	
61	267.15677404403687	pulse	1	t		59.0	2.5	/experiments/knapen_AOT/AOT_stimuli/rescaled_final/0228_rv.mp4	0.0	285.94665002822876	
61	267.6649420261383	fix_post	2		12	59.0	2.5	/experiments/knapen_AOT/AOT_stimuli/rescaled_final/0228_rv.mp4	0.0	286.4548180103302	0.0999608039855957
62	267.7649028301239	fix_pre	0		120	60.0	2.5	/experiments/knapen_AOT/AOT_stimuli/rescaled_final/0441_fw.mp4	0.0	286.5547788143158	1.0001490116119385
62	268.75683403015137	pulse	0	t		60.0	2.5	/experiments/knapen_AOT/AOT_stimuli/rescaled_final/0441_fw.mp4	0.0	287.54671001434326	
62	268.76505184173584	movie	1		243	60.0	2.5	/experiments/knapen_AOT/AOT_stimuli/rescaled_final/0441_fw.mp4	0.0	287.55492782592773	2.5087640285491943
62	270.35787200927734	pulse	1	t		60.0	2.5	/experiments/knapen_AOT/AOT_stimuli/rescaled_final/0441_fw.mp4	0.0	289.14774799346924	
62	271.27381587028503	fix_post	2		12	60.0	2.5	/experiments/knapen_AOT/AOT_stimuli/rescaled_final/0441_fw.mp4	0.0	290.06369185447693	0.09994697570800781
63	271.37376284599304	fix_pre	0		120	61.0	2.5	/experiments/knapen_AOT/AOT_stimuli/rescaled_final/1766_fw.mp4	0.0	290.16363883018494	1.000154972076416
63	271.9574589729309	pulse	0	t		61.0	2.5	/experiments/knapen_AOT/AOT_stimuli/rescaled_final/1766_fw.mp4	0.0	290.7473349571228	
63	272.37391781806946	movie	1		243	61.0	2.5	/experiments/knapen_AOT/AOT_stimuli/rescaled_final/1766_fw.mp4	0.0	291.16379380226135	2.500554084777832
63	273.55769991874695	pulse	1	t		61.0	2.5	/experiments/knapen_AOT/AOT_stimuli/rescaled_final/1766_fw.mp4	0.0	292.34757590293884	
63	274.8744719028473	fix_post	2		12	61.0	2.5	/experiments/knapen_AOT/AOT_stimuli/rescaled_final/1766_fw.mp4	0.0	293.6643478870392	0.09984493255615234
64	274.97431683540344	fix_pre	0		120	62.0	2.5	/experiments/knapen_AOT/AOT_stimuli/rescaled_final/1661_fw.mp4	0.0	293.76419281959534	1.0001220703125
64	275.15786695480347	pulse	0	t		62.0	2.5	/experiments/knapen_AOT/AOT_stimuli/rescaled_final/1661_fw.mp4	0.0	293.94774293899536	
64	275.97443890571594	movie	1		243	62.0	2.5	/experiments/knapen_AOT/AOT_stimuli/rescaled_final/1661_fw.mp4	0.0	294.76431488990784	2.5003700256347656
64	276.7580518722534	pulse	1	t		62.0	2.5	/experiments/knapen_AOT/AOT_stimuli/rescaled_final/1661_fw.mp4	0.0	295.5479278564453	
64	278.35815596580505	pulse	1	t		62.0	2.5	/experiments/knapen_AOT/AOT_stimuli/rescaled_final/1661_fw.mp4	0.0	297.14803194999695	
64	278.4748089313507	fix_post	2		12	62.0	2.5	/experiments/knapen_AOT/AOT_stimuli/rescaled_final/1661_fw.mp4	0.0	297.2646849155426	0.10002708435058594
65	278.5748360157013	fix_pre	0		119	63.0	2.5	blank	1.0	297.3647119998932	0.9918549060821533
65	279.56669092178345	movie	1		300	63.0	2.5	blank	1.0	298.35656690597534	2.5003750324249268
65	279.95858097076416	pulse	1	t		63.0	2.5	blank	1.0	298.74845695495605	
65	281.55876898765564	pulse	1	t		63.0	2.5	blank	1.0	300.34864497184753	
65	282.0670659542084	fix_post	2		12	63.0	2.5	blank	1.0	300.85694193840027	0.10003900527954102
66	282.1671049594879	fix_pre	0		120	64.0	2.5	/experiments/knapen_AOT/AOT_stimuli/rescaled_final/2083_rv.mp4	0.0	300.9569809436798	1.0001180171966553
66	283.15908193588257	pulse	0	t		64.0	2.5	/experiments/knapen_AOT/AOT_stimuli/rescaled_final/2083_rv.mp4	0.0	301.94895792007446	
66	283.16722297668457	movie	1		243	64.0	2.5	/experiments/knapen_AOT/AOT_stimuli/rescaled_final/2083_rv.mp4	0.0	301.95709896087646	2.5087409019470215
66	284.76019191741943	pulse	1	t		64.0	2.5	/experiments/knapen_AOT/AOT_stimuli/rescaled_final/2083_rv.mp4	0.0	303.5500679016113	
66	285.6759638786316	fix_post	2		12	64.0	2.5	/experiments/knapen_AOT/AOT_stimuli/rescaled_final/2083_rv.mp4	0.0	304.4658398628235	0.09995913505554199
67	285.77592301368713	fix_pre	0		120	65.0	2.5	/experiments/knapen_AOT/AOT_stimuli/rescaled_final/0771_rv.mp4	0.0	304.565798997879	1.0001628398895264
67	286.35209703445435	pulse	0	t		65.0	2.5	/experiments/knapen_AOT/AOT_stimuli/rescaled_final/0771_rv.mp4	0.0	305.14197301864624	
67	286.77608585357666	movie	1		244	65.0	2.5	/experiments/knapen_AOT/AOT_stimuli/rescaled_final/0771_rv.mp4	0.0	305.56596183776855	2.5003371238708496
67	287.9562268257141	pulse	1	t		65.0	2.5	/experiments/knapen_AOT/AOT_stimuli/rescaled_final/0771_rv.mp4	0.0	306.746102809906	
67	289.2764229774475	fix_post	2		12	65.0	2.5	/experiments/knapen_AOT/AOT_stimuli/rescaled_final/0771_rv.mp4	0.0	308.0662989616394	0.10012197494506836
68	289.3765449523926	fix_pre	0		120	66.0	2.5	/experiments/knapen_AOT/AOT_stimuli/rescaled_final/0033_fw.mp4	0.0	308.1664209365845	1.0000898838043213
68	289.5524559020996	pulse	0	t		66.0	2.5	/experiments/knapen_AOT/AOT_stimuli/rescaled_final/0033_fw.mp4	0.0	308.3423318862915	
68	290.3766348361969	movie	1		244	66.0	2.5	/experiments/knapen_AOT/AOT_stimuli/rescaled_final/0033_fw.mp4	0.0	309.1665108203888	2.500378131866455
68	291.1527919769287	pulse	1	t		66.0	2.5	/experiments/knapen_AOT/AOT_stimuli/rescaled_final/0033_fw.mp4	0.0	309.9426679611206	
68	292.7521710395813	pulse	1	t		66.0	2.5	/experiments/knapen_AOT/AOT_stimuli/rescaled_final/0033_fw.mp4	0.0	311.5420470237732	
68	292.87701296806335	fix_post	2		12	66.0	2.5	/experiments/knapen_AOT/AOT_stimuli/rescaled_final/0033_fw.mp4	0.0	311.66688895225525	0.1000678539276123
69	292.97708082199097	fix_pre	0		120	67.0	2.5	/experiments/knapen_AOT/AOT_stimuli/rescaled_final/1036_fw.mp4	0.0	311.76695680618286	1.000129222869873
69	293.97721004486084	movie	1		241	67.0	2.5	/experiments/knapen_AOT/AOT_stimuli/rescaled_final/1036_fw.mp4	0.0	312.76708602905273	2.492067813873291
69	294.3523440361023	pulse	1	t		67.0	2.5	/experiments/knapen_AOT/AOT_stimuli/rescaled_final/1036_fw.mp4	0.0	313.1422200202942	
69	295.9527599811554	pulse	1	t		67.0	2.5	/experiments/knapen_AOT/AOT_stimuli/rescaled_final/1036_fw.mp4	0.0	314.7426359653473	
69	296.46927785873413	fix_post	2		12	67.0	2.5	/experiments/knapen_AOT/AOT_stimuli/rescaled_final/1036_fw.mp4	0.0	315.259153842926	0.0999300479888916
70	296.569207906723	fix_pre	0		119	68.0	2.5	/experiments/knapen_AOT/AOT_stimuli/rescaled_final/2176_rv.mp4	0.0	315.3590838909149	0.9918990135192871
70	297.55289602279663	pulse	0	t		68.0	2.5	/experiments/knapen_AOT/AOT_stimuli/rescaled_final/2176_rv.mp4	0.0	316.3427720069885	
70	297.5611069202423	movie	1		244	68.0	2.5	/experiments/knapen_AOT/AOT_stimuli/rescaled_final/2176_rv.mp4	0.0	316.3509829044342	2.5086209774017334
70	299.1570129394531	pulse	1	t		68.0	2.5	/experiments/knapen_AOT/AOT_stimuli/rescaled_final/2176_rv.mp4	0.0	317.946888923645	
70	300.06972789764404	fix_post	2		12	68.0	2.5	/experiments/knapen_AOT/AOT_stimuli/rescaled_final/2176_rv.mp4	0.0	318.85960388183594	0.1000051498413086
71	300.16973304748535	fix_pre	0		120	69.0	2.5	blank	1.0	318.95960903167725	1.0001428127288818
71	300.75337386131287	pulse	0	t		69.0	2.5	blank	1.0	319.54324984550476	
71	301.16987586021423	movie	1		300	69.0	2.5	blank	1.0	319.9597518444061	2.5003910064697266
71	302.35359287261963	pulse	1	t		69.0	2.5	blank	1.0	321.1434688568115	
71	303.67026686668396	fix_post	2		12	69.0	2.5	blank	1.0	322.46014285087585	0.10003995895385742
72	303.7703068256378	fix_pre	0		120	70.0	2.5	/experiments/knapen_AOT/AOT_stimuli/rescaled_final/2121_rv.mp4	0.0	322.5601828098297	1.0001749992370605
72	303.95380783081055	pulse	0	t		70.0	2.5	/experiments/knapen_AOT/AOT_stimuli/rescaled_final/2121_rv.mp4	0.0	322.74368381500244	
72	304.7704818248749	movie	1		242	70.0	2.5	/experiments/knapen_AOT/AOT_stimuli/rescaled_final/2121_rv.mp4	0.0	323.5603578090668	2.500399112701416
72	305.55400681495667	pulse	1	t		70.0	2.5	/experiments/knapen_AOT/AOT_stimuli/rescaled_final/2121_rv.mp4	0.0	324.34388279914856	
72	307.1540148258209	pulse	1	t		70.0	2.5	/experiments/knapen_AOT/AOT_stimuli/rescaled_final/2121_rv.mp4	0.0	325.9438908100128	
72	307.2708809375763	fix_post	2		12	70.0	2.5	/experiments/knapen_AOT/AOT_stimuli/rescaled_final/2121_rv.mp4	0.0	326.0607569217682	0.09992599487304688
73	307.37080693244934	fix_pre	0		119	71.0	2.5	/experiments/knapen_AOT/AOT_stimuli/rescaled_final/1521_rv.mp4	0.0	326.16068291664124	0.9918251037597656
73	308.3626320362091	movie	1		244	71.0	2.5	/experiments/knapen_AOT/AOT_stimuli/rescaled_final/1521_rv.mp4	0.0	327.152508020401	2.5003459453582764
73	308.75459599494934	pulse	1	t		71.0	2.5	/experiments/knapen_AOT/AOT_stimuli/rescaled_final/1521_rv.mp4	0.0	327.54447197914124	
73	310.35478496551514	pulse	1	t		71.0	2.5	/experiments/knapen_AOT/AOT_stimuli/rescaled_final/1521_rv.mp4	0.0	329.14466094970703	
73	310.8629779815674	fix_post	2		12	71.0	2.5	/experiments/knapen_AOT/AOT_stimuli/rescaled_final/1521_rv.mp4	0.0	329.6528539657593	0.10009002685546875
74	310.96306800842285	fix_pre	0		120	72.0	2.5	/experiments/knapen_AOT/AOT_stimuli/rescaled_final/0293_rv.mp4	0.0	329.75294399261475	1.0001378059387207
74	311.95498299598694	pulse	0	t		72.0	2.5	/experiments/knapen_AOT/AOT_stimuli/rescaled_final/0293_rv.mp4	0.0	330.74485898017883	
74	311.9632058143616	movie	1		240	72.0	2.5	/experiments/knapen_AOT/AOT_stimuli/rescaled_final/0293_rv.mp4	0.0	330.75308179855347	2.508733034133911
74	313.55647683143616	pulse	1	t		72.0	2.5	/experiments/knapen_AOT/AOT_stimuli/rescaled_final/0293_rv.mp4	0.0	332.34635281562805	
74	314.4719388484955	fix_post	2		12	72.0	2.5	/experiments/knapen_AOT/AOT_stimuli/rescaled_final/0293_rv.mp4	0.0	333.2618148326874	0.09995508193969727
75	314.5718939304352	fix_pre	0		120	73.0	2.5	/experiments/knapen_AOT/AOT_stimuli/rescaled_final/1239_fw.mp4	0.0	333.3617699146271	1.0001308917999268
75	315.1556088924408	pulse	0	t		73.0	2.5	/experiments/knapen_AOT/AOT_stimuli/rescaled_final/1239_fw.mp4	0.0	333.9454848766327	
75	315.5720248222351	movie	1		243	73.0	2.5	/experiments/knapen_AOT/AOT_stimuli/rescaled_final/1239_fw.mp4	0.0	334.361900806427	2.5005931854248047
75	316.7558698654175	pulse	1	t		73.0	2.5	/experiments/knapen_AOT/AOT_stimuli/rescaled_final/1239_fw.mp4	0.0	335.5457458496094	
75	318.0726180076599	fix_post	2		12	73.0	2.5	/experiments/knapen_AOT/AOT_stimuli/rescaled_final/1239_fw.mp4	0.0	336.8624939918518	0.09987902641296387
76	318.1724970340729	fix_pre	0		120	74.0	2.5	/experiments/knapen_AOT/AOT_stimuli/rescaled_final/0771_fw.mp4	0.0	336.96237301826477	1.0001499652862549
76	318.3560209274292	pulse	0	t		74.0	2.5	/experiments/knapen_AOT/AOT_stimuli/rescaled_final/0771_fw.mp4	0.0	337.1458969116211	
76	319.17264699935913	movie	1		244	74.0	2.5	/experiments/knapen_AOT/AOT_stimuli/rescaled_final/0771_fw.mp4	0.0	337.962522983551	2.5002899169921875
76	319.9563059806824	pulse	1	t		74.0	2.5	/experiments/knapen_AOT/AOT_stimuli/rescaled_final/0771_fw.mp4	0.0	338.74618196487427	
76	321.55654287338257	pulse	1	t		74.0	2.5	/experiments/knapen_AOT/AOT_stimuli/rescaled_final/0771_fw.mp4	0.0	340.34641885757446	
76	321.6729369163513	fix_post	2		12	74.0	2.5	/experiments/knapen_AOT/AOT_stimuli/rescaled_final/0771_fw.mp4	0.0	340.4628129005432	0.10005807876586914
77	321.7729949951172	fix_pre	0		119	75.0	2.5	/experiments/knapen_AOT/AOT_stimuli/rescaled_final/0180_rv.mp4	0.0	340.5628709793091	0.9917898178100586
77	322.76478481292725	movie	1		242	75.0	2.5	/experiments/knapen_AOT/AOT_stimuli/rescaled_final/0180_rv.mp4	0.0	341.55466079711914	2.5005691051483154
77	323.15684390068054	pulse	1	t		75.0	2.5	/experiments/knapen_AOT/AOT_stimuli/rescaled_final/0180_rv.mp4	0.0	341.94671988487244	
77	324.7569818496704	pulse	1	t		75.0	2.5	/experiments/knapen_AOT/AOT_stimuli/rescaled_final/0180_rv.mp4	0.0	343.5468578338623	
77	325.26535391807556	fix_post	2		12	75.0	2.5	/experiments/knapen_AOT/AOT_stimuli/rescaled_final/0180_rv.mp4	0.0	344.05522990226746	0.09984397888183594
78	325.3651978969574	fix_pre	0		120	76.0	2.5	blank	1.0	344.1550738811493	1.0001370906829834
78	326.35717487335205	pulse	0	t		76.0	2.5	blank	1.0	345.14705085754395	
78	326.3653349876404	movie	1		301	76.0	2.5	blank	1.0	345.1552109718323	2.5087268352508545
78	327.9575078487396	pulse	1	t		76.0	2.5	blank	1.0	346.7473838329315	
78	328.87406182289124	fix_post	2		12	76.0	2.5	blank	1.0	347.66393780708313	0.10006999969482422
79	328.97413182258606	fix_pre	0		120	77.0	2.5	/experiments/knapen_AOT/AOT_stimuli/rescaled_final/2110_rv.mp4	0.0	347.76400780677795	1.0000340938568115
79	329.5577039718628	pulse	0	t		77.0	2.5	/experiments/knapen_AOT/AOT_stimuli/rescaled_final/2110_rv.mp4	0.0	348.3475799560547	
79	329.97416591644287	movie	1		244	77.0	2.5	/experiments/knapen_AOT/AOT_stimuli/rescaled_final/2110_rv.mp4	0.0	348.76404190063477	2.5004379749298096
79	331.15792989730835	pulse	1	t		77.0	2.5	/experiments/knapen_AOT/AOT_stimuli/rescaled_final/2110_rv.mp4	0.0	349.94780588150024	
79	332.4746038913727	fix_post	2		12	77.0	2.5	/experiments/knapen_AOT/AOT_stimuli/rescaled_final/2110_rv.mp4	0.0	351.2644798755646	0.10003399848937988
80	332.57463788986206	fix_pre	0		120	78.0	2.5	/experiments/knapen_AOT/AOT_stimuli/rescaled_final/2103_rv.mp4	0.0	351.36451387405396	1.0000929832458496
80	332.75810194015503	pulse	0	t		78.0	2.5	/experiments/knapen_AOT/AOT_stimuli/rescaled_final/2103_rv.mp4	0.0	351.5479779243469	
80	333.5747308731079	movie	1		242	78.0	2.5	/experiments/knapen_AOT/AOT_stimuli/rescaled_final/2103_rv.mp4	0.0	352.3646068572998	2.5005390644073486
80	334.35839796066284	pulse	1	t		78.0	2.5	/experiments/knapen_AOT/AOT_stimuli/rescaled_final/2103_rv.mp4	0.0	353.14827394485474	
80	335.95866298675537	pulse	1	t		78.0	2.5	/experiments/knapen_AOT/AOT_stimuli/rescaled_final/2103_rv.mp4	0.0	354.74853897094727	
80	336.07526993751526	fix_post	2		12	78.0	2.5	/experiments/knapen_AOT/AOT_stimuli/rescaled_final/2103_rv.mp4	0.0	354.86514592170715	0.09995102882385254
81	336.1752209663391	fix_pre	0		120	79.0	2.5	/experiments/knapen_AOT/AOT_stimuli/rescaled_final/0899_fw.mp4	0.0	354.965096950531	1.0000190734863281
81	337.17524003982544	movie	1		241	79.0	2.5	/experiments/knapen_AOT/AOT_stimuli/rescaled_final/0899_fw.mp4	0.0	355.96511602401733	2.492280960083008
81	337.56030201911926	pulse	1	t		79.0	2.5	/experiments/knapen_AOT/AOT_stimuli/rescaled_final/0899_fw.mp4	0.0	356.35017800331116	
81	339.15190982818604	pulse	1	t		79.0	2.5	/experiments/knapen_AOT/AOT_stimuli/rescaled_final/0899_fw.mp4	0.0	357.94178581237793	
81	339.66752099990845	fix_post	2		12	79.0	2.5	/experiments/knapen_AOT/AOT_stimuli/rescaled_final/0899_fw.mp4	0.0	358.45739698410034	0.09978485107421875
82	339.76730585098267	fix_pre	0		120	80.0	2.5	/experiments/knapen_AOT/AOT_stimuli/rescaled_final/0440_fw.mp4	0.0	358.55718183517456	1.0002000331878662
82	340.7518148422241	pulse	0	t		80.0	2.5	/experiments/knapen_AOT/AOT_stimuli/rescaled_final/0440_fw.mp4	0.0	359.541690826416	
82	340.76750588417053	movie	1		244	80.0	2.5	/experiments/knapen_AOT/AOT_stimuli/rescaled_final/0440_fw.mp4	0.0	359.5573818683624	2.5087220668792725
82	342.3599388599396	pulse	1	t		80.0	2.5	/experiments/knapen_AOT/AOT_stimuli/rescaled_final/0440_fw.mp4	0.0	361.14981484413147	
82	343.2762279510498	fix_post	2		12	80.0	2.5	/experiments/knapen_AOT/AOT_stimuli/rescaled_final/0440_fw.mp4	0.0	362.0661039352417	0.10003495216369629
83	343.3762629032135	fix_pre	0		120	81.0	2.5	/experiments/knapen_AOT/AOT_stimuli/rescaled_final/0409_fw.mp4	0.0	362.1661388874054	1.0000519752502441
83	343.9523169994354	pulse	0	t		81.0	2.5	/experiments/knapen_AOT/AOT_stimuli/rescaled_final/0409_fw.mp4	0.0	362.7421929836273	
83	344.37631487846375	movie	1		243	81.0	2.5	/experiments/knapen_AOT/AOT_stimuli/rescaled_final/0409_fw.mp4	0.0	363.16619086265564	2.5005860328674316
83	345.5523569583893	pulse	1	t		81.0	2.5	/experiments/knapen_AOT/AOT_stimuli/rescaled_final/0409_fw.mp4	0.0	364.3422329425812	
83	346.8769009113312	fix_post	2		12	81.0	2.5	/experiments/knapen_AOT/AOT_stimuli/rescaled_final/0409_fw.mp4	0.0	365.66677689552307	0.09982013702392578
84	346.9767210483551	fix_pre	0		120	82.0	2.5	blank	1.0	365.766597032547	1.0001518726348877
84	347.1518738269806	pulse	0	t		82.0	2.5	blank	1.0	365.9417498111725	
84	347.97687292099	movie	1		300	82.0	2.5	blank	1.0	366.7667489051819	2.5003740787506104
84	348.75215101242065	pulse	1	t		82.0	2.5	blank	1.0	367.54202699661255	
84	350.35241293907166	pulse	1	t		82.0	2.5	blank	1.0	369.14228892326355	
84	350.4772469997406	fix_post	2		12	82.0	2.5	blank	1.0	369.2671229839325	0.10000896453857422
85	350.5772559642792	fix_pre	0		119	83.0	2.5	/experiments/knapen_AOT/AOT_stimuli/rescaled_final/1520_rv.mp4	0.0	369.36713194847107	0.9918398857116699
85	351.56909584999084	movie	1		243	83.0	2.5	/experiments/knapen_AOT/AOT_stimuli/rescaled_final/1520_rv.mp4	0.0	370.35897183418274	2.5005431175231934
85	351.9531478881836	pulse	1	t		83.0	2.5	/experiments/knapen_AOT/AOT_stimuli/rescaled_final/1520_rv.mp4	0.0	370.7430238723755	
85	353.5528998374939	pulse	1	t		83.0	2.5	/experiments/knapen_AOT/AOT_stimuli/rescaled_final/1520_rv.mp4	0.0	372.3427758216858	
85	354.06963896751404	fix_post	2		12	83.0	2.5	/experiments/knapen_AOT/AOT_stimuli/rescaled_final/1520_rv.mp4	0.0	372.85951495170593	0.099884033203125
87	354.16952300071716	stim	0		1716					372.95939898490906	14.30222201347351
87	355.15309286117554	pulse	0	t						373.94296884536743	
87	356.75334000587463	pulse	0	t						375.5432159900665	
87	358.35355401039124	pulse	0	t						377.14342999458313	
87	359.9539270401001	pulse	0	t						378.743803024292	
87	361.55396485328674	pulse	0	t						380.34384083747864	
87	363.15433382987976	pulse	0	t						381.94420981407166	
87	364.75450587272644	pulse	0	t						383.54438185691833	
87	366.3548319339752	pulse	0	t						385.1447079181671	
87	367.9549608230591	pulse	0	t						386.744836807251	
