trial_nr	onset	event_type	phase	response	nr_frames	movie_index	movie_duration	movie_file	blank	onset_abs	duration
0	0.16648244857788086	stim	0		1					16.181867122650146	0.00830221176147461
0	0.14269351959228516	response	0	space						16.15807819366455	
1	0.17478466033935547	stim	0		4588					16.19016933441162	38.248817920684814
1	38.40370416641235	pulse	0	t						54.41908884048462	
1	38.42360258102417	stim	1		1716					54.438987255096436	14.309059619903564
1	39.99768304824829	pulse	1	t						56.01306772232056	
1	41.598124742507935	pulse	1	t						57.6135094165802	
1	43.198102712631226	pulse	1	t						59.21348738670349	
1	44.798364877700806	pulse	1	t						60.81374955177307	
1	46.398608446121216	pulse	1	t						62.41399312019348	
1	47.99887013435364	pulse	1	t						64.0142548084259	
1	49.599119663238525	pulse	1	t						65.61450433731079	
1	51.19933843612671	pulse	1	t						67.21472311019897	
2	52.732662200927734	fix_pre	0		9	0.0	2.5	/experiments/knapen_AOT/AOT_stimuli/rescaled_final/1174_fw.mp4	0.0	68.748046875	0.09183359146118164
2	52.79959726333618	pulse	0	t		0.0	2.5	/experiments/knapen_AOT/AOT_stimuli/rescaled_final/1174_fw.mp4	0.0	68.81498193740845	
2	52.824495792388916	movie	1		276	0.0	2.5	/experiments/knapen_AOT/AOT_stimuli/rescaled_final/1174_fw.mp4	0.0	68.83988046646118	2.4919471740722656
2	54.398024559020996	pulse	1	t		0.0	2.5	/experiments/knapen_AOT/AOT_stimuli/rescaled_final/1174_fw.mp4	0.0	70.41340923309326	
2	55.31644296646118	fix_post	2		12	0.0	2.5	/experiments/knapen_AOT/AOT_stimuli/rescaled_final/1174_fw.mp4	0.0	71.33182764053345	0.10000061988830566
3	55.41644358634949	fix_pre	0		120	1.0	2.5	/experiments/knapen_AOT/AOT_stimuli/rescaled_final/1000_fw.mp4	0.0	71.43182826042175	1.0084724426269531
3	56.00015354156494	pulse	0	t		1.0	2.5	/experiments/knapen_AOT/AOT_stimuli/rescaled_final/1000_fw.mp4	0.0	72.0155382156372	
3	56.42491602897644	movie	1		279	1.0	2.5	/experiments/knapen_AOT/AOT_stimuli/rescaled_final/1000_fw.mp4	0.0	72.4403007030487	2.4921345710754395
3	57.59841847419739	pulse	1	t		1.0	2.5	/experiments/knapen_AOT/AOT_stimuli/rescaled_final/1000_fw.mp4	0.0	73.61380314826965	
3	58.91705060005188	fix_post	2		12	1.0	2.5	/experiments/knapen_AOT/AOT_stimuli/rescaled_final/1000_fw.mp4	0.0	74.93243527412415	0.09995460510253906
4	59.01700520515442	fix_pre	0		120	2.0	2.5	/experiments/knapen_AOT/AOT_stimuli/rescaled_final/0895_rv.mp4	0.0	75.03238987922668	1.0084288120269775
4	59.20054364204407	pulse	0	t		2.0	2.5	/experiments/knapen_AOT/AOT_stimuli/rescaled_final/0895_rv.mp4	0.0	75.21592831611633	
4	60.0254340171814	movie	1		273	2.0	2.5	/experiments/knapen_AOT/AOT_stimuli/rescaled_final/0895_rv.mp4	0.0	76.04081869125366	2.492062568664551
4	60.798479318618774	pulse	1	t		2.0	2.5	/experiments/knapen_AOT/AOT_stimuli/rescaled_final/0895_rv.mp4	0.0	76.81386399269104	
4	62.39910125732422	pulse	1	t		2.0	2.5	/experiments/knapen_AOT/AOT_stimuli/rescaled_final/0895_rv.mp4	0.0	78.41448593139648	
4	62.51749658584595	fix_post	2		12	2.0	2.5	/experiments/knapen_AOT/AOT_stimuli/rescaled_final/0895_rv.mp4	0.0	78.53288125991821	0.09999608993530273
5	62.61749267578125	fix_pre	0		120	3.0	2.5	/experiments/knapen_AOT/AOT_stimuli/rescaled_final/0084_rv.mp4	0.0	78.63287734985352	1.0084984302520752
5	63.625991106033325	movie	1		264	3.0	2.5	/experiments/knapen_AOT/AOT_stimuli/rescaled_final/0084_rv.mp4	0.0	79.64137578010559	2.4920363426208496
5	64.00004124641418	pulse	1	t		3.0	2.5	/experiments/knapen_AOT/AOT_stimuli/rescaled_final/0084_rv.mp4	0.0	80.01542592048645	
5	65.60338115692139	pulse	1	t		3.0	2.5	/experiments/knapen_AOT/AOT_stimuli/rescaled_final/0084_rv.mp4	0.0	81.61876583099365	
5	66.11802744865417	fix_post	2		12	3.0	2.5	/experiments/knapen_AOT/AOT_stimuli/rescaled_final/0084_rv.mp4	0.0	82.13341212272644	0.10010814666748047
6	66.21813559532166	fix_pre	0		119	4.0	2.5	/experiments/knapen_AOT/AOT_stimuli/rescaled_final/0293_rv.mp4	0.0	82.23352026939392	1.0000498294830322
6	67.20164680480957	pulse	0	t		4.0	2.5	/experiments/knapen_AOT/AOT_stimuli/rescaled_final/0293_rv.mp4	0.0	83.21703147888184	
6	67.21818542480469	movie	1		279	4.0	2.5	/experiments/knapen_AOT/AOT_stimuli/rescaled_final/0293_rv.mp4	0.0	83.23357009887695	2.5003983974456787
6	68.80001974105835	pulse	1	t		4.0	2.5	/experiments/knapen_AOT/AOT_stimuli/rescaled_final/0293_rv.mp4	0.0	84.81540441513062	
6	69.71858382225037	fix_post	2		12	4.0	2.5	/experiments/knapen_AOT/AOT_stimuli/rescaled_final/0293_rv.mp4	0.0	85.73396849632263	0.09999513626098633
7	69.81857895851135	fix_pre	0		120	5.0	2.5	/experiments/knapen_AOT/AOT_stimuli/rescaled_final/0525_fw.mp4	0.0	85.83396363258362	1.0085339546203613
7	70.40222334861755	pulse	0	t		5.0	2.5	/experiments/knapen_AOT/AOT_stimuli/rescaled_final/0525_fw.mp4	0.0	86.41760802268982	
7	70.82711291313171	movie	1		282	5.0	2.5	/experiments/knapen_AOT/AOT_stimuli/rescaled_final/0525_fw.mp4	0.0	86.84249758720398	2.492032051086426
7	72.0026273727417	pulse	1	t		5.0	2.5	/experiments/knapen_AOT/AOT_stimuli/rescaled_final/0525_fw.mp4	0.0	88.01801204681396	
7	73.31914496421814	fix_post	2		12	5.0	2.5	/experiments/knapen_AOT/AOT_stimuli/rescaled_final/0525_fw.mp4	0.0	89.3345296382904	0.10001540184020996
8	73.41916036605835	fix_pre	0		120	6.0	2.5	blank	1.0	89.43454504013062	1.0001001358032227
8	73.60275793075562	pulse	0	t		6.0	2.5	blank	1.0	89.61814260482788	
8	74.41926050186157	movie	1		300	6.0	2.5	blank	1.0	90.43464517593384	2.5003767013549805
8	75.20297002792358	pulse	1	t		6.0	2.5	blank	1.0	91.21835470199585	
8	76.80319809913635	pulse	1	t		6.0	2.5	blank	1.0	92.81858277320862	
8	76.91963720321655	fix_post	2		12	6.0	2.5	blank	1.0	92.93502187728882	0.10005521774291992
9	77.01969242095947	fix_pre	0		120	7.0	2.5	/experiments/knapen_AOT/AOT_stimuli/rescaled_final/1990_rv.mp4	0.0	93.03507709503174	1.0084657669067383
9	78.02815818786621	movie	1		272	7.0	2.5	/experiments/knapen_AOT/AOT_stimuli/rescaled_final/1990_rv.mp4	0.0	94.04354286193848	2.4920146465301514
9	78.40180706977844	pulse	1	t		7.0	2.5	/experiments/knapen_AOT/AOT_stimuli/rescaled_final/1990_rv.mp4	0.0	94.41719174385071	
9	80.00248646736145	pulse	1	t		7.0	2.5	/experiments/knapen_AOT/AOT_stimuli/rescaled_final/1990_rv.mp4	0.0	96.01787114143372	
9	80.52017283439636	fix_post	2		12	7.0	2.5	/experiments/knapen_AOT/AOT_stimuli/rescaled_final/1990_rv.mp4	0.0	96.53555750846863	0.10009217262268066
10	80.62026500701904	fix_pre	0		119	8.0	2.5	/experiments/knapen_AOT/AOT_stimuli/rescaled_final/1566_fw.mp4	0.0	96.63564968109131	1.000091791152954
10	81.60392761230469	pulse	0	t		8.0	2.5	/experiments/knapen_AOT/AOT_stimuli/rescaled_final/1566_fw.mp4	0.0	97.61931228637695	
10	81.620356798172	movie	1		269	8.0	2.5	/experiments/knapen_AOT/AOT_stimuli/rescaled_final/1566_fw.mp4	0.0	97.63574147224426	2.500462055206299
10	83.20423245429993	pulse	1	t		8.0	2.5	/experiments/knapen_AOT/AOT_stimuli/rescaled_final/1566_fw.mp4	0.0	99.21961712837219	
10	84.1208188533783	fix_post	2		12	8.0	2.5	/experiments/knapen_AOT/AOT_stimuli/rescaled_final/1566_fw.mp4	0.0	100.13620352745056	0.09995150566101074
11	84.2207703590393	fix_pre	0		120	9.0	2.5	/experiments/knapen_AOT/AOT_stimuli/rescaled_final/0328_fw.mp4	0.0	100.23615503311157	1.0084853172302246
11	84.79709124565125	pulse	0	t		9.0	2.5	/experiments/knapen_AOT/AOT_stimuli/rescaled_final/0328_fw.mp4	0.0	100.81247591972351	
11	85.22925567626953	movie	1		255	9.0	2.5	/experiments/knapen_AOT/AOT_stimuli/rescaled_final/0328_fw.mp4	0.0	101.2446403503418	2.492018222808838
11	86.40344548225403	pulse	1	t		9.0	2.5	/experiments/knapen_AOT/AOT_stimuli/rescaled_final/0328_fw.mp4	0.0	102.4188301563263	
11	87.72127389907837	fix_post	2		12	9.0	2.5	/experiments/knapen_AOT/AOT_stimuli/rescaled_final/0328_fw.mp4	0.0	103.73665857315063	0.10007810592651367
12	87.82135200500488	fix_pre	0		120	10.0	2.5	/experiments/knapen_AOT/AOT_stimuli/rescaled_final/1501_fw.mp4	0.0	103.83673667907715	1.0084240436553955
12	87.99761319160461	pulse	0	t		10.0	2.5	/experiments/knapen_AOT/AOT_stimuli/rescaled_final/1501_fw.mp4	0.0	104.01299786567688	
12	88.82977604866028	movie	1		276	10.0	2.5	/experiments/knapen_AOT/AOT_stimuli/rescaled_final/1501_fw.mp4	0.0	104.84516072273254	2.4920151233673096
12	89.60312032699585	pulse	1	t		10.0	2.5	/experiments/knapen_AOT/AOT_stimuli/rescaled_final/1501_fw.mp4	0.0	105.61850500106812	
12	91.19735598564148	pulse	1	t		10.0	2.5	/experiments/knapen_AOT/AOT_stimuli/rescaled_final/1501_fw.mp4	0.0	107.21274065971375	
12	91.32179117202759	fix_post	2		12	10.0	2.5	/experiments/knapen_AOT/AOT_stimuli/rescaled_final/1501_fw.mp4	0.0	107.33717584609985	0.10002684593200684
13	91.4218180179596	fix_pre	0		120	11.0	2.5	/experiments/knapen_AOT/AOT_stimuli/rescaled_final/1000_rv.mp4	0.0	107.43720269203186	1.008509874343872
13	92.43032789230347	movie	1		275	11.0	2.5	/experiments/knapen_AOT/AOT_stimuli/rescaled_final/1000_rv.mp4	0.0	108.44571256637573	2.492058515548706
13	92.79767322540283	pulse	1	t		11.0	2.5	/experiments/knapen_AOT/AOT_stimuli/rescaled_final/1000_rv.mp4	0.0	108.8130578994751	
13	94.40595936775208	pulse	1	t		11.0	2.5	/experiments/knapen_AOT/AOT_stimuli/rescaled_final/1000_rv.mp4	0.0	110.42134404182434	
13	94.92238640785217	fix_post	2		12	11.0	2.5	/experiments/knapen_AOT/AOT_stimuli/rescaled_final/1000_rv.mp4	0.0	110.93777108192444	0.10001802444458008
14	95.02240443229675	fix_pre	0		118	12.0	2.5	blank	1.0	111.03778910636902	0.9834737777709961
14	95.99778151512146	pulse	0	t		12.0	2.5	blank	1.0	112.01316618919373	
14	96.00587821006775	movie	1		301	12.0	2.5	blank	1.0	112.02126288414001	2.508661985397339
14	97.59800434112549	pulse	1	t		12.0	2.5	blank	1.0	113.61338901519775	
14	98.51454019546509	fix_post	2		12	12.0	2.5	blank	1.0	114.52992486953735	0.10002589225769043
15	98.61456608772278	fix_pre	0		120	13.0	2.5	/experiments/knapen_AOT/AOT_stimuli/rescaled_final/1650_rv.mp4	0.0	114.62995076179504	1.0085737705230713
15	99.19823241233826	pulse	0	t		13.0	2.5	/experiments/knapen_AOT/AOT_stimuli/rescaled_final/1650_rv.mp4	0.0	115.21361708641052	
15	99.62313985824585	movie	1		280	13.0	2.5	/experiments/knapen_AOT/AOT_stimuli/rescaled_final/1650_rv.mp4	0.0	115.63852453231812	2.491966485977173
15	100.79860401153564	pulse	1	t		13.0	2.5	/experiments/knapen_AOT/AOT_stimuli/rescaled_final/1650_rv.mp4	0.0	116.81398868560791	
15	102.11510634422302	fix_post	2		12	13.0	2.5	/experiments/knapen_AOT/AOT_stimuli/rescaled_final/1650_rv.mp4	0.0	118.13049101829529	0.10004091262817383
16	102.2151472568512	fix_pre	0		120	14.0	2.5	/experiments/knapen_AOT/AOT_stimuli/rescaled_final/1214_rv.mp4	0.0	118.23053193092346	1.0084538459777832
16	102.39889979362488	pulse	0	t		14.0	2.5	/experiments/knapen_AOT/AOT_stimuli/rescaled_final/1214_rv.mp4	0.0	118.41428446769714	
16	103.22360110282898	movie	1		270	14.0	2.5	/experiments/knapen_AOT/AOT_stimuli/rescaled_final/1214_rv.mp4	0.0	119.23898577690125	2.492046356201172
16	103.99892902374268	pulse	1	t		14.0	2.5	/experiments/knapen_AOT/AOT_stimuli/rescaled_final/1214_rv.mp4	0.0	120.01431369781494	
16	105.59916758537292	pulse	1	t		14.0	2.5	/experiments/knapen_AOT/AOT_stimuli/rescaled_final/1214_rv.mp4	0.0	121.61455225944519	
16	105.71564745903015	fix_post	2		12	14.0	2.5	/experiments/knapen_AOT/AOT_stimuli/rescaled_final/1214_rv.mp4	0.0	121.73103213310242	0.10001325607299805
17	105.81566071510315	fix_pre	0		120	15.0	2.5	/experiments/knapen_AOT/AOT_stimuli/rescaled_final/1500_rv.mp4	0.0	121.83104538917542	1.0085008144378662
17	106.82416152954102	movie	1		279	15.0	2.5	/experiments/knapen_AOT/AOT_stimuli/rescaled_final/1500_rv.mp4	0.0	122.83954620361328	2.4920151233673096
17	107.19762015342712	pulse	1	t		15.0	2.5	/experiments/knapen_AOT/AOT_stimuli/rescaled_final/1500_rv.mp4	0.0	123.21300482749939	
17	108.79756236076355	pulse	1	t		15.0	2.5	/experiments/knapen_AOT/AOT_stimuli/rescaled_final/1500_rv.mp4	0.0	124.81294703483582	
17	109.31617665290833	fix_post	2		12	15.0	2.5	/experiments/knapen_AOT/AOT_stimuli/rescaled_final/1500_rv.mp4	0.0	125.33156132698059	0.10003924369812012
18	109.41621589660645	fix_pre	0		119	16.0	2.5	/experiments/knapen_AOT/AOT_stimuli/rescaled_final/2084_fw.mp4	0.0	125.43160057067871	1.0001521110534668
18	110.39995288848877	pulse	0	t		16.0	2.5	/experiments/knapen_AOT/AOT_stimuli/rescaled_final/2084_fw.mp4	0.0	126.41533756256104	
18	110.41636800765991	movie	1		280	16.0	2.5	/experiments/knapen_AOT/AOT_stimuli/rescaled_final/2084_fw.mp4	0.0	126.43175268173218	2.5005109310150146
18	111.99826455116272	pulse	1	t		16.0	2.5	/experiments/knapen_AOT/AOT_stimuli/rescaled_final/2084_fw.mp4	0.0	128.01364922523499	
18	112.91687893867493	fix_post	2		12	16.0	2.5	/experiments/knapen_AOT/AOT_stimuli/rescaled_final/2084_fw.mp4	0.0	128.9322636127472	0.09999942779541016
19	113.01687836647034	fix_pre	0		120	17.0	2.5	/experiments/knapen_AOT/AOT_stimuli/rescaled_final/1117_rv.mp4	0.0	129.0322630405426	1.008390188217163
19	113.60038471221924	pulse	0	t		17.0	2.5	/experiments/knapen_AOT/AOT_stimuli/rescaled_final/1117_rv.mp4	0.0	129.6157693862915	
19	114.0252685546875	movie	1		280	17.0	2.5	/experiments/knapen_AOT/AOT_stimuli/rescaled_final/1117_rv.mp4	0.0	130.04065322875977	2.4919943809509277
19	115.19940233230591	pulse	1	t		17.0	2.5	/experiments/knapen_AOT/AOT_stimuli/rescaled_final/1117_rv.mp4	0.0	131.21478700637817	
19	116.51726293563843	fix_post	2		12	17.0	2.5	/experiments/knapen_AOT/AOT_stimuli/rescaled_final/1117_rv.mp4	0.0	132.5326476097107	0.10003376007080078
20	116.61729669570923	fix_pre	0		120	18.0	2.5	/experiments/knapen_AOT/AOT_stimuli/rescaled_final/0789_rv.mp4	0.0	132.6326813697815	1.0084857940673828
20	116.8009102344513	pulse	0	t		18.0	2.5	/experiments/knapen_AOT/AOT_stimuli/rescaled_final/0789_rv.mp4	0.0	132.81629490852356	
20	117.62578248977661	movie	1		268	18.0	2.5	/experiments/knapen_AOT/AOT_stimuli/rescaled_final/0789_rv.mp4	0.0	133.64116716384888	2.4920201301574707
20	118.39896154403687	pulse	1	t		18.0	2.5	/experiments/knapen_AOT/AOT_stimuli/rescaled_final/0789_rv.mp4	0.0	134.41434621810913	
20	119.99914312362671	pulse	1	t		18.0	2.5	/experiments/knapen_AOT/AOT_stimuli/rescaled_final/0789_rv.mp4	0.0	136.01452779769897	
20	120.11780261993408	fix_post	2		12	18.0	2.5	/experiments/knapen_AOT/AOT_stimuli/rescaled_final/0789_rv.mp4	0.0	136.13318729400635	0.10002970695495605
21	120.21783232688904	fix_pre	0		120	19.0	2.5	blank	1.0	136.2332170009613	1.0002672672271729
21	121.21809959411621	movie	1		300	19.0	2.5	blank	1.0	137.23348426818848	2.500298023223877
21	121.60157060623169	pulse	1	t		19.0	2.5	blank	1.0	137.61695528030396	
21	123.20210838317871	pulse	1	t		19.0	2.5	blank	1.0	139.21749305725098	
21	123.71839761734009	fix_post	2		12	19.0	2.5	blank	1.0	139.73378229141235	0.09997177124023438
22	123.81836938858032	fix_pre	0		119	20.0	2.5	/experiments/knapen_AOT/AOT_stimuli/rescaled_final/1946_rv.mp4	0.0	139.8337540626526	1.000178337097168
22	124.80205726623535	pulse	0	t		20.0	2.5	/experiments/knapen_AOT/AOT_stimuli/rescaled_final/1946_rv.mp4	0.0	140.81744194030762	
22	124.81854772567749	movie	1		281	20.0	2.5	/experiments/knapen_AOT/AOT_stimuli/rescaled_final/1946_rv.mp4	0.0	140.83393239974976	2.5004220008850098
22	126.40090823173523	pulse	1	t		20.0	2.5	/experiments/knapen_AOT/AOT_stimuli/rescaled_final/1946_rv.mp4	0.0	142.4162929058075	
22	127.3189697265625	fix_post	2		12	20.0	2.5	/experiments/knapen_AOT/AOT_stimuli/rescaled_final/1946_rv.mp4	0.0	143.33435440063477	0.09998250007629395
23	127.4189522266388	fix_pre	0		120	21.0	2.5	/experiments/knapen_AOT/AOT_stimuli/rescaled_final/1095_fw.mp4	0.0	143.43433690071106	1.0084388256072998
23	128.0025017261505	pulse	0	t		21.0	2.5	/experiments/knapen_AOT/AOT_stimuli/rescaled_final/1095_fw.mp4	0.0	144.01788640022278	
23	128.4273910522461	movie	1		277	21.0	2.5	/experiments/knapen_AOT/AOT_stimuli/rescaled_final/1095_fw.mp4	0.0	144.44277572631836	2.4920530319213867
23	129.60230779647827	pulse	1	t		21.0	2.5	/experiments/knapen_AOT/AOT_stimuli/rescaled_final/1095_fw.mp4	0.0	145.61769247055054	
23	130.91944408416748	fix_post	2		12	21.0	2.5	/experiments/knapen_AOT/AOT_stimuli/rescaled_final/1095_fw.mp4	0.0	146.93482875823975	0.10000371932983398
24	131.01944780349731	fix_pre	0		120	22.0	2.5	/experiments/knapen_AOT/AOT_stimuli/rescaled_final/1537_rv.mp4	0.0	147.03483247756958	1.0084946155548096
24	131.2030909061432	pulse	0	t		22.0	2.5	/experiments/knapen_AOT/AOT_stimuli/rescaled_final/1537_rv.mp4	0.0	147.21847558021545	
24	132.02794241905212	movie	1		280	22.0	2.5	/experiments/knapen_AOT/AOT_stimuli/rescaled_final/1537_rv.mp4	0.0	148.0433270931244	2.492213010787964
24	132.8011510372162	pulse	1	t		22.0	2.5	/experiments/knapen_AOT/AOT_stimuli/rescaled_final/1537_rv.mp4	0.0	148.81653571128845	
24	134.4012689590454	pulse	1	t		22.0	2.5	/experiments/knapen_AOT/AOT_stimuli/rescaled_final/1537_rv.mp4	0.0	150.41665363311768	
24	134.5201554298401	fix_post	2		12	22.0	2.5	/experiments/knapen_AOT/AOT_stimuli/rescaled_final/1537_rv.mp4	0.0	150.53554010391235	0.09984064102172852
25	134.61999607086182	fix_pre	0		120	23.0	2.5	/experiments/knapen_AOT/AOT_stimuli/rescaled_final/0986_fw.mp4	0.0	150.63538074493408	1.0084939002990723
25	135.6284899711609	movie	1		283	23.0	2.5	/experiments/knapen_AOT/AOT_stimuli/rescaled_final/0986_fw.mp4	0.0	151.64387464523315	2.492009401321411
25	136.00196242332458	pulse	1	t		23.0	2.5	/experiments/knapen_AOT/AOT_stimuli/rescaled_final/0986_fw.mp4	0.0	152.01734709739685	
25	137.60173892974854	pulse	1	t		23.0	2.5	/experiments/knapen_AOT/AOT_stimuli/rescaled_final/0986_fw.mp4	0.0	153.6171236038208	
25	138.1204993724823	fix_post	2		12	23.0	2.5	/experiments/knapen_AOT/AOT_stimuli/rescaled_final/0986_fw.mp4	0.0	154.13588404655457	0.10005426406860352
26	138.2205536365509	fix_pre	0		119	24.0	2.5	/experiments/knapen_AOT/AOT_stimuli/rescaled_final/1242_fw.mp4	0.0	154.23593831062317	1.0001885890960693
26	139.20456314086914	pulse	0	t		24.0	2.5	/experiments/knapen_AOT/AOT_stimuli/rescaled_final/1242_fw.mp4	0.0	155.2199478149414	
26	139.22074222564697	movie	1		275	24.0	2.5	/experiments/knapen_AOT/AOT_stimuli/rescaled_final/1242_fw.mp4	0.0	155.23612689971924	2.5005991458892822
26	140.80313634872437	pulse	1	t		24.0	2.5	/experiments/knapen_AOT/AOT_stimuli/rescaled_final/1242_fw.mp4	0.0	156.81852102279663	
26	141.72134137153625	fix_post	2		12	24.0	2.5	/experiments/knapen_AOT/AOT_stimuli/rescaled_final/1242_fw.mp4	0.0	157.73672604560852	0.0997629165649414
27	141.8211042881012	fix_pre	0		120	25.0	2.5	/experiments/knapen_AOT/AOT_stimuli/rescaled_final/1244_fw.mp4	0.0	157.83648896217346	1.0085408687591553
27	142.40471816062927	pulse	0	t		25.0	2.5	/experiments/knapen_AOT/AOT_stimuli/rescaled_final/1244_fw.mp4	0.0	158.42010283470154	
27	142.82964515686035	movie	1		288	25.0	2.5	/experiments/knapen_AOT/AOT_stimuli/rescaled_final/1244_fw.mp4	0.0	158.84502983093262	2.491952419281006
27	144.00298643112183	pulse	1	t		25.0	2.5	/experiments/knapen_AOT/AOT_stimuli/rescaled_final/1244_fw.mp4	0.0	160.0183711051941	
27	145.32159757614136	fix_post	2		12	25.0	2.5	/experiments/knapen_AOT/AOT_stimuli/rescaled_final/1244_fw.mp4	0.0	161.33698225021362	0.09999823570251465
28	145.42159581184387	fix_pre	0		120	26.0	2.5	/experiments/knapen_AOT/AOT_stimuli/rescaled_final/1422_fw.mp4	0.0	161.43698048591614	1.0085091590881348
28	145.5977964401245	pulse	0	t		26.0	2.5	/experiments/knapen_AOT/AOT_stimuli/rescaled_final/1422_fw.mp4	0.0	161.61318111419678	
28	146.430104970932	movie	1		282	26.0	2.5	/experiments/knapen_AOT/AOT_stimuli/rescaled_final/1422_fw.mp4	0.0	162.44548964500427	2.4920685291290283
28	147.2032516002655	pulse	1	t		26.0	2.5	/experiments/knapen_AOT/AOT_stimuli/rescaled_final/1422_fw.mp4	0.0	163.21863627433777	
28	148.80357193946838	pulse	1	t		26.0	2.5	/experiments/knapen_AOT/AOT_stimuli/rescaled_final/1422_fw.mp4	0.0	164.81895661354065	
28	148.92217350006104	fix_post	2		12	26.0	2.5	/experiments/knapen_AOT/AOT_stimuli/rescaled_final/1422_fw.mp4	0.0	164.9375581741333	0.10000872611999512
29	149.02218222618103	fix_pre	0		120	27.0	2.5	blank	1.0	165.0375669002533	1.0000965595245361
29	150.02227878570557	movie	1		300	27.0	2.5	blank	1.0	166.03766345977783	2.5004560947418213
29	150.39780259132385	pulse	1	t		27.0	2.5	blank	1.0	166.41318726539612	
29	151.99782061576843	pulse	1	t		27.0	2.5	blank	1.0	168.0132052898407	
29	152.5227348804474	fix_post	2		12	27.0	2.5	blank	1.0	168.53811955451965	0.09995532035827637
30	152.62269020080566	fix_pre	0		118	28.0	2.5	/experiments/knapen_AOT/AOT_stimuli/rescaled_final/1870_fw.mp4	0.0	168.63807487487793	0.9918458461761475
30	153.5981159210205	pulse	0	t		28.0	2.5	/experiments/knapen_AOT/AOT_stimuli/rescaled_final/1870_fw.mp4	0.0	169.61350059509277	
30	153.6145360469818	movie	1		267	28.0	2.5	/experiments/knapen_AOT/AOT_stimuli/rescaled_final/1870_fw.mp4	0.0	169.62992072105408	2.5003421306610107
30	155.19851446151733	pulse	1	t		28.0	2.5	/experiments/knapen_AOT/AOT_stimuli/rescaled_final/1870_fw.mp4	0.0	171.2138991355896	
30	156.11487817764282	fix_post	2		12	28.0	2.5	/experiments/knapen_AOT/AOT_stimuli/rescaled_final/1870_fw.mp4	0.0	172.1302628517151	0.10013079643249512
31	156.21500897407532	fix_pre	0		120	29.0	2.5	/experiments/knapen_AOT/AOT_stimuli/rescaled_final/0675_rv.mp4	0.0	172.23039364814758	1.0083777904510498
31	156.79864859580994	pulse	0	t		29.0	2.5	/experiments/knapen_AOT/AOT_stimuli/rescaled_final/0675_rv.mp4	0.0	172.8140332698822	
31	157.22338676452637	movie	1		258	29.0	2.5	/experiments/knapen_AOT/AOT_stimuli/rescaled_final/0675_rv.mp4	0.0	173.23877143859863	2.4920289516448975
31	158.3988938331604	pulse	1	t		29.0	2.5	/experiments/knapen_AOT/AOT_stimuli/rescaled_final/0675_rv.mp4	0.0	174.41427850723267	
31	159.71541571617126	fix_post	2		12	29.0	2.5	/experiments/knapen_AOT/AOT_stimuli/rescaled_final/0675_rv.mp4	0.0	175.73080039024353	0.10002708435058594
32	159.81544280052185	fix_pre	0		120	30.0	2.5	/experiments/knapen_AOT/AOT_stimuli/rescaled_final/1569_fw.mp4	0.0	175.83082747459412	1.008472204208374
32	159.99906659126282	pulse	0	t		30.0	2.5	/experiments/knapen_AOT/AOT_stimuli/rescaled_final/1569_fw.mp4	0.0	176.01445126533508	
32	160.82391500473022	movie	1		283	30.0	2.5	/experiments/knapen_AOT/AOT_stimuli/rescaled_final/1569_fw.mp4	0.0	176.8392996788025	2.492053985595703
32	161.59906387329102	pulse	1	t		30.0	2.5	/experiments/knapen_AOT/AOT_stimuli/rescaled_final/1569_fw.mp4	0.0	177.61444854736328	
32	163.19948649406433	pulse	1	t		30.0	2.5	/experiments/knapen_AOT/AOT_stimuli/rescaled_final/1569_fw.mp4	0.0	179.2148711681366	
32	163.31596899032593	fix_post	2		12	30.0	2.5	/experiments/knapen_AOT/AOT_stimuli/rescaled_final/1569_fw.mp4	0.0	179.3313536643982	0.10008692741394043
33	163.41605591773987	fix_pre	0		120	31.0	2.5	/experiments/knapen_AOT/AOT_stimuli/rescaled_final/0084_fw.mp4	0.0	179.43144059181213	1.0084164142608643
33	164.42447233200073	movie	1		277	31.0	2.5	/experiments/knapen_AOT/AOT_stimuli/rescaled_final/0084_fw.mp4	0.0	180.439857006073	2.4920740127563477
33	164.79826021194458	pulse	1	t		31.0	2.5	/experiments/knapen_AOT/AOT_stimuli/rescaled_final/0084_fw.mp4	0.0	180.81364488601685	
33	166.39997720718384	pulse	1	t		31.0	2.5	/experiments/knapen_AOT/AOT_stimuli/rescaled_final/0084_fw.mp4	0.0	182.4153618812561	
33	166.91654634475708	fix_post	2		12	31.0	2.5	/experiments/knapen_AOT/AOT_stimuli/rescaled_final/0084_fw.mp4	0.0	182.93193101882935	0.10000967979431152
34	167.0165560245514	fix_pre	0		119	32.0	2.5	/experiments/knapen_AOT/AOT_stimuli/rescaled_final/1638_rv.mp4	0.0	183.03194069862366	1.0002367496490479
34	168.0002679824829	pulse	0	t		32.0	2.5	/experiments/knapen_AOT/AOT_stimuli/rescaled_final/1638_rv.mp4	0.0	184.01565265655518	
34	168.01679277420044	movie	1		278	32.0	2.5	/experiments/knapen_AOT/AOT_stimuli/rescaled_final/1638_rv.mp4	0.0	184.0321774482727	2.5002658367156982
34	169.5996630191803	pulse	1	t		32.0	2.5	/experiments/knapen_AOT/AOT_stimuli/rescaled_final/1638_rv.mp4	0.0	185.61504769325256	
34	170.51705861091614	fix_post	2		12	32.0	2.5	/experiments/knapen_AOT/AOT_stimuli/rescaled_final/1638_rv.mp4	0.0	186.5324432849884	0.10007643699645996
35	170.6171350479126	fix_pre	0		120	33.0	2.5	/experiments/knapen_AOT/AOT_stimuli/rescaled_final/0901_fw.mp4	0.0	186.63251972198486	1.0084433555603027
35	171.20071172714233	pulse	0	t		33.0	2.5	/experiments/knapen_AOT/AOT_stimuli/rescaled_final/0901_fw.mp4	0.0	187.2160964012146	
35	171.6255784034729	movie	1		275	33.0	2.5	/experiments/knapen_AOT/AOT_stimuli/rescaled_final/0901_fw.mp4	0.0	187.64096307754517	2.4920034408569336
35	172.79888892173767	pulse	1	t		33.0	2.5	/experiments/knapen_AOT/AOT_stimuli/rescaled_final/0901_fw.mp4	0.0	188.81427359580994	
35	174.11758184432983	fix_post	2		12	33.0	2.5	/experiments/knapen_AOT/AOT_stimuli/rescaled_final/0901_fw.mp4	0.0	190.1329665184021	0.10002779960632324
36	174.21760964393616	fix_pre	0		120	34.0	2.5	/experiments/knapen_AOT/AOT_stimuli/rescaled_final/0419_fw.mp4	0.0	190.23299431800842	1.0084936618804932
36	174.4011833667755	pulse	0	t		34.0	2.5	/experiments/knapen_AOT/AOT_stimuli/rescaled_final/0419_fw.mp4	0.0	190.41656804084778	
36	175.22610330581665	movie	1		272	34.0	2.5	/experiments/knapen_AOT/AOT_stimuli/rescaled_final/0419_fw.mp4	0.0	191.24148797988892	2.4920644760131836
36	175.99913477897644	pulse	1	t		34.0	2.5	/experiments/knapen_AOT/AOT_stimuli/rescaled_final/0419_fw.mp4	0.0	192.0145194530487	
36	177.59963655471802	pulse	1	t		34.0	2.5	/experiments/knapen_AOT/AOT_stimuli/rescaled_final/0419_fw.mp4	0.0	193.61502122879028	
36	177.71816778182983	fix_post	2		12	34.0	2.5	/experiments/knapen_AOT/AOT_stimuli/rescaled_final/0419_fw.mp4	0.0	193.7335524559021	0.10001397132873535
37	177.81818175315857	fix_pre	0		120	35.0	2.5	blank	1.0	193.83356642723083	1.0001261234283447
37	178.8183078765869	movie	1		300	35.0	2.5	blank	1.0	194.83369255065918	2.5003767013549805
37	179.20190596580505	pulse	1	t		35.0	2.5	blank	1.0	195.21729063987732	
37	180.80219841003418	pulse	1	t		35.0	2.5	blank	1.0	196.81758308410645	
37	181.3186845779419	fix_post	2		12	35.0	2.5	blank	1.0	197.33406925201416	0.10006046295166016
38	181.41874504089355	fix_pre	0		119	36.0	2.5	/experiments/knapen_AOT/AOT_stimuli/rescaled_final/1000_fw.mp4	0.0	197.43412971496582	1.0001022815704346
38	182.4023494720459	pulse	0	t		36.0	2.5	/experiments/knapen_AOT/AOT_stimuli/rescaled_final/1000_fw.mp4	0.0	198.41773414611816	
38	182.418847322464	movie	1		279	36.0	2.5	/experiments/knapen_AOT/AOT_stimuli/rescaled_final/1000_fw.mp4	0.0	198.43423199653625	2.500380277633667
38	184.0022587776184	pulse	1	t		36.0	2.5	/experiments/knapen_AOT/AOT_stimuli/rescaled_final/1000_fw.mp4	0.0	200.01764345169067	
38	184.91922760009766	fix_post	2		12	36.0	2.5	/experiments/knapen_AOT/AOT_stimuli/rescaled_final/1000_fw.mp4	0.0	200.93461227416992	0.10000300407409668
39	185.01923060417175	fix_pre	0		120	37.0	2.5	/experiments/knapen_AOT/AOT_stimuli/rescaled_final/2092_rv.mp4	0.0	201.03461527824402	1.0085904598236084
39	185.60290217399597	pulse	0	t		37.0	2.5	/experiments/knapen_AOT/AOT_stimuli/rescaled_final/2092_rv.mp4	0.0	201.61828684806824	
39	186.02782106399536	movie	1		275	37.0	2.5	/experiments/knapen_AOT/AOT_stimuli/rescaled_final/2092_rv.mp4	0.0	202.04320573806763	2.491933822631836
39	187.201101064682	pulse	1	t		37.0	2.5	/experiments/knapen_AOT/AOT_stimuli/rescaled_final/2092_rv.mp4	0.0	203.21648573875427	
39	188.5197548866272	fix_post	2		12	37.0	2.5	/experiments/knapen_AOT/AOT_stimuli/rescaled_final/2092_rv.mp4	0.0	204.53513956069946	0.10001850128173828
40	188.61977338790894	fix_pre	0		120	38.0	2.5	/experiments/knapen_AOT/AOT_stimuli/rescaled_final/0525_rv.mp4	0.0	204.6351580619812	1.0085008144378662
40	188.8036482334137	pulse	0	t		38.0	2.5	/experiments/knapen_AOT/AOT_stimuli/rescaled_final/0525_rv.mp4	0.0	204.81903290748596	
40	189.6282742023468	movie	1		269	38.0	2.5	/experiments/knapen_AOT/AOT_stimuli/rescaled_final/0525_rv.mp4	0.0	205.64365887641907	2.4920413494110107
40	190.4014208316803	pulse	1	t		38.0	2.5	/experiments/knapen_AOT/AOT_stimuli/rescaled_final/0525_rv.mp4	0.0	206.41680550575256	
40	192.0017695426941	pulse	1	t		38.0	2.5	/experiments/knapen_AOT/AOT_stimuli/rescaled_final/0525_rv.mp4	0.0	208.01715421676636	
40	192.1203155517578	fix_post	2		12	38.0	2.5	/experiments/knapen_AOT/AOT_stimuli/rescaled_final/0525_rv.mp4	0.0	208.13570022583008	0.1001126766204834
41	192.2204282283783	fix_pre	0		120	39.0	2.5	/experiments/knapen_AOT/AOT_stimuli/rescaled_final/2141_fw.mp4	0.0	208.23581290245056	1.008378505706787
41	193.22880673408508	movie	1		272	39.0	2.5	/experiments/knapen_AOT/AOT_stimuli/rescaled_final/2141_fw.mp4	0.0	209.24419140815735	2.4920284748077393
41	193.60383892059326	pulse	1	t		39.0	2.5	/experiments/knapen_AOT/AOT_stimuli/rescaled_final/2141_fw.mp4	0.0	209.61922359466553	
41	195.2022910118103	pulse	1	t		39.0	2.5	/experiments/knapen_AOT/AOT_stimuli/rescaled_final/2141_fw.mp4	0.0	211.21767568588257	
41	195.72083520889282	fix_post	2		12	39.0	2.5	/experiments/knapen_AOT/AOT_stimuli/rescaled_final/2141_fw.mp4	0.0	211.7362198829651	0.10000467300415039
42	195.82083988189697	fix_pre	0		119	40.0	2.5	/experiments/knapen_AOT/AOT_stimuli/rescaled_final/1361_rv.mp4	0.0	211.83622455596924	1.0001540184020996
42	196.8045289516449	pulse	0	t		40.0	2.5	/experiments/knapen_AOT/AOT_stimuli/rescaled_final/1361_rv.mp4	0.0	212.81991362571716	
42	196.82099390029907	movie	1		263	40.0	2.5	/experiments/knapen_AOT/AOT_stimuli/rescaled_final/1361_rv.mp4	0.0	212.83637857437134	2.5005722045898438
42	198.4035623073578	pulse	1	t		40.0	2.5	/experiments/knapen_AOT/AOT_stimuli/rescaled_final/1361_rv.mp4	0.0	214.41894698143005	
42	199.32156610488892	fix_post	2		12	40.0	2.5	/experiments/knapen_AOT/AOT_stimuli/rescaled_final/1361_rv.mp4	0.0	215.33695077896118	0.09983348846435547
43	199.42139959335327	fix_pre	0		120	41.0	2.5	/experiments/knapen_AOT/AOT_stimuli/rescaled_final/0114_fw.mp4	0.0	215.43678426742554	1.008498191833496
43	200.00503063201904	pulse	0	t		41.0	2.5	/experiments/knapen_AOT/AOT_stimuli/rescaled_final/0114_fw.mp4	0.0	216.0204153060913	
43	200.42989778518677	movie	1		268	41.0	2.5	/experiments/knapen_AOT/AOT_stimuli/rescaled_final/0114_fw.mp4	0.0	216.44528245925903	2.4920129776000977
43	201.60381364822388	pulse	1	t		41.0	2.5	/experiments/knapen_AOT/AOT_stimuli/rescaled_final/0114_fw.mp4	0.0	217.61919832229614	
43	202.92191076278687	fix_post	2		12	41.0	2.5	/experiments/knapen_AOT/AOT_stimuli/rescaled_final/0114_fw.mp4	0.0	218.93729543685913	0.10002875328063965
44	203.0219395160675	fix_pre	0		120	42.0	2.5	blank	1.0	219.03732419013977	1.0001397132873535
44	203.20568370819092	pulse	0	t		42.0	2.5	blank	1.0	219.22106838226318	
44	204.02207922935486	movie	1		300	42.0	2.5	blank	1.0	220.03746390342712	2.5004186630249023
44	204.79804158210754	pulse	1	t		42.0	2.5	blank	1.0	220.8134262561798	
44	206.39814281463623	pulse	1	t		42.0	2.5	blank	1.0	222.4135274887085	
44	206.52249789237976	fix_post	2		12	42.0	2.5	blank	1.0	222.53788256645203	0.09999871253967285
45	206.62249660491943	fix_pre	0		120	43.0	2.5	/experiments/knapen_AOT/AOT_stimuli/rescaled_final/1903_rv.mp4	0.0	222.6378812789917	1.0084593296051025
45	207.63095593452454	movie	1		276	43.0	2.5	/experiments/knapen_AOT/AOT_stimuli/rescaled_final/1903_rv.mp4	0.0	223.6463406085968	2.4920265674591064
45	207.99864506721497	pulse	1	t		43.0	2.5	/experiments/knapen_AOT/AOT_stimuli/rescaled_final/1903_rv.mp4	0.0	224.01402974128723	
45	209.5984251499176	pulse	1	t		43.0	2.5	/experiments/knapen_AOT/AOT_stimuli/rescaled_final/1903_rv.mp4	0.0	225.61380982398987	
45	210.12298250198364	fix_post	2		12	43.0	2.5	/experiments/knapen_AOT/AOT_stimuli/rescaled_final/1903_rv.mp4	0.0	226.1383671760559	0.10005974769592285
46	210.22304224967957	fix_pre	0		118	44.0	2.5	/experiments/knapen_AOT/AOT_stimuli/rescaled_final/0504_fw.mp4	0.0	226.23842692375183	0.9917948246002197
46	211.1983621120453	pulse	0	t		44.0	2.5	/experiments/knapen_AOT/AOT_stimuli/rescaled_final/0504_fw.mp4	0.0	227.21374678611755	
46	211.21483707427979	movie	1		286	44.0	2.5	/experiments/knapen_AOT/AOT_stimuli/rescaled_final/0504_fw.mp4	0.0	227.23022174835205	2.50042462348938
46	212.79722714424133	pulse	1	t		44.0	2.5	/experiments/knapen_AOT/AOT_stimuli/rescaled_final/0504_fw.mp4	0.0	228.8126118183136	
46	213.71526169776917	fix_post	2		12	44.0	2.5	/experiments/knapen_AOT/AOT_stimuli/rescaled_final/0504_fw.mp4	0.0	229.73064637184143	0.09993743896484375
47	213.815199136734	fix_pre	0		120	45.0	2.5	/experiments/knapen_AOT/AOT_stimuli/rescaled_final/0675_fw.mp4	0.0	229.83058381080627	1.0085222721099854
47	214.3988800048828	pulse	0	t		45.0	2.5	/experiments/knapen_AOT/AOT_stimuli/rescaled_final/0675_fw.mp4	0.0	230.41426467895508	
47	214.823721408844	movie	1		275	45.0	2.5	/experiments/knapen_AOT/AOT_stimuli/rescaled_final/0675_fw.mp4	0.0	230.83910608291626	2.492074489593506
47	215.99909257888794	pulse	1	t		45.0	2.5	/experiments/knapen_AOT/AOT_stimuli/rescaled_final/0675_fw.mp4	0.0	232.0144772529602	
47	217.3157958984375	fix_post	2		12	45.0	2.5	/experiments/knapen_AOT/AOT_stimuli/rescaled_final/0675_fw.mp4	0.0	233.33118057250977	0.09996986389160156
48	217.4157657623291	fix_pre	0		120	46.0	2.5	/experiments/knapen_AOT/AOT_stimuli/rescaled_final/1268_fw.mp4	0.0	233.43115043640137	1.0084939002990723
48	217.5993525981903	pulse	0	t		46.0	2.5	/experiments/knapen_AOT/AOT_stimuli/rescaled_final/1268_fw.mp4	0.0	233.61473727226257	
48	218.42425966262817	movie	1		253	46.0	2.5	/experiments/knapen_AOT/AOT_stimuli/rescaled_final/1268_fw.mp4	0.0	234.43964433670044	2.49202299118042
48	219.19746780395508	pulse	1	t		46.0	2.5	/experiments/knapen_AOT/AOT_stimuli/rescaled_final/1268_fw.mp4	0.0	235.21285247802734	
48	220.8000614643097	pulse	1	t		46.0	2.5	/experiments/knapen_AOT/AOT_stimuli/rescaled_final/1268_fw.mp4	0.0	236.81544613838196	
48	220.9162826538086	fix_post	2		12	46.0	2.5	/experiments/knapen_AOT/AOT_stimuli/rescaled_final/1268_fw.mp4	0.0	236.93166732788086	0.10006475448608398
49	221.01634740829468	fix_pre	0		120	47.0	2.5	/experiments/knapen_AOT/AOT_stimuli/rescaled_final/0795_fw.mp4	0.0	237.03173208236694	1.0084724426269531
49	222.02481985092163	movie	1		264	47.0	2.5	/experiments/knapen_AOT/AOT_stimuli/rescaled_final/0795_fw.mp4	0.0	238.0402045249939	2.492013454437256
49	222.3980655670166	pulse	1	t		47.0	2.5	/experiments/knapen_AOT/AOT_stimuli/rescaled_final/0795_fw.mp4	0.0	238.41345024108887	
49	223.99803066253662	pulse	1	t		47.0	2.5	/experiments/knapen_AOT/AOT_stimuli/rescaled_final/0795_fw.mp4	0.0	240.0134153366089	
49	224.5168333053589	fix_post	2		12	47.0	2.5	/experiments/knapen_AOT/AOT_stimuli/rescaled_final/0795_fw.mp4	0.0	240.53221797943115	0.10001683235168457
50	224.61685013771057	fix_pre	0		119	48.0	2.5	blank	1.0	240.63223481178284	0.9917912483215332
50	225.60066890716553	pulse	0	t		48.0	2.5	blank	1.0	241.6160535812378	
50	225.6086413860321	movie	1		301	48.0	2.5	blank	1.0	241.62402606010437	2.508718729019165
50	227.20080637931824	pulse	1	t		48.0	2.5	blank	1.0	243.2161910533905	
50	228.11736011505127	fix_post	2		12	48.0	2.5	blank	1.0	244.13274478912354	0.10002756118774414
51	228.217387676239	fix_pre	0		120	49.0	2.5	/experiments/knapen_AOT/AOT_stimuli/rescaled_final/1714_fw.mp4	0.0	244.23277235031128	1.0085115432739258
51	228.80100297927856	pulse	0	t		49.0	2.5	/experiments/knapen_AOT/AOT_stimuli/rescaled_final/1714_fw.mp4	0.0	244.81638765335083	
51	229.22589921951294	movie	1		283	49.0	2.5	/experiments/knapen_AOT/AOT_stimuli/rescaled_final/1714_fw.mp4	0.0	245.2412838935852	2.4920694828033447
51	230.3993320465088	pulse	1	t		49.0	2.5	/experiments/knapen_AOT/AOT_stimuli/rescaled_final/1714_fw.mp4	0.0	246.41471672058105	
51	231.71796870231628	fix_post	2		12	49.0	2.5	/experiments/knapen_AOT/AOT_stimuli/rescaled_final/1714_fw.mp4	0.0	247.73335337638855	0.1000821590423584
52	231.81805086135864	fix_pre	0		120	50.0	2.5	/experiments/knapen_AOT/AOT_stimuli/rescaled_final/0595_fw.mp4	0.0	247.8334355354309	1.008380651473999
52	232.00149416923523	pulse	0	t		50.0	2.5	/experiments/knapen_AOT/AOT_stimuli/rescaled_final/0595_fw.mp4	0.0	248.0168788433075	
52	232.82643151283264	movie	1		281	50.0	2.5	/experiments/knapen_AOT/AOT_stimuli/rescaled_final/0595_fw.mp4	0.0	248.8418161869049	2.4920642375946045
52	233.59971690177917	pulse	1	t		50.0	2.5	/experiments/knapen_AOT/AOT_stimuli/rescaled_final/0595_fw.mp4	0.0	249.61510157585144	
52	235.2003173828125	pulse	1	t		50.0	2.5	/experiments/knapen_AOT/AOT_stimuli/rescaled_final/0595_fw.mp4	0.0	251.21570205688477	
52	235.31849575042725	fix_post	2		12	50.0	2.5	/experiments/knapen_AOT/AOT_stimuli/rescaled_final/0595_fw.mp4	0.0	251.3338804244995	0.10003209114074707
53	235.418527841568	fix_pre	0		120	51.0	2.5	/experiments/knapen_AOT/AOT_stimuli/rescaled_final/1550_fw.mp4	0.0	251.43391251564026	1.008446216583252
53	236.42697405815125	movie	1		276	51.0	2.5	/experiments/knapen_AOT/AOT_stimuli/rescaled_final/1550_fw.mp4	0.0	252.4423587322235	2.4920310974121094
53	236.80057764053345	pulse	1	t		51.0	2.5	/experiments/knapen_AOT/AOT_stimuli/rescaled_final/1550_fw.mp4	0.0	252.8159623146057	
53	238.40032863616943	pulse	1	t		51.0	2.5	/experiments/knapen_AOT/AOT_stimuli/rescaled_final/1550_fw.mp4	0.0	254.4157133102417	
53	238.91900515556335	fix_post	2		12	51.0	2.5	/experiments/knapen_AOT/AOT_stimuli/rescaled_final/1550_fw.mp4	0.0	254.93438982963562	0.10004472732543945
54	239.0190498828888	fix_pre	0		119	52.0	2.5	/experiments/knapen_AOT/AOT_stimuli/rescaled_final/1327_fw.mp4	0.0	255.03443455696106	1.0001423358917236
54	240.0026819705963	pulse	0	t		52.0	2.5	/experiments/knapen_AOT/AOT_stimuli/rescaled_final/1327_fw.mp4	0.0	256.0180666446686	
54	240.01919221878052	movie	1		281	52.0	2.5	/experiments/knapen_AOT/AOT_stimuli/rescaled_final/1327_fw.mp4	0.0	256.0345768928528	2.500340223312378
54	241.60144066810608	pulse	1	t		52.0	2.5	/experiments/knapen_AOT/AOT_stimuli/rescaled_final/1327_fw.mp4	0.0	257.61682534217834	
54	242.5195324420929	fix_post	2		12	52.0	2.5	/experiments/knapen_AOT/AOT_stimuli/rescaled_final/1327_fw.mp4	0.0	258.53491711616516	0.10001850128173828
55	242.61955094337463	fix_pre	0		120	53.0	2.5	/experiments/knapen_AOT/AOT_stimuli/rescaled_final/0410_rv.mp4	0.0	258.6349356174469	1.008516788482666
55	243.2032573223114	pulse	0	t		53.0	2.5	/experiments/knapen_AOT/AOT_stimuli/rescaled_final/0410_rv.mp4	0.0	259.21864199638367	
55	243.6280677318573	movie	1		278	53.0	2.5	/experiments/knapen_AOT/AOT_stimuli/rescaled_final/0410_rv.mp4	0.0	259.64345240592957	2.492032527923584
55	244.80243396759033	pulse	1	t		53.0	2.5	/experiments/knapen_AOT/AOT_stimuli/rescaled_final/0410_rv.mp4	0.0	260.8178186416626	
55	246.12010025978088	fix_post	2		12	53.0	2.5	/experiments/knapen_AOT/AOT_stimuli/rescaled_final/0410_rv.mp4	0.0	262.13548493385315	0.10003232955932617
56	246.2201325893402	fix_pre	0		120	54.0	2.5	/experiments/knapen_AOT/AOT_stimuli/rescaled_final/0676_fw.mp4	0.0	262.2355172634125	1.0084648132324219
56	246.40372848510742	pulse	0	t		54.0	2.5	/experiments/knapen_AOT/AOT_stimuli/rescaled_final/0676_fw.mp4	0.0	262.4191131591797	
56	247.22859740257263	movie	1		271	54.0	2.5	/experiments/knapen_AOT/AOT_stimuli/rescaled_final/0676_fw.mp4	0.0	263.2439820766449	2.4920132160186768
56	248.00207495689392	pulse	1	t		54.0	2.5	/experiments/knapen_AOT/AOT_stimuli/rescaled_final/0676_fw.mp4	0.0	264.0174596309662	
56	249.6019103527069	pulse	1	t		54.0	2.5	/experiments/knapen_AOT/AOT_stimuli/rescaled_final/0676_fw.mp4	0.0	265.6172950267792	
56	249.7206106185913	fix_post	2		12	54.0	2.5	/experiments/knapen_AOT/AOT_stimuli/rescaled_final/0676_fw.mp4	0.0	265.7359952926636	0.10001921653747559
57	249.82062983512878	fix_pre	0		120	55.0	2.5	blank	1.0	265.83601450920105	1.0001411437988281
57	250.8207709789276	movie	1		300	55.0	2.5	blank	1.0	266.8361556529999	2.5003745555877686
57	251.20442152023315	pulse	1	t		55.0	2.5	blank	1.0	267.2198061943054	
57	252.80455136299133	pulse	1	t		55.0	2.5	blank	1.0	268.8199360370636	
57	253.32114553451538	fix_post	2		12	55.0	2.5	blank	1.0	269.33653020858765	0.10003948211669922
58	253.42118501663208	fix_pre	0		119	56.0	2.5	/experiments/knapen_AOT/AOT_stimuli/rescaled_final/1858_rv.mp4	0.0	269.43656969070435	1.0084953308105469
58	254.4049084186554	pulse	0	t		56.0	2.5	/experiments/knapen_AOT/AOT_stimuli/rescaled_final/1858_rv.mp4	0.0	270.42029309272766	
58	254.42968034744263	movie	1		271	56.0	2.5	/experiments/knapen_AOT/AOT_stimuli/rescaled_final/1858_rv.mp4	0.0	270.4450650215149	2.492004871368408
58	256.0041127204895	pulse	1	t		56.0	2.5	/experiments/knapen_AOT/AOT_stimuli/rescaled_final/1858_rv.mp4	0.0	272.01949739456177	
58	256.92168521881104	fix_post	2		12	56.0	2.5	/experiments/knapen_AOT/AOT_stimuli/rescaled_final/1858_rv.mp4	0.0	272.9370698928833	0.10002398490905762
59	257.0217092037201	fix_pre	0		120	57.0	2.5	/experiments/knapen_AOT/AOT_stimuli/rescaled_final/0184_fw.mp4	0.0	273.03709387779236	1.008531093597412
59	257.5974247455597	pulse	0	t		57.0	2.5	/experiments/knapen_AOT/AOT_stimuli/rescaled_final/0184_fw.mp4	0.0	273.61280941963196	
59	258.0302402973175	movie	1		282	57.0	2.5	/experiments/knapen_AOT/AOT_stimuli/rescaled_final/0184_fw.mp4	0.0	274.04562497138977	2.492020845413208
59	259.19814133644104	pulse	1	t		57.0	2.5	/experiments/knapen_AOT/AOT_stimuli/rescaled_final/0184_fw.mp4	0.0	275.2135260105133	
59	260.5222611427307	fix_post	2		12	57.0	2.5	/experiments/knapen_AOT/AOT_stimuli/rescaled_final/0184_fw.mp4	0.0	276.537645816803	0.10000443458557129
60	260.6222655773163	fix_pre	0		120	58.0	2.5	/experiments/knapen_AOT/AOT_stimuli/rescaled_final/2109_rv.mp4	0.0	276.63765025138855	1.0084850788116455
60	260.7979545593262	pulse	0	t		58.0	2.5	/experiments/knapen_AOT/AOT_stimuli/rescaled_final/2109_rv.mp4	0.0	276.81333923339844	
60	261.63075065612793	movie	1		283	58.0	2.5	/experiments/knapen_AOT/AOT_stimuli/rescaled_final/2109_rv.mp4	0.0	277.6461353302002	2.4920225143432617
60	262.3977336883545	pulse	1	t		58.0	2.5	/experiments/knapen_AOT/AOT_stimuli/rescaled_final/2109_rv.mp4	0.0	278.41311836242676	
60	263.9982912540436	pulse	1	t		58.0	2.5	/experiments/knapen_AOT/AOT_stimuli/rescaled_final/2109_rv.mp4	0.0	280.01367592811584	
60	264.1227731704712	fix_post	2		12	58.0	2.5	/experiments/knapen_AOT/AOT_stimuli/rescaled_final/2109_rv.mp4	0.0	280.13815784454346	0.10004949569702148
61	264.2228226661682	fix_pre	0		120	59.0	2.5	/experiments/knapen_AOT/AOT_stimuli/rescaled_final/0491_rv.mp4	0.0	280.2382073402405	1.008488655090332
61	265.23131132125854	movie	1		284	59.0	2.5	/experiments/knapen_AOT/AOT_stimuli/rescaled_final/0491_rv.mp4	0.0	281.2466959953308	2.4920198917388916
61	265.59824872016907	pulse	1	t		59.0	2.5	/experiments/knapen_AOT/AOT_stimuli/rescaled_final/0491_rv.mp4	0.0	281.61363339424133	
61	267.198477268219	pulse	1	t		59.0	2.5	/experiments/knapen_AOT/AOT_stimuli/rescaled_final/0491_rv.mp4	0.0	283.21386194229126	
61	267.72333121299744	fix_post	2		12	59.0	2.5	/experiments/knapen_AOT/AOT_stimuli/rescaled_final/0491_rv.mp4	0.0	283.7387158870697	0.10003209114074707
62	267.8233633041382	fix_pre	0		118	60.0	2.5	/experiments/knapen_AOT/AOT_stimuli/rescaled_final/1016_fw.mp4	0.0	283.83874797821045	0.9918138980865479
62	268.7987048625946	pulse	0	t		60.0	2.5	/experiments/knapen_AOT/AOT_stimuli/rescaled_final/1016_fw.mp4	0.0	284.81408953666687	
62	268.81517720222473	movie	1		276	60.0	2.5	/experiments/knapen_AOT/AOT_stimuli/rescaled_final/1016_fw.mp4	0.0	284.830561876297	2.500345230102539
62	270.3989803791046	pulse	1	t		60.0	2.5	/experiments/knapen_AOT/AOT_stimuli/rescaled_final/1016_fw.mp4	0.0	286.4143650531769	
62	271.31552243232727	fix_post	2		12	60.0	2.5	/experiments/knapen_AOT/AOT_stimuli/rescaled_final/1016_fw.mp4	0.0	287.33090710639954	0.10002875328063965
63	271.4155511856079	fix_pre	0		120	61.0	2.5	/experiments/knapen_AOT/AOT_stimuli/rescaled_final/0891_rv.mp4	0.0	287.4309358596802	1.0085046291351318
63	271.99920654296875	pulse	0	t		61.0	2.5	/experiments/knapen_AOT/AOT_stimuli/rescaled_final/0891_rv.mp4	0.0	288.014591217041	
63	272.42405581474304	movie	1		279	61.0	2.5	/experiments/knapen_AOT/AOT_stimuli/rescaled_final/0891_rv.mp4	0.0	288.4394404888153	2.4920029640197754
63	273.599449634552	pulse	1	t		61.0	2.5	/experiments/knapen_AOT/AOT_stimuli/rescaled_final/0891_rv.mp4	0.0	289.61483430862427	
63	274.9160587787628	fix_post	2		12	61.0	2.5	/experiments/knapen_AOT/AOT_stimuli/rescaled_final/0891_rv.mp4	0.0	290.9314434528351	0.10004091262817383
64	275.016099691391	fix_pre	0		120	62.0	2.5	blank	1.0	291.03148436546326	1.0001258850097656
64	275.199666261673	pulse	0	t		62.0	2.5	blank	1.0	291.21505093574524	
64	276.01622557640076	movie	1		300	62.0	2.5	blank	1.0	292.031610250473	2.5004663467407227
64	276.8000476360321	pulse	1	t		62.0	2.5	blank	1.0	292.81543231010437	
64	278.4002048969269	pulse	1	t		62.0	2.5	blank	1.0	294.41558957099915	
64	278.5166919231415	fix_post	2		12	62.0	2.5	blank	1.0	294.53207659721375	0.0999305248260498
65	278.61662244796753	fix_pre	0		120	63.0	2.5	/experiments/knapen_AOT/AOT_stimuli/rescaled_final/1177_fw.mp4	0.0	294.6320071220398	1.0085866451263428
65	279.6252090930939	movie	1		276	63.0	2.5	/experiments/knapen_AOT/AOT_stimuli/rescaled_final/1177_fw.mp4	0.0	295.64059376716614	2.49198055267334
65	279.9986147880554	pulse	1	t		63.0	2.5	/experiments/knapen_AOT/AOT_stimuli/rescaled_final/1177_fw.mp4	0.0	296.0139994621277	
65	281.59880805015564	pulse	1	t		63.0	2.5	/experiments/knapen_AOT/AOT_stimuli/rescaled_final/1177_fw.mp4	0.0	297.6141927242279	
65	282.1171896457672	fix_post	2		12	63.0	2.5	/experiments/knapen_AOT/AOT_stimuli/rescaled_final/1177_fw.mp4	0.0	298.1325743198395	0.09993982315063477
66	282.21712946891785	fix_pre	0		119	64.0	2.5	/experiments/knapen_AOT/AOT_stimuli/rescaled_final/1858_fw.mp4	0.0	298.2325141429901	1.0002355575561523
66	283.2009632587433	pulse	0	t		64.0	2.5	/experiments/knapen_AOT/AOT_stimuli/rescaled_final/1858_fw.mp4	0.0	299.21634793281555	
66	283.217365026474	movie	1		278	64.0	2.5	/experiments/knapen_AOT/AOT_stimuli/rescaled_final/1858_fw.mp4	0.0	299.23274970054626	2.5086703300476074
66	284.8012366294861	pulse	1	t		64.0	2.5	/experiments/knapen_AOT/AOT_stimuli/rescaled_final/1858_fw.mp4	0.0	300.81662130355835	
66	285.7260353565216	fix_post	2		11	64.0	2.5	/experiments/knapen_AOT/AOT_stimuli/rescaled_final/1858_fw.mp4	0.0	301.7414200305939	0.09171676635742188
67	285.817752122879	fix_pre	0		120	65.0	2.5	/experiments/knapen_AOT/AOT_stimuli/rescaled_final/1181_fw.mp4	0.0	301.8331367969513	1.0084681510925293
67	286.4013137817383	pulse	0	t		65.0	2.5	/experiments/knapen_AOT/AOT_stimuli/rescaled_final/1181_fw.mp4	0.0	302.41669845581055	
67	286.82622027397156	movie	1		286	65.0	2.5	/experiments/knapen_AOT/AOT_stimuli/rescaled_final/1181_fw.mp4	0.0	302.8416049480438	2.492006301879883
67	288.00164818763733	pulse	1	t		65.0	2.5	/experiments/knapen_AOT/AOT_stimuli/rescaled_final/1181_fw.mp4	0.0	304.0170328617096	
67	289.31822657585144	fix_post	2		12	65.0	2.5	/experiments/knapen_AOT/AOT_stimuli/rescaled_final/1181_fw.mp4	0.0	305.3336112499237	0.10005617141723633
68	289.4182827472687	fix_pre	0		120	66.0	2.5	/experiments/knapen_AOT/AOT_stimuli/rescaled_final/1095_fw.mp4	0.0	305.43366742134094	1.0084800720214844
68	289.60180592536926	pulse	0	t		66.0	2.5	/experiments/knapen_AOT/AOT_stimuli/rescaled_final/1095_fw.mp4	0.0	305.6171905994415	
68	290.42676281929016	movie	1		278	66.0	2.5	/experiments/knapen_AOT/AOT_stimuli/rescaled_final/1095_fw.mp4	0.0	306.4421474933624	2.492093086242676
68	291.19999957084656	pulse	1	t		66.0	2.5	/experiments/knapen_AOT/AOT_stimuli/rescaled_final/1095_fw.mp4	0.0	307.2153842449188	
68	292.80050444602966	pulse	1	t		66.0	2.5	/experiments/knapen_AOT/AOT_stimuli/rescaled_final/1095_fw.mp4	0.0	308.81588912010193	
68	292.91885590553284	fix_post	2		12	66.0	2.5	/experiments/knapen_AOT/AOT_stimuli/rescaled_final/1095_fw.mp4	0.0	308.9342405796051	0.09993696212768555
69	293.0187928676605	fix_pre	0		120	67.0	2.5	/experiments/knapen_AOT/AOT_stimuli/rescaled_final/0410_fw.mp4	0.0	309.0341775417328	1.0085053443908691
69	294.0272982120514	movie	1		277	67.0	2.5	/experiments/knapen_AOT/AOT_stimuli/rescaled_final/0410_fw.mp4	0.0	310.04268288612366	2.49202299118042
69	294.4007134437561	pulse	1	t		67.0	2.5	/experiments/knapen_AOT/AOT_stimuli/rescaled_final/0410_fw.mp4	0.0	310.41609811782837	
69	296.0008566379547	pulse	1	t		67.0	2.5	/experiments/knapen_AOT/AOT_stimuli/rescaled_final/0410_fw.mp4	0.0	312.016241312027	
69	296.5193212032318	fix_post	2		12	67.0	2.5	/experiments/knapen_AOT/AOT_stimuli/rescaled_final/0410_fw.mp4	0.0	312.5347058773041	0.10001802444458008
70	296.6193392276764	fix_pre	0		119	68.0	2.5	/experiments/knapen_AOT/AOT_stimuli/rescaled_final/1984_rv.mp4	0.0	312.63472390174866	1.0001280307769775
70	297.603147983551	pulse	0	t		68.0	2.5	/experiments/knapen_AOT/AOT_stimuli/rescaled_final/1984_rv.mp4	0.0	313.6185326576233	
70	297.61946725845337	movie	1		291	68.0	2.5	/experiments/knapen_AOT/AOT_stimuli/rescaled_final/1984_rv.mp4	0.0	313.63485193252563	2.5004189014434814
70	299.20184898376465	pulse	1	t		68.0	2.5	/experiments/knapen_AOT/AOT_stimuli/rescaled_final/1984_rv.mp4	0.0	315.2172336578369	
70	300.11988615989685	fix_post	2		12	68.0	2.5	/experiments/knapen_AOT/AOT_stimuli/rescaled_final/1984_rv.mp4	0.0	316.1352708339691	0.09998655319213867
71	300.219872713089	fix_pre	0		120	69.0	2.5	blank	1.0	316.23525738716125	1.0001506805419922
71	300.8034772872925	pulse	0	t		69.0	2.5	blank	1.0	316.81886196136475	
71	301.220023393631	movie	1		300	69.0	2.5	blank	1.0	317.23540806770325	2.5003714561462402
71	302.40372824668884	pulse	1	t		69.0	2.5	blank	1.0	318.4191129207611	
71	303.7203948497772	fix_post	2		12	69.0	2.5	blank	1.0	319.7357795238495	0.1000359058380127
72	303.82043075561523	fix_pre	0		120	70.0	2.5	/experiments/knapen_AOT/AOT_stimuli/rescaled_final/1158_fw.mp4	0.0	319.8358154296875	1.008531093597412
72	304.00399947166443	pulse	0	t		70.0	2.5	/experiments/knapen_AOT/AOT_stimuli/rescaled_final/1158_fw.mp4	0.0	320.0193841457367	
72	304.82896184921265	movie	1		289	70.0	2.5	/experiments/knapen_AOT/AOT_stimuli/rescaled_final/1158_fw.mp4	0.0	320.8443465232849	2.4919567108154297
72	305.60226821899414	pulse	1	t		70.0	2.5	/experiments/knapen_AOT/AOT_stimuli/rescaled_final/1158_fw.mp4	0.0	321.6176528930664	
72	307.2022194862366	pulse	1	t		70.0	2.5	/experiments/knapen_AOT/AOT_stimuli/rescaled_final/1158_fw.mp4	0.0	323.21760416030884	
72	307.3209185600281	fix_post	2		12	70.0	2.5	/experiments/knapen_AOT/AOT_stimuli/rescaled_final/1158_fw.mp4	0.0	323.33630323410034	0.10003376007080078
73	307.4209523200989	fix_pre	0		120	71.0	2.5	/experiments/knapen_AOT/AOT_stimuli/rescaled_final/1903_fw.mp4	0.0	323.43633699417114	1.0085866451263428
73	308.4295389652252	movie	1		284	71.0	2.5	/experiments/knapen_AOT/AOT_stimuli/rescaled_final/1903_fw.mp4	0.0	324.4449236392975	2.491971254348755
73	308.80313515663147	pulse	1	t		71.0	2.5	/experiments/knapen_AOT/AOT_stimuli/rescaled_final/1903_fw.mp4	0.0	324.81851983070374	
73	310.40339183807373	pulse	1	t		71.0	2.5	/experiments/knapen_AOT/AOT_stimuli/rescaled_final/1903_fw.mp4	0.0	326.418776512146	
73	310.921510219574	fix_post	2		12	71.0	2.5	/experiments/knapen_AOT/AOT_stimuli/rescaled_final/1903_fw.mp4	0.0	326.93689489364624	0.09999370574951172
74	311.0215039253235	fix_pre	0		119	72.0	2.5	/experiments/knapen_AOT/AOT_stimuli/rescaled_final/0428_fw.mp4	0.0	327.03688859939575	1.0002562999725342
74	312.00519609451294	pulse	0	t		72.0	2.5	/experiments/knapen_AOT/AOT_stimuli/rescaled_final/0428_fw.mp4	0.0	328.0205807685852	
74	312.021760225296	movie	1		276	72.0	2.5	/experiments/knapen_AOT/AOT_stimuli/rescaled_final/0428_fw.mp4	0.0	328.0371448993683	2.5002710819244385
74	313.6036596298218	pulse	1	t		72.0	2.5	/experiments/knapen_AOT/AOT_stimuli/rescaled_final/0428_fw.mp4	0.0	329.61904430389404	
74	314.52203130722046	fix_post	2		12	72.0	2.5	/experiments/knapen_AOT/AOT_stimuli/rescaled_final/0428_fw.mp4	0.0	330.5374159812927	0.10000991821289062
75	314.62204122543335	fix_pre	0		120	73.0	2.5	/experiments/knapen_AOT/AOT_stimuli/rescaled_final/0788_fw.mp4	0.0	330.6374258995056	1.0084774494171143
75	315.1978831291199	pulse	0	t		73.0	2.5	/experiments/knapen_AOT/AOT_stimuli/rescaled_final/0788_fw.mp4	0.0	331.21326780319214	
75	315.63051867485046	movie	1		273	73.0	2.5	/experiments/knapen_AOT/AOT_stimuli/rescaled_final/0788_fw.mp4	0.0	331.64590334892273	2.492032527923584
75	316.7979860305786	pulse	1	t		73.0	2.5	/experiments/knapen_AOT/AOT_stimuli/rescaled_final/0788_fw.mp4	0.0	332.8133707046509	
75	318.12255120277405	fix_post	2		12	73.0	2.5	/experiments/knapen_AOT/AOT_stimuli/rescaled_final/0788_fw.mp4	0.0	334.1379358768463	0.10006594657897949
76	318.222617149353	fix_pre	0		120	74.0	2.5	/experiments/knapen_AOT/AOT_stimuli/rescaled_final/1925_rv.mp4	0.0	334.2380018234253	1.0085031986236572
76	318.3981554508209	pulse	0	t		74.0	2.5	/experiments/knapen_AOT/AOT_stimuli/rescaled_final/1925_rv.mp4	0.0	334.4135401248932	
76	319.2311203479767	movie	1		283	74.0	2.5	/experiments/knapen_AOT/AOT_stimuli/rescaled_final/1925_rv.mp4	0.0	335.24650502204895	2.4920055866241455
76	319.99805426597595	pulse	1	t		74.0	2.5	/experiments/knapen_AOT/AOT_stimuli/rescaled_final/1925_rv.mp4	0.0	336.0134389400482	
76	321.5983319282532	pulse	1	t		74.0	2.5	/experiments/knapen_AOT/AOT_stimuli/rescaled_final/1925_rv.mp4	0.0	337.61371660232544	
76	321.72312593460083	fix_post	2		12	74.0	2.5	/experiments/knapen_AOT/AOT_stimuli/rescaled_final/1925_rv.mp4	0.0	337.7385106086731	0.09999656677246094
77	321.8231225013733	fix_pre	0		120	75.0	2.5	/experiments/knapen_AOT/AOT_stimuli/rescaled_final/1547_fw.mp4	0.0	337.83850717544556	1.0084912776947021
77	322.831613779068	movie	1		276	75.0	2.5	/experiments/knapen_AOT/AOT_stimuli/rescaled_final/1547_fw.mp4	0.0	338.84699845314026	2.492068290710449
77	323.19878673553467	pulse	1	t		75.0	2.5	/experiments/knapen_AOT/AOT_stimuli/rescaled_final/1547_fw.mp4	0.0	339.21417140960693	
77	324.79891443252563	pulse	1	t		75.0	2.5	/experiments/knapen_AOT/AOT_stimuli/rescaled_final/1547_fw.mp4	0.0	340.8142991065979	
77	325.32368206977844	fix_post	2		11	75.0	2.5	/experiments/knapen_AOT/AOT_stimuli/rescaled_final/1547_fw.mp4	0.0	341.3390667438507	0.09999608993530273
78	325.42367815971375	fix_pre	0		118	76.0	2.5	/experiments/knapen_AOT/AOT_stimuli/rescaled_final/0521_rv.mp4	0.0	341.439062833786	0.9918210506439209
78	326.3991801738739	pulse	0	t		76.0	2.5	/experiments/knapen_AOT/AOT_stimuli/rescaled_final/0521_rv.mp4	0.0	342.41456484794617	
78	326.41549921035767	movie	1		257	76.0	2.5	/experiments/knapen_AOT/AOT_stimuli/rescaled_final/0521_rv.mp4	0.0	342.43088388442993	2.5004217624664307
78	327.99928522109985	pulse	1	t		76.0	2.5	/experiments/knapen_AOT/AOT_stimuli/rescaled_final/0521_rv.mp4	0.0	344.0146698951721	
78	328.9159209728241	fix_post	2		12	76.0	2.5	/experiments/knapen_AOT/AOT_stimuli/rescaled_final/0521_rv.mp4	0.0	344.93130564689636	0.09992384910583496
79	329.01584482192993	fix_pre	0		120	77.0	2.5	blank	1.0	345.0312294960022	1.0001840591430664
79	329.5994989871979	pulse	0	t		77.0	2.5	blank	1.0	345.61488366127014	
79	330.016028881073	movie	1		300	77.0	2.5	blank	1.0	346.03141355514526	2.500342607498169
79	331.19973039627075	pulse	1	t		77.0	2.5	blank	1.0	347.215115070343	
79	332.51637148857117	fix_post	2		12	77.0	2.5	blank	1.0	348.53175616264343	0.10003805160522461
80	332.6164095401764	fix_pre	0		120	78.0	2.5	/experiments/knapen_AOT/AOT_stimuli/rescaled_final/1510_rv.mp4	0.0	348.63179421424866	1.0084991455078125
80	332.79996395111084	pulse	0	t		78.0	2.5	/experiments/knapen_AOT/AOT_stimuli/rescaled_final/1510_rv.mp4	0.0	348.8153486251831	
80	333.6249086856842	movie	1		289	78.0	2.5	/experiments/knapen_AOT/AOT_stimuli/rescaled_final/1510_rv.mp4	0.0	349.64029335975647	2.4920551776885986
80	334.39863085746765	pulse	1	t		78.0	2.5	/experiments/knapen_AOT/AOT_stimuli/rescaled_final/1510_rv.mp4	0.0	350.4140155315399	
80	335.99843430519104	pulse	1	t		78.0	2.5	/experiments/knapen_AOT/AOT_stimuli/rescaled_final/1510_rv.mp4	0.0	352.0138189792633	
80	336.1169638633728	fix_post	2		12	78.0	2.5	/experiments/knapen_AOT/AOT_stimuli/rescaled_final/1510_rv.mp4	0.0	352.13234853744507	0.09996819496154785
81	336.21693205833435	fix_pre	0		120	79.0	2.5	/experiments/knapen_AOT/AOT_stimuli/rescaled_final/0901_fw.mp4	0.0	352.2323167324066	1.0085086822509766
81	337.2254407405853	movie	1		283	79.0	2.5	/experiments/knapen_AOT/AOT_stimuli/rescaled_final/0901_fw.mp4	0.0	353.2408254146576	2.4920241832733154
81	337.5989716053009	pulse	1	t		79.0	2.5	/experiments/knapen_AOT/AOT_stimuli/rescaled_final/0901_fw.mp4	0.0	353.61435627937317	
81	339.1988060474396	pulse	1	t		79.0	2.5	/experiments/knapen_AOT/AOT_stimuli/rescaled_final/0901_fw.mp4	0.0	355.21419072151184	
81	339.71746492385864	fix_post	2		12	79.0	2.5	/experiments/knapen_AOT/AOT_stimuli/rescaled_final/0901_fw.mp4	0.0	355.7328495979309	0.10004305839538574
82	339.817507982254	fix_pre	0		119	80.0	2.5	/experiments/knapen_AOT/AOT_stimuli/rescaled_final/1950_rv.mp4	0.0	355.8328926563263	1.000136137008667
82	340.80119490623474	pulse	0	t		80.0	2.5	/experiments/knapen_AOT/AOT_stimuli/rescaled_final/1950_rv.mp4	0.0	356.816579580307	
82	340.8176441192627	movie	1		276	80.0	2.5	/experiments/knapen_AOT/AOT_stimuli/rescaled_final/1950_rv.mp4	0.0	356.83302879333496	2.500354051589966
82	342.4015233516693	pulse	1	t		80.0	2.5	/experiments/knapen_AOT/AOT_stimuli/rescaled_final/1950_rv.mp4	0.0	358.4169080257416	
82	343.31799817085266	fix_post	2		12	80.0	2.5	/experiments/knapen_AOT/AOT_stimuli/rescaled_final/1950_rv.mp4	0.0	359.3333828449249	0.10003829002380371
83	343.41803646087646	fix_pre	0		120	81.0	2.5	/experiments/knapen_AOT/AOT_stimuli/rescaled_final/1009_rv.mp4	0.0	359.43342113494873	1.008495569229126
83	344.0016872882843	pulse	0	t		81.0	2.5	/experiments/knapen_AOT/AOT_stimuli/rescaled_final/1009_rv.mp4	0.0	360.01707196235657	
83	344.4265320301056	movie	1		274	81.0	2.5	/experiments/knapen_AOT/AOT_stimuli/rescaled_final/1009_rv.mp4	0.0	360.44191670417786	2.4920263290405273
83	345.6000373363495	pulse	1	t		81.0	2.5	/experiments/knapen_AOT/AOT_stimuli/rescaled_final/1009_rv.mp4	0.0	361.61542201042175	
83	346.9185583591461	fix_post	2		12	81.0	2.5	/experiments/knapen_AOT/AOT_stimuli/rescaled_final/1009_rv.mp4	0.0	362.9339430332184	0.10006403923034668
84	347.01862239837646	fix_pre	0		120	82.0	2.5	blank	1.0	363.03400707244873	1.0000889301300049
84	347.20235443115234	pulse	0	t		82.0	2.5	blank	1.0	363.2177391052246	
84	348.01871132850647	movie	1		300	82.0	2.5	blank	1.0	364.03409600257874	2.5003929138183594
84	348.8023738861084	pulse	1	t		82.0	2.5	blank	1.0	364.81775856018066	
84	350.4026381969452	pulse	1	t		82.0	2.5	blank	1.0	366.41802287101746	
84	350.51910424232483	fix_post	2		12	82.0	2.5	blank	1.0	366.5344889163971	0.10000371932983398
85	350.61910796165466	fix_pre	0		120	83.0	2.5	/experiments/knapen_AOT/AOT_stimuli/rescaled_final/1158_rv.mp4	0.0	366.63449263572693	1.0084972381591797
85	351.62760519981384	movie	1		274	83.0	2.5	/experiments/knapen_AOT/AOT_stimuli/rescaled_final/1158_rv.mp4	0.0	367.6429898738861	2.492013454437256
85	352.0014593601227	pulse	1	t		83.0	2.5	/experiments/knapen_AOT/AOT_stimuli/rescaled_final/1158_rv.mp4	0.0	368.01684403419495	
85	353.6010956764221	pulse	1	t		83.0	2.5	/experiments/knapen_AOT/AOT_stimuli/rescaled_final/1158_rv.mp4	0.0	369.6164803504944	
85	354.1196186542511	fix_post	2		12	83.0	2.5	/experiments/knapen_AOT/AOT_stimuli/rescaled_final/1158_rv.mp4	0.0	370.13500332832336	0.10000038146972656
87	354.2196190357208	stim	0		1715					370.2350037097931	14.293842554092407
87	355.2035105228424	pulse	0	t						371.2188951969147	
87	356.8036665916443	pulse	0	t						372.81905126571655	
87	358.4038007259369	pulse	0	t						374.41918540000916	
87	360.0040910243988	pulse	0	t						376.01947569847107	
87	361.60433435440063	pulse	0	t						377.6197190284729	
87	363.2045738697052	pulse	0	t						379.21995854377747	
87	364.80480885505676	pulse	0	t						380.820193529129	
87	366.4049894809723	pulse	0	t						382.42037415504456	
87	368.00535130500793	pulse	0	t						384.0207359790802	
