trial_nr	onset	event_type	phase	response	nr_frames	movie_index	movie_duration	movie_file	blank	onset_abs	duration
0	0.2083899974822998	stim	0		925					28.791970014572144	7.709298133850098
0	7.9096550941467285	response	0	space						36.49323511123657	
1	7.9176881313323975	stim	0		3399					36.50126814842224	28.34896993637085
1	36.23710799217224	pulse	0	t						64.82068800926208	
1	36.26665806770325	stim	1		1716					64.85023808479309	14.299062013626099
1	37.83158802986145	pulse	1	t						66.4151680469513	
1	39.43164110183716	pulse	1	t						68.015221118927	
1	41.03199219703674	pulse	1	t						69.61557221412659	
1	42.63149809837341	pulse	1	t						71.21507811546326	
1	44.23155403137207	pulse	1	t						72.81513404846191	
1	45.831804037094116	pulse	1	t						74.41538405418396	
1	47.432088136672974	pulse	1	t						76.01566815376282	
1	49.032400131225586	pulse	1	t						77.61598014831543	
2	50.565720081329346	fix_pre	0		9	0.0	2.5	/experiments/knapen_AOT/AOT_stimuli/rescaled_final/1019_rv.mp4	0.0	79.14930009841919	0.0749669075012207
2	50.63260102272034	pulse	0	t		0.0	2.5	/experiments/knapen_AOT/AOT_stimuli/rescaled_final/1019_rv.mp4	0.0	79.21618103981018	
2	50.640686988830566	movie	1		245	0.0	2.5	/experiments/knapen_AOT/AOT_stimuli/rescaled_final/1019_rv.mp4	0.0	79.22426700592041	2.5087621212005615
2	52.237290143966675	pulse	1	t		0.0	2.5	/experiments/knapen_AOT/AOT_stimuli/rescaled_final/1019_rv.mp4	0.0	80.82087016105652	
2	53.14944911003113	fix_post	2		12	0.0	2.5	/experiments/knapen_AOT/AOT_stimuli/rescaled_final/1019_rv.mp4	0.0	81.73302912712097	0.10006403923034668
3	53.249513149261475	fix_pre	0		120	1.0	2.5	/experiments/knapen_AOT/AOT_stimuli/rescaled_final/2088_fw.mp4	0.0	81.83309316635132	1.0000908374786377
3	53.8331081867218	pulse	0	t		1.0	2.5	/experiments/knapen_AOT/AOT_stimuli/rescaled_final/2088_fw.mp4	0.0	82.41668820381165	
3	54.24960398674011	movie	1		246	1.0	2.5	/experiments/knapen_AOT/AOT_stimuli/rescaled_final/2088_fw.mp4	0.0	82.83318400382996	2.500439167022705
3	55.43350100517273	pulse	1	t		1.0	2.5	/experiments/knapen_AOT/AOT_stimuli/rescaled_final/2088_fw.mp4	0.0	84.01708102226257	
3	56.75004315376282	fix_post	2		12	1.0	2.5	/experiments/knapen_AOT/AOT_stimuli/rescaled_final/2088_fw.mp4	0.0	85.33362317085266	0.09992694854736328
4	56.84997010231018	fix_pre	0		120	2.0	2.5	/experiments/knapen_AOT/AOT_stimuli/rescaled_final/0401_rv.mp4	0.0	85.43355011940002	1.00018310546875
4	57.0335431098938	pulse	0	t		2.0	2.5	/experiments/knapen_AOT/AOT_stimuli/rescaled_final/0401_rv.mp4	0.0	85.61712312698364	
4	57.85015320777893	movie	1		244	2.0	2.5	/experiments/knapen_AOT/AOT_stimuli/rescaled_final/0401_rv.mp4	0.0	86.43373322486877	2.5003538131713867
4	58.6338791847229	pulse	1	t		2.0	2.5	/experiments/knapen_AOT/AOT_stimuli/rescaled_final/0401_rv.mp4	0.0	87.21745920181274	
4	60.234135150909424	pulse	1	t		2.0	2.5	/experiments/knapen_AOT/AOT_stimuli/rescaled_final/0401_rv.mp4	0.0	88.81771516799927	
4	60.35050702095032	fix_post	2		12	2.0	2.5	/experiments/knapen_AOT/AOT_stimuli/rescaled_final/0401_rv.mp4	0.0	88.93408703804016	0.10007905960083008
5	60.45058608055115	fix_pre	0		120	3.0	2.5	/experiments/knapen_AOT/AOT_stimuli/rescaled_final/2048_fw.mp4	0.0	89.03416609764099	1.0000920295715332
5	61.45067811012268	movie	1		243	3.0	2.5	/experiments/knapen_AOT/AOT_stimuli/rescaled_final/2048_fw.mp4	0.0	90.03425812721252	2.492039918899536
5	61.83480405807495	pulse	1	t		3.0	2.5	/experiments/knapen_AOT/AOT_stimuli/rescaled_final/2048_fw.mp4	0.0	90.4183840751648	
5	63.434617042541504	pulse	1	t		3.0	2.5	/experiments/knapen_AOT/AOT_stimuli/rescaled_final/2048_fw.mp4	0.0	92.01819705963135	
5	63.94271802902222	fix_post	2		12	3.0	2.5	/experiments/knapen_AOT/AOT_stimuli/rescaled_final/2048_fw.mp4	0.0	92.52629804611206	0.09999608993530273
6	64.04271411895752	fix_pre	0		120	4.0	2.5	/experiments/knapen_AOT/AOT_stimuli/rescaled_final/0328_rv.mp4	0.0	92.62629413604736	1.0001559257507324
6	65.03469610214233	pulse	0	t		4.0	2.5	/experiments/knapen_AOT/AOT_stimuli/rescaled_final/0328_rv.mp4	0.0	93.61827611923218	
6	65.04287004470825	movie	1		245	4.0	2.5	/experiments/knapen_AOT/AOT_stimuli/rescaled_final/0328_rv.mp4	0.0	93.6264500617981	2.5087270736694336
6	66.63553810119629	pulse	1	t		4.0	2.5	/experiments/knapen_AOT/AOT_stimuli/rescaled_final/0328_rv.mp4	0.0	95.21911811828613	
6	67.55159711837769	fix_post	2		12	4.0	2.5	/experiments/knapen_AOT/AOT_stimuli/rescaled_final/0328_rv.mp4	0.0	96.13517713546753	0.1000208854675293
7	67.65161800384521	fix_pre	0		120	5.0	2.5	/experiments/knapen_AOT/AOT_stimuli/rescaled_final/0131_fw.mp4	0.0	96.23519802093506	1.000143051147461
7	68.23529601097107	pulse	0	t		5.0	2.5	/experiments/knapen_AOT/AOT_stimuli/rescaled_final/0131_fw.mp4	0.0	96.81887602806091	
7	68.65176105499268	movie	1		244	5.0	2.5	/experiments/knapen_AOT/AOT_stimuli/rescaled_final/0131_fw.mp4	0.0	97.23534107208252	2.5003490447998047
7	69.83560013771057	pulse	1	t		5.0	2.5	/experiments/knapen_AOT/AOT_stimuli/rescaled_final/0131_fw.mp4	0.0	98.41918015480042	
7	71.15211009979248	fix_post	2		12	5.0	2.5	/experiments/knapen_AOT/AOT_stimuli/rescaled_final/0131_fw.mp4	0.0	99.73569011688232	0.1001119613647461
8	71.25222206115723	fix_pre	0		120	6.0	2.5	/experiments/knapen_AOT/AOT_stimuli/rescaled_final/1742_fw.mp4	0.0	99.83580207824707	1.0000569820404053
8	71.435711145401	pulse	0	t		6.0	2.5	/experiments/knapen_AOT/AOT_stimuli/rescaled_final/1742_fw.mp4	0.0	100.01929116249084	
8	72.25227904319763	movie	1		243	6.0	2.5	/experiments/knapen_AOT/AOT_stimuli/rescaled_final/1742_fw.mp4	0.0	100.83585906028748	2.500370979309082
8	73.03589916229248	pulse	1	t		6.0	2.5	/experiments/knapen_AOT/AOT_stimuli/rescaled_final/1742_fw.mp4	0.0	101.61947917938232	
8	74.63609910011292	pulse	1	t		6.0	2.5	/experiments/knapen_AOT/AOT_stimuli/rescaled_final/1742_fw.mp4	0.0	103.21967911720276	
8	74.75265002250671	fix_post	2		12	6.0	2.5	/experiments/knapen_AOT/AOT_stimuli/rescaled_final/1742_fw.mp4	0.0	103.33623003959656	0.10004210472106934
9	74.85269212722778	fix_pre	0		119	7.0	2.5	blank	1.0	103.43627214431763	0.9917929172515869
9	75.84448504447937	movie	1		300	7.0	2.5	blank	1.0	104.42806506156921	2.5003700256347656
9	76.23656702041626	pulse	1	t		7.0	2.5	blank	1.0	104.8201470375061	
9	77.83667707443237	pulse	1	t		7.0	2.5	blank	1.0	106.42025709152222	
9	78.34485507011414	fix_post	2		12	7.0	2.5	blank	1.0	106.92843508720398	0.10010194778442383
10	78.44495701789856	fix_pre	0		120	8.0	2.5	/experiments/knapen_AOT/AOT_stimuli/rescaled_final/1319_rv.mp4	0.0	107.0285370349884	1.0001020431518555
10	79.43684720993042	pulse	0	t		8.0	2.5	/experiments/knapen_AOT/AOT_stimuli/rescaled_final/1319_rv.mp4	0.0	108.02042722702026	
10	79.44505906105042	movie	1		247	8.0	2.5	/experiments/knapen_AOT/AOT_stimuli/rescaled_final/1319_rv.mp4	0.0	108.02863907814026	2.5086679458618164
10	81.03751707077026	pulse	1	t		8.0	2.5	/experiments/knapen_AOT/AOT_stimuli/rescaled_final/1319_rv.mp4	0.0	109.62109708786011	
10	81.95372700691223	fix_post	2		12	8.0	2.5	/experiments/knapen_AOT/AOT_stimuli/rescaled_final/1319_rv.mp4	0.0	110.53730702400208	0.1000211238861084
11	82.05374813079834	fix_pre	0		120	9.0	2.5	/experiments/knapen_AOT/AOT_stimuli/rescaled_final/0401_fw.mp4	0.0	110.63732814788818	1.0001530647277832
11	82.63749599456787	pulse	0	t		9.0	2.5	/experiments/knapen_AOT/AOT_stimuli/rescaled_final/0401_fw.mp4	0.0	111.22107601165771	
11	83.05390119552612	movie	1		241	9.0	2.5	/experiments/knapen_AOT/AOT_stimuli/rescaled_final/0401_fw.mp4	0.0	111.63748121261597	2.5003650188446045
11	84.23774409294128	pulse	1	t		9.0	2.5	/experiments/knapen_AOT/AOT_stimuli/rescaled_final/0401_fw.mp4	0.0	112.82132411003113	
11	85.55426621437073	fix_post	2		12	9.0	2.5	/experiments/knapen_AOT/AOT_stimuli/rescaled_final/0401_fw.mp4	0.0	114.13784623146057	0.10003089904785156
12	85.65429711341858	fix_pre	0		120	10.0	2.5	/experiments/knapen_AOT/AOT_stimuli/rescaled_final/2127_rv.mp4	0.0	114.23787713050842	1.0001869201660156
12	85.83784413337708	pulse	0	t		10.0	2.5	/experiments/knapen_AOT/AOT_stimuli/rescaled_final/2127_rv.mp4	0.0	114.42142415046692	
12	86.6544840335846	movie	1		247	10.0	2.5	/experiments/knapen_AOT/AOT_stimuli/rescaled_final/2127_rv.mp4	0.0	115.23806405067444	2.500333070755005
12	87.43814015388489	pulse	1	t		10.0	2.5	/experiments/knapen_AOT/AOT_stimuli/rescaled_final/2127_rv.mp4	0.0	116.02172017097473	
12	89.03845715522766	pulse	1	t		10.0	2.5	/experiments/knapen_AOT/AOT_stimuli/rescaled_final/2127_rv.mp4	0.0	117.6220371723175	
12	89.1548171043396	fix_post	2		12	10.0	2.5	/experiments/knapen_AOT/AOT_stimuli/rescaled_final/2127_rv.mp4	0.0	117.73839712142944	0.09998488426208496
13	89.25480198860168	fix_pre	0		119	11.0	2.5	/experiments/knapen_AOT/AOT_stimuli/rescaled_final/1194_fw.mp4	0.0	117.83838200569153	0.9918441772460938
13	90.24664616584778	movie	1		247	11.0	2.5	/experiments/knapen_AOT/AOT_stimuli/rescaled_final/1194_fw.mp4	0.0	118.83022618293762	2.5004470348358154
13	90.63874912261963	pulse	1	t		11.0	2.5	/experiments/knapen_AOT/AOT_stimuli/rescaled_final/1194_fw.mp4	0.0	119.22232913970947	
13	92.23881506919861	pulse	1	t		11.0	2.5	/experiments/knapen_AOT/AOT_stimuli/rescaled_final/1194_fw.mp4	0.0	120.82239508628845	
13	92.7470932006836	fix_post	2		12	11.0	2.5	/experiments/knapen_AOT/AOT_stimuli/rescaled_final/1194_fw.mp4	0.0	121.33067321777344	0.09991788864135742
14	92.84701108932495	fix_pre	0		120	12.0	2.5	blank	1.0	121.4305911064148	1.0001890659332275
14	93.83895206451416	pulse	0	t		12.0	2.5	blank	1.0	122.422532081604	
14	93.84720015525818	movie	1		301	12.0	2.5	blank	1.0	122.43078017234802	2.508685827255249
14	95.43936800956726	pulse	1	t		12.0	2.5	blank	1.0	124.0229480266571	
14	96.35588598251343	fix_post	2		12	12.0	2.5	blank	1.0	124.93946599960327	0.10010504722595215
15	96.45599102973938	fix_pre	0		120	13.0	2.5	/experiments/knapen_AOT/AOT_stimuli/rescaled_final/0693_fw.mp4	0.0	125.03957104682922	1.0000600814819336
15	97.03202509880066	pulse	0	t		13.0	2.5	/experiments/knapen_AOT/AOT_stimuli/rescaled_final/0693_fw.mp4	0.0	125.6156051158905	
15	97.45605111122131	movie	1		243	13.0	2.5	/experiments/knapen_AOT/AOT_stimuli/rescaled_final/0693_fw.mp4	0.0	126.03963112831116	2.5003960132598877
15	98.63983702659607	pulse	1	t		13.0	2.5	/experiments/knapen_AOT/AOT_stimuli/rescaled_final/0693_fw.mp4	0.0	127.22341704368591	
15	99.9564471244812	fix_post	2		12	13.0	2.5	/experiments/knapen_AOT/AOT_stimuli/rescaled_final/0693_fw.mp4	0.0	128.54002714157104	0.09996795654296875
16	100.05641508102417	fix_pre	0		120	14.0	2.5	/experiments/knapen_AOT/AOT_stimuli/rescaled_final/0142_rv.mp4	0.0	128.639995098114	1.00018310546875
16	100.2325291633606	pulse	0	t		14.0	2.5	/experiments/knapen_AOT/AOT_stimuli/rescaled_final/0142_rv.mp4	0.0	128.81610918045044	
16	101.05659818649292	movie	1		245	14.0	2.5	/experiments/knapen_AOT/AOT_stimuli/rescaled_final/0142_rv.mp4	0.0	129.64017820358276	2.5003650188446045
16	101.83287501335144	pulse	1	t		14.0	2.5	/experiments/knapen_AOT/AOT_stimuli/rescaled_final/0142_rv.mp4	0.0	130.41645503044128	
16	103.43222212791443	pulse	1	t		14.0	2.5	/experiments/knapen_AOT/AOT_stimuli/rescaled_final/0142_rv.mp4	0.0	132.01580214500427	
16	103.55696320533752	fix_post	2		12	14.0	2.5	/experiments/knapen_AOT/AOT_stimuli/rescaled_final/0142_rv.mp4	0.0	132.14054322242737	0.10001587867736816
17	103.65697908401489	fix_pre	0		119	15.0	2.5	/experiments/knapen_AOT/AOT_stimuli/rescaled_final/1492_fw.mp4	0.0	132.24055910110474	0.991818904876709
17	104.6487979888916	movie	1		245	15.0	2.5	/experiments/knapen_AOT/AOT_stimuli/rescaled_final/1492_fw.mp4	0.0	133.23237800598145	2.5003581047058105
17	105.03283500671387	pulse	1	t		15.0	2.5	/experiments/knapen_AOT/AOT_stimuli/rescaled_final/1492_fw.mp4	0.0	133.6164150238037	
17	106.63263010978699	pulse	1	t		15.0	2.5	/experiments/knapen_AOT/AOT_stimuli/rescaled_final/1492_fw.mp4	0.0	135.21621012687683	
17	107.14915609359741	fix_post	2		12	15.0	2.5	/experiments/knapen_AOT/AOT_stimuli/rescaled_final/1492_fw.mp4	0.0	135.73273611068726	0.10007405281066895
18	107.24923014640808	fix_pre	0		119	16.0	2.5	/experiments/knapen_AOT/AOT_stimuli/rescaled_final/1238_fw.mp4	0.0	135.83281016349792	0.9917609691619873
18	108.23284220695496	pulse	0	t		16.0	2.5	/experiments/knapen_AOT/AOT_stimuli/rescaled_final/1238_fw.mp4	0.0	136.8164222240448	
18	108.24099111557007	movie	1		245	16.0	2.5	/experiments/knapen_AOT/AOT_stimuli/rescaled_final/1238_fw.mp4	0.0	136.8245711326599	2.50872802734375
18	109.8337950706482	pulse	1	t		16.0	2.5	/experiments/knapen_AOT/AOT_stimuli/rescaled_final/1238_fw.mp4	0.0	138.41737508773804	
18	110.74971914291382	fix_post	2		12	16.0	2.5	/experiments/knapen_AOT/AOT_stimuli/rescaled_final/1238_fw.mp4	0.0	139.33329916000366	0.10001087188720703
19	110.84973001480103	fix_pre	0		120	17.0	2.5	/experiments/knapen_AOT/AOT_stimuli/rescaled_final/1873_rv.mp4	0.0	139.43331003189087	1.000136137008667
19	111.43339705467224	pulse	0	t		17.0	2.5	/experiments/knapen_AOT/AOT_stimuli/rescaled_final/1873_rv.mp4	0.0	140.01697707176208	
19	111.84986615180969	movie	1		244	17.0	2.5	/experiments/knapen_AOT/AOT_stimuli/rescaled_final/1873_rv.mp4	0.0	140.43344616889954	2.500447988510132
19	113.03377413749695	pulse	1	t		17.0	2.5	/experiments/knapen_AOT/AOT_stimuli/rescaled_final/1873_rv.mp4	0.0	141.6173541545868	
19	114.35031414031982	fix_post	2		12	17.0	2.5	/experiments/knapen_AOT/AOT_stimuli/rescaled_final/1873_rv.mp4	0.0	142.93389415740967	0.09996485710144043
20	114.45027899742126	fix_pre	0		120	18.0	2.5	/experiments/knapen_AOT/AOT_stimuli/rescaled_final/1541_fw.mp4	0.0	143.0338590145111	1.0001330375671387
20	114.63382315635681	pulse	0	t		18.0	2.5	/experiments/knapen_AOT/AOT_stimuli/rescaled_final/1541_fw.mp4	0.0	143.21740317344666	
20	115.4504120349884	movie	1		244	18.0	2.5	/experiments/knapen_AOT/AOT_stimuli/rescaled_final/1541_fw.mp4	0.0	144.03399205207825	2.500359058380127
20	116.23408317565918	pulse	1	t		18.0	2.5	/experiments/knapen_AOT/AOT_stimuli/rescaled_final/1541_fw.mp4	0.0	144.81766319274902	
20	117.8343300819397	pulse	1	t		18.0	2.5	/experiments/knapen_AOT/AOT_stimuli/rescaled_final/1541_fw.mp4	0.0	146.41791009902954	
20	117.95077109336853	fix_post	2		12	18.0	2.5	/experiments/knapen_AOT/AOT_stimuli/rescaled_final/1541_fw.mp4	0.0	146.53435111045837	0.10000491142272949
21	118.05077600479126	fix_pre	0		120	19.0	2.5	/experiments/knapen_AOT/AOT_stimuli/rescaled_final/2013_rv.mp4	0.0	146.6343560218811	1.0001821517944336
21	119.0509581565857	movie	1		243	19.0	2.5	/experiments/knapen_AOT/AOT_stimuli/rescaled_final/2013_rv.mp4	0.0	147.63453817367554	2.492015838623047
21	119.43497705459595	pulse	1	t		19.0	2.5	/experiments/knapen_AOT/AOT_stimuli/rescaled_final/2013_rv.mp4	0.0	148.0185570716858	
21	121.0348470211029	pulse	1	t		19.0	2.5	/experiments/knapen_AOT/AOT_stimuli/rescaled_final/2013_rv.mp4	0.0	149.61842703819275	
21	121.54297399520874	fix_post	2		12	19.0	2.5	/experiments/knapen_AOT/AOT_stimuli/rescaled_final/2013_rv.mp4	0.0	150.12655401229858	0.100128173828125
22	121.64310216903687	fix_pre	0		120	20.0	2.5	blank	1.0	150.2266821861267	1.0000519752502441
22	122.6349630355835	pulse	0	t		20.0	2.5	blank	1.0	151.21854305267334	
22	122.64315414428711	movie	1		301	20.0	2.5	blank	1.0	151.22673416137695	2.5086910724639893
22	124.23522520065308	pulse	1	t		20.0	2.5	blank	1.0	152.81880521774292	
22	125.1518452167511	fix_post	2		12	20.0	2.5	blank	1.0	153.73542523384094	0.09999895095825195
23	125.25184416770935	fix_pre	0		120	21.0	2.5	/experiments/knapen_AOT/AOT_stimuli/rescaled_final/1447_rv.mp4	0.0	153.8354241847992	1.00016188621521
23	125.83555316925049	pulse	0	t		21.0	2.5	/experiments/knapen_AOT/AOT_stimuli/rescaled_final/1447_rv.mp4	0.0	154.41913318634033	
23	126.25200605392456	movie	1		243	21.0	2.5	/experiments/knapen_AOT/AOT_stimuli/rescaled_final/1447_rv.mp4	0.0	154.8355860710144	2.5003910064697266
23	127.43593001365662	pulse	1	t		21.0	2.5	/experiments/knapen_AOT/AOT_stimuli/rescaled_final/1447_rv.mp4	0.0	156.01951003074646	
23	128.7523970603943	fix_post	2		12	21.0	2.5	/experiments/knapen_AOT/AOT_stimuli/rescaled_final/1447_rv.mp4	0.0	157.33597707748413	0.09998798370361328
24	128.8523850440979	fix_pre	0		120	22.0	2.5	/experiments/knapen_AOT/AOT_stimuli/rescaled_final/0320_rv.mp4	0.0	157.43596506118774	1.0001940727233887
24	129.03592705726624	pulse	0	t		22.0	2.5	/experiments/knapen_AOT/AOT_stimuli/rescaled_final/0320_rv.mp4	0.0	157.61950707435608	
24	129.8525791168213	movie	1		244	22.0	2.5	/experiments/knapen_AOT/AOT_stimuli/rescaled_final/0320_rv.mp4	0.0	158.43615913391113	2.5003480911254883
24	130.636234998703	pulse	1	t		22.0	2.5	/experiments/knapen_AOT/AOT_stimuli/rescaled_final/0320_rv.mp4	0.0	159.21981501579285	
24	132.236563205719	pulse	1	t		22.0	2.5	/experiments/knapen_AOT/AOT_stimuli/rescaled_final/0320_rv.mp4	0.0	160.82014322280884	
24	132.35292720794678	fix_post	2		12	22.0	2.5	/experiments/knapen_AOT/AOT_stimuli/rescaled_final/0320_rv.mp4	0.0	160.93650722503662	0.10001182556152344
25	132.4529390335083	fix_pre	0		120	23.0	2.5	/experiments/knapen_AOT/AOT_stimuli/rescaled_final/2013_rv.mp4	0.0	161.03651905059814	1.0001499652862549
25	133.45308899879456	movie	1		243	23.0	2.5	/experiments/knapen_AOT/AOT_stimuli/rescaled_final/2013_rv.mp4	0.0	162.0366690158844	2.4920530319213867
25	133.8380491733551	pulse	1	t		23.0	2.5	/experiments/knapen_AOT/AOT_stimuli/rescaled_final/2013_rv.mp4	0.0	162.42162919044495	
25	135.43695402145386	pulse	1	t		23.0	2.5	/experiments/knapen_AOT/AOT_stimuli/rescaled_final/2013_rv.mp4	0.0	164.0205340385437	
25	135.94514203071594	fix_post	2		12	23.0	2.5	/experiments/knapen_AOT/AOT_stimuli/rescaled_final/2013_rv.mp4	0.0	164.5287220478058	0.10002398490905762
26	136.045166015625	fix_pre	0		120	24.0	2.5	/experiments/knapen_AOT/AOT_stimuli/rescaled_final/0531_rv.mp4	0.0	164.62874603271484	1.000110149383545
26	137.03723001480103	pulse	0	t		24.0	2.5	/experiments/knapen_AOT/AOT_stimuli/rescaled_final/0531_rv.mp4	0.0	165.62081003189087	
26	137.04527616500854	movie	1		244	24.0	2.5	/experiments/knapen_AOT/AOT_stimuli/rescaled_final/0531_rv.mp4	0.0	165.6288561820984	2.508723020553589
26	138.6418650150299	pulse	1	t		24.0	2.5	/experiments/knapen_AOT/AOT_stimuli/rescaled_final/0531_rv.mp4	0.0	167.22544503211975	
26	139.55399918556213	fix_post	2		12	24.0	2.5	/experiments/knapen_AOT/AOT_stimuli/rescaled_final/0531_rv.mp4	0.0	168.13757920265198	0.10004997253417969
27	139.6540491580963	fix_pre	0		120	25.0	2.5	/experiments/knapen_AOT/AOT_stimuli/rescaled_final/1409_rv.mp4	0.0	168.23762917518616	1.0001029968261719
27	140.23768210411072	pulse	0	t		25.0	2.5	/experiments/knapen_AOT/AOT_stimuli/rescaled_final/1409_rv.mp4	0.0	168.82126212120056	
27	140.65415215492249	movie	1		243	25.0	2.5	/experiments/knapen_AOT/AOT_stimuli/rescaled_final/1409_rv.mp4	0.0	169.23773217201233	2.5004079341888428
27	141.8339262008667	pulse	1	t		25.0	2.5	/experiments/knapen_AOT/AOT_stimuli/rescaled_final/1409_rv.mp4	0.0	170.41750621795654	
27	143.15456008911133	fix_post	2		12	25.0	2.5	/experiments/knapen_AOT/AOT_stimuli/rescaled_final/1409_rv.mp4	0.0	171.73814010620117	0.09999489784240723
28	143.25455498695374	fix_pre	0		119	26.0	2.5	/experiments/knapen_AOT/AOT_stimuli/rescaled_final/0156_fw.mp4	0.0	171.83813500404358	1.000157117843628
28	143.4381730556488	pulse	0	t		26.0	2.5	/experiments/knapen_AOT/AOT_stimuli/rescaled_final/0156_fw.mp4	0.0	172.02175307273865	
28	144.25471210479736	movie	1		244	26.0	2.5	/experiments/knapen_AOT/AOT_stimuli/rescaled_final/0156_fw.mp4	0.0	172.8382921218872	2.5003750324249268
28	145.03839707374573	pulse	1	t		26.0	2.5	/experiments/knapen_AOT/AOT_stimuli/rescaled_final/0156_fw.mp4	0.0	173.62197709083557	
28	146.63959002494812	pulse	1	t		26.0	2.5	/experiments/knapen_AOT/AOT_stimuli/rescaled_final/0156_fw.mp4	0.0	175.22317004203796	
28	146.7550871372223	fix_post	2		12	26.0	2.5	/experiments/knapen_AOT/AOT_stimuli/rescaled_final/0156_fw.mp4	0.0	175.33866715431213	0.10000085830688477
29	146.85508799552917	fix_pre	0		120	27.0	2.5	blank	1.0	175.43866801261902	1.0001671314239502
29	147.85525512695312	movie	1		299	27.0	2.5	blank	1.0	176.43883514404297	2.492039918899536
29	148.23882412910461	pulse	1	t		27.0	2.5	blank	1.0	176.82240414619446	
29	149.83919501304626	pulse	1	t		27.0	2.5	blank	1.0	178.4227750301361	
29	150.34729504585266	fix_post	2		12	27.0	2.5	blank	1.0	178.9308750629425	0.1000211238861084
30	150.44731616973877	fix_pre	0		120	28.0	2.5	/experiments/knapen_AOT/AOT_stimuli/rescaled_final/0663_rv.mp4	0.0	179.0308961868286	1.0001490116119385
30	151.43179607391357	pulse	0	t		28.0	2.5	/experiments/knapen_AOT/AOT_stimuli/rescaled_final/0663_rv.mp4	0.0	180.01537609100342	
30	151.4474651813507	movie	1		244	28.0	2.5	/experiments/knapen_AOT/AOT_stimuli/rescaled_final/0663_rv.mp4	0.0	180.03104519844055	2.5086770057678223
30	153.04023218154907	pulse	1	t		28.0	2.5	/experiments/knapen_AOT/AOT_stimuli/rescaled_final/0663_rv.mp4	0.0	181.62381219863892	
30	153.95614218711853	fix_post	2		12	28.0	2.5	/experiments/knapen_AOT/AOT_stimuli/rescaled_final/0663_rv.mp4	0.0	182.53972220420837	0.10004687309265137
31	154.05618906021118	fix_pre	0		120	29.0	2.5	/experiments/knapen_AOT/AOT_stimuli/rescaled_final/0730_rv.mp4	0.0	182.63976907730103	1.0001161098480225
31	154.6323721408844	pulse	0	t		29.0	2.5	/experiments/knapen_AOT/AOT_stimuli/rescaled_final/0730_rv.mp4	0.0	183.21595215797424	
31	155.0563051700592	movie	1		243	29.0	2.5	/experiments/knapen_AOT/AOT_stimuli/rescaled_final/0730_rv.mp4	0.0	183.63988518714905	2.500365972518921
31	156.23244500160217	pulse	1	t		29.0	2.5	/experiments/knapen_AOT/AOT_stimuli/rescaled_final/0730_rv.mp4	0.0	184.81602501869202	
31	157.55667114257812	fix_post	2		12	29.0	2.5	/experiments/knapen_AOT/AOT_stimuli/rescaled_final/0730_rv.mp4	0.0	186.14025115966797	0.10004687309265137
32	157.65671801567078	fix_pre	0		120	30.0	2.5	/experiments/knapen_AOT/AOT_stimuli/rescaled_final/0923_fw.mp4	0.0	186.24029803276062	1.0001599788665771
32	157.83192110061646	pulse	0	t		30.0	2.5	/experiments/knapen_AOT/AOT_stimuli/rescaled_final/0923_fw.mp4	0.0	186.4155011177063	
32	158.65687799453735	movie	1		243	30.0	2.5	/experiments/knapen_AOT/AOT_stimuli/rescaled_final/0923_fw.mp4	0.0	187.2404580116272	2.50034499168396
32	159.43218517303467	pulse	1	t		30.0	2.5	/experiments/knapen_AOT/AOT_stimuli/rescaled_final/0923_fw.mp4	0.0	188.0157651901245	
32	161.03245210647583	pulse	1	t		30.0	2.5	/experiments/knapen_AOT/AOT_stimuli/rescaled_final/0923_fw.mp4	0.0	189.61603212356567	
32	161.1572229862213	fix_post	2		12	30.0	2.5	/experiments/knapen_AOT/AOT_stimuli/rescaled_final/0923_fw.mp4	0.0	189.74080300331116	0.1000051498413086
33	161.25722813606262	fix_pre	0		120	31.0	2.5	/experiments/knapen_AOT/AOT_stimuli/rescaled_final/2055_rv.mp4	0.0	189.84080815315247	1.0001530647277832
33	162.2573812007904	movie	1		243	31.0	2.5	/experiments/knapen_AOT/AOT_stimuli/rescaled_final/2055_rv.mp4	0.0	190.84096121788025	2.492011785507202
33	162.63264918327332	pulse	1	t		31.0	2.5	/experiments/knapen_AOT/AOT_stimuli/rescaled_final/2055_rv.mp4	0.0	191.21622920036316	
33	164.23293900489807	pulse	1	t		31.0	2.5	/experiments/knapen_AOT/AOT_stimuli/rescaled_final/2055_rv.mp4	0.0	192.81651902198792	
33	164.7493929862976	fix_post	2		12	31.0	2.5	/experiments/knapen_AOT/AOT_stimuli/rescaled_final/2055_rv.mp4	0.0	193.33297300338745	0.1000361442565918
34	164.8494291305542	fix_pre	0		119	32.0	2.5	/experiments/knapen_AOT/AOT_stimuli/rescaled_final/1215_rv.mp4	0.0	193.43300914764404	0.9918029308319092
34	165.83318710327148	pulse	0	t		32.0	2.5	/experiments/knapen_AOT/AOT_stimuli/rescaled_final/1215_rv.mp4	0.0	194.41676712036133	
34	165.8412320613861	movie	1		245	32.0	2.5	/experiments/knapen_AOT/AOT_stimuli/rescaled_final/1215_rv.mp4	0.0	194.42481207847595	2.5087790489196777
34	167.43404006958008	pulse	1	t		32.0	2.5	/experiments/knapen_AOT/AOT_stimuli/rescaled_final/1215_rv.mp4	0.0	196.01762008666992	
34	168.3500111103058	fix_post	2		12	32.0	2.5	/experiments/knapen_AOT/AOT_stimuli/rescaled_final/1215_rv.mp4	0.0	196.93359112739563	0.10001397132873535
35	168.45002508163452	fix_pre	0		120	33.0	2.5	/experiments/knapen_AOT/AOT_stimuli/rescaled_final/1681_rv.mp4	0.0	197.03360509872437	1.000101089477539
35	169.03367018699646	pulse	0	t		33.0	2.5	/experiments/knapen_AOT/AOT_stimuli/rescaled_final/1681_rv.mp4	0.0	197.6172502040863	
35	169.45012617111206	movie	1		243	33.0	2.5	/experiments/knapen_AOT/AOT_stimuli/rescaled_final/1681_rv.mp4	0.0	198.0337061882019	2.500370979309082
35	170.63388109207153	pulse	1	t		33.0	2.5	/experiments/knapen_AOT/AOT_stimuli/rescaled_final/1681_rv.mp4	0.0	199.21746110916138	
35	171.95049715042114	fix_post	2		12	33.0	2.5	/experiments/knapen_AOT/AOT_stimuli/rescaled_final/1681_rv.mp4	0.0	200.534077167511	0.10001301765441895
36	172.05051016807556	fix_pre	0		120	34.0	2.5	blank	1.0	200.6340901851654	1.0001699924468994
36	172.23410320281982	pulse	0	t		34.0	2.5	blank	1.0	200.81768321990967	
36	173.05068016052246	movie	1		300	34.0	2.5	blank	1.0	201.6342601776123	2.500354051589966
36	173.83436703681946	pulse	1	t		34.0	2.5	blank	1.0	202.4179470539093	
36	175.4346001148224	pulse	1	t		34.0	2.5	blank	1.0	204.01818013191223	
36	175.55103421211243	fix_post	2		12	34.0	2.5	blank	1.0	204.13461422920227	0.10001397132873535
37	175.65104818344116	fix_pre	0		120	35.0	2.5	/experiments/knapen_AOT/AOT_stimuli/rescaled_final/1008_fw.mp4	0.0	204.234628200531	1.000166893005371
37	176.65121507644653	movie	1		242	35.0	2.5	/experiments/knapen_AOT/AOT_stimuli/rescaled_final/1008_fw.mp4	0.0	205.23479509353638	2.492013931274414
37	177.03536915779114	pulse	1	t		35.0	2.5	/experiments/knapen_AOT/AOT_stimuli/rescaled_final/1008_fw.mp4	0.0	205.61894917488098	
37	178.63507413864136	pulse	1	t		35.0	2.5	/experiments/knapen_AOT/AOT_stimuli/rescaled_final/1008_fw.mp4	0.0	207.2186541557312	
37	179.14322900772095	fix_post	2		12	35.0	2.5	/experiments/knapen_AOT/AOT_stimuli/rescaled_final/1008_fw.mp4	0.0	207.7268090248108	0.10002303123474121
38	179.2432520389557	fix_pre	0		120	36.0	2.5	/experiments/knapen_AOT/AOT_stimuli/rescaled_final/0972_rv.mp4	0.0	207.82683205604553	1.0001320838928223
38	180.23542404174805	pulse	0	t		36.0	2.5	/experiments/knapen_AOT/AOT_stimuli/rescaled_final/0972_rv.mp4	0.0	208.8190040588379	
38	180.2433841228485	movie	1		244	36.0	2.5	/experiments/knapen_AOT/AOT_stimuli/rescaled_final/0972_rv.mp4	0.0	208.82696413993835	2.508755922317505
38	181.83607506752014	pulse	1	t		36.0	2.5	/experiments/knapen_AOT/AOT_stimuli/rescaled_final/0972_rv.mp4	0.0	210.41965508460999	
38	182.75214004516602	fix_post	2		12	36.0	2.5	/experiments/knapen_AOT/AOT_stimuli/rescaled_final/0972_rv.mp4	0.0	211.33572006225586	0.10003495216369629
39	182.8521749973297	fix_pre	0		120	37.0	2.5	/experiments/knapen_AOT/AOT_stimuli/rescaled_final/1514_fw.mp4	0.0	211.43575501441956	1.0000801086425781
39	183.43576407432556	pulse	0	t		37.0	2.5	/experiments/knapen_AOT/AOT_stimuli/rescaled_final/1514_fw.mp4	0.0	212.0193440914154	
39	183.8522551059723	movie	1		243	37.0	2.5	/experiments/knapen_AOT/AOT_stimuli/rescaled_final/1514_fw.mp4	0.0	212.43583512306213	2.5004160404205322
39	185.0360131263733	pulse	1	t		37.0	2.5	/experiments/knapen_AOT/AOT_stimuli/rescaled_final/1514_fw.mp4	0.0	213.61959314346313	
39	186.35267114639282	fix_post	2		12	37.0	2.5	/experiments/knapen_AOT/AOT_stimuli/rescaled_final/1514_fw.mp4	0.0	214.93625116348267	0.0999748706817627
40	186.45264601707458	fix_pre	0		120	38.0	2.5	/experiments/knapen_AOT/AOT_stimuli/rescaled_final/1387_rv.mp4	0.0	215.03622603416443	1.000136137008667
40	186.6362111568451	pulse	0	t		38.0	2.5	/experiments/knapen_AOT/AOT_stimuli/rescaled_final/1387_rv.mp4	0.0	215.21979117393494	
40	187.45278215408325	movie	1		244	38.0	2.5	/experiments/knapen_AOT/AOT_stimuli/rescaled_final/1387_rv.mp4	0.0	216.0363621711731	2.5003998279571533
40	188.23658800125122	pulse	1	t		38.0	2.5	/experiments/knapen_AOT/AOT_stimuli/rescaled_final/1387_rv.mp4	0.0	216.82016801834106	
40	189.83669018745422	pulse	1	t		38.0	2.5	/experiments/knapen_AOT/AOT_stimuli/rescaled_final/1387_rv.mp4	0.0	218.42027020454407	
40	189.9531819820404	fix_post	2		12	38.0	2.5	/experiments/knapen_AOT/AOT_stimuli/rescaled_final/1387_rv.mp4	0.0	218.53676199913025	0.10003209114074707
41	190.05321407318115	fix_pre	0		120	39.0	2.5	/experiments/knapen_AOT/AOT_stimuli/rescaled_final/1523_fw.mp4	0.0	218.636794090271	1.0001270771026611
41	191.0533411502838	movie	1		243	39.0	2.5	/experiments/knapen_AOT/AOT_stimuli/rescaled_final/1523_fw.mp4	0.0	219.63692116737366	2.4920458793640137
41	191.43758702278137	pulse	1	t		39.0	2.5	/experiments/knapen_AOT/AOT_stimuli/rescaled_final/1523_fw.mp4	0.0	220.02116703987122	
41	193.03721117973328	pulse	1	t		39.0	2.5	/experiments/knapen_AOT/AOT_stimuli/rescaled_final/1523_fw.mp4	0.0	221.62079119682312	
41	193.54538702964783	fix_post	2		12	39.0	2.5	/experiments/knapen_AOT/AOT_stimuli/rescaled_final/1523_fw.mp4	0.0	222.12896704673767	0.1000070571899414
42	193.64539408683777	fix_pre	0		120	40.0	2.5	/experiments/knapen_AOT/AOT_stimuli/rescaled_final/1548_rv.mp4	0.0	222.2289741039276	1.000230073928833
42	194.6375060081482	pulse	0	t		40.0	2.5	/experiments/knapen_AOT/AOT_stimuli/rescaled_final/1548_rv.mp4	0.0	223.22108602523804	
42	194.6456241607666	movie	1		245	40.0	2.5	/experiments/knapen_AOT/AOT_stimuli/rescaled_final/1548_rv.mp4	0.0	223.22920417785645	2.5086629390716553
42	196.2391140460968	pulse	1	t		40.0	2.5	/experiments/knapen_AOT/AOT_stimuli/rescaled_final/1548_rv.mp4	0.0	224.82269406318665	
42	197.15428709983826	fix_post	2		12	40.0	2.5	/experiments/knapen_AOT/AOT_stimuli/rescaled_final/1548_rv.mp4	0.0	225.7378671169281	0.0999910831451416
43	197.2542781829834	fix_pre	0		120	41.0	2.5	blank	1.0	225.83785820007324	1.000135898590088
43	197.83783411979675	pulse	0	t		41.0	2.5	blank	1.0	226.4214141368866	
43	198.2544140815735	movie	1		300	41.0	2.5	blank	1.0	226.83799409866333	2.500411033630371
43	199.43815803527832	pulse	1	t		41.0	2.5	blank	1.0	228.02173805236816	
43	200.75482511520386	fix_post	2		12	41.0	2.5	blank	1.0	229.3384051322937	0.10000205039978027
44	200.85482716560364	fix_pre	0		120	42.0	2.5	/experiments/knapen_AOT/AOT_stimuli/rescaled_final/1447_fw.mp4	0.0	229.43840718269348	1.0001540184020996
44	201.0383620262146	pulse	0	t		42.0	2.5	/experiments/knapen_AOT/AOT_stimuli/rescaled_final/1447_fw.mp4	0.0	229.62194204330444	
44	201.85498118400574	movie	1		244	42.0	2.5	/experiments/knapen_AOT/AOT_stimuli/rescaled_final/1447_fw.mp4	0.0	230.43856120109558	2.500330924987793
44	202.6314160823822	pulse	1	t		42.0	2.5	/experiments/knapen_AOT/AOT_stimuli/rescaled_final/1447_fw.mp4	0.0	231.21499609947205	
44	204.23892402648926	pulse	1	t		42.0	2.5	/experiments/knapen_AOT/AOT_stimuli/rescaled_final/1447_fw.mp4	0.0	232.8225040435791	
44	204.35531210899353	fix_post	2		12	42.0	2.5	/experiments/knapen_AOT/AOT_stimuli/rescaled_final/1447_fw.mp4	0.0	232.93889212608337	0.1000509262084961
45	204.45536303520203	fix_pre	0		117	43.0	2.5	/experiments/knapen_AOT/AOT_stimuli/rescaled_final/0868_fw.mp4	0.0	233.03894305229187	1.000136137008667
45	205.4554991722107	movie	1		243	43.0	2.5	/experiments/knapen_AOT/AOT_stimuli/rescaled_final/0868_fw.mp4	0.0	234.03907918930054	2.4920618534088135
45	205.83962607383728	pulse	1	t		43.0	2.5	/experiments/knapen_AOT/AOT_stimuli/rescaled_final/0868_fw.mp4	0.0	234.42320609092712	
45	207.43198919296265	pulse	1	t		43.0	2.5	/experiments/knapen_AOT/AOT_stimuli/rescaled_final/0868_fw.mp4	0.0	236.0155692100525	
45	207.9475610256195	fix_post	2		12	43.0	2.5	/experiments/knapen_AOT/AOT_stimuli/rescaled_final/0868_fw.mp4	0.0	236.53114104270935	0.09997010231018066
46	208.0475311279297	fix_pre	0		120	44.0	2.5	/experiments/knapen_AOT/AOT_stimuli/rescaled_final/1935_rv.mp4	0.0	236.63111114501953	1.000169038772583
46	209.0320770740509	pulse	0	t		44.0	2.5	/experiments/knapen_AOT/AOT_stimuli/rescaled_final/1935_rv.mp4	0.0	237.61565709114075	
46	209.04770016670227	movie	1		245	44.0	2.5	/experiments/knapen_AOT/AOT_stimuli/rescaled_final/1935_rv.mp4	0.0	237.63128018379211	2.5087180137634277
46	210.63150215148926	pulse	1	t		44.0	2.5	/experiments/knapen_AOT/AOT_stimuli/rescaled_final/1935_rv.mp4	0.0	239.2150821685791	
46	211.5564181804657	fix_post	2		12	44.0	2.5	/experiments/knapen_AOT/AOT_stimuli/rescaled_final/1935_rv.mp4	0.0	240.13999819755554	0.10007500648498535
47	211.65649318695068	fix_pre	0		120	45.0	2.5	/experiments/knapen_AOT/AOT_stimuli/rescaled_final/0988_fw.mp4	0.0	240.24007320404053	1.0001709461212158
47	212.23165202140808	pulse	0	t		45.0	2.5	/experiments/knapen_AOT/AOT_stimuli/rescaled_final/0988_fw.mp4	0.0	240.81523203849792	
47	212.6566641330719	movie	1		243	45.0	2.5	/experiments/knapen_AOT/AOT_stimuli/rescaled_final/0988_fw.mp4	0.0	241.24024415016174	2.5002689361572266
47	213.8367199897766	pulse	1	t		45.0	2.5	/experiments/knapen_AOT/AOT_stimuli/rescaled_final/0988_fw.mp4	0.0	242.42030000686646	
47	215.15693306922913	fix_post	2		12	45.0	2.5	/experiments/knapen_AOT/AOT_stimuli/rescaled_final/0988_fw.mp4	0.0	243.74051308631897	0.10001492500305176
48	215.25694799423218	fix_pre	0		120	46.0	2.5	/experiments/knapen_AOT/AOT_stimuli/rescaled_final/1913_rv.mp4	0.0	243.84052801132202	1.0001561641693115
48	215.43225502967834	pulse	0	t		46.0	2.5	/experiments/knapen_AOT/AOT_stimuli/rescaled_final/1913_rv.mp4	0.0	244.0158350467682	
48	216.2571041584015	movie	1		244	46.0	2.5	/experiments/knapen_AOT/AOT_stimuli/rescaled_final/1913_rv.mp4	0.0	244.84068417549133	2.500393867492676
48	217.03243803977966	pulse	1	t		46.0	2.5	/experiments/knapen_AOT/AOT_stimuli/rescaled_final/1913_rv.mp4	0.0	245.6160180568695	
48	218.632826089859	pulse	1	t		46.0	2.5	/experiments/knapen_AOT/AOT_stimuli/rescaled_final/1913_rv.mp4	0.0	247.21640610694885	
48	218.75749802589417	fix_post	2		12	46.0	2.5	/experiments/knapen_AOT/AOT_stimuli/rescaled_final/1913_rv.mp4	0.0	247.341078042984	0.10000205039978027
49	218.85750007629395	fix_pre	0		120	47.0	2.5	blank	1.0	247.4410800933838	1.0001630783081055
49	219.85766315460205	movie	1		299	47.0	2.5	blank	1.0	248.4412431716919	2.492034912109375
49	220.23289012908936	pulse	1	t		47.0	2.5	blank	1.0	248.8164701461792	
49	221.83318901062012	pulse	1	t		47.0	2.5	blank	1.0	250.41676902770996	
49	222.34969806671143	fix_post	2		12	47.0	2.5	blank	1.0	250.93327808380127	0.10001301765441895
50	222.44971108436584	fix_pre	0		119	48.0	2.5	/experiments/knapen_AOT/AOT_stimuli/rescaled_final/2119_rv.mp4	0.0	251.0332911014557	0.9918310642242432
50	223.4334261417389	pulse	0	t		48.0	2.5	/experiments/knapen_AOT/AOT_stimuli/rescaled_final/2119_rv.mp4	0.0	252.01700615882874	
50	223.4415421485901	movie	1		250	48.0	2.5	/experiments/knapen_AOT/AOT_stimuli/rescaled_final/2119_rv.mp4	0.0	252.02512216567993	2.5086569786071777
50	225.03522515296936	pulse	1	t		48.0	2.5	/experiments/knapen_AOT/AOT_stimuli/rescaled_final/2119_rv.mp4	0.0	253.6188051700592	
50	225.95019912719727	fix_post	2		12	48.0	2.5	/experiments/knapen_AOT/AOT_stimuli/rescaled_final/2119_rv.mp4	0.0	254.5337791442871	0.1000208854675293
51	226.0502200126648	fix_pre	0		120	49.0	2.5	/experiments/knapen_AOT/AOT_stimuli/rescaled_final/0818_rv.mp4	0.0	254.63380002975464	1.0001420974731445
51	226.63379907608032	pulse	0	t		49.0	2.5	/experiments/knapen_AOT/AOT_stimuli/rescaled_final/0818_rv.mp4	0.0	255.21737909317017	
51	227.05036211013794	movie	1		243	49.0	2.5	/experiments/knapen_AOT/AOT_stimuli/rescaled_final/0818_rv.mp4	0.0	255.63394212722778	2.500375986099243
51	228.2341752052307	pulse	1	t		49.0	2.5	/experiments/knapen_AOT/AOT_stimuli/rescaled_final/0818_rv.mp4	0.0	256.81775522232056	
51	229.55073809623718	fix_post	2		12	49.0	2.5	/experiments/knapen_AOT/AOT_stimuli/rescaled_final/0818_rv.mp4	0.0	258.134318113327	0.10001897811889648
52	229.65075707435608	fix_pre	0		120	50.0	2.5	/experiments/knapen_AOT/AOT_stimuli/rescaled_final/0401_fw.mp4	0.0	258.2343370914459	1.0001580715179443
52	229.8343231678009	pulse	0	t		50.0	2.5	/experiments/knapen_AOT/AOT_stimuli/rescaled_final/0401_fw.mp4	0.0	258.41790318489075	
52	230.65091514587402	movie	1		243	50.0	2.5	/experiments/knapen_AOT/AOT_stimuli/rescaled_final/0401_fw.mp4	0.0	259.23449516296387	2.5004489421844482
52	231.43470120429993	pulse	1	t		50.0	2.5	/experiments/knapen_AOT/AOT_stimuli/rescaled_final/0401_fw.mp4	0.0	260.01828122138977	
52	233.0346109867096	pulse	1	t		50.0	2.5	/experiments/knapen_AOT/AOT_stimuli/rescaled_final/0401_fw.mp4	0.0	261.61819100379944	
52	233.15136408805847	fix_post	2		12	50.0	2.5	/experiments/knapen_AOT/AOT_stimuli/rescaled_final/0401_fw.mp4	0.0	261.7349441051483	0.0999610424041748
53	233.25132513046265	fix_pre	0		120	51.0	2.5	/experiments/knapen_AOT/AOT_stimuli/rescaled_final/0156_rv.mp4	0.0	261.8349051475525	1.0001220703125
53	234.25144720077515	movie	1		243	51.0	2.5	/experiments/knapen_AOT/AOT_stimuli/rescaled_final/0156_rv.mp4	0.0	262.835027217865	2.4920859336853027
53	234.63572311401367	pulse	1	t		51.0	2.5	/experiments/knapen_AOT/AOT_stimuli/rescaled_final/0156_rv.mp4	0.0	263.2193031311035	
53	236.23537302017212	pulse	1	t		51.0	2.5	/experiments/knapen_AOT/AOT_stimuli/rescaled_final/0156_rv.mp4	0.0	264.81895303726196	
53	236.74353313446045	fix_post	2		12	51.0	2.5	/experiments/knapen_AOT/AOT_stimuli/rescaled_final/0156_rv.mp4	0.0	265.3271131515503	0.09999203681945801
54	236.8435251712799	fix_pre	0		120	52.0	2.5	/experiments/knapen_AOT/AOT_stimuli/rescaled_final/1681_fw.mp4	0.0	265.42710518836975	1.0001349449157715
54	237.83551406860352	pulse	0	t		52.0	2.5	/experiments/knapen_AOT/AOT_stimuli/rescaled_final/1681_fw.mp4	0.0	266.41909408569336	
54	237.84366011619568	movie	1		244	52.0	2.5	/experiments/knapen_AOT/AOT_stimuli/rescaled_final/1681_fw.mp4	0.0	266.4272401332855	2.5086870193481445
54	239.43711304664612	pulse	1	t		52.0	2.5	/experiments/knapen_AOT/AOT_stimuli/rescaled_final/1681_fw.mp4	0.0	268.02069306373596	
54	240.35234713554382	fix_post	2		12	52.0	2.5	/experiments/knapen_AOT/AOT_stimuli/rescaled_final/1681_fw.mp4	0.0	268.93592715263367	0.10000896453857422
55	240.4523561000824	fix_pre	0		120	53.0	2.5	/experiments/knapen_AOT/AOT_stimuli/rescaled_final/0369_fw.mp4	0.0	269.03593611717224	1.0001890659332275
55	241.03609418869019	pulse	0	t		53.0	2.5	/experiments/knapen_AOT/AOT_stimuli/rescaled_final/0369_fw.mp4	0.0	269.61967420578003	
55	241.45254516601562	movie	1		244	53.0	2.5	/experiments/knapen_AOT/AOT_stimuli/rescaled_final/0369_fw.mp4	0.0	270.03612518310547	2.5003738403320312
55	242.6363160610199	pulse	1	t		53.0	2.5	/experiments/knapen_AOT/AOT_stimuli/rescaled_final/0369_fw.mp4	0.0	271.21989607810974	
55	243.95291900634766	fix_post	2		12	53.0	2.5	/experiments/knapen_AOT/AOT_stimuli/rescaled_final/0369_fw.mp4	0.0	272.5364990234375	0.10006999969482422
56	244.05298900604248	fix_pre	0		120	54.0	2.5	blank	1.0	272.6365690231323	1.000082015991211
56	244.23646712303162	pulse	0	t		54.0	2.5	blank	1.0	272.82004714012146	
56	245.0530710220337	movie	1		300	54.0	2.5	blank	1.0	273.63665103912354	2.5003910064697266
56	245.83670711517334	pulse	1	t		54.0	2.5	blank	1.0	274.4202871322632	
56	247.4369101524353	pulse	1	t		54.0	2.5	blank	1.0	276.02049016952515	
56	247.55346202850342	fix_post	2		12	54.0	2.5	blank	1.0	276.13704204559326	0.10001707077026367
57	247.65347909927368	fix_pre	0		120	55.0	2.5	/experiments/knapen_AOT/AOT_stimuli/rescaled_final/0706_rv.mp4	0.0	276.2370591163635	1.000135898590088
57	248.65361499786377	movie	1		244	55.0	2.5	/experiments/knapen_AOT/AOT_stimuli/rescaled_final/0706_rv.mp4	0.0	277.2371950149536	2.492042064666748
57	249.03870511054993	pulse	1	t		55.0	2.5	/experiments/knapen_AOT/AOT_stimuli/rescaled_final/0706_rv.mp4	0.0	277.62228512763977	
57	250.63747119903564	pulse	1	t		55.0	2.5	/experiments/knapen_AOT/AOT_stimuli/rescaled_final/0706_rv.mp4	0.0	279.2210512161255	
57	251.14565706253052	fix_post	2		12	55.0	2.5	/experiments/knapen_AOT/AOT_stimuli/rescaled_final/0706_rv.mp4	0.0	279.72923707962036	0.0999901294708252
58	251.24564719200134	fix_pre	0		120	56.0	2.5	/experiments/knapen_AOT/AOT_stimuli/rescaled_final/0578_fw.mp4	0.0	279.8292272090912	1.000201940536499
58	252.2376651763916	pulse	0	t		56.0	2.5	/experiments/knapen_AOT/AOT_stimuli/rescaled_final/0578_fw.mp4	0.0	280.82124519348145	
58	252.24584913253784	movie	1		244	56.0	2.5	/experiments/knapen_AOT/AOT_stimuli/rescaled_final/0578_fw.mp4	0.0	280.8294291496277	2.5086629390716553
58	253.83912920951843	pulse	1	t		56.0	2.5	/experiments/knapen_AOT/AOT_stimuli/rescaled_final/0578_fw.mp4	0.0	282.4227092266083	
58	254.7545120716095	fix_post	2		12	56.0	2.5	/experiments/knapen_AOT/AOT_stimuli/rescaled_final/0578_fw.mp4	0.0	283.33809208869934	0.10004401206970215
59	254.8545560836792	fix_pre	0		120	57.0	2.5	/experiments/knapen_AOT/AOT_stimuli/rescaled_final/0845_fw.mp4	0.0	283.43813610076904	1.0001180171966553
59	255.4382770061493	pulse	0	t		57.0	2.5	/experiments/knapen_AOT/AOT_stimuli/rescaled_final/0845_fw.mp4	0.0	284.02185702323914	
59	255.85467410087585	movie	1		245	57.0	2.5	/experiments/knapen_AOT/AOT_stimuli/rescaled_final/0845_fw.mp4	0.0	284.4382541179657	2.5003950595855713
59	257.0385630130768	pulse	1	t		57.0	2.5	/experiments/knapen_AOT/AOT_stimuli/rescaled_final/0845_fw.mp4	0.0	285.6221430301666	
59	258.3550691604614	fix_post	2		12	57.0	2.5	/experiments/knapen_AOT/AOT_stimuli/rescaled_final/0845_fw.mp4	0.0	286.93864917755127	0.09997701644897461
60	258.4550461769104	fix_pre	0		120	58.0	2.5	/experiments/knapen_AOT/AOT_stimuli/rescaled_final/0369_fw.mp4	0.0	287.03862619400024	1.0001649856567383
60	258.63868403434753	pulse	0	t		58.0	2.5	/experiments/knapen_AOT/AOT_stimuli/rescaled_final/0369_fw.mp4	0.0	287.2222640514374	
60	259.45521116256714	movie	1		244	58.0	2.5	/experiments/knapen_AOT/AOT_stimuli/rescaled_final/0369_fw.mp4	0.0	288.038791179657	2.500403881072998
60	260.23884415626526	pulse	1	t		58.0	2.5	/experiments/knapen_AOT/AOT_stimuli/rescaled_final/0369_fw.mp4	0.0	288.8224241733551	
60	261.8391981124878	pulse	1	t		58.0	2.5	/experiments/knapen_AOT/AOT_stimuli/rescaled_final/0369_fw.mp4	0.0	290.42277812957764	
60	261.95561504364014	fix_post	2		12	58.0	2.5	/experiments/knapen_AOT/AOT_stimuli/rescaled_final/0369_fw.mp4	0.0	290.53919506073	0.09999704360961914
61	262.05561208724976	fix_pre	0		120	59.0	2.5	/experiments/knapen_AOT/AOT_stimuli/rescaled_final/0259_rv.mp4	0.0	290.6391921043396	1.0001680850982666
61	263.055780172348	movie	1		243	59.0	2.5	/experiments/knapen_AOT/AOT_stimuli/rescaled_final/0259_rv.mp4	0.0	291.63936018943787	2.492041826248169
61	263.43996715545654	pulse	1	t		59.0	2.5	/experiments/knapen_AOT/AOT_stimuli/rescaled_final/0259_rv.mp4	0.0	292.0235471725464	
61	265.03234601020813	pulse	1	t		59.0	2.5	/experiments/knapen_AOT/AOT_stimuli/rescaled_final/0259_rv.mp4	0.0	293.615926027298	
61	265.5478219985962	fix_post	2		9	59.0	2.5	/experiments/knapen_AOT/AOT_stimuli/rescaled_final/0259_rv.mp4	0.0	294.13140201568604	0.09998703002929688
62	265.6478090286255	fix_pre	0		120	60.0	2.5	/experiments/knapen_AOT/AOT_stimuli/rescaled_final/1414_rv.mp4	0.0	294.23138904571533	1.0001840591430664
62	266.6322650909424	pulse	0	t		60.0	2.5	/experiments/knapen_AOT/AOT_stimuli/rescaled_final/1414_rv.mp4	0.0	295.2158451080322	
62	266.64799308776855	movie	1		244	60.0	2.5	/experiments/knapen_AOT/AOT_stimuli/rescaled_final/1414_rv.mp4	0.0	295.2315731048584	2.5086591243743896
62	268.2405800819397	pulse	1	t		60.0	2.5	/experiments/knapen_AOT/AOT_stimuli/rescaled_final/1414_rv.mp4	0.0	296.82416009902954	
62	269.15665221214294	fix_post	2		12	60.0	2.5	/experiments/knapen_AOT/AOT_stimuli/rescaled_final/1414_rv.mp4	0.0	297.7402322292328	0.10003280639648438
63	269.25668501853943	fix_pre	0		120	61.0	2.5	/experiments/knapen_AOT/AOT_stimuli/rescaled_final/1715_rv.mp4	0.0	297.8402650356293	1.0001490116119385
63	269.83270812034607	pulse	0	t		61.0	2.5	/experiments/knapen_AOT/AOT_stimuli/rescaled_final/1715_rv.mp4	0.0	298.4162881374359	
63	270.25683403015137	movie	1		246	61.0	2.5	/experiments/knapen_AOT/AOT_stimuli/rescaled_final/1715_rv.mp4	0.0	298.8404140472412	2.50039005279541
63	271.43282198905945	pulse	1	t		61.0	2.5	/experiments/knapen_AOT/AOT_stimuli/rescaled_final/1715_rv.mp4	0.0	300.0164020061493	
63	272.7572240829468	fix_post	2		12	61.0	2.5	/experiments/knapen_AOT/AOT_stimuli/rescaled_final/1715_rv.mp4	0.0	301.3408041000366	0.10001897811889648
64	272.8572430610657	fix_pre	0		120	62.0	2.5	blank	1.0	301.4408230781555	1.0001230239868164
64	273.0323750972748	pulse	0	t		62.0	2.5	blank	1.0	301.6159551143646	
64	273.8573660850525	movie	1		300	62.0	2.5	blank	1.0	302.44094610214233	2.500356912612915
64	274.6327130794525	pulse	1	t		62.0	2.5	blank	1.0	303.21629309654236	
64	276.23286604881287	pulse	1	t		62.0	2.5	blank	1.0	304.8164460659027	
64	276.3577229976654	fix_post	2		11	62.0	2.5	blank	1.0	304.94130301475525	0.09171700477600098
65	276.4494400024414	fix_pre	0		120	63.0	2.5	/experiments/knapen_AOT/AOT_stimuli/rescaled_final/0863_rv.mp4	0.0	305.03302001953125	1.0001871585845947
65	277.449627161026	movie	1		243	63.0	2.5	/experiments/knapen_AOT/AOT_stimuli/rescaled_final/0863_rv.mp4	0.0	306.03320717811584	2.500300884246826
65	277.83755707740784	pulse	1	t		63.0	2.5	/experiments/knapen_AOT/AOT_stimuli/rescaled_final/0863_rv.mp4	0.0	306.4211370944977	
65	279.4335331916809	pulse	1	t		63.0	2.5	/experiments/knapen_AOT/AOT_stimuli/rescaled_final/0863_rv.mp4	0.0	308.01711320877075	
65	279.9499280452728	fix_post	2		12	63.0	2.5	/experiments/knapen_AOT/AOT_stimuli/rescaled_final/0863_rv.mp4	0.0	308.53350806236267	0.10003113746643066
66	280.04995918273926	fix_pre	0		119	64.0	2.5	/experiments/knapen_AOT/AOT_stimuli/rescaled_final/0857_rv.mp4	0.0	308.6335391998291	0.9918179512023926
66	281.03366112709045	pulse	0	t		64.0	2.5	/experiments/knapen_AOT/AOT_stimuli/rescaled_final/0857_rv.mp4	0.0	309.6172411441803	
66	281.04177713394165	movie	1		244	64.0	2.5	/experiments/knapen_AOT/AOT_stimuli/rescaled_final/0857_rv.mp4	0.0	309.6253571510315	2.508746862411499
66	282.634446144104	pulse	1	t		64.0	2.5	/experiments/knapen_AOT/AOT_stimuli/rescaled_final/0857_rv.mp4	0.0	311.21802616119385	
66	283.55052399635315	fix_post	2		12	64.0	2.5	/experiments/knapen_AOT/AOT_stimuli/rescaled_final/0857_rv.mp4	0.0	312.134104013443	0.1000051498413086
67	283.65052914619446	fix_pre	0		120	65.0	2.5	/experiments/knapen_AOT/AOT_stimuli/rescaled_final/0391_fw.mp4	0.0	312.2341091632843	1.000128984451294
67	284.23411417007446	pulse	0	t		65.0	2.5	/experiments/knapen_AOT/AOT_stimuli/rescaled_final/0391_fw.mp4	0.0	312.8176941871643	
67	284.65065813064575	movie	1		244	65.0	2.5	/experiments/knapen_AOT/AOT_stimuli/rescaled_final/0391_fw.mp4	0.0	313.2342381477356	2.5003390312194824
67	285.8345150947571	pulse	1	t		65.0	2.5	/experiments/knapen_AOT/AOT_stimuli/rescaled_final/0391_fw.mp4	0.0	314.4180951118469	
67	287.15099716186523	fix_post	2		12	65.0	2.5	/experiments/knapen_AOT/AOT_stimuli/rescaled_final/0391_fw.mp4	0.0	315.7345771789551	0.10007786750793457
68	287.25107502937317	fix_pre	0		120	66.0	2.5	/experiments/knapen_AOT/AOT_stimuli/rescaled_final/1491_rv.mp4	0.0	315.834655046463	1.0001211166381836
68	287.43471908569336	pulse	0	t		66.0	2.5	/experiments/knapen_AOT/AOT_stimuli/rescaled_final/1491_rv.mp4	0.0	316.0182991027832	
68	288.25119614601135	movie	1		244	66.0	2.5	/experiments/knapen_AOT/AOT_stimuli/rescaled_final/1491_rv.mp4	0.0	316.8347761631012	2.50039005279541
68	289.03482818603516	pulse	1	t		66.0	2.5	/experiments/knapen_AOT/AOT_stimuli/rescaled_final/1491_rv.mp4	0.0	317.618408203125	
68	290.63549613952637	pulse	1	t		66.0	2.5	/experiments/knapen_AOT/AOT_stimuli/rescaled_final/1491_rv.mp4	0.0	319.2190761566162	
68	290.75158619880676	fix_post	2		12	66.0	2.5	/experiments/knapen_AOT/AOT_stimuli/rescaled_final/1491_rv.mp4	0.0	319.3351662158966	0.10004281997680664
69	290.85162901878357	fix_pre	0		120	67.0	2.5	/experiments/knapen_AOT/AOT_stimuli/rescaled_final/1111_fw.mp4	0.0	319.4352090358734	1.0001060962677002
69	291.85173511505127	movie	1		243	67.0	2.5	/experiments/knapen_AOT/AOT_stimuli/rescaled_final/1111_fw.mp4	0.0	320.4353151321411	2.492003917694092
69	292.23600721359253	pulse	1	t		67.0	2.5	/experiments/knapen_AOT/AOT_stimuli/rescaled_final/1111_fw.mp4	0.0	320.8195872306824	
69	293.83563899993896	pulse	1	t		67.0	2.5	/experiments/knapen_AOT/AOT_stimuli/rescaled_final/1111_fw.mp4	0.0	322.4192190170288	
69	294.34373903274536	fix_post	2		12	67.0	2.5	/experiments/knapen_AOT/AOT_stimuli/rescaled_final/1111_fw.mp4	0.0	322.9273190498352	0.10003805160522461
70	294.4437770843506	fix_pre	0		120	68.0	2.5	/experiments/knapen_AOT/AOT_stimuli/rescaled_final/1742_rv.mp4	0.0	323.02735710144043	1.0001370906829834
70	295.4358940124512	pulse	0	t		68.0	2.5	/experiments/knapen_AOT/AOT_stimuli/rescaled_final/1742_rv.mp4	0.0	324.019474029541	
70	295.44391417503357	movie	1		244	68.0	2.5	/experiments/knapen_AOT/AOT_stimuli/rescaled_final/1742_rv.mp4	0.0	324.0274941921234	2.5087029933929443
70	297.03683614730835	pulse	1	t		68.0	2.5	/experiments/knapen_AOT/AOT_stimuli/rescaled_final/1742_rv.mp4	0.0	325.6204161643982	
70	297.9526171684265	fix_post	2		12	68.0	2.5	/experiments/knapen_AOT/AOT_stimuli/rescaled_final/1742_rv.mp4	0.0	326.53619718551636	0.1000528335571289
71	298.05267000198364	fix_pre	0		120	69.0	2.5	blank	1.0	326.6362500190735	1.0001180171966553
71	298.63632321357727	pulse	0	t		69.0	2.5	blank	1.0	327.2199032306671	
71	299.0527880191803	movie	1		300	69.0	2.5	blank	1.0	327.63636803627014	2.500399112701416
71	300.2366280555725	pulse	1	t		69.0	2.5	blank	1.0	328.82020807266235	
71	301.5531871318817	fix_post	2		12	69.0	2.5	blank	1.0	330.13676714897156	0.10002493858337402
72	301.6532120704651	fix_pre	0		120	70.0	2.5	/experiments/knapen_AOT/AOT_stimuli/rescaled_final/1008_fw.mp4	0.0	330.23679208755493	1.0001230239868164
72	301.83678913116455	pulse	0	t		70.0	2.5	/experiments/knapen_AOT/AOT_stimuli/rescaled_final/1008_fw.mp4	0.0	330.4203691482544	
72	302.6533350944519	movie	1		243	70.0	2.5	/experiments/knapen_AOT/AOT_stimuli/rescaled_final/1008_fw.mp4	0.0	331.23691511154175	2.5003559589385986
72	303.4369900226593	pulse	1	t		70.0	2.5	/experiments/knapen_AOT/AOT_stimuli/rescaled_final/1008_fw.mp4	0.0	332.02057003974915	
72	305.03701519966125	pulse	1	t		70.0	2.5	/experiments/knapen_AOT/AOT_stimuli/rescaled_final/1008_fw.mp4	0.0	333.6205952167511	
72	305.1536910533905	fix_post	2		12	70.0	2.5	/experiments/knapen_AOT/AOT_stimuli/rescaled_final/1008_fw.mp4	0.0	333.73727107048035	0.10004210472106934
73	305.2537331581116	fix_pre	0		120	71.0	2.5	/experiments/knapen_AOT/AOT_stimuli/rescaled_final/0920_rv.mp4	0.0	333.8373131752014	1.000148057937622
73	306.2538812160492	movie	1		242	71.0	2.5	/experiments/knapen_AOT/AOT_stimuli/rescaled_final/0920_rv.mp4	0.0	334.83746123313904	2.4920217990875244
73	306.63859701156616	pulse	1	t		71.0	2.5	/experiments/knapen_AOT/AOT_stimuli/rescaled_final/0920_rv.mp4	0.0	335.222177028656	
73	308.2377049922943	pulse	1	t		71.0	2.5	/experiments/knapen_AOT/AOT_stimuli/rescaled_final/0920_rv.mp4	0.0	336.82128500938416	
73	308.7459030151367	fix_post	2		12	71.0	2.5	/experiments/knapen_AOT/AOT_stimuli/rescaled_final/0920_rv.mp4	0.0	337.32948303222656	0.10003018379211426
74	308.84593319892883	fix_pre	0		120	72.0	2.5	/experiments/knapen_AOT/AOT_stimuli/rescaled_final/1414_rv.mp4	0.0	337.4295132160187	1.000147819519043
74	309.8378551006317	pulse	0	t		72.0	2.5	/experiments/knapen_AOT/AOT_stimuli/rescaled_final/1414_rv.mp4	0.0	338.42143511772156	
74	309.8460810184479	movie	1		244	72.0	2.5	/experiments/knapen_AOT/AOT_stimuli/rescaled_final/1414_rv.mp4	0.0	338.4296610355377	2.5086841583251953
74	311.4429659843445	pulse	1	t		72.0	2.5	/experiments/knapen_AOT/AOT_stimuli/rescaled_final/1414_rv.mp4	0.0	340.0265460014343	
74	312.35476517677307	fix_post	2		12	72.0	2.5	/experiments/knapen_AOT/AOT_stimuli/rescaled_final/1414_rv.mp4	0.0	340.9383451938629	0.10003185272216797
75	312.45479702949524	fix_pre	0		120	73.0	2.5	/experiments/knapen_AOT/AOT_stimuli/rescaled_final/1714_fw.mp4	0.0	341.0383770465851	1.0001530647277832
75	313.03844714164734	pulse	0	t		73.0	2.5	/experiments/knapen_AOT/AOT_stimuli/rescaled_final/1714_fw.mp4	0.0	341.6220271587372	
75	313.454950094223	movie	1		243	73.0	2.5	/experiments/knapen_AOT/AOT_stimuli/rescaled_final/1714_fw.mp4	0.0	342.03853011131287	2.5003600120544434
75	314.63879919052124	pulse	1	t		73.0	2.5	/experiments/knapen_AOT/AOT_stimuli/rescaled_final/1714_fw.mp4	0.0	343.2223792076111	
75	315.95531010627747	fix_post	2		12	73.0	2.5	/experiments/knapen_AOT/AOT_stimuli/rescaled_final/1714_fw.mp4	0.0	344.5388901233673	0.10000896453857422
76	316.05531907081604	fix_pre	0		120	74.0	2.5	/experiments/knapen_AOT/AOT_stimuli/rescaled_final/0652_fw.mp4	0.0	344.6388990879059	1.0001771450042725
76	316.2388641834259	pulse	0	t		74.0	2.5	/experiments/knapen_AOT/AOT_stimuli/rescaled_final/0652_fw.mp4	0.0	344.82244420051575	
76	317.0554962158203	movie	1		243	74.0	2.5	/experiments/knapen_AOT/AOT_stimuli/rescaled_final/0652_fw.mp4	0.0	345.63907623291016	2.50036883354187
76	317.8317701816559	pulse	1	t		74.0	2.5	/experiments/knapen_AOT/AOT_stimuli/rescaled_final/0652_fw.mp4	0.0	346.4153501987457	
76	319.4397711753845	pulse	1	t		74.0	2.5	/experiments/knapen_AOT/AOT_stimuli/rescaled_final/0652_fw.mp4	0.0	348.02335119247437	
76	319.5558650493622	fix_post	2		12	74.0	2.5	/experiments/knapen_AOT/AOT_stimuli/rescaled_final/0652_fw.mp4	0.0	348.139445066452	0.09998416900634766
77	319.65584921836853	fix_pre	0		119	75.0	2.5	/experiments/knapen_AOT/AOT_stimuli/rescaled_final/0982_rv.mp4	0.0	348.2394292354584	0.9918398857116699
77	320.6476891040802	movie	1		243	75.0	2.5	/experiments/knapen_AOT/AOT_stimuli/rescaled_final/0982_rv.mp4	0.0	349.23126912117004	2.50045108795166
77	321.03209710121155	pulse	1	t		75.0	2.5	/experiments/knapen_AOT/AOT_stimuli/rescaled_final/0982_rv.mp4	0.0	349.6156771183014	
77	322.6323711872101	pulse	1	t		75.0	2.5	/experiments/knapen_AOT/AOT_stimuli/rescaled_final/0982_rv.mp4	0.0	351.2159512042999	
77	323.14814019203186	fix_post	2		12	75.0	2.5	/experiments/knapen_AOT/AOT_stimuli/rescaled_final/0982_rv.mp4	0.0	351.7317202091217	0.09994196891784668
78	323.2480821609497	fix_pre	0		119	76.0	2.5	blank	1.0	351.83166217803955	0.9918069839477539
78	324.2319030761719	pulse	0	t		76.0	2.5	blank	1.0	352.8154830932617	
78	324.23988914489746	movie	1		301	76.0	2.5	blank	1.0	352.8234691619873	2.5087270736694336
78	325.8320531845093	pulse	1	t		76.0	2.5	blank	1.0	354.4156332015991	
78	326.7486162185669	fix_post	2		12	76.0	2.5	blank	1.0	355.33219623565674	0.10003089904785156
79	326.84864711761475	fix_pre	0		120	77.0	2.5	/experiments/knapen_AOT/AOT_stimuli/rescaled_final/0471_rv.mp4	0.0	355.4322271347046	1.0001270771026611
79	327.4322249889374	pulse	0	t		77.0	2.5	/experiments/knapen_AOT/AOT_stimuli/rescaled_final/0471_rv.mp4	0.0	356.0158050060272	
79	327.8487741947174	movie	1		241	77.0	2.5	/experiments/knapen_AOT/AOT_stimuli/rescaled_final/0471_rv.mp4	0.0	356.43235421180725	2.5003550052642822
79	329.0325331687927	pulse	1	t		77.0	2.5	/experiments/knapen_AOT/AOT_stimuli/rescaled_final/0471_rv.mp4	0.0	357.61611318588257	
79	330.3491291999817	fix_post	2		12	77.0	2.5	/experiments/knapen_AOT/AOT_stimuli/rescaled_final/0471_rv.mp4	0.0	358.93270921707153	0.10007095336914062
80	330.44920015335083	fix_pre	0		120	78.0	2.5	/experiments/knapen_AOT/AOT_stimuli/rescaled_final/1211_rv.mp4	0.0	359.0327801704407	1.0000829696655273
80	330.63266706466675	pulse	0	t		78.0	2.5	/experiments/knapen_AOT/AOT_stimuli/rescaled_final/1211_rv.mp4	0.0	359.2162470817566	
80	331.44928312301636	movie	1		244	78.0	2.5	/experiments/knapen_AOT/AOT_stimuli/rescaled_final/1211_rv.mp4	0.0	360.0328631401062	2.5003790855407715
80	332.2328870296478	pulse	1	t		78.0	2.5	/experiments/knapen_AOT/AOT_stimuli/rescaled_final/1211_rv.mp4	0.0	360.81646704673767	
80	333.83324003219604	pulse	1	t		78.0	2.5	/experiments/knapen_AOT/AOT_stimuli/rescaled_final/1211_rv.mp4	0.0	362.4168200492859	
80	333.94966220855713	fix_post	2		12	78.0	2.5	/experiments/knapen_AOT/AOT_stimuli/rescaled_final/1211_rv.mp4	0.0	362.533242225647	0.10000395774841309
81	334.04966616630554	fix_pre	0		120	79.0	2.5	/experiments/knapen_AOT/AOT_stimuli/rescaled_final/0769_fw.mp4	0.0	362.6332461833954	1.0001509189605713
81	335.0498170852661	movie	1		245	79.0	2.5	/experiments/knapen_AOT/AOT_stimuli/rescaled_final/0769_fw.mp4	0.0	363.63339710235596	2.500373125076294
81	335.4347620010376	pulse	1	t		79.0	2.5	/experiments/knapen_AOT/AOT_stimuli/rescaled_final/0769_fw.mp4	0.0	364.01834201812744	
81	337.033704996109	pulse	1	t		79.0	2.5	/experiments/knapen_AOT/AOT_stimuli/rescaled_final/0769_fw.mp4	0.0	365.61728501319885	
81	337.5501902103424	fix_post	2		11	79.0	2.5	/experiments/knapen_AOT/AOT_stimuli/rescaled_final/0769_fw.mp4	0.0	366.13377022743225	0.09167790412902832
82	337.64186811447144	fix_pre	0		120	80.0	2.5	/experiments/knapen_AOT/AOT_stimuli/rescaled_final/0895_rv.mp4	0.0	366.2254481315613	1.0001699924468994
82	338.6338520050049	pulse	0	t		80.0	2.5	/experiments/knapen_AOT/AOT_stimuli/rescaled_final/0895_rv.mp4	0.0	367.2174320220947	
82	338.64203810691833	movie	1		244	80.0	2.5	/experiments/knapen_AOT/AOT_stimuli/rescaled_final/0895_rv.mp4	0.0	367.2256181240082	2.508692979812622
82	340.23479104042053	pulse	1	t		80.0	2.5	/experiments/knapen_AOT/AOT_stimuli/rescaled_final/0895_rv.mp4	0.0	368.8183710575104	
82	341.15073108673096	fix_post	2		12	80.0	2.5	/experiments/knapen_AOT/AOT_stimuli/rescaled_final/0895_rv.mp4	0.0	369.7343111038208	0.10002899169921875
83	341.2507600784302	fix_pre	0		120	81.0	2.5	/experiments/knapen_AOT/AOT_stimuli/rescaled_final/0389_rv.mp4	0.0	369.83434009552	1.0001521110534668
83	341.8344841003418	pulse	0	t		81.0	2.5	/experiments/knapen_AOT/AOT_stimuli/rescaled_final/0389_rv.mp4	0.0	370.41806411743164	
83	342.25091218948364	movie	1		245	81.0	2.5	/experiments/knapen_AOT/AOT_stimuli/rescaled_final/0389_rv.mp4	0.0	370.8344922065735	2.500382900238037
83	343.4346420764923	pulse	1	t		81.0	2.5	/experiments/knapen_AOT/AOT_stimuli/rescaled_final/0389_rv.mp4	0.0	372.01822209358215	
83	344.7512950897217	fix_post	2		12	81.0	2.5	/experiments/knapen_AOT/AOT_stimuli/rescaled_final/0389_rv.mp4	0.0	373.3348751068115	0.10004496574401855
84	344.8513400554657	fix_pre	0		120	82.0	2.5	blank	1.0	373.43492007255554	1.0001239776611328
84	345.03490018844604	pulse	0	t		82.0	2.5	blank	1.0	373.6184802055359	
84	345.85146403312683	movie	1		300	82.0	2.5	blank	1.0	374.4350440502167	2.500359058380127
84	346.6351361274719	pulse	1	t		82.0	2.5	blank	1.0	375.21871614456177	
84	348.2354521751404	pulse	1	t		82.0	2.5	blank	1.0	376.8190321922302	
84	348.35182309150696	fix_post	2		12	82.0	2.5	blank	1.0	376.9354031085968	0.09999489784240723
85	348.45181798934937	fix_pre	0		120	83.0	2.5	/experiments/knapen_AOT/AOT_stimuli/rescaled_final/0029_fw.mp4	0.0	377.0353980064392	1.0001521110534668
85	349.45197010040283	movie	1		244	83.0	2.5	/experiments/knapen_AOT/AOT_stimuli/rescaled_final/0029_fw.mp4	0.0	378.0355501174927	2.492034912109375
85	349.8361451625824	pulse	1	t		83.0	2.5	/experiments/knapen_AOT/AOT_stimuli/rescaled_final/0029_fw.mp4	0.0	378.41972517967224	
85	351.4357931613922	pulse	1	t		83.0	2.5	/experiments/knapen_AOT/AOT_stimuli/rescaled_final/0029_fw.mp4	0.0	380.01937317848206	
85	351.9440050125122	fix_post	2		12	83.0	2.5	/experiments/knapen_AOT/AOT_stimuli/rescaled_final/0029_fw.mp4	0.0	380.52758502960205	0.10001611709594727
87	352.04402112960815	stim	0		1716					380.627601146698	14.30230188369751
87	353.0361030101776	pulse	0	t						381.61968302726746	
87	354.63641810417175	pulse	0	t						383.2199981212616	
87	356.2366030216217	pulse	0	t						384.82018303871155	
87	357.8367919921875	pulse	0	t						386.42037200927734	
87	359.4369251728058	pulse	0	t						388.02050518989563	
87	361.0372440814972	pulse	0	t						389.62082409858704	
87	362.63748812675476	pulse	0	t						391.2210681438446	
87	364.2376911640167	pulse	0	t						392.82127118110657	
87	365.83783316612244	pulse	0	t						394.4214131832123	
