trial_nr	onset	event_type	phase	response	nr_frames	movie_index	movie_duration	movie_file	blank	onset_abs	duration
0	0.14151597023010254	stim	0		77					65.27198004722595	0.6417050361633301
0	0.7752578258514404	response	0	space						65.90572190284729	
1	0.7832210063934326	stim	0		4968					65.91368508338928	41.39970779418945
1	42.16767191886902	pulse	0	t						107.29813599586487	
1	42.182928800582886	stim	1		1717					107.31339287757874	14.308337211608887
1	43.76729679107666	pulse	1	t						108.89776086807251	
1	45.36727690696716	pulse	1	t						110.49774098396301	
1	46.967206954956055	pulse	1	t						112.0976710319519	
1	48.567259788513184	pulse	1	t						113.69772386550903	
1	50.17477488517761	pulse	1	t						115.30523896217346	
1	51.77480483055115	pulse	1	t						116.905268907547	
1	53.37467694282532	pulse	1	t						118.50514101982117	
1	54.97475600242615	pulse	1	t						120.105220079422	
2	56.49126601219177	fix_pre	0		11	0.0	2.5	/experiments/AOT/AOT_stimuli/rescaled_final/1039_fw.mp4	0.0	121.62173008918762	0.09165000915527344
2	56.574779987335205	pulse	0	t		0.0	2.5	/experiments/AOT/AOT_stimuli/rescaled_final/1039_fw.mp4	0.0	121.70524406433105	
2	56.582916021347046	movie	1		245	0.0	2.5	/experiments/AOT/AOT_stimuli/rescaled_final/1039_fw.mp4	0.0	121.7133800983429	2.508331775665283
2	58.17418384552002	pulse	1	t		0.0	2.5	/experiments/AOT/AOT_stimuli/rescaled_final/1039_fw.mp4	0.0	123.30464792251587	
2	59.09124779701233	fix_post	2		12	0.0	2.5	/experiments/AOT/AOT_stimuli/rescaled_final/1039_fw.mp4	0.0	124.22171187400818	0.10003805160522461
3	59.191285848617554	fix_pre	0		120	1.0	2.5	/experiments/AOT/AOT_stimuli/rescaled_final/2070_rv.mp4	0.0	124.3217499256134	0.9998879432678223
3	59.76719379425049	pulse	0	t		1.0	2.5	/experiments/AOT/AOT_stimuli/rescaled_final/2070_rv.mp4	0.0	124.89765787124634	
3	60.191173791885376	movie	1		245	1.0	2.5	/experiments/AOT/AOT_stimuli/rescaled_final/2070_rv.mp4	0.0	125.32163786888123	2.5000061988830566
3	61.37485694885254	pulse	1	t		1.0	2.5	/experiments/AOT/AOT_stimuli/rescaled_final/2070_rv.mp4	0.0	126.50532102584839	
3	62.69117999076843	fix_post	2		12	1.0	2.5	/experiments/AOT/AOT_stimuli/rescaled_final/2070_rv.mp4	0.0	127.82164406776428	0.10004496574401855
4	62.79122495651245	fix_pre	0		120	2.0	2.5	/experiments/AOT/AOT_stimuli/rescaled_final/0903_fw.mp4	0.0	127.9216890335083	1.0
4	62.96719288825989	pulse	0	t		2.0	2.5	/experiments/AOT/AOT_stimuli/rescaled_final/0903_fw.mp4	0.0	128.09765696525574	
4	63.79122495651245	movie	1		245	2.0	2.5	/experiments/AOT/AOT_stimuli/rescaled_final/0903_fw.mp4	0.0	128.9216890335083	2.4995670318603516
4	64.56717681884766	pulse	1	t		2.0	2.5	/experiments/AOT/AOT_stimuli/rescaled_final/0903_fw.mp4	0.0	129.6976408958435	
4	66.17475700378418	pulse	1	t		2.0	2.5	/experiments/AOT/AOT_stimuli/rescaled_final/0903_fw.mp4	0.0	131.30522108078003	
4	66.2907919883728	fix_post	2		12	2.0	2.5	/experiments/AOT/AOT_stimuli/rescaled_final/0903_fw.mp4	0.0	131.42125606536865	0.10039186477661133
5	66.39118385314941	fix_pre	0		120	3.0	2.5	/experiments/AOT/AOT_stimuli/rescaled_final/1208_fw.mp4	0.0	131.52164793014526	1.0001070499420166
5	67.39129090309143	movie	1		247	3.0	2.5	/experiments/AOT/AOT_stimuli/rescaled_final/1208_fw.mp4	0.0	132.52175498008728	2.4999310970306396
5	67.77416586875916	pulse	1	t		3.0	2.5	/experiments/AOT/AOT_stimuli/rescaled_final/1208_fw.mp4	0.0	132.904629945755	
5	69.37473392486572	pulse	1	t		3.0	2.5	/experiments/AOT/AOT_stimuli/rescaled_final/1208_fw.mp4	0.0	134.50519800186157	
5	69.89122200012207	fix_post	2		12	3.0	2.5	/experiments/AOT/AOT_stimuli/rescaled_final/1208_fw.mp4	0.0	135.02168607711792	0.09993195533752441
6	69.9911539554596	fix_pre	0		119	4.0	2.5	/experiments/AOT/AOT_stimuli/rescaled_final/0488_rv.mp4	0.0	135.12161803245544	0.9917809963226318
6	70.97465491294861	pulse	0	t		4.0	2.5	/experiments/AOT/AOT_stimuli/rescaled_final/0488_rv.mp4	0.0	136.10511898994446	
6	70.98293495178223	movie	1		246	4.0	2.5	/experiments/AOT/AOT_stimuli/rescaled_final/0488_rv.mp4	0.0	136.11339902877808	2.5082859992980957
6	72.57494783401489	pulse	1	t		4.0	2.5	/experiments/AOT/AOT_stimuli/rescaled_final/0488_rv.mp4	0.0	137.70541191101074	
6	73.49122095108032	fix_post	2		12	4.0	2.5	/experiments/AOT/AOT_stimuli/rescaled_final/0488_rv.mp4	0.0	138.62168502807617	0.09995603561401367
7	73.59117698669434	fix_pre	0		120	5.0	2.5	/experiments/AOT/AOT_stimuli/rescaled_final/2169_fw.mp4	0.0	138.72164106369019	0.9996128082275391
7	74.1742479801178	pulse	0	t		5.0	2.5	/experiments/AOT/AOT_stimuli/rescaled_final/2169_fw.mp4	0.0	139.30471205711365	
7	74.59078979492188	movie	1		243	5.0	2.5	/experiments/AOT/AOT_stimuli/rescaled_final/2169_fw.mp4	0.0	139.72125387191772	2.5003671646118164
7	75.7748749256134	pulse	1	t		5.0	2.5	/experiments/AOT/AOT_stimuli/rescaled_final/2169_fw.mp4	0.0	140.90533900260925	
7	77.09115695953369	fix_post	2		12	5.0	2.5	/experiments/AOT/AOT_stimuli/rescaled_final/2169_fw.mp4	0.0	142.22162103652954	0.1001129150390625
8	77.19126987457275	fix_pre	0		120	6.0	2.5	blank	1.0	142.3217339515686	0.9999799728393555
8	77.36723494529724	pulse	0	t		6.0	2.5	blank	1.0	142.4976990222931	
8	78.19124984741211	movie	1		300	6.0	2.5	blank	1.0	143.32171392440796	2.4998700618743896
8	78.96717095375061	pulse	1	t		6.0	2.5	blank	1.0	144.09763503074646	
8	80.56705784797668	pulse	1	t		6.0	2.5	blank	1.0	145.69752192497253	
8	80.6911199092865	fix_post	2		12	6.0	2.5	blank	1.0	145.82158398628235	0.10002303123474121
9	80.79114294052124	fix_pre	0		120	7.0	2.5	/experiments/AOT/AOT_stimuli/rescaled_final/2134_fw.mp4	0.0	145.9216070175171	0.9999270439147949
9	81.79106998443604	movie	1		246	7.0	2.5	/experiments/AOT/AOT_stimuli/rescaled_final/2134_fw.mp4	0.0	146.92153406143188	2.5000438690185547
9	82.17405796051025	pulse	1	t		7.0	2.5	/experiments/AOT/AOT_stimuli/rescaled_final/2134_fw.mp4	0.0	147.3045220375061	
9	83.77462887763977	pulse	1	t		7.0	2.5	/experiments/AOT/AOT_stimuli/rescaled_final/2134_fw.mp4	0.0	148.90509295463562	
9	84.29111385345459	fix_post	2		12	7.0	2.5	/experiments/AOT/AOT_stimuli/rescaled_final/2134_fw.mp4	0.0	149.42157793045044	0.10003805160522461
10	84.39115190505981	fix_pre	0		119	8.0	2.5	/experiments/AOT/AOT_stimuli/rescaled_final/1204_rv.mp4	0.0	149.52161598205566	0.9915769100189209
10	85.37462902069092	pulse	0	t		8.0	2.5	/experiments/AOT/AOT_stimuli/rescaled_final/1204_rv.mp4	0.0	150.50509309768677	
10	85.38272881507874	movie	1		247	8.0	2.5	/experiments/AOT/AOT_stimuli/rescaled_final/1204_rv.mp4	0.0	150.51319289207458	2.508362054824829
10	86.97417497634888	pulse	1	t		8.0	2.5	/experiments/AOT/AOT_stimuli/rescaled_final/1204_rv.mp4	0.0	152.10463905334473	
10	87.89109086990356	fix_post	2		12	8.0	2.5	/experiments/AOT/AOT_stimuli/rescaled_final/1204_rv.mp4	0.0	153.0215549468994	0.09967708587646484
11	87.99076795578003	fix_pre	0		120	9.0	2.5	/experiments/AOT/AOT_stimuli/rescaled_final/0960_rv.mp4	0.0	153.12123203277588	1.0003340244293213
11	88.5746660232544	pulse	0	t		9.0	2.5	/experiments/AOT/AOT_stimuli/rescaled_final/0960_rv.mp4	0.0	153.70513010025024	
11	88.99110198020935	movie	1		244	9.0	2.5	/experiments/AOT/AOT_stimuli/rescaled_final/0960_rv.mp4	0.0	154.1215660572052	2.5000410079956055
11	90.17470192909241	pulse	1	t		9.0	2.5	/experiments/AOT/AOT_stimuli/rescaled_final/0960_rv.mp4	0.0	155.30516600608826	
11	91.49114298820496	fix_post	2		12	9.0	2.5	/experiments/AOT/AOT_stimuli/rescaled_final/0960_rv.mp4	0.0	156.6216070652008	0.09989595413208008
12	91.59103894233704	fix_pre	0		120	10.0	2.5	/experiments/AOT/AOT_stimuli/rescaled_final/2006_fw.mp4	0.0	156.72150301933289	1.0000789165496826
12	91.77458190917969	pulse	0	t		10.0	2.5	/experiments/AOT/AOT_stimuli/rescaled_final/2006_fw.mp4	0.0	156.90504598617554	
12	92.59111785888672	movie	1		243	10.0	2.5	/experiments/AOT/AOT_stimuli/rescaled_final/2006_fw.mp4	0.0	157.72158193588257	2.4994781017303467
12	93.36770987510681	pulse	1	t		10.0	2.5	/experiments/AOT/AOT_stimuli/rescaled_final/2006_fw.mp4	0.0	158.49817395210266	
12	94.97304081916809	pulse	1	t		10.0	2.5	/experiments/AOT/AOT_stimuli/rescaled_final/2006_fw.mp4	0.0	160.10350489616394	
12	95.09059596061707	fix_post	2		12	10.0	2.5	/experiments/AOT/AOT_stimuli/rescaled_final/2006_fw.mp4	0.0	160.22106003761292	0.1004948616027832
13	95.19109082221985	fix_pre	0		120	11.0	2.5	/experiments/AOT/AOT_stimuli/rescaled_final/0385_rv.mp4	0.0	160.3215548992157	0.9999651908874512
13	96.1910560131073	movie	1		244	11.0	2.5	/experiments/AOT/AOT_stimuli/rescaled_final/0385_rv.mp4	0.0	161.32152009010315	2.500088930130005
13	96.57568287849426	pulse	1	t		11.0	2.5	/experiments/AOT/AOT_stimuli/rescaled_final/0385_rv.mp4	0.0	161.7061469554901	
13	98.17457580566406	pulse	1	t		11.0	2.5	/experiments/AOT/AOT_stimuli/rescaled_final/0385_rv.mp4	0.0	163.3050398826599	
13	98.6911449432373	fix_post	2		12	11.0	2.5	/experiments/AOT/AOT_stimuli/rescaled_final/0385_rv.mp4	0.0	163.82160902023315	0.09993386268615723
14	98.79107880592346	fix_pre	0		119	12.0	2.5	/experiments/AOT/AOT_stimuli/rescaled_final/1341_rv.mp4	0.0	163.9215428829193	0.991624116897583
14	99.77459287643433	pulse	0	t		12.0	2.5	/experiments/AOT/AOT_stimuli/rescaled_final/1341_rv.mp4	0.0	164.90505695343018	
14	99.78270292282104	movie	1		244	12.0	2.5	/experiments/AOT/AOT_stimuli/rescaled_final/1341_rv.mp4	0.0	164.9131669998169	2.5083038806915283
14	101.37415981292725	pulse	1	t		12.0	2.5	/experiments/AOT/AOT_stimuli/rescaled_final/1341_rv.mp4	0.0	166.5046238899231	
14	102.29100680351257	fix_post	2		12	12.0	2.5	/experiments/AOT/AOT_stimuli/rescaled_final/1341_rv.mp4	0.0	167.42147088050842	0.09999418258666992
15	102.39100098609924	fix_pre	0		120	13.0	2.5	/experiments/AOT/AOT_stimuli/rescaled_final/0200_rv.mp4	0.0	167.5214650630951	1.0001029968261719
15	102.97459197044373	pulse	0	t		13.0	2.5	/experiments/AOT/AOT_stimuli/rescaled_final/0200_rv.mp4	0.0	168.10505604743958	
15	103.39110398292542	movie	1		245	13.0	2.5	/experiments/AOT/AOT_stimuli/rescaled_final/0200_rv.mp4	0.0	168.52156805992126	2.4999279975891113
15	104.5745677947998	pulse	1	t		13.0	2.5	/experiments/AOT/AOT_stimuli/rescaled_final/0200_rv.mp4	0.0	169.70503187179565	
15	105.89103198051453	fix_post	2		12	13.0	2.5	/experiments/AOT/AOT_stimuli/rescaled_final/0200_rv.mp4	0.0	171.02149605751038	0.1000208854675293
16	105.99105286598206	fix_pre	0		120	14.0	2.5	blank	1.0	171.1215169429779	0.999993085861206
16	106.17455697059631	pulse	0	t		14.0	2.5	blank	1.0	171.30502104759216	
16	106.99104595184326	movie	1		300	14.0	2.5	blank	1.0	172.1215100288391	2.5000479221343994
16	107.77451992034912	pulse	1	t		14.0	2.5	blank	1.0	172.90498399734497	
16	109.37453985214233	pulse	1	t		14.0	2.5	blank	1.0	174.50500392913818	
16	109.49109387397766	fix_post	2		12	14.0	2.5	blank	1.0	174.6215579509735	0.09993696212768555
17	109.59103083610535	fix_pre	0		120	15.0	2.5	/experiments/AOT/AOT_stimuli/rescaled_final/1459_rv.mp4	0.0	174.7214949131012	1.0000460147857666
17	110.59107685089111	movie	1		246	15.0	2.5	/experiments/AOT/AOT_stimuli/rescaled_final/1459_rv.mp4	0.0	175.72154092788696	2.4995410442352295
17	110.97561001777649	pulse	1	t		15.0	2.5	/experiments/AOT/AOT_stimuli/rescaled_final/1459_rv.mp4	0.0	176.10607409477234	
17	112.56714582443237	pulse	1	t		15.0	2.5	/experiments/AOT/AOT_stimuli/rescaled_final/1459_rv.mp4	0.0	177.69760990142822	
17	113.09061789512634	fix_post	2		12	15.0	2.5	/experiments/AOT/AOT_stimuli/rescaled_final/1459_rv.mp4	0.0	178.2210819721222	0.10043191909790039
18	113.19104981422424	fix_pre	0		119	16.0	2.5	/experiments/AOT/AOT_stimuli/rescaled_final/1467_fw.mp4	0.0	178.3215138912201	0.9916360378265381
18	114.17452502250671	pulse	0	t		16.0	2.5	/experiments/AOT/AOT_stimuli/rescaled_final/1467_fw.mp4	0.0	179.30498909950256	
18	114.18268585205078	movie	1		244	16.0	2.5	/experiments/AOT/AOT_stimuli/rescaled_final/1467_fw.mp4	0.0	179.31314992904663	2.508371114730835
18	115.7740387916565	pulse	1	t		16.0	2.5	/experiments/AOT/AOT_stimuli/rescaled_final/1467_fw.mp4	0.0	180.90450286865234	
18	116.69105696678162	fix_post	2		12	16.0	2.5	/experiments/AOT/AOT_stimuli/rescaled_final/1467_fw.mp4	0.0	181.82152104377747	0.09996795654296875
19	116.79102492332458	fix_pre	0		120	17.0	2.5	/experiments/AOT/AOT_stimuli/rescaled_final/1355_rv.mp4	0.0	181.92148900032043	0.9999840259552002
19	117.37447881698608	pulse	0	t		17.0	2.5	/experiments/AOT/AOT_stimuli/rescaled_final/1355_rv.mp4	0.0	182.50494289398193	
19	117.79100894927979	movie	1		244	17.0	2.5	/experiments/AOT/AOT_stimuli/rescaled_final/1355_rv.mp4	0.0	182.92147302627563	2.4998879432678223
19	118.97449898719788	pulse	1	t		17.0	2.5	/experiments/AOT/AOT_stimuli/rescaled_final/1355_rv.mp4	0.0	184.10496306419373	
19	120.29089689254761	fix_post	2		12	17.0	2.5	/experiments/AOT/AOT_stimuli/rescaled_final/1355_rv.mp4	0.0	185.42136096954346	0.10009312629699707
20	120.3909900188446	fix_pre	0		120	18.0	2.5	/experiments/AOT/AOT_stimuli/rescaled_final/0300_fw.mp4	0.0	185.52145409584045	0.9999639987945557
20	120.57454299926758	pulse	0	t		18.0	2.5	/experiments/AOT/AOT_stimuli/rescaled_final/0300_fw.mp4	0.0	185.70500707626343	
20	121.39095401763916	movie	1		243	18.0	2.5	/experiments/AOT/AOT_stimuli/rescaled_final/0300_fw.mp4	0.0	186.521418094635	2.500005006790161
20	122.17448401451111	pulse	1	t		18.0	2.5	/experiments/AOT/AOT_stimuli/rescaled_final/0300_fw.mp4	0.0	187.30494809150696	
20	123.77041482925415	pulse	1	t		18.0	2.5	/experiments/AOT/AOT_stimuli/rescaled_final/0300_fw.mp4	0.0	188.90087890625	
20	123.89095902442932	fix_post	2		12	18.0	2.5	/experiments/AOT/AOT_stimuli/rescaled_final/0300_fw.mp4	0.0	189.02142310142517	0.09999680519104004
21	123.99095582962036	fix_pre	0		120	19.0	2.5	blank	1.0	189.1214199066162	0.9999780654907227
21	124.99093389511108	movie	1		300	19.0	2.5	blank	1.0	190.12139797210693	2.5000109672546387
21	125.37442183494568	pulse	1	t		19.0	2.5	blank	1.0	190.50488591194153	
21	126.97437286376953	pulse	1	t		19.0	2.5	blank	1.0	192.10483694076538	
21	127.49094486236572	fix_post	2		12	19.0	2.5	blank	1.0	192.62140893936157	0.10004806518554688
22	127.59099292755127	fix_pre	0		119	20.0	2.5	/experiments/AOT/AOT_stimuli/rescaled_final/1958_rv.mp4	0.0	192.72145700454712	0.9916470050811768
22	128.56706285476685	pulse	0	t		20.0	2.5	/experiments/AOT/AOT_stimuli/rescaled_final/1958_rv.mp4	0.0	193.6975269317627	
22	128.58263993263245	movie	1		245	20.0	2.5	/experiments/AOT/AOT_stimuli/rescaled_final/1958_rv.mp4	0.0	193.7131040096283	2.5083320140838623
22	130.17345094680786	pulse	1	t		20.0	2.5	/experiments/AOT/AOT_stimuli/rescaled_final/1958_rv.mp4	0.0	195.3039150238037	
22	131.0909719467163	fix_post	2		12	20.0	2.5	/experiments/AOT/AOT_stimuli/rescaled_final/1958_rv.mp4	0.0	196.22143602371216	0.10009288787841797
23	131.19106483459473	fix_pre	0		120	21.0	2.5	/experiments/AOT/AOT_stimuli/rescaled_final/2061_rv.mp4	0.0	196.32152891159058	0.9997720718383789
23	131.7745759487152	pulse	0	t		21.0	2.5	/experiments/AOT/AOT_stimuli/rescaled_final/2061_rv.mp4	0.0	196.90504002571106	
23	132.1908369064331	movie	1		245	21.0	2.5	/experiments/AOT/AOT_stimuli/rescaled_final/2061_rv.mp4	0.0	197.32130098342896	2.499605894088745
23	133.3744068145752	pulse	1	t		21.0	2.5	/experiments/AOT/AOT_stimuli/rescaled_final/2061_rv.mp4	0.0	198.50487089157104	
23	134.69044280052185	fix_post	2		12	21.0	2.5	/experiments/AOT/AOT_stimuli/rescaled_final/2061_rv.mp4	0.0	199.8209068775177	0.10049104690551758
24	134.79093384742737	fix_pre	0		120	22.0	2.5	/experiments/AOT/AOT_stimuli/rescaled_final/0064_fw.mp4	0.0	199.92139792442322	0.9999129772186279
24	134.97439289093018	pulse	0	t		22.0	2.5	/experiments/AOT/AOT_stimuli/rescaled_final/0064_fw.mp4	0.0	200.10485696792603	
24	135.790846824646	movie	1		249	22.0	2.5	/experiments/AOT/AOT_stimuli/rescaled_final/0064_fw.mp4	0.0	200.92131090164185	2.5000240802764893
24	136.57442593574524	pulse	1	t		22.0	2.5	/experiments/AOT/AOT_stimuli/rescaled_final/0064_fw.mp4	0.0	201.7048900127411	
24	138.1742548942566	pulse	1	t		22.0	2.5	/experiments/AOT/AOT_stimuli/rescaled_final/0064_fw.mp4	0.0	203.30471897125244	
24	138.29087090492249	fix_post	2		12	22.0	2.5	/experiments/AOT/AOT_stimuli/rescaled_final/0064_fw.mp4	0.0	203.42133498191833	0.09992790222167969
25	138.39079880714417	fix_pre	0		120	23.0	2.5	/experiments/AOT/AOT_stimuli/rescaled_final/1505_fw.mp4	0.0	203.52126288414001	1.0000660419464111
25	139.39086484909058	movie	1		244	23.0	2.5	/experiments/AOT/AOT_stimuli/rescaled_final/1505_fw.mp4	0.0	204.52132892608643	2.4999170303344727
25	139.7741129398346	pulse	1	t		23.0	2.5	/experiments/AOT/AOT_stimuli/rescaled_final/1505_fw.mp4	0.0	204.90457701683044	
25	141.37437796592712	pulse	1	t		23.0	2.5	/experiments/AOT/AOT_stimuli/rescaled_final/1505_fw.mp4	0.0	206.50484204292297	
25	141.89078187942505	fix_post	2		12	23.0	2.5	/experiments/AOT/AOT_stimuli/rescaled_final/1505_fw.mp4	0.0	207.0212459564209	0.10005402565002441
26	141.99083590507507	fix_pre	0		119	24.0	2.5	/experiments/AOT/AOT_stimuli/rescaled_final/0360_rv.mp4	0.0	207.12129998207092	0.9916510581970215
26	142.97437500953674	pulse	0	t		24.0	2.5	/experiments/AOT/AOT_stimuli/rescaled_final/0360_rv.mp4	0.0	208.1048390865326	
26	142.9824869632721	movie	1		246	24.0	2.5	/experiments/AOT/AOT_stimuli/rescaled_final/0360_rv.mp4	0.0	208.11295104026794	2.5083069801330566
26	144.57372093200684	pulse	1	t		24.0	2.5	/experiments/AOT/AOT_stimuli/rescaled_final/0360_rv.mp4	0.0	209.70418500900269	
26	145.49079394340515	fix_post	2		12	24.0	2.5	/experiments/AOT/AOT_stimuli/rescaled_final/0360_rv.mp4	0.0	210.621258020401	0.10003805160522461
27	145.59083199501038	fix_pre	0		120	25.0	2.5	/experiments/AOT/AOT_stimuli/rescaled_final/1364_fw.mp4	0.0	210.72129607200623	1.0000429153442383
27	146.17427682876587	pulse	0	t		25.0	2.5	/experiments/AOT/AOT_stimuli/rescaled_final/1364_fw.mp4	0.0	211.30474090576172	
27	146.59087491035461	movie	1		245	25.0	2.5	/experiments/AOT/AOT_stimuli/rescaled_final/1364_fw.mp4	0.0	211.72133898735046	2.499856948852539
27	147.77440285682678	pulse	1	t		25.0	2.5	/experiments/AOT/AOT_stimuli/rescaled_final/1364_fw.mp4	0.0	212.90486693382263	
27	149.09073185920715	fix_post	2		12	25.0	2.5	/experiments/AOT/AOT_stimuli/rescaled_final/1364_fw.mp4	0.0	214.221195936203	0.10008406639099121
28	149.19081592559814	fix_pre	0		120	26.0	2.5	/experiments/AOT/AOT_stimuli/rescaled_final/0326_fw.mp4	0.0	214.321280002594	0.9999129772186279
28	149.3743269443512	pulse	0	t		26.0	2.5	/experiments/AOT/AOT_stimuli/rescaled_final/0326_fw.mp4	0.0	214.50479102134705	
28	150.19072890281677	movie	1		248	26.0	2.5	/experiments/AOT/AOT_stimuli/rescaled_final/0326_fw.mp4	0.0	215.32119297981262	2.50004506111145
28	150.97451901435852	pulse	1	t		26.0	2.5	/experiments/AOT/AOT_stimuli/rescaled_final/0326_fw.mp4	0.0	216.10498309135437	
28	152.57376289367676	pulse	1	t		26.0	2.5	/experiments/AOT/AOT_stimuli/rescaled_final/0326_fw.mp4	0.0	217.7042269706726	
28	152.69077396392822	fix_post	2		12	26.0	2.5	/experiments/AOT/AOT_stimuli/rescaled_final/0326_fw.mp4	0.0	217.82123804092407	0.0999908447265625
29	152.79076480865479	fix_pre	0		120	27.0	2.5	blank	1.0	217.92122888565063	0.9995801448822021
29	153.790344953537	movie	1		300	27.0	2.5	blank	1.0	218.92080903053284	2.5004448890686035
29	154.1742730140686	pulse	1	t		27.0	2.5	blank	1.0	219.30473709106445	
29	155.77442383766174	pulse	1	t		27.0	2.5	blank	1.0	220.9048879146576	
29	156.2907898426056	fix_post	2		12	27.0	2.5	blank	1.0	221.42125391960144	0.09994816780090332
30	156.3907380104065	fix_pre	0		119	28.0	2.5	/experiments/AOT/AOT_stimuli/rescaled_final/1569_rv.mp4	0.0	221.52120208740234	0.9916789531707764
30	157.37425994873047	pulse	0	t		28.0	2.5	/experiments/AOT/AOT_stimuli/rescaled_final/1569_rv.mp4	0.0	222.50472402572632	
30	157.38241696357727	movie	1		245	28.0	2.5	/experiments/AOT/AOT_stimuli/rescaled_final/1569_rv.mp4	0.0	222.51288104057312	2.5083260536193848
30	158.97367787361145	pulse	1	t		28.0	2.5	/experiments/AOT/AOT_stimuli/rescaled_final/1569_rv.mp4	0.0	224.1041419506073	
30	159.89074301719666	fix_post	2		12	28.0	2.5	/experiments/AOT/AOT_stimuli/rescaled_final/1569_rv.mp4	0.0	225.0212070941925	0.1000669002532959
31	159.99080991744995	fix_pre	0		120	29.0	2.5	/experiments/AOT/AOT_stimuli/rescaled_final/0951_rv.mp4	0.0	225.1212739944458	1.0000090599060059
31	160.57423281669617	pulse	0	t		29.0	2.5	/experiments/AOT/AOT_stimuli/rescaled_final/0951_rv.mp4	0.0	225.70469689369202	
31	160.99081897735596	movie	1		245	29.0	2.5	/experiments/AOT/AOT_stimuli/rescaled_final/0951_rv.mp4	0.0	226.1212830543518	2.4999139308929443
31	162.17436385154724	pulse	1	t		29.0	2.5	/experiments/AOT/AOT_stimuli/rescaled_final/0951_rv.mp4	0.0	227.3048279285431	
31	163.4907329082489	fix_post	2		12	29.0	2.5	/experiments/AOT/AOT_stimuli/rescaled_final/0951_rv.mp4	0.0	228.62119698524475	0.10002303123474121
32	163.59075593948364	fix_pre	0		120	30.0	2.5	/experiments/AOT/AOT_stimuli/rescaled_final/0213_fw.mp4	0.0	228.7212200164795	0.9999549388885498
32	163.77426886558533	pulse	0	t		30.0	2.5	/experiments/AOT/AOT_stimuli/rescaled_final/0213_fw.mp4	0.0	228.90473294258118	
32	164.5907108783722	movie	1		245	30.0	2.5	/experiments/AOT/AOT_stimuli/rescaled_final/0213_fw.mp4	0.0	229.72117495536804	2.5000839233398438
32	165.3742299079895	pulse	1	t		30.0	2.5	/experiments/AOT/AOT_stimuli/rescaled_final/0213_fw.mp4	0.0	230.50469398498535	
32	166.97379684448242	pulse	1	t		30.0	2.5	/experiments/AOT/AOT_stimuli/rescaled_final/0213_fw.mp4	0.0	232.10426092147827	
32	167.09079480171204	fix_post	2		12	30.0	2.5	/experiments/AOT/AOT_stimuli/rescaled_final/0213_fw.mp4	0.0	232.22125887870789	0.09987616539001465
33	167.19067096710205	fix_pre	0		120	31.0	2.5	/experiments/AOT/AOT_stimuli/rescaled_final/0612_fw.mp4	0.0	232.3211350440979	1.0000660419464111
33	168.19073700904846	movie	1		244	31.0	2.5	/experiments/AOT/AOT_stimuli/rescaled_final/0612_fw.mp4	0.0	233.3212010860443	2.500011920928955
33	168.57391095161438	pulse	1	t		31.0	2.5	/experiments/AOT/AOT_stimuli/rescaled_final/0612_fw.mp4	0.0	233.70437502861023	
33	170.1741828918457	pulse	1	t		31.0	2.5	/experiments/AOT/AOT_stimuli/rescaled_final/0612_fw.mp4	0.0	235.30464696884155	
33	170.69074892997742	fix_post	2		12	31.0	2.5	/experiments/AOT/AOT_stimuli/rescaled_final/0612_fw.mp4	0.0	235.82121300697327	0.09996294975280762
34	170.79071187973022	fix_pre	0		119	32.0	2.5	/experiments/AOT/AOT_stimuli/rescaled_final/0444_fw.mp4	0.0	235.92117595672607	0.9916260242462158
34	171.77413201332092	pulse	0	t		32.0	2.5	/experiments/AOT/AOT_stimuli/rescaled_final/0444_fw.mp4	0.0	236.90459609031677	
34	171.78233790397644	movie	1		247	32.0	2.5	/experiments/AOT/AOT_stimuli/rescaled_final/0444_fw.mp4	0.0	236.9128019809723	2.508323907852173
34	173.37378883361816	pulse	1	t		32.0	2.5	/experiments/AOT/AOT_stimuli/rescaled_final/0444_fw.mp4	0.0	238.504252910614	
34	174.2906618118286	fix_post	2		12	32.0	2.5	/experiments/AOT/AOT_stimuli/rescaled_final/0444_fw.mp4	0.0	239.42112588882446	0.10000801086425781
35	174.39066982269287	fix_pre	0		120	33.0	2.5	/experiments/AOT/AOT_stimuli/rescaled_final/0134_fw.mp4	0.0	239.52113389968872	0.9999470710754395
35	174.97409796714783	pulse	0	t		33.0	2.5	/experiments/AOT/AOT_stimuli/rescaled_final/0134_fw.mp4	0.0	240.10456204414368	
35	175.3906168937683	movie	1		244	33.0	2.5	/experiments/AOT/AOT_stimuli/rescaled_final/0134_fw.mp4	0.0	240.52108097076416	2.5000901222229004
35	176.5742528438568	pulse	1	t		33.0	2.5	/experiments/AOT/AOT_stimuli/rescaled_final/0134_fw.mp4	0.0	241.70471692085266	
35	177.8907070159912	fix_post	2		12	33.0	2.5	/experiments/AOT/AOT_stimuli/rescaled_final/0134_fw.mp4	0.0	243.02117109298706	0.09992194175720215
36	177.9906289577484	fix_pre	0		120	34.0	2.5	blank	1.0	243.12109303474426	1.0000698566436768
36	178.1741659641266	pulse	0	t		34.0	2.5	blank	1.0	243.30463004112244	
36	178.9906988143921	movie	1		300	34.0	2.5	blank	1.0	244.12116289138794	2.4999849796295166
36	179.77414178848267	pulse	1	t		34.0	2.5	blank	1.0	244.90460586547852	
36	181.37410879135132	pulse	1	t		34.0	2.5	blank	1.0	246.50457286834717	
36	181.4906837940216	fix_post	2		12	34.0	2.5	blank	1.0	246.62114787101746	0.09997916221618652
37	181.5906629562378	fix_pre	0		120	35.0	2.5	/experiments/AOT/AOT_stimuli/rescaled_final/1593_fw.mp4	0.0	246.72112703323364	1.000018835067749
37	182.59068179130554	movie	1		242	35.0	2.5	/experiments/AOT/AOT_stimuli/rescaled_final/1593_fw.mp4	0.0	247.7211458683014	2.4995880126953125
37	182.97375798225403	pulse	1	t		35.0	2.5	/experiments/AOT/AOT_stimuli/rescaled_final/1593_fw.mp4	0.0	248.10422205924988	
37	184.5742108821869	pulse	1	t		35.0	2.5	/experiments/AOT/AOT_stimuli/rescaled_final/1593_fw.mp4	0.0	249.70467495918274	
37	185.09026980400085	fix_post	2		12	35.0	2.5	/experiments/AOT/AOT_stimuli/rescaled_final/1593_fw.mp4	0.0	250.2207338809967	0.09992718696594238
38	185.1901969909668	fix_pre	0		119	36.0	2.5	/experiments/AOT/AOT_stimuli/rescaled_final/0423_rv.mp4	0.0	250.32066106796265	0.9917259216308594
38	186.1738679409027	pulse	0	t		36.0	2.5	/experiments/AOT/AOT_stimuli/rescaled_final/0423_rv.mp4	0.0	251.30433201789856	
38	186.18192291259766	movie	1		245	36.0	2.5	/experiments/AOT/AOT_stimuli/rescaled_final/0423_rv.mp4	0.0	251.3123869895935	2.508734941482544
38	187.77553796768188	pulse	1	t		36.0	2.5	/experiments/AOT/AOT_stimuli/rescaled_final/0423_rv.mp4	0.0	252.90600204467773	
38	188.6906578540802	fix_post	2		12	36.0	2.5	/experiments/AOT/AOT_stimuli/rescaled_final/0423_rv.mp4	0.0	253.82112193107605	0.09995603561401367
39	188.7906138896942	fix_pre	0		120	37.0	2.5	/experiments/AOT/AOT_stimuli/rescaled_final/1653_rv.mp4	0.0	253.92107796669006	1.000040054321289
39	189.3741958141327	pulse	0	t		37.0	2.5	/experiments/AOT/AOT_stimuli/rescaled_final/1653_rv.mp4	0.0	254.50465989112854	
39	189.7906539440155	movie	1		243	37.0	2.5	/experiments/AOT/AOT_stimuli/rescaled_final/1653_rv.mp4	0.0	254.92111802101135	2.4999608993530273
39	190.97413396835327	pulse	1	t		37.0	2.5	/experiments/AOT/AOT_stimuli/rescaled_final/1653_rv.mp4	0.0	256.1045980453491	
39	192.29061484336853	fix_post	2		12	37.0	2.5	/experiments/AOT/AOT_stimuli/rescaled_final/1653_rv.mp4	0.0	257.4210789203644	0.10003805160522461
40	192.39065289497375	fix_pre	0		120	38.0	2.5	/experiments/AOT/AOT_stimuli/rescaled_final/0423_fw.mp4	0.0	257.5211169719696	0.9999709129333496
40	192.57412481307983	pulse	0	t		38.0	2.5	/experiments/AOT/AOT_stimuli/rescaled_final/0423_fw.mp4	0.0	257.7045888900757	
40	193.3906238079071	movie	1		247	38.0	2.5	/experiments/AOT/AOT_stimuli/rescaled_final/0423_fw.mp4	0.0	258.52108788490295	2.499939203262329
40	194.17400598526	pulse	1	t		38.0	2.5	/experiments/AOT/AOT_stimuli/rescaled_final/0423_fw.mp4	0.0	259.30447006225586	
40	195.77007579803467	pulse	1	t		38.0	2.5	/experiments/AOT/AOT_stimuli/rescaled_final/0423_fw.mp4	0.0	260.9005398750305	
40	195.89056301116943	fix_post	2		12	38.0	2.5	/experiments/AOT/AOT_stimuli/rescaled_final/0423_fw.mp4	0.0	261.0210270881653	0.09998679161071777
41	195.99054980278015	fix_pre	0		120	39.0	2.5	/experiments/AOT/AOT_stimuli/rescaled_final/1990_fw.mp4	0.0	261.121013879776	1.0000331401824951
41	196.99058294296265	movie	1		246	39.0	2.5	/experiments/AOT/AOT_stimuli/rescaled_final/1990_fw.mp4	0.0	262.1210470199585	2.5000479221343994
41	197.37402296066284	pulse	1	t		39.0	2.5	/experiments/AOT/AOT_stimuli/rescaled_final/1990_fw.mp4	0.0	262.5044870376587	
41	198.9740707874298	pulse	1	t		39.0	2.5	/experiments/AOT/AOT_stimuli/rescaled_final/1990_fw.mp4	0.0	264.10453486442566	
41	199.49063086509705	fix_post	2		12	39.0	2.5	/experiments/AOT/AOT_stimuli/rescaled_final/1990_fw.mp4	0.0	264.6210949420929	0.09997296333312988
42	199.59060382843018	fix_pre	0		119	40.0	2.5	blank	1.0	264.721067905426	0.9916410446166992
42	200.57402801513672	pulse	0	t		40.0	2.5	blank	1.0	265.70449209213257	
42	200.58224487304688	movie	1		301	40.0	2.5	blank	1.0	265.7127089500427	2.5083401203155518
42	202.17405486106873	pulse	1	t		40.0	2.5	blank	1.0	267.3045189380646	
42	203.09058499336243	fix_post	2		12	40.0	2.5	blank	1.0	268.2210490703583	0.10001087188720703
43	203.19059586524963	fix_pre	0		120	41.0	2.5	/experiments/AOT/AOT_stimuli/rescaled_final/2117_rv.mp4	0.0	268.3210599422455	0.9996330738067627
43	203.77407383918762	pulse	0	t		41.0	2.5	/experiments/AOT/AOT_stimuli/rescaled_final/2117_rv.mp4	0.0	268.9045379161835	
43	204.1902289390564	movie	1		246	41.0	2.5	/experiments/AOT/AOT_stimuli/rescaled_final/2117_rv.mp4	0.0	269.32069301605225	2.499969005584717
43	205.37408900260925	pulse	1	t		41.0	2.5	/experiments/AOT/AOT_stimuli/rescaled_final/2117_rv.mp4	0.0	270.5045530796051	
43	206.6901979446411	fix_post	2		12	41.0	2.5	/experiments/AOT/AOT_stimuli/rescaled_final/2117_rv.mp4	0.0	271.82066202163696	0.10027384757995605
44	206.79047179222107	fix_pre	0		120	42.0	2.5	/experiments/AOT/AOT_stimuli/rescaled_final/0091_fw.mp4	0.0	271.9209358692169	1.0000941753387451
44	206.97405695915222	pulse	0	t		42.0	2.5	/experiments/AOT/AOT_stimuli/rescaled_final/0091_fw.mp4	0.0	272.10452103614807	
44	207.79056596755981	movie	1		247	42.0	2.5	/experiments/AOT/AOT_stimuli/rescaled_final/0091_fw.mp4	0.0	272.92103004455566	2.499987840652466
44	208.57403302192688	pulse	1	t		42.0	2.5	/experiments/AOT/AOT_stimuli/rescaled_final/0091_fw.mp4	0.0	273.70449709892273	
44	210.1740288734436	pulse	1	t		42.0	2.5	/experiments/AOT/AOT_stimuli/rescaled_final/0091_fw.mp4	0.0	275.30449295043945	
44	210.29055380821228	fix_post	2		12	42.0	2.5	/experiments/AOT/AOT_stimuli/rescaled_final/0091_fw.mp4	0.0	275.42101788520813	0.10007810592651367
45	210.3906319141388	fix_pre	0		120	43.0	2.5	/experiments/AOT/AOT_stimuli/rescaled_final/0599_rv.mp4	0.0	275.52109599113464	0.9999310970306396
45	211.39056301116943	movie	1		243	43.0	2.5	/experiments/AOT/AOT_stimuli/rescaled_final/0599_rv.mp4	0.0	276.5210270881653	2.499917984008789
45	211.77400398254395	pulse	1	t		43.0	2.5	/experiments/AOT/AOT_stimuli/rescaled_final/0599_rv.mp4	0.0	276.9044680595398	
45	213.37403893470764	pulse	1	t		43.0	2.5	/experiments/AOT/AOT_stimuli/rescaled_final/0599_rv.mp4	0.0	278.5045030117035	
45	213.89048099517822	fix_post	2		12	43.0	2.5	/experiments/AOT/AOT_stimuli/rescaled_final/0599_rv.mp4	0.0	279.0209450721741	0.09998083114624023
46	213.99046182632446	fix_pre	0		119	44.0	2.5	/experiments/AOT/AOT_stimuli/rescaled_final/0181_fw.mp4	0.0	279.1209259033203	0.9916989803314209
46	214.97421884536743	pulse	0	t		44.0	2.5	/experiments/AOT/AOT_stimuli/rescaled_final/0181_fw.mp4	0.0	280.1046829223633	
46	214.98216080665588	movie	1		249	44.0	2.5	/experiments/AOT/AOT_stimuli/rescaled_final/0181_fw.mp4	0.0	280.11262488365173	2.5082850456237793
46	216.57347083091736	pulse	1	t		44.0	2.5	/experiments/AOT/AOT_stimuli/rescaled_final/0181_fw.mp4	0.0	281.7039349079132	
46	217.49044585227966	fix_post	2		12	44.0	2.5	/experiments/AOT/AOT_stimuli/rescaled_final/0181_fw.mp4	0.0	282.6209099292755	0.10013198852539062
47	217.59057784080505	fix_pre	0		120	45.0	2.5	/experiments/AOT/AOT_stimuli/rescaled_final/1139_rv.mp4	0.0	282.7210419178009	0.9998610019683838
47	218.17397379875183	pulse	0	t		45.0	2.5	/experiments/AOT/AOT_stimuli/rescaled_final/1139_rv.mp4	0.0	283.3044378757477	
47	218.59043884277344	movie	1		247	45.0	2.5	/experiments/AOT/AOT_stimuli/rescaled_final/1139_rv.mp4	0.0	283.7209029197693	2.5000879764556885
47	219.77406692504883	pulse	1	t		45.0	2.5	/experiments/AOT/AOT_stimuli/rescaled_final/1139_rv.mp4	0.0	284.9045310020447	
47	221.09052681922913	fix_post	2		12	45.0	2.5	/experiments/AOT/AOT_stimuli/rescaled_final/1139_rv.mp4	0.0	286.220990896225	0.09991812705993652
48	221.19044494628906	fix_pre	0		120	46.0	2.5	/experiments/AOT/AOT_stimuli/rescaled_final/1274_rv.mp4	0.0	286.3209090232849	1.0002000331878662
48	221.37393879890442	pulse	0	t		46.0	2.5	/experiments/AOT/AOT_stimuli/rescaled_final/1274_rv.mp4	0.0	286.50440287590027	
48	222.19064497947693	movie	1		246	46.0	2.5	/experiments/AOT/AOT_stimuli/rescaled_final/1274_rv.mp4	0.0	287.3211090564728	2.4999029636383057
48	222.97394394874573	pulse	1	t		46.0	2.5	/experiments/AOT/AOT_stimuli/rescaled_final/1274_rv.mp4	0.0	288.1044080257416	
48	224.57266688346863	pulse	1	t		46.0	2.5	/experiments/AOT/AOT_stimuli/rescaled_final/1274_rv.mp4	0.0	289.7031309604645	
48	224.69054794311523	fix_post	2		12	46.0	2.5	/experiments/AOT/AOT_stimuli/rescaled_final/1274_rv.mp4	0.0	289.8210120201111	0.09993791580200195
49	224.79048585891724	fix_pre	0		120	47.0	2.5	/experiments/AOT/AOT_stimuli/rescaled_final/0017_fw.mp4	0.0	289.9209499359131	0.9999849796295166
49	225.79047083854675	movie	1		246	47.0	2.5	/experiments/AOT/AOT_stimuli/rescaled_final/0017_fw.mp4	0.0	290.9209349155426	2.4995710849761963
49	226.17390489578247	pulse	1	t		47.0	2.5	/experiments/AOT/AOT_stimuli/rescaled_final/0017_fw.mp4	0.0	291.3043689727783	
49	227.77404379844666	pulse	1	t		47.0	2.5	/experiments/AOT/AOT_stimuli/rescaled_final/0017_fw.mp4	0.0	292.9045078754425	
49	228.29004192352295	fix_post	2		12	47.0	2.5	/experiments/AOT/AOT_stimuli/rescaled_final/0017_fw.mp4	0.0	293.4205060005188	0.10046195983886719
50	228.39050388336182	fix_pre	0		119	48.0	2.5	blank	1.0	293.52096796035767	0.9916560649871826
50	229.37388801574707	pulse	0	t		48.0	2.5	blank	1.0	294.5043520927429	
50	229.382159948349	movie	1		301	48.0	2.5	blank	1.0	294.51262402534485	2.5083320140838623
50	230.9739580154419	pulse	1	t		48.0	2.5	blank	1.0	296.10442209243774	
50	231.89049196243286	fix_post	2		12	48.0	2.5	blank	1.0	297.0209560394287	0.1000218391418457
51	231.9905138015747	fix_pre	0		120	49.0	2.5	/experiments/AOT/AOT_stimuli/rescaled_final/1886_rv.mp4	0.0	297.12097787857056	0.9999639987945557
51	232.5739347934723	pulse	0	t		49.0	2.5	/experiments/AOT/AOT_stimuli/rescaled_final/1886_rv.mp4	0.0	297.70439887046814	
51	232.99047780036926	movie	1		243	49.0	2.5	/experiments/AOT/AOT_stimuli/rescaled_final/1886_rv.mp4	0.0	298.1209418773651	2.5
51	234.17393684387207	pulse	1	t		49.0	2.5	/experiments/AOT/AOT_stimuli/rescaled_final/1886_rv.mp4	0.0	299.3044009208679	
51	235.49047780036926	fix_post	2		12	49.0	2.5	/experiments/AOT/AOT_stimuli/rescaled_final/1886_rv.mp4	0.0	300.6209418773651	0.09994816780090332
52	235.59042596817017	fix_pre	0		120	50.0	2.5	/experiments/AOT/AOT_stimuli/rescaled_final/0934_fw.mp4	0.0	300.720890045166	0.9999480247497559
52	235.77395701408386	pulse	0	t		50.0	2.5	/experiments/AOT/AOT_stimuli/rescaled_final/0934_fw.mp4	0.0	300.9044210910797	
52	236.59037399291992	movie	1		243	50.0	2.5	/experiments/AOT/AOT_stimuli/rescaled_final/0934_fw.mp4	0.0	301.72083806991577	2.500032901763916
52	237.37398600578308	pulse	1	t		50.0	2.5	/experiments/AOT/AOT_stimuli/rescaled_final/0934_fw.mp4	0.0	302.50445008277893	
52	238.97222185134888	pulse	1	t		50.0	2.5	/experiments/AOT/AOT_stimuli/rescaled_final/0934_fw.mp4	0.0	304.1026859283447	
52	239.09040689468384	fix_post	2		12	50.0	2.5	/experiments/AOT/AOT_stimuli/rescaled_final/0934_fw.mp4	0.0	304.2208709716797	0.09999394416809082
53	239.19040083885193	fix_pre	0		120	51.0	2.5	/experiments/AOT/AOT_stimuli/rescaled_final/1542_fw.mp4	0.0	304.3208649158478	1.0001161098480225
53	240.19051694869995	movie	1		247	51.0	2.5	/experiments/AOT/AOT_stimuli/rescaled_final/1542_fw.mp4	0.0	305.3209810256958	2.4995670318603516
53	240.57527089118958	pulse	1	t		51.0	2.5	/experiments/AOT/AOT_stimuli/rescaled_final/1542_fw.mp4	0.0	305.7057349681854	
53	242.17340087890625	pulse	1	t		51.0	2.5	/experiments/AOT/AOT_stimuli/rescaled_final/1542_fw.mp4	0.0	307.3038649559021	
53	242.6900839805603	fix_post	2		12	51.0	2.5	/experiments/AOT/AOT_stimuli/rescaled_final/1542_fw.mp4	0.0	307.82054805755615	0.10005998611450195
54	242.7901439666748	fix_pre	0		119	52.0	2.5	/experiments/AOT/AOT_stimuli/rescaled_final/0385_fw.mp4	0.0	307.92060804367065	0.9917900562286377
54	243.77373695373535	pulse	0	t		52.0	2.5	/experiments/AOT/AOT_stimuli/rescaled_final/0385_fw.mp4	0.0	308.9042010307312	
54	243.78193402290344	movie	1		247	52.0	2.5	/experiments/AOT/AOT_stimuli/rescaled_final/0385_fw.mp4	0.0	308.9123980998993	2.508466958999634
54	245.37341380119324	pulse	1	t		52.0	2.5	/experiments/AOT/AOT_stimuli/rescaled_final/0385_fw.mp4	0.0	310.5038778781891	
54	246.29040098190308	fix_post	2		12	52.0	2.5	/experiments/AOT/AOT_stimuli/rescaled_final/0385_fw.mp4	0.0	311.4208650588989	0.09997391700744629
55	246.39037489891052	fix_pre	0		120	53.0	2.5	/experiments/AOT/AOT_stimuli/rescaled_final/1181_fw.mp4	0.0	311.5208389759064	1.0000269412994385
55	246.97385597229004	pulse	0	t		53.0	2.5	/experiments/AOT/AOT_stimuli/rescaled_final/1181_fw.mp4	0.0	312.1043200492859	
55	247.39040184020996	movie	1		246	53.0	2.5	/experiments/AOT/AOT_stimuli/rescaled_final/1181_fw.mp4	0.0	312.5208659172058	2.4999260902404785
55	248.5738639831543	pulse	1	t		53.0	2.5	/experiments/AOT/AOT_stimuli/rescaled_final/1181_fw.mp4	0.0	313.70432806015015	
55	249.89032793045044	fix_post	2		12	53.0	2.5	/experiments/AOT/AOT_stimuli/rescaled_final/1181_fw.mp4	0.0	315.0207920074463	0.10002589225769043
56	249.99035382270813	fix_pre	0		120	54.0	2.5	/experiments/AOT/AOT_stimuli/rescaled_final/0542_rv.mp4	0.0	315.120817899704	0.9999821186065674
56	250.1738109588623	pulse	0	t		54.0	2.5	/experiments/AOT/AOT_stimuli/rescaled_final/0542_rv.mp4	0.0	315.30427503585815	
56	250.9903359413147	movie	1		248	54.0	2.5	/experiments/AOT/AOT_stimuli/rescaled_final/0542_rv.mp4	0.0	316.12080001831055	2.499958038330078
56	251.77377700805664	pulse	1	t		54.0	2.5	/experiments/AOT/AOT_stimuli/rescaled_final/0542_rv.mp4	0.0	316.9042410850525	
56	253.37382698059082	pulse	1	t		54.0	2.5	/experiments/AOT/AOT_stimuli/rescaled_final/0542_rv.mp4	0.0	318.50429105758667	
56	253.49029397964478	fix_post	2		12	54.0	2.5	/experiments/AOT/AOT_stimuli/rescaled_final/0542_rv.mp4	0.0	318.6207580566406	0.10000491142272949
57	253.5902988910675	fix_pre	0		120	55.0	2.5	blank	1.0	318.72076296806335	1.0000090599060059
57	254.5903079509735	movie	1		300	55.0	2.5	blank	1.0	319.72077202796936	2.499992847442627
57	254.97385096549988	pulse	1	t		55.0	2.5	blank	1.0	320.1043150424957	
57	256.5737450122833	pulse	1	t		55.0	2.5	blank	1.0	321.7042090892792	
57	257.09030079841614	fix_post	2		12	55.0	2.5	blank	1.0	322.220764875412	0.10001206398010254
58	257.19031286239624	fix_pre	0		119	56.0	2.5	/experiments/AOT/AOT_stimuli/rescaled_final/2176_fw.mp4	0.0	322.3207769393921	0.9915940761566162
58	258.17381596565247	pulse	0	t		56.0	2.5	/experiments/AOT/AOT_stimuli/rescaled_final/2176_fw.mp4	0.0	323.3042800426483	
58	258.18190693855286	movie	1		248	56.0	2.5	/experiments/AOT/AOT_stimuli/rescaled_final/2176_fw.mp4	0.0	323.3123710155487	2.5079410076141357
58	259.7737557888031	pulse	1	t		56.0	2.5	/experiments/AOT/AOT_stimuli/rescaled_final/2176_fw.mp4	0.0	324.90421986579895	
58	260.689847946167	fix_post	2		12	56.0	2.5	/experiments/AOT/AOT_stimuli/rescaled_final/2176_fw.mp4	0.0	325.82031202316284	0.10042285919189453
59	260.7902708053589	fix_pre	0		120	57.0	2.5	/experiments/AOT/AOT_stimuli/rescaled_final/1204_fw.mp4	0.0	325.92073488235474	0.9995920658111572
59	261.37381386756897	pulse	0	t		57.0	2.5	/experiments/AOT/AOT_stimuli/rescaled_final/1204_fw.mp4	0.0	326.5042779445648	
59	261.78986287117004	movie	1		244	57.0	2.5	/experiments/AOT/AOT_stimuli/rescaled_final/1204_fw.mp4	0.0	326.9203269481659	2.4999420642852783
59	262.97381687164307	pulse	1	t		57.0	2.5	/experiments/AOT/AOT_stimuli/rescaled_final/1204_fw.mp4	0.0	328.1042809486389	
59	264.2898049354553	fix_post	2		12	57.0	2.5	/experiments/AOT/AOT_stimuli/rescaled_final/1204_fw.mp4	0.0	329.4202690124512	0.10006904602050781
60	264.38987398147583	fix_pre	0		120	58.0	2.5	/experiments/AOT/AOT_stimuli/rescaled_final/1542_rv.mp4	0.0	329.5203380584717	1.000432014465332
60	264.57367491722107	pulse	0	t		58.0	2.5	/experiments/AOT/AOT_stimuli/rescaled_final/1542_rv.mp4	0.0	329.7041389942169	
60	265.39030599594116	movie	1		247	58.0	2.5	/experiments/AOT/AOT_stimuli/rescaled_final/1542_rv.mp4	0.0	330.520770072937	2.499884843826294
60	266.17372584342957	pulse	1	t		58.0	2.5	/experiments/AOT/AOT_stimuli/rescaled_final/1542_rv.mp4	0.0	331.3041899204254	
60	267.76985788345337	pulse	1	t		58.0	2.5	/experiments/AOT/AOT_stimuli/rescaled_final/1542_rv.mp4	0.0	332.9003219604492	
60	267.89019083976746	fix_post	2		12	58.0	2.5	/experiments/AOT/AOT_stimuli/rescaled_final/1542_rv.mp4	0.0	333.0206549167633	0.0999600887298584
61	267.9901509284973	fix_pre	0		120	59.0	2.5	/experiments/AOT/AOT_stimuli/rescaled_final/1053_fw.mp4	0.0	333.12061500549316	1.000143051147461
61	268.9902939796448	movie	1		243	59.0	2.5	/experiments/AOT/AOT_stimuli/rescaled_final/1053_fw.mp4	0.0	334.1207580566406	2.4999749660491943
61	269.3748698234558	pulse	1	t		59.0	2.5	/experiments/AOT/AOT_stimuli/rescaled_final/1053_fw.mp4	0.0	334.50533390045166	
61	270.973788022995	pulse	1	t		59.0	2.5	/experiments/AOT/AOT_stimuli/rescaled_final/1053_fw.mp4	0.0	336.10425209999084	
61	271.49026894569397	fix_post	2		12	59.0	2.5	/experiments/AOT/AOT_stimuli/rescaled_final/1053_fw.mp4	0.0	336.6207330226898	0.09998202323913574
62	271.5902509689331	fix_pre	0		119	60.0	2.5	/experiments/AOT/AOT_stimuli/rescaled_final/0304_rv.mp4	0.0	336.72071504592896	0.9916539192199707
62	272.5736379623413	pulse	0	t		60.0	2.5	/experiments/AOT/AOT_stimuli/rescaled_final/0304_rv.mp4	0.0	337.70410203933716	
62	272.5819048881531	movie	1		244	60.0	2.5	/experiments/AOT/AOT_stimuli/rescaled_final/0304_rv.mp4	0.0	337.7123689651489	2.5083510875701904
62	274.1733798980713	pulse	1	t		60.0	2.5	/experiments/AOT/AOT_stimuli/rescaled_final/0304_rv.mp4	0.0	339.30384397506714	
62	275.09025597572327	fix_post	2		12	60.0	2.5	/experiments/AOT/AOT_stimuli/rescaled_final/0304_rv.mp4	0.0	340.2207200527191	0.09995388984680176
63	275.19020986557007	fix_pre	0		120	61.0	2.5	blank	1.0	340.3206739425659	1.0000460147857666
63	275.7737069129944	pulse	0	t		61.0	2.5	blank	1.0	340.90417098999023	
63	276.19025588035583	movie	1		300	61.0	2.5	blank	1.0	341.3207199573517	2.4999101161956787
63	277.37372279167175	pulse	1	t		61.0	2.5	blank	1.0	342.5041868686676	
63	278.6901659965515	fix_post	2		12	61.0	2.5	blank	1.0	343.82063007354736	0.10004687309265137
64	278.79021286964417	fix_pre	0		120	62.0	2.5	/experiments/AOT/AOT_stimuli/rescaled_final/1733_fw.mp4	0.0	343.92067694664	0.9999380111694336
64	278.9737319946289	pulse	0	t		62.0	2.5	/experiments/AOT/AOT_stimuli/rescaled_final/1733_fw.mp4	0.0	344.10419607162476	
64	279.7901508808136	movie	1		244	62.0	2.5	/experiments/AOT/AOT_stimuli/rescaled_final/1733_fw.mp4	0.0	344.92061495780945	2.499650001525879
64	280.57368898391724	pulse	1	t		62.0	2.5	/experiments/AOT/AOT_stimuli/rescaled_final/1733_fw.mp4	0.0	345.7041530609131	
64	282.17207193374634	pulse	1	t		62.0	2.5	/experiments/AOT/AOT_stimuli/rescaled_final/1733_fw.mp4	0.0	347.3025360107422	
64	282.2898008823395	fix_post	2		12	62.0	2.5	/experiments/AOT/AOT_stimuli/rescaled_final/1733_fw.mp4	0.0	347.4202649593353	0.10039997100830078
65	282.3902008533478	fix_pre	0		120	63.0	2.5	/experiments/AOT/AOT_stimuli/rescaled_final/0872_rv.mp4	0.0	347.5206649303436	0.9999539852142334
65	283.390154838562	movie	1		247	63.0	2.5	/experiments/AOT/AOT_stimuli/rescaled_final/0872_rv.mp4	0.0	348.52061891555786	2.5000250339508057
65	283.77371978759766	pulse	1	t		63.0	2.5	/experiments/AOT/AOT_stimuli/rescaled_final/0872_rv.mp4	0.0	348.9041838645935	
65	285.373685836792	pulse	1	t		63.0	2.5	/experiments/AOT/AOT_stimuli/rescaled_final/0872_rv.mp4	0.0	350.50414991378784	
65	285.8901798725128	fix_post	2		12	63.0	2.5	/experiments/AOT/AOT_stimuli/rescaled_final/0872_rv.mp4	0.0	351.02064394950867	0.09997105598449707
66	285.9901509284973	fix_pre	0		119	64.0	2.5	/experiments/AOT/AOT_stimuli/rescaled_final/0565_fw.mp4	0.0	351.12061500549316	0.9917259216308594
66	286.9739558696747	pulse	0	t		64.0	2.5	/experiments/AOT/AOT_stimuli/rescaled_final/0565_fw.mp4	0.0	352.10441994667053	
66	286.9818768501282	movie	1		244	64.0	2.5	/experiments/AOT/AOT_stimuli/rescaled_final/0565_fw.mp4	0.0	352.112340927124	2.507920026779175
66	288.57499599456787	pulse	1	t		64.0	2.5	/experiments/AOT/AOT_stimuli/rescaled_final/0565_fw.mp4	0.0	353.7054600715637	
66	289.48979687690735	fix_post	2		12	64.0	2.5	/experiments/AOT/AOT_stimuli/rescaled_final/0565_fw.mp4	0.0	354.6202609539032	0.10031509399414062
67	289.5901119709015	fix_pre	0		120	65.0	2.5	/experiments/AOT/AOT_stimuli/rescaled_final/0158_fw.mp4	0.0	354.72057604789734	0.9999418258666992
67	290.1735928058624	pulse	0	t		65.0	2.5	/experiments/AOT/AOT_stimuli/rescaled_final/0158_fw.mp4	0.0	355.3040568828583	
67	290.5900537967682	movie	1		243	65.0	2.5	/experiments/AOT/AOT_stimuli/rescaled_final/0158_fw.mp4	0.0	355.72051787376404	2.5001699924468994
67	291.77371978759766	pulse	1	t		65.0	2.5	/experiments/AOT/AOT_stimuli/rescaled_final/0158_fw.mp4	0.0	356.9041838645935	
67	293.0902237892151	fix_post	2		12	65.0	2.5	/experiments/AOT/AOT_stimuli/rescaled_final/0158_fw.mp4	0.0	358.22068786621094	0.09991312026977539
68	293.19013690948486	fix_pre	0		120	66.0	2.5	/experiments/AOT/AOT_stimuli/rescaled_final/1336_fw.mp4	0.0	358.3206009864807	1.000020980834961
68	293.3735740184784	pulse	0	t		66.0	2.5	/experiments/AOT/AOT_stimuli/rescaled_final/1336_fw.mp4	0.0	358.50403809547424	
68	294.1901578903198	movie	1		245	66.0	2.5	/experiments/AOT/AOT_stimuli/rescaled_final/1336_fw.mp4	0.0	359.3206219673157	2.499980926513672
68	294.97364687919617	pulse	1	t		66.0	2.5	/experiments/AOT/AOT_stimuli/rescaled_final/1336_fw.mp4	0.0	360.104110956192	
68	296.5723078250885	pulse	1	t		66.0	2.5	/experiments/AOT/AOT_stimuli/rescaled_final/1336_fw.mp4	0.0	361.70277190208435	
68	296.6901388168335	fix_post	2		12	66.0	2.5	/experiments/AOT/AOT_stimuli/rescaled_final/1336_fw.mp4	0.0	361.82060289382935	0.0995781421661377
69	296.78971695899963	fix_pre	0		120	67.0	2.5	/experiments/AOT/AOT_stimuli/rescaled_final/2178_rv.mp4	0.0	361.9201810359955	1.0004160404205322
69	297.79013299942017	movie	1		245	67.0	2.5	/experiments/AOT/AOT_stimuli/rescaled_final/2178_rv.mp4	0.0	362.920597076416	2.499936819076538
69	298.17274284362793	pulse	1	t		67.0	2.5	/experiments/AOT/AOT_stimuli/rescaled_final/2178_rv.mp4	0.0	363.3032069206238	
69	299.773384809494	pulse	1	t		67.0	2.5	/experiments/AOT/AOT_stimuli/rescaled_final/2178_rv.mp4	0.0	364.90384888648987	
69	300.2900698184967	fix_post	2		12	67.0	2.5	/experiments/AOT/AOT_stimuli/rescaled_final/2178_rv.mp4	0.0	365.42053389549255	0.09993410110473633
70	300.39000391960144	fix_pre	0		119	68.0	2.5	/experiments/AOT/AOT_stimuli/rescaled_final/2024_fw.mp4	0.0	365.5204679965973	0.9918129444122314
70	301.3736410140991	pulse	0	t		68.0	2.5	/experiments/AOT/AOT_stimuli/rescaled_final/2024_fw.mp4	0.0	366.50410509109497	
70	301.3818168640137	movie	1		246	68.0	2.5	/experiments/AOT/AOT_stimuli/rescaled_final/2024_fw.mp4	0.0	366.5122809410095	2.508249044418335
70	302.9731328487396	pulse	1	t		68.0	2.5	/experiments/AOT/AOT_stimuli/rescaled_final/2024_fw.mp4	0.0	368.1035969257355	
70	303.890065908432	fix_post	2		12	68.0	2.5	/experiments/AOT/AOT_stimuli/rescaled_final/2024_fw.mp4	0.0	369.02052998542786	0.09964108467102051
71	303.989706993103	fix_pre	0		120	69.0	2.5	blank	1.0	369.1201710700989	0.9999768733978271
71	304.5735318660736	pulse	0	t		69.0	2.5	blank	1.0	369.70399594306946	
71	304.98968386650085	movie	1		300	69.0	2.5	blank	1.0	370.1201479434967	2.5002830028533936
71	306.17346692085266	pulse	1	t		69.0	2.5	blank	1.0	371.3039309978485	
71	307.48996686935425	fix_post	2		12	69.0	2.5	blank	1.0	372.6204309463501	0.10008502006530762
72	307.59005188941956	fix_pre	0		120	70.0	2.5	/experiments/AOT/AOT_stimuli/rescaled_final/0115_fw.mp4	0.0	372.7205159664154	1.0000200271606445
72	307.7735447883606	pulse	0	t		70.0	2.5	/experiments/AOT/AOT_stimuli/rescaled_final/0115_fw.mp4	0.0	372.90400886535645	
72	308.5900719165802	movie	1		248	70.0	2.5	/experiments/AOT/AOT_stimuli/rescaled_final/0115_fw.mp4	0.0	373.72053599357605	2.5000240802764893
72	309.3734679222107	pulse	1	t		70.0	2.5	/experiments/AOT/AOT_stimuli/rescaled_final/0115_fw.mp4	0.0	374.50393199920654	
72	310.969575881958	pulse	1	t		70.0	2.5	/experiments/AOT/AOT_stimuli/rescaled_final/0115_fw.mp4	0.0	376.10003995895386	
72	311.0900959968567	fix_post	2		12	70.0	2.5	/experiments/AOT/AOT_stimuli/rescaled_final/0115_fw.mp4	0.0	376.22056007385254	0.09992599487304688
73	311.19002199172974	fix_pre	0		120	71.0	2.5	/experiments/AOT/AOT_stimuli/rescaled_final/1656_rv.mp4	0.0	376.3204860687256	1.0000598430633545
73	312.1900818347931	movie	1		244	71.0	2.5	/experiments/AOT/AOT_stimuli/rescaled_final/1656_rv.mp4	0.0	377.32054591178894	2.499958038330078
73	312.5738089084625	pulse	1	t		71.0	2.5	/experiments/AOT/AOT_stimuli/rescaled_final/1656_rv.mp4	0.0	377.7042729854584	
73	314.17339396476746	pulse	1	t		71.0	2.5	/experiments/AOT/AOT_stimuli/rescaled_final/1656_rv.mp4	0.0	379.3038580417633	
73	314.69003987312317	fix_post	2		12	71.0	2.5	/experiments/AOT/AOT_stimuli/rescaled_final/1656_rv.mp4	0.0	379.820503950119	0.10003900527954102
74	314.7900788784027	fix_pre	0		119	72.0	2.5	/experiments/AOT/AOT_stimuli/rescaled_final/0531_rv.mp4	0.0	379.92054295539856	0.9916069507598877
74	315.7735028266907	pulse	0	t		72.0	2.5	/experiments/AOT/AOT_stimuli/rescaled_final/0531_rv.mp4	0.0	380.9039669036865	
74	315.7816858291626	movie	1		246	72.0	2.5	/experiments/AOT/AOT_stimuli/rescaled_final/0531_rv.mp4	0.0	380.91214990615845	2.5083060264587402
74	317.37302589416504	pulse	1	t		72.0	2.5	/experiments/AOT/AOT_stimuli/rescaled_final/0531_rv.mp4	0.0	382.5034899711609	
74	318.28999185562134	fix_post	2		12	72.0	2.5	/experiments/AOT/AOT_stimuli/rescaled_final/0531_rv.mp4	0.0	383.4204559326172	0.09997797012329102
75	318.38996982574463	fix_pre	0		120	73.0	2.5	/experiments/AOT/AOT_stimuli/rescaled_final/0562_fw.mp4	0.0	383.5204339027405	0.9999711513519287
75	318.9735188484192	pulse	0	t		73.0	2.5	/experiments/AOT/AOT_stimuli/rescaled_final/0562_fw.mp4	0.0	384.10398292541504	
75	319.38994097709656	movie	1		242	73.0	2.5	/experiments/AOT/AOT_stimuli/rescaled_final/0562_fw.mp4	0.0	384.5204050540924	2.499591827392578
75	320.57352590560913	pulse	1	t		73.0	2.5	/experiments/AOT/AOT_stimuli/rescaled_final/0562_fw.mp4	0.0	385.703989982605	
75	321.88953280448914	fix_post	2		12	73.0	2.5	/experiments/AOT/AOT_stimuli/rescaled_final/0562_fw.mp4	0.0	387.019996881485	0.10051107406616211
76	321.9900438785553	fix_pre	0		120	74.0	2.5	/experiments/AOT/AOT_stimuli/rescaled_final/0404_rv.mp4	0.0	387.12050795555115	0.9998879432678223
76	322.1734809875488	pulse	0	t		74.0	2.5	/experiments/AOT/AOT_stimuli/rescaled_final/0404_rv.mp4	0.0	387.3039450645447	
76	322.9899318218231	movie	1		243	74.0	2.5	/experiments/AOT/AOT_stimuli/rescaled_final/0404_rv.mp4	0.0	388.12039589881897	2.5000641345977783
76	323.7734558582306	pulse	1	t		74.0	2.5	/experiments/AOT/AOT_stimuli/rescaled_final/0404_rv.mp4	0.0	388.90391993522644	
76	325.3720688819885	pulse	1	t		74.0	2.5	/experiments/AOT/AOT_stimuli/rescaled_final/0404_rv.mp4	0.0	390.5025329589844	
76	325.4899959564209	fix_post	2		12	74.0	2.5	/experiments/AOT/AOT_stimuli/rescaled_final/0404_rv.mp4	0.0	390.62046003341675	0.0999898910522461
77	325.58998584747314	fix_pre	0		120	75.0	2.5	/experiments/AOT/AOT_stimuli/rescaled_final/2006_rv.mp4	0.0	390.720449924469	1.0000550746917725
77	326.5900409221649	movie	1		243	75.0	2.5	/experiments/AOT/AOT_stimuli/rescaled_final/2006_rv.mp4	0.0	391.72050499916077	2.4999120235443115
77	326.97342801094055	pulse	1	t		75.0	2.5	/experiments/AOT/AOT_stimuli/rescaled_final/2006_rv.mp4	0.0	392.1038920879364	
77	328.57341289520264	pulse	1	t		75.0	2.5	/experiments/AOT/AOT_stimuli/rescaled_final/2006_rv.mp4	0.0	393.7038769721985	
77	329.08995294570923	fix_post	2		12	75.0	2.5	/experiments/AOT/AOT_stimuli/rescaled_final/2006_rv.mp4	0.0	394.2204170227051	0.09962105751037598
78	329.1895740032196	fix_pre	0		119	76.0	2.5	/experiments/AOT/AOT_stimuli/rescaled_final/0542_fw.mp4	0.0	394.32003808021545	0.9921019077301025
78	330.1734368801117	pulse	0	t		76.0	2.5	/experiments/AOT/AOT_stimuli/rescaled_final/0542_fw.mp4	0.0	395.30390095710754	
78	330.1816759109497	movie	1		250	76.0	2.5	/experiments/AOT/AOT_stimuli/rescaled_final/0542_fw.mp4	0.0	395.31213998794556	2.5082991123199463
78	331.77457880973816	pulse	1	t		76.0	2.5	/experiments/AOT/AOT_stimuli/rescaled_final/0542_fw.mp4	0.0	396.905042886734	
78	332.68997502326965	fix_post	2		12	76.0	2.5	/experiments/AOT/AOT_stimuli/rescaled_final/0542_fw.mp4	0.0	397.8204391002655	0.0999748706817627
79	332.7899498939514	fix_pre	0		120	77.0	2.5	blank	1.0	397.92041397094727	1.0000650882720947
79	333.373459815979	pulse	0	t		77.0	2.5	blank	1.0	398.50392389297485	
79	333.7900149822235	movie	1		300	77.0	2.5	blank	1.0	398.92047905921936	2.499992847442627
79	334.97353291511536	pulse	1	t		77.0	2.5	blank	1.0	400.1039969921112	
79	336.29000782966614	fix_post	2		12	77.0	2.5	blank	1.0	401.420471906662	0.10000109672546387
80	336.3900089263916	fix_pre	0		120	78.0	2.5	/experiments/AOT/AOT_stimuli/rescaled_final/1107_rv.mp4	0.0	401.52047300338745	0.9999949932098389
80	336.57340693473816	pulse	0	t		78.0	2.5	/experiments/AOT/AOT_stimuli/rescaled_final/1107_rv.mp4	0.0	401.703871011734	
80	337.39000391960144	movie	1		243	78.0	2.5	/experiments/AOT/AOT_stimuli/rescaled_final/1107_rv.mp4	0.0	402.5204679965973	2.499990940093994
80	338.1734240055084	pulse	1	t		78.0	2.5	/experiments/AOT/AOT_stimuli/rescaled_final/1107_rv.mp4	0.0	403.3038880825043	
80	339.7717080116272	pulse	1	t		78.0	2.5	/experiments/AOT/AOT_stimuli/rescaled_final/1107_rv.mp4	0.0	404.90217208862305	
80	339.88999485969543	fix_post	2		12	78.0	2.5	/experiments/AOT/AOT_stimuli/rescaled_final/1107_rv.mp4	0.0	405.0204589366913	0.10000014305114746
81	339.9899950027466	fix_pre	0		120	79.0	2.5	/experiments/AOT/AOT_stimuli/rescaled_final/0145_fw.mp4	0.0	405.12045907974243	0.9999358654022217
81	340.9899308681488	movie	1		244	79.0	2.5	/experiments/AOT/AOT_stimuli/rescaled_final/0145_fw.mp4	0.0	406.12039494514465	2.4999711513519287
81	341.37308287620544	pulse	1	t		79.0	2.5	/experiments/AOT/AOT_stimuli/rescaled_final/0145_fw.mp4	0.0	406.5035469532013	
81	342.9733958244324	pulse	1	t		79.0	2.5	/experiments/AOT/AOT_stimuli/rescaled_final/0145_fw.mp4	0.0	408.1038599014282	
81	343.48990201950073	fix_post	2		12	79.0	2.5	/experiments/AOT/AOT_stimuli/rescaled_final/0145_fw.mp4	0.0	408.6203660964966	0.09999489784240723
82	343.58989691734314	fix_pre	0		119	80.0	2.5	/experiments/AOT/AOT_stimuli/rescaled_final/1107_fw.mp4	0.0	408.720360994339	0.9917149543762207
82	344.57339000701904	pulse	0	t		80.0	2.5	/experiments/AOT/AOT_stimuli/rescaled_final/1107_fw.mp4	0.0	409.7038540840149	
82	344.58161187171936	movie	1		244	80.0	2.5	/experiments/AOT/AOT_stimuli/rescaled_final/1107_fw.mp4	0.0	409.7120759487152	2.5083539485931396
82	346.1729528903961	pulse	1	t		80.0	2.5	/experiments/AOT/AOT_stimuli/rescaled_final/1107_fw.mp4	0.0	411.30341696739197	
82	347.0899658203125	fix_post	2		12	80.0	2.5	/experiments/AOT/AOT_stimuli/rescaled_final/1107_fw.mp4	0.0	412.22042989730835	0.0998830795288086
83	347.1898488998413	fix_pre	0		120	81.0	2.5	/experiments/AOT/AOT_stimuli/rescaled_final/1656_fw.mp4	0.0	412.32031297683716	1.0
83	347.7733278274536	pulse	0	t		81.0	2.5	/experiments/AOT/AOT_stimuli/rescaled_final/1656_fw.mp4	0.0	412.90379190444946	
83	348.1898488998413	movie	1		244	81.0	2.5	/experiments/AOT/AOT_stimuli/rescaled_final/1656_fw.mp4	0.0	413.32031297683716	2.5000081062316895
83	349.3735148906708	pulse	1	t		81.0	2.5	/experiments/AOT/AOT_stimuli/rescaled_final/1656_fw.mp4	0.0	414.5039789676666	
83	350.689857006073	fix_post	2		12	81.0	2.5	/experiments/AOT/AOT_stimuli/rescaled_final/1656_fw.mp4	0.0	415.82032108306885	0.10001397132873535
84	350.78987097740173	fix_pre	0		120	82.0	2.5	blank	1.0	415.9203350543976	0.9999630451202393
84	350.973464012146	pulse	0	t		82.0	2.5	blank	1.0	416.10392808914185	
84	351.789834022522	movie	1		300	82.0	2.5	blank	1.0	416.9202980995178	2.4998297691345215
84	352.5732469558716	pulse	1	t		82.0	2.5	blank	1.0	417.70371103286743	
84	354.17306900024414	pulse	1	t		82.0	2.5	blank	1.0	419.30353307724	
84	354.2896637916565	fix_post	2		12	82.0	2.5	blank	1.0	419.42012786865234	0.09981513023376465
85	354.38947892189026	fix_pre	0		120	83.0	2.5	/experiments/AOT/AOT_stimuli/rescaled_final/1553_rv.mp4	0.0	419.5199429988861	1.000227928161621
85	355.3897068500519	movie	1		247	83.0	2.5	/experiments/AOT/AOT_stimuli/rescaled_final/1553_rv.mp4	0.0	420.52017092704773	2.500075101852417
85	355.773286819458	pulse	1	t		83.0	2.5	/experiments/AOT/AOT_stimuli/rescaled_final/1553_rv.mp4	0.0	420.90375089645386	
85	357.3734219074249	pulse	1	t		83.0	2.5	/experiments/AOT/AOT_stimuli/rescaled_final/1553_rv.mp4	0.0	422.5038859844208	
85	357.8897819519043	fix_post	2		12	83.0	2.5	/experiments/AOT/AOT_stimuli/rescaled_final/1553_rv.mp4	0.0	423.02024602890015	0.10004901885986328
87	357.98983097076416	stim	0		1716					423.12029504776	14.299931049346924
87	358.9733498096466	pulse	0	t						424.10381388664246	
87	360.57332491874695	pulse	0	t						425.7037889957428	
87	362.1731770038605	pulse	0	t						427.3036410808563	
87	363.773286819458	pulse	0	t						428.90375089645386	
87	365.37318682670593	pulse	0	t						430.5036509037018	
87	366.97319197654724	pulse	0	t						432.1036560535431	
87	368.57317090034485	pulse	0	t						433.7036349773407	
87	370.17318892478943	pulse	0	t						435.3036530017853	
87	371.7732210159302	pulse	0	t						436.903685092926	
