trial_nr	onset	event_type	phase	response	nr_frames	movie_index	movie_duration	movie_file	blank	onset_abs	duration
0	0.15822458267211914	stim	0		1					15.804988384246826	0.008236408233642578
0	0.15988492965698242	response	0	space						15.80664873123169	
1	0.16646099090576172	stim	0		4713					15.813224792480469	39.291526794433594
1	39.447564125061035	pulse	0	t						55.09432792663574	
1	39.457987785339355	stim	1		1715					55.10475158691406	14.299904108047485
1	41.03944778442383	pulse	1	t						56.686211585998535	
1	42.63967180252075	pulse	1	t						58.28643560409546	
1	44.23987793922424	pulse	1	t						59.88664174079895	
1	45.84017610549927	pulse	1	t						61.486939907073975	
1	47.440505504608154	pulse	1	t						63.08726930618286	
1	49.04065775871277	pulse	1	t						64.68742156028748	
1	50.640899419784546	pulse	1	t						66.28766322135925	
1	52.241082429885864	pulse	1	t						67.88784623146057	
2	53.75789189338684	fix_pre	0		11	0.0	2.5	/experiments/Knapen_AOT/AOT_stimuli/rescaled_final/2112_rv.mp4	0.0	69.40465569496155	0.10830330848693848
2	53.84135127067566	pulse	0	t		0.0	2.5	/experiments/Knapen_AOT/AOT_stimuli/rescaled_final/2112_rv.mp4	0.0	69.48811507225037	
2	53.86619520187378	movie	1		279	0.0	2.5	/experiments/Knapen_AOT/AOT_stimuli/rescaled_final/2112_rv.mp4	0.0	69.51295900344849	2.4920923709869385
2	55.4401113986969	pulse	1	t		0.0	2.5	/experiments/Knapen_AOT/AOT_stimuli/rescaled_final/2112_rv.mp4	0.0	71.0868752002716	
2	56.35828757286072	fix_post	2		12	0.0	2.5	/experiments/Knapen_AOT/AOT_stimuli/rescaled_final/2112_rv.mp4	0.0	72.00505137443542	0.10001516342163086
3	56.45830273628235	fix_pre	0		120	1.0	2.5	/experiments/Knapen_AOT/AOT_stimuli/rescaled_final/1011_fw.mp4	0.0	72.10506653785706	1.0084750652313232
3	57.04193711280823	pulse	0	t		1.0	2.5	/experiments/Knapen_AOT/AOT_stimuli/rescaled_final/1011_fw.mp4	0.0	72.68870091438293	
3	57.46677780151367	movie	1		278	1.0	2.5	/experiments/Knapen_AOT/AOT_stimuli/rescaled_final/1011_fw.mp4	0.0	73.11354160308838	2.4920220375061035
3	58.64040231704712	pulse	1	t		1.0	2.5	/experiments/Knapen_AOT/AOT_stimuli/rescaled_final/1011_fw.mp4	0.0	74.28716611862183	
3	59.958799839019775	fix_post	2		12	1.0	2.5	/experiments/Knapen_AOT/AOT_stimuli/rescaled_final/1011_fw.mp4	0.0	75.60556364059448	0.10003447532653809
4	60.05883431434631	fix_pre	0		120	2.0	2.5	/experiments/Knapen_AOT/AOT_stimuli/rescaled_final/1902_fw.mp4	0.0	75.70559811592102	1.0085465908050537
4	60.242313385009766	pulse	0	t		2.0	2.5	/experiments/Knapen_AOT/AOT_stimuli/rescaled_final/1902_fw.mp4	0.0	75.88907718658447	
4	61.06738090515137	movie	1		282	2.0	2.5	/experiments/Knapen_AOT/AOT_stimuli/rescaled_final/1902_fw.mp4	0.0	76.71414470672607	2.491952896118164
4	61.84079313278198	pulse	1	t		2.0	2.5	/experiments/Knapen_AOT/AOT_stimuli/rescaled_final/1902_fw.mp4	0.0	77.48755693435669	
4	63.44082689285278	pulse	1	t		2.0	2.5	/experiments/Knapen_AOT/AOT_stimuli/rescaled_final/1902_fw.mp4	0.0	79.08759069442749	
4	63.55933380126953	fix_post	2		12	2.0	2.5	/experiments/Knapen_AOT/AOT_stimuli/rescaled_final/1902_fw.mp4	0.0	79.20609760284424	0.09998345375061035
5	63.65931725502014	fix_pre	0		120	3.0	2.5	/experiments/Knapen_AOT/AOT_stimuli/rescaled_final/1011_rv.mp4	0.0	79.30608105659485	1.0084877014160156
5	64.66780495643616	movie	1		283	3.0	2.5	/experiments/Knapen_AOT/AOT_stimuli/rescaled_final/1011_rv.mp4	0.0	80.31456875801086	2.492037773132324
5	65.04162120819092	pulse	1	t		3.0	2.5	/experiments/Knapen_AOT/AOT_stimuli/rescaled_final/1011_rv.mp4	0.0	80.68838500976562	
5	66.64107584953308	pulse	1	t		3.0	2.5	/experiments/Knapen_AOT/AOT_stimuli/rescaled_final/1011_rv.mp4	0.0	82.28783965110779	
5	67.15984272956848	fix_post	2		12	3.0	2.5	/experiments/Knapen_AOT/AOT_stimuli/rescaled_final/1011_rv.mp4	0.0	82.80660653114319	0.10011768341064453
6	67.25996041297913	fix_pre	0		119	4.0	2.5	/experiments/Knapen_AOT/AOT_stimuli/rescaled_final/1193_fw.mp4	0.0	82.90672421455383	1.0000512599945068
6	68.24355888366699	pulse	0	t		4.0	2.5	/experiments/Knapen_AOT/AOT_stimuli/rescaled_final/1193_fw.mp4	0.0	83.8903226852417	
6	68.26001167297363	movie	1		294	4.0	2.5	/experiments/Knapen_AOT/AOT_stimuli/rescaled_final/1193_fw.mp4	0.0	83.90677547454834	2.5003693103790283
6	69.8422794342041	pulse	1	t		4.0	2.5	/experiments/Knapen_AOT/AOT_stimuli/rescaled_final/1193_fw.mp4	0.0	85.48904323577881	
6	70.76038098335266	fix_post	2		12	4.0	2.5	/experiments/Knapen_AOT/AOT_stimuli/rescaled_final/1193_fw.mp4	0.0	86.40714478492737	0.10002470016479492
7	70.86040568351746	fix_pre	0		120	5.0	2.5	/experiments/Knapen_AOT/AOT_stimuli/rescaled_final/1963_rv.mp4	0.0	86.50716948509216	1.008540391921997
7	71.44402050971985	pulse	0	t		5.0	2.5	/experiments/Knapen_AOT/AOT_stimuli/rescaled_final/1963_rv.mp4	0.0	87.09078431129456	
7	71.86894607543945	movie	1		289	5.0	2.5	/experiments/Knapen_AOT/AOT_stimuli/rescaled_final/1963_rv.mp4	0.0	87.51570987701416	2.4919698238372803
7	73.04239964485168	pulse	1	t		5.0	2.5	/experiments/Knapen_AOT/AOT_stimuli/rescaled_final/1963_rv.mp4	0.0	88.68916344642639	
7	74.36091589927673	fix_post	2		12	5.0	2.5	/experiments/Knapen_AOT/AOT_stimuli/rescaled_final/1963_rv.mp4	0.0	90.00767970085144	0.10001444816589355
8	74.46093034744263	fix_pre	0		120	6.0	2.5	/experiments/Knapen_AOT/AOT_stimuli/rescaled_final/1388_fw.mp4	0.0	90.10769414901733	1.0084905624389648
8	74.63664269447327	pulse	0	t		6.0	2.5	/experiments/Knapen_AOT/AOT_stimuli/rescaled_final/1388_fw.mp4	0.0	90.28340649604797	
8	75.46942090988159	movie	1		287	6.0	2.5	/experiments/Knapen_AOT/AOT_stimuli/rescaled_final/1388_fw.mp4	0.0	91.1161847114563	2.4920566082000732
8	76.23645091056824	pulse	1	t		6.0	2.5	/experiments/Knapen_AOT/AOT_stimuli/rescaled_final/1388_fw.mp4	0.0	91.88321471214294	
8	77.83693671226501	pulse	1	t		6.0	2.5	/experiments/Knapen_AOT/AOT_stimuli/rescaled_final/1388_fw.mp4	0.0	93.48370051383972	
8	77.96147751808167	fix_post	2		12	6.0	2.5	/experiments/Knapen_AOT/AOT_stimuli/rescaled_final/1388_fw.mp4	0.0	93.60824131965637	0.10009551048278809
9	78.06157302856445	fix_pre	0		120	7.0	2.5	blank	1.0	93.70833683013916	1.000044584274292
9	79.06161761283875	movie	1		300	7.0	2.5	blank	1.0	94.70838141441345	2.5004689693450928
9	79.43764996528625	pulse	1	t		7.0	2.5	blank	1.0	95.08441376686096	
9	81.03733253479004	pulse	1	t		7.0	2.5	blank	1.0	96.68409633636475	
9	81.56208658218384	fix_post	2		12	7.0	2.5	blank	1.0	97.20885038375854	0.09993600845336914
10	81.6620225906372	fix_pre	0		118	8.0	2.5	/experiments/Knapen_AOT/AOT_stimuli/rescaled_final/0868_fw.mp4	0.0	97.30878639221191	0.9918317794799805
10	82.6373643875122	pulse	0	t		8.0	2.5	/experiments/Knapen_AOT/AOT_stimuli/rescaled_final/0868_fw.mp4	0.0	98.28412818908691	
10	82.65385437011719	movie	1		285	8.0	2.5	/experiments/Knapen_AOT/AOT_stimuli/rescaled_final/0868_fw.mp4	0.0	98.3006181716919	2.5003530979156494
10	84.23608446121216	pulse	1	t		8.0	2.5	/experiments/Knapen_AOT/AOT_stimuli/rescaled_final/0868_fw.mp4	0.0	99.88284826278687	
10	85.15420746803284	fix_post	2		12	8.0	2.5	/experiments/Knapen_AOT/AOT_stimuli/rescaled_final/0868_fw.mp4	0.0	100.80097126960754	0.10001778602600098
11	85.25422525405884	fix_pre	0		120	9.0	2.5	/experiments/Knapen_AOT/AOT_stimuli/rescaled_final/0645_fw.mp4	0.0	100.90098905563354	1.0084874629974365
11	85.83795213699341	pulse	0	t		9.0	2.5	/experiments/Knapen_AOT/AOT_stimuli/rescaled_final/0645_fw.mp4	0.0	101.48471593856812	
11	86.26271271705627	movie	1		283	9.0	2.5	/experiments/Knapen_AOT/AOT_stimuli/rescaled_final/0645_fw.mp4	0.0	101.90947651863098	2.492093563079834
11	87.4362645149231	pulse	1	t		9.0	2.5	/experiments/Knapen_AOT/AOT_stimuli/rescaled_final/0645_fw.mp4	0.0	103.0830283164978	
11	88.75480628013611	fix_post	2		12	9.0	2.5	/experiments/Knapen_AOT/AOT_stimuli/rescaled_final/0645_fw.mp4	0.0	104.40157008171082	0.10021710395812988
12	88.85502338409424	fix_pre	0		120	10.0	2.5	/experiments/Knapen_AOT/AOT_stimuli/rescaled_final/1689_fw.mp4	0.0	104.50178718566895	1.0082333087921143
12	89.03837013244629	pulse	0	t		10.0	2.5	/experiments/Knapen_AOT/AOT_stimuli/rescaled_final/1689_fw.mp4	0.0	104.685133934021	
12	89.86325669288635	movie	1		278	10.0	2.5	/experiments/Knapen_AOT/AOT_stimuli/rescaled_final/1689_fw.mp4	0.0	105.51002049446106	2.4921059608459473
12	90.63671493530273	pulse	1	t		10.0	2.5	/experiments/Knapen_AOT/AOT_stimuli/rescaled_final/1689_fw.mp4	0.0	106.28347873687744	
12	92.2367353439331	pulse	1	t		10.0	2.5	/experiments/Knapen_AOT/AOT_stimuli/rescaled_final/1689_fw.mp4	0.0	107.88349914550781	
12	92.3553626537323	fix_post	2		12	10.0	2.5	/experiments/Knapen_AOT/AOT_stimuli/rescaled_final/1689_fw.mp4	0.0	108.002126455307	0.09995031356811523
13	92.45531296730042	fix_pre	0		120	11.0	2.5	/experiments/Knapen_AOT/AOT_stimuli/rescaled_final/0835_fw.mp4	0.0	108.10207676887512	1.0085136890411377
13	93.46382665634155	movie	1		284	11.0	2.5	/experiments/Knapen_AOT/AOT_stimuli/rescaled_final/0835_fw.mp4	0.0	109.11059045791626	2.492055892944336
13	93.83745169639587	pulse	1	t		11.0	2.5	/experiments/Knapen_AOT/AOT_stimuli/rescaled_final/0835_fw.mp4	0.0	109.48421549797058	
13	95.43735790252686	pulse	1	t		11.0	2.5	/experiments/Knapen_AOT/AOT_stimuli/rescaled_final/0835_fw.mp4	0.0	111.08412170410156	
13	95.95588254928589	fix_post	2		12	11.0	2.5	/experiments/Knapen_AOT/AOT_stimuli/rescaled_final/0835_fw.mp4	0.0	111.6026463508606	0.10002470016479492
14	96.05590724945068	fix_pre	0		119	12.0	2.5	/experiments/Knapen_AOT/AOT_stimuli/rescaled_final/0085_fw.mp4	0.0	111.70267105102539	1.0000898838043213
14	97.03951859474182	pulse	0	t		12.0	2.5	/experiments/Knapen_AOT/AOT_stimuli/rescaled_final/0085_fw.mp4	0.0	112.68628239631653	
14	97.055997133255	movie	1		292	12.0	2.5	/experiments/Knapen_AOT/AOT_stimuli/rescaled_final/0085_fw.mp4	0.0	112.70276093482971	2.5003888607025146
14	98.63825821876526	pulse	1	t		12.0	2.5	/experiments/Knapen_AOT/AOT_stimuli/rescaled_final/0085_fw.mp4	0.0	114.28502202033997	
14	99.55638599395752	fix_post	2		12	12.0	2.5	/experiments/Knapen_AOT/AOT_stimuli/rescaled_final/0085_fw.mp4	0.0	115.20314979553223	0.1000206470489502
15	99.65640664100647	fix_pre	0		120	13.0	2.5	/experiments/Knapen_AOT/AOT_stimuli/rescaled_final/0575_rv.mp4	0.0	115.30317044258118	1.0085721015930176
15	100.24004459381104	pulse	0	t		13.0	2.5	/experiments/Knapen_AOT/AOT_stimuli/rescaled_final/0575_rv.mp4	0.0	115.88680839538574	
15	100.66497874259949	movie	1		294	13.0	2.5	/experiments/Knapen_AOT/AOT_stimuli/rescaled_final/0575_rv.mp4	0.0	116.3117425441742	2.492018699645996
15	101.83845710754395	pulse	1	t		13.0	2.5	/experiments/Knapen_AOT/AOT_stimuli/rescaled_final/0575_rv.mp4	0.0	117.48522090911865	
15	103.15699744224548	fix_post	2		12	13.0	2.5	/experiments/Knapen_AOT/AOT_stimuli/rescaled_final/0575_rv.mp4	0.0	118.80376124382019	0.09999418258666992
16	103.25699162483215	fix_pre	0		120	14.0	2.5	blank	1.0	118.90375542640686	1.0000910758972168
16	103.44048261642456	pulse	0	t		14.0	2.5	blank	1.0	119.08724641799927	
16	104.25708270072937	movie	1		300	14.0	2.5	blank	1.0	119.90384650230408	2.500373363494873
16	105.04094791412354	pulse	1	t		14.0	2.5	blank	1.0	120.68771171569824	
16	106.64095139503479	pulse	1	t		14.0	2.5	blank	1.0	122.2877151966095	
16	106.75745606422424	fix_post	2		12	14.0	2.5	blank	1.0	122.40421986579895	0.10003948211669922
17	106.85749554634094	fix_pre	0		120	15.0	2.5	/experiments/Knapen_AOT/AOT_stimuli/rescaled_final/2096_fw.mp4	0.0	122.50425934791565	1.0084691047668457
17	107.86596465110779	movie	1		282	15.0	2.5	/experiments/Knapen_AOT/AOT_stimuli/rescaled_final/2096_fw.mp4	0.0	123.5127284526825	2.4920284748077393
17	108.2395544052124	pulse	1	t		15.0	2.5	/experiments/Knapen_AOT/AOT_stimuli/rescaled_final/2096_fw.mp4	0.0	123.88631820678711	
17	109.83942532539368	pulse	1	t		15.0	2.5	/experiments/Knapen_AOT/AOT_stimuli/rescaled_final/2096_fw.mp4	0.0	125.48618912696838	
17	110.35799312591553	fix_post	2		12	15.0	2.5	/experiments/Knapen_AOT/AOT_stimuli/rescaled_final/2096_fw.mp4	0.0	126.00475692749023	0.10008645057678223
18	110.45807957649231	fix_pre	0		119	16.0	2.5	/experiments/Knapen_AOT/AOT_stimuli/rescaled_final/1108_fw.mp4	0.0	126.10484337806702	1.0001404285430908
18	111.44182205200195	pulse	0	t		16.0	2.5	/experiments/Knapen_AOT/AOT_stimuli/rescaled_final/1108_fw.mp4	0.0	127.08858585357666	
18	111.4582200050354	movie	1		282	16.0	2.5	/experiments/Knapen_AOT/AOT_stimuli/rescaled_final/1108_fw.mp4	0.0	127.10498380661011	2.5003600120544434
18	113.04206848144531	pulse	1	t		16.0	2.5	/experiments/Knapen_AOT/AOT_stimuli/rescaled_final/1108_fw.mp4	0.0	128.68883228302002	
18	113.95858001708984	fix_post	2		12	16.0	2.5	/experiments/Knapen_AOT/AOT_stimuli/rescaled_final/1108_fw.mp4	0.0	129.60534381866455	0.09998106956481934
19	114.05856108665466	fix_pre	0		120	17.0	2.5	/experiments/Knapen_AOT/AOT_stimuli/rescaled_final/1340_rv.mp4	0.0	129.70532488822937	1.0084810256958008
19	114.64221024513245	pulse	0	t		17.0	2.5	/experiments/Knapen_AOT/AOT_stimuli/rescaled_final/1340_rv.mp4	0.0	130.28897404670715	
19	115.06704211235046	movie	1		287	17.0	2.5	/experiments/Knapen_AOT/AOT_stimuli/rescaled_final/1340_rv.mp4	0.0	130.71380591392517	2.492154359817505
19	116.24054002761841	pulse	1	t		17.0	2.5	/experiments/Knapen_AOT/AOT_stimuli/rescaled_final/1340_rv.mp4	0.0	131.88730382919312	
19	117.55919647216797	fix_post	2		12	17.0	2.5	/experiments/Knapen_AOT/AOT_stimuli/rescaled_final/1340_rv.mp4	0.0	133.20596027374268	0.10000395774841309
20	117.65920042991638	fix_pre	0		120	18.0	2.5	/experiments/Knapen_AOT/AOT_stimuli/rescaled_final/0069_rv.mp4	0.0	133.3059642314911	1.0084033012390137
20	117.84276556968689	pulse	0	t		18.0	2.5	/experiments/Knapen_AOT/AOT_stimuli/rescaled_final/0069_rv.mp4	0.0	133.4895293712616	
20	118.6676037311554	movie	1		280	18.0	2.5	/experiments/Knapen_AOT/AOT_stimuli/rescaled_final/0069_rv.mp4	0.0	134.3143675327301	2.4920663833618164
20	119.4416115283966	pulse	1	t		18.0	2.5	/experiments/Knapen_AOT/AOT_stimuli/rescaled_final/0069_rv.mp4	0.0	135.0883753299713	
20	121.04114699363708	pulse	1	t		18.0	2.5	/experiments/Knapen_AOT/AOT_stimuli/rescaled_final/0069_rv.mp4	0.0	136.6879107952118	
20	121.15967011451721	fix_post	2		12	18.0	2.5	/experiments/Knapen_AOT/AOT_stimuli/rescaled_final/0069_rv.mp4	0.0	136.80643391609192	0.09995746612548828
21	121.2596275806427	fix_pre	0		120	19.0	2.5	/experiments/Knapen_AOT/AOT_stimuli/rescaled_final/0722_rv.mp4	0.0	136.9063913822174	1.0085270404815674
21	122.26815462112427	movie	1		285	19.0	2.5	/experiments/Knapen_AOT/AOT_stimuli/rescaled_final/0722_rv.mp4	0.0	137.91491842269897	2.49200701713562
21	122.64155793190002	pulse	1	t		19.0	2.5	/experiments/Knapen_AOT/AOT_stimuli/rescaled_final/0722_rv.mp4	0.0	138.28832173347473	
21	124.24167394638062	pulse	1	t		19.0	2.5	/experiments/Knapen_AOT/AOT_stimuli/rescaled_final/0722_rv.mp4	0.0	139.88843774795532	
21	124.76016163825989	fix_post	2		12	19.0	2.5	/experiments/Knapen_AOT/AOT_stimuli/rescaled_final/0722_rv.mp4	0.0	140.4069254398346	0.10007524490356445
22	124.86023688316345	fix_pre	0		119	20.0	2.5	/experiments/Knapen_AOT/AOT_stimuli/rescaled_final/0410_fw.mp4	0.0	140.50700068473816	1.0001027584075928
22	125.8438708782196	pulse	0	t		20.0	2.5	/experiments/Knapen_AOT/AOT_stimuli/rescaled_final/0410_fw.mp4	0.0	141.4906346797943	
22	125.86033964157104	movie	1		279	20.0	2.5	/experiments/Knapen_AOT/AOT_stimuli/rescaled_final/0410_fw.mp4	0.0	141.50710344314575	2.500378370285034
22	127.4439127445221	pulse	1	t		20.0	2.5	/experiments/Knapen_AOT/AOT_stimuli/rescaled_final/0410_fw.mp4	0.0	143.0906765460968	
22	128.36071801185608	fix_post	2		12	20.0	2.5	/experiments/Knapen_AOT/AOT_stimuli/rescaled_final/0410_fw.mp4	0.0	144.0074818134308	0.10001468658447266
23	128.46073269844055	fix_pre	0		120	21.0	2.5	blank	1.0	144.10749650001526	1.0001368522644043
23	129.03639197349548	pulse	0	t		21.0	2.5	blank	1.0	144.6831557750702	
23	129.46086955070496	movie	1		300	21.0	2.5	blank	1.0	145.10763335227966	2.5004541873931885
23	130.63652873039246	pulse	1	t		21.0	2.5	blank	1.0	146.28329253196716	
23	131.96132373809814	fix_post	2		12	21.0	2.5	blank	1.0	147.60808753967285	0.09999203681945801
24	132.0613157749176	fix_pre	0		120	22.0	2.5	/experiments/Knapen_AOT/AOT_stimuli/rescaled_final/0489_fw.mp4	0.0	147.7080795764923	1.0084564685821533
24	132.23686265945435	pulse	0	t		22.0	2.5	/experiments/Knapen_AOT/AOT_stimuli/rescaled_final/0489_fw.mp4	0.0	147.88362646102905	
24	133.06977224349976	movie	1		290	22.0	2.5	/experiments/Knapen_AOT/AOT_stimuli/rescaled_final/0489_fw.mp4	0.0	148.71653604507446	2.492023229598999
24	133.83674788475037	pulse	1	t		22.0	2.5	/experiments/Knapen_AOT/AOT_stimuli/rescaled_final/0489_fw.mp4	0.0	149.48351168632507	
24	135.43702626228333	pulse	1	t		22.0	2.5	/experiments/Knapen_AOT/AOT_stimuli/rescaled_final/0489_fw.mp4	0.0	151.08379006385803	
24	135.56179547309875	fix_post	2		12	22.0	2.5	/experiments/Knapen_AOT/AOT_stimuli/rescaled_final/0489_fw.mp4	0.0	151.20855927467346	0.1000518798828125
25	135.66184735298157	fix_pre	0		120	23.0	2.5	/experiments/Knapen_AOT/AOT_stimuli/rescaled_final/1726_fw.mp4	0.0	151.30861115455627	1.0084812641143799
25	136.67032861709595	movie	1		290	23.0	2.5	/experiments/Knapen_AOT/AOT_stimuli/rescaled_final/1726_fw.mp4	0.0	152.31709241867065	2.491999864578247
25	137.03731679916382	pulse	1	t		23.0	2.5	/experiments/Knapen_AOT/AOT_stimuli/rescaled_final/1726_fw.mp4	0.0	152.68408060073853	
25	138.6374580860138	pulse	1	t		23.0	2.5	/experiments/Knapen_AOT/AOT_stimuli/rescaled_final/1726_fw.mp4	0.0	154.2842218875885	
25	139.1623284816742	fix_post	2		12	23.0	2.5	/experiments/Knapen_AOT/AOT_stimuli/rescaled_final/1726_fw.mp4	0.0	154.8090922832489	0.10003542900085449
26	139.26236391067505	fix_pre	0		118	24.0	2.5	/experiments/Knapen_AOT/AOT_stimuli/rescaled_final/1726_rv.mp4	0.0	154.90912771224976	0.9918551445007324
26	140.23773074150085	pulse	0	t		24.0	2.5	/experiments/Knapen_AOT/AOT_stimuli/rescaled_final/1726_rv.mp4	0.0	155.88449454307556	
26	140.25421905517578	movie	1		285	24.0	2.5	/experiments/Knapen_AOT/AOT_stimuli/rescaled_final/1726_rv.mp4	0.0	155.9009828567505	2.5003163814544678
26	141.83653903007507	pulse	1	t		24.0	2.5	/experiments/Knapen_AOT/AOT_stimuli/rescaled_final/1726_rv.mp4	0.0	157.48330283164978	
26	142.75453543663025	fix_post	2		12	24.0	2.5	/experiments/Knapen_AOT/AOT_stimuli/rescaled_final/1726_rv.mp4	0.0	158.40129923820496	0.10004448890686035
27	142.8545799255371	fix_pre	0		120	25.0	2.5	/experiments/Knapen_AOT/AOT_stimuli/rescaled_final/1987_fw.mp4	0.0	158.50134372711182	1.0085062980651855
27	143.43820571899414	pulse	0	t		25.0	2.5	/experiments/Knapen_AOT/AOT_stimuli/rescaled_final/1987_fw.mp4	0.0	159.08496952056885	
27	143.8630862236023	movie	1		280	25.0	2.5	/experiments/Knapen_AOT/AOT_stimuli/rescaled_final/1987_fw.mp4	0.0	159.509850025177	2.492042303085327
27	145.03791069984436	pulse	1	t		25.0	2.5	/experiments/Knapen_AOT/AOT_stimuli/rescaled_final/1987_fw.mp4	0.0	160.68467450141907	
27	146.35512852668762	fix_post	2		12	25.0	2.5	/experiments/Knapen_AOT/AOT_stimuli/rescaled_final/1987_fw.mp4	0.0	162.00189232826233	0.10002470016479492
28	146.45515322685242	fix_pre	0		120	26.0	2.5	/experiments/Knapen_AOT/AOT_stimuli/rescaled_final/1717_fw.mp4	0.0	162.10191702842712	1.0084805488586426
28	146.638738155365	pulse	0	t		26.0	2.5	/experiments/Knapen_AOT/AOT_stimuli/rescaled_final/1717_fw.mp4	0.0	162.2855019569397	
28	147.46363377571106	movie	1		278	26.0	2.5	/experiments/Knapen_AOT/AOT_stimuli/rescaled_final/1717_fw.mp4	0.0	163.11039757728577	2.491987466812134
28	148.23692965507507	pulse	1	t		26.0	2.5	/experiments/Knapen_AOT/AOT_stimuli/rescaled_final/1717_fw.mp4	0.0	163.88369345664978	
28	149.83773589134216	pulse	1	t		26.0	2.5	/experiments/Knapen_AOT/AOT_stimuli/rescaled_final/1717_fw.mp4	0.0	165.48449969291687	
28	149.9556212425232	fix_post	2		12	26.0	2.5	/experiments/Knapen_AOT/AOT_stimuli/rescaled_final/1717_fw.mp4	0.0	165.6023850440979	0.10002255439758301
29	150.05564379692078	fix_pre	0		120	27.0	2.5	/experiments/Knapen_AOT/AOT_stimuli/rescaled_final/1372_fw.mp4	0.0	165.70240759849548	1.0085203647613525
29	151.06416416168213	movie	1		286	27.0	2.5	/experiments/Knapen_AOT/AOT_stimuli/rescaled_final/1372_fw.mp4	0.0	166.71092796325684	2.4920005798339844
29	151.43822693824768	pulse	1	t		27.0	2.5	/experiments/Knapen_AOT/AOT_stimuli/rescaled_final/1372_fw.mp4	0.0	167.0849907398224	
29	153.03754925727844	pulse	1	t		27.0	2.5	/experiments/Knapen_AOT/AOT_stimuli/rescaled_final/1372_fw.mp4	0.0	168.68431305885315	
29	153.5561647415161	fix_post	2		12	27.0	2.5	/experiments/Knapen_AOT/AOT_stimuli/rescaled_final/1372_fw.mp4	0.0	169.20292854309082	0.1000218391418457
30	153.65618658065796	fix_pre	0		119	28.0	2.5	blank	1.0	169.30295038223267	0.9918010234832764
30	154.6398582458496	pulse	0	t		28.0	2.5	blank	1.0	170.28662204742432	
30	154.64798760414124	movie	1		301	28.0	2.5	blank	1.0	170.29475140571594	2.5088143348693848
30	156.24003624916077	pulse	1	t		28.0	2.5	blank	1.0	171.88680005073547	
30	157.15680193901062	fix_post	2		12	28.0	2.5	blank	1.0	172.80356574058533	0.09992408752441406
31	157.25672602653503	fix_pre	0		120	29.0	2.5	/experiments/Knapen_AOT/AOT_stimuli/rescaled_final/0402_rv.mp4	0.0	172.90348982810974	1.008488416671753
31	157.84046912193298	pulse	0	t		29.0	2.5	/experiments/Knapen_AOT/AOT_stimuli/rescaled_final/0402_rv.mp4	0.0	173.4872329235077	
31	158.2652144432068	movie	1		282	29.0	2.5	/experiments/Knapen_AOT/AOT_stimuli/rescaled_final/0402_rv.mp4	0.0	173.9119782447815	2.492022752761841
31	159.43966627120972	pulse	1	t		29.0	2.5	/experiments/Knapen_AOT/AOT_stimuli/rescaled_final/0402_rv.mp4	0.0	175.08643007278442	
31	160.75723719596863	fix_post	2		12	29.0	2.5	/experiments/Knapen_AOT/AOT_stimuli/rescaled_final/0402_rv.mp4	0.0	176.40400099754333	0.10006570816040039
32	160.85730290412903	fix_pre	0		120	30.0	2.5	/experiments/Knapen_AOT/AOT_stimuli/rescaled_final/1350_rv.mp4	0.0	176.50406670570374	1.0084855556488037
32	161.04087495803833	pulse	0	t		30.0	2.5	/experiments/Knapen_AOT/AOT_stimuli/rescaled_final/1350_rv.mp4	0.0	176.68763875961304	
32	161.86578845977783	movie	1		285	30.0	2.5	/experiments/Knapen_AOT/AOT_stimuli/rescaled_final/1350_rv.mp4	0.0	177.51255226135254	2.4920690059661865
32	162.63907170295715	pulse	1	t		30.0	2.5	/experiments/Knapen_AOT/AOT_stimuli/rescaled_final/1350_rv.mp4	0.0	178.28583550453186	
32	164.23924684524536	pulse	1	t		30.0	2.5	/experiments/Knapen_AOT/AOT_stimuli/rescaled_final/1350_rv.mp4	0.0	179.88601064682007	
32	164.35785746574402	fix_post	2		12	30.0	2.5	/experiments/Knapen_AOT/AOT_stimuli/rescaled_final/1350_rv.mp4	0.0	180.00462126731873	0.09998846054077148
33	164.4578459262848	fix_pre	0		120	31.0	2.5	/experiments/Knapen_AOT/AOT_stimuli/rescaled_final/1735_fw.mp4	0.0	180.1046097278595	1.0084729194641113
33	165.4663188457489	movie	1		275	31.0	2.5	/experiments/Knapen_AOT/AOT_stimuli/rescaled_final/1735_fw.mp4	0.0	181.1130826473236	2.491994857788086
33	165.84056162834167	pulse	1	t		31.0	2.5	/experiments/Knapen_AOT/AOT_stimuli/rescaled_final/1735_fw.mp4	0.0	181.48732542991638	
33	167.4398500919342	pulse	1	t		31.0	2.5	/experiments/Knapen_AOT/AOT_stimuli/rescaled_final/1735_fw.mp4	0.0	183.0866138935089	
33	167.958313703537	fix_post	2		12	31.0	2.5	/experiments/Knapen_AOT/AOT_stimuli/rescaled_final/1735_fw.mp4	0.0	183.6050775051117	0.10002636909484863
34	168.05834007263184	fix_pre	0		119	32.0	2.5	/experiments/Knapen_AOT/AOT_stimuli/rescaled_final/1886_fw.mp4	0.0	183.70510387420654	1.0001506805419922
34	169.04203605651855	pulse	0	t		32.0	2.5	/experiments/Knapen_AOT/AOT_stimuli/rescaled_final/1886_fw.mp4	0.0	184.68879985809326	
34	169.05849075317383	movie	1		275	32.0	2.5	/experiments/Knapen_AOT/AOT_stimuli/rescaled_final/1886_fw.mp4	0.0	184.70525455474854	2.5003769397735596
34	170.64095211029053	pulse	1	t		32.0	2.5	/experiments/Knapen_AOT/AOT_stimuli/rescaled_final/1886_fw.mp4	0.0	186.28771591186523	
34	171.5588676929474	fix_post	2		12	32.0	2.5	/experiments/Knapen_AOT/AOT_stimuli/rescaled_final/1886_fw.mp4	0.0	187.2056314945221	0.10007619857788086
35	171.65894389152527	fix_pre	0		120	33.0	2.5	/experiments/Knapen_AOT/AOT_stimuli/rescaled_final/2021_fw.mp4	0.0	187.30570769309998	1.0084240436553955
35	172.24250507354736	pulse	0	t		33.0	2.5	/experiments/Knapen_AOT/AOT_stimuli/rescaled_final/2021_fw.mp4	0.0	187.88926887512207	
35	172.66736793518066	movie	1		280	33.0	2.5	/experiments/Knapen_AOT/AOT_stimuli/rescaled_final/2021_fw.mp4	0.0	188.31413173675537	2.492051839828491
35	173.8409559726715	pulse	1	t		33.0	2.5	/experiments/Knapen_AOT/AOT_stimuli/rescaled_final/2021_fw.mp4	0.0	189.48771977424622	
35	175.15941977500916	fix_post	2		12	33.0	2.5	/experiments/Knapen_AOT/AOT_stimuli/rescaled_final/2021_fw.mp4	0.0	190.80618357658386	0.10002613067626953
36	175.25944590568542	fix_pre	0		120	34.0	2.5	/experiments/Knapen_AOT/AOT_stimuli/rescaled_final/0874_rv.mp4	0.0	190.90620970726013	1.0085182189941406
36	175.44306588172913	pulse	0	t		34.0	2.5	/experiments/Knapen_AOT/AOT_stimuli/rescaled_final/0874_rv.mp4	0.0	191.08982968330383	
36	176.26796412467957	movie	1		289	34.0	2.5	/experiments/Knapen_AOT/AOT_stimuli/rescaled_final/0874_rv.mp4	0.0	191.91472792625427	2.49202299118042
36	177.04165863990784	pulse	1	t		34.0	2.5	/experiments/Knapen_AOT/AOT_stimuli/rescaled_final/0874_rv.mp4	0.0	192.68842244148254	
36	178.6415605545044	pulse	1	t		34.0	2.5	/experiments/Knapen_AOT/AOT_stimuli/rescaled_final/0874_rv.mp4	0.0	194.2883243560791	
36	178.75998711585999	fix_post	2		12	34.0	2.5	/experiments/Knapen_AOT/AOT_stimuli/rescaled_final/0874_rv.mp4	0.0	194.4067509174347	0.09995365142822266
37	178.8599407672882	fix_pre	0		120	35.0	2.5	blank	1.0	194.50670456886292	1.0001721382141113
37	179.86011290550232	movie	1		300	35.0	2.5	blank	1.0	195.50687670707703	2.5003890991210938
37	180.24379801750183	pulse	1	t		35.0	2.5	blank	1.0	195.89056181907654	
37	181.84417629241943	pulse	1	t		35.0	2.5	blank	1.0	197.49094009399414	
37	182.3605020046234	fix_post	2		12	35.0	2.5	blank	1.0	198.00726580619812	0.10001564025878906
38	182.4605176448822	fix_pre	0		119	36.0	2.5	/experiments/Knapen_AOT/AOT_stimuli/rescaled_final/0069_rv.mp4	0.0	198.1072814464569	1.0085453987121582
38	183.4442355632782	pulse	0	t		36.0	2.5	/experiments/Knapen_AOT/AOT_stimuli/rescaled_final/0069_rv.mp4	0.0	199.0909993648529	
38	183.46906304359436	movie	1		291	36.0	2.5	/experiments/Knapen_AOT/AOT_stimuli/rescaled_final/0069_rv.mp4	0.0	199.11582684516907	2.491987943649292
38	185.0430829524994	pulse	1	t		36.0	2.5	/experiments/Knapen_AOT/AOT_stimuli/rescaled_final/0069_rv.mp4	0.0	200.6898467540741	
38	185.96105098724365	fix_post	2		12	36.0	2.5	/experiments/Knapen_AOT/AOT_stimuli/rescaled_final/0069_rv.mp4	0.0	201.60781478881836	0.10000252723693848
39	186.0610535144806	fix_pre	0		120	37.0	2.5	/experiments/Knapen_AOT/AOT_stimuli/rescaled_final/0924_rv.mp4	0.0	201.7078173160553	1.0085277557373047
39	186.63708877563477	pulse	0	t		37.0	2.5	/experiments/Knapen_AOT/AOT_stimuli/rescaled_final/0924_rv.mp4	0.0	202.28385257720947	
39	187.0695812702179	movie	1		267	37.0	2.5	/experiments/Knapen_AOT/AOT_stimuli/rescaled_final/0924_rv.mp4	0.0	202.7163450717926	2.4920156002044678
39	188.23700618743896	pulse	1	t		37.0	2.5	/experiments/Knapen_AOT/AOT_stimuli/rescaled_final/0924_rv.mp4	0.0	203.88376998901367	
39	189.56159687042236	fix_post	2		12	37.0	2.5	/experiments/Knapen_AOT/AOT_stimuli/rescaled_final/0924_rv.mp4	0.0	205.20836067199707	0.10002756118774414
40	189.6616244316101	fix_pre	0		120	38.0	2.5	/experiments/Knapen_AOT/AOT_stimuli/rescaled_final/0873_rv.mp4	0.0	205.30838823318481	1.008455753326416
40	189.83693432807922	pulse	0	t		38.0	2.5	/experiments/Knapen_AOT/AOT_stimuli/rescaled_final/0873_rv.mp4	0.0	205.48369812965393	
40	190.67008018493652	movie	1		289	38.0	2.5	/experiments/Knapen_AOT/AOT_stimuli/rescaled_final/0873_rv.mp4	0.0	206.31684398651123	2.4920835494995117
40	191.4371039867401	pulse	1	t		38.0	2.5	/experiments/Knapen_AOT/AOT_stimuli/rescaled_final/0873_rv.mp4	0.0	207.08386778831482	
40	193.0374083518982	pulse	1	t		38.0	2.5	/experiments/Knapen_AOT/AOT_stimuli/rescaled_final/0873_rv.mp4	0.0	208.6841721534729	
40	193.16216373443604	fix_post	2		12	38.0	2.5	/experiments/Knapen_AOT/AOT_stimuli/rescaled_final/0873_rv.mp4	0.0	208.80892753601074	0.09996891021728516
41	193.26213264465332	fix_pre	0		120	39.0	2.5	/experiments/Knapen_AOT/AOT_stimuli/rescaled_final/0631_fw.mp4	0.0	208.90889644622803	1.008497953414917
41	194.27063059806824	movie	1		278	39.0	2.5	/experiments/Knapen_AOT/AOT_stimuli/rescaled_final/0631_fw.mp4	0.0	209.91739439964294	2.492027759552002
41	194.63760352134705	pulse	1	t		39.0	2.5	/experiments/Knapen_AOT/AOT_stimuli/rescaled_final/0631_fw.mp4	0.0	210.28436732292175	
41	196.2378852367401	pulse	1	t		39.0	2.5	/experiments/Knapen_AOT/AOT_stimuli/rescaled_final/0631_fw.mp4	0.0	211.88464903831482	
41	196.76265835762024	fix_post	2		12	39.0	2.5	/experiments/Knapen_AOT/AOT_stimuli/rescaled_final/0631_fw.mp4	0.0	212.40942215919495	0.10001707077026367
42	196.8626754283905	fix_pre	0		118	40.0	2.5	blank	1.0	212.5094392299652	0.9834678173065186
42	197.83820462226868	pulse	0	t		40.0	2.5	blank	1.0	213.48496842384338	
42	197.84614324569702	movie	1		301	40.0	2.5	blank	1.0	213.49290704727173	2.508763313293457
42	199.43834781646729	pulse	1	t		40.0	2.5	blank	1.0	215.085111618042	
42	200.35490655899048	fix_post	2		12	40.0	2.5	blank	1.0	216.00167036056519	0.09998774528503418
43	200.4548943042755	fix_pre	0		120	41.0	2.5	/experiments/Knapen_AOT/AOT_stimuli/rescaled_final/0186_fw.mp4	0.0	216.10165810585022	1.0084812641143799
43	201.0385820865631	pulse	0	t		41.0	2.5	/experiments/Knapen_AOT/AOT_stimuli/rescaled_final/0186_fw.mp4	0.0	216.68534588813782	
43	201.4633755683899	movie	1		276	41.0	2.5	/experiments/Knapen_AOT/AOT_stimuli/rescaled_final/0186_fw.mp4	0.0	217.1101393699646	2.4920921325683594
43	202.63760590553284	pulse	1	t		41.0	2.5	/experiments/Knapen_AOT/AOT_stimuli/rescaled_final/0186_fw.mp4	0.0	218.28436970710754	
43	203.95546770095825	fix_post	2		12	41.0	2.5	/experiments/Knapen_AOT/AOT_stimuli/rescaled_final/0186_fw.mp4	0.0	219.60223150253296	0.0999746322631836
44	204.05544233322144	fix_pre	0		120	42.0	2.5	/experiments/Knapen_AOT/AOT_stimuli/rescaled_final/0604_fw.mp4	0.0	219.70220613479614	1.0084941387176514
44	204.2390100955963	pulse	0	t		42.0	2.5	/experiments/Knapen_AOT/AOT_stimuli/rescaled_final/0604_fw.mp4	0.0	219.88577389717102	
44	205.0639364719391	movie	1		280	42.0	2.5	/experiments/Knapen_AOT/AOT_stimuli/rescaled_final/0604_fw.mp4	0.0	220.7107002735138	2.492023229598999
44	205.83754920959473	pulse	1	t		42.0	2.5	/experiments/Knapen_AOT/AOT_stimuli/rescaled_final/0604_fw.mp4	0.0	221.48431301116943	
44	207.43775868415833	pulse	1	t		42.0	2.5	/experiments/Knapen_AOT/AOT_stimuli/rescaled_final/0604_fw.mp4	0.0	223.08452248573303	
44	207.5559597015381	fix_post	2		12	42.0	2.5	/experiments/Knapen_AOT/AOT_stimuli/rescaled_final/0604_fw.mp4	0.0	223.2027235031128	0.10000467300415039
45	207.65596437454224	fix_pre	0		120	43.0	2.5	/experiments/Knapen_AOT/AOT_stimuli/rescaled_final/0213_rv.mp4	0.0	223.30272817611694	1.008490800857544
45	208.66445517539978	movie	1		279	43.0	2.5	/experiments/Knapen_AOT/AOT_stimuli/rescaled_final/0213_rv.mp4	0.0	224.3112189769745	2.4920341968536377
45	209.03827285766602	pulse	1	t		43.0	2.5	/experiments/Knapen_AOT/AOT_stimuli/rescaled_final/0213_rv.mp4	0.0	224.68503665924072	
45	210.6385853290558	pulse	1	t		43.0	2.5	/experiments/Knapen_AOT/AOT_stimuli/rescaled_final/0213_rv.mp4	0.0	226.2853491306305	
45	211.15648937225342	fix_post	2		12	43.0	2.5	/experiments/Knapen_AOT/AOT_stimuli/rescaled_final/0213_rv.mp4	0.0	226.80325317382812	0.1000206470489502
46	211.25651001930237	fix_pre	0		119	44.0	2.5	/experiments/Knapen_AOT/AOT_stimuli/rescaled_final/1782_rv.mp4	0.0	226.90327382087708	1.008620262145996
46	212.2401843070984	pulse	0	t		44.0	2.5	/experiments/Knapen_AOT/AOT_stimuli/rescaled_final/1782_rv.mp4	0.0	227.8869481086731	
46	212.26513028144836	movie	1		280	44.0	2.5	/experiments/Knapen_AOT/AOT_stimuli/rescaled_final/1782_rv.mp4	0.0	227.91189408302307	2.491922378540039
46	213.83892440795898	pulse	1	t		44.0	2.5	/experiments/Knapen_AOT/AOT_stimuli/rescaled_final/1782_rv.mp4	0.0	229.4856882095337	
46	214.7570526599884	fix_post	2		12	44.0	2.5	/experiments/Knapen_AOT/AOT_stimuli/rescaled_final/1782_rv.mp4	0.0	230.4038164615631	0.10001945495605469
47	214.85707211494446	fix_pre	0		120	45.0	2.5	/experiments/Knapen_AOT/AOT_stimuli/rescaled_final/1282_rv.mp4	0.0	230.50383591651917	1.008471965789795
47	215.44076800346375	pulse	0	t		45.0	2.5	/experiments/Knapen_AOT/AOT_stimuli/rescaled_final/1282_rv.mp4	0.0	231.08753180503845	
47	215.86554408073425	movie	1		274	45.0	2.5	/experiments/Knapen_AOT/AOT_stimuli/rescaled_final/1282_rv.mp4	0.0	231.51230788230896	2.4920549392700195
47	217.03897976875305	pulse	1	t		45.0	2.5	/experiments/Knapen_AOT/AOT_stimuli/rescaled_final/1282_rv.mp4	0.0	232.68574357032776	
47	218.35759902000427	fix_post	2		12	45.0	2.5	/experiments/Knapen_AOT/AOT_stimuli/rescaled_final/1282_rv.mp4	0.0	234.00436282157898	0.10002756118774414
48	218.45762658119202	fix_pre	0		120	46.0	2.5	/experiments/Knapen_AOT/AOT_stimuli/rescaled_final/2014_rv.mp4	0.0	234.10439038276672	1.008737564086914
48	218.6412308216095	pulse	0	t		46.0	2.5	/experiments/Knapen_AOT/AOT_stimuli/rescaled_final/2014_rv.mp4	0.0	234.2879946231842	
48	219.46636414527893	movie	1		278	46.0	2.5	/experiments/Knapen_AOT/AOT_stimuli/rescaled_final/2014_rv.mp4	0.0	235.11312794685364	2.491769552230835
48	220.23946905136108	pulse	1	t		46.0	2.5	/experiments/Knapen_AOT/AOT_stimuli/rescaled_final/2014_rv.mp4	0.0	235.8862328529358	
48	221.84023523330688	pulse	1	t		46.0	2.5	/experiments/Knapen_AOT/AOT_stimuli/rescaled_final/2014_rv.mp4	0.0	237.4869990348816	
48	221.95813369750977	fix_post	2		12	46.0	2.5	/experiments/Knapen_AOT/AOT_stimuli/rescaled_final/2014_rv.mp4	0.0	237.60489749908447	0.10005974769592285
49	222.0581934452057	fix_pre	0		120	47.0	2.5	/experiments/Knapen_AOT/AOT_stimuli/rescaled_final/0534_fw.mp4	0.0	237.7049572467804	1.0084125995635986
49	223.0666060447693	movie	1		279	47.0	2.5	/experiments/Knapen_AOT/AOT_stimuli/rescaled_final/0534_fw.mp4	0.0	238.713369846344	2.492039442062378
49	223.44163298606873	pulse	1	t		47.0	2.5	/experiments/Knapen_AOT/AOT_stimuli/rescaled_final/0534_fw.mp4	0.0	239.08839678764343	
49	225.04007363319397	pulse	1	t		47.0	2.5	/experiments/Knapen_AOT/AOT_stimuli/rescaled_final/0534_fw.mp4	0.0	240.68683743476868	
49	225.55864548683167	fix_post	2		12	47.0	2.5	/experiments/Knapen_AOT/AOT_stimuli/rescaled_final/0534_fw.mp4	0.0	241.20540928840637	0.1000223159790039
50	225.65866780281067	fix_pre	0		119	48.0	2.5	/experiments/Knapen_AOT/AOT_stimuli/rescaled_final/1822_fw.mp4	0.0	241.30543160438538	1.0001921653747559
50	226.64233350753784	pulse	0	t		48.0	2.5	/experiments/Knapen_AOT/AOT_stimuli/rescaled_final/1822_fw.mp4	0.0	242.28909730911255	
50	226.65885996818542	movie	1		270	48.0	2.5	/experiments/Knapen_AOT/AOT_stimuli/rescaled_final/1822_fw.mp4	0.0	242.30562376976013	2.500354051589966
50	228.24733304977417	pulse	1	t		48.0	2.5	/experiments/Knapen_AOT/AOT_stimuli/rescaled_final/1822_fw.mp4	0.0	243.89409685134888	
50	229.1592140197754	fix_post	2		12	48.0	2.5	/experiments/Knapen_AOT/AOT_stimuli/rescaled_final/1822_fw.mp4	0.0	244.8059778213501	0.09998822212219238
51	229.25920224189758	fix_pre	0		120	49.0	2.5	blank	1.0	244.9059660434723	1.0001742839813232
51	229.84310913085938	pulse	0	t		49.0	2.5	blank	1.0	245.48987293243408	
51	230.2593765258789	movie	1		300	49.0	2.5	blank	1.0	245.9061403274536	2.5003888607025146
51	231.4431369304657	pulse	1	t		49.0	2.5	blank	1.0	247.0899007320404	
51	232.75976538658142	fix_post	2		12	49.0	2.5	blank	1.0	248.40652918815613	0.10005331039428711
52	232.8598186969757	fix_pre	0		120	50.0	2.5	/experiments/Knapen_AOT/AOT_stimuli/rescaled_final/0489_rv.mp4	0.0	248.50658249855042	1.008394479751587
52	233.04329919815063	pulse	0	t		50.0	2.5	/experiments/Knapen_AOT/AOT_stimuli/rescaled_final/0489_rv.mp4	0.0	248.69006299972534	
52	233.8682131767273	movie	1		272	50.0	2.5	/experiments/Knapen_AOT/AOT_stimuli/rescaled_final/0489_rv.mp4	0.0	249.514976978302	2.492084264755249
52	234.6416299343109	pulse	1	t		50.0	2.5	/experiments/Knapen_AOT/AOT_stimuli/rescaled_final/0489_rv.mp4	0.0	250.28839373588562	
52	236.24190068244934	pulse	1	t		50.0	2.5	/experiments/Knapen_AOT/AOT_stimuli/rescaled_final/0489_rv.mp4	0.0	251.88866448402405	
52	236.36029744148254	fix_post	2		12	50.0	2.5	/experiments/Knapen_AOT/AOT_stimuli/rescaled_final/0489_rv.mp4	0.0	252.00706124305725	0.10005998611450195
53	236.46035742759705	fix_pre	0		120	51.0	2.5	/experiments/Knapen_AOT/AOT_stimuli/rescaled_final/0360_fw.mp4	0.0	252.10712122917175	1.008523941040039
53	237.46888136863708	movie	1		284	51.0	2.5	/experiments/Knapen_AOT/AOT_stimuli/rescaled_final/0360_fw.mp4	0.0	253.1156451702118	2.4919517040252686
53	237.84427523612976	pulse	1	t		51.0	2.5	/experiments/Knapen_AOT/AOT_stimuli/rescaled_final/0360_fw.mp4	0.0	253.49103903770447	
53	239.44232606887817	pulse	1	t		51.0	2.5	/experiments/Knapen_AOT/AOT_stimuli/rescaled_final/0360_fw.mp4	0.0	255.08908987045288	
53	239.96083307266235	fix_post	2		12	51.0	2.5	/experiments/Knapen_AOT/AOT_stimuli/rescaled_final/0360_fw.mp4	0.0	255.60759687423706	0.10000944137573242
54	240.0608425140381	fix_pre	0		118	52.0	2.5	/experiments/Knapen_AOT/AOT_stimuli/rescaled_final/1963_fw.mp4	0.0	255.7076063156128	0.9918394088745117
54	241.03635048866272	pulse	0	t		52.0	2.5	/experiments/Knapen_AOT/AOT_stimuli/rescaled_final/1963_fw.mp4	0.0	256.6831142902374	
54	241.0526819229126	movie	1		276	52.0	2.5	/experiments/Knapen_AOT/AOT_stimuli/rescaled_final/1963_fw.mp4	0.0	256.6994457244873	2.5003502368927
54	242.63665103912354	pulse	1	t		52.0	2.5	/experiments/Knapen_AOT/AOT_stimuli/rescaled_final/1963_fw.mp4	0.0	258.28341484069824	
54	243.5530321598053	fix_post	2		12	52.0	2.5	/experiments/Knapen_AOT/AOT_stimuli/rescaled_final/1963_fw.mp4	0.0	259.19979596138	0.10002613067626953
55	243.65305829048157	fix_pre	0		120	53.0	2.5	/experiments/Knapen_AOT/AOT_stimuli/rescaled_final/2176_rv.mp4	0.0	259.2998220920563	1.0085241794586182
55	244.23670768737793	pulse	0	t		53.0	2.5	/experiments/Knapen_AOT/AOT_stimuli/rescaled_final/2176_rv.mp4	0.0	259.88347148895264	
55	244.66158246994019	movie	1		272	53.0	2.5	/experiments/Knapen_AOT/AOT_stimuli/rescaled_final/2176_rv.mp4	0.0	260.3083462715149	2.4919867515563965
55	245.83644342422485	pulse	1	t		53.0	2.5	/experiments/Knapen_AOT/AOT_stimuli/rescaled_final/2176_rv.mp4	0.0	261.48320722579956	
55	247.15356922149658	fix_post	2		12	53.0	2.5	/experiments/Knapen_AOT/AOT_stimuli/rescaled_final/2176_rv.mp4	0.0	262.8003330230713	0.10006594657897949
56	247.25363516807556	fix_pre	0		120	54.0	2.5	blank	1.0	262.90039896965027	1.0001165866851807
56	247.4371953010559	pulse	0	t		54.0	2.5	blank	1.0	263.0839591026306	
56	248.25375175476074	movie	1		300	54.0	2.5	blank	1.0	263.90051555633545	2.5003960132598877
56	249.03745532035828	pulse	1	t		54.0	2.5	blank	1.0	264.684219121933	
56	250.6378071308136	pulse	1	t		54.0	2.5	blank	1.0	266.2845709323883	
56	250.75414776802063	fix_post	2		12	54.0	2.5	blank	1.0	266.40091156959534	0.09996414184570312
57	250.85411190986633	fix_pre	0		120	55.0	2.5	/experiments/Knapen_AOT/AOT_stimuli/rescaled_final/1434_rv.mp4	0.0	266.50087571144104	1.0085065364837646
57	251.8626184463501	movie	1		270	55.0	2.5	/experiments/Knapen_AOT/AOT_stimuli/rescaled_final/1434_rv.mp4	0.0	267.5093822479248	2.4920601844787598
57	252.23813581466675	pulse	1	t		55.0	2.5	/experiments/Knapen_AOT/AOT_stimuli/rescaled_final/1434_rv.mp4	0.0	267.88489961624146	
57	253.8383014202118	pulse	1	t		55.0	2.5	/experiments/Knapen_AOT/AOT_stimuli/rescaled_final/1434_rv.mp4	0.0	269.4850652217865	
57	254.35467863082886	fix_post	2		12	55.0	2.5	/experiments/Knapen_AOT/AOT_stimuli/rescaled_final/1434_rv.mp4	0.0	270.00144243240356	0.1000359058380127
58	254.45471453666687	fix_pre	0		119	56.0	2.5	/experiments/Knapen_AOT/AOT_stimuli/rescaled_final/1905_rv.mp4	0.0	270.1014783382416	1.0085184574127197
58	255.43839764595032	pulse	0	t		56.0	2.5	/experiments/Knapen_AOT/AOT_stimuli/rescaled_final/1905_rv.mp4	0.0	271.085161447525	
58	255.4632329940796	movie	1		276	56.0	2.5	/experiments/Knapen_AOT/AOT_stimuli/rescaled_final/1905_rv.mp4	0.0	271.1099967956543	2.491975784301758
58	257.03736639022827	pulse	1	t		56.0	2.5	/experiments/Knapen_AOT/AOT_stimuli/rescaled_final/1905_rv.mp4	0.0	272.684130191803	
58	257.95520877838135	fix_post	2		12	56.0	2.5	/experiments/Knapen_AOT/AOT_stimuli/rescaled_final/1905_rv.mp4	0.0	273.60197257995605	0.10001802444458008
59	258.0552268028259	fix_pre	0		120	57.0	2.5	/experiments/Knapen_AOT/AOT_stimuli/rescaled_final/2058_rv.mp4	0.0	273.70199060440063	1.0085160732269287
59	258.6388463973999	pulse	0	t		57.0	2.5	/experiments/Knapen_AOT/AOT_stimuli/rescaled_final/2058_rv.mp4	0.0	274.2856101989746	
59	259.06374287605286	movie	1		280	57.0	2.5	/experiments/Knapen_AOT/AOT_stimuli/rescaled_final/2058_rv.mp4	0.0	274.71050667762756	2.492021322250366
59	260.2376697063446	pulse	1	t		57.0	2.5	/experiments/Knapen_AOT/AOT_stimuli/rescaled_final/2058_rv.mp4	0.0	275.8844335079193	
59	261.5557641983032	fix_post	2		12	57.0	2.5	/experiments/Knapen_AOT/AOT_stimuli/rescaled_final/2058_rv.mp4	0.0	277.20252799987793	0.10017061233520508
60	261.6559348106384	fix_pre	0		120	58.0	2.5	/experiments/Knapen_AOT/AOT_stimuli/rescaled_final/0791_fw.mp4	0.0	277.30269861221313	1.008333683013916
60	261.83936190605164	pulse	0	t		58.0	2.5	/experiments/Knapen_AOT/AOT_stimuli/rescaled_final/0791_fw.mp4	0.0	277.48612570762634	
60	262.66426849365234	movie	1		273	58.0	2.5	/experiments/Knapen_AOT/AOT_stimuli/rescaled_final/0791_fw.mp4	0.0	278.31103229522705	2.4920501708984375
60	263.437712430954	pulse	1	t		58.0	2.5	/experiments/Knapen_AOT/AOT_stimuli/rescaled_final/0791_fw.mp4	0.0	279.0844762325287	
60	265.03776812553406	pulse	1	t		58.0	2.5	/experiments/Knapen_AOT/AOT_stimuli/rescaled_final/0791_fw.mp4	0.0	280.68453192710876	
60	265.1563186645508	fix_post	2		12	58.0	2.5	/experiments/Knapen_AOT/AOT_stimuli/rescaled_final/0791_fw.mp4	0.0	280.8030824661255	0.10001659393310547
61	265.2563352584839	fix_pre	0		120	59.0	2.5	/experiments/Knapen_AOT/AOT_stimuli/rescaled_final/0507_rv.mp4	0.0	280.9030990600586	1.0084443092346191
61	266.2647795677185	movie	1		271	59.0	2.5	/experiments/Knapen_AOT/AOT_stimuli/rescaled_final/0507_rv.mp4	0.0	281.9115433692932	2.492077350616455
61	266.63974595069885	pulse	1	t		59.0	2.5	/experiments/Knapen_AOT/AOT_stimuli/rescaled_final/0507_rv.mp4	0.0	282.28650975227356	
61	268.24084520339966	pulse	1	t		59.0	2.5	/experiments/Knapen_AOT/AOT_stimuli/rescaled_final/0507_rv.mp4	0.0	283.88760900497437	
61	268.75685691833496	fix_post	2		12	59.0	2.5	/experiments/Knapen_AOT/AOT_stimuli/rescaled_final/0507_rv.mp4	0.0	284.40362071990967	0.10006570816040039
62	268.85692262649536	fix_pre	0		119	60.0	2.5	/experiments/Knapen_AOT/AOT_stimuli/rescaled_final/1065_rv.mp4	0.0	284.50368642807007	1.008519172668457
62	269.8405601978302	pulse	0	t		60.0	2.5	/experiments/Knapen_AOT/AOT_stimuli/rescaled_final/1065_rv.mp4	0.0	285.4873239994049	
62	269.8654417991638	movie	1		281	60.0	2.5	/experiments/Knapen_AOT/AOT_stimuli/rescaled_final/1065_rv.mp4	0.0	285.5122056007385	2.491960287094116
62	271.43940019607544	pulse	1	t		60.0	2.5	/experiments/Knapen_AOT/AOT_stimuli/rescaled_final/1065_rv.mp4	0.0	287.08616399765015	
62	272.35740208625793	fix_post	2		12	60.0	2.5	/experiments/Knapen_AOT/AOT_stimuli/rescaled_final/1065_rv.mp4	0.0	288.00416588783264	0.0999760627746582
63	272.4573781490326	fix_pre	0		120	61.0	2.5	/experiments/Knapen_AOT/AOT_stimuli/rescaled_final/1822_fw.mp4	0.0	288.1041419506073	1.008495569229126
63	273.04112696647644	pulse	0	t		61.0	2.5	/experiments/Knapen_AOT/AOT_stimuli/rescaled_final/1822_fw.mp4	0.0	288.68789076805115	
63	273.4658737182617	movie	1		278	61.0	2.5	/experiments/Knapen_AOT/AOT_stimuli/rescaled_final/1822_fw.mp4	0.0	289.1126375198364	2.49214506149292
63	274.6411509513855	pulse	1	t		61.0	2.5	/experiments/Knapen_AOT/AOT_stimuli/rescaled_final/1822_fw.mp4	0.0	290.2879147529602	
63	275.95801877975464	fix_post	2		12	61.0	2.5	/experiments/Knapen_AOT/AOT_stimuli/rescaled_final/1822_fw.mp4	0.0	291.60478258132935	0.09987545013427734
64	276.0578942298889	fix_pre	0		120	62.0	2.5	blank	1.0	291.7046580314636	1.0002658367156982
64	276.24149537086487	pulse	0	t		62.0	2.5	blank	1.0	291.8882591724396	
64	277.0581600666046	movie	1		300	62.0	2.5	blank	1.0	292.7049238681793	2.5002822875976562
64	277.8418712615967	pulse	1	t		62.0	2.5	blank	1.0	293.4886350631714	
64	279.4419894218445	pulse	1	t		62.0	2.5	blank	1.0	295.0887532234192	
64	279.55844235420227	fix_post	2		12	62.0	2.5	blank	1.0	295.205206155777	0.1000213623046875
65	279.65846371650696	fix_pre	0		120	63.0	2.5	/experiments/Knapen_AOT/AOT_stimuli/rescaled_final/0735_fw.mp4	0.0	295.30522751808167	1.0084919929504395
65	280.6669557094574	movie	1		262	63.0	2.5	/experiments/Knapen_AOT/AOT_stimuli/rescaled_final/0735_fw.mp4	0.0	296.3137195110321	2.4920356273651123
65	281.04237055778503	pulse	1	t		63.0	2.5	/experiments/Knapen_AOT/AOT_stimuli/rescaled_final/0735_fw.mp4	0.0	296.68913435935974	
65	282.6407904624939	pulse	1	t		63.0	2.5	/experiments/Knapen_AOT/AOT_stimuli/rescaled_final/0735_fw.mp4	0.0	298.2875542640686	
65	283.1589913368225	fix_post	2		12	63.0	2.5	/experiments/Knapen_AOT/AOT_stimuli/rescaled_final/0735_fw.mp4	0.0	298.8057551383972	0.1000208854675293
66	283.25901222229004	fix_pre	0		119	64.0	2.5	/experiments/Knapen_AOT/AOT_stimuli/rescaled_final/0636_rv.mp4	0.0	298.90577602386475	1.000154972076416
66	284.2429313659668	pulse	0	t		64.0	2.5	/experiments/Knapen_AOT/AOT_stimuli/rescaled_final/0636_rv.mp4	0.0	299.8896951675415	
66	284.25916719436646	movie	1		290	64.0	2.5	/experiments/Knapen_AOT/AOT_stimuli/rescaled_final/0636_rv.mp4	0.0	299.90593099594116	2.5003623962402344
66	285.84142661094666	pulse	1	t		64.0	2.5	/experiments/Knapen_AOT/AOT_stimuli/rescaled_final/0636_rv.mp4	0.0	301.48819041252136	
66	286.7595295906067	fix_post	2		12	64.0	2.5	/experiments/Knapen_AOT/AOT_stimuli/rescaled_final/0636_rv.mp4	0.0	302.4062933921814	0.10001730918884277
67	286.85954689979553	fix_pre	0		120	65.0	2.5	/experiments/Knapen_AOT/AOT_stimuli/rescaled_final/0711_fw.mp4	0.0	302.50631070137024	1.0085093975067139
67	287.443217754364	pulse	0	t		65.0	2.5	/experiments/Knapen_AOT/AOT_stimuli/rescaled_final/0711_fw.mp4	0.0	303.0899815559387	
67	287.86805629730225	movie	1		277	65.0	2.5	/experiments/Knapen_AOT/AOT_stimuli/rescaled_final/0711_fw.mp4	0.0	303.51482009887695	2.4920284748077393
67	289.0418803691864	pulse	1	t		65.0	2.5	/experiments/Knapen_AOT/AOT_stimuli/rescaled_final/0711_fw.mp4	0.0	304.6886441707611	
67	290.36008477211	fix_post	2		12	65.0	2.5	/experiments/Knapen_AOT/AOT_stimuli/rescaled_final/0711_fw.mp4	0.0	306.0068485736847	0.1000981330871582
68	290.46018290519714	fix_pre	0		120	66.0	2.5	/experiments/Knapen_AOT/AOT_stimuli/rescaled_final/2083_fw.mp4	0.0	306.10694670677185	1.0084655284881592
68	290.6436903476715	pulse	0	t		66.0	2.5	/experiments/Knapen_AOT/AOT_stimuli/rescaled_final/2083_fw.mp4	0.0	306.2904541492462	
68	291.4686484336853	movie	1		283	66.0	2.5	/experiments/Knapen_AOT/AOT_stimuli/rescaled_final/2083_fw.mp4	0.0	307.11541223526	2.49200439453125
68	292.2419698238373	pulse	1	t		66.0	2.5	/experiments/Knapen_AOT/AOT_stimuli/rescaled_final/2083_fw.mp4	0.0	307.888733625412	
68	293.8448202610016	pulse	1	t		66.0	2.5	/experiments/Knapen_AOT/AOT_stimuli/rescaled_final/2083_fw.mp4	0.0	309.4915840625763	
68	293.96065282821655	fix_post	2		12	66.0	2.5	/experiments/Knapen_AOT/AOT_stimuli/rescaled_final/2083_fw.mp4	0.0	309.60741662979126	0.09998369216918945
69	294.06063652038574	fix_pre	0		120	67.0	2.5	/experiments/Knapen_AOT/AOT_stimuli/rescaled_final/2026_rv.mp4	0.0	309.70740032196045	1.0084686279296875
69	295.06910514831543	movie	1		264	67.0	2.5	/experiments/Knapen_AOT/AOT_stimuli/rescaled_final/2026_rv.mp4	0.0	310.71586894989014	2.4920718669891357
69	295.4427239894867	pulse	1	t		67.0	2.5	/experiments/Knapen_AOT/AOT_stimuli/rescaled_final/2026_rv.mp4	0.0	311.0894877910614	
69	297.0431184768677	pulse	1	t		67.0	2.5	/experiments/Knapen_AOT/AOT_stimuli/rescaled_final/2026_rv.mp4	0.0	312.6898822784424	
69	297.56117701530457	fix_post	2		12	67.0	2.5	/experiments/Knapen_AOT/AOT_stimuli/rescaled_final/2026_rv.mp4	0.0	313.2079408168793	0.10001921653747559
70	297.66119623184204	fix_pre	0		118	68.0	2.5	/experiments/Knapen_AOT/AOT_stimuli/rescaled_final/1214_fw.mp4	0.0	313.30796003341675	0.991858959197998
70	298.6367313861847	pulse	0	t		68.0	2.5	/experiments/Knapen_AOT/AOT_stimuli/rescaled_final/1214_fw.mp4	0.0	314.2834951877594	
70	298.65305519104004	movie	1		279	68.0	2.5	/experiments/Knapen_AOT/AOT_stimuli/rescaled_final/1214_fw.mp4	0.0	314.29981899261475	2.5003151893615723
70	300.23700189590454	pulse	1	t		68.0	2.5	/experiments/Knapen_AOT/AOT_stimuli/rescaled_final/1214_fw.mp4	0.0	315.88376569747925	
70	301.1533703804016	fix_post	2		12	68.0	2.5	/experiments/Knapen_AOT/AOT_stimuli/rescaled_final/1214_fw.mp4	0.0	316.8001341819763	0.10004591941833496
71	301.25341629981995	fix_pre	0		120	69.0	2.5	/experiments/Knapen_AOT/AOT_stimuli/rescaled_final/0051_rv.mp4	0.0	316.90018010139465	1.0084643363952637
71	301.83715534210205	pulse	0	t		69.0	2.5	/experiments/Knapen_AOT/AOT_stimuli/rescaled_final/0051_rv.mp4	0.0	317.48391914367676	
71	302.2618806362152	movie	1		276	69.0	2.5	/experiments/Knapen_AOT/AOT_stimuli/rescaled_final/0051_rv.mp4	0.0	317.9086444377899	2.492032289505005
71	303.4374463558197	pulse	1	t		69.0	2.5	/experiments/Knapen_AOT/AOT_stimuli/rescaled_final/0051_rv.mp4	0.0	319.0842101573944	
71	304.7539129257202	fix_post	2		12	69.0	2.5	/experiments/Knapen_AOT/AOT_stimuli/rescaled_final/0051_rv.mp4	0.0	320.4006767272949	0.10000014305114746
72	304.85391306877136	fix_pre	0		120	70.0	2.5	blank	1.0	320.50067687034607	1.0001463890075684
72	305.0374937057495	pulse	0	t		70.0	2.5	blank	1.0	320.6842575073242	
72	305.85405945777893	movie	1		300	70.0	2.5	blank	1.0	321.50082325935364	2.500405788421631
72	306.6378231048584	pulse	1	t		70.0	2.5	blank	1.0	322.2845869064331	
72	308.2382376194	pulse	1	t		70.0	2.5	blank	1.0	323.88500142097473	
72	308.35446524620056	fix_post	2		12	70.0	2.5	blank	1.0	324.00122904777527	0.10009193420410156
73	308.45455718040466	fix_pre	0		120	71.0	2.5	/experiments/Knapen_AOT/AOT_stimuli/rescaled_final/0631_rv.mp4	0.0	324.10132098197937	1.0084059238433838
73	309.46296310424805	movie	1		274	71.0	2.5	/experiments/Knapen_AOT/AOT_stimuli/rescaled_final/0631_rv.mp4	0.0	325.10972690582275	2.4920742511749268
73	309.83701634407043	pulse	1	t		71.0	2.5	/experiments/Knapen_AOT/AOT_stimuli/rescaled_final/0631_rv.mp4	0.0	325.48378014564514	
73	311.4368932247162	pulse	1	t		71.0	2.5	/experiments/Knapen_AOT/AOT_stimuli/rescaled_final/0631_rv.mp4	0.0	327.0836570262909	
73	311.955037355423	fix_post	2		12	71.0	2.5	/experiments/Knapen_AOT/AOT_stimuli/rescaled_final/0631_rv.mp4	0.0	327.6018011569977	0.10002899169921875
74	312.0550663471222	fix_pre	0		119	72.0	2.5	/experiments/Knapen_AOT/AOT_stimuli/rescaled_final/0395_rv.mp4	0.0	327.7018301486969	1.000077486038208
74	313.0387063026428	pulse	0	t		72.0	2.5	/experiments/Knapen_AOT/AOT_stimuli/rescaled_final/0395_rv.mp4	0.0	328.68547010421753	
74	313.0551438331604	movie	1		270	72.0	2.5	/experiments/Knapen_AOT/AOT_stimuli/rescaled_final/0395_rv.mp4	0.0	328.7019076347351	2.500375509262085
74	314.6377983093262	pulse	1	t		72.0	2.5	/experiments/Knapen_AOT/AOT_stimuli/rescaled_final/0395_rv.mp4	0.0	330.2845621109009	
74	315.5555193424225	fix_post	2		12	72.0	2.5	/experiments/Knapen_AOT/AOT_stimuli/rescaled_final/0395_rv.mp4	0.0	331.2022831439972	0.10002326965332031
75	315.6555426120758	fix_pre	0		120	73.0	2.5	/experiments/Knapen_AOT/AOT_stimuli/rescaled_final/2173_fw.mp4	0.0	331.3023064136505	1.0085055828094482
75	316.2392647266388	pulse	0	t		73.0	2.5	/experiments/Knapen_AOT/AOT_stimuli/rescaled_final/2173_fw.mp4	0.0	331.8860285282135	
75	316.66404819488525	movie	1		279	73.0	2.5	/experiments/Knapen_AOT/AOT_stimuli/rescaled_final/2173_fw.mp4	0.0	332.31081199645996	2.492013931274414
75	317.8379964828491	pulse	1	t		73.0	2.5	/experiments/Knapen_AOT/AOT_stimuli/rescaled_final/2173_fw.mp4	0.0	333.4847602844238	
75	319.15606212615967	fix_post	2		12	73.0	2.5	/experiments/Knapen_AOT/AOT_stimuli/rescaled_final/2173_fw.mp4	0.0	334.8028259277344	0.10016179084777832
76	319.25622391700745	fix_pre	0		120	74.0	2.5	/experiments/Knapen_AOT/AOT_stimuli/rescaled_final/2102_fw.mp4	0.0	334.90298771858215	1.008394718170166
76	319.43971610069275	pulse	0	t		74.0	2.5	/experiments/Knapen_AOT/AOT_stimuli/rescaled_final/2102_fw.mp4	0.0	335.08647990226746	
76	320.2646186351776	movie	1		285	74.0	2.5	/experiments/Knapen_AOT/AOT_stimuli/rescaled_final/2102_fw.mp4	0.0	335.9113824367523	2.4919958114624023
76	321.0387613773346	pulse	1	t		74.0	2.5	/experiments/Knapen_AOT/AOT_stimuli/rescaled_final/2102_fw.mp4	0.0	336.6855251789093	
76	322.63852763175964	pulse	1	t		74.0	2.5	/experiments/Knapen_AOT/AOT_stimuli/rescaled_final/2102_fw.mp4	0.0	338.28529143333435	
76	322.75661444664	fix_post	2		12	74.0	2.5	/experiments/Knapen_AOT/AOT_stimuli/rescaled_final/2102_fw.mp4	0.0	338.4033782482147	0.10001826286315918
77	322.8566327095032	fix_pre	0		120	75.0	2.5	/experiments/Knapen_AOT/AOT_stimuli/rescaled_final/1038_fw.mp4	0.0	338.5033965110779	1.008488416671753
77	323.8651211261749	movie	1		285	75.0	2.5	/experiments/Knapen_AOT/AOT_stimuli/rescaled_final/1038_fw.mp4	0.0	339.51188492774963	2.4920225143432617
77	324.2395761013031	pulse	1	t		75.0	2.5	/experiments/Knapen_AOT/AOT_stimuli/rescaled_final/1038_fw.mp4	0.0	339.8863399028778	
77	325.83881092071533	pulse	1	t		75.0	2.5	/experiments/Knapen_AOT/AOT_stimuli/rescaled_final/1038_fw.mp4	0.0	341.48557472229004	
77	326.3571436405182	fix_post	2		12	75.0	2.5	/experiments/Knapen_AOT/AOT_stimuli/rescaled_final/1038_fw.mp4	0.0	342.0039074420929	0.10003089904785156
78	326.45717453956604	fix_pre	0		119	76.0	2.5	/experiments/Knapen_AOT/AOT_stimuli/rescaled_final/0473_fw.mp4	0.0	342.10393834114075	1.0086100101470947
78	327.4408688545227	pulse	0	t		76.0	2.5	/experiments/Knapen_AOT/AOT_stimuli/rescaled_final/0473_fw.mp4	0.0	343.0876326560974	
78	327.46578454971313	movie	1		276	76.0	2.5	/experiments/Knapen_AOT/AOT_stimuli/rescaled_final/0473_fw.mp4	0.0	343.11254835128784	2.491903066635132
78	329.0399534702301	pulse	1	t		76.0	2.5	/experiments/Knapen_AOT/AOT_stimuli/rescaled_final/0473_fw.mp4	0.0	344.6867172718048	
78	329.95768761634827	fix_post	2		12	76.0	2.5	/experiments/Knapen_AOT/AOT_stimuli/rescaled_final/0473_fw.mp4	0.0	345.604451417923	0.10009551048278809
79	330.05778312683105	fix_pre	0		120	77.0	2.5	blank	1.0	345.70454692840576	1.000084638595581
79	330.6414589881897	pulse	0	t		77.0	2.5	blank	1.0	346.2882227897644	
79	331.05786776542664	movie	1		300	77.0	2.5	blank	1.0	346.70463156700134	2.5003719329833984
79	332.2416524887085	pulse	1	t		77.0	2.5	blank	1.0	347.8884162902832	
79	333.55823969841003	fix_post	2		12	77.0	2.5	blank	1.0	349.20500349998474	0.1000523567199707
80	333.65829205513	fix_pre	0		120	78.0	2.5	/experiments/Knapen_AOT/AOT_stimuli/rescaled_final/0814_fw.mp4	0.0	349.3050558567047	1.0085721015930176
80	333.8418056964874	pulse	0	t		78.0	2.5	/experiments/Knapen_AOT/AOT_stimuli/rescaled_final/0814_fw.mp4	0.0	349.48856949806213	
80	334.666864156723	movie	1		248	78.0	2.5	/experiments/Knapen_AOT/AOT_stimuli/rescaled_final/0814_fw.mp4	0.0	350.31362795829773	2.4919657707214355
80	335.4403131008148	pulse	1	t		78.0	2.5	/experiments/Knapen_AOT/AOT_stimuli/rescaled_final/0814_fw.mp4	0.0	351.0870769023895	
80	337.0433728694916	pulse	1	t		78.0	2.5	/experiments/Knapen_AOT/AOT_stimuli/rescaled_final/0814_fw.mp4	0.0	352.6901366710663	
80	337.15882992744446	fix_post	2		12	78.0	2.5	/experiments/Knapen_AOT/AOT_stimuli/rescaled_final/0814_fw.mp4	0.0	352.80559372901917	0.09998774528503418
81	337.2588176727295	fix_pre	0		120	79.0	2.5	/experiments/Knapen_AOT/AOT_stimuli/rescaled_final/1201_rv.mp4	0.0	352.9055814743042	1.0085103511810303
81	338.2673280239105	movie	1		269	79.0	2.5	/experiments/Knapen_AOT/AOT_stimuli/rescaled_final/1201_rv.mp4	0.0	353.91409182548523	2.4920029640197754
81	338.6411225795746	pulse	1	t		79.0	2.5	/experiments/Knapen_AOT/AOT_stimuli/rescaled_final/1201_rv.mp4	0.0	354.2878863811493	
81	340.24088525772095	pulse	1	t		79.0	2.5	/experiments/Knapen_AOT/AOT_stimuli/rescaled_final/1201_rv.mp4	0.0	355.88764905929565	
81	340.7593309879303	fix_post	2		12	79.0	2.5	/experiments/Knapen_AOT/AOT_stimuli/rescaled_final/1201_rv.mp4	0.0	356.406094789505	0.10001254081726074
82	340.85934352874756	fix_pre	0		119	80.0	2.5	/experiments/Knapen_AOT/AOT_stimuli/rescaled_final/1155_fw.mp4	0.0	356.50610733032227	1.008537769317627
82	341.8432152271271	pulse	0	t		80.0	2.5	/experiments/Knapen_AOT/AOT_stimuli/rescaled_final/1155_fw.mp4	0.0	357.4899790287018	
82	341.8678812980652	movie	1		277	80.0	2.5	/experiments/Knapen_AOT/AOT_stimuli/rescaled_final/1155_fw.mp4	0.0	357.5146450996399	2.4919679164886475
82	343.44197726249695	pulse	1	t		80.0	2.5	/experiments/Knapen_AOT/AOT_stimuli/rescaled_final/1155_fw.mp4	0.0	359.08874106407166	
82	344.35984921455383	fix_post	2		12	80.0	2.5	/experiments/Knapen_AOT/AOT_stimuli/rescaled_final/1155_fw.mp4	0.0	360.00661301612854	0.10002875328063965
83	344.4598779678345	fix_pre	0		120	81.0	2.5	/experiments/Knapen_AOT/AOT_stimuli/rescaled_final/1462_fw.mp4	0.0	360.1066417694092	1.0084939002990723
83	345.0435063838959	pulse	0	t		81.0	2.5	/experiments/Knapen_AOT/AOT_stimuli/rescaled_final/1462_fw.mp4	0.0	360.6902701854706	
83	345.46837186813354	movie	1		279	81.0	2.5	/experiments/Knapen_AOT/AOT_stimuli/rescaled_final/1462_fw.mp4	0.0	361.11513566970825	2.500359535217285
83	346.6421720981598	pulse	1	t		81.0	2.5	/experiments/Knapen_AOT/AOT_stimuli/rescaled_final/1462_fw.mp4	0.0	362.2889358997345	
83	347.96873140335083	fix_post	2		11	81.0	2.5	/experiments/Knapen_AOT/AOT_stimuli/rescaled_final/1462_fw.mp4	0.0	363.61549520492554	0.09173321723937988
84	348.0604646205902	fix_pre	0		120	82.0	2.5	/experiments/Knapen_AOT/AOT_stimuli/rescaled_final/1270_rv.mp4	0.0	363.7072284221649	1.0084295272827148
84	348.2386260032654	pulse	0	t		82.0	2.5	/experiments/Knapen_AOT/AOT_stimuli/rescaled_final/1270_rv.mp4	0.0	363.8853898048401	
84	349.0688941478729	movie	1		269	82.0	2.5	/experiments/Knapen_AOT/AOT_stimuli/rescaled_final/1270_rv.mp4	0.0	364.71565794944763	2.4920570850372314
84	349.8427093029022	pulse	1	t		82.0	2.5	/experiments/Knapen_AOT/AOT_stimuli/rescaled_final/1270_rv.mp4	0.0	365.48947310447693	
84	351.444678068161	pulse	1	t		82.0	2.5	/experiments/Knapen_AOT/AOT_stimuli/rescaled_final/1270_rv.mp4	0.0	367.0914418697357	
84	351.56095123291016	fix_post	2		12	82.0	2.5	/experiments/Knapen_AOT/AOT_stimuli/rescaled_final/1270_rv.mp4	0.0	367.20771503448486	0.10007596015930176
85	351.66102719306946	fix_pre	0		120	83.0	2.5	blank	1.0	367.30779099464417	1.0000598430633545
85	352.6610870361328	movie	1		300	83.0	2.5	blank	1.0	368.3078508377075	2.5004265308380127
85	353.04469537734985	pulse	1	t		83.0	2.5	blank	1.0	368.69145917892456	
85	354.6369638442993	pulse	1	t		83.0	2.5	blank	1.0	370.283727645874	
85	355.1615135669708	fix_post	2		12	83.0	2.5	blank	1.0	370.80827736854553	0.09998822212219238
87	355.261501789093	stim	0		1715					370.9082655906677	14.293814182281494
87	356.2371275424957	pulse	0	t						371.88389134407043	
87	357.83787965774536	pulse	0	t						373.48464345932007	
87	359.4378538131714	pulse	0	t						375.0846176147461	
87	361.0379316806793	pulse	0	t						376.684695482254	
87	362.6381642818451	pulse	0	t						378.2849280834198	
87	364.2382996082306	pulse	0	t						379.8850634098053	
87	365.8382918834686	pulse	0	t						381.48505568504333	
87	367.4385507106781	pulse	0	t						383.0853145122528	
87	369.03880739212036	pulse	0	t						384.68557119369507	
