trial_nr	onset	event_type	phase	response	nr_frames	movie_index	movie_duration	movie_file	blank	onset_abs	duration
0	0.14170289039611816	stim	0		701					1884.9979939460754	5.874902963638306
0	6.004431962966919	response	0	space						1890.8607230186462	
1	6.016605854034424	stim	0		71459					1890.8728969097137	595.4971680641174
1	601.5024559497833	pulse	0	t						2486.3587470054626	
1	601.5137739181519	stim	1		1716					2486.370064973831	14.299602031707764
1	603.0973479747772	pulse	1	t						2487.9536390304565	
1	604.6972219944	pulse	1	t						2489.5535130500793	
1	606.2972249984741	pulse	1	t						2491.1535160541534	
1	607.8972690105438	pulse	1	t						2492.753560066223	
1	609.497232913971	pulse	1	t						2494.3535239696503	
1	611.0971817970276	pulse	1	t						2495.953472852707	
1	612.6973178386688	pulse	1	t						2497.553608894348	
1	614.2973318099976	pulse	1	t						2499.153622865677	
2	615.8133759498596	fix_pre	0		11	0.0	2.5	/experiments/AOT/AOT_stimuli/rescaled_final/1223_rv.mp4	0.0	2500.669667005539	0.10825705528259277
2	615.8967428207397	pulse	0	t		0.0	2.5	/experiments/AOT/AOT_stimuli/rescaled_final/1223_rv.mp4	0.0	2500.753033876419	
2	615.9216330051422	movie	1		249	0.0	2.5	/experiments/AOT/AOT_stimuli/rescaled_final/1223_rv.mp4	0.0	2500.7779240608215	2.492374897003174
2	617.496729850769	pulse	1	t		0.0	2.5	/experiments/AOT/AOT_stimuli/rescaled_final/1223_rv.mp4	0.0	2502.3530209064484	
2	618.4140079021454	fix_post	2		12	0.0	2.5	/experiments/AOT/AOT_stimuli/rescaled_final/1223_rv.mp4	0.0	2503.2702989578247	0.09958291053771973
3	618.5135908126831	fix_pre	0		120	1.0	2.5	/experiments/AOT/AOT_stimuli/rescaled_final/0733_fw.mp4	0.0	2503.3698818683624	1.000124216079712
3	619.0972459316254	pulse	0	t		1.0	2.5	/experiments/AOT/AOT_stimuli/rescaled_final/0733_fw.mp4	0.0	2503.9535369873047	
3	619.5137150287628	movie	1		244	1.0	2.5	/experiments/AOT/AOT_stimuli/rescaled_final/0733_fw.mp4	0.0	2504.370006084442	2.499950885772705
3	620.697126865387	pulse	1	t		1.0	2.5	/experiments/AOT/AOT_stimuli/rescaled_final/0733_fw.mp4	0.0	2505.5534179210663	
3	622.0136659145355	fix_post	2		12	1.0	2.5	/experiments/AOT/AOT_stimuli/rescaled_final/0733_fw.mp4	0.0	2506.869956970215	0.10000300407409668
4	622.1136689186096	fix_pre	0		120	2.0	2.5	/experiments/AOT/AOT_stimuli/rescaled_final/0097_rv.mp4	0.0	2506.969959974289	0.9999890327453613
4	622.2971909046173	pulse	0	t		2.0	2.5	/experiments/AOT/AOT_stimuli/rescaled_final/0097_rv.mp4	0.0	2507.1534819602966	
4	623.113657951355	movie	1		244	2.0	2.5	/experiments/AOT/AOT_stimuli/rescaled_final/0097_rv.mp4	0.0	2507.9699490070343	2.4999799728393555
4	623.897029876709	pulse	1	t		2.0	2.5	/experiments/AOT/AOT_stimuli/rescaled_final/0097_rv.mp4	0.0	2508.7533209323883	
4	625.495523929596	pulse	1	t		2.0	2.5	/experiments/AOT/AOT_stimuli/rescaled_final/0097_rv.mp4	0.0	2510.3518149852753	
4	625.6136379241943	fix_post	2		12	2.0	2.5	/experiments/AOT/AOT_stimuli/rescaled_final/0097_rv.mp4	0.0	2510.4699289798737	0.09995889663696289
5	625.7135968208313	fix_pre	0		120	3.0	2.5	/experiments/AOT/AOT_stimuli/rescaled_final/2115_rv.mp4	0.0	2510.5698878765106	1.0
5	626.7135968208313	movie	1		244	3.0	2.5	/experiments/AOT/AOT_stimuli/rescaled_final/2115_rv.mp4	0.0	2511.5698878765106	2.5000131130218506
5	627.0968608856201	pulse	1	t		3.0	2.5	/experiments/AOT/AOT_stimuli/rescaled_final/2115_rv.mp4	0.0	2511.9531519412994	
5	628.6970639228821	pulse	1	t		3.0	2.5	/experiments/AOT/AOT_stimuli/rescaled_final/2115_rv.mp4	0.0	2513.5533549785614	
5	629.2136099338531	fix_post	2		12	3.0	2.5	/experiments/AOT/AOT_stimuli/rescaled_final/2115_rv.mp4	0.0	2514.0699009895325	0.09993505477905273
6	629.3135449886322	fix_pre	0		119	4.0	2.5	/experiments/AOT/AOT_stimuli/rescaled_final/1095_fw.mp4	0.0	2514.1698360443115	0.9917299747467041
6	630.2971079349518	pulse	0	t		4.0	2.5	/experiments/AOT/AOT_stimuli/rescaled_final/1095_fw.mp4	0.0	2515.153398990631	
6	630.3052749633789	movie	1		246	4.0	2.5	/experiments/AOT/AOT_stimuli/rescaled_final/1095_fw.mp4	0.0	2515.1615660190582	2.508270025253296
6	631.8967299461365	pulse	1	t		4.0	2.5	/experiments/AOT/AOT_stimuli/rescaled_final/1095_fw.mp4	0.0	2516.753021001816	
6	632.8135449886322	fix_post	2		12	4.0	2.5	/experiments/AOT/AOT_stimuli/rescaled_final/1095_fw.mp4	0.0	2517.6698360443115	0.10010099411010742
7	632.9136459827423	fix_pre	0		120	5.0	2.5	/experiments/AOT/AOT_stimuli/rescaled_final/0676_fw.mp4	0.0	2517.7699370384216	1.0088179111480713
7	633.4971330165863	pulse	0	t		5.0	2.5	/experiments/AOT/AOT_stimuli/rescaled_final/0676_fw.mp4	0.0	2518.3534240722656	
7	633.9224638938904	movie	1		241	5.0	2.5	/experiments/AOT/AOT_stimuli/rescaled_final/0676_fw.mp4	0.0	2518.7787549495697	2.491547107696533
7	635.097146987915	pulse	1	t		5.0	2.5	/experiments/AOT/AOT_stimuli/rescaled_final/0676_fw.mp4	0.0	2519.9534380435944	
7	636.4140110015869	fix_post	2		12	5.0	2.5	/experiments/AOT/AOT_stimuli/rescaled_final/0676_fw.mp4	0.0	2521.2703020572662	0.09952592849731445
8	636.5135369300842	fix_pre	0		120	6.0	2.5	blank	1.0	2521.3698279857635	1.0000250339508057
8	636.6970779895782	pulse	0	t		6.0	2.5	blank	1.0	2521.5533690452576	
8	637.513561964035	movie	1		300	6.0	2.5	blank	1.0	2522.3698530197144	2.4999849796295166
8	638.2971098423004	pulse	1	t		6.0	2.5	blank	1.0	2523.1534008979797	
8	639.8971848487854	pulse	1	t		6.0	2.5	blank	1.0	2524.7534759044647	
8	640.0135469436646	fix_post	2		12	6.0	2.5	blank	1.0	2524.869837999344	0.10001707077026367
9	640.1135640144348	fix_pre	0		120	7.0	2.5	/experiments/AOT/AOT_stimuli/rescaled_final/0716_rv.mp4	0.0	2524.969855070114	0.9999699592590332
9	641.1135339736938	movie	1		242	7.0	2.5	/experiments/AOT/AOT_stimuli/rescaled_final/0716_rv.mp4	0.0	2525.969825029373	2.5001299381256104
9	641.4979848861694	pulse	1	t		7.0	2.5	/experiments/AOT/AOT_stimuli/rescaled_final/0716_rv.mp4	0.0	2526.3542759418488	
9	643.0970690250397	pulse	1	t		7.0	2.5	/experiments/AOT/AOT_stimuli/rescaled_final/0716_rv.mp4	0.0	2527.953360080719	
9	643.6136639118195	fix_post	2		12	7.0	2.5	/experiments/AOT/AOT_stimuli/rescaled_final/0716_rv.mp4	0.0	2528.469954967499	0.10012102127075195
10	643.7137849330902	fix_pre	0		119	8.0	2.5	/experiments/AOT/AOT_stimuli/rescaled_final/0296_rv.mp4	0.0	2528.5700759887695	0.9914710521697998
10	644.6970539093018	pulse	0	t		8.0	2.5	/experiments/AOT/AOT_stimuli/rescaled_final/0296_rv.mp4	0.0	2529.553344964981	
10	644.70525598526	movie	1		244	8.0	2.5	/experiments/AOT/AOT_stimuli/rescaled_final/0296_rv.mp4	0.0	2529.5615470409393	2.5083298683166504
10	646.2972729206085	pulse	1	t		8.0	2.5	/experiments/AOT/AOT_stimuli/rescaled_final/0296_rv.mp4	0.0	2531.153563976288	
10	647.2135858535767	fix_post	2		12	8.0	2.5	/experiments/AOT/AOT_stimuli/rescaled_final/0296_rv.mp4	0.0	2532.069876909256	0.09993100166320801
11	647.3135168552399	fix_pre	0		120	9.0	2.5	/experiments/AOT/AOT_stimuli/rescaled_final/0800_rv.mp4	0.0	2532.169807910919	1.0000121593475342
11	647.8970220088959	pulse	0	t		9.0	2.5	/experiments/AOT/AOT_stimuli/rescaled_final/0800_rv.mp4	0.0	2532.753313064575	
11	648.3135290145874	movie	1		243	9.0	2.5	/experiments/AOT/AOT_stimuli/rescaled_final/0800_rv.mp4	0.0	2533.1698200702667	2.5000410079956055
11	649.4970889091492	pulse	1	t		9.0	2.5	/experiments/AOT/AOT_stimuli/rescaled_final/0800_rv.mp4	0.0	2534.3533799648285	
11	650.813570022583	fix_post	2		12	9.0	2.5	/experiments/AOT/AOT_stimuli/rescaled_final/0800_rv.mp4	0.0	2535.6698610782623	0.10004496574401855
12	650.913614988327	fix_pre	0		120	10.0	2.5	/experiments/AOT/AOT_stimuli/rescaled_final/0999_rv.mp4	0.0	2535.7699060440063	0.999845027923584
12	651.0969669818878	pulse	0	t		10.0	2.5	/experiments/AOT/AOT_stimuli/rescaled_final/0999_rv.mp4	0.0	2535.953258037567	
12	651.9134600162506	movie	1		244	10.0	2.5	/experiments/AOT/AOT_stimuli/rescaled_final/0999_rv.mp4	0.0	2536.76975107193	2.4996938705444336
12	652.6971077919006	pulse	1	t		10.0	2.5	/experiments/AOT/AOT_stimuli/rescaled_final/0999_rv.mp4	0.0	2537.55339884758	
12	654.2952909469604	pulse	1	t		10.0	2.5	/experiments/AOT/AOT_stimuli/rescaled_final/0999_rv.mp4	0.0	2539.1515820026398	
12	654.413153886795	fix_post	2		12	10.0	2.5	/experiments/AOT/AOT_stimuli/rescaled_final/0999_rv.mp4	0.0	2539.2694449424744	0.10036110877990723
13	654.513514995575	fix_pre	0		120	11.0	2.5	/experiments/AOT/AOT_stimuli/rescaled_final/1757_rv.mp4	0.0	2539.3698060512543	1.0000078678131104
13	655.5135228633881	movie	1		243	11.0	2.5	/experiments/AOT/AOT_stimuli/rescaled_final/1757_rv.mp4	0.0	2540.3698139190674	2.499541997909546
13	655.8967499732971	pulse	1	t		11.0	2.5	/experiments/AOT/AOT_stimuli/rescaled_final/1757_rv.mp4	0.0	2540.7530410289764	
13	657.4970188140869	pulse	1	t		11.0	2.5	/experiments/AOT/AOT_stimuli/rescaled_final/1757_rv.mp4	0.0	2542.3533098697662	
13	658.0130648612976	fix_post	2		12	11.0	2.5	/experiments/AOT/AOT_stimuli/rescaled_final/1757_rv.mp4	0.0	2542.869355916977	0.10043716430664062
14	658.1135020256042	fix_pre	0		119	12.0	2.5	/experiments/AOT/AOT_stimuli/rescaled_final/1112_rv.mp4	0.0	2542.9697930812836	0.991757869720459
14	659.0970900058746	pulse	0	t		12.0	2.5	/experiments/AOT/AOT_stimuli/rescaled_final/1112_rv.mp4	0.0	2543.953381061554	
14	659.1052598953247	movie	1		243	12.0	2.5	/experiments/AOT/AOT_stimuli/rescaled_final/1112_rv.mp4	0.0	2543.961550951004	2.5081870555877686
14	660.696695804596	pulse	1	t		12.0	2.5	/experiments/AOT/AOT_stimuli/rescaled_final/1112_rv.mp4	0.0	2545.5529868602753	
14	661.6134469509125	fix_post	2		12	12.0	2.5	/experiments/AOT/AOT_stimuli/rescaled_final/1112_rv.mp4	0.0	2546.469738006592	0.1001138687133789
15	661.7135608196259	fix_pre	0		120	13.0	2.5	blank	1.0	2546.569851875305	0.9998941421508789
15	662.2969830036163	pulse	0	t		13.0	2.5	blank	1.0	2547.1532740592957	
15	662.7134549617767	movie	1		300	13.0	2.5	blank	1.0	2547.569746017456	2.500063896179199
15	663.8970408439636	pulse	1	t		13.0	2.5	blank	1.0	2548.753331899643	
15	665.2135188579559	fix_post	2		12	13.0	2.5	blank	1.0	2550.0698099136353	0.09991216659545898
16	665.3134310245514	fix_pre	0		120	14.0	2.5	/experiments/AOT/AOT_stimuli/rescaled_final/1918_fw.mp4	0.0	2550.1697220802307	1.0000419616699219
16	665.4969568252563	pulse	0	t		14.0	2.5	/experiments/AOT/AOT_stimuli/rescaled_final/1918_fw.mp4	0.0	2550.3532478809357	
16	666.3134729862213	movie	1		242	14.0	2.5	/experiments/AOT/AOT_stimuli/rescaled_final/1918_fw.mp4	0.0	2551.1697640419006	2.499908924102783
16	667.0969569683075	pulse	1	t		14.0	2.5	/experiments/AOT/AOT_stimuli/rescaled_final/1918_fw.mp4	0.0	2551.953248023987	
16	668.6954989433289	pulse	1	t		14.0	2.5	/experiments/AOT/AOT_stimuli/rescaled_final/1918_fw.mp4	0.0	2553.551789999008	
16	668.8133819103241	fix_post	2		12	14.0	2.5	/experiments/AOT/AOT_stimuli/rescaled_final/1918_fw.mp4	0.0	2553.6696729660034	0.10000300407409668
17	668.9133849143982	fix_pre	0		120	15.0	2.5	/experiments/AOT/AOT_stimuli/rescaled_final/1179_rv.mp4	0.0	2553.7696759700775	1.0000700950622559
17	669.9134550094604	movie	1		244	15.0	2.5	/experiments/AOT/AOT_stimuli/rescaled_final/1179_rv.mp4	0.0	2554.7697460651398	2.500034809112549
17	670.2966258525848	pulse	1	t		15.0	2.5	/experiments/AOT/AOT_stimuli/rescaled_final/1179_rv.mp4	0.0	2555.152916908264	
17	671.8964369297028	pulse	1	t		15.0	2.5	/experiments/AOT/AOT_stimuli/rescaled_final/1179_rv.mp4	0.0	2556.752727985382	
17	672.413489818573	fix_post	2		12	15.0	2.5	/experiments/AOT/AOT_stimuli/rescaled_final/1179_rv.mp4	0.0	2557.2697808742523	0.0996391773223877
18	672.5131289958954	fix_pre	0		119	16.0	2.5	/experiments/AOT/AOT_stimuli/rescaled_final/1468_rv.mp4	0.0	2557.3694200515747	0.9922428131103516
18	673.4967539310455	pulse	0	t		16.0	2.5	/experiments/AOT/AOT_stimuli/rescaled_final/1468_rv.mp4	0.0	2558.353044986725	
18	673.5053718090057	movie	1		245	16.0	2.5	/experiments/AOT/AOT_stimuli/rescaled_final/1468_rv.mp4	0.0	2558.361662864685	2.508078098297119
18	675.0983397960663	pulse	1	t		16.0	2.5	/experiments/AOT/AOT_stimuli/rescaled_final/1468_rv.mp4	0.0	2559.9546308517456	
18	676.0134499073029	fix_post	2		12	16.0	2.5	/experiments/AOT/AOT_stimuli/rescaled_final/1468_rv.mp4	0.0	2560.869740962982	0.10000991821289062
19	676.1134598255157	fix_pre	0		120	17.0	2.5	/experiments/AOT/AOT_stimuli/rescaled_final/0961_rv.mp4	0.0	2560.969750881195	0.9999220371246338
19	676.6970310211182	pulse	0	t		17.0	2.5	/experiments/AOT/AOT_stimuli/rescaled_final/0961_rv.mp4	0.0	2561.5533220767975	
19	677.1133818626404	movie	1		242	17.0	2.5	/experiments/AOT/AOT_stimuli/rescaled_final/0961_rv.mp4	0.0	2561.9696729183197	2.5000691413879395
19	678.2969689369202	pulse	1	t		17.0	2.5	/experiments/AOT/AOT_stimuli/rescaled_final/0961_rv.mp4	0.0	2563.1532599925995	
19	679.6134510040283	fix_post	2		12	17.0	2.5	/experiments/AOT/AOT_stimuli/rescaled_final/0961_rv.mp4	0.0	2564.4697420597076	0.09988999366760254
20	679.7133409976959	fix_pre	0		120	18.0	2.5	/experiments/AOT/AOT_stimuli/rescaled_final/0634_rv.mp4	0.0	2564.5696320533752	1.000074863433838
20	679.8968698978424	pulse	0	t		18.0	2.5	/experiments/AOT/AOT_stimuli/rescaled_final/0634_rv.mp4	0.0	2564.7531609535217	
20	680.7134158611298	movie	1		243	18.0	2.5	/experiments/AOT/AOT_stimuli/rescaled_final/0634_rv.mp4	0.0	2565.569706916809	2.49993896484375
20	681.4967730045319	pulse	1	t		18.0	2.5	/experiments/AOT/AOT_stimuli/rescaled_final/0634_rv.mp4	0.0	2566.353064060211	
20	683.0952370166779	pulse	1	t		18.0	2.5	/experiments/AOT/AOT_stimuli/rescaled_final/0634_rv.mp4	0.0	2567.951528072357	
20	683.2133548259735	fix_post	2		12	18.0	2.5	/experiments/AOT/AOT_stimuli/rescaled_final/0634_rv.mp4	0.0	2568.069645881653	0.10006117820739746
21	683.3134160041809	fix_pre	0		120	19.0	2.5	/experiments/AOT/AOT_stimuli/rescaled_final/0698_rv.mp4	0.0	2568.1697070598602	0.9999289512634277
21	684.3133449554443	movie	1		246	19.0	2.5	/experiments/AOT/AOT_stimuli/rescaled_final/0698_rv.mp4	0.0	2569.1696360111237	2.5000879764556885
21	684.6962540149689	pulse	1	t		19.0	2.5	/experiments/AOT/AOT_stimuli/rescaled_final/0698_rv.mp4	0.0	2569.552545070648	
21	686.2968099117279	pulse	1	t		19.0	2.5	/experiments/AOT/AOT_stimuli/rescaled_final/0698_rv.mp4	0.0	2571.153100967407	
21	686.8134329319	fix_post	2		12	19.0	2.5	/experiments/AOT/AOT_stimuli/rescaled_final/0698_rv.mp4	0.0	2571.6697239875793	0.0999600887298584
22	686.9133930206299	fix_pre	0		119	20.0	2.5	/experiments/AOT/AOT_stimuli/rescaled_final/0883_rv.mp4	0.0	2571.769684076309	0.9916088581085205
22	687.896791934967	pulse	0	t		20.0	2.5	/experiments/AOT/AOT_stimuli/rescaled_final/0883_rv.mp4	0.0	2572.7530829906464	
22	687.9050018787384	movie	1		244	20.0	2.5	/experiments/AOT/AOT_stimuli/rescaled_final/0883_rv.mp4	0.0	2572.7612929344177	2.50838303565979
22	689.496542930603	pulse	1	t		20.0	2.5	/experiments/AOT/AOT_stimuli/rescaled_final/0883_rv.mp4	0.0	2574.3528339862823	
22	690.4133849143982	fix_post	2		12	20.0	2.5	/experiments/AOT/AOT_stimuli/rescaled_final/0883_rv.mp4	0.0	2575.2696759700775	0.09999489784240723
23	690.5133798122406	fix_pre	0		120	21.0	2.5	blank	1.0	2575.36967086792	0.9999711513519287
23	691.0968618392944	pulse	0	t		21.0	2.5	blank	1.0	2575.9531528949738	
23	691.5133509635925	movie	1		300	21.0	2.5	blank	1.0	2576.369642019272	2.500018835067749
23	692.6968019008636	pulse	1	t		21.0	2.5	blank	1.0	2577.553092956543	
23	694.0133697986603	fix_post	2		12	21.0	2.5	blank	1.0	2578.8696608543396	0.09994101524353027
24	694.1133108139038	fix_pre	0		120	22.0	2.5	/experiments/AOT/AOT_stimuli/rescaled_final/0600_fw.mp4	0.0	2578.969601869583	1.0000271797180176
24	694.2968230247498	pulse	0	t		22.0	2.5	/experiments/AOT/AOT_stimuli/rescaled_final/0600_fw.mp4	0.0	2579.153114080429	
24	695.1133379936218	movie	1		244	22.0	2.5	/experiments/AOT/AOT_stimuli/rescaled_final/0600_fw.mp4	0.0	2579.969629049301	2.4999868869781494
24	695.8968389034271	pulse	1	t		22.0	2.5	/experiments/AOT/AOT_stimuli/rescaled_final/0600_fw.mp4	0.0	2580.7531299591064	
24	697.4955148696899	pulse	1	t		22.0	2.5	/experiments/AOT/AOT_stimuli/rescaled_final/0600_fw.mp4	0.0	2582.3518059253693	
24	697.6133248806	fix_post	2		12	22.0	2.5	/experiments/AOT/AOT_stimuli/rescaled_final/0600_fw.mp4	0.0	2582.4696159362793	0.10002803802490234
25	697.7133529186249	fix_pre	0		120	23.0	2.5	/experiments/AOT/AOT_stimuli/rescaled_final/0726_fw.mp4	0.0	2582.569643974304	0.9998738765716553
25	698.7132267951965	movie	1		248	23.0	2.5	/experiments/AOT/AOT_stimuli/rescaled_final/0726_fw.mp4	0.0	2583.569517850876	2.5000669956207275
25	699.0968089103699	pulse	1	t		23.0	2.5	/experiments/AOT/AOT_stimuli/rescaled_final/0726_fw.mp4	0.0	2583.953099966049	
25	700.6968259811401	pulse	1	t		23.0	2.5	/experiments/AOT/AOT_stimuli/rescaled_final/0726_fw.mp4	0.0	2585.5531170368195	
25	701.2132937908173	fix_post	2		12	23.0	2.5	/experiments/AOT/AOT_stimuli/rescaled_final/0726_fw.mp4	0.0	2586.0695848464966	0.09998607635498047
26	701.3132798671722	fix_pre	0		119	24.0	2.5	/experiments/AOT/AOT_stimuli/rescaled_final/1538_fw.mp4	0.0	2586.1695709228516	0.991642951965332
26	702.296788930893	pulse	0	t		24.0	2.5	/experiments/AOT/AOT_stimuli/rescaled_final/1538_fw.mp4	0.0	2587.1530799865723	
26	702.3049228191376	movie	1		245	24.0	2.5	/experiments/AOT/AOT_stimuli/rescaled_final/1538_fw.mp4	0.0	2587.161213874817	2.5084002017974854
26	703.8963398933411	pulse	1	t		24.0	2.5	/experiments/AOT/AOT_stimuli/rescaled_final/1538_fw.mp4	0.0	2588.7526309490204	
26	704.8133230209351	fix_post	2		12	24.0	2.5	/experiments/AOT/AOT_stimuli/rescaled_final/1538_fw.mp4	0.0	2589.6696140766144	0.09996700286865234
27	704.9132900238037	fix_pre	0		120	25.0	2.5	/experiments/AOT/AOT_stimuli/rescaled_final/0693_fw.mp4	0.0	2589.769581079483	1.0000288486480713
27	705.4967999458313	pulse	0	t		25.0	2.5	/experiments/AOT/AOT_stimuli/rescaled_final/0693_fw.mp4	0.0	2590.3530910015106	
27	705.9133188724518	movie	1		242	25.0	2.5	/experiments/AOT/AOT_stimuli/rescaled_final/0693_fw.mp4	0.0	2590.769609928131	2.500432014465332
27	707.0968148708344	pulse	1	t		25.0	2.5	/experiments/AOT/AOT_stimuli/rescaled_final/0693_fw.mp4	0.0	2591.9531059265137	
27	708.4137508869171	fix_post	2		12	25.0	2.5	/experiments/AOT/AOT_stimuli/rescaled_final/0693_fw.mp4	0.0	2593.2700419425964	0.0995790958404541
28	708.5133299827576	fix_pre	0		120	26.0	2.5	/experiments/AOT/AOT_stimuli/rescaled_final/1748_rv.mp4	0.0	2593.369621038437	0.9999728202819824
28	708.6967878341675	pulse	0	t		26.0	2.5	/experiments/AOT/AOT_stimuli/rescaled_final/1748_rv.mp4	0.0	2593.553078889847	
28	709.5133028030396	movie	1		243	26.0	2.5	/experiments/AOT/AOT_stimuli/rescaled_final/1748_rv.mp4	0.0	2594.369593858719	2.499983072280884
28	710.2967298030853	pulse	1	t		26.0	2.5	/experiments/AOT/AOT_stimuli/rescaled_final/1748_rv.mp4	0.0	2595.1530208587646	
28	711.8950769901276	pulse	1	t		26.0	2.5	/experiments/AOT/AOT_stimuli/rescaled_final/1748_rv.mp4	0.0	2596.751368045807	
28	712.0132858753204	fix_post	2		12	26.0	2.5	/experiments/AOT/AOT_stimuli/rescaled_final/1748_rv.mp4	0.0	2596.8695769309998	0.09996294975280762
29	712.1132488250732	fix_pre	0		120	27.0	2.5	blank	1.0	2596.9695398807526	1.0001671314239502
29	713.1134159564972	movie	1		300	27.0	2.5	blank	1.0	2597.9697070121765	2.4998409748077393
29	713.4967648983002	pulse	1	t		27.0	2.5	blank	1.0	2598.3530559539795	
29	715.0967378616333	pulse	1	t		27.0	2.5	blank	1.0	2599.9530289173126	
29	715.6132569313049	fix_post	2		12	27.0	2.5	blank	1.0	2600.4695479869843	0.1000070571899414
30	715.7132639884949	fix_pre	0		119	28.0	2.5	/experiments/AOT/AOT_stimuli/rescaled_final/0240_fw.mp4	0.0	2600.569555044174	0.991642951965332
30	716.6967480182648	pulse	0	t		28.0	2.5	/experiments/AOT/AOT_stimuli/rescaled_final/0240_fw.mp4	0.0	2601.553039073944	
30	716.7049069404602	movie	1		244	28.0	2.5	/experiments/AOT/AOT_stimuli/rescaled_final/0240_fw.mp4	0.0	2601.5611979961395	2.508388042449951
30	718.2963969707489	pulse	1	t		28.0	2.5	/experiments/AOT/AOT_stimuli/rescaled_final/0240_fw.mp4	0.0	2603.152688026428	
30	719.2132949829102	fix_post	2		12	28.0	2.5	/experiments/AOT/AOT_stimuli/rescaled_final/0240_fw.mp4	0.0	2604.0695860385895	0.09992504119873047
31	719.3132200241089	fix_pre	0		120	29.0	2.5	/experiments/AOT/AOT_stimuli/rescaled_final/0279_fw.mp4	0.0	2604.169511079788	1.0000989437103271
31	719.8967249393463	pulse	0	t		29.0	2.5	/experiments/AOT/AOT_stimuli/rescaled_final/0279_fw.mp4	0.0	2604.7530159950256	
31	720.3133189678192	movie	1		242	29.0	2.5	/experiments/AOT/AOT_stimuli/rescaled_final/0279_fw.mp4	0.0	2605.1696100234985	2.4998860359191895
31	721.4967110157013	pulse	1	t		29.0	2.5	/experiments/AOT/AOT_stimuli/rescaled_final/0279_fw.mp4	0.0	2606.3530020713806	
31	722.8132050037384	fix_post	2		12	29.0	2.5	/experiments/AOT/AOT_stimuli/rescaled_final/0279_fw.mp4	0.0	2607.6694960594177	0.1000678539276123
32	722.913272857666	fix_pre	0		120	30.0	2.5	/experiments/AOT/AOT_stimuli/rescaled_final/1995_rv.mp4	0.0	2607.7695639133453	0.9998829364776611
32	723.0966420173645	pulse	0	t		30.0	2.5	/experiments/AOT/AOT_stimuli/rescaled_final/1995_rv.mp4	0.0	2607.952933073044	
32	723.9131557941437	movie	1		245	30.0	2.5	/experiments/AOT/AOT_stimuli/rescaled_final/1995_rv.mp4	0.0	2608.769446849823	2.50004506111145
32	724.6966819763184	pulse	1	t		30.0	2.5	/experiments/AOT/AOT_stimuli/rescaled_final/1995_rv.mp4	0.0	2609.5529730319977	
32	726.2927219867706	pulse	1	t		30.0	2.5	/experiments/AOT/AOT_stimuli/rescaled_final/1995_rv.mp4	0.0	2611.14901304245	
32	726.4132008552551	fix_post	2		12	30.0	2.5	/experiments/AOT/AOT_stimuli/rescaled_final/1995_rv.mp4	0.0	2611.2694919109344	0.09998297691345215
33	726.5131838321686	fix_pre	0		120	31.0	2.5	/experiments/AOT/AOT_stimuli/rescaled_final/1309_fw.mp4	0.0	2611.369474887848	1.0000030994415283
33	727.5131869316101	movie	1		244	31.0	2.5	/experiments/AOT/AOT_stimuli/rescaled_final/1309_fw.mp4	0.0	2612.3694779872894	2.500309944152832
33	727.895910024643	pulse	1	t		31.0	2.5	/experiments/AOT/AOT_stimuli/rescaled_final/1309_fw.mp4	0.0	2612.7522010803223	
33	729.4969389438629	pulse	1	t		31.0	2.5	/experiments/AOT/AOT_stimuli/rescaled_final/1309_fw.mp4	0.0	2614.3532299995422	
33	730.0134968757629	fix_post	2		12	31.0	2.5	/experiments/AOT/AOT_stimuli/rescaled_final/1309_fw.mp4	0.0	2614.8697879314423	0.09964203834533691
34	730.1131389141083	fix_pre	0		119	32.0	2.5	/experiments/AOT/AOT_stimuli/rescaled_final/0400_fw.mp4	0.0	2614.9694299697876	0.9917340278625488
34	731.0967090129852	pulse	0	t		32.0	2.5	/experiments/AOT/AOT_stimuli/rescaled_final/0400_fw.mp4	0.0	2615.9530000686646	
34	731.1048729419708	movie	1		247	32.0	2.5	/experiments/AOT/AOT_stimuli/rescaled_final/0400_fw.mp4	0.0	2615.96116399765	2.5082478523254395
34	732.6964478492737	pulse	1	t		32.0	2.5	/experiments/AOT/AOT_stimuli/rescaled_final/0400_fw.mp4	0.0	2617.552738904953	
34	733.6131207942963	fix_post	2		12	32.0	2.5	/experiments/AOT/AOT_stimuli/rescaled_final/0400_fw.mp4	0.0	2618.4694118499756	0.10007405281066895
35	733.7131948471069	fix_pre	0		120	33.0	2.5	blank	1.0	2618.5694859027863	1.0000190734863281
35	734.2967948913574	pulse	0	t		33.0	2.5	blank	1.0	2619.1530859470367	
35	734.7132139205933	movie	1		300	33.0	2.5	blank	1.0	2619.5695049762726	2.4998390674591064
35	735.8966279029846	pulse	1	t		33.0	2.5	blank	1.0	2620.752918958664	
35	737.2130529880524	fix_post	2		12	33.0	2.5	blank	1.0	2622.0693440437317	0.10008096694946289
36	737.3131339550018	fix_pre	0		120	34.0	2.5	/experiments/AOT/AOT_stimuli/rescaled_final/1652_fw.mp4	0.0	2622.169425010681	1.0000228881835938
36	737.4965798854828	pulse	0	t		34.0	2.5	/experiments/AOT/AOT_stimuli/rescaled_final/1652_fw.mp4	0.0	2622.352870941162	
36	738.3131568431854	movie	1		242	34.0	2.5	/experiments/AOT/AOT_stimuli/rescaled_final/1652_fw.mp4	0.0	2623.1694478988647	2.5000650882720947
36	739.0965359210968	pulse	1	t		34.0	2.5	/experiments/AOT/AOT_stimuli/rescaled_final/1652_fw.mp4	0.0	2623.952826976776	
36	740.6949698925018	pulse	1	t		34.0	2.5	/experiments/AOT/AOT_stimuli/rescaled_final/1652_fw.mp4	0.0	2625.551260948181	
36	740.8132219314575	fix_post	2		12	34.0	2.5	/experiments/AOT/AOT_stimuli/rescaled_final/1652_fw.mp4	0.0	2625.669512987137	0.099884033203125
37	740.9131059646606	fix_pre	0		120	35.0	2.5	/experiments/AOT/AOT_stimuli/rescaled_final/0993_rv.mp4	0.0	2625.76939702034	1.0000979900360107
37	741.9132039546967	movie	1		242	35.0	2.5	/experiments/AOT/AOT_stimuli/rescaled_final/0993_rv.mp4	0.0	2626.769495010376	2.4998819828033447
37	742.2961728572845	pulse	1	t		35.0	2.5	/experiments/AOT/AOT_stimuli/rescaled_final/0993_rv.mp4	0.0	2627.152463912964	
37	743.8965158462524	pulse	1	t		35.0	2.5	/experiments/AOT/AOT_stimuli/rescaled_final/0993_rv.mp4	0.0	2628.7528069019318	
37	744.4130859375	fix_post	2		12	35.0	2.5	/experiments/AOT/AOT_stimuli/rescaled_final/0993_rv.mp4	0.0	2629.2693769931793	0.10009288787841797
38	744.5131788253784	fix_pre	0		119	36.0	2.5	/experiments/AOT/AOT_stimuli/rescaled_final/0480_fw.mp4	0.0	2629.3694698810577	0.99163818359375
38	745.4966268539429	pulse	0	t		36.0	2.5	/experiments/AOT/AOT_stimuli/rescaled_final/0480_fw.mp4	0.0	2630.352917909622	
38	745.5048170089722	movie	1		246	36.0	2.5	/experiments/AOT/AOT_stimuli/rescaled_final/0480_fw.mp4	0.0	2630.3611080646515	2.5083158016204834
38	747.0965898036957	pulse	1	t		36.0	2.5	/experiments/AOT/AOT_stimuli/rescaled_final/0480_fw.mp4	0.0	2631.952880859375	
38	748.0131328105927	fix_post	2		12	36.0	2.5	/experiments/AOT/AOT_stimuli/rescaled_final/0480_fw.mp4	0.0	2632.869423866272	0.0998990535736084
39	748.1130318641663	fix_pre	0		120	37.0	2.5	/experiments/AOT/AOT_stimuli/rescaled_final/0821_rv.mp4	0.0	2632.9693229198456	1.0000481605529785
39	748.6965069770813	pulse	0	t		37.0	2.5	/experiments/AOT/AOT_stimuli/rescaled_final/0821_rv.mp4	0.0	2633.5527980327606	
39	749.1130800247192	movie	1		244	37.0	2.5	/experiments/AOT/AOT_stimuli/rescaled_final/0821_rv.mp4	0.0	2633.9693710803986	2.5000078678131104
39	750.2966527938843	pulse	1	t		37.0	2.5	/experiments/AOT/AOT_stimuli/rescaled_final/0821_rv.mp4	0.0	2635.1529438495636	
39	751.6130878925323	fix_post	2		12	37.0	2.5	/experiments/AOT/AOT_stimuli/rescaled_final/0821_rv.mp4	0.0	2636.4693789482117	0.10004901885986328
40	751.7131369113922	fix_pre	0		120	38.0	2.5	/experiments/AOT/AOT_stimuli/rescaled_final/1087_rv.mp4	0.0	2636.5694279670715	0.9999499320983887
40	751.8966369628906	pulse	0	t		38.0	2.5	/experiments/AOT/AOT_stimuli/rescaled_final/1087_rv.mp4	0.0	2636.75292801857	
40	752.7130868434906	movie	1		244	38.0	2.5	/experiments/AOT/AOT_stimuli/rescaled_final/1087_rv.mp4	0.0	2637.56937789917	2.4999210834503174
40	753.4965558052063	pulse	1	t		38.0	2.5	/experiments/AOT/AOT_stimuli/rescaled_final/1087_rv.mp4	0.0	2638.3528468608856	
40	755.0952169895172	pulse	1	t		38.0	2.5	/experiments/AOT/AOT_stimuli/rescaled_final/1087_rv.mp4	0.0	2639.9515080451965	
40	755.2130079269409	fix_post	2		12	38.0	2.5	/experiments/AOT/AOT_stimuli/rescaled_final/1087_rv.mp4	0.0	2640.0692989826202	0.10001206398010254
41	755.313019990921	fix_pre	0		120	39.0	2.5	/experiments/AOT/AOT_stimuli/rescaled_final/0003_rv.mp4	0.0	2640.1693110466003	1.0000498294830322
41	756.313069820404	movie	1		243	39.0	2.5	/experiments/AOT/AOT_stimuli/rescaled_final/0003_rv.mp4	0.0	2641.1693608760834	2.50040602684021
41	756.6960918903351	pulse	1	t		39.0	2.5	/experiments/AOT/AOT_stimuli/rescaled_final/0003_rv.mp4	0.0	2641.5523829460144	
41	758.2965199947357	pulse	1	t		39.0	2.5	/experiments/AOT/AOT_stimuli/rescaled_final/0003_rv.mp4	0.0	2643.152811050415	
41	758.8134758472443	fix_post	2		12	39.0	2.5	/experiments/AOT/AOT_stimuli/rescaled_final/0003_rv.mp4	0.0	2643.6697669029236	0.09960412979125977
42	758.9130799770355	fix_pre	0		119	40.0	2.5	/experiments/AOT/AOT_stimuli/rescaled_final/0831_fw.mp4	0.0	2643.769371032715	0.9915859699249268
42	759.8965399265289	pulse	0	t		40.0	2.5	/experiments/AOT/AOT_stimuli/rescaled_final/0831_fw.mp4	0.0	2644.7528309822083	
42	759.9046659469604	movie	1		243	40.0	2.5	/experiments/AOT/AOT_stimuli/rescaled_final/0831_fw.mp4	0.0	2644.7609570026398	2.5083260536193848
42	761.4962949752808	pulse	1	t		40.0	2.5	/experiments/AOT/AOT_stimuli/rescaled_final/0831_fw.mp4	0.0	2646.35258603096	
42	762.4129920005798	fix_post	2		12	40.0	2.5	/experiments/AOT/AOT_stimuli/rescaled_final/0831_fw.mp4	0.0	2647.269283056259	0.10012292861938477
43	762.5131149291992	fix_pre	0		120	41.0	2.5	blank	1.0	2647.3694059848785	0.9999029636383057
43	763.0965800285339	pulse	0	t		41.0	2.5	blank	1.0	2647.9528710842133	
43	763.5130178928375	movie	1		300	41.0	2.5	blank	1.0	2648.369308948517	2.5000641345977783
43	764.6964929103851	pulse	1	t		41.0	2.5	blank	1.0	2649.5527839660645	
43	766.0130820274353	fix_post	2		12	41.0	2.5	blank	1.0	2650.8693730831146	0.09994077682495117
44	766.1130228042603	fix_pre	0		120	42.0	2.5	/experiments/AOT/AOT_stimuli/rescaled_final/0182_fw.mp4	0.0	2650.9693138599396	1.000054121017456
44	766.2965319156647	pulse	0	t		42.0	2.5	/experiments/AOT/AOT_stimuli/rescaled_final/0182_fw.mp4	0.0	2651.152822971344	
44	767.1130769252777	movie	1		241	42.0	2.5	/experiments/AOT/AOT_stimuli/rescaled_final/0182_fw.mp4	0.0	2651.969367980957	2.500048875808716
44	767.896500825882	pulse	1	t		42.0	2.5	/experiments/AOT/AOT_stimuli/rescaled_final/0182_fw.mp4	0.0	2652.7527918815613	
44	769.4962999820709	pulse	1	t		42.0	2.5	/experiments/AOT/AOT_stimuli/rescaled_final/0182_fw.mp4	0.0	2654.3525910377502	
44	769.6131258010864	fix_post	2		12	42.0	2.5	/experiments/AOT/AOT_stimuli/rescaled_final/0182_fw.mp4	0.0	2654.4694168567657	0.09993219375610352
45	769.7130579948425	fix_pre	0		120	43.0	2.5	/experiments/AOT/AOT_stimuli/rescaled_final/1205_rv.mp4	0.0	2654.569349050522	0.9998857975006104
45	770.7129437923431	movie	1		243	43.0	2.5	/experiments/AOT/AOT_stimuli/rescaled_final/1205_rv.mp4	0.0	2655.5692348480225	2.500174045562744
45	771.0961439609528	pulse	1	t		43.0	2.5	/experiments/AOT/AOT_stimuli/rescaled_final/1205_rv.mp4	0.0	2655.952435016632	
45	772.6964747905731	pulse	1	t		43.0	2.5	/experiments/AOT/AOT_stimuli/rescaled_final/1205_rv.mp4	0.0	2657.5527658462524	
45	773.2131178379059	fix_post	2		12	43.0	2.5	/experiments/AOT/AOT_stimuli/rescaled_final/1205_rv.mp4	0.0	2658.069408893585	0.09993600845336914
46	773.3130538463593	fix_pre	0		119	44.0	2.5	/experiments/AOT/AOT_stimuli/rescaled_final/0275_fw.mp4	0.0	2658.1693449020386	0.9916181564331055
46	774.2964518070221	pulse	0	t		44.0	2.5	/experiments/AOT/AOT_stimuli/rescaled_final/0275_fw.mp4	0.0	2659.1527428627014	
46	774.3046720027924	movie	1		243	44.0	2.5	/experiments/AOT/AOT_stimuli/rescaled_final/0275_fw.mp4	0.0	2659.1609630584717	2.5082929134368896
46	775.8965249061584	pulse	1	t		44.0	2.5	/experiments/AOT/AOT_stimuli/rescaled_final/0275_fw.mp4	0.0	2660.7528159618378	
46	776.8129649162292	fix_post	2		12	44.0	2.5	/experiments/AOT/AOT_stimuli/rescaled_final/0275_fw.mp4	0.0	2661.6692559719086	0.10002899169921875
47	776.9129939079285	fix_pre	0		120	45.0	2.5	/experiments/AOT/AOT_stimuli/rescaled_final/0279_rv.mp4	0.0	2661.769284963608	0.9999630451202393
47	777.4965348243713	pulse	0	t		45.0	2.5	/experiments/AOT/AOT_stimuli/rescaled_final/0279_rv.mp4	0.0	2662.3528258800507	
47	777.9129569530487	movie	1		242	45.0	2.5	/experiments/AOT/AOT_stimuli/rescaled_final/0279_rv.mp4	0.0	2662.769248008728	2.500092029571533
47	779.0966060161591	pulse	1	t		45.0	2.5	/experiments/AOT/AOT_stimuli/rescaled_final/0279_rv.mp4	0.0	2663.9528970718384	
47	780.4130489826202	fix_post	2		12	45.0	2.5	/experiments/AOT/AOT_stimuli/rescaled_final/0279_rv.mp4	0.0	2665.2693400382996	0.09987282752990723
48	780.5129218101501	fix_pre	0		120	46.0	2.5	/experiments/AOT/AOT_stimuli/rescaled_final/0053_rv.mp4	0.0	2665.3692128658295	1.0001180171966553
48	780.6964600086212	pulse	0	t		46.0	2.5	/experiments/AOT/AOT_stimuli/rescaled_final/0053_rv.mp4	0.0	2665.5527510643005	
48	781.5130398273468	movie	1		244	46.0	2.5	/experiments/AOT/AOT_stimuli/rescaled_final/0053_rv.mp4	0.0	2666.369330883026	2.499549150466919
48	782.2963960170746	pulse	1	t		46.0	2.5	/experiments/AOT/AOT_stimuli/rescaled_final/0053_rv.mp4	0.0	2667.152687072754	
48	783.8945109844208	pulse	1	t		46.0	2.5	/experiments/AOT/AOT_stimuli/rescaled_final/0053_rv.mp4	0.0	2668.7508020401	
48	784.0125889778137	fix_post	2		12	46.0	2.5	/experiments/AOT/AOT_stimuli/rescaled_final/0053_rv.mp4	0.0	2668.868880033493	0.09996604919433594
49	784.112555027008	fix_pre	0		120	47.0	2.5	/experiments/AOT/AOT_stimuli/rescaled_final/1425_fw.mp4	0.0	2668.9688460826874	1.000593900680542
49	785.1131489276886	movie	1		247	47.0	2.5	/experiments/AOT/AOT_stimuli/rescaled_final/1425_fw.mp4	0.0	2669.969439983368	2.4997830390930176
49	785.4960308074951	pulse	1	t		47.0	2.5	/experiments/AOT/AOT_stimuli/rescaled_final/1425_fw.mp4	0.0	2670.3523218631744	
49	787.0963869094849	pulse	1	t		47.0	2.5	/experiments/AOT/AOT_stimuli/rescaled_final/1425_fw.mp4	0.0	2671.952677965164	
49	787.6129319667816	fix_post	2		12	47.0	2.5	/experiments/AOT/AOT_stimuli/rescaled_final/1425_fw.mp4	0.0	2672.469223022461	0.09996199607849121
50	787.7128939628601	fix_pre	0		119	48.0	2.5	/experiments/AOT/AOT_stimuli/rescaled_final/0067_rv.mp4	0.0	2672.5691850185394	0.9916629791259766
50	788.6964809894562	pulse	0	t		48.0	2.5	/experiments/AOT/AOT_stimuli/rescaled_final/0067_rv.mp4	0.0	2673.5527720451355	
50	788.7045569419861	movie	1		245	48.0	2.5	/experiments/AOT/AOT_stimuli/rescaled_final/0067_rv.mp4	0.0	2673.5608479976654	2.5082759857177734
50	790.2961239814758	pulse	1	t		48.0	2.5	/experiments/AOT/AOT_stimuli/rescaled_final/0067_rv.mp4	0.0	2675.152415037155	
50	791.2128329277039	fix_post	2		12	48.0	2.5	/experiments/AOT/AOT_stimuli/rescaled_final/0067_rv.mp4	0.0	2676.069123983383	0.10001206398010254
51	791.312844991684	fix_pre	0		120	49.0	2.5	blank	1.0	2676.1691360473633	1.0000009536743164
51	791.8964087963104	pulse	0	t		49.0	2.5	blank	1.0	2676.7526998519897	
51	792.3128459453583	movie	1		300	49.0	2.5	blank	1.0	2677.1691370010376	2.5000269412994385
51	793.4963870048523	pulse	1	t		49.0	2.5	blank	1.0	2678.3526780605316	
51	794.8128728866577	fix_post	2		12	49.0	2.5	blank	1.0	2679.669163942337	0.09998893737792969
52	794.9128618240356	fix_pre	0		120	50.0	2.5	/experiments/AOT/AOT_stimuli/rescaled_final/0480_fw.mp4	0.0	2679.769152879715	0.9999849796295166
52	795.0964000225067	pulse	0	t		50.0	2.5	/experiments/AOT/AOT_stimuli/rescaled_final/0480_fw.mp4	0.0	2679.952691078186	
52	795.9128468036652	movie	1		244	50.0	2.5	/experiments/AOT/AOT_stimuli/rescaled_final/0480_fw.mp4	0.0	2680.7691378593445	2.5000221729278564
52	796.6962788105011	pulse	1	t		50.0	2.5	/experiments/AOT/AOT_stimuli/rescaled_final/0480_fw.mp4	0.0	2681.5525698661804	
52	798.2949140071869	pulse	1	t		50.0	2.5	/experiments/AOT/AOT_stimuli/rescaled_final/0480_fw.mp4	0.0	2683.151205062866	
52	798.412868976593	fix_post	2		12	50.0	2.5	/experiments/AOT/AOT_stimuli/rescaled_final/0480_fw.mp4	0.0	2683.2691600322723	0.09998083114624023
53	798.5128498077393	fix_pre	0		120	51.0	2.5	/experiments/AOT/AOT_stimuli/rescaled_final/1087_fw.mp4	0.0	2683.3691408634186	1.0000300407409668
53	799.5128798484802	movie	1		244	51.0	2.5	/experiments/AOT/AOT_stimuli/rescaled_final/1087_fw.mp4	0.0	2684.3691709041595	2.500070095062256
53	799.8960390090942	pulse	1	t		51.0	2.5	/experiments/AOT/AOT_stimuli/rescaled_final/1087_fw.mp4	0.0	2684.7523300647736	
53	801.4962799549103	pulse	1	t		51.0	2.5	/experiments/AOT/AOT_stimuli/rescaled_final/1087_fw.mp4	0.0	2686.3525710105896	
53	802.0129499435425	fix_post	2		12	51.0	2.5	/experiments/AOT/AOT_stimuli/rescaled_final/1087_fw.mp4	0.0	2686.869240999222	0.0998539924621582
54	802.1128039360046	fix_pre	0		119	52.0	2.5	/experiments/AOT/AOT_stimuli/rescaled_final/1321_rv.mp4	0.0	2686.969094991684	0.9917030334472656
54	803.0963799953461	pulse	0	t		52.0	2.5	/experiments/AOT/AOT_stimuli/rescaled_final/1321_rv.mp4	0.0	2687.9526710510254	
54	803.1045069694519	movie	1		246	52.0	2.5	/experiments/AOT/AOT_stimuli/rescaled_final/1321_rv.mp4	0.0	2687.960798025131	2.508370876312256
54	804.6974530220032	pulse	1	t		52.0	2.5	/experiments/AOT/AOT_stimuli/rescaled_final/1321_rv.mp4	0.0	2689.5537440776825	
54	805.6128778457642	fix_post	2		12	52.0	2.5	/experiments/AOT/AOT_stimuli/rescaled_final/1321_rv.mp4	0.0	2690.4691689014435	0.09993195533752441
55	805.7128098011017	fix_pre	0		120	53.0	2.5	/experiments/AOT/AOT_stimuli/rescaled_final/1007_rv.mp4	0.0	2690.569100856781	0.9999492168426514
55	806.2963199615479	pulse	0	t		53.0	2.5	/experiments/AOT/AOT_stimuli/rescaled_final/1007_rv.mp4	0.0	2691.152611017227	
55	806.7127590179443	movie	1		243	53.0	2.5	/experiments/AOT/AOT_stimuli/rescaled_final/1007_rv.mp4	0.0	2691.5690500736237	2.500027894973755
55	807.896402835846	pulse	1	t		53.0	2.5	/experiments/AOT/AOT_stimuli/rescaled_final/1007_rv.mp4	0.0	2692.7526938915253	
55	809.2127869129181	fix_post	2		12	53.0	2.5	/experiments/AOT/AOT_stimuli/rescaled_final/1007_rv.mp4	0.0	2694.0690779685974	0.10006499290466309
56	809.3128519058228	fix_pre	0		120	54.0	2.5	/experiments/AOT/AOT_stimuli/rescaled_final/1354_rv.mp4	0.0	2694.169142961502	0.9999420642852783
56	809.4962809085846	pulse	0	t		54.0	2.5	/experiments/AOT/AOT_stimuli/rescaled_final/1354_rv.mp4	0.0	2694.352571964264	
56	810.312793970108	movie	1		243	54.0	2.5	/experiments/AOT/AOT_stimuli/rescaled_final/1354_rv.mp4	0.0	2695.1690850257874	2.500013828277588
56	811.0962870121002	pulse	1	t		54.0	2.5	/experiments/AOT/AOT_stimuli/rescaled_final/1354_rv.mp4	0.0	2695.9525780677795	
56	812.6946568489075	pulse	1	t		54.0	2.5	/experiments/AOT/AOT_stimuli/rescaled_final/1354_rv.mp4	0.0	2697.550947904587	
56	812.8128077983856	fix_post	2		12	54.0	2.5	/experiments/AOT/AOT_stimuli/rescaled_final/1354_rv.mp4	0.0	2697.669098854065	0.10000109672546387
57	812.9128088951111	fix_pre	0		120	55.0	2.5	/experiments/AOT/AOT_stimuli/rescaled_final/1799_rv.mp4	0.0	2697.7690999507904	0.9999399185180664
57	813.9127488136292	movie	1		242	55.0	2.5	/experiments/AOT/AOT_stimuli/rescaled_final/1799_rv.mp4	0.0	2698.7690398693085	2.4995901584625244
57	814.2963769435883	pulse	1	t		55.0	2.5	/experiments/AOT/AOT_stimuli/rescaled_final/1799_rv.mp4	0.0	2699.1526679992676	
57	815.896253824234	pulse	1	t		55.0	2.5	/experiments/AOT/AOT_stimuli/rescaled_final/1799_rv.mp4	0.0	2700.7525448799133	
57	816.4123389720917	fix_post	2		12	55.0	2.5	/experiments/AOT/AOT_stimuli/rescaled_final/1799_rv.mp4	0.0	2701.268630027771	0.10050487518310547
58	816.5128438472748	fix_pre	0		119	56.0	2.5	blank	1.0	2701.369134902954	0.991549015045166
58	817.4962089061737	pulse	0	t		56.0	2.5	blank	1.0	2702.352499961853	
58	817.50439286232	movie	1		301	56.0	2.5	blank	1.0	2702.3606839179993	2.5083961486816406
58	819.0962388515472	pulse	1	t		56.0	2.5	blank	1.0	2703.9525299072266	
58	820.0127890110016	fix_post	2		12	56.0	2.5	blank	1.0	2704.869080066681	0.10002398490905762
59	820.1128129959106	fix_pre	0		120	57.0	2.5	/experiments/AOT/AOT_stimuli/rescaled_final/1883_fw.mp4	0.0	2704.96910405159	1.0000100135803223
59	820.696270942688	pulse	0	t		57.0	2.5	/experiments/AOT/AOT_stimuli/rescaled_final/1883_fw.mp4	0.0	2705.5525619983673	
59	821.112823009491	movie	1		245	57.0	2.5	/experiments/AOT/AOT_stimuli/rescaled_final/1883_fw.mp4	0.0	2705.9691140651703	2.4999008178710938
59	822.2963328361511	pulse	1	t		57.0	2.5	/experiments/AOT/AOT_stimuli/rescaled_final/1883_fw.mp4	0.0	2707.1526238918304	
59	823.6127238273621	fix_post	2		12	57.0	2.5	/experiments/AOT/AOT_stimuli/rescaled_final/1883_fw.mp4	0.0	2708.4690148830414	0.10008907318115234
60	823.7128129005432	fix_pre	0		120	58.0	2.5	/experiments/AOT/AOT_stimuli/rescaled_final/0781_rv.mp4	0.0	2708.5691039562225	1.0000090599060059
60	823.8963499069214	pulse	0	t		58.0	2.5	/experiments/AOT/AOT_stimuli/rescaled_final/0781_rv.mp4	0.0	2708.7526409626007	
60	824.7128219604492	movie	1		245	58.0	2.5	/experiments/AOT/AOT_stimuli/rescaled_final/0781_rv.mp4	0.0	2709.5691130161285	2.4998128414154053
60	825.4962258338928	pulse	1	t		58.0	2.5	/experiments/AOT/AOT_stimuli/rescaled_final/0781_rv.mp4	0.0	2710.352516889572	
60	827.0948188304901	pulse	1	t		58.0	2.5	/experiments/AOT/AOT_stimuli/rescaled_final/0781_rv.mp4	0.0	2711.9511098861694	
60	827.2126348018646	fix_post	2		12	58.0	2.5	/experiments/AOT/AOT_stimuli/rescaled_final/0781_rv.mp4	0.0	2712.068925857544	0.10008907318115234
61	827.3127238750458	fix_pre	0		120	59.0	2.5	/experiments/AOT/AOT_stimuli/rescaled_final/1824_fw.mp4	0.0	2712.169014930725	0.9999611377716064
61	828.3126850128174	movie	1		244	59.0	2.5	/experiments/AOT/AOT_stimuli/rescaled_final/1824_fw.mp4	0.0	2713.1689760684967	2.5000808238983154
61	828.6963839530945	pulse	1	t		59.0	2.5	/experiments/AOT/AOT_stimuli/rescaled_final/1824_fw.mp4	0.0	2713.552675008774	
61	830.2962210178375	pulse	1	t		59.0	2.5	/experiments/AOT/AOT_stimuli/rescaled_final/1824_fw.mp4	0.0	2715.152512073517	
61	830.8127658367157	fix_post	2		12	59.0	2.5	/experiments/AOT/AOT_stimuli/rescaled_final/1824_fw.mp4	0.0	2715.669056892395	0.10001301765441895
62	830.9127788543701	fix_pre	0		119	60.0	2.5	/experiments/AOT/AOT_stimuli/rescaled_final/2098_rv.mp4	0.0	2715.7690699100494	0.991523027420044
62	831.8961129188538	pulse	0	t		60.0	2.5	/experiments/AOT/AOT_stimuli/rescaled_final/2098_rv.mp4	0.0	2716.752403974533	
62	831.9043018817902	movie	1		245	60.0	2.5	/experiments/AOT/AOT_stimuli/rescaled_final/2098_rv.mp4	0.0	2716.7605929374695	2.508043050765991
62	833.4958539009094	pulse	1	t		60.0	2.5	/experiments/AOT/AOT_stimuli/rescaled_final/2098_rv.mp4	0.0	2718.3521449565887	
62	834.4123449325562	fix_post	2		12	60.0	2.5	/experiments/AOT/AOT_stimuli/rescaled_final/2098_rv.mp4	0.0	2719.2686359882355	0.10038208961486816
63	834.512727022171	fix_pre	0		120	61.0	2.5	/experiments/AOT/AOT_stimuli/rescaled_final/1690_fw.mp4	0.0	2719.3690180778503	1.0000288486480713
63	835.0974638462067	pulse	0	t		61.0	2.5	/experiments/AOT/AOT_stimuli/rescaled_final/1690_fw.mp4	0.0	2719.953754901886	
63	835.5127558708191	movie	1		244	61.0	2.5	/experiments/AOT/AOT_stimuli/rescaled_final/1690_fw.mp4	0.0	2720.3690469264984	2.4999711513519287
63	836.6964168548584	pulse	1	t		61.0	2.5	/experiments/AOT/AOT_stimuli/rescaled_final/1690_fw.mp4	0.0	2721.5527079105377	
63	838.012727022171	fix_post	2		12	61.0	2.5	/experiments/AOT/AOT_stimuli/rescaled_final/1690_fw.mp4	0.0	2722.8690180778503	0.09952282905578613
64	838.1122498512268	fix_pre	0		120	62.0	2.5	blank	1.0	2722.968540906906	1.0004589557647705
64	838.2961668968201	pulse	0	t		62.0	2.5	blank	1.0	2723.1524579524994	
64	839.1127088069916	movie	1		300	62.0	2.5	blank	1.0	2723.968999862671	2.5003280639648438
64	839.8957679271698	pulse	1	t		62.0	2.5	blank	1.0	2724.752058982849	
64	841.4960358142853	pulse	1	t		62.0	2.5	blank	1.0	2726.3523268699646	
64	841.6130368709564	fix_post	2		12	62.0	2.5	blank	1.0	2726.4693279266357	0.09991097450256348
65	841.712947845459	fix_pre	0		120	63.0	2.5	/experiments/AOT/AOT_stimuli/rescaled_final/1276_rv.mp4	0.0	2726.5692389011383	0.9997861385345459
65	842.7127339839935	movie	1		245	63.0	2.5	/experiments/AOT/AOT_stimuli/rescaled_final/1276_rv.mp4	0.0	2727.569025039673	2.4999468326568604
65	843.0955078601837	pulse	1	t		63.0	2.5	/experiments/AOT/AOT_stimuli/rescaled_final/1276_rv.mp4	0.0	2727.951798915863	
65	844.696053981781	pulse	1	t		63.0	2.5	/experiments/AOT/AOT_stimuli/rescaled_final/1276_rv.mp4	0.0	2729.5523450374603	
65	845.2126808166504	fix_post	2		12	63.0	2.5	/experiments/AOT/AOT_stimuli/rescaled_final/1276_rv.mp4	0.0	2730.0689718723297	0.0999610424041748
66	845.3126418590546	fix_pre	0		119	64.0	2.5	/experiments/AOT/AOT_stimuli/rescaled_final/0594_rv.mp4	0.0	2730.168932914734	0.9916191101074219
66	846.2961528301239	pulse	0	t		64.0	2.5	/experiments/AOT/AOT_stimuli/rescaled_final/0594_rv.mp4	0.0	2731.152443885803	
66	846.304260969162	movie	1		245	64.0	2.5	/experiments/AOT/AOT_stimuli/rescaled_final/0594_rv.mp4	0.0	2731.1605520248413	2.5082788467407227
66	847.8957188129425	pulse	1	t		64.0	2.5	/experiments/AOT/AOT_stimuli/rescaled_final/0594_rv.mp4	0.0	2732.752009868622	
66	848.8125398159027	fix_post	2		12	64.0	2.5	/experiments/AOT/AOT_stimuli/rescaled_final/0594_rv.mp4	0.0	2733.668830871582	0.10005402565002441
67	848.9125938415527	fix_pre	0		120	65.0	2.5	/experiments/AOT/AOT_stimuli/rescaled_final/1629_rv.mp4	0.0	2733.768884897232	0.9999890327453613
67	849.4961018562317	pulse	0	t		65.0	2.5	/experiments/AOT/AOT_stimuli/rescaled_final/1629_rv.mp4	0.0	2734.352392911911	
67	849.9125828742981	movie	1		241	65.0	2.5	/experiments/AOT/AOT_stimuli/rescaled_final/1629_rv.mp4	0.0	2734.7688739299774	2.4996421337127686
67	851.0961639881134	pulse	1	t		65.0	2.5	/experiments/AOT/AOT_stimuli/rescaled_final/1629_rv.mp4	0.0	2735.9524550437927	
67	852.4122250080109	fix_post	2		12	65.0	2.5	/experiments/AOT/AOT_stimuli/rescaled_final/1629_rv.mp4	0.0	2737.26851606369	0.10032796859741211
68	852.5125529766083	fix_pre	0		120	66.0	2.5	/experiments/AOT/AOT_stimuli/rescaled_final/1112_rv.mp4	0.0	2737.3688440322876	1.0000648498535156
68	852.6961178779602	pulse	0	t		66.0	2.5	/experiments/AOT/AOT_stimuli/rescaled_final/1112_rv.mp4	0.0	2737.5524089336395	
68	853.5126178264618	movie	1		243	66.0	2.5	/experiments/AOT/AOT_stimuli/rescaled_final/1112_rv.mp4	0.0	2738.368908882141	2.5000030994415283
68	854.296098947525	pulse	1	t		66.0	2.5	/experiments/AOT/AOT_stimuli/rescaled_final/1112_rv.mp4	0.0	2739.1523900032043	
68	855.8946390151978	pulse	1	t		66.0	2.5	/experiments/AOT/AOT_stimuli/rescaled_final/1112_rv.mp4	0.0	2740.750930070877	
68	856.0126209259033	fix_post	2		12	66.0	2.5	/experiments/AOT/AOT_stimuli/rescaled_final/1112_rv.mp4	0.0	2740.8689119815826	0.09998297691345215
69	856.1126039028168	fix_pre	0		120	67.0	2.5	/experiments/AOT/AOT_stimuli/rescaled_final/0831_fw.mp4	0.0	2740.968894958496	1.000014066696167
69	857.1126179695129	movie	1		243	67.0	2.5	/experiments/AOT/AOT_stimuli/rescaled_final/0831_fw.mp4	0.0	2741.9689090251923	2.4999840259552
69	857.4961678981781	pulse	1	t		67.0	2.5	/experiments/AOT/AOT_stimuli/rescaled_final/0831_fw.mp4	0.0	2742.3524589538574	
69	859.096088886261	pulse	1	t		67.0	2.5	/experiments/AOT/AOT_stimuli/rescaled_final/0831_fw.mp4	0.0	2743.9523799419403	
69	859.6126019954681	fix_post	2		12	67.0	2.5	/experiments/AOT/AOT_stimuli/rescaled_final/0831_fw.mp4	0.0	2744.4688930511475	0.09993100166320801
70	859.7125329971313	fix_pre	0		119	68.0	2.5	/experiments/AOT/AOT_stimuli/rescaled_final/1509_rv.mp4	0.0	2744.5688240528107	0.9917359352111816
70	860.6961009502411	pulse	0	t		68.0	2.5	/experiments/AOT/AOT_stimuli/rescaled_final/1509_rv.mp4	0.0	2745.5523920059204	
70	860.7042689323425	movie	1		245	68.0	2.5	/experiments/AOT/AOT_stimuli/rescaled_final/1509_rv.mp4	0.0	2745.560559988022	2.5081889629364014
70	862.2956659793854	pulse	1	t		68.0	2.5	/experiments/AOT/AOT_stimuli/rescaled_final/1509_rv.mp4	0.0	2747.1519570350647	
70	863.2124578952789	fix_post	2		12	68.0	2.5	/experiments/AOT/AOT_stimuli/rescaled_final/1509_rv.mp4	0.0	2748.0687489509583	0.10002899169921875
71	863.3124868869781	fix_pre	0		120	69.0	2.5	blank	1.0	2748.1687779426575	1.0000231266021729
71	863.8973288536072	pulse	0	t		69.0	2.5	blank	1.0	2748.7536199092865	
71	864.3125100135803	movie	1		300	69.0	2.5	blank	1.0	2749.1688010692596	2.5000247955322266
71	865.4960479736328	pulse	1	t		69.0	2.5	blank	1.0	2750.352339029312	
71	866.8125348091125	fix_post	2		12	69.0	2.5	blank	1.0	2751.668825864792	0.0999290943145752
72	866.9124639034271	fix_pre	0		120	70.0	2.5	/experiments/AOT/AOT_stimuli/rescaled_final/0368_fw.mp4	0.0	2751.7687549591064	1.0001111030578613
72	867.0960719585419	pulse	0	t		70.0	2.5	/experiments/AOT/AOT_stimuli/rescaled_final/0368_fw.mp4	0.0	2751.952363014221	
72	867.912575006485	movie	1		244	70.0	2.5	/experiments/AOT/AOT_stimuli/rescaled_final/0368_fw.mp4	0.0	2752.7688660621643	2.499490976333618
72	868.6959819793701	pulse	1	t		70.0	2.5	/experiments/AOT/AOT_stimuli/rescaled_final/0368_fw.mp4	0.0	2753.5522730350494	
72	870.2948069572449	pulse	1	t		70.0	2.5	/experiments/AOT/AOT_stimuli/rescaled_final/0368_fw.mp4	0.0	2755.151098012924	
72	870.4120659828186	fix_post	2		12	70.0	2.5	/experiments/AOT/AOT_stimuli/rescaled_final/0368_fw.mp4	0.0	2755.268357038498	0.10048198699951172
73	870.5125479698181	fix_pre	0		120	71.0	2.5	/experiments/AOT/AOT_stimuli/rescaled_final/0150_fw.mp4	0.0	2755.3688390254974	0.9999549388885498
73	871.5125029087067	movie	1		243	71.0	2.5	/experiments/AOT/AOT_stimuli/rescaled_final/0150_fw.mp4	0.0	2756.368793964386	2.499577045440674
73	871.8964049816132	pulse	1	t		71.0	2.5	/experiments/AOT/AOT_stimuli/rescaled_final/0150_fw.mp4	0.0	2756.7526960372925	
73	873.4959979057312	pulse	1	t		71.0	2.5	/experiments/AOT/AOT_stimuli/rescaled_final/0150_fw.mp4	0.0	2758.3522889614105	
73	874.0120799541473	fix_post	2		12	71.0	2.5	/experiments/AOT/AOT_stimuli/rescaled_final/0150_fw.mp4	0.0	2758.8683710098267	0.10041403770446777
74	874.1124939918518	fix_pre	0		119	72.0	2.5	/experiments/AOT/AOT_stimuli/rescaled_final/0976_rv.mp4	0.0	2758.968785047531	0.991710901260376
74	875.0960378646851	pulse	0	t		72.0	2.5	/experiments/AOT/AOT_stimuli/rescaled_final/0976_rv.mp4	0.0	2759.9523289203644	
74	875.1042048931122	movie	1		245	72.0	2.5	/experiments/AOT/AOT_stimuli/rescaled_final/0976_rv.mp4	0.0	2759.9604959487915	2.5083060264587402
74	876.6955208778381	pulse	1	t		72.0	2.5	/experiments/AOT/AOT_stimuli/rescaled_final/0976_rv.mp4	0.0	2761.5518119335175	
74	877.6125109195709	fix_post	2		12	72.0	2.5	/experiments/AOT/AOT_stimuli/rescaled_final/0976_rv.mp4	0.0	2762.4688019752502	0.09996700286865234
75	877.7124779224396	fix_pre	0		120	73.0	2.5	/experiments/AOT/AOT_stimuli/rescaled_final/0297_fw.mp4	0.0	2762.568768978119	0.9999649524688721
75	878.2971768379211	pulse	0	t		73.0	2.5	/experiments/AOT/AOT_stimuli/rescaled_final/0297_fw.mp4	0.0	2763.1534678936005	
75	878.7124428749084	movie	1		243	73.0	2.5	/experiments/AOT/AOT_stimuli/rescaled_final/0297_fw.mp4	0.0	2763.5687339305878	2.5000839233398438
75	879.8959488868713	pulse	1	t		73.0	2.5	/experiments/AOT/AOT_stimuli/rescaled_final/0297_fw.mp4	0.0	2764.7522399425507	
75	881.2125267982483	fix_post	2		12	73.0	2.5	/experiments/AOT/AOT_stimuli/rescaled_final/0297_fw.mp4	0.0	2766.0688178539276	0.09990620613098145
76	881.3124330043793	fix_pre	0		120	74.0	2.5	/experiments/AOT/AOT_stimuli/rescaled_final/1252_rv.mp4	0.0	2766.1687240600586	0.9999969005584717
76	881.4959650039673	pulse	0	t		74.0	2.5	/experiments/AOT/AOT_stimuli/rescaled_final/1252_rv.mp4	0.0	2766.3522560596466	
76	882.3124299049377	movie	1		243	74.0	2.5	/experiments/AOT/AOT_stimuli/rescaled_final/1252_rv.mp4	0.0	2767.168720960617	2.5000948905944824
76	883.095930814743	pulse	1	t		74.0	2.5	/experiments/AOT/AOT_stimuli/rescaled_final/1252_rv.mp4	0.0	2767.9522218704224	
76	884.6943368911743	pulse	1	t		74.0	2.5	/experiments/AOT/AOT_stimuli/rescaled_final/1252_rv.mp4	0.0	2769.5506279468536	
76	884.8125247955322	fix_post	2		12	74.0	2.5	/experiments/AOT/AOT_stimuli/rescaled_final/1252_rv.mp4	0.0	2769.6688158512115	0.09994816780090332
77	884.9124729633331	fix_pre	0		120	75.0	2.5	blank	1.0	2769.7687640190125	0.9999580383300781
77	885.9124310016632	movie	1		300	75.0	2.5	blank	1.0	2770.7687220573425	2.500098943710327
77	886.2959640026093	pulse	1	t		75.0	2.5	blank	1.0	2771.1522550582886	
77	887.8959269523621	pulse	1	t		75.0	2.5	blank	1.0	2772.7522180080414	
77	888.4125299453735	fix_post	2		12	75.0	2.5	blank	1.0	2773.268821001053	0.09998106956481934
78	888.5125110149384	fix_pre	0		119	76.0	2.5	/experiments/AOT/AOT_stimuli/rescaled_final/0608_fw.mp4	0.0	2773.3688020706177	0.9916408061981201
78	889.4959468841553	pulse	0	t		76.0	2.5	/experiments/AOT/AOT_stimuli/rescaled_final/0608_fw.mp4	0.0	2774.3522379398346	
78	889.5041518211365	movie	1		244	76.0	2.5	/experiments/AOT/AOT_stimuli/rescaled_final/0608_fw.mp4	0.0	2774.360442876816	2.508272171020508
78	891.0970969200134	pulse	1	t		76.0	2.5	/experiments/AOT/AOT_stimuli/rescaled_final/0608_fw.mp4	0.0	2775.9533879756927	
78	892.012423992157	fix_post	2		12	76.0	2.5	/experiments/AOT/AOT_stimuli/rescaled_final/0608_fw.mp4	0.0	2776.8687150478363	0.10003781318664551
79	892.1124618053436	fix_pre	0		120	77.0	2.5	/experiments/AOT/AOT_stimuli/rescaled_final/0026_rv.mp4	0.0	2776.968752861023	1.0000381469726562
79	892.69593501091	pulse	0	t		77.0	2.5	/experiments/AOT/AOT_stimuli/rescaled_final/0026_rv.mp4	0.0	2777.5522260665894	
79	893.1124999523163	movie	1		246	77.0	2.5	/experiments/AOT/AOT_stimuli/rescaled_final/0026_rv.mp4	0.0	2777.9687910079956	2.499553918838501
79	894.2960419654846	pulse	1	t		77.0	2.5	/experiments/AOT/AOT_stimuli/rescaled_final/0026_rv.mp4	0.0	2779.152333021164	
79	895.6120538711548	fix_post	2		12	77.0	2.5	/experiments/AOT/AOT_stimuli/rescaled_final/0026_rv.mp4	0.0	2780.468344926834	0.1004331111907959
80	895.7124869823456	fix_pre	0		120	78.0	2.5	/experiments/AOT/AOT_stimuli/rescaled_final/1388_rv.mp4	0.0	2780.568778038025	1.0001459121704102
80	895.8960258960724	pulse	0	t		78.0	2.5	/experiments/AOT/AOT_stimuli/rescaled_final/1388_rv.mp4	0.0	2780.7523169517517	
80	896.712632894516	movie	1		245	78.0	2.5	/experiments/AOT/AOT_stimuli/rescaled_final/1388_rv.mp4	0.0	2781.5689239501953	2.499330997467041
80	897.4958779811859	pulse	1	t		78.0	2.5	/experiments/AOT/AOT_stimuli/rescaled_final/1388_rv.mp4	0.0	2782.3521690368652	
80	899.0948770046234	pulse	1	t		78.0	2.5	/experiments/AOT/AOT_stimuli/rescaled_final/1388_rv.mp4	0.0	2783.9511680603027	
80	899.211963891983	fix_post	2		12	78.0	2.5	/experiments/AOT/AOT_stimuli/rescaled_final/1388_rv.mp4	0.0	2784.0682549476624	0.10044598579406738
81	899.3124098777771	fix_pre	0		120	79.0	2.5	/experiments/AOT/AOT_stimuli/rescaled_final/1300_fw.mp4	0.0	2784.1687009334564	1.000087022781372
81	900.3124969005585	movie	1		247	79.0	2.5	/experiments/AOT/AOT_stimuli/rescaled_final/1300_fw.mp4	0.0	2785.168787956238	2.499951124191284
81	900.6953988075256	pulse	1	t		79.0	2.5	/experiments/AOT/AOT_stimuli/rescaled_final/1300_fw.mp4	0.0	2785.551689863205	
81	902.2958610057831	pulse	1	t		79.0	2.5	/experiments/AOT/AOT_stimuli/rescaled_final/1300_fw.mp4	0.0	2787.1521520614624	
81	902.8124480247498	fix_post	2		12	79.0	2.5	/experiments/AOT/AOT_stimuli/rescaled_final/1300_fw.mp4	0.0	2787.668739080429	0.10012984275817871
82	902.9125778675079	fix_pre	0		119	80.0	2.5	/experiments/AOT/AOT_stimuli/rescaled_final/1388_fw.mp4	0.0	2787.7688689231873	0.9915180206298828
82	903.8958568572998	pulse	0	t		80.0	2.5	/experiments/AOT/AOT_stimuli/rescaled_final/1388_fw.mp4	0.0	2788.752147912979	
82	903.9040958881378	movie	1		245	80.0	2.5	/experiments/AOT/AOT_stimuli/rescaled_final/1388_fw.mp4	0.0	2788.760386943817	2.507920026779175
82	905.4960978031158	pulse	1	t		80.0	2.5	/experiments/AOT/AOT_stimuli/rescaled_final/1388_fw.mp4	0.0	2790.352388858795	
82	906.412015914917	fix_post	2		12	80.0	2.5	/experiments/AOT/AOT_stimuli/rescaled_final/1388_fw.mp4	0.0	2791.2683069705963	0.10036301612854004
83	906.5123789310455	fix_pre	0		120	81.0	2.5	/experiments/AOT/AOT_stimuli/rescaled_final/1175_rv.mp4	0.0	2791.368669986725	0.9999959468841553
83	907.095871925354	pulse	0	t		81.0	2.5	/experiments/AOT/AOT_stimuli/rescaled_final/1175_rv.mp4	0.0	2791.9521629810333	
83	907.5123748779297	movie	1		246	81.0	2.5	/experiments/AOT/AOT_stimuli/rescaled_final/1175_rv.mp4	0.0	2792.368665933609	2.499997138977051
83	908.6959309577942	pulse	1	t		81.0	2.5	/experiments/AOT/AOT_stimuli/rescaled_final/1175_rv.mp4	0.0	2793.5522220134735	
83	910.0123720169067	fix_post	2		12	81.0	2.5	/experiments/AOT/AOT_stimuli/rescaled_final/1175_rv.mp4	0.0	2794.868663072586	0.09995579719543457
84	910.1123278141022	fix_pre	0		120	82.0	2.5	/experiments/AOT/AOT_stimuli/rescaled_final/1379_rv.mp4	0.0	2794.9686188697815	1.0000860691070557
84	910.2958199977875	pulse	0	t		82.0	2.5	/experiments/AOT/AOT_stimuli/rescaled_final/1379_rv.mp4	0.0	2795.152111053467	
84	911.1124138832092	movie	1		243	82.0	2.5	/experiments/AOT/AOT_stimuli/rescaled_final/1379_rv.mp4	0.0	2795.9687049388885	2.5000059604644775
84	911.895781993866	pulse	1	t		82.0	2.5	/experiments/AOT/AOT_stimuli/rescaled_final/1379_rv.mp4	0.0	2796.7520730495453	
84	913.4958329200745	pulse	1	t		82.0	2.5	/experiments/AOT/AOT_stimuli/rescaled_final/1379_rv.mp4	0.0	2798.352123975754	
84	913.6124198436737	fix_post	2		12	82.0	2.5	/experiments/AOT/AOT_stimuli/rescaled_final/1379_rv.mp4	0.0	2798.468710899353	0.09986495971679688
85	913.7122848033905	fix_pre	0		120	83.0	2.5	blank	1.0	2798.56857585907	1.0000381469726562
85	914.7123229503632	movie	1		300	83.0	2.5	blank	1.0	2799.5686140060425	2.5000200271606445
85	915.0958888530731	pulse	1	t		83.0	2.5	blank	1.0	2799.9521799087524	
85	916.6957960128784	pulse	1	t		83.0	2.5	blank	1.0	2801.5520870685577	
85	917.2123429775238	fix_post	2		12	83.0	2.5	blank	1.0	2802.068634033203	0.09992003440856934
87	917.3122630119324	stim	0		1716					2802.1685540676117	14.300040006637573
87	918.2958109378815	pulse	0	t						2803.152101993561	
87	919.8958988189697	pulse	0	t						2804.752189874649	
87	921.4957020282745	pulse	0	t						2806.351993083954	
87	923.0958218574524	pulse	0	t						2807.9521129131317	
87	924.695702791214	pulse	0	t						2809.5519938468933	
87	926.2956788539886	pulse	0	t						2811.151969909668	
87	927.8956170082092	pulse	0	t						2812.7519080638885	
87	929.4956758022308	pulse	0	t						2814.35196685791	
87	931.0956468582153	pulse	0	t						2815.9519379138947	
