trial_nr	onset	event_type	phase	response	nr_frames	movie_index	movie_duration	movie_file	blank	onset_abs	duration
0	0.16642451286315918	stim	0		40					17.537448167800903	0.3333323001861572
0	0.4917142391204834	response	0	space						17.862737894058228	
1	0.4997568130493164	stim	0		4386					17.87078046798706	36.567346811294556
1	37.052621603012085	pulse	0	t						54.42364525794983	
1	37.06710362434387	stim	1		1714					54.438127279281616	14.298643350601196
1	38.64740991592407	pulse	1	t						56.018433570861816	
1	40.24760103225708	pulse	1	t						57.618624687194824	
1	41.84782838821411	pulse	1	t						59.218852043151855	
1	43.44820833206177	pulse	1	t						60.81923198699951	
1	45.0483238697052	pulse	1	t						62.419347524642944	
1	46.64853477478027	pulse	1	t						64.01955842971802	
1	48.24880838394165	pulse	1	t						65.6198320388794	
1	49.84903144836426	pulse	1	t						67.220055103302	
2	51.36574697494507	fix_pre	0		11	0.0	2.5	/experiments/knapen_AOT/AOT_stimuli/rescaled_final/0452_fw.mp4	0.0	68.73677062988281	0.1083822250366211
2	51.4492826461792	pulse	0	t		0.0	2.5	/experiments/knapen_AOT/AOT_stimuli/rescaled_final/0452_fw.mp4	0.0	68.82030630111694	
2	51.47412919998169	movie	1		270	0.0	2.5	/experiments/knapen_AOT/AOT_stimuli/rescaled_final/0452_fw.mp4	0.0	68.84515285491943	2.4920361042022705
2	53.04842185974121	pulse	1	t		0.0	2.5	/experiments/knapen_AOT/AOT_stimuli/rescaled_final/0452_fw.mp4	0.0	70.41944551467896	
2	53.96616530418396	fix_post	2		12	0.0	2.5	/experiments/knapen_AOT/AOT_stimuli/rescaled_final/0452_fw.mp4	0.0	71.3371889591217	0.0999915599822998
3	54.06615686416626	fix_pre	0		120	1.0	2.5	/experiments/knapen_AOT/AOT_stimuli/rescaled_final/1809_fw.mp4	0.0	71.437180519104	1.0084943771362305
3	54.64977526664734	pulse	0	t		1.0	2.5	/experiments/knapen_AOT/AOT_stimuli/rescaled_final/1809_fw.mp4	0.0	72.02079892158508	
3	55.07465124130249	movie	1		280	1.0	2.5	/experiments/knapen_AOT/AOT_stimuli/rescaled_final/1809_fw.mp4	0.0	72.44567489624023	2.492027759552002
3	56.248016595840454	pulse	1	t		1.0	2.5	/experiments/knapen_AOT/AOT_stimuli/rescaled_final/1809_fw.mp4	0.0	73.6190402507782	
3	57.56667900085449	fix_post	2		12	1.0	2.5	/experiments/knapen_AOT/AOT_stimuli/rescaled_final/1809_fw.mp4	0.0	74.93770265579224	0.10009145736694336
4	57.666770458221436	fix_pre	0		120	2.0	2.5	/experiments/knapen_AOT/AOT_stimuli/rescaled_final/0211_rv.mp4	0.0	75.03779411315918	1.0084517002105713
4	57.85045027732849	pulse	0	t		2.0	2.5	/experiments/knapen_AOT/AOT_stimuli/rescaled_final/0211_rv.mp4	0.0	75.22147393226624	
4	58.67522215843201	movie	1		277	2.0	2.5	/experiments/knapen_AOT/AOT_stimuli/rescaled_final/0211_rv.mp4	0.0	76.04624581336975	2.492048740386963
4	59.44813632965088	pulse	1	t		2.0	2.5	/experiments/knapen_AOT/AOT_stimuli/rescaled_final/0211_rv.mp4	0.0	76.81915998458862	
4	61.04875040054321	pulse	1	t		2.0	2.5	/experiments/knapen_AOT/AOT_stimuli/rescaled_final/0211_rv.mp4	0.0	78.41977405548096	
4	61.16727089881897	fix_post	2		12	2.0	2.5	/experiments/knapen_AOT/AOT_stimuli/rescaled_final/0211_rv.mp4	0.0	78.53829455375671	0.09997320175170898
5	61.26724410057068	fix_pre	0		120	3.0	2.5	/experiments/knapen_AOT/AOT_stimuli/rescaled_final/1753_rv.mp4	0.0	78.63826775550842	1.0084993839263916
5	62.27574348449707	movie	1		269	3.0	2.5	/experiments/knapen_AOT/AOT_stimuli/rescaled_final/1753_rv.mp4	0.0	79.64676713943481	2.492039203643799
5	62.651416540145874	pulse	1	t		3.0	2.5	/experiments/knapen_AOT/AOT_stimuli/rescaled_final/1753_rv.mp4	0.0	80.02244019508362	
5	64.24921679496765	pulse	1	t		3.0	2.5	/experiments/knapen_AOT/AOT_stimuli/rescaled_final/1753_rv.mp4	0.0	81.6202404499054	
5	64.76778268814087	fix_post	2		12	3.0	2.5	/experiments/knapen_AOT/AOT_stimuli/rescaled_final/1753_rv.mp4	0.0	82.13880634307861	0.09999942779541016
6	64.86778211593628	fix_pre	0		119	4.0	2.5	/experiments/knapen_AOT/AOT_stimuli/rescaled_final/0033_rv.mp4	0.0	82.23880577087402	1.000145435333252
6	65.85153484344482	pulse	0	t		4.0	2.5	/experiments/knapen_AOT/AOT_stimuli/rescaled_final/0033_rv.mp4	0.0	83.22255849838257	
6	65.86792755126953	movie	1		259	4.0	2.5	/experiments/knapen_AOT/AOT_stimuli/rescaled_final/0033_rv.mp4	0.0	83.23895120620728	2.5003662109375
6	67.45179986953735	pulse	1	t		4.0	2.5	/experiments/knapen_AOT/AOT_stimuli/rescaled_final/0033_rv.mp4	0.0	84.8228235244751	
6	68.36829376220703	fix_post	2		12	4.0	2.5	/experiments/knapen_AOT/AOT_stimuli/rescaled_final/0033_rv.mp4	0.0	85.73931741714478	0.10007429122924805
7	68.46836805343628	fix_pre	0		120	5.0	2.5	blank	1.0	85.83939170837402	1.0001220703125
7	69.05192685127258	pulse	0	t		5.0	2.5	blank	1.0	86.42295050621033	
7	69.46849012374878	movie	1		300	5.0	2.5	blank	1.0	86.83951377868652	2.5003490447998047
7	70.6521852016449	pulse	1	t		5.0	2.5	blank	1.0	88.02320885658264	
7	71.96883916854858	fix_post	2		12	5.0	2.5	blank	1.0	89.33986282348633	0.10005855560302734
8	72.06889772415161	fix_pre	0		120	6.0	2.5	/experiments/knapen_AOT/AOT_stimuli/rescaled_final/0701_rv.mp4	0.0	89.43992137908936	1.0084969997406006
8	72.25250148773193	pulse	0	t		6.0	2.5	/experiments/knapen_AOT/AOT_stimuli/rescaled_final/0701_rv.mp4	0.0	89.62352514266968	
8	73.07739472389221	movie	1		273	6.0	2.5	/experiments/knapen_AOT/AOT_stimuli/rescaled_final/0701_rv.mp4	0.0	90.44841837882996	2.4919819831848145
8	73.85296440124512	pulse	1	t		6.0	2.5	/experiments/knapen_AOT/AOT_stimuli/rescaled_final/0701_rv.mp4	0.0	91.22398805618286	
8	75.45078992843628	pulse	1	t		6.0	2.5	/experiments/knapen_AOT/AOT_stimuli/rescaled_final/0701_rv.mp4	0.0	92.82181358337402	
8	75.56937670707703	fix_post	2		12	6.0	2.5	/experiments/knapen_AOT/AOT_stimuli/rescaled_final/0701_rv.mp4	0.0	92.94040036201477	0.10001397132873535
9	75.66939067840576	fix_pre	0		120	7.0	2.5	/experiments/knapen_AOT/AOT_stimuli/rescaled_final/0119_fw.mp4	0.0	93.0404143333435	1.0085127353668213
9	76.67790341377258	movie	1		273	7.0	2.5	/experiments/knapen_AOT/AOT_stimuli/rescaled_final/0119_fw.mp4	0.0	94.04892706871033	2.4920191764831543
9	77.05169367790222	pulse	1	t		7.0	2.5	/experiments/knapen_AOT/AOT_stimuli/rescaled_final/0119_fw.mp4	0.0	94.42271733283997	
9	78.65267014503479	pulse	1	t		7.0	2.5	/experiments/knapen_AOT/AOT_stimuli/rescaled_final/0119_fw.mp4	0.0	96.02369379997253	
9	79.16992259025574	fix_post	2		12	7.0	2.5	/experiments/knapen_AOT/AOT_stimuli/rescaled_final/0119_fw.mp4	0.0	96.54094624519348	0.10008025169372559
10	79.27000284194946	fix_pre	0		119	8.0	2.5	/experiments/knapen_AOT/AOT_stimuli/rescaled_final/1898_rv.mp4	0.0	96.6410264968872	1.0001220703125
10	80.25367856025696	pulse	0	t		8.0	2.5	/experiments/knapen_AOT/AOT_stimuli/rescaled_final/1898_rv.mp4	0.0	97.6247022151947	
10	80.27012491226196	movie	1		269	8.0	2.5	/experiments/knapen_AOT/AOT_stimuli/rescaled_final/1898_rv.mp4	0.0	97.6411485671997	2.5003504753112793
10	81.85266447067261	pulse	1	t		8.0	2.5	/experiments/knapen_AOT/AOT_stimuli/rescaled_final/1898_rv.mp4	0.0	99.22368812561035	
10	82.77047538757324	fix_post	2		12	8.0	2.5	/experiments/knapen_AOT/AOT_stimuli/rescaled_final/1898_rv.mp4	0.0	100.14149904251099	0.10003066062927246
11	82.87050604820251	fix_pre	0		120	9.0	2.5	/experiments/knapen_AOT/AOT_stimuli/rescaled_final/0577_rv.mp4	0.0	100.24152970314026	1.0084924697875977
11	83.45407772064209	pulse	0	t		9.0	2.5	/experiments/knapen_AOT/AOT_stimuli/rescaled_final/0577_rv.mp4	0.0	100.82510137557983	
11	83.87899851799011	movie	1		287	9.0	2.5	/experiments/knapen_AOT/AOT_stimuli/rescaled_final/0577_rv.mp4	0.0	101.25002217292786	2.492018461227417
11	85.05226254463196	pulse	1	t		9.0	2.5	/experiments/knapen_AOT/AOT_stimuli/rescaled_final/0577_rv.mp4	0.0	102.4232861995697	
11	86.37101697921753	fix_post	2		12	9.0	2.5	/experiments/knapen_AOT/AOT_stimuli/rescaled_final/0577_rv.mp4	0.0	103.74204063415527	0.10003542900085449
12	86.47105240821838	fix_pre	0		120	10.0	2.5	/experiments/knapen_AOT/AOT_stimuli/rescaled_final/0147_fw.mp4	0.0	103.84207606315613	1.008467197418213
12	86.64760422706604	pulse	0	t		10.0	2.5	/experiments/knapen_AOT/AOT_stimuli/rescaled_final/0147_fw.mp4	0.0	104.01862788200378	
12	87.4795196056366	movie	1		283	10.0	2.5	/experiments/knapen_AOT/AOT_stimuli/rescaled_final/0147_fw.mp4	0.0	104.85054326057434	2.4920101165771484
12	88.2525143623352	pulse	1	t		10.0	2.5	/experiments/knapen_AOT/AOT_stimuli/rescaled_final/0147_fw.mp4	0.0	105.62353801727295	
12	89.84693717956543	pulse	1	t		10.0	2.5	/experiments/knapen_AOT/AOT_stimuli/rescaled_final/0147_fw.mp4	0.0	107.21796083450317	
12	89.97152972221375	fix_post	2		12	10.0	2.5	/experiments/knapen_AOT/AOT_stimuli/rescaled_final/0147_fw.mp4	0.0	107.34255337715149	0.10002803802490234
13	90.07155776023865	fix_pre	0		120	11.0	2.5	/experiments/knapen_AOT/AOT_stimuli/rescaled_final/0357_fw.mp4	0.0	107.44258141517639	1.0085358619689941
13	91.08009362220764	movie	1		285	11.0	2.5	/experiments/knapen_AOT/AOT_stimuli/rescaled_final/0357_fw.mp4	0.0	108.45111727714539	2.492013454437256
13	91.44721102714539	pulse	1	t		11.0	2.5	/experiments/knapen_AOT/AOT_stimuli/rescaled_final/0357_fw.mp4	0.0	108.81823468208313	
13	93.04725217819214	pulse	1	t		11.0	2.5	/experiments/knapen_AOT/AOT_stimuli/rescaled_final/0357_fw.mp4	0.0	110.41827583312988	
13	93.5721070766449	fix_post	2		12	11.0	2.5	/experiments/knapen_AOT/AOT_stimuli/rescaled_final/0357_fw.mp4	0.0	110.94313073158264	0.10004425048828125
14	93.67215132713318	fix_pre	0		118	12.0	2.5	blank	1.0	111.04317498207092	0.9834213256835938
14	94.64747309684753	pulse	0	t		12.0	2.5	blank	1.0	112.01849675178528	
14	94.65557265281677	movie	1		301	12.0	2.5	blank	1.0	112.02659630775452	2.5087172985076904
14	96.24781894683838	pulse	1	t		12.0	2.5	blank	1.0	113.61884260177612	
14	97.16428995132446	fix_post	2		12	12.0	2.5	blank	1.0	114.5353136062622	0.10002517700195312
15	97.26431512832642	fix_pre	0		120	13.0	2.5	/experiments/knapen_AOT/AOT_stimuli/rescaled_final/2100_rv.mp4	0.0	114.63533878326416	1.0085053443908691
15	97.8479413986206	pulse	0	t		13.0	2.5	/experiments/knapen_AOT/AOT_stimuli/rescaled_final/2100_rv.mp4	0.0	115.21896505355835	
15	98.27282047271729	movie	1		273	13.0	2.5	/experiments/knapen_AOT/AOT_stimuli/rescaled_final/2100_rv.mp4	0.0	115.64384412765503	2.4920175075531006
15	99.44760942459106	pulse	1	t		13.0	2.5	/experiments/knapen_AOT/AOT_stimuli/rescaled_final/2100_rv.mp4	0.0	116.81863307952881	
15	100.76483798027039	fix_post	2		12	13.0	2.5	/experiments/knapen_AOT/AOT_stimuli/rescaled_final/2100_rv.mp4	0.0	118.13586163520813	0.10002255439758301
16	100.86486053466797	fix_pre	0		120	14.0	2.5	/experiments/knapen_AOT/AOT_stimuli/rescaled_final/1300_rv.mp4	0.0	118.23588418960571	1.00850510597229
16	101.04852294921875	pulse	0	t		14.0	2.5	/experiments/knapen_AOT/AOT_stimuli/rescaled_final/1300_rv.mp4	0.0	118.4195466041565	
16	101.87336564064026	movie	1		271	14.0	2.5	/experiments/knapen_AOT/AOT_stimuli/rescaled_final/1300_rv.mp4	0.0	119.244389295578	2.4920177459716797
16	102.64866638183594	pulse	1	t		14.0	2.5	/experiments/knapen_AOT/AOT_stimuli/rescaled_final/1300_rv.mp4	0.0	120.01969003677368	
16	104.24803924560547	pulse	1	t		14.0	2.5	/experiments/knapen_AOT/AOT_stimuli/rescaled_final/1300_rv.mp4	0.0	121.61906290054321	
16	104.36538338661194	fix_post	2		12	14.0	2.5	/experiments/knapen_AOT/AOT_stimuli/rescaled_final/1300_rv.mp4	0.0	121.73640704154968	0.10006189346313477
17	104.46544528007507	fix_pre	0		120	15.0	2.5	/experiments/knapen_AOT/AOT_stimuli/rescaled_final/1545_fw.mp4	0.0	121.83646893501282	1.0084805488586426
17	105.47392582893372	movie	1		276	15.0	2.5	/experiments/knapen_AOT/AOT_stimuli/rescaled_final/1545_fw.mp4	0.0	122.84494948387146	2.4919748306274414
17	105.84774684906006	pulse	1	t		15.0	2.5	/experiments/knapen_AOT/AOT_stimuli/rescaled_final/1545_fw.mp4	0.0	123.2187705039978	
17	107.44765114784241	pulse	1	t		15.0	2.5	/experiments/knapen_AOT/AOT_stimuli/rescaled_final/1545_fw.mp4	0.0	124.81867480278015	
17	107.96590065956116	fix_post	2		12	15.0	2.5	/experiments/knapen_AOT/AOT_stimuli/rescaled_final/1545_fw.mp4	0.0	125.3369243144989	0.10002660751342773
18	108.06592726707458	fix_pre	0		119	16.0	2.5	/experiments/knapen_AOT/AOT_stimuli/rescaled_final/1704_fw.mp4	0.0	125.43695092201233	1.0001702308654785
18	109.04957890510559	pulse	0	t		16.0	2.5	/experiments/knapen_AOT/AOT_stimuli/rescaled_final/1704_fw.mp4	0.0	126.42060256004333	
18	109.06609749794006	movie	1		275	16.0	2.5	/experiments/knapen_AOT/AOT_stimuli/rescaled_final/1704_fw.mp4	0.0	126.43712115287781	2.5004217624664307
18	110.64830207824707	pulse	1	t		16.0	2.5	/experiments/knapen_AOT/AOT_stimuli/rescaled_final/1704_fw.mp4	0.0	128.01932573318481	
18	111.5665192604065	fix_post	2		12	16.0	2.5	/experiments/knapen_AOT/AOT_stimuli/rescaled_final/1704_fw.mp4	0.0	128.93754291534424	0.10000061988830566
19	111.6665198802948	fix_pre	0		120	17.0	2.5	/experiments/knapen_AOT/AOT_stimuli/rescaled_final/0073_rv.mp4	0.0	129.03754353523254	1.0084989070892334
19	112.25013041496277	pulse	0	t		17.0	2.5	/experiments/knapen_AOT/AOT_stimuli/rescaled_final/0073_rv.mp4	0.0	129.6211540699005	
19	112.67501878738403	movie	1		289	17.0	2.5	/experiments/knapen_AOT/AOT_stimuli/rescaled_final/0073_rv.mp4	0.0	130.04604244232178	2.491973400115967
19	113.84852743148804	pulse	1	t		17.0	2.5	/experiments/knapen_AOT/AOT_stimuli/rescaled_final/0073_rv.mp4	0.0	131.21955108642578	
19	115.1669921875	fix_post	2		12	17.0	2.5	/experiments/knapen_AOT/AOT_stimuli/rescaled_final/0073_rv.mp4	0.0	132.53801584243774	0.10003471374511719
20	115.26702690124512	fix_pre	0		120	18.0	2.5	/experiments/knapen_AOT/AOT_stimuli/rescaled_final/0593_rv.mp4	0.0	132.63805055618286	1.0085010528564453
20	115.45064330101013	pulse	0	t		18.0	2.5	/experiments/knapen_AOT/AOT_stimuli/rescaled_final/0593_rv.mp4	0.0	132.82166695594788	
20	116.27552795410156	movie	1		271	18.0	2.5	/experiments/knapen_AOT/AOT_stimuli/rescaled_final/0593_rv.mp4	0.0	133.6465516090393	2.492011785507202
20	117.04890084266663	pulse	1	t		18.0	2.5	/experiments/knapen_AOT/AOT_stimuli/rescaled_final/0593_rv.mp4	0.0	134.41992449760437	
20	118.64897108078003	pulse	1	t		18.0	2.5	/experiments/knapen_AOT/AOT_stimuli/rescaled_final/0593_rv.mp4	0.0	136.01999473571777	
20	118.76753973960876	fix_post	2		12	18.0	2.5	/experiments/knapen_AOT/AOT_stimuli/rescaled_final/0593_rv.mp4	0.0	136.1385633945465	0.10002708435058594
21	118.86756682395935	fix_pre	0		120	19.0	2.5	/experiments/knapen_AOT/AOT_stimuli/rescaled_final/1994_rv.mp4	0.0	136.2385904788971	1.0084919929504395
21	119.87605881690979	movie	1		271	19.0	2.5	/experiments/knapen_AOT/AOT_stimuli/rescaled_final/1994_rv.mp4	0.0	137.24708247184753	2.492029905319214
21	120.24999451637268	pulse	1	t		19.0	2.5	/experiments/knapen_AOT/AOT_stimuli/rescaled_final/1994_rv.mp4	0.0	137.62101817131042	
21	121.8492214679718	pulse	1	t		19.0	2.5	/experiments/knapen_AOT/AOT_stimuli/rescaled_final/1994_rv.mp4	0.0	139.22024512290955	
21	122.368088722229	fix_post	2		12	19.0	2.5	/experiments/knapen_AOT/AOT_stimuli/rescaled_final/1994_rv.mp4	0.0	139.73911237716675	0.10001230239868164
22	122.46810102462769	fix_pre	0		119	20.0	2.5	/experiments/knapen_AOT/AOT_stimuli/rescaled_final/1851_rv.mp4	0.0	139.83912467956543	1.0001559257507324
22	123.45179915428162	pulse	0	t		20.0	2.5	/experiments/knapen_AOT/AOT_stimuli/rescaled_final/1851_rv.mp4	0.0	140.82282280921936	
22	123.46825695037842	movie	1		287	20.0	2.5	/experiments/knapen_AOT/AOT_stimuli/rescaled_final/1851_rv.mp4	0.0	140.83928060531616	2.500394344329834
22	125.05041146278381	pulse	1	t		20.0	2.5	/experiments/knapen_AOT/AOT_stimuli/rescaled_final/1851_rv.mp4	0.0	142.42143511772156	
22	125.96865129470825	fix_post	2		12	20.0	2.5	/experiments/knapen_AOT/AOT_stimuli/rescaled_final/1851_rv.mp4	0.0	143.339674949646	0.10008454322814941
23	126.0687358379364	fix_pre	0		120	21.0	2.5	blank	1.0	143.43975949287415	1.0000426769256592
23	126.65228629112244	pulse	0	t		21.0	2.5	blank	1.0	144.02330994606018	
23	127.06877851486206	movie	1		300	21.0	2.5	blank	1.0	144.4398021697998	2.5003812313079834
23	128.25252175331116	pulse	1	t		21.0	2.5	blank	1.0	145.6235454082489	
23	129.56915974617004	fix_post	2		12	21.0	2.5	blank	1.0	146.9401834011078	0.10002613067626953
24	129.6691858768463	fix_pre	0		120	22.0	2.5	/experiments/knapen_AOT/AOT_stimuli/rescaled_final/1322_fw.mp4	0.0	147.04020953178406	1.008509874343872
24	129.85308027267456	pulse	0	t		22.0	2.5	/experiments/knapen_AOT/AOT_stimuli/rescaled_final/1322_fw.mp4	0.0	147.2241039276123	
24	130.67769575119019	movie	1		284	22.0	2.5	/experiments/knapen_AOT/AOT_stimuli/rescaled_final/1322_fw.mp4	0.0	148.04871940612793	2.491990327835083
24	131.4508137702942	pulse	1	t		22.0	2.5	/experiments/knapen_AOT/AOT_stimuli/rescaled_final/1322_fw.mp4	0.0	148.82183742523193	
24	133.05126428604126	pulse	1	t		22.0	2.5	/experiments/knapen_AOT/AOT_stimuli/rescaled_final/1322_fw.mp4	0.0	150.422287940979	
24	133.16968607902527	fix_post	2		12	22.0	2.5	/experiments/knapen_AOT/AOT_stimuli/rescaled_final/1322_fw.mp4	0.0	150.540709733963	0.10008645057678223
25	133.26977252960205	fix_pre	0		120	23.0	2.5	/experiments/knapen_AOT/AOT_stimuli/rescaled_final/1196_fw.mp4	0.0	150.6407961845398	1.0084574222564697
25	134.27822995185852	movie	1		277	23.0	2.5	/experiments/knapen_AOT/AOT_stimuli/rescaled_final/1196_fw.mp4	0.0	151.64925360679626	2.4920058250427246
25	134.6514081954956	pulse	1	t		23.0	2.5	/experiments/knapen_AOT/AOT_stimuli/rescaled_final/1196_fw.mp4	0.0	152.02243185043335	
25	136.25301456451416	pulse	1	t		23.0	2.5	/experiments/knapen_AOT/AOT_stimuli/rescaled_final/1196_fw.mp4	0.0	153.6240382194519	
25	136.77023577690125	fix_post	2		12	23.0	2.5	/experiments/knapen_AOT/AOT_stimuli/rescaled_final/1196_fw.mp4	0.0	154.141259431839	0.10011005401611328
26	136.87034583091736	fix_pre	0		119	24.0	2.5	/experiments/knapen_AOT/AOT_stimuli/rescaled_final/1837_fw.mp4	0.0	154.2413694858551	1.0000789165496826
26	137.85394716262817	pulse	0	t		24.0	2.5	/experiments/knapen_AOT/AOT_stimuli/rescaled_final/1837_fw.mp4	0.0	155.22497081756592	
26	137.87042474746704	movie	1		270	24.0	2.5	/experiments/knapen_AOT/AOT_stimuli/rescaled_final/1837_fw.mp4	0.0	155.24144840240479	2.500354766845703
26	139.45382523536682	pulse	1	t		24.0	2.5	/experiments/knapen_AOT/AOT_stimuli/rescaled_final/1837_fw.mp4	0.0	156.82484889030457	
26	140.37077951431274	fix_post	2		12	24.0	2.5	/experiments/knapen_AOT/AOT_stimuli/rescaled_final/1837_fw.mp4	0.0	157.7418031692505	0.10002708435058594
27	140.47080659866333	fix_pre	0		120	25.0	2.5	/experiments/knapen_AOT/AOT_stimuli/rescaled_final/1505_fw.mp4	0.0	157.84183025360107	1.0084874629974365
27	141.04666900634766	pulse	0	t		25.0	2.5	/experiments/knapen_AOT/AOT_stimuli/rescaled_final/1505_fw.mp4	0.0	158.4176926612854	
27	141.47929406166077	movie	1		289	25.0	2.5	/experiments/knapen_AOT/AOT_stimuli/rescaled_final/1505_fw.mp4	0.0	158.8503177165985	2.4920217990875244
27	142.64660024642944	pulse	1	t		25.0	2.5	/experiments/knapen_AOT/AOT_stimuli/rescaled_final/1505_fw.mp4	0.0	160.0176239013672	
27	143.9713158607483	fix_post	2		12	25.0	2.5	/experiments/knapen_AOT/AOT_stimuli/rescaled_final/1505_fw.mp4	0.0	161.34233951568604	0.10009217262268066
28	144.07140803337097	fix_pre	0		120	26.0	2.5	/experiments/knapen_AOT/AOT_stimuli/rescaled_final/1823_fw.mp4	0.0	161.44243168830872	1.0084547996520996
28	144.24673414230347	pulse	0	t		26.0	2.5	/experiments/knapen_AOT/AOT_stimuli/rescaled_final/1823_fw.mp4	0.0	161.6177577972412	
28	145.07986283302307	movie	1		276	26.0	2.5	/experiments/knapen_AOT/AOT_stimuli/rescaled_final/1823_fw.mp4	0.0	162.45088648796082	2.4920084476470947
28	145.84683871269226	pulse	1	t		26.0	2.5	/experiments/knapen_AOT/AOT_stimuli/rescaled_final/1823_fw.mp4	0.0	163.21786236763	
28	147.4471731185913	pulse	1	t		26.0	2.5	/experiments/knapen_AOT/AOT_stimuli/rescaled_final/1823_fw.mp4	0.0	164.81819677352905	
28	147.57187128067017	fix_post	2		12	26.0	2.5	/experiments/knapen_AOT/AOT_stimuli/rescaled_final/1823_fw.mp4	0.0	164.9428949356079	0.10004949569702148
29	147.6719207763672	fix_pre	0		120	27.0	2.5	blank	1.0	165.04294443130493	1.0001094341278076
29	148.672030210495	movie	1		300	27.0	2.5	blank	1.0	166.04305386543274	2.500370740890503
29	149.04735350608826	pulse	1	t		27.0	2.5	blank	1.0	166.418377161026	
29	150.64752459526062	pulse	1	t		27.0	2.5	blank	1.0	168.01854825019836	
29	151.1724009513855	fix_post	2		12	27.0	2.5	blank	1.0	168.54342460632324	0.10001897811889648
30	151.2724199295044	fix_pre	0		118	28.0	2.5	/experiments/knapen_AOT/AOT_stimuli/rescaled_final/0028_fw.mp4	0.0	168.64344358444214	0.9918601512908936
30	152.24793434143066	pulse	0	t		28.0	2.5	/experiments/knapen_AOT/AOT_stimuli/rescaled_final/0028_fw.mp4	0.0	169.6189579963684	
30	152.2642800807953	movie	1		293	28.0	2.5	/experiments/knapen_AOT/AOT_stimuli/rescaled_final/0028_fw.mp4	0.0	169.63530373573303	2.5003325939178467
30	153.84622645378113	pulse	1	t		28.0	2.5	/experiments/knapen_AOT/AOT_stimuli/rescaled_final/0028_fw.mp4	0.0	171.21725010871887	
30	154.76461267471313	fix_post	2		12	28.0	2.5	/experiments/knapen_AOT/AOT_stimuli/rescaled_final/0028_fw.mp4	0.0	172.13563632965088	0.1000208854675293
31	154.86463356018066	fix_pre	0		120	29.0	2.5	/experiments/knapen_AOT/AOT_stimuli/rescaled_final/0308_rv.mp4	0.0	172.2356572151184	1.0085058212280273
31	155.44826555252075	pulse	0	t		29.0	2.5	/experiments/knapen_AOT/AOT_stimuli/rescaled_final/0308_rv.mp4	0.0	172.8192892074585	
31	155.8731393814087	movie	1		268	29.0	2.5	/experiments/knapen_AOT/AOT_stimuli/rescaled_final/0308_rv.mp4	0.0	173.24416303634644	2.492058038711548
31	157.0465726852417	pulse	1	t		29.0	2.5	/experiments/knapen_AOT/AOT_stimuli/rescaled_final/0308_rv.mp4	0.0	174.41759634017944	
31	158.36519742012024	fix_post	2		12	29.0	2.5	/experiments/knapen_AOT/AOT_stimuli/rescaled_final/0308_rv.mp4	0.0	175.73622107505798	0.0999906063079834
32	158.46518802642822	fix_pre	0		120	30.0	2.5	/experiments/knapen_AOT/AOT_stimuli/rescaled_final/0596_fw.mp4	0.0	175.83621168136597	1.0084927082061768
32	158.64875769615173	pulse	0	t		30.0	2.5	/experiments/knapen_AOT/AOT_stimuli/rescaled_final/0596_fw.mp4	0.0	176.01978135108948	
32	159.4736807346344	movie	1		288	30.0	2.5	/experiments/knapen_AOT/AOT_stimuli/rescaled_final/0596_fw.mp4	0.0	176.84470438957214	2.4920692443847656
32	160.24668979644775	pulse	1	t		30.0	2.5	/experiments/knapen_AOT/AOT_stimuli/rescaled_final/0596_fw.mp4	0.0	177.6177134513855	
32	161.8472385406494	pulse	1	t		30.0	2.5	/experiments/knapen_AOT/AOT_stimuli/rescaled_final/0596_fw.mp4	0.0	179.21826219558716	
32	161.96574997901917	fix_post	2		12	30.0	2.5	/experiments/knapen_AOT/AOT_stimuli/rescaled_final/0596_fw.mp4	0.0	179.3367736339569	0.09997129440307617
33	162.06572127342224	fix_pre	0		120	31.0	2.5	/experiments/knapen_AOT/AOT_stimuli/rescaled_final/0701_rv.mp4	0.0	179.43674492835999	1.0085084438323975
33	163.07422971725464	movie	1		281	31.0	2.5	/experiments/knapen_AOT/AOT_stimuli/rescaled_final/0701_rv.mp4	0.0	180.44525337219238	2.492016315460205
33	163.44773769378662	pulse	1	t		31.0	2.5	/experiments/knapen_AOT/AOT_stimuli/rescaled_final/0701_rv.mp4	0.0	180.81876134872437	
33	165.04766535758972	pulse	1	t		31.0	2.5	/experiments/knapen_AOT/AOT_stimuli/rescaled_final/0701_rv.mp4	0.0	182.41868901252747	
33	165.56624603271484	fix_post	2		12	31.0	2.5	/experiments/knapen_AOT/AOT_stimuli/rescaled_final/0701_rv.mp4	0.0	182.9372696876526	0.10002446174621582
34	165.66627049446106	fix_pre	0		119	32.0	2.5	/experiments/knapen_AOT/AOT_stimuli/rescaled_final/2154_fw.mp4	0.0	183.0372941493988	1.0001249313354492
34	166.64994049072266	pulse	0	t		32.0	2.5	/experiments/knapen_AOT/AOT_stimuli/rescaled_final/2154_fw.mp4	0.0	184.0209641456604	
34	166.6663954257965	movie	1		279	32.0	2.5	/experiments/knapen_AOT/AOT_stimuli/rescaled_final/2154_fw.mp4	0.0	184.03741908073425	2.5003838539123535
34	168.24964499473572	pulse	1	t		32.0	2.5	/experiments/knapen_AOT/AOT_stimuli/rescaled_final/2154_fw.mp4	0.0	185.62066864967346	
34	169.16677927970886	fix_post	2		12	32.0	2.5	/experiments/knapen_AOT/AOT_stimuli/rescaled_final/2154_fw.mp4	0.0	186.5378029346466	0.1000370979309082
35	169.26681637763977	fix_pre	0		120	33.0	2.5	/experiments/knapen_AOT/AOT_stimuli/rescaled_final/0474_rv.mp4	0.0	186.63784003257751	1.008495807647705
35	169.85051584243774	pulse	0	t		33.0	2.5	/experiments/knapen_AOT/AOT_stimuli/rescaled_final/0474_rv.mp4	0.0	187.2215394973755	
35	170.27531218528748	movie	1		275	33.0	2.5	/experiments/knapen_AOT/AOT_stimuli/rescaled_final/0474_rv.mp4	0.0	187.64633584022522	2.4920456409454346
35	171.44856452941895	pulse	1	t		33.0	2.5	/experiments/knapen_AOT/AOT_stimuli/rescaled_final/0474_rv.mp4	0.0	188.8195881843567	
35	172.7673578262329	fix_post	2		12	33.0	2.5	/experiments/knapen_AOT/AOT_stimuli/rescaled_final/0474_rv.mp4	0.0	190.13838148117065	0.09996676445007324
36	172.86732459068298	fix_pre	0		120	34.0	2.5	/experiments/knapen_AOT/AOT_stimuli/rescaled_final/0135_fw.mp4	0.0	190.23834824562073	1.0085077285766602
36	173.0509114265442	pulse	0	t		34.0	2.5	/experiments/knapen_AOT/AOT_stimuli/rescaled_final/0135_fw.mp4	0.0	190.42193508148193	
36	173.87583231925964	movie	1		270	34.0	2.5	/experiments/knapen_AOT/AOT_stimuli/rescaled_final/0135_fw.mp4	0.0	191.2468559741974	2.492039203643799
36	174.6492476463318	pulse	1	t		34.0	2.5	/experiments/knapen_AOT/AOT_stimuli/rescaled_final/0135_fw.mp4	0.0	192.02027130126953	
36	176.24989366531372	pulse	1	t		34.0	2.5	/experiments/knapen_AOT/AOT_stimuli/rescaled_final/0135_fw.mp4	0.0	193.62091732025146	
36	176.36787152290344	fix_post	2		12	34.0	2.5	/experiments/knapen_AOT/AOT_stimuli/rescaled_final/0135_fw.mp4	0.0	193.7388951778412	0.10004663467407227
37	176.46791815757751	fix_pre	0		120	35.0	2.5	blank	1.0	193.83894181251526	1.0001084804534912
37	177.468026638031	movie	1		300	35.0	2.5	blank	1.0	194.83905029296875	2.500413417816162
37	177.85182404518127	pulse	1	t		35.0	2.5	blank	1.0	195.22284770011902	
37	179.4518916606903	pulse	1	t		35.0	2.5	blank	1.0	196.82291531562805	
37	179.96844005584717	fix_post	2		12	35.0	2.5	blank	1.0	197.3394637107849	0.10018610954284668
38	180.06862616539001	fix_pre	0		119	36.0	2.5	/experiments/knapen_AOT/AOT_stimuli/rescaled_final/1380_rv.mp4	0.0	197.43964982032776	1.0000886917114258
38	181.05241465568542	pulse	0	t		36.0	2.5	/experiments/knapen_AOT/AOT_stimuli/rescaled_final/1380_rv.mp4	0.0	198.42343831062317	
38	181.06871485710144	movie	1		271	36.0	2.5	/experiments/knapen_AOT/AOT_stimuli/rescaled_final/1380_rv.mp4	0.0	198.43973851203918	2.500230550765991
38	182.6505262851715	pulse	1	t		36.0	2.5	/experiments/knapen_AOT/AOT_stimuli/rescaled_final/1380_rv.mp4	0.0	200.02154994010925	
38	183.56894540786743	fix_post	2		12	36.0	2.5	/experiments/knapen_AOT/AOT_stimuli/rescaled_final/1380_rv.mp4	0.0	200.93996906280518	0.10001015663146973
39	183.6689555644989	fix_pre	0		120	37.0	2.5	/experiments/knapen_AOT/AOT_stimuli/rescaled_final/0248_fw.mp4	0.0	201.03997921943665	1.008504867553711
39	184.25263667106628	pulse	0	t		37.0	2.5	/experiments/knapen_AOT/AOT_stimuli/rescaled_final/0248_fw.mp4	0.0	201.62366032600403	
39	184.6774604320526	movie	1		285	37.0	2.5	/experiments/knapen_AOT/AOT_stimuli/rescaled_final/0248_fw.mp4	0.0	202.04848408699036	2.492021322250366
39	185.8511745929718	pulse	1	t		37.0	2.5	/experiments/knapen_AOT/AOT_stimuli/rescaled_final/0248_fw.mp4	0.0	203.22219824790955	
39	187.16948175430298	fix_post	2		12	37.0	2.5	/experiments/knapen_AOT/AOT_stimuli/rescaled_final/0248_fw.mp4	0.0	204.54050540924072	0.10006928443908691
40	187.26955103874207	fix_pre	0		120	38.0	2.5	/experiments/knapen_AOT/AOT_stimuli/rescaled_final/2017_fw.mp4	0.0	204.6405746936798	1.0084376335144043
40	187.4531490802765	pulse	0	t		38.0	2.5	/experiments/knapen_AOT/AOT_stimuli/rescaled_final/2017_fw.mp4	0.0	204.82417273521423	
40	188.27798867225647	movie	1		274	38.0	2.5	/experiments/knapen_AOT/AOT_stimuli/rescaled_final/2017_fw.mp4	0.0	205.6490123271942	2.4920339584350586
40	189.05133652687073	pulse	1	t		38.0	2.5	/experiments/knapen_AOT/AOT_stimuli/rescaled_final/2017_fw.mp4	0.0	206.42236018180847	
40	190.65147018432617	pulse	1	t		38.0	2.5	/experiments/knapen_AOT/AOT_stimuli/rescaled_final/2017_fw.mp4	0.0	208.02249383926392	
40	190.77002263069153	fix_post	2		12	38.0	2.5	/experiments/knapen_AOT/AOT_stimuli/rescaled_final/2017_fw.mp4	0.0	208.14104628562927	0.10007166862487793
41	190.8700942993164	fix_pre	0		120	39.0	2.5	/experiments/knapen_AOT/AOT_stimuli/rescaled_final/1837_rv.mp4	0.0	208.24111795425415	1.00844407081604
41	191.87853837013245	movie	1		273	39.0	2.5	/experiments/knapen_AOT/AOT_stimuli/rescaled_final/1837_rv.mp4	0.0	209.2495620250702	2.4920341968536377
41	192.2521812915802	pulse	1	t		39.0	2.5	/experiments/knapen_AOT/AOT_stimuli/rescaled_final/1837_rv.mp4	0.0	209.62320494651794	
41	193.85427498817444	pulse	1	t		39.0	2.5	/experiments/knapen_AOT/AOT_stimuli/rescaled_final/1837_rv.mp4	0.0	211.22529864311218	
41	194.37057256698608	fix_post	2		12	39.0	2.5	/experiments/knapen_AOT/AOT_stimuli/rescaled_final/1837_rv.mp4	0.0	211.74159622192383	0.10000157356262207
42	194.4705741405487	fix_pre	0		119	40.0	2.5	/experiments/knapen_AOT/AOT_stimuli/rescaled_final/1936_fw.mp4	0.0	211.84159779548645	1.000164270401001
42	195.4474732875824	pulse	0	t		40.0	2.5	/experiments/knapen_AOT/AOT_stimuli/rescaled_final/1936_fw.mp4	0.0	212.81849694252014	
42	195.4707384109497	movie	1		257	40.0	2.5	/experiments/knapen_AOT/AOT_stimuli/rescaled_final/1936_fw.mp4	0.0	212.84176206588745	2.500370979309082
42	197.05420184135437	pulse	1	t		40.0	2.5	/experiments/knapen_AOT/AOT_stimuli/rescaled_final/1936_fw.mp4	0.0	214.42522549629211	
42	197.9711093902588	fix_post	2		12	40.0	2.5	/experiments/knapen_AOT/AOT_stimuli/rescaled_final/1936_fw.mp4	0.0	215.34213304519653	0.10002970695495605
43	198.07113909721375	fix_pre	0		120	41.0	2.5	blank	1.0	215.4421627521515	1.0001204013824463
43	198.64678931236267	pulse	0	t		41.0	2.5	blank	1.0	216.01781296730042	
43	199.0712594985962	movie	1		300	41.0	2.5	blank	1.0	216.44228315353394	2.500378131866455
43	200.2470681667328	pulse	1	t		41.0	2.5	blank	1.0	217.61809182167053	
43	201.57163763046265	fix_post	2		12	41.0	2.5	blank	1.0	218.9426612854004	0.1000359058380127
44	201.67167353630066	fix_pre	0		120	42.0	2.5	/experiments/knapen_AOT/AOT_stimuli/rescaled_final/1249_rv.mp4	0.0	219.0426971912384	1.0085761547088623
44	201.84697031974792	pulse	0	t		42.0	2.5	/experiments/knapen_AOT/AOT_stimuli/rescaled_final/1249_rv.mp4	0.0	219.21799397468567	
44	202.68024969100952	movie	1		281	42.0	2.5	/experiments/knapen_AOT/AOT_stimuli/rescaled_final/1249_rv.mp4	0.0	220.05127334594727	2.491955041885376
44	203.44746899604797	pulse	1	t		42.0	2.5	/experiments/knapen_AOT/AOT_stimuli/rescaled_final/1249_rv.mp4	0.0	220.81849265098572	
44	205.04738211631775	pulse	1	t		42.0	2.5	/experiments/knapen_AOT/AOT_stimuli/rescaled_final/1249_rv.mp4	0.0	222.4184057712555	
44	205.1722047328949	fix_post	2		12	42.0	2.5	/experiments/knapen_AOT/AOT_stimuli/rescaled_final/1249_rv.mp4	0.0	222.54322838783264	0.10004258155822754
45	205.27224731445312	fix_pre	0		120	43.0	2.5	/experiments/knapen_AOT/AOT_stimuli/rescaled_final/2022_fw.mp4	0.0	222.64327096939087	1.0084741115570068
45	206.28072142601013	movie	1		269	43.0	2.5	/experiments/knapen_AOT/AOT_stimuli/rescaled_final/2022_fw.mp4	0.0	223.65174508094788	2.492011308670044
45	206.64796495437622	pulse	1	t		43.0	2.5	/experiments/knapen_AOT/AOT_stimuli/rescaled_final/2022_fw.mp4	0.0	224.01898860931396	
45	208.2478380203247	pulse	1	t		43.0	2.5	/experiments/knapen_AOT/AOT_stimuli/rescaled_final/2022_fw.mp4	0.0	225.61886167526245	
45	208.77273273468018	fix_post	2		12	43.0	2.5	/experiments/knapen_AOT/AOT_stimuli/rescaled_final/2022_fw.mp4	0.0	226.14375638961792	0.10008406639099121
46	208.87281680107117	fix_pre	0		118	44.0	2.5	/experiments/knapen_AOT/AOT_stimuli/rescaled_final/0073_fw.mp4	0.0	226.2438404560089	0.9917812347412109
46	209.84819626808167	pulse	0	t		44.0	2.5	/experiments/knapen_AOT/AOT_stimuli/rescaled_final/0073_fw.mp4	0.0	227.2192199230194	
46	209.86459803581238	movie	1		281	44.0	2.5	/experiments/knapen_AOT/AOT_stimuli/rescaled_final/0073_fw.mp4	0.0	227.23562169075012	2.500351667404175
46	211.44704699516296	pulse	1	t		44.0	2.5	/experiments/knapen_AOT/AOT_stimuli/rescaled_final/0073_fw.mp4	0.0	228.8180706501007	
46	212.36494970321655	fix_post	2		12	44.0	2.5	/experiments/knapen_AOT/AOT_stimuli/rescaled_final/0073_fw.mp4	0.0	229.7359733581543	0.10004615783691406
47	212.46499586105347	fix_pre	0		120	45.0	2.5	/experiments/knapen_AOT/AOT_stimuli/rescaled_final/1068_fw.mp4	0.0	229.8360195159912	1.0084483623504639
47	213.04861783981323	pulse	0	t		45.0	2.5	/experiments/knapen_AOT/AOT_stimuli/rescaled_final/1068_fw.mp4	0.0	230.41964149475098	
47	213.47344422340393	movie	1		274	45.0	2.5	/experiments/knapen_AOT/AOT_stimuli/rescaled_final/1068_fw.mp4	0.0	230.84446787834167	2.4920411109924316
47	214.64702153205872	pulse	1	t		45.0	2.5	/experiments/knapen_AOT/AOT_stimuli/rescaled_final/1068_fw.mp4	0.0	232.01804518699646	
47	215.96548533439636	fix_post	2		12	45.0	2.5	/experiments/knapen_AOT/AOT_stimuli/rescaled_final/1068_fw.mp4	0.0	233.3365089893341	0.10005354881286621
48	216.06553888320923	fix_pre	0		120	46.0	2.5	/experiments/knapen_AOT/AOT_stimuli/rescaled_final/2131_fw.mp4	0.0	233.43656253814697	1.0085089206695557
48	216.24905824661255	pulse	0	t		46.0	2.5	/experiments/knapen_AOT/AOT_stimuli/rescaled_final/2131_fw.mp4	0.0	233.6200819015503	
48	217.07404780387878	movie	1		270	46.0	2.5	/experiments/knapen_AOT/AOT_stimuli/rescaled_final/2131_fw.mp4	0.0	234.44507145881653	2.4919960498809814
48	217.85037541389465	pulse	1	t		46.0	2.5	/experiments/knapen_AOT/AOT_stimuli/rescaled_final/2131_fw.mp4	0.0	235.2213990688324	
48	219.44950580596924	pulse	1	t		46.0	2.5	/experiments/knapen_AOT/AOT_stimuli/rescaled_final/2131_fw.mp4	0.0	236.82052946090698	
48	219.56604385375977	fix_post	2		12	46.0	2.5	/experiments/knapen_AOT/AOT_stimuli/rescaled_final/2131_fw.mp4	0.0	236.9370675086975	0.09999775886535645
49	219.66604161262512	fix_pre	0		105	47.0	2.5	/experiments/knapen_AOT/AOT_stimuli/rescaled_final/0432_rv.mp4	0.0	237.03706526756287	1.0084800720214844
49	220.6745216846466	movie	1		286	47.0	2.5	/experiments/knapen_AOT/AOT_stimuli/rescaled_final/0432_rv.mp4	0.0	238.04554533958435	2.4920403957366943
49	221.04800748825073	pulse	1	t		47.0	2.5	/experiments/knapen_AOT/AOT_stimuli/rescaled_final/0432_rv.mp4	0.0	238.41903114318848	
49	222.64814281463623	pulse	1	t		47.0	2.5	/experiments/knapen_AOT/AOT_stimuli/rescaled_final/0432_rv.mp4	0.0	240.01916646957397	
49	223.1665620803833	fix_post	2		12	47.0	2.5	/experiments/knapen_AOT/AOT_stimuli/rescaled_final/0432_rv.mp4	0.0	240.53758573532104	0.10001826286315918
50	223.26658034324646	fix_pre	0		119	48.0	2.5	blank	1.0	240.6376039981842	0.9917912483215332
50	224.25025010108948	pulse	0	t		48.0	2.5	blank	1.0	241.62127375602722	
50	224.258371591568	movie	1		301	48.0	2.5	blank	1.0	241.62939524650574	2.508823871612549
50	225.8504798412323	pulse	1	t		48.0	2.5	blank	1.0	243.22150349617004	
50	226.76719546318054	fix_post	2		12	48.0	2.5	blank	1.0	244.1382191181183	0.09992814064025879
51	226.8671236038208	fix_pre	0		120	49.0	2.5	/experiments/knapen_AOT/AOT_stimuli/rescaled_final/1485_fw.mp4	0.0	244.23814725875854	1.0085883140563965
51	227.45071148872375	pulse	0	t		49.0	2.5	/experiments/knapen_AOT/AOT_stimuli/rescaled_final/1485_fw.mp4	0.0	244.8217351436615	
51	227.8757119178772	movie	1		279	49.0	2.5	/experiments/knapen_AOT/AOT_stimuli/rescaled_final/1485_fw.mp4	0.0	245.24673557281494	2.4919285774230957
51	229.0488862991333	pulse	1	t		49.0	2.5	/experiments/knapen_AOT/AOT_stimuli/rescaled_final/1485_fw.mp4	0.0	246.41990995407104	
51	230.3676404953003	fix_post	2		12	49.0	2.5	/experiments/knapen_AOT/AOT_stimuli/rescaled_final/1485_fw.mp4	0.0	247.73866415023804	0.10004091262817383
52	230.46768140792847	fix_pre	0		120	50.0	2.5	/experiments/knapen_AOT/AOT_stimuli/rescaled_final/1000_fw.mp4	0.0	247.8387050628662	1.0084893703460693
52	230.651211977005	pulse	0	t		50.0	2.5	/experiments/knapen_AOT/AOT_stimuli/rescaled_final/1000_fw.mp4	0.0	248.02223563194275	
52	231.47617077827454	movie	1		272	50.0	2.5	/experiments/knapen_AOT/AOT_stimuli/rescaled_final/1000_fw.mp4	0.0	248.84719443321228	2.492086172103882
52	232.24967193603516	pulse	1	t		50.0	2.5	/experiments/knapen_AOT/AOT_stimuli/rescaled_final/1000_fw.mp4	0.0	249.6206955909729	
52	233.85029816627502	pulse	1	t		50.0	2.5	/experiments/knapen_AOT/AOT_stimuli/rescaled_final/1000_fw.mp4	0.0	251.22132182121277	
52	233.96825695037842	fix_post	2		12	50.0	2.5	/experiments/knapen_AOT/AOT_stimuli/rescaled_final/1000_fw.mp4	0.0	251.33928060531616	0.09996294975280762
53	234.06821990013123	fix_pre	0		120	51.0	2.5	/experiments/knapen_AOT/AOT_stimuli/rescaled_final/1545_rv.mp4	0.0	251.43924355506897	1.0084705352783203
53	235.07669043540955	movie	1		278	51.0	2.5	/experiments/knapen_AOT/AOT_stimuli/rescaled_final/1545_rv.mp4	0.0	252.4477140903473	2.4920248985290527
53	235.45235323905945	pulse	1	t		51.0	2.5	/experiments/knapen_AOT/AOT_stimuli/rescaled_final/1545_rv.mp4	0.0	252.8233768939972	
53	237.05047917366028	pulse	1	t		51.0	2.5	/experiments/knapen_AOT/AOT_stimuli/rescaled_final/1545_rv.mp4	0.0	254.42150282859802	
53	237.5687153339386	fix_post	2		12	51.0	2.5	/experiments/knapen_AOT/AOT_stimuli/rescaled_final/1545_rv.mp4	0.0	254.93973898887634	0.10001850128173828
54	237.66873383522034	fix_pre	0		119	52.0	2.5	/experiments/knapen_AOT/AOT_stimuli/rescaled_final/0057_rv.mp4	0.0	255.03975749015808	1.000140905380249
54	238.65247225761414	pulse	0	t		52.0	2.5	/experiments/knapen_AOT/AOT_stimuli/rescaled_final/0057_rv.mp4	0.0	256.0234959125519	
54	238.6688747406006	movie	1		284	52.0	2.5	/experiments/knapen_AOT/AOT_stimuli/rescaled_final/0057_rv.mp4	0.0	256.03989839553833	2.500380754470825
54	240.25112557411194	pulse	1	t		52.0	2.5	/experiments/knapen_AOT/AOT_stimuli/rescaled_final/0057_rv.mp4	0.0	257.6221492290497	
54	241.1692554950714	fix_post	2		12	52.0	2.5	/experiments/knapen_AOT/AOT_stimuli/rescaled_final/0057_rv.mp4	0.0	258.54027915000916	0.10002779960632324
55	241.26928329467773	fix_pre	0		120	53.0	2.5	/experiments/knapen_AOT/AOT_stimuli/rescaled_final/1101_rv.mp4	0.0	258.6403069496155	1.0085210800170898
55	241.8528859615326	pulse	0	t		53.0	2.5	/experiments/knapen_AOT/AOT_stimuli/rescaled_final/1101_rv.mp4	0.0	259.22390961647034	
55	242.27780437469482	movie	1		287	53.0	2.5	/experiments/knapen_AOT/AOT_stimuli/rescaled_final/1101_rv.mp4	0.0	259.64882802963257	2.492144823074341
55	243.45116138458252	pulse	1	t		53.0	2.5	/experiments/knapen_AOT/AOT_stimuli/rescaled_final/1101_rv.mp4	0.0	260.82218503952026	
55	244.76994919776917	fix_post	2		12	53.0	2.5	/experiments/knapen_AOT/AOT_stimuli/rescaled_final/1101_rv.mp4	0.0	262.1409728527069	0.09992027282714844
56	244.8698694705963	fix_pre	0		120	54.0	2.5	/experiments/knapen_AOT/AOT_stimuli/rescaled_final/1653_rv.mp4	0.0	262.24089312553406	1.0084669589996338
56	245.05340337753296	pulse	0	t		54.0	2.5	/experiments/knapen_AOT/AOT_stimuli/rescaled_final/1653_rv.mp4	0.0	262.4244270324707	
56	245.87833642959595	movie	1		271	54.0	2.5	/experiments/knapen_AOT/AOT_stimuli/rescaled_final/1653_rv.mp4	0.0	263.2493600845337	2.492051839828491
56	246.65163207054138	pulse	1	t		54.0	2.5	/experiments/knapen_AOT/AOT_stimuli/rescaled_final/1653_rv.mp4	0.0	264.0226557254791	
56	248.2520751953125	pulse	1	t		54.0	2.5	/experiments/knapen_AOT/AOT_stimuli/rescaled_final/1653_rv.mp4	0.0	265.62309885025024	
56	248.37038826942444	fix_post	2		12	54.0	2.5	/experiments/knapen_AOT/AOT_stimuli/rescaled_final/1653_rv.mp4	0.0	265.7414119243622	0.09996867179870605
57	248.47035694122314	fix_pre	0		120	55.0	2.5	blank	1.0	265.8413805961609	1.0001628398895264
57	249.47051978111267	movie	1		300	55.0	2.5	blank	1.0	266.8415434360504	2.500359058380127
57	249.85422563552856	pulse	1	t		55.0	2.5	blank	1.0	267.2252492904663	
57	251.45443177223206	pulse	1	t		55.0	2.5	blank	1.0	268.8254554271698	
57	251.9708788394928	fix_post	2		12	55.0	2.5	blank	1.0	269.34190249443054	0.10001897811889648
58	252.0708978176117	fix_pre	0		119	56.0	2.5	/experiments/knapen_AOT/AOT_stimuli/rescaled_final/0463_rv.mp4	0.0	269.44192147254944	1.0001568794250488
58	253.04752802848816	pulse	0	t		56.0	2.5	/experiments/knapen_AOT/AOT_stimuli/rescaled_final/0463_rv.mp4	0.0	270.4185516834259	
58	253.07105469703674	movie	1		270	56.0	2.5	/experiments/knapen_AOT/AOT_stimuli/rescaled_final/0463_rv.mp4	0.0	270.4420783519745	2.500373601913452
58	254.65369129180908	pulse	1	t		56.0	2.5	/experiments/knapen_AOT/AOT_stimuli/rescaled_final/0463_rv.mp4	0.0	272.0247149467468	
58	255.5714282989502	fix_post	2		12	56.0	2.5	/experiments/knapen_AOT/AOT_stimuli/rescaled_final/0463_rv.mp4	0.0	272.94245195388794	0.10002565383911133
59	255.6714539527893	fix_pre	0		120	57.0	2.5	/experiments/knapen_AOT/AOT_stimuli/rescaled_final/0204_fw.mp4	0.0	273.04247760772705	1.0084891319274902
59	256.24755096435547	pulse	0	t		57.0	2.5	/experiments/knapen_AOT/AOT_stimuli/rescaled_final/0204_fw.mp4	0.0	273.6185746192932	
59	256.6799430847168	movie	1		270	57.0	2.5	/experiments/knapen_AOT/AOT_stimuli/rescaled_final/0204_fw.mp4	0.0	274.05096673965454	2.492015838623047
59	257.8471760749817	pulse	1	t		57.0	2.5	/experiments/knapen_AOT/AOT_stimuli/rescaled_final/0204_fw.mp4	0.0	275.21819972991943	
59	259.17195892333984	fix_post	2		12	57.0	2.5	/experiments/knapen_AOT/AOT_stimuli/rescaled_final/0204_fw.mp4	0.0	276.5429825782776	0.10006856918334961
60	259.2720274925232	fix_pre	0		120	58.0	2.5	/experiments/knapen_AOT/AOT_stimuli/rescaled_final/1380_fw.mp4	0.0	276.64305114746094	1.0084359645843506
60	259.4472351074219	pulse	0	t		58.0	2.5	/experiments/knapen_AOT/AOT_stimuli/rescaled_final/1380_fw.mp4	0.0	276.8182587623596	
60	260.28046345710754	movie	1		279	58.0	2.5	/experiments/knapen_AOT/AOT_stimuli/rescaled_final/1380_fw.mp4	0.0	277.6514871120453	2.4920296669006348
60	261.0475296974182	pulse	1	t		58.0	2.5	/experiments/knapen_AOT/AOT_stimuli/rescaled_final/1380_fw.mp4	0.0	278.41855335235596	
60	262.6480588912964	pulse	1	t		58.0	2.5	/experiments/knapen_AOT/AOT_stimuli/rescaled_final/1380_fw.mp4	0.0	280.01908254623413	
60	262.7724931240082	fix_post	2		12	58.0	2.5	/experiments/knapen_AOT/AOT_stimuli/rescaled_final/1380_fw.mp4	0.0	280.1435167789459	0.10003185272216797
61	262.87252497673035	fix_pre	0		120	59.0	2.5	/experiments/knapen_AOT/AOT_stimuli/rescaled_final/1704_fw.mp4	0.0	280.2435486316681	1.0085008144378662
61	263.8810257911682	movie	1		269	59.0	2.5	/experiments/knapen_AOT/AOT_stimuli/rescaled_final/1704_fw.mp4	0.0	281.25204944610596	2.4920175075531006
61	264.24837470054626	pulse	1	t		59.0	2.5	/experiments/knapen_AOT/AOT_stimuli/rescaled_final/1704_fw.mp4	0.0	281.619398355484	
61	265.8482291698456	pulse	1	t		59.0	2.5	/experiments/knapen_AOT/AOT_stimuli/rescaled_final/1704_fw.mp4	0.0	283.2192528247833	
61	266.3730432987213	fix_post	2		12	59.0	2.5	/experiments/knapen_AOT/AOT_stimuli/rescaled_final/1704_fw.mp4	0.0	283.74406695365906	0.10001659393310547
62	266.4730598926544	fix_pre	0		118	60.0	2.5	/experiments/knapen_AOT/AOT_stimuli/rescaled_final/1813_rv.mp4	0.0	283.84408354759216	0.9919118881225586
62	267.4484541416168	pulse	0	t		60.0	2.5	/experiments/knapen_AOT/AOT_stimuli/rescaled_final/1813_rv.mp4	0.0	284.81947779655457	
62	267.464971780777	movie	1		279	60.0	2.5	/experiments/knapen_AOT/AOT_stimuli/rescaled_final/1813_rv.mp4	0.0	284.8359954357147	2.5003111362457275
62	269.04791736602783	pulse	1	t		60.0	2.5	/experiments/knapen_AOT/AOT_stimuli/rescaled_final/1813_rv.mp4	0.0	286.4189410209656	
62	269.9652829170227	fix_post	2		12	60.0	2.5	/experiments/knapen_AOT/AOT_stimuli/rescaled_final/1813_rv.mp4	0.0	287.33630657196045	0.09999656677246094
63	270.06527948379517	fix_pre	0		120	61.0	2.5	/experiments/knapen_AOT/AOT_stimuli/rescaled_final/1653_fw.mp4	0.0	287.4363031387329	1.008521318435669
63	270.6489009857178	pulse	0	t		61.0	2.5	/experiments/knapen_AOT/AOT_stimuli/rescaled_final/1653_fw.mp4	0.0	288.0199246406555	
63	271.07380080223083	movie	1		267	61.0	2.5	/experiments/knapen_AOT/AOT_stimuli/rescaled_final/1653_fw.mp4	0.0	288.4448244571686	2.49204158782959
63	272.24721026420593	pulse	1	t		61.0	2.5	/experiments/knapen_AOT/AOT_stimuli/rescaled_final/1653_fw.mp4	0.0	289.6182339191437	
63	273.5658423900604	fix_post	2		12	61.0	2.5	/experiments/knapen_AOT/AOT_stimuli/rescaled_final/1653_fw.mp4	0.0	290.93686604499817	0.09997129440307617
64	273.6658136844635	fix_pre	0		120	62.0	2.5	/experiments/knapen_AOT/AOT_stimuli/rescaled_final/0830_fw.mp4	0.0	291.03683733940125	1.0084896087646484
64	273.8494338989258	pulse	0	t		62.0	2.5	/experiments/knapen_AOT/AOT_stimuli/rescaled_final/0830_fw.mp4	0.0	291.2204575538635	
64	274.67430329322815	movie	1		280	62.0	2.5	/experiments/knapen_AOT/AOT_stimuli/rescaled_final/0830_fw.mp4	0.0	292.0453269481659	2.492030143737793
64	275.4477348327637	pulse	1	t		62.0	2.5	/experiments/knapen_AOT/AOT_stimuli/rescaled_final/0830_fw.mp4	0.0	292.8187584877014	
64	277.05002522468567	pulse	1	t		62.0	2.5	/experiments/knapen_AOT/AOT_stimuli/rescaled_final/0830_fw.mp4	0.0	294.4210488796234	
64	277.16633343696594	fix_post	2		12	62.0	2.5	/experiments/knapen_AOT/AOT_stimuli/rescaled_final/0830_fw.mp4	0.0	294.5373570919037	0.10001635551452637
65	277.26634979248047	fix_pre	0		120	63.0	2.5	blank	1.0	294.6373734474182	1.00026273727417
65	278.26661252975464	movie	1		300	63.0	2.5	blank	1.0	295.6376361846924	2.5002310276031494
65	278.65021991729736	pulse	1	t		63.0	2.5	blank	1.0	296.0212435722351	
65	280.25039291381836	pulse	1	t		63.0	2.5	blank	1.0	297.6214165687561	
65	280.7668435573578	fix_post	2		12	63.0	2.5	blank	1.0	298.13786721229553	0.10011076927185059
66	280.86695432662964	fix_pre	0		119	64.0	2.5	/experiments/knapen_AOT/AOT_stimuli/rescaled_final/0344_rv.mp4	0.0	298.2379779815674	1.0085580348968506
66	281.850665807724	pulse	0	t		64.0	2.5	/experiments/knapen_AOT/AOT_stimuli/rescaled_final/0344_rv.mp4	0.0	299.22168946266174	
66	281.8755123615265	movie	1		285	64.0	2.5	/experiments/knapen_AOT/AOT_stimuli/rescaled_final/0344_rv.mp4	0.0	299.24653601646423	2.491915225982666
66	283.451575756073	pulse	1	t		64.0	2.5	/experiments/knapen_AOT/AOT_stimuli/rescaled_final/0344_rv.mp4	0.0	300.82259941101074	
66	284.36742758750916	fix_post	2		12	64.0	2.5	/experiments/knapen_AOT/AOT_stimuli/rescaled_final/0344_rv.mp4	0.0	301.7384512424469	0.10001492500305176
67	284.4674425125122	fix_pre	0		120	65.0	2.5	/experiments/knapen_AOT/AOT_stimuli/rescaled_final/0276_fw.mp4	0.0	301.83846616744995	1.0084879398345947
67	285.0510983467102	pulse	0	t		65.0	2.5	/experiments/knapen_AOT/AOT_stimuli/rescaled_final/0276_fw.mp4	0.0	302.42212200164795	
67	285.4759304523468	movie	1		280	65.0	2.5	/experiments/knapen_AOT/AOT_stimuli/rescaled_final/0276_fw.mp4	0.0	302.84695410728455	2.492060661315918
67	286.6507065296173	pulse	1	t		65.0	2.5	/experiments/knapen_AOT/AOT_stimuli/rescaled_final/0276_fw.mp4	0.0	304.02173018455505	
67	287.9679911136627	fix_post	2		12	65.0	2.5	/experiments/knapen_AOT/AOT_stimuli/rescaled_final/0276_fw.mp4	0.0	305.33901476860046	0.10006499290466309
68	288.0680561065674	fix_pre	0		120	66.0	2.5	/experiments/knapen_AOT/AOT_stimuli/rescaled_final/1837_fw.mp4	0.0	305.4390797615051	1.0084335803985596
68	288.2515387535095	pulse	0	t		66.0	2.5	/experiments/knapen_AOT/AOT_stimuli/rescaled_final/1837_fw.mp4	0.0	305.62256240844727	
68	289.07648968696594	movie	1		274	66.0	2.5	/experiments/knapen_AOT/AOT_stimuli/rescaled_final/1837_fw.mp4	0.0	306.4475133419037	2.492027521133423
68	289.8500578403473	pulse	1	t		66.0	2.5	/experiments/knapen_AOT/AOT_stimuli/rescaled_final/1837_fw.mp4	0.0	307.22108149528503	
68	291.4501643180847	pulse	1	t		66.0	2.5	/experiments/knapen_AOT/AOT_stimuli/rescaled_final/1837_fw.mp4	0.0	308.82118797302246	
68	291.56851720809937	fix_post	2		12	66.0	2.5	/experiments/knapen_AOT/AOT_stimuli/rescaled_final/1837_fw.mp4	0.0	308.9395408630371	0.09996604919433594
69	291.6684832572937	fix_pre	0		120	67.0	2.5	/experiments/knapen_AOT/AOT_stimuli/rescaled_final/1300_rv.mp4	0.0	309.03950691223145	1.0085222721099854
69	292.6770055294037	movie	1		278	67.0	2.5	/experiments/knapen_AOT/AOT_stimuli/rescaled_final/1300_rv.mp4	0.0	310.04802918434143	2.492039442062378
69	293.05081844329834	pulse	1	t		67.0	2.5	/experiments/knapen_AOT/AOT_stimuli/rescaled_final/1300_rv.mp4	0.0	310.4218420982361	
69	294.6505837440491	pulse	1	t		67.0	2.5	/experiments/knapen_AOT/AOT_stimuli/rescaled_final/1300_rv.mp4	0.0	312.0216073989868	
69	295.16904497146606	fix_post	2		12	67.0	2.5	/experiments/knapen_AOT/AOT_stimuli/rescaled_final/1300_rv.mp4	0.0	312.5400686264038	0.10006117820739746
70	295.26910614967346	fix_pre	0		119	68.0	2.5	/experiments/knapen_AOT/AOT_stimuli/rescaled_final/0421_rv.mp4	0.0	312.6401298046112	1.0001826286315918
70	296.2528393268585	pulse	0	t		68.0	2.5	/experiments/knapen_AOT/AOT_stimuli/rescaled_final/0421_rv.mp4	0.0	313.62386298179626	
70	296.26928877830505	movie	1		281	68.0	2.5	/experiments/knapen_AOT/AOT_stimuli/rescaled_final/0421_rv.mp4	0.0	313.6403124332428	2.500312089920044
70	297.85121417045593	pulse	1	t		68.0	2.5	/experiments/knapen_AOT/AOT_stimuli/rescaled_final/0421_rv.mp4	0.0	315.2222378253937	
70	298.7696008682251	fix_post	2		12	68.0	2.5	/experiments/knapen_AOT/AOT_stimuli/rescaled_final/0421_rv.mp4	0.0	316.14062452316284	0.10002326965332031
71	298.8696241378784	fix_pre	0		120	69.0	2.5	/experiments/knapen_AOT/AOT_stimuli/rescaled_final/1052_fw.mp4	0.0	316.24064779281616	1.0085058212280273
71	299.4533519744873	pulse	0	t		69.0	2.5	/experiments/knapen_AOT/AOT_stimuli/rescaled_final/1052_fw.mp4	0.0	316.82437562942505	
71	299.87812995910645	movie	1		268	69.0	2.5	/experiments/knapen_AOT/AOT_stimuli/rescaled_final/1052_fw.mp4	0.0	317.2491536140442	2.492011785507202
71	301.0518968105316	pulse	1	t		69.0	2.5	/experiments/knapen_AOT/AOT_stimuli/rescaled_final/1052_fw.mp4	0.0	318.42292046546936	
71	302.37014174461365	fix_post	2		12	69.0	2.5	/experiments/knapen_AOT/AOT_stimuli/rescaled_final/1052_fw.mp4	0.0	319.7411653995514	0.10001826286315918
72	302.4701600074768	fix_pre	0		120	70.0	2.5	blank	1.0	319.84118366241455	1.0001568794250488
72	302.654052734375	pulse	0	t		70.0	2.5	blank	1.0	320.02507638931274	
72	303.47031688690186	movie	1		300	70.0	2.5	blank	1.0	320.8413405418396	2.500375747680664
72	304.2541880607605	pulse	1	t		70.0	2.5	blank	1.0	321.62521171569824	
72	305.8544111251831	pulse	1	t		70.0	2.5	blank	1.0	323.22543478012085	
72	305.9706926345825	fix_post	2		12	70.0	2.5	blank	1.0	323.34171628952026	0.09999752044677734
73	306.0706901550293	fix_pre	0		120	71.0	2.5	/experiments/knapen_AOT/AOT_stimuli/rescaled_final/1002_fw.mp4	0.0	323.44171380996704	1.0085251331329346
73	307.07921528816223	movie	1		284	71.0	2.5	/experiments/knapen_AOT/AOT_stimuli/rescaled_final/1002_fw.mp4	0.0	324.4502389431	2.491999387741089
73	307.4542853832245	pulse	1	t		71.0	2.5	/experiments/knapen_AOT/AOT_stimuli/rescaled_final/1002_fw.mp4	0.0	324.82530903816223	
73	309.05247497558594	pulse	1	t		71.0	2.5	/experiments/knapen_AOT/AOT_stimuli/rescaled_final/1002_fw.mp4	0.0	326.4234986305237	
73	309.5712146759033	fix_post	2		12	71.0	2.5	/experiments/knapen_AOT/AOT_stimuli/rescaled_final/1002_fw.mp4	0.0	326.94223833084106	0.10004138946533203
74	309.67125606536865	fix_pre	0		119	72.0	2.5	/experiments/knapen_AOT/AOT_stimuli/rescaled_final/0637_fw.mp4	0.0	327.0422797203064	1.0001189708709717
74	310.6549127101898	pulse	0	t		72.0	2.5	/experiments/knapen_AOT/AOT_stimuli/rescaled_final/0637_fw.mp4	0.0	328.02593636512756	
74	310.6713750362396	movie	1		278	72.0	2.5	/experiments/knapen_AOT/AOT_stimuli/rescaled_final/0637_fw.mp4	0.0	328.04239869117737	2.500375747680664
74	312.2468237876892	pulse	1	t		72.0	2.5	/experiments/knapen_AOT/AOT_stimuli/rescaled_final/0637_fw.mp4	0.0	329.61784744262695	
74	313.1717507839203	fix_post	2		12	72.0	2.5	/experiments/knapen_AOT/AOT_stimuli/rescaled_final/0637_fw.mp4	0.0	330.54277443885803	0.10001635551452637
75	313.2717671394348	fix_pre	0		120	73.0	2.5	/experiments/knapen_AOT/AOT_stimuli/rescaled_final/0596_rv.mp4	0.0	330.64279079437256	1.0084929466247559
75	313.84739327430725	pulse	0	t		73.0	2.5	/experiments/knapen_AOT/AOT_stimuli/rescaled_final/0596_rv.mp4	0.0	331.218416929245	
75	314.28026008605957	movie	1		284	73.0	2.5	/experiments/knapen_AOT/AOT_stimuli/rescaled_final/0596_rv.mp4	0.0	331.6512837409973	2.4920248985290527
75	315.44785356521606	pulse	1	t		73.0	2.5	/experiments/knapen_AOT/AOT_stimuli/rescaled_final/0596_rv.mp4	0.0	332.8188772201538	
75	316.7722849845886	fix_post	2		12	73.0	2.5	/experiments/knapen_AOT/AOT_stimuli/rescaled_final/0596_rv.mp4	0.0	334.14330863952637	0.10004162788391113
76	316.87232661247253	fix_pre	0		120	74.0	2.5	/experiments/knapen_AOT/AOT_stimuli/rescaled_final/0432_rv.mp4	0.0	334.2433502674103	1.0084738731384277
76	317.0475857257843	pulse	0	t		74.0	2.5	/experiments/knapen_AOT/AOT_stimuli/rescaled_final/0432_rv.mp4	0.0	334.41860938072205	
76	317.88080048561096	movie	1		283	74.0	2.5	/experiments/knapen_AOT/AOT_stimuli/rescaled_final/0432_rv.mp4	0.0	335.2518241405487	2.49206280708313
76	318.6477687358856	pulse	1	t		74.0	2.5	/experiments/knapen_AOT/AOT_stimuli/rescaled_final/0432_rv.mp4	0.0	336.01879239082336	
76	320.2480523586273	pulse	1	t		74.0	2.5	/experiments/knapen_AOT/AOT_stimuli/rescaled_final/0432_rv.mp4	0.0	337.61907601356506	
76	320.3728632926941	fix_post	2		12	74.0	2.5	/experiments/knapen_AOT/AOT_stimuli/rescaled_final/0432_rv.mp4	0.0	337.74388694763184	0.10000157356262207
77	320.4728648662567	fix_pre	0		120	75.0	2.5	/experiments/knapen_AOT/AOT_stimuli/rescaled_final/2100_rv.mp4	0.0	337.84388852119446	1.0084898471832275
77	321.48135471343994	movie	1		281	75.0	2.5	/experiments/knapen_AOT/AOT_stimuli/rescaled_final/2100_rv.mp4	0.0	338.8523783683777	2.4920194149017334
77	321.84833121299744	pulse	1	t		75.0	2.5	/experiments/knapen_AOT/AOT_stimuli/rescaled_final/2100_rv.mp4	0.0	339.2193548679352	
77	323.44674611091614	pulse	1	t		75.0	2.5	/experiments/knapen_AOT/AOT_stimuli/rescaled_final/2100_rv.mp4	0.0	340.8177697658539	
77	323.9733741283417	fix_post	2		12	75.0	2.5	/experiments/knapen_AOT/AOT_stimuli/rescaled_final/2100_rv.mp4	0.0	341.3443977832794	0.1000211238861084
78	324.0733952522278	fix_pre	0		118	76.0	2.5	/experiments/knapen_AOT/AOT_stimuli/rescaled_final/0693_fw.mp4	0.0	341.4444189071655	0.9918344020843506
78	325.0488588809967	pulse	0	t		76.0	2.5	/experiments/knapen_AOT/AOT_stimuli/rescaled_final/0693_fw.mp4	0.0	342.41988253593445	
78	325.06522965431213	movie	1		282	76.0	2.5	/experiments/knapen_AOT/AOT_stimuli/rescaled_final/0693_fw.mp4	0.0	342.4362533092499	2.5003387928009033
78	326.6474380493164	pulse	1	t		76.0	2.5	/experiments/knapen_AOT/AOT_stimuli/rescaled_final/0693_fw.mp4	0.0	344.01846170425415	
78	327.56556844711304	fix_post	2		12	76.0	2.5	/experiments/knapen_AOT/AOT_stimuli/rescaled_final/0693_fw.mp4	0.0	344.9365921020508	0.10002636909484863
79	327.6655948162079	fix_pre	0		120	77.0	2.5	blank	1.0	345.03661847114563	1.0001335144042969
79	328.2492346763611	pulse	0	t		77.0	2.5	blank	1.0	345.6202583312988	
79	328.6657283306122	movie	1		300	77.0	2.5	blank	1.0	346.0367519855499	2.5004234313964844
79	329.84944701194763	pulse	1	t		77.0	2.5	blank	1.0	347.2204706668854	
79	331.16615176200867	fix_post	2		12	77.0	2.5	blank	1.0	348.5371754169464	0.09998655319213867
80	331.2661383152008	fix_pre	0		120	78.0	2.5	/experiments/knapen_AOT/AOT_stimuli/rescaled_final/0357_rv.mp4	0.0	348.63716197013855	1.00850248336792
80	331.44969940185547	pulse	0	t		78.0	2.5	/experiments/knapen_AOT/AOT_stimuli/rescaled_final/0357_rv.mp4	0.0	348.8207230567932	
80	332.2746407985687	movie	1		271	78.0	2.5	/experiments/knapen_AOT/AOT_stimuli/rescaled_final/0357_rv.mp4	0.0	349.64566445350647	2.4922094345092773
80	333.0490663051605	pulse	1	t		78.0	2.5	/experiments/knapen_AOT/AOT_stimuli/rescaled_final/0357_rv.mp4	0.0	350.42008996009827	
80	334.64828610420227	pulse	1	t		78.0	2.5	/experiments/knapen_AOT/AOT_stimuli/rescaled_final/0357_rv.mp4	0.0	352.01930975914	
80	334.766850233078	fix_post	2		12	78.0	2.5	/experiments/knapen_AOT/AOT_stimuli/rescaled_final/0357_rv.mp4	0.0	352.13787388801575	0.09983325004577637
81	334.8666834831238	fix_pre	0		120	79.0	2.5	/experiments/knapen_AOT/AOT_stimuli/rescaled_final/0593_fw.mp4	0.0	352.2377071380615	1.0084939002990723
81	335.87517738342285	movie	1		272	79.0	2.5	/experiments/knapen_AOT/AOT_stimuli/rescaled_final/0593_fw.mp4	0.0	353.2462010383606	2.4920618534088135
81	336.2490327358246	pulse	1	t		79.0	2.5	/experiments/knapen_AOT/AOT_stimuli/rescaled_final/0593_fw.mp4	0.0	353.62005639076233	
81	337.8505108356476	pulse	1	t		79.0	2.5	/experiments/knapen_AOT/AOT_stimuli/rescaled_final/0593_fw.mp4	0.0	355.2215344905853	
81	338.36723923683167	fix_post	2		12	79.0	2.5	/experiments/knapen_AOT/AOT_stimuli/rescaled_final/0593_fw.mp4	0.0	355.7382628917694	0.10000133514404297
82	338.4672405719757	fix_pre	0		119	80.0	2.5	/experiments/knapen_AOT/AOT_stimuli/rescaled_final/1653_fw.mp4	0.0	355.83826422691345	1.0001227855682373
82	339.45099234580994	pulse	0	t		80.0	2.5	/experiments/knapen_AOT/AOT_stimuli/rescaled_final/1653_fw.mp4	0.0	356.8220160007477	
82	339.46736335754395	movie	1		276	80.0	2.5	/experiments/knapen_AOT/AOT_stimuli/rescaled_final/1653_fw.mp4	0.0	356.8383870124817	2.5003786087036133
82	341.0499053001404	pulse	1	t		80.0	2.5	/experiments/knapen_AOT/AOT_stimuli/rescaled_final/1653_fw.mp4	0.0	358.4209289550781	
82	341.96774196624756	fix_post	2		12	80.0	2.5	/experiments/knapen_AOT/AOT_stimuli/rescaled_final/1653_fw.mp4	0.0	359.3387656211853	0.10000991821289062
83	342.06775188446045	fix_pre	0		120	81.0	2.5	/experiments/knapen_AOT/AOT_stimuli/rescaled_final/1610_rv.mp4	0.0	359.4387755393982	1.0085475444793701
83	342.6514914035797	pulse	0	t		81.0	2.5	/experiments/knapen_AOT/AOT_stimuli/rescaled_final/1610_rv.mp4	0.0	360.02251505851746	
83	343.0762994289398	movie	1		277	81.0	2.5	/experiments/knapen_AOT/AOT_stimuli/rescaled_final/1610_rv.mp4	0.0	360.44732308387756	2.492176055908203
83	344.24977350234985	pulse	1	t		81.0	2.5	/experiments/knapen_AOT/AOT_stimuli/rescaled_final/1610_rv.mp4	0.0	361.6207971572876	
83	345.568475484848	fix_post	2		12	81.0	2.5	/experiments/knapen_AOT/AOT_stimuli/rescaled_final/1610_rv.mp4	0.0	362.93949913978577	0.09983110427856445
84	345.6683065891266	fix_pre	0		120	82.0	2.5	/experiments/knapen_AOT/AOT_stimuli/rescaled_final/0649_rv.mp4	0.0	363.03933024406433	1.0084969997406006
84	345.8519332408905	pulse	0	t		82.0	2.5	/experiments/knapen_AOT/AOT_stimuli/rescaled_final/0649_rv.mp4	0.0	363.22295689582825	
84	346.6768035888672	movie	1		275	82.0	2.5	/experiments/knapen_AOT/AOT_stimuli/rescaled_final/0649_rv.mp4	0.0	364.04782724380493	2.4921815395355225
84	347.4511568546295	pulse	1	t		82.0	2.5	/experiments/knapen_AOT/AOT_stimuli/rescaled_final/0649_rv.mp4	0.0	364.82218050956726	
84	349.05028200149536	pulse	1	t		82.0	2.5	/experiments/knapen_AOT/AOT_stimuli/rescaled_final/0649_rv.mp4	0.0	366.4213056564331	
84	349.1689851284027	fix_post	2		12	82.0	2.5	/experiments/knapen_AOT/AOT_stimuli/rescaled_final/0649_rv.mp4	0.0	366.54000878334045	0.09985542297363281
85	349.26884055137634	fix_pre	0		120	83.0	2.5	blank	1.0	366.6398642063141	1.000138759613037
85	350.2689793109894	movie	1		300	83.0	2.5	blank	1.0	367.6400029659271	2.500441789627075
85	350.65263414382935	pulse	1	t		83.0	2.5	blank	1.0	368.0236577987671	
85	352.2530183792114	pulse	1	t		83.0	2.5	blank	1.0	369.62404203414917	
85	352.76942110061646	fix_post	2		12	83.0	2.5	blank	1.0	370.1404447555542	0.09994292259216309
87	352.8693640232086	stim	0		1715					370.24038767814636	14.293923616409302
87	353.85305070877075	pulse	0	t						371.2240743637085	
87	355.44697761535645	pulse	0	t						372.8180012702942	
87	357.05351519584656	pulse	0	t						374.4245388507843	
87	358.6538486480713	pulse	0	t						376.02487230300903	
87	360.25409603118896	pulse	0	t						377.6251196861267	
87	361.8545153141022	pulse	0	t						379.2255389690399	
87	363.44711804389954	pulse	0	t						380.8181416988373	
87	365.0469355583191	pulse	0	t						382.41795921325684	
87	366.64698553085327	pulse	0	t						384.018009185791	
