trial_nr	onset	event_type	phase	response	nr_frames	movie_index	movie_duration	movie_file	blank	onset_abs	duration
0	0.17463135719299316	stim	0		89					24.63789701461792	0.7415974140167236
0	0.9080929756164551	response	0	space						25.371358633041382	
1	0.9162287712097168	stim	0		5140					25.379494428634644	42.85097789764404
1	43.75722932815552	pulse	0	t						68.22049498558044	
1	43.76720666885376	stim	1		1716					68.23047232627869	14.307599544525146
1	45.348079681396484	pulse	1	t						69.81134533882141	
1	46.9485068321228	pulse	1	t						71.41177248954773	
1	48.540465116500854	pulse	1	t						73.00373077392578	
1	50.148964166641235	pulse	1	t						74.61222982406616	
1	51.740875005722046	pulse	1	t						76.20414066314697	
1	53.34102439880371	pulse	1	t						77.80429005622864	
1	54.94122838973999	pulse	1	t						79.40449404716492	
1	56.54154324531555	pulse	1	t						81.00480890274048	
2	58.074806213378906	fix_pre	0		9	0.0	2.5	/experiments/knapen_AOT/AOT_stimuli/rescaled_final/1367_fw.mp4	0.0	82.53807187080383	0.09175682067871094
2	58.141732931137085	pulse	0	t		0.0	2.5	/experiments/knapen_AOT/AOT_stimuli/rescaled_final/1367_fw.mp4	0.0	82.60499858856201	
2	58.16656303405762	movie	1		279	0.0	2.5	/experiments/knapen_AOT/AOT_stimuli/rescaled_final/1367_fw.mp4	0.0	82.62982869148254	2.5003037452697754
2	59.74054551124573	pulse	1	t		0.0	2.5	/experiments/knapen_AOT/AOT_stimuli/rescaled_final/1367_fw.mp4	0.0	84.20381116867065	
2	60.66686677932739	fix_post	2		11	0.0	2.5	/experiments/knapen_AOT/AOT_stimuli/rescaled_final/1367_fw.mp4	0.0	85.13013243675232	0.09166455268859863
3	60.75853133201599	fix_pre	0		120	1.0	2.5	/experiments/knapen_AOT/AOT_stimuli/rescaled_final/1784_rv.mp4	0.0	85.22179698944092	1.0085227489471436
3	61.34216785430908	pulse	0	t		1.0	2.5	/experiments/knapen_AOT/AOT_stimuli/rescaled_final/1784_rv.mp4	0.0	85.80543351173401	
3	61.767054080963135	movie	1		284	1.0	2.5	/experiments/knapen_AOT/AOT_stimuli/rescaled_final/1784_rv.mp4	0.0	86.23031973838806	2.5004794597625732
3	62.94206357002258	pulse	1	t		1.0	2.5	/experiments/knapen_AOT/AOT_stimuli/rescaled_final/1784_rv.mp4	0.0	87.40532922744751	
3	64.26753354072571	fix_post	2		11	1.0	2.5	/experiments/knapen_AOT/AOT_stimuli/rescaled_final/1784_rv.mp4	0.0	88.73079919815063	0.09156322479248047
4	64.35909676551819	fix_pre	0		120	2.0	2.5	/experiments/knapen_AOT/AOT_stimuli/rescaled_final/1515_fw.mp4	0.0	88.82236242294312	1.0085082054138184
4	64.54266238212585	pulse	0	t		2.0	2.5	/experiments/knapen_AOT/AOT_stimuli/rescaled_final/1515_fw.mp4	0.0	89.00592803955078	
4	65.367604970932	movie	1		260	2.0	2.5	/experiments/knapen_AOT/AOT_stimuli/rescaled_final/1515_fw.mp4	0.0	89.83087062835693	2.492358684539795
4	66.14163064956665	pulse	1	t		2.0	2.5	/experiments/knapen_AOT/AOT_stimuli/rescaled_final/1515_fw.mp4	0.0	90.60489630699158	
4	67.74297571182251	pulse	1	t		2.0	2.5	/experiments/knapen_AOT/AOT_stimuli/rescaled_final/1515_fw.mp4	0.0	92.20624136924744	
4	67.8599636554718	fix_post	2		12	2.0	2.5	/experiments/knapen_AOT/AOT_stimuli/rescaled_final/1515_fw.mp4	0.0	92.32322931289673	0.09969639778137207
5	67.95966005325317	fix_pre	0		120	3.0	2.5	/experiments/knapen_AOT/AOT_stimuli/rescaled_final/1367_rv.mp4	0.0	92.4229257106781	1.0084748268127441
5	68.96813488006592	movie	1		273	3.0	2.5	/experiments/knapen_AOT/AOT_stimuli/rescaled_final/1367_rv.mp4	0.0	93.43140053749084	2.492352247238159
5	69.34195756912231	pulse	1	t		3.0	2.5	/experiments/knapen_AOT/AOT_stimuli/rescaled_final/1367_rv.mp4	0.0	93.80522322654724	
5	70.94129061698914	pulse	1	t		3.0	2.5	/experiments/knapen_AOT/AOT_stimuli/rescaled_final/1367_rv.mp4	0.0	95.40455627441406	
5	71.46048712730408	fix_post	2		12	3.0	2.5	/experiments/knapen_AOT/AOT_stimuli/rescaled_final/1367_rv.mp4	0.0	95.923752784729	0.09973573684692383
6	71.560222864151	fix_pre	0		119	4.0	2.5	/experiments/knapen_AOT/AOT_stimuli/rescaled_final/0510_rv.mp4	0.0	96.02348852157593	1.0001201629638672
6	72.54390454292297	pulse	0	t		4.0	2.5	/experiments/knapen_AOT/AOT_stimuli/rescaled_final/0510_rv.mp4	0.0	97.0071702003479	
6	72.56034302711487	movie	1		273	4.0	2.5	/experiments/knapen_AOT/AOT_stimuli/rescaled_final/0510_rv.mp4	0.0	97.0236086845398	2.5006728172302246
6	74.14276671409607	pulse	1	t		4.0	2.5	/experiments/knapen_AOT/AOT_stimuli/rescaled_final/0510_rv.mp4	0.0	98.606032371521	
6	75.06101584434509	fix_post	2		12	4.0	2.5	/experiments/knapen_AOT/AOT_stimuli/rescaled_final/0510_rv.mp4	0.0	99.52428150177002	0.09967875480651855
7	75.16069459915161	fix_pre	0		120	5.0	2.5	/experiments/knapen_AOT/AOT_stimuli/rescaled_final/0188_rv.mp4	0.0	99.62396025657654	1.0085716247558594
7	75.74430441856384	pulse	0	t		5.0	2.5	/experiments/knapen_AOT/AOT_stimuli/rescaled_final/0188_rv.mp4	0.0	100.20757007598877	
7	76.16926622390747	movie	1		257	5.0	2.5	/experiments/knapen_AOT/AOT_stimuli/rescaled_final/0188_rv.mp4	0.0	100.6325318813324	2.4920990467071533
7	77.34369707107544	pulse	1	t		5.0	2.5	/experiments/knapen_AOT/AOT_stimuli/rescaled_final/0188_rv.mp4	0.0	101.80696272850037	
7	78.66136527061462	fix_post	2		12	5.0	2.5	/experiments/knapen_AOT/AOT_stimuli/rescaled_final/0188_rv.mp4	0.0	103.12463092803955	0.1000058650970459
8	78.76137113571167	fix_pre	0		120	6.0	2.5	/experiments/knapen_AOT/AOT_stimuli/rescaled_final/0359_rv.mp4	0.0	103.2246367931366	1.008368730545044
8	78.94483876228333	pulse	0	t		6.0	2.5	/experiments/knapen_AOT/AOT_stimuli/rescaled_final/0359_rv.mp4	0.0	103.40810441970825	
8	79.76973986625671	movie	1		268	6.0	2.5	/experiments/knapen_AOT/AOT_stimuli/rescaled_final/0359_rv.mp4	0.0	104.23300552368164	2.492196798324585
8	80.54300856590271	pulse	1	t		6.0	2.5	/experiments/knapen_AOT/AOT_stimuli/rescaled_final/0359_rv.mp4	0.0	105.00627422332764	
8	82.14449429512024	pulse	1	t		6.0	2.5	/experiments/knapen_AOT/AOT_stimuli/rescaled_final/0359_rv.mp4	0.0	106.60775995254517	
8	82.2619366645813	fix_post	2		12	6.0	2.5	/experiments/knapen_AOT/AOT_stimuli/rescaled_final/0359_rv.mp4	0.0	106.72520232200623	0.09992814064025879
9	82.36186480522156	fix_pre	0		120	7.0	2.5	blank	1.0	106.82513046264648	1.0000529289245605
9	83.36191773414612	movie	1		300	7.0	2.5	blank	1.0	107.82518339157104	2.5004467964172363
9	83.74550175666809	pulse	1	t		7.0	2.5	blank	1.0	108.20876741409302	
9	85.34615015983582	pulse	1	t		7.0	2.5	blank	1.0	109.80941581726074	
9	85.86236453056335	fix_post	2		12	7.0	2.5	blank	1.0	110.32563018798828	0.09996390342712402
10	85.96232843399048	fix_pre	0		119	8.0	2.5	/experiments/knapen_AOT/AOT_stimuli/rescaled_final/1190_rv.mp4	0.0	110.4255940914154	1.0002708435058594
10	86.9460780620575	pulse	0	t		8.0	2.5	/experiments/knapen_AOT/AOT_stimuli/rescaled_final/1190_rv.mp4	0.0	111.40934371948242	
10	86.96259927749634	movie	1		277	8.0	2.5	/experiments/knapen_AOT/AOT_stimuli/rescaled_final/1190_rv.mp4	0.0	111.42586493492126	2.5004684925079346
10	88.54445219039917	pulse	1	t		8.0	2.5	/experiments/knapen_AOT/AOT_stimuli/rescaled_final/1190_rv.mp4	0.0	113.0077178478241	
10	89.46306777000427	fix_post	2		12	8.0	2.5	/experiments/knapen_AOT/AOT_stimuli/rescaled_final/1190_rv.mp4	0.0	113.9263334274292	0.09981918334960938
11	89.56288695335388	fix_pre	0		120	9.0	2.5	/experiments/knapen_AOT/AOT_stimuli/rescaled_final/0438_fw.mp4	0.0	114.02615261077881	1.0084929466247559
11	90.14653038978577	pulse	0	t		9.0	2.5	/experiments/knapen_AOT/AOT_stimuli/rescaled_final/0438_fw.mp4	0.0	114.6097960472107	
11	90.57137989997864	movie	1		247	9.0	2.5	/experiments/knapen_AOT/AOT_stimuli/rescaled_final/0438_fw.mp4	0.0	115.03464555740356	2.492208480834961
11	91.74527478218079	pulse	1	t		9.0	2.5	/experiments/knapen_AOT/AOT_stimuli/rescaled_final/0438_fw.mp4	0.0	116.20854043960571	
11	93.0635883808136	fix_post	2		12	9.0	2.5	/experiments/knapen_AOT/AOT_stimuli/rescaled_final/0438_fw.mp4	0.0	117.52685403823853	0.09984993934631348
12	93.16343832015991	fix_pre	0		120	10.0	2.5	/experiments/knapen_AOT/AOT_stimuli/rescaled_final/1150_rv.mp4	0.0	117.62670397758484	1.008479118347168
12	93.34705257415771	pulse	0	t		10.0	2.5	/experiments/knapen_AOT/AOT_stimuli/rescaled_final/1150_rv.mp4	0.0	117.81031823158264	
12	94.17191743850708	movie	1		252	10.0	2.5	/experiments/knapen_AOT/AOT_stimuli/rescaled_final/1150_rv.mp4	0.0	118.635183095932	2.492129325866699
12	94.94533729553223	pulse	1	t		10.0	2.5	/experiments/knapen_AOT/AOT_stimuli/rescaled_final/1150_rv.mp4	0.0	119.40860295295715	
12	96.54748058319092	pulse	1	t		10.0	2.5	/experiments/knapen_AOT/AOT_stimuli/rescaled_final/1150_rv.mp4	0.0	121.01074624061584	
12	96.66404676437378	fix_post	2		12	10.0	2.5	/experiments/knapen_AOT/AOT_stimuli/rescaled_final/1150_rv.mp4	0.0	121.1273124217987	0.09989809989929199
13	96.76394486427307	fix_pre	0		120	11.0	2.5	/experiments/knapen_AOT/AOT_stimuli/rescaled_final/1572_fw.mp4	0.0	121.227210521698	1.008749008178711
13	97.77269387245178	movie	1		253	11.0	2.5	/experiments/knapen_AOT/AOT_stimuli/rescaled_final/1572_fw.mp4	0.0	122.23595952987671	2.4919614791870117
13	98.1482765674591	pulse	1	t		11.0	2.5	/experiments/knapen_AOT/AOT_stimuli/rescaled_final/1572_fw.mp4	0.0	122.61154222488403	
13	99.74566173553467	pulse	1	t		11.0	2.5	/experiments/knapen_AOT/AOT_stimuli/rescaled_final/1572_fw.mp4	0.0	124.2089273929596	
13	100.2646553516388	fix_post	2		12	11.0	2.5	/experiments/knapen_AOT/AOT_stimuli/rescaled_final/1572_fw.mp4	0.0	124.72792100906372	0.09984350204467773
14	100.36449885368347	fix_pre	0		119	12.0	2.5	/experiments/knapen_AOT/AOT_stimuli/rescaled_final/0077_fw.mp4	0.0	124.8277645111084	1.000253438949585
14	101.34821915626526	pulse	0	t		12.0	2.5	/experiments/knapen_AOT/AOT_stimuli/rescaled_final/0077_fw.mp4	0.0	125.81148481369019	
14	101.36475229263306	movie	1		262	12.0	2.5	/experiments/knapen_AOT/AOT_stimuli/rescaled_final/0077_fw.mp4	0.0	125.82801795005798	2.5004396438598633
14	102.94698572158813	pulse	1	t		12.0	2.5	/experiments/knapen_AOT/AOT_stimuli/rescaled_final/0077_fw.mp4	0.0	127.41025137901306	
14	103.86519193649292	fix_post	2		12	12.0	2.5	/experiments/knapen_AOT/AOT_stimuli/rescaled_final/0077_fw.mp4	0.0	128.32845759391785	0.09992122650146484
15	103.96511316299438	fix_pre	0		119	13.0	2.5	/experiments/knapen_AOT/AOT_stimuli/rescaled_final/0486_rv.mp4	0.0	128.4283788204193	1.0084865093231201
15	104.54903221130371	pulse	0	t		13.0	2.5	/experiments/knapen_AOT/AOT_stimuli/rescaled_final/0486_rv.mp4	0.0	129.01229786872864	
15	104.9735996723175	movie	1		250	13.0	2.5	/experiments/knapen_AOT/AOT_stimuli/rescaled_final/0486_rv.mp4	0.0	129.43686532974243	2.492154836654663
15	106.14952325820923	pulse	1	t		13.0	2.5	/experiments/knapen_AOT/AOT_stimuli/rescaled_final/0486_rv.mp4	0.0	130.61278891563416	
15	107.46575450897217	fix_post	2		12	13.0	2.5	/experiments/knapen_AOT/AOT_stimuli/rescaled_final/0486_rv.mp4	0.0	131.9290201663971	0.09984970092773438
16	107.5656042098999	fix_pre	0		120	14.0	2.5	blank	1.0	132.02886986732483	1.000135898590088
16	107.74101209640503	pulse	0	t		14.0	2.5	blank	1.0	132.20427775382996	
16	108.56574010848999	movie	1		300	14.0	2.5	blank	1.0	133.02900576591492	2.5003554821014404
16	109.3412766456604	pulse	1	t		14.0	2.5	blank	1.0	133.80454230308533	
16	110.94138216972351	pulse	1	t		14.0	2.5	blank	1.0	135.40464782714844	
16	111.06609559059143	fix_post	2		12	14.0	2.5	blank	1.0	135.52936124801636	0.10004496574401855
17	111.16614055633545	fix_pre	0		120	15.0	2.5	/experiments/knapen_AOT/AOT_stimuli/rescaled_final/0063_fw.mp4	0.0	135.62940621376038	1.0084683895111084
17	112.17460894584656	movie	1		259	15.0	2.5	/experiments/knapen_AOT/AOT_stimuli/rescaled_final/0063_fw.mp4	0.0	136.63787460327148	2.4920735359191895
17	112.54162979125977	pulse	1	t		15.0	2.5	/experiments/knapen_AOT/AOT_stimuli/rescaled_final/0063_fw.mp4	0.0	137.0048954486847	
17	114.14179253578186	pulse	1	t		15.0	2.5	/experiments/knapen_AOT/AOT_stimuli/rescaled_final/0063_fw.mp4	0.0	138.6050581932068	
17	114.66668248176575	fix_post	2		12	15.0	2.5	/experiments/knapen_AOT/AOT_stimuli/rescaled_final/0063_fw.mp4	0.0	139.12994813919067	0.0999765396118164
18	114.76665902137756	fix_pre	0		118	16.0	2.5	/experiments/knapen_AOT/AOT_stimuli/rescaled_final/1439_rv.mp4	0.0	139.2299246788025	0.9918155670166016
18	115.74200320243835	pulse	0	t		16.0	2.5	/experiments/knapen_AOT/AOT_stimuli/rescaled_final/1439_rv.mp4	0.0	140.20526885986328	
18	115.75847458839417	movie	1		263	16.0	2.5	/experiments/knapen_AOT/AOT_stimuli/rescaled_final/1439_rv.mp4	0.0	140.2217402458191	2.500781536102295
18	117.34232521057129	pulse	1	t		16.0	2.5	/experiments/knapen_AOT/AOT_stimuli/rescaled_final/1439_rv.mp4	0.0	141.80559086799622	
18	118.25925612449646	fix_post	2		12	16.0	2.5	/experiments/knapen_AOT/AOT_stimuli/rescaled_final/1439_rv.mp4	0.0	142.7225217819214	0.09981417655944824
19	118.35907030105591	fix_pre	0		120	17.0	2.5	/experiments/knapen_AOT/AOT_stimuli/rescaled_final/1130_fw.mp4	0.0	142.82233595848083	1.0082972049713135
19	118.94264626502991	pulse	0	t		17.0	2.5	/experiments/knapen_AOT/AOT_stimuli/rescaled_final/1130_fw.mp4	0.0	143.40591192245483	
19	119.36736750602722	movie	1		268	17.0	2.5	/experiments/knapen_AOT/AOT_stimuli/rescaled_final/1130_fw.mp4	0.0	143.83063316345215	2.4920156002044678
19	120.54303479194641	pulse	1	t		17.0	2.5	/experiments/knapen_AOT/AOT_stimuli/rescaled_final/1130_fw.mp4	0.0	145.00630044937134	
19	121.85938310623169	fix_post	2		12	17.0	2.5	/experiments/knapen_AOT/AOT_stimuli/rescaled_final/1130_fw.mp4	0.0	146.32264876365662	0.10002517700195312
20	121.95940828323364	fix_pre	0		120	18.0	2.5	/experiments/knapen_AOT/AOT_stimuli/rescaled_final/0945_fw.mp4	0.0	146.42267394065857	1.0086536407470703
20	122.14299654960632	pulse	0	t		18.0	2.5	/experiments/knapen_AOT/AOT_stimuli/rescaled_final/0945_fw.mp4	0.0	146.60626220703125	
20	122.96806192398071	movie	1		275	18.0	2.5	/experiments/knapen_AOT/AOT_stimuli/rescaled_final/0945_fw.mp4	0.0	147.43132758140564	2.4921512603759766
20	123.741201877594	pulse	1	t		18.0	2.5	/experiments/knapen_AOT/AOT_stimuli/rescaled_final/0945_fw.mp4	0.0	148.20446753501892	
20	125.34295392036438	pulse	1	t		18.0	2.5	/experiments/knapen_AOT/AOT_stimuli/rescaled_final/0945_fw.mp4	0.0	149.8062195777893	
20	125.46021318435669	fix_post	2		12	18.0	2.5	/experiments/knapen_AOT/AOT_stimuli/rescaled_final/0945_fw.mp4	0.0	149.92347884178162	0.09975910186767578
21	125.55997228622437	fix_pre	0		120	19.0	2.5	/experiments/knapen_AOT/AOT_stimuli/rescaled_final/1372_rv.mp4	0.0	150.0232379436493	1.0084850788116455
21	126.56845736503601	movie	1		266	19.0	2.5	/experiments/knapen_AOT/AOT_stimuli/rescaled_final/1372_rv.mp4	0.0	151.03172302246094	2.4920425415039062
21	126.94208598136902	pulse	1	t		19.0	2.5	/experiments/knapen_AOT/AOT_stimuli/rescaled_final/1372_rv.mp4	0.0	151.40535163879395	
21	128.5449457168579	pulse	1	t		19.0	2.5	/experiments/knapen_AOT/AOT_stimuli/rescaled_final/1372_rv.mp4	0.0	153.00821137428284	
21	129.06049990653992	fix_post	2		12	19.0	2.5	/experiments/knapen_AOT/AOT_stimuli/rescaled_final/1372_rv.mp4	0.0	153.52376556396484	0.10022497177124023
22	129.16072487831116	fix_pre	0		119	20.0	2.5	blank	1.0	153.62399053573608	0.9915797710418701
22	130.14439129829407	pulse	0	t		20.0	2.5	blank	1.0	154.607656955719	
22	130.15230464935303	movie	1		301	20.0	2.5	blank	1.0	154.61557030677795	2.5086967945098877
22	131.74443411827087	pulse	1	t		20.0	2.5	blank	1.0	156.2076997756958	
22	132.66100144386292	fix_post	2		12	20.0	2.5	blank	1.0	157.12426710128784	0.10003161430358887
23	132.7610330581665	fix_pre	0		120	21.0	2.5	/experiments/knapen_AOT/AOT_stimuli/rescaled_final/0320_fw.mp4	0.0	157.22429871559143	1.0087132453918457
23	133.34471154212952	pulse	0	t		21.0	2.5	/experiments/knapen_AOT/AOT_stimuli/rescaled_final/0320_fw.mp4	0.0	157.80797719955444	
23	133.76974630355835	movie	1		270	21.0	2.5	/experiments/knapen_AOT/AOT_stimuli/rescaled_final/0320_fw.mp4	0.0	158.23301196098328	2.4919490814208984
23	134.9440631866455	pulse	1	t		21.0	2.5	/experiments/knapen_AOT/AOT_stimuli/rescaled_final/0320_fw.mp4	0.0	159.40732884407043	
23	136.26169538497925	fix_post	2		12	21.0	2.5	/experiments/knapen_AOT/AOT_stimuli/rescaled_final/0320_fw.mp4	0.0	160.72496104240417	0.10004997253417969
24	136.36174535751343	fix_pre	0		120	22.0	2.5	/experiments/knapen_AOT/AOT_stimuli/rescaled_final/1224_rv.mp4	0.0	160.82501101493835	1.0083305835723877
24	136.54514360427856	pulse	0	t		22.0	2.5	/experiments/knapen_AOT/AOT_stimuli/rescaled_final/1224_rv.mp4	0.0	161.0084092617035	
24	137.37007594108582	movie	1		267	22.0	2.5	/experiments/knapen_AOT/AOT_stimuli/rescaled_final/1224_rv.mp4	0.0	161.83334159851074	2.4921820163726807
24	138.14557313919067	pulse	1	t		22.0	2.5	/experiments/knapen_AOT/AOT_stimuli/rescaled_final/1224_rv.mp4	0.0	162.6088387966156	
24	139.74715399742126	pulse	1	t		22.0	2.5	/experiments/knapen_AOT/AOT_stimuli/rescaled_final/1224_rv.mp4	0.0	164.2104196548462	
24	139.8622579574585	fix_post	2		12	22.0	2.5	/experiments/knapen_AOT/AOT_stimuli/rescaled_final/1224_rv.mp4	0.0	164.32552361488342	0.09989500045776367
25	139.96215295791626	fix_pre	0		120	23.0	2.5	/experiments/knapen_AOT/AOT_stimuli/rescaled_final/1234_rv.mp4	0.0	164.4254186153412	1.0086493492126465
25	140.9708023071289	movie	1		272	23.0	2.5	/experiments/knapen_AOT/AOT_stimuli/rescaled_final/1234_rv.mp4	0.0	165.43406796455383	2.492471933364868
25	141.3461353778839	pulse	1	t		23.0	2.5	/experiments/knapen_AOT/AOT_stimuli/rescaled_final/1234_rv.mp4	0.0	165.80940103530884	
25	142.94493579864502	pulse	1	t		23.0	2.5	/experiments/knapen_AOT/AOT_stimuli/rescaled_final/1234_rv.mp4	0.0	167.40820145606995	
25	143.46327424049377	fix_post	2		11	23.0	2.5	/experiments/knapen_AOT/AOT_stimuli/rescaled_final/1234_rv.mp4	0.0	167.9265398979187	0.09995365142822266
26	143.563227891922	fix_pre	0		119	24.0	2.5	/experiments/knapen_AOT/AOT_stimuli/rescaled_final/0917_rv.mp4	0.0	168.02649354934692	1.0079433917999268
26	144.54664587974548	pulse	0	t		24.0	2.5	/experiments/knapen_AOT/AOT_stimuli/rescaled_final/0917_rv.mp4	0.0	169.0099115371704	
26	144.57117128372192	movie	1		261	24.0	2.5	/experiments/knapen_AOT/AOT_stimuli/rescaled_final/0917_rv.mp4	0.0	169.03443694114685	2.4921329021453857
26	146.14540219306946	pulse	1	t		24.0	2.5	/experiments/knapen_AOT/AOT_stimuli/rescaled_final/0917_rv.mp4	0.0	170.60866785049438	
26	147.0633041858673	fix_post	2		12	24.0	2.5	/experiments/knapen_AOT/AOT_stimuli/rescaled_final/0917_rv.mp4	0.0	171.52656984329224	0.09988856315612793
27	147.16319274902344	fix_pre	0		120	25.0	2.5	/experiments/knapen_AOT/AOT_stimuli/rescaled_final/1721_fw.mp4	0.0	171.62645840644836	1.0086309909820557
27	147.74676656723022	pulse	0	t		25.0	2.5	/experiments/knapen_AOT/AOT_stimuli/rescaled_final/1721_fw.mp4	0.0	172.21003222465515	
27	148.1718237400055	movie	1		279	25.0	2.5	/experiments/knapen_AOT/AOT_stimuli/rescaled_final/1721_fw.mp4	0.0	172.63508939743042	2.491938829421997
27	149.3452639579773	pulse	1	t		25.0	2.5	/experiments/knapen_AOT/AOT_stimuli/rescaled_final/1721_fw.mp4	0.0	173.80852961540222	
27	150.6637625694275	fix_post	2		12	25.0	2.5	/experiments/knapen_AOT/AOT_stimuli/rescaled_final/1721_fw.mp4	0.0	175.12702822685242	0.09998297691345215
28	150.76374554634094	fix_pre	0		120	26.0	2.5	/experiments/knapen_AOT/AOT_stimuli/rescaled_final/2095_fw.mp4	0.0	175.22701120376587	1.0085606575012207
28	150.94734859466553	pulse	0	t		26.0	2.5	/experiments/knapen_AOT/AOT_stimuli/rescaled_final/2095_fw.mp4	0.0	175.41061425209045	
28	151.77230620384216	movie	1		259	26.0	2.5	/experiments/knapen_AOT/AOT_stimuli/rescaled_final/2095_fw.mp4	0.0	176.2355718612671	2.49198055267334
28	152.54656648635864	pulse	1	t		26.0	2.5	/experiments/knapen_AOT/AOT_stimuli/rescaled_final/2095_fw.mp4	0.0	177.00983214378357	
28	154.14688086509705	pulse	1	t		26.0	2.5	/experiments/knapen_AOT/AOT_stimuli/rescaled_final/2095_fw.mp4	0.0	178.61014652252197	
28	154.2642867565155	fix_post	2		12	26.0	2.5	/experiments/knapen_AOT/AOT_stimuli/rescaled_final/2095_fw.mp4	0.0	178.72755241394043	0.10031843185424805
29	154.36460518836975	fix_pre	0		120	27.0	2.5	/experiments/knapen_AOT/AOT_stimuli/rescaled_final/1761_rv.mp4	0.0	178.82787084579468	1.0083034038543701
29	155.37290859222412	movie	1		273	27.0	2.5	/experiments/knapen_AOT/AOT_stimuli/rescaled_final/1761_rv.mp4	0.0	179.83617424964905	2.4919068813323975
29	155.7461986541748	pulse	1	t		27.0	2.5	/experiments/knapen_AOT/AOT_stimuli/rescaled_final/1761_rv.mp4	0.0	180.20946431159973	
29	157.34595680236816	pulse	1	t		27.0	2.5	/experiments/knapen_AOT/AOT_stimuli/rescaled_final/1761_rv.mp4	0.0	181.8092224597931	
29	157.86481547355652	fix_post	2		12	27.0	2.5	/experiments/knapen_AOT/AOT_stimuli/rescaled_final/1761_rv.mp4	0.0	182.32808113098145	0.10004377365112305
30	157.96485924720764	fix_pre	0		119	28.0	2.5	blank	1.0	182.42812490463257	0.9917736053466797
30	158.94859266281128	pulse	0	t		28.0	2.5	blank	1.0	183.4118583202362	
30	158.95663285255432	movie	1		301	28.0	2.5	blank	1.0	183.41989850997925	2.5089504718780518
30	160.54877305030823	pulse	1	t		28.0	2.5	blank	1.0	185.01203870773315	
30	161.46558332443237	fix_post	2		12	28.0	2.5	blank	1.0	185.9288489818573	0.09980154037475586
31	161.56538486480713	fix_pre	0		120	29.0	2.5	/experiments/knapen_AOT/AOT_stimuli/rescaled_final/0349_fw.mp4	0.0	186.02865052223206	1.008521556854248
31	162.1415376663208	pulse	0	t		29.0	2.5	/experiments/knapen_AOT/AOT_stimuli/rescaled_final/0349_fw.mp4	0.0	186.60480332374573	
31	162.57390642166138	movie	1		269	29.0	2.5	/experiments/knapen_AOT/AOT_stimuli/rescaled_final/0349_fw.mp4	0.0	187.0371720790863	2.4920918941497803
31	163.74738359451294	pulse	1	t		29.0	2.5	/experiments/knapen_AOT/AOT_stimuli/rescaled_final/0349_fw.mp4	0.0	188.21064925193787	
31	165.06599831581116	fix_post	2		12	29.0	2.5	/experiments/knapen_AOT/AOT_stimuli/rescaled_final/0349_fw.mp4	0.0	189.52926397323608	0.09998703002929688
32	165.16598534584045	fix_pre	0		120	30.0	2.5	/experiments/knapen_AOT/AOT_stimuli/rescaled_final/0814_fw.mp4	0.0	189.62925100326538	1.0084290504455566
32	165.34160542488098	pulse	0	t		30.0	2.5	/experiments/knapen_AOT/AOT_stimuli/rescaled_final/0814_fw.mp4	0.0	189.8048710823059	
32	166.174414396286	movie	1		263	30.0	2.5	/experiments/knapen_AOT/AOT_stimuli/rescaled_final/0814_fw.mp4	0.0	190.63768005371094	2.492058753967285
32	166.94190311431885	pulse	1	t		30.0	2.5	/experiments/knapen_AOT/AOT_stimuli/rescaled_final/0814_fw.mp4	0.0	191.40516877174377	
32	168.54166626930237	pulse	1	t		30.0	2.5	/experiments/knapen_AOT/AOT_stimuli/rescaled_final/0814_fw.mp4	0.0	193.0049319267273	
32	168.6664731502533	fix_post	2		12	30.0	2.5	/experiments/knapen_AOT/AOT_stimuli/rescaled_final/0814_fw.mp4	0.0	193.12973880767822	0.09998178482055664
33	168.76645493507385	fix_pre	0		120	31.0	2.5	/experiments/knapen_AOT/AOT_stimuli/rescaled_final/1845_fw.mp4	0.0	193.22972059249878	1.0085794925689697
33	169.77503442764282	movie	1		270	31.0	2.5	/experiments/knapen_AOT/AOT_stimuli/rescaled_final/1845_fw.mp4	0.0	194.23830008506775	2.492201089859009
33	170.14196491241455	pulse	1	t		31.0	2.5	/experiments/knapen_AOT/AOT_stimuli/rescaled_final/1845_fw.mp4	0.0	194.60523056983948	
33	171.74223256111145	pulse	1	t		31.0	2.5	/experiments/knapen_AOT/AOT_stimuli/rescaled_final/1845_fw.mp4	0.0	196.20549821853638	
33	172.26723551750183	fix_post	2		12	31.0	2.5	/experiments/knapen_AOT/AOT_stimuli/rescaled_final/1845_fw.mp4	0.0	196.73050117492676	0.0998830795288086
34	172.36711859703064	fix_pre	0		118	32.0	2.5	/experiments/knapen_AOT/AOT_stimuli/rescaled_final/0983_fw.mp4	0.0	196.83038425445557	0.9917144775390625
34	173.34263586997986	pulse	0	t		32.0	2.5	/experiments/knapen_AOT/AOT_stimuli/rescaled_final/0983_fw.mp4	0.0	197.80590152740479	
34	173.3588330745697	movie	1		271	32.0	2.5	/experiments/knapen_AOT/AOT_stimuli/rescaled_final/0983_fw.mp4	0.0	197.82209873199463	2.5003414154052734
34	174.94185948371887	pulse	1	t		32.0	2.5	/experiments/knapen_AOT/AOT_stimuli/rescaled_final/0983_fw.mp4	0.0	199.4051251411438	
34	175.85917448997498	fix_post	2		12	32.0	2.5	/experiments/knapen_AOT/AOT_stimuli/rescaled_final/0983_fw.mp4	0.0	200.3224401473999	0.10004210472106934
35	175.95921659469604	fix_pre	0		120	33.0	2.5	/experiments/knapen_AOT/AOT_stimuli/rescaled_final/0494_rv.mp4	0.0	200.42248225212097	1.0085210800170898
35	176.54311394691467	pulse	0	t		33.0	2.5	/experiments/knapen_AOT/AOT_stimuli/rescaled_final/0494_rv.mp4	0.0	201.0063796043396	
35	176.96773767471313	movie	1		262	33.0	2.5	/experiments/knapen_AOT/AOT_stimuli/rescaled_final/0494_rv.mp4	0.0	201.43100333213806	2.492255687713623
35	178.14336967468262	pulse	1	t		33.0	2.5	/experiments/knapen_AOT/AOT_stimuli/rescaled_final/0494_rv.mp4	0.0	202.60663533210754	
35	179.45999336242676	fix_post	2		12	33.0	2.5	/experiments/knapen_AOT/AOT_stimuli/rescaled_final/0494_rv.mp4	0.0	203.92325901985168	0.09997057914733887
36	179.5599639415741	fix_pre	0		120	34.0	2.5	blank	1.0	204.02322959899902	0.9999537467956543
36	179.74329662322998	pulse	0	t		34.0	2.5	blank	1.0	204.2065622806549	
36	180.55991768836975	movie	1		300	34.0	2.5	blank	1.0	205.02318334579468	2.5003716945648193
36	181.3435401916504	pulse	1	t		34.0	2.5	blank	1.0	205.80680584907532	
36	182.9440426826477	pulse	1	t		34.0	2.5	blank	1.0	207.40730834007263	
36	183.06028938293457	fix_post	2		12	34.0	2.5	blank	1.0	207.5235550403595	0.09998917579650879
37	183.16027855873108	fix_pre	0		120	35.0	2.5	/experiments/knapen_AOT/AOT_stimuli/rescaled_final/0932_fw.mp4	0.0	207.623544216156	1.0085136890411377
37	184.16879224777222	movie	1		269	35.0	2.5	/experiments/knapen_AOT/AOT_stimuli/rescaled_final/0932_fw.mp4	0.0	208.63205790519714	2.4921367168426514
37	184.54260110855103	pulse	1	t		35.0	2.5	/experiments/knapen_AOT/AOT_stimuli/rescaled_final/0932_fw.mp4	0.0	209.00586676597595	
37	186.14302349090576	pulse	1	t		35.0	2.5	/experiments/knapen_AOT/AOT_stimuli/rescaled_final/0932_fw.mp4	0.0	210.6062891483307	
37	186.66092896461487	fix_post	2		12	35.0	2.5	/experiments/knapen_AOT/AOT_stimuli/rescaled_final/0932_fw.mp4	0.0	211.1241946220398	0.09993314743041992
38	186.7608621120453	fix_pre	0		119	36.0	2.5	/experiments/knapen_AOT/AOT_stimuli/rescaled_final/0289_rv.mp4	0.0	211.22412776947021	1.0001161098480225
38	187.74450302124023	pulse	0	t		36.0	2.5	/experiments/knapen_AOT/AOT_stimuli/rescaled_final/0289_rv.mp4	0.0	212.20776867866516	
38	187.7609782218933	movie	1		265	36.0	2.5	/experiments/knapen_AOT/AOT_stimuli/rescaled_final/0289_rv.mp4	0.0	212.22424387931824	2.500601291656494
38	189.34503984451294	pulse	1	t		36.0	2.5	/experiments/knapen_AOT/AOT_stimuli/rescaled_final/0289_rv.mp4	0.0	213.80830550193787	
38	190.2615795135498	fix_post	2		12	36.0	2.5	/experiments/knapen_AOT/AOT_stimuli/rescaled_final/0289_rv.mp4	0.0	214.72484517097473	0.09985113143920898
39	190.361430644989	fix_pre	0		120	37.0	2.5	/experiments/knapen_AOT/AOT_stimuli/rescaled_final/0385_fw.mp4	0.0	214.82469630241394	1.0085105895996094
39	190.94523739814758	pulse	0	t		37.0	2.5	/experiments/knapen_AOT/AOT_stimuli/rescaled_final/0385_fw.mp4	0.0	215.4085030555725	
39	191.36994123458862	movie	1		277	37.0	2.5	/experiments/knapen_AOT/AOT_stimuli/rescaled_final/0385_fw.mp4	0.0	215.83320689201355	2.492095947265625
39	192.54347705841064	pulse	1	t		37.0	2.5	/experiments/knapen_AOT/AOT_stimuli/rescaled_final/0385_fw.mp4	0.0	217.00674271583557	
39	193.86203718185425	fix_post	2		12	37.0	2.5	/experiments/knapen_AOT/AOT_stimuli/rescaled_final/0385_fw.mp4	0.0	218.32530283927917	0.09989428520202637
40	193.96193146705627	fix_pre	0		120	38.0	2.5	/experiments/knapen_AOT/AOT_stimuli/rescaled_final/0049_rv.mp4	0.0	218.4251971244812	1.0084741115570068
40	194.1455042362213	pulse	0	t		38.0	2.5	/experiments/knapen_AOT/AOT_stimuli/rescaled_final/0049_rv.mp4	0.0	218.60876989364624	
40	194.97040557861328	movie	1		273	38.0	2.5	/experiments/knapen_AOT/AOT_stimuli/rescaled_final/0049_rv.mp4	0.0	219.4336712360382	2.4921841621398926
40	195.74382138252258	pulse	1	t		38.0	2.5	/experiments/knapen_AOT/AOT_stimuli/rescaled_final/0049_rv.mp4	0.0	220.2070870399475	
40	197.34435153007507	pulse	1	t		38.0	2.5	/experiments/knapen_AOT/AOT_stimuli/rescaled_final/0049_rv.mp4	0.0	221.8076171875	
40	197.46258974075317	fix_post	2		12	38.0	2.5	/experiments/knapen_AOT/AOT_stimuli/rescaled_final/0049_rv.mp4	0.0	221.9258553981781	0.09986472129821777
41	197.5624544620514	fix_pre	0		120	39.0	2.5	/experiments/knapen_AOT/AOT_stimuli/rescaled_final/1183_rv.mp4	0.0	222.02572011947632	1.0085608959197998
41	198.5710153579712	movie	1		278	39.0	2.5	/experiments/knapen_AOT/AOT_stimuli/rescaled_final/1183_rv.mp4	0.0	223.03428101539612	2.4919872283935547
41	198.9466531276703	pulse	1	t		39.0	2.5	/experiments/knapen_AOT/AOT_stimuli/rescaled_final/1183_rv.mp4	0.0	223.40991878509521	
41	200.5444962978363	pulse	1	t		39.0	2.5	/experiments/knapen_AOT/AOT_stimuli/rescaled_final/1183_rv.mp4	0.0	225.00776195526123	
41	201.06300258636475	fix_post	2		12	39.0	2.5	/experiments/knapen_AOT/AOT_stimuli/rescaled_final/1183_rv.mp4	0.0	225.52626824378967	0.09996891021728516
42	201.16297149658203	fix_pre	0		119	40.0	2.5	blank	1.0	225.62623715400696	0.9919853210449219
42	202.1469407081604	pulse	0	t		40.0	2.5	blank	1.0	226.61020636558533	
42	202.15495681762695	movie	1		301	40.0	2.5	blank	1.0	226.61822247505188	2.50856351852417
42	203.74694442749023	pulse	1	t		40.0	2.5	blank	1.0	228.21021008491516	
42	204.66352033615112	fix_post	2		12	40.0	2.5	blank	1.0	229.12678599357605	0.1000373363494873
43	204.7635576725006	fix_pre	0		120	41.0	2.5	/experiments/knapen_AOT/AOT_stimuli/rescaled_final/2155_rv.mp4	0.0	229.22682332992554	1.0084714889526367
43	205.34716153144836	pulse	0	t		41.0	2.5	/experiments/knapen_AOT/AOT_stimuli/rescaled_final/2155_rv.mp4	0.0	229.8104271888733	
43	205.77202916145325	movie	1		283	41.0	2.5	/experiments/knapen_AOT/AOT_stimuli/rescaled_final/2155_rv.mp4	0.0	230.23529481887817	2.492020845413208
43	206.94559335708618	pulse	1	t		41.0	2.5	/experiments/knapen_AOT/AOT_stimuli/rescaled_final/2155_rv.mp4	0.0	231.4088590145111	
43	208.26405000686646	fix_post	2		12	41.0	2.5	/experiments/knapen_AOT/AOT_stimuli/rescaled_final/2155_rv.mp4	0.0	232.72731566429138	0.09999227523803711
44	208.3640422821045	fix_pre	0		120	42.0	2.5	/experiments/knapen_AOT/AOT_stimuli/rescaled_final/1520_rv.mp4	0.0	232.82730793952942	1.0088167190551758
44	208.5478811264038	pulse	0	t		42.0	2.5	/experiments/knapen_AOT/AOT_stimuli/rescaled_final/1520_rv.mp4	0.0	233.01114678382874	
44	209.37285900115967	movie	1		280	42.0	2.5	/experiments/knapen_AOT/AOT_stimuli/rescaled_final/1520_rv.mp4	0.0	233.8361246585846	2.4917545318603516
44	210.14607572555542	pulse	1	t		42.0	2.5	/experiments/knapen_AOT/AOT_stimuli/rescaled_final/1520_rv.mp4	0.0	234.60934138298035	
44	211.74849367141724	pulse	1	t		42.0	2.5	/experiments/knapen_AOT/AOT_stimuli/rescaled_final/1520_rv.mp4	0.0	236.21175932884216	
44	211.86461353302002	fix_post	2		12	42.0	2.5	/experiments/knapen_AOT/AOT_stimuli/rescaled_final/1520_rv.mp4	0.0	236.32787919044495	0.0999906063079834
45	211.964604139328	fix_pre	0		120	43.0	2.5	/experiments/knapen_AOT/AOT_stimuli/rescaled_final/1194_rv.mp4	0.0	236.42786979675293	1.0085842609405518
45	212.97318840026855	movie	1		261	43.0	2.5	/experiments/knapen_AOT/AOT_stimuli/rescaled_final/1194_rv.mp4	0.0	237.43645405769348	2.491974353790283
45	213.34709668159485	pulse	1	t		43.0	2.5	/experiments/knapen_AOT/AOT_stimuli/rescaled_final/1194_rv.mp4	0.0	237.81036233901978	
45	214.94847917556763	pulse	1	t		43.0	2.5	/experiments/knapen_AOT/AOT_stimuli/rescaled_final/1194_rv.mp4	0.0	239.41174483299255	
45	215.46516275405884	fix_post	2		12	43.0	2.5	/experiments/knapen_AOT/AOT_stimuli/rescaled_final/1194_rv.mp4	0.0	239.92842841148376	0.10003924369812012
46	215.56520199775696	fix_pre	0		119	44.0	2.5	/experiments/knapen_AOT/AOT_stimuli/rescaled_final/1572_fw.mp4	0.0	240.02846765518188	1.000236988067627
46	216.54886484146118	pulse	0	t		44.0	2.5	/experiments/knapen_AOT/AOT_stimuli/rescaled_final/1572_fw.mp4	0.0	241.0121304988861	
46	216.56543898582458	movie	1		264	44.0	2.5	/experiments/knapen_AOT/AOT_stimuli/rescaled_final/1572_fw.mp4	0.0	241.0287046432495	2.500253200531006
46	218.14885139465332	pulse	1	t		44.0	2.5	/experiments/knapen_AOT/AOT_stimuli/rescaled_final/1572_fw.mp4	0.0	242.61211705207825	
46	219.0656921863556	fix_post	2		12	44.0	2.5	/experiments/knapen_AOT/AOT_stimuli/rescaled_final/1572_fw.mp4	0.0	243.52895784378052	0.10002541542053223
47	219.16571760177612	fix_pre	0		120	45.0	2.5	/experiments/knapen_AOT/AOT_stimuli/rescaled_final/0494_rv.mp4	0.0	243.62898325920105	1.0084929466247559
47	219.7421362400055	pulse	0	t		45.0	2.5	/experiments/knapen_AOT/AOT_stimuli/rescaled_final/0494_rv.mp4	0.0	244.20540189743042	
47	220.17421054840088	movie	1		282	45.0	2.5	/experiments/knapen_AOT/AOT_stimuli/rescaled_final/0494_rv.mp4	0.0	244.6374762058258	2.4923641681671143
47	221.34773683547974	pulse	1	t		45.0	2.5	/experiments/knapen_AOT/AOT_stimuli/rescaled_final/0494_rv.mp4	0.0	245.81100249290466	
47	222.666574716568	fix_post	2		1	45.0	2.5	/experiments/knapen_AOT/AOT_stimuli/rescaled_final/0494_rv.mp4	0.0	247.12984037399292	0.1499943733215332
48	222.81656908988953	fix_pre	0		114	46.0	2.5	/experiments/knapen_AOT/AOT_stimuli/rescaled_final/1190_rv.mp4	0.0	247.27983474731445	0.9581899642944336
48	222.94149947166443	pulse	0	t		46.0	2.5	/experiments/knapen_AOT/AOT_stimuli/rescaled_final/1190_rv.mp4	0.0	247.40476512908936	
48	223.77475905418396	movie	1		271	46.0	2.5	/experiments/knapen_AOT/AOT_stimuli/rescaled_final/1190_rv.mp4	0.0	248.2380247116089	2.492279291152954
48	224.5419580936432	pulse	1	t		46.0	2.5	/experiments/knapen_AOT/AOT_stimuli/rescaled_final/1190_rv.mp4	0.0	249.00522375106812	
48	226.14194917678833	pulse	1	t		46.0	2.5	/experiments/knapen_AOT/AOT_stimuli/rescaled_final/1190_rv.mp4	0.0	250.60521483421326	
48	226.2670383453369	fix_post	2		12	46.0	2.5	/experiments/knapen_AOT/AOT_stimuli/rescaled_final/1190_rv.mp4	0.0	250.73030400276184	0.099761962890625
49	226.36680030822754	fix_pre	0		120	47.0	2.5	blank	1.0	250.83006596565247	1.0001280307769775
49	227.36692833900452	movie	1		300	47.0	2.5	blank	1.0	251.83019399642944	2.5003786087036133
49	227.7421841621399	pulse	1	t		47.0	2.5	blank	1.0	252.20544981956482	
49	229.34246611595154	pulse	1	t		47.0	2.5	blank	1.0	253.80573177337646	
49	229.86730694770813	fix_post	2		12	47.0	2.5	blank	1.0	254.33057260513306	0.10000848770141602
50	229.96731543540955	fix_pre	0		118	48.0	2.5	/experiments/knapen_AOT/AOT_stimuli/rescaled_final/1712_fw.mp4	0.0	254.43058109283447	0.991858959197998
50	230.9426908493042	pulse	0	t		48.0	2.5	/experiments/knapen_AOT/AOT_stimuli/rescaled_final/1712_fw.mp4	0.0	255.40595650672913	
50	230.95917439460754	movie	1		265	48.0	2.5	/experiments/knapen_AOT/AOT_stimuli/rescaled_final/1712_fw.mp4	0.0	255.42244005203247	2.500445604324341
50	232.5422592163086	pulse	1	t		48.0	2.5	/experiments/knapen_AOT/AOT_stimuli/rescaled_final/1712_fw.mp4	0.0	257.0055248737335	
50	233.45961999893188	fix_post	2		12	48.0	2.5	/experiments/knapen_AOT/AOT_stimuli/rescaled_final/1712_fw.mp4	0.0	257.9228856563568	0.10003209114074707
51	233.55965209007263	fix_pre	0		120	49.0	2.5	/experiments/knapen_AOT/AOT_stimuli/rescaled_final/1607_rv.mp4	0.0	258.02291774749756	1.0083699226379395
51	234.14335131645203	pulse	0	t		49.0	2.5	/experiments/knapen_AOT/AOT_stimuli/rescaled_final/1607_rv.mp4	0.0	258.60661697387695	
51	234.56802201271057	movie	1		276	49.0	2.5	/experiments/knapen_AOT/AOT_stimuli/rescaled_final/1607_rv.mp4	0.0	259.0312876701355	2.492190361022949
51	235.74390935897827	pulse	1	t		49.0	2.5	/experiments/knapen_AOT/AOT_stimuli/rescaled_final/1607_rv.mp4	0.0	260.2071750164032	
51	237.06021237373352	fix_post	2		12	49.0	2.5	/experiments/knapen_AOT/AOT_stimuli/rescaled_final/1607_rv.mp4	0.0	261.52347803115845	0.09986662864685059
52	237.16007900238037	fix_pre	0		120	50.0	2.5	/experiments/knapen_AOT/AOT_stimuli/rescaled_final/1927_fw.mp4	0.0	261.6233446598053	1.0088214874267578
52	237.34363961219788	pulse	0	t		50.0	2.5	/experiments/knapen_AOT/AOT_stimuli/rescaled_final/1927_fw.mp4	0.0	261.8069052696228	
52	238.16890048980713	movie	1		279	50.0	2.5	/experiments/knapen_AOT/AOT_stimuli/rescaled_final/1927_fw.mp4	0.0	262.63216614723206	2.4918196201324463
52	238.9431493282318	pulse	1	t		50.0	2.5	/experiments/knapen_AOT/AOT_stimuli/rescaled_final/1927_fw.mp4	0.0	263.40641498565674	
52	240.54225373268127	pulse	1	t		50.0	2.5	/experiments/knapen_AOT/AOT_stimuli/rescaled_final/1927_fw.mp4	0.0	265.0055193901062	
52	240.66072010993958	fix_post	2		12	50.0	2.5	/experiments/knapen_AOT/AOT_stimuli/rescaled_final/1927_fw.mp4	0.0	265.1239857673645	0.10011792182922363
53	240.7608380317688	fix_pre	0		120	51.0	2.5	/experiments/knapen_AOT/AOT_stimuli/rescaled_final/0538_rv.mp4	0.0	265.2241036891937	1.0083746910095215
53	241.76921272277832	movie	1		281	51.0	2.5	/experiments/knapen_AOT/AOT_stimuli/rescaled_final/0538_rv.mp4	0.0	266.23247838020325	2.492000102996826
53	242.14271354675293	pulse	1	t		51.0	2.5	/experiments/knapen_AOT/AOT_stimuli/rescaled_final/0538_rv.mp4	0.0	266.60597920417786	
53	243.74685668945312	pulse	1	t		51.0	2.5	/experiments/knapen_AOT/AOT_stimuli/rescaled_final/0538_rv.mp4	0.0	268.21012234687805	
53	244.26121282577515	fix_post	2		12	51.0	2.5	/experiments/knapen_AOT/AOT_stimuli/rescaled_final/0538_rv.mp4	0.0	268.7244784832001	0.0999445915222168
54	244.36115741729736	fix_pre	0		119	52.0	2.5	/experiments/knapen_AOT/AOT_stimuli/rescaled_final/1110_rv.mp4	0.0	268.8244230747223	1.0002329349517822
54	245.3448565006256	pulse	0	t		52.0	2.5	/experiments/knapen_AOT/AOT_stimuli/rescaled_final/1110_rv.mp4	0.0	269.80812215805054	
54	245.36139035224915	movie	1		278	52.0	2.5	/experiments/knapen_AOT/AOT_stimuli/rescaled_final/1110_rv.mp4	0.0	269.8246560096741	2.5006279945373535
54	246.94344544410706	pulse	1	t		52.0	2.5	/experiments/knapen_AOT/AOT_stimuli/rescaled_final/1110_rv.mp4	0.0	271.406711101532	
54	247.8620183467865	fix_post	2		12	52.0	2.5	/experiments/knapen_AOT/AOT_stimuli/rescaled_final/1110_rv.mp4	0.0	272.3252840042114	0.09987592697143555
55	247.96189427375793	fix_pre	0		120	53.0	2.5	/experiments/knapen_AOT/AOT_stimuli/rescaled_final/0544_rv.mp4	0.0	272.42515993118286	1.0082900524139404
55	248.54535698890686	pulse	0	t		53.0	2.5	/experiments/knapen_AOT/AOT_stimuli/rescaled_final/0544_rv.mp4	0.0	273.0086226463318	
55	248.97018432617188	movie	1		283	53.0	2.5	/experiments/knapen_AOT/AOT_stimuli/rescaled_final/0544_rv.mp4	0.0	273.4334499835968	2.4920284748077393
55	250.14407753944397	pulse	1	t		53.0	2.5	/experiments/knapen_AOT/AOT_stimuli/rescaled_final/0544_rv.mp4	0.0	274.6073431968689	
55	251.46221280097961	fix_post	2		12	53.0	2.5	/experiments/knapen_AOT/AOT_stimuli/rescaled_final/0544_rv.mp4	0.0	275.92547845840454	0.10003876686096191
56	251.56225156784058	fix_pre	0		120	54.0	2.5	/experiments/knapen_AOT/AOT_stimuli/rescaled_final/0451_rv.mp4	0.0	276.0255172252655	1.0085034370422363
56	251.7458634376526	pulse	0	t		54.0	2.5	/experiments/knapen_AOT/AOT_stimuli/rescaled_final/0451_rv.mp4	0.0	276.2091290950775	
56	252.5707550048828	movie	1		281	54.0	2.5	/experiments/knapen_AOT/AOT_stimuli/rescaled_final/0451_rv.mp4	0.0	277.03402066230774	2.4922780990600586
56	253.34407258033752	pulse	1	t		54.0	2.5	/experiments/knapen_AOT/AOT_stimuli/rescaled_final/0451_rv.mp4	0.0	277.80733823776245	
56	254.94429993629456	pulse	1	t		54.0	2.5	/experiments/knapen_AOT/AOT_stimuli/rescaled_final/0451_rv.mp4	0.0	279.4075655937195	
56	255.06303310394287	fix_post	2		12	54.0	2.5	/experiments/knapen_AOT/AOT_stimuli/rescaled_final/0451_rv.mp4	0.0	279.5262987613678	0.09979772567749023
57	255.16283082962036	fix_pre	0		120	55.0	2.5	blank	1.0	279.6260964870453	1.0001308917999268
57	256.1629617214203	movie	1		300	55.0	2.5	blank	1.0	280.6262273788452	2.50034499168396
57	256.5465176105499	pulse	1	t		55.0	2.5	blank	1.0	281.00978326797485	
57	258.14675307273865	pulse	1	t		55.0	2.5	blank	1.0	282.6100187301636	
57	258.66330671310425	fix_post	2		12	55.0	2.5	blank	1.0	283.1265723705292	0.10010600090026855
58	258.7634127140045	fix_pre	0		119	56.0	2.5	/experiments/knapen_AOT/AOT_stimuli/rescaled_final/1955_fw.mp4	0.0	283.22667837142944	1.0000839233398438
58	259.74715518951416	pulse	0	t		56.0	2.5	/experiments/knapen_AOT/AOT_stimuli/rescaled_final/1955_fw.mp4	0.0	284.2104208469391	
58	259.76349663734436	movie	1		257	56.0	2.5	/experiments/knapen_AOT/AOT_stimuli/rescaled_final/1955_fw.mp4	0.0	284.2267622947693	2.500572443008423
58	261.3454611301422	pulse	1	t		56.0	2.5	/experiments/knapen_AOT/AOT_stimuli/rescaled_final/1955_fw.mp4	0.0	285.80872678756714	
58	262.2640690803528	fix_post	2		12	56.0	2.5	/experiments/knapen_AOT/AOT_stimuli/rescaled_final/1955_fw.mp4	0.0	286.7273347377777	0.09982037544250488
59	262.3638894557953	fix_pre	0		120	57.0	2.5	/experiments/knapen_AOT/AOT_stimuli/rescaled_final/1845_rv.mp4	0.0	286.8271551132202	1.0084993839263916
59	262.9475522041321	pulse	0	t		57.0	2.5	/experiments/knapen_AOT/AOT_stimuli/rescaled_final/1845_rv.mp4	0.0	287.410817861557	
59	263.3723888397217	movie	1		272	57.0	2.5	/experiments/knapen_AOT/AOT_stimuli/rescaled_final/1845_rv.mp4	0.0	287.8356544971466	2.4921815395355225
59	264.5479438304901	pulse	1	t		57.0	2.5	/experiments/knapen_AOT/AOT_stimuli/rescaled_final/1845_rv.mp4	0.0	289.01120948791504	
59	265.8645703792572	fix_post	2		12	57.0	2.5	/experiments/knapen_AOT/AOT_stimuli/rescaled_final/1845_rv.mp4	0.0	290.32783603668213	0.09984111785888672
60	265.9644114971161	fix_pre	0		120	58.0	2.5	/experiments/knapen_AOT/AOT_stimuli/rescaled_final/0902_fw.mp4	0.0	290.427677154541	1.0086171627044678
60	266.148069858551	pulse	0	t		58.0	2.5	/experiments/knapen_AOT/AOT_stimuli/rescaled_final/0902_fw.mp4	0.0	290.61133551597595	
60	266.97302865982056	movie	1		280	58.0	2.5	/experiments/knapen_AOT/AOT_stimuli/rescaled_final/0902_fw.mp4	0.0	291.4362943172455	2.4919042587280273
60	267.74640917778015	pulse	1	t		58.0	2.5	/experiments/knapen_AOT/AOT_stimuli/rescaled_final/0902_fw.mp4	0.0	292.2096748352051	
60	269.34656381607056	pulse	1	t		58.0	2.5	/experiments/knapen_AOT/AOT_stimuli/rescaled_final/0902_fw.mp4	0.0	293.8098294734955	
60	269.4649329185486	fix_post	2		12	58.0	2.5	/experiments/knapen_AOT/AOT_stimuli/rescaled_final/0902_fw.mp4	0.0	293.9281985759735	0.1000068187713623
61	269.56493973731995	fix_pre	0		120	59.0	2.5	/experiments/knapen_AOT/AOT_stimuli/rescaled_final/2080_rv.mp4	0.0	294.0282053947449	1.0085647106170654
61	270.573504447937	movie	1		271	59.0	2.5	/experiments/knapen_AOT/AOT_stimuli/rescaled_final/2080_rv.mp4	0.0	295.03677010536194	2.491969108581543
61	270.9466714859009	pulse	1	t		59.0	2.5	/experiments/knapen_AOT/AOT_stimuli/rescaled_final/2080_rv.mp4	0.0	295.4099371433258	
61	272.54704093933105	pulse	1	t		59.0	2.5	/experiments/knapen_AOT/AOT_stimuli/rescaled_final/2080_rv.mp4	0.0	297.010306596756	
61	273.06547355651855	fix_post	2		12	59.0	2.5	/experiments/knapen_AOT/AOT_stimuli/rescaled_final/2080_rv.mp4	0.0	297.5287392139435	0.1000359058380127
62	273.16550946235657	fix_pre	0		118	60.0	2.5	/experiments/knapen_AOT/AOT_stimuli/rescaled_final/1234_rv.mp4	0.0	297.6287751197815	0.9918880462646484
62	274.14130330085754	pulse	0	t		60.0	2.5	/experiments/knapen_AOT/AOT_stimuli/rescaled_final/1234_rv.mp4	0.0	298.60456895828247	
62	274.1573975086212	movie	1		272	60.0	2.5	/experiments/knapen_AOT/AOT_stimuli/rescaled_final/1234_rv.mp4	0.0	298.62066316604614	2.5004467964172363
62	275.7412087917328	pulse	1	t		60.0	2.5	/experiments/knapen_AOT/AOT_stimuli/rescaled_final/1234_rv.mp4	0.0	300.2044744491577	
62	276.65784430503845	fix_post	2		12	60.0	2.5	/experiments/knapen_AOT/AOT_stimuli/rescaled_final/1234_rv.mp4	0.0	301.1211099624634	0.0998692512512207
63	276.7577135562897	fix_pre	0		120	61.0	2.5	blank	1.0	301.2209792137146	1.0001640319824219
63	277.34134554862976	pulse	0	t		61.0	2.5	blank	1.0	301.8046112060547	
63	277.7578775882721	movie	1		300	61.0	2.5	blank	1.0	302.221143245697	2.5003602504730225
63	278.94187235832214	pulse	1	t		61.0	2.5	blank	1.0	303.40513801574707	
63	280.2582378387451	fix_post	2		12	61.0	2.5	blank	1.0	304.72150349617004	0.10013246536254883
64	280.35837030410767	fix_pre	0		120	62.0	2.5	/experiments/knapen_AOT/AOT_stimuli/rescaled_final/0027_rv.mp4	0.0	304.8216359615326	1.0083701610565186
64	280.54189133644104	pulse	0	t		62.0	2.5	/experiments/knapen_AOT/AOT_stimuli/rescaled_final/0027_rv.mp4	0.0	305.00515699386597	
64	281.3667404651642	movie	1		272	62.0	2.5	/experiments/knapen_AOT/AOT_stimuli/rescaled_final/0027_rv.mp4	0.0	305.8300061225891	2.4921507835388184
64	282.14246582984924	pulse	1	t		62.0	2.5	/experiments/knapen_AOT/AOT_stimuli/rescaled_final/0027_rv.mp4	0.0	306.60573148727417	
64	283.74228835105896	pulse	1	t		62.0	2.5	/experiments/knapen_AOT/AOT_stimuli/rescaled_final/0027_rv.mp4	0.0	308.2055540084839	
64	283.858891248703	fix_post	2		12	62.0	2.5	/experiments/knapen_AOT/AOT_stimuli/rescaled_final/0027_rv.mp4	0.0	308.32215690612793	0.10003471374511719
65	283.9589259624481	fix_pre	0		120	63.0	2.5	/experiments/knapen_AOT/AOT_stimuli/rescaled_final/1890_fw.mp4	0.0	308.42219161987305	1.008488416671753
65	284.9674143791199	movie	1		280	63.0	2.5	/experiments/knapen_AOT/AOT_stimuli/rescaled_final/1890_fw.mp4	0.0	309.4306800365448	2.492058277130127
65	285.3424940109253	pulse	1	t		63.0	2.5	/experiments/knapen_AOT/AOT_stimuli/rescaled_final/1890_fw.mp4	0.0	309.8057596683502	
65	286.94284558296204	pulse	1	t		63.0	2.5	/experiments/knapen_AOT/AOT_stimuli/rescaled_final/1890_fw.mp4	0.0	311.40611124038696	
65	287.45947265625	fix_post	2		12	63.0	2.5	/experiments/knapen_AOT/AOT_stimuli/rescaled_final/1890_fw.mp4	0.0	311.9227383136749	0.09987759590148926
66	287.5593502521515	fix_pre	0		119	64.0	2.5	/experiments/knapen_AOT/AOT_stimuli/rescaled_final/0761_fw.mp4	0.0	312.0226159095764	1.0087544918060303
66	288.5431799888611	pulse	0	t		64.0	2.5	/experiments/knapen_AOT/AOT_stimuli/rescaled_final/0761_fw.mp4	0.0	313.006445646286	
66	288.5681047439575	movie	1		267	64.0	2.5	/experiments/knapen_AOT/AOT_stimuli/rescaled_final/0761_fw.mp4	0.0	313.03137040138245	2.4917514324188232
66	290.14232659339905	pulse	1	t		64.0	2.5	/experiments/knapen_AOT/AOT_stimuli/rescaled_final/0761_fw.mp4	0.0	314.605592250824	
66	291.05985617637634	fix_post	2		12	64.0	2.5	/experiments/knapen_AOT/AOT_stimuli/rescaled_final/0761_fw.mp4	0.0	315.52312183380127	0.10002350807189941
67	291.15987968444824	fix_pre	0		120	65.0	2.5	/experiments/knapen_AOT/AOT_stimuli/rescaled_final/0547_fw.mp4	0.0	315.62314534187317	1.0085523128509521
67	291.7434825897217	pulse	0	t		65.0	2.5	/experiments/knapen_AOT/AOT_stimuli/rescaled_final/0547_fw.mp4	0.0	316.2067482471466	
67	292.1684319972992	movie	1		288	65.0	2.5	/experiments/knapen_AOT/AOT_stimuli/rescaled_final/0547_fw.mp4	0.0	316.6316976547241	2.4919865131378174
67	293.3439190387726	pulse	1	t		65.0	2.5	/experiments/knapen_AOT/AOT_stimuli/rescaled_final/0547_fw.mp4	0.0	317.8071846961975	
67	294.660418510437	fix_post	2		12	65.0	2.5	/experiments/knapen_AOT/AOT_stimuli/rescaled_final/0547_fw.mp4	0.0	319.12368416786194	0.10002541542053223
68	294.76044392585754	fix_pre	0		120	66.0	2.5	/experiments/knapen_AOT/AOT_stimuli/rescaled_final/0581_fw.mp4	0.0	319.22370958328247	1.0085678100585938
68	294.9439923763275	pulse	0	t		66.0	2.5	/experiments/knapen_AOT/AOT_stimuli/rescaled_final/0581_fw.mp4	0.0	319.40725803375244	
68	295.76901173591614	movie	1		260	66.0	2.5	/experiments/knapen_AOT/AOT_stimuli/rescaled_final/0581_fw.mp4	0.0	320.23227739334106	2.4920780658721924
68	296.5425832271576	pulse	1	t		66.0	2.5	/experiments/knapen_AOT/AOT_stimuli/rescaled_final/0581_fw.mp4	0.0	321.0058488845825	
68	298.14311623573303	pulse	1	t		66.0	2.5	/experiments/knapen_AOT/AOT_stimuli/rescaled_final/0581_fw.mp4	0.0	322.60638189315796	
68	298.26108980178833	fix_post	2		12	66.0	2.5	/experiments/knapen_AOT/AOT_stimuli/rescaled_final/0581_fw.mp4	0.0	322.72435545921326	0.09988188743591309
69	298.36097168922424	fix_pre	0		120	67.0	2.5	/experiments/knapen_AOT/AOT_stimuli/rescaled_final/1901_rv.mp4	0.0	322.82423734664917	1.0087406635284424
69	299.3697123527527	movie	1		268	67.0	2.5	/experiments/knapen_AOT/AOT_stimuli/rescaled_final/1901_rv.mp4	0.0	323.8329780101776	2.491795539855957
69	299.7429630756378	pulse	1	t		67.0	2.5	/experiments/knapen_AOT/AOT_stimuli/rescaled_final/1901_rv.mp4	0.0	324.20622873306274	
69	301.34301471710205	pulse	1	t		67.0	2.5	/experiments/knapen_AOT/AOT_stimuli/rescaled_final/1901_rv.mp4	0.0	325.806280374527	
69	301.86150789260864	fix_post	2		12	67.0	2.5	/experiments/knapen_AOT/AOT_stimuli/rescaled_final/1901_rv.mp4	0.0	326.32477355003357	0.0999913215637207
70	301.96149921417236	fix_pre	0		119	68.0	2.5	/experiments/knapen_AOT/AOT_stimuli/rescaled_final/1390_rv.mp4	0.0	326.4247648715973	1.0001945495605469
70	302.9454302787781	pulse	0	t		68.0	2.5	/experiments/knapen_AOT/AOT_stimuli/rescaled_final/1390_rv.mp4	0.0	327.408695936203	
70	302.9616937637329	movie	1		273	68.0	2.5	/experiments/knapen_AOT/AOT_stimuli/rescaled_final/1390_rv.mp4	0.0	327.42495942115784	2.5004310607910156
70	304.54391622543335	pulse	1	t		68.0	2.5	/experiments/knapen_AOT/AOT_stimuli/rescaled_final/1390_rv.mp4	0.0	329.0071818828583	
70	305.4621248245239	fix_post	2		12	68.0	2.5	/experiments/knapen_AOT/AOT_stimuli/rescaled_final/1390_rv.mp4	0.0	329.92539048194885	0.09992527961730957
71	305.56205010414124	fix_pre	0		120	69.0	2.5	/experiments/knapen_AOT/AOT_stimuli/rescaled_final/1824_rv.mp4	0.0	330.02531576156616	1.0085136890411377
71	306.14563393592834	pulse	0	t		69.0	2.5	/experiments/knapen_AOT/AOT_stimuli/rescaled_final/1824_rv.mp4	0.0	330.60889959335327	
71	306.5705637931824	movie	1		279	69.0	2.5	/experiments/knapen_AOT/AOT_stimuli/rescaled_final/1824_rv.mp4	0.0	331.0338294506073	2.4922001361846924
71	307.7463562488556	pulse	1	t		69.0	2.5	/experiments/knapen_AOT/AOT_stimuli/rescaled_final/1824_rv.mp4	0.0	332.2096219062805	
71	309.06276392936707	fix_post	2		11	69.0	2.5	/experiments/knapen_AOT/AOT_stimuli/rescaled_final/1824_rv.mp4	0.0	333.526029586792	0.09991621971130371
72	309.16268014907837	fix_pre	0		120	70.0	2.5	blank	1.0	333.6259458065033	1.0000522136688232
72	309.3461720943451	pulse	0	t		70.0	2.5	blank	1.0	333.80943775177	
72	310.1627323627472	movie	1		300	70.0	2.5	blank	1.0	334.6259980201721	2.500373125076294
72	310.9463515281677	pulse	1	t		70.0	2.5	blank	1.0	335.40961718559265	
72	312.54670238494873	pulse	1	t		70.0	2.5	blank	1.0	337.00996804237366	
72	312.6631054878235	fix_post	2		12	70.0	2.5	blank	1.0	337.1263711452484	0.10007286071777344
73	312.76317834854126	fix_pre	0		120	71.0	2.5	/experiments/knapen_AOT/AOT_stimuli/rescaled_final/2136_rv.mp4	0.0	337.2264440059662	1.008427381515503
73	313.77160573005676	movie	1		275	71.0	2.5	/experiments/knapen_AOT/AOT_stimuli/rescaled_final/2136_rv.mp4	0.0	338.2348713874817	2.492156744003296
73	314.1459753513336	pulse	1	t		71.0	2.5	/experiments/knapen_AOT/AOT_stimuli/rescaled_final/2136_rv.mp4	0.0	338.60924100875854	
73	315.7454082965851	pulse	1	t		71.0	2.5	/experiments/knapen_AOT/AOT_stimuli/rescaled_final/2136_rv.mp4	0.0	340.20867395401	
73	316.26376247406006	fix_post	2		12	71.0	2.5	/experiments/knapen_AOT/AOT_stimuli/rescaled_final/2136_rv.mp4	0.0	340.727028131485	0.09992218017578125
74	316.36368465423584	fix_pre	0		119	72.0	2.5	/experiments/knapen_AOT/AOT_stimuli/rescaled_final/0421_fw.mp4	0.0	340.82695031166077	1.0087251663208008
74	317.3474450111389	pulse	0	t		72.0	2.5	/experiments/knapen_AOT/AOT_stimuli/rescaled_final/0421_fw.mp4	0.0	341.81071066856384	
74	317.37240982055664	movie	1		272	72.0	2.5	/experiments/knapen_AOT/AOT_stimuli/rescaled_final/0421_fw.mp4	0.0	341.83567547798157	2.4921836853027344
74	318.9463210105896	pulse	1	t		72.0	2.5	/experiments/knapen_AOT/AOT_stimuli/rescaled_final/0421_fw.mp4	0.0	343.4095866680145	
74	319.8645935058594	fix_post	2		12	72.0	2.5	/experiments/knapen_AOT/AOT_stimuli/rescaled_final/0421_fw.mp4	0.0	344.3278591632843	0.09995436668395996
75	319.96454787254333	fix_pre	0		120	73.0	2.5	/experiments/knapen_AOT/AOT_stimuli/rescaled_final/1712_rv.mp4	0.0	344.42781352996826	1.0081334114074707
75	320.5479357242584	pulse	0	t		73.0	2.5	/experiments/knapen_AOT/AOT_stimuli/rescaled_final/1712_rv.mp4	0.0	345.01120138168335	
75	320.9726812839508	movie	1		278	73.0	2.5	/experiments/knapen_AOT/AOT_stimuli/rescaled_final/1712_rv.mp4	0.0	345.43594694137573	2.4922590255737305
75	322.1459619998932	pulse	1	t		73.0	2.5	/experiments/knapen_AOT/AOT_stimuli/rescaled_final/1712_rv.mp4	0.0	346.6092276573181	
75	323.46494030952454	fix_post	2		12	73.0	2.5	/experiments/knapen_AOT/AOT_stimuli/rescaled_final/1712_rv.mp4	0.0	347.92820596694946	0.09995675086975098
76	323.5648970603943	fix_pre	0		120	74.0	2.5	/experiments/knapen_AOT/AOT_stimuli/rescaled_final/0274_fw.mp4	0.0	348.0281627178192	1.0083470344543457
76	323.74835109710693	pulse	0	t		74.0	2.5	/experiments/knapen_AOT/AOT_stimuli/rescaled_final/0274_fw.mp4	0.0	348.21161675453186	
76	324.57324409484863	movie	1		276	74.0	2.5	/experiments/knapen_AOT/AOT_stimuli/rescaled_final/0274_fw.mp4	0.0	349.03650975227356	2.492116928100586
76	325.3463578224182	pulse	1	t		74.0	2.5	/experiments/knapen_AOT/AOT_stimuli/rescaled_final/0274_fw.mp4	0.0	349.80962347984314	
76	326.9466972351074	pulse	1	t		74.0	2.5	/experiments/knapen_AOT/AOT_stimuli/rescaled_final/0274_fw.mp4	0.0	351.40996289253235	
76	327.0653610229492	fix_post	2		12	74.0	2.5	/experiments/knapen_AOT/AOT_stimuli/rescaled_final/0274_fw.mp4	0.0	351.52862668037415	0.09990310668945312
77	327.1652641296387	fix_pre	0		120	75.0	2.5	/experiments/knapen_AOT/AOT_stimuli/rescaled_final/1761_fw.mp4	0.0	351.6285297870636	1.0085868835449219
77	328.1738510131836	movie	1		280	75.0	2.5	/experiments/knapen_AOT/AOT_stimuli/rescaled_final/1761_fw.mp4	0.0	352.6371166706085	2.492424249649048
77	328.5494363307953	pulse	1	t		75.0	2.5	/experiments/knapen_AOT/AOT_stimuli/rescaled_final/1761_fw.mp4	0.0	353.0127019882202	
77	330.14762020111084	pulse	1	t		75.0	2.5	/experiments/knapen_AOT/AOT_stimuli/rescaled_final/1761_fw.mp4	0.0	354.61088585853577	
77	330.66627526283264	fix_post	2		12	75.0	2.5	/experiments/knapen_AOT/AOT_stimuli/rescaled_final/1761_fw.mp4	0.0	355.12954092025757	0.09962606430053711
78	330.7659013271332	fix_pre	0		119	76.0	2.5	blank	1.0	355.2291669845581	0.9917416572570801
78	331.7431204319	pulse	0	t		76.0	2.5	blank	1.0	356.20638608932495	
78	331.75764298439026	movie	1		300	76.0	2.5	blank	1.0	356.2209086418152	2.508704900741577
78	333.3415594100952	pulse	1	t		76.0	2.5	blank	1.0	357.80482506752014	
78	334.26634788513184	fix_post	2		12	76.0	2.5	blank	1.0	358.72961354255676	0.10002398490905762
79	334.3663718700409	fix_pre	0		120	77.0	2.5	/experiments/knapen_AOT/AOT_stimuli/rescaled_final/1105_rv.mp4	0.0	358.8296375274658	1.0085461139678955
79	334.94166254997253	pulse	0	t		77.0	2.5	/experiments/knapen_AOT/AOT_stimuli/rescaled_final/1105_rv.mp4	0.0	359.40492820739746	
79	335.3749179840088	movie	1		276	77.0	2.5	/experiments/knapen_AOT/AOT_stimuli/rescaled_final/1105_rv.mp4	0.0	359.8381836414337	2.492021322250366
79	336.54193568229675	pulse	1	t		77.0	2.5	/experiments/knapen_AOT/AOT_stimuli/rescaled_final/1105_rv.mp4	0.0	361.0052013397217	
79	337.86693930625916	fix_post	2		12	77.0	2.5	/experiments/knapen_AOT/AOT_stimuli/rescaled_final/1105_rv.mp4	0.0	362.3302049636841	0.10010719299316406
80	337.9670464992523	fix_pre	0		120	78.0	2.5	/experiments/knapen_AOT/AOT_stimuli/rescaled_final/0744_fw.mp4	0.0	362.43031215667725	1.008368968963623
80	338.1422703266144	pulse	0	t		78.0	2.5	/experiments/knapen_AOT/AOT_stimuli/rescaled_final/0744_fw.mp4	0.0	362.6055359840393	
80	338.97541546821594	movie	1		264	78.0	2.5	/experiments/knapen_AOT/AOT_stimuli/rescaled_final/0744_fw.mp4	0.0	363.43868112564087	2.4920191764831543
80	339.74294257164	pulse	1	t		78.0	2.5	/experiments/knapen_AOT/AOT_stimuli/rescaled_final/0744_fw.mp4	0.0	364.20620822906494	
80	341.3426215648651	pulse	1	t		78.0	2.5	/experiments/knapen_AOT/AOT_stimuli/rescaled_final/0744_fw.mp4	0.0	365.80588722229004	
80	341.4674346446991	fix_post	2		12	78.0	2.5	/experiments/knapen_AOT/AOT_stimuli/rescaled_final/0744_fw.mp4	0.0	365.930700302124	0.10002303123474121
81	341.56745767593384	fix_pre	0		120	79.0	2.5	/experiments/knapen_AOT/AOT_stimuli/rescaled_final/1150_rv.mp4	0.0	366.03072333335876	1.0086827278137207
81	342.57614040374756	movie	1		262	79.0	2.5	/experiments/knapen_AOT/AOT_stimuli/rescaled_final/1150_rv.mp4	0.0	367.0394060611725	2.492177963256836
81	342.9433100223541	pulse	1	t		79.0	2.5	/experiments/knapen_AOT/AOT_stimuli/rescaled_final/1150_rv.mp4	0.0	367.40657567977905	
81	344.54191970825195	pulse	1	t		79.0	2.5	/experiments/knapen_AOT/AOT_stimuli/rescaled_final/1150_rv.mp4	0.0	369.0051853656769	
81	345.0683183670044	fix_post	2		12	79.0	2.5	/experiments/knapen_AOT/AOT_stimuli/rescaled_final/1150_rv.mp4	0.0	369.5315840244293	0.09971761703491211
82	345.1680359840393	fix_pre	0		118	80.0	2.5	/experiments/knapen_AOT/AOT_stimuli/rescaled_final/1584_rv.mp4	0.0	369.63130164146423	0.9918472766876221
82	346.1433608531952	pulse	0	t		80.0	2.5	/experiments/knapen_AOT/AOT_stimuli/rescaled_final/1584_rv.mp4	0.0	370.6066265106201	
82	346.15988326072693	movie	1		259	80.0	2.5	/experiments/knapen_AOT/AOT_stimuli/rescaled_final/1584_rv.mp4	0.0	370.62314891815186	2.5005531311035156
82	347.7423062324524	pulse	1	t		80.0	2.5	/experiments/knapen_AOT/AOT_stimuli/rescaled_final/1584_rv.mp4	0.0	372.2055718898773	
82	348.66043639183044	fix_post	2		12	80.0	2.5	/experiments/knapen_AOT/AOT_stimuli/rescaled_final/1584_rv.mp4	0.0	373.12370204925537	0.09995889663696289
83	348.7603952884674	fix_pre	0		120	81.0	2.5	/experiments/knapen_AOT/AOT_stimuli/rescaled_final/1183_rv.mp4	0.0	373.22366094589233	1.0084178447723389
83	349.34395837783813	pulse	0	t		81.0	2.5	/experiments/knapen_AOT/AOT_stimuli/rescaled_final/1183_rv.mp4	0.0	373.80722403526306	
83	349.76881313323975	movie	1		271	81.0	2.5	/experiments/knapen_AOT/AOT_stimuli/rescaled_final/1183_rv.mp4	0.0	374.2320787906647	2.4919071197509766
83	350.9422345161438	pulse	1	t		81.0	2.5	/experiments/knapen_AOT/AOT_stimuli/rescaled_final/1183_rv.mp4	0.0	375.4055001735687	
83	352.2607202529907	fix_post	2		12	81.0	2.5	/experiments/knapen_AOT/AOT_stimuli/rescaled_final/1183_rv.mp4	0.0	376.72398591041565	0.10002899169921875
84	352.36074924468994	fix_pre	0		120	82.0	2.5	/experiments/knapen_AOT/AOT_stimuli/rescaled_final/0423_fw.mp4	0.0	376.82401490211487	1.0085341930389404
84	352.5443480014801	pulse	0	t		82.0	2.5	/experiments/knapen_AOT/AOT_stimuli/rescaled_final/0423_fw.mp4	0.0	377.00761365890503	
84	353.3692834377289	movie	1		267	82.0	2.5	/experiments/knapen_AOT/AOT_stimuli/rescaled_final/0423_fw.mp4	0.0	377.8325490951538	2.492248773574829
84	354.1427159309387	pulse	1	t		82.0	2.5	/experiments/knapen_AOT/AOT_stimuli/rescaled_final/0423_fw.mp4	0.0	378.60598158836365	
84	355.7429277896881	pulse	1	t		82.0	2.5	/experiments/knapen_AOT/AOT_stimuli/rescaled_final/0423_fw.mp4	0.0	380.20619344711304	
84	355.8615322113037	fix_post	2		12	82.0	2.5	/experiments/knapen_AOT/AOT_stimuli/rescaled_final/0423_fw.mp4	0.0	380.32479786872864	0.099761962890625
85	355.96129417419434	fix_pre	0		120	83.0	2.5	blank	1.0	380.42455983161926	1.000152826309204
85	356.96144700050354	movie	1		300	83.0	2.5	blank	1.0	381.42471265792847	2.5003767013549805
85	357.34504199028015	pulse	1	t		83.0	2.5	blank	1.0	381.8083076477051	
85	358.9452781677246	pulse	1	t		83.0	2.5	blank	1.0	383.40854382514954	
85	359.4618237018585	fix_post	2		12	83.0	2.5	blank	1.0	383.92508935928345	0.1083676815032959
87	359.5701913833618	stim	0		1714					384.03345704078674	14.285487651824951
87	360.5457170009613	pulse	0	t						385.00898265838623	
87	362.1457452774048	pulse	0	t						386.6090109348297	
87	363.7460792064667	pulse	0	t						388.2093448638916	
87	365.3462886810303	pulse	0	t						389.8095543384552	
87	366.9466028213501	pulse	0	t						391.409868478775	
87	368.54672145843506	pulse	0	t						393.00998711586	
87	370.1469295024872	pulse	0	t						394.6101951599121	
87	371.7472631931305	pulse	0	t						396.2105288505554	
87	373.34748339653015	pulse	0	t						397.8107490539551	
