trial_nr	onset	event_type	phase	response	nr_frames	movie_index	movie_duration	movie_file	blank	onset_abs	duration
0	0.15875911712646484	stim	0		173					20.03203296661377	1.4411208629608154
0	1.5918231010437012	response	0	space						21.465096950531006	
1	1.5998799800872803	stim	0		4598					21.473153829574585	38.316601037979126
1	39.912718057632446	pulse	0	t						59.78599190711975	
1	39.916481018066406	stim	1		1717					59.78975486755371	14.308221101760864
1	41.508105993270874	pulse	1	t						61.38137984275818	
1	43.10823607444763	pulse	1	t						62.98150992393494	
1	44.708253145217896	pulse	1	t						64.5815269947052	
1	46.30822420120239	pulse	1	t						66.1814980506897	
1	47.90820813179016	pulse	1	t						67.78148198127747	
1	49.508131980895996	pulse	1	t						69.3814058303833	
1	51.108166217803955	pulse	1	t						70.98144006729126	
1	52.70807909965515	pulse	1	t						72.58135294914246	
2	54.22470211982727	fix_pre	0		11	0.0	2.5	/experiments/aot/R_S_yt-zh2yLr-o_8A_953.mp4	0.0	74.09797596931458	0.09169888496398926
2	54.30818700790405	pulse	0	t		0.0	2.5	/experiments/aot/R_S_yt-zh2yLr-o_8A_953.mp4	0.0	74.18146085739136	
2	54.31640100479126	movie	1		300	0.0	2.5	/experiments/aot/R_S_yt-zh2yLr-o_8A_953.mp4	0.0	74.18967485427856	2.508329153060913
2	55.90824604034424	pulse	1	t		0.0	2.5	/experiments/aot/R_S_yt-zh2yLr-o_8A_953.mp4	0.0	75.78151988983154	
2	56.82473015785217	fix_post	2		12	0.0	2.5	/experiments/aot/R_S_yt-zh2yLr-o_8A_953.mp4	0.0	76.69800400733948	0.09959602355957031
3	56.92432618141174	fix_pre	0		120	1.0	2.5	/experiments/aot/S_yt-pO5SVq-9EhU_114.mp4	0.0	76.79760003089905	1.0000648498535156
3	57.50807499885559	pulse	0	t		1.0	2.5	/experiments/aot/S_yt-pO5SVq-9EhU_114.mp4	0.0	77.3813488483429	
3	57.92439103126526	movie	1		300	1.0	2.5	/experiments/aot/S_yt-pO5SVq-9EhU_114.mp4	0.0	77.79766488075256	2.5002970695495605
3	59.10822010040283	pulse	1	t		1.0	2.5	/experiments/aot/S_yt-pO5SVq-9EhU_114.mp4	0.0	78.98149394989014	
3	60.42468810081482	fix_post	2		12	1.0	2.5	/experiments/aot/S_yt-pO5SVq-9EhU_114.mp4	0.0	80.29796195030212	0.10000300407409668
4	60.524691104888916	fix_pre	0		120	2.0	2.5	/experiments/aot/R_S_yt-3E02UEHdoZ4_752.mp4	0.0	80.39796495437622	1.0000159740447998
4	60.708152055740356	pulse	0	t		2.0	2.5	/experiments/aot/R_S_yt-3E02UEHdoZ4_752.mp4	0.0	80.58142590522766	
4	61.524707078933716	movie	1		298	2.0	2.5	/experiments/aot/R_S_yt-3E02UEHdoZ4_752.mp4	0.0	81.39798092842102	2.499998092651367
4	62.30817103385925	pulse	1	t		2.0	2.5	/experiments/aot/R_S_yt-3E02UEHdoZ4_752.mp4	0.0	82.18144488334656	
4	63.90820598602295	pulse	1	t		2.0	2.5	/experiments/aot/R_S_yt-3E02UEHdoZ4_752.mp4	0.0	83.78147983551025	
4	64.02470517158508	fix_post	2		12	2.0	2.5	/experiments/aot/R_S_yt-3E02UEHdoZ4_752.mp4	0.0	83.89797902107239	0.0999138355255127
5	64.1246190071106	fix_pre	0		120	3.0	2.5	/experiments/aot/S_pexels-laker-5793000.mp4	0.0	83.9978928565979	0.9996440410614014
5	65.124263048172	movie	1		161	3.0	2.5	/experiments/aot/S_pexels-laker-5793000.mp4	0.0	84.9975368976593	2.5004069805145264
5	65.50829911231995	pulse	1	t		3.0	2.5	/experiments/aot/S_pexels-laker-5793000.mp4	0.0	85.38157296180725	
5	67.10814499855042	pulse	1	t		3.0	2.5	/experiments/aot/S_pexels-laker-5793000.mp4	0.0	86.98141884803772	
5	67.62467002868652	fix_post	2		12	3.0	2.5	/experiments/aot/S_pexels-laker-5793000.mp4	0.0	87.49794387817383	0.10005402565002441
6	67.72472405433655	fix_pre	0		119	4.0	2.5	/experiments/aot/S_pexels-vlada-karpovich-8044792.mp4	0.0	87.59799790382385	0.9915189743041992
6	68.70813608169556	pulse	0	t		4.0	2.5	/experiments/aot/S_pexels-vlada-karpovich-8044792.mp4	0.0	88.58140993118286	
6	68.71624302864075	movie	1		163	4.0	2.5	/experiments/aot/S_pexels-vlada-karpovich-8044792.mp4	0.0	88.58951687812805	2.508455991744995
6	70.30992007255554	pulse	1	t		4.0	2.5	/experiments/aot/S_pexels-vlada-karpovich-8044792.mp4	0.0	90.18319392204285	
6	71.22469902038574	fix_post	2		12	4.0	2.5	/experiments/aot/S_pexels-vlada-karpovich-8044792.mp4	0.0	91.09797286987305	0.0995180606842041
7	71.32421708106995	fix_pre	0		120	5.0	2.5	blank	1.0	91.19749093055725	1.00034499168396
7	71.90812921524048	pulse	0	t		5.0	2.5	blank	1.0	91.78140306472778	
7	72.3245620727539	movie	1		300	5.0	2.5	blank	1.0	92.19783592224121	2.4999899864196777
7	73.5080680847168	pulse	1	t		5.0	2.5	blank	1.0	93.3813419342041	
7	74.82455205917358	fix_post	2		12	5.0	2.5	blank	1.0	94.69782590866089	0.1001279354095459
8	74.92467999458313	fix_pre	0		120	6.0	2.5	/experiments/aot/R_S_yt-2lnxIdOTxog_157.mp4	0.0	94.79795384407043	0.9999091625213623
8	75.1080482006073	pulse	0	t		6.0	2.5	/experiments/aot/R_S_yt-2lnxIdOTxog_157.mp4	0.0	94.9813220500946	
8	75.92458915710449	movie	1		300	6.0	2.5	/experiments/aot/R_S_yt-2lnxIdOTxog_157.mp4	0.0	95.7978630065918	2.4999749660491943
8	76.70811820030212	pulse	1	t		6.0	2.5	/experiments/aot/R_S_yt-2lnxIdOTxog_157.mp4	0.0	96.58139204978943	
8	78.30816698074341	pulse	1	t		6.0	2.5	/experiments/aot/R_S_yt-2lnxIdOTxog_157.mp4	0.0	98.18144083023071	
8	78.42456412315369	fix_post	2		12	6.0	2.5	/experiments/aot/R_S_yt-2lnxIdOTxog_157.mp4	0.0	98.29783797264099	0.10002899169921875
9	78.5245931148529	fix_pre	0		120	7.0	2.5	/experiments/aot/R_S_video_inspire_california_big-sur_landscape_054.1080-h264.mp4	0.0	98.39786696434021	0.9999730587005615
9	79.52456617355347	movie	1		167	7.0	2.5	/experiments/aot/R_S_video_inspire_california_big-sur_landscape_054.1080-h264.mp4	0.0	99.39784002304077	2.499619960784912
9	79.90810203552246	pulse	1	t		7.0	2.5	/experiments/aot/R_S_video_inspire_california_big-sur_landscape_054.1080-h264.mp4	0.0	99.78137588500977	
9	81.50806617736816	pulse	1	t		7.0	2.5	/experiments/aot/R_S_video_inspire_california_big-sur_landscape_054.1080-h264.mp4	0.0	101.38134002685547	
9	82.02418613433838	fix_post	2		12	7.0	2.5	/experiments/aot/R_S_video_inspire_california_big-sur_landscape_054.1080-h264.mp4	0.0	101.89745998382568	0.10041284561157227
10	82.12459897994995	fix_pre	0		119	8.0	2.5	/experiments/aot/S_yt-KM_SJx8CMGc_10.mp4	0.0	101.99787282943726	0.9917130470275879
10	83.10813117027283	pulse	0	t		8.0	2.5	/experiments/aot/S_yt-KM_SJx8CMGc_10.mp4	0.0	102.98140501976013	
10	83.11631202697754	movie	1		301	8.0	2.5	/experiments/aot/S_yt-KM_SJx8CMGc_10.mp4	0.0	102.98958587646484	2.5081939697265625
10	84.7080512046814	pulse	1	t		8.0	2.5	/experiments/aot/S_yt-KM_SJx8CMGc_10.mp4	0.0	104.5813250541687	
10	85.6245059967041	fix_post	2		12	8.0	2.5	/experiments/aot/S_yt-KM_SJx8CMGc_10.mp4	0.0	105.4977798461914	0.09959912300109863
11	85.7241051197052	fix_pre	0		120	9.0	2.5	/experiments/aot/S_yt-mL3MuCfKtdY_79.mp4	0.0	105.5973789691925	1.0003950595855713
11	86.30816006660461	pulse	0	t		9.0	2.5	/experiments/aot/S_yt-mL3MuCfKtdY_79.mp4	0.0	106.18143391609192	
11	86.72450017929077	movie	1		300	9.0	2.5	/experiments/aot/S_yt-mL3MuCfKtdY_79.mp4	0.0	106.59777402877808	2.4999840259552
11	87.90799498558044	pulse	1	t		9.0	2.5	/experiments/aot/S_yt-mL3MuCfKtdY_79.mp4	0.0	107.78126883506775	
11	89.22448420524597	fix_post	2		12	9.0	2.5	/experiments/aot/S_yt-mL3MuCfKtdY_79.mp4	0.0	109.09775805473328	0.10002493858337402
12	89.32450914382935	fix_pre	0		120	10.0	2.5	/experiments/aot/R_S_production_ID_5139371.mp4	0.0	109.19778299331665	1.0000760555267334
12	89.50797200202942	pulse	0	t		10.0	2.5	/experiments/aot/R_S_production_ID_5139371.mp4	0.0	109.38124585151672	
12	90.32458519935608	movie	1		159	10.0	2.5	/experiments/aot/R_S_production_ID_5139371.mp4	0.0	110.19785904884338	2.49953293800354
12	91.1082091331482	pulse	1	t		10.0	2.5	/experiments/aot/R_S_production_ID_5139371.mp4	0.0	110.9814829826355	
12	92.7080750465393	pulse	1	t		10.0	2.5	/experiments/aot/R_S_production_ID_5139371.mp4	0.0	112.58134889602661	
12	92.82411813735962	fix_post	2		12	10.0	2.5	/experiments/aot/R_S_production_ID_5139371.mp4	0.0	112.69739198684692	0.10036897659301758
13	92.92448711395264	fix_pre	0		120	11.0	2.5	/experiments/aot/R_S_yt-O_4DgW-XKvA_35.mp4	0.0	112.79776096343994	1.0000629425048828
13	93.92455005645752	movie	1		299	11.0	2.5	/experiments/aot/R_S_yt-O_4DgW-XKvA_35.mp4	0.0	113.79782390594482	2.5000860691070557
13	94.3080952167511	pulse	1	t		11.0	2.5	/experiments/aot/R_S_yt-O_4DgW-XKvA_35.mp4	0.0	114.1813690662384	
13	95.90766310691833	pulse	1	t		11.0	2.5	/experiments/aot/R_S_yt-O_4DgW-XKvA_35.mp4	0.0	115.78093695640564	
13	96.42463612556458	fix_post	2		12	11.0	2.5	/experiments/aot/R_S_yt-O_4DgW-XKvA_35.mp4	0.0	116.29790997505188	0.10007095336914062
14	96.52470707893372	fix_pre	0		119	12.0	2.5	blank	1.0	116.39798092842102	0.9918451309204102
14	97.50830698013306	pulse	0	t		12.0	2.5	blank	1.0	117.38158082962036	
14	97.51655220985413	movie	1		301	12.0	2.5	blank	1.0	117.38982605934143	2.507957935333252
14	99.10801005363464	pulse	1	t		12.0	2.5	blank	1.0	118.98128390312195	
14	100.02451014518738	fix_post	2		12	12.0	2.5	blank	1.0	119.89778399467468	0.0999610424041748
15	100.12447118759155	fix_pre	0		120	13.0	2.5	/experiments/aot/S_b5-3.mp4	0.0	119.99774503707886	1.0000269412994385
15	100.70787620544434	pulse	0	t		13.0	2.5	/experiments/aot/S_b5-3.mp4	0.0	120.58115005493164	
15	101.12449812889099	movie	1		161	13.0	2.5	/experiments/aot/S_b5-3.mp4	0.0	120.9977719783783	2.499885082244873
15	102.30798101425171	pulse	1	t		13.0	2.5	/experiments/aot/S_b5-3.mp4	0.0	122.18125486373901	
15	103.62438321113586	fix_post	2		12	13.0	2.5	/experiments/aot/S_b5-3.mp4	0.0	123.49765706062317	0.10003089904785156
16	103.72441411018372	fix_pre	0		120	14.0	2.5	/experiments/aot/R_S__6qAy77ODUI_175.mp4	0.0	123.59768795967102	0.9999589920043945
16	103.90792918205261	pulse	0	t		14.0	2.5	/experiments/aot/R_S__6qAy77ODUI_175.mp4	0.0	123.78120303153992	
16	104.72437310218811	movie	1		300	14.0	2.5	/experiments/aot/R_S__6qAy77ODUI_175.mp4	0.0	124.59764695167542	2.500011920928955
16	105.50787401199341	pulse	1	t		14.0	2.5	/experiments/aot/R_S__6qAy77ODUI_175.mp4	0.0	125.38114786148071	
16	107.10786700248718	pulse	1	t		14.0	2.5	/experiments/aot/R_S__6qAy77ODUI_175.mp4	0.0	126.98114085197449	
16	107.22438502311707	fix_post	2		12	14.0	2.5	/experiments/aot/R_S__6qAy77ODUI_175.mp4	0.0	127.09765887260437	0.09998703002929688
17	107.32437205314636	fix_pre	0		120	15.0	2.5	/experiments/aot/R_S_yt-Fm97IY0Z2LU_110.mp4	0.0	127.19764590263367	1.000067949295044
17	108.3244400024414	movie	1		299	15.0	2.5	/experiments/aot/R_S_yt-Fm97IY0Z2LU_110.mp4	0.0	128.1977138519287	2.5000112056732178
17	108.70799517631531	pulse	1	t		15.0	2.5	/experiments/aot/R_S_yt-Fm97IY0Z2LU_110.mp4	0.0	128.5812690258026	
17	110.30786800384521	pulse	1	t		15.0	2.5	/experiments/aot/R_S_yt-Fm97IY0Z2LU_110.mp4	0.0	130.18114185333252	
17	110.82445120811462	fix_post	2		12	15.0	2.5	/experiments/aot/R_S_yt-Fm97IY0Z2LU_110.mp4	0.0	130.69772505760193	0.09994077682495117
18	110.92439198493958	fix_pre	0		119	16.0	2.5	/experiments/aot/R_S_yt-UzWRbs9Syf4_7.mp4	0.0	130.79766583442688	0.991657018661499
18	111.90792918205261	pulse	0	t		16.0	2.5	/experiments/aot/R_S_yt-UzWRbs9Syf4_7.mp4	0.0	131.78120303153992	
18	111.91604900360107	movie	1		301	16.0	2.5	/experiments/aot/R_S_yt-UzWRbs9Syf4_7.mp4	0.0	131.78932285308838	2.5079050064086914
18	113.50794315338135	pulse	1	t		16.0	2.5	/experiments/aot/R_S_yt-UzWRbs9Syf4_7.mp4	0.0	133.38121700286865	
18	114.42395401000977	fix_post	2		12	16.0	2.5	/experiments/aot/R_S_yt-UzWRbs9Syf4_7.mp4	0.0	134.29722785949707	0.10046100616455078
19	114.52441501617432	fix_pre	0		120	17.0	2.5	/experiments/aot/S_yt-R-SETZtYWaA_336.mp4	0.0	134.39768886566162	0.9999990463256836
19	115.10786199569702	pulse	0	t		17.0	2.5	/experiments/aot/S_yt-R-SETZtYWaA_336.mp4	0.0	134.98113584518433	
19	115.5244140625	movie	1		300	17.0	2.5	/experiments/aot/S_yt-R-SETZtYWaA_336.mp4	0.0	135.3976879119873	2.5000109672546387
19	116.70789504051208	pulse	1	t		17.0	2.5	/experiments/aot/S_yt-R-SETZtYWaA_336.mp4	0.0	136.5811688899994	
19	118.02442502975464	fix_post	2		12	17.0	2.5	/experiments/aot/S_yt-R-SETZtYWaA_336.mp4	0.0	137.89769887924194	0.0994880199432373
20	118.12391304969788	fix_pre	0		120	18.0	2.5	/experiments/aot/S_yt-LUIvP_NDWAs_45.mp4	0.0	137.99718689918518	1.000054121017456
20	118.30790114402771	pulse	0	t		18.0	2.5	/experiments/aot/S_yt-LUIvP_NDWAs_45.mp4	0.0	138.18117499351501	
20	119.12396717071533	movie	1		300	18.0	2.5	/experiments/aot/S_yt-LUIvP_NDWAs_45.mp4	0.0	138.99724102020264	2.5003468990325928
20	119.90785098075867	pulse	1	t		18.0	2.5	/experiments/aot/S_yt-LUIvP_NDWAs_45.mp4	0.0	139.78112483024597	
20	121.50801920890808	pulse	1	t		18.0	2.5	/experiments/aot/S_yt-LUIvP_NDWAs_45.mp4	0.0	141.38129305839539	
20	121.62431406974792	fix_post	2		12	18.0	2.5	/experiments/aot/S_yt-LUIvP_NDWAs_45.mp4	0.0	141.49758791923523	0.09999704360961914
21	121.72431111335754	fix_pre	0		120	19.0	2.5	/experiments/aot/R_S_bing-www_dailymotion_com_video_x4kcklg_53.mp4	0.0	141.59758496284485	1.0000100135803223
21	122.72432112693787	movie	1		161	19.0	2.5	/experiments/aot/R_S_bing-www_dailymotion_com_video_x4kcklg_53.mp4	0.0	142.59759497642517	2.5000009536743164
21	123.10782718658447	pulse	1	t		19.0	2.5	/experiments/aot/R_S_bing-www_dailymotion_com_video_x4kcklg_53.mp4	0.0	142.98110103607178	
21	124.70790719985962	pulse	1	t		19.0	2.5	/experiments/aot/R_S_bing-www_dailymotion_com_video_x4kcklg_53.mp4	0.0	144.58118104934692	
21	125.22432208061218	fix_post	2		12	19.0	2.5	/experiments/aot/R_S_bing-www_dailymotion_com_video_x4kcklg_53.mp4	0.0	145.0975959300995	0.09994697570800781
22	125.32426905632019	fix_pre	0		119	20.0	2.5	blank	1.0	145.1975429058075	0.9917819499969482
22	126.307941198349	pulse	0	t		20.0	2.5	blank	1.0	146.1812150478363	
22	126.31605100631714	movie	1		301	20.0	2.5	blank	1.0	146.18932485580444	2.508336067199707
22	127.90783214569092	pulse	1	t		20.0	2.5	blank	1.0	147.78110599517822	
22	128.82438707351685	fix_post	2		12	20.0	2.5	blank	1.0	148.69766092300415	0.09998703002929688
23	128.92437410354614	fix_pre	0		120	21.0	2.5	/experiments/aot/S_video-11.mp4	0.0	148.79764795303345	0.9995310306549072
23	129.50783920288086	pulse	0	t		21.0	2.5	/experiments/aot/S_video-11.mp4	0.0	149.38111305236816	
23	129.92390513420105	movie	1		161	21.0	2.5	/experiments/aot/S_video-11.mp4	0.0	149.79717898368835	2.500382900238037
23	131.1078770160675	pulse	1	t		21.0	2.5	/experiments/aot/S_video-11.mp4	0.0	150.9811508655548	
23	132.4242880344391	fix_post	2		12	21.0	2.5	/experiments/aot/S_video-11.mp4	0.0	152.2975618839264	0.10002017021179199
24	132.52430820465088	fix_pre	0		120	22.0	2.5	/experiments/aot/R_S_production_ID_3944248.mp4	0.0	152.39758205413818	1.000011920928955
24	132.7078411579132	pulse	0	t		22.0	2.5	/experiments/aot/R_S_production_ID_3944248.mp4	0.0	152.5811150074005	
24	133.52432012557983	movie	1		161	22.0	2.5	/experiments/aot/R_S_production_ID_3944248.mp4	0.0	153.39759397506714	2.499535083770752
24	134.30785608291626	pulse	1	t		22.0	2.5	/experiments/aot/R_S_production_ID_3944248.mp4	0.0	154.18112993240356	
24	135.90790820121765	pulse	1	t		22.0	2.5	/experiments/aot/R_S_production_ID_3944248.mp4	0.0	155.78118205070496	
24	136.0238552093506	fix_post	2		12	22.0	2.5	/experiments/aot/R_S_production_ID_3944248.mp4	0.0	155.8971290588379	0.10038590431213379
25	136.12424111366272	fix_pre	0		120	23.0	2.5	/experiments/aot/S_yt-4wjGeLyvfjY_223.mp4	0.0	155.99751496315002	1.0000510215759277
25	137.12429213523865	movie	1		300	23.0	2.5	/experiments/aot/S_yt-4wjGeLyvfjY_223.mp4	0.0	156.99756598472595	2.4999139308929443
25	137.5077509880066	pulse	1	t		23.0	2.5	/experiments/aot/S_yt-4wjGeLyvfjY_223.mp4	0.0	157.3810248374939	
25	139.10779404640198	pulse	1	t		23.0	2.5	/experiments/aot/S_yt-4wjGeLyvfjY_223.mp4	0.0	158.98106789588928	
25	139.6242060661316	fix_post	2		12	23.0	2.5	/experiments/aot/S_yt-4wjGeLyvfjY_223.mp4	0.0	159.4974799156189	0.10004305839538574
26	139.72424912452698	fix_pre	0		119	24.0	2.5	/experiments/aot/S_yt-F3hhts3bwWg_25.mp4	0.0	159.59752297401428	0.9916830062866211
26	140.7077600955963	pulse	0	t		24.0	2.5	/experiments/aot/S_yt-F3hhts3bwWg_25.mp4	0.0	160.58103394508362	
26	140.7159321308136	movie	1		301	24.0	2.5	/experiments/aot/S_yt-F3hhts3bwWg_25.mp4	0.0	160.5892059803009	2.5082828998565674
26	142.30783700942993	pulse	1	t		24.0	2.5	/experiments/aot/S_yt-F3hhts3bwWg_25.mp4	0.0	162.18111085891724	
26	143.22421503067017	fix_post	2		12	24.0	2.5	/experiments/aot/S_yt-F3hhts3bwWg_25.mp4	0.0	163.09748888015747	0.10014915466308594
27	143.32436418533325	fix_pre	0		120	25.0	2.5	/experiments/aot/R_S_ILSVRC2015_train_00418004.mp4	0.0	163.19763803482056	0.9999330043792725
27	143.90776920318604	pulse	0	t		25.0	2.5	/experiments/aot/R_S_ILSVRC2015_train_00418004.mp4	0.0	163.78104305267334	
27	144.32429718971252	movie	1		299	25.0	2.5	/experiments/aot/R_S_ILSVRC2015_train_00418004.mp4	0.0	164.19757103919983	2.4999899864196777
27	145.50773906707764	pulse	1	t		25.0	2.5	/experiments/aot/R_S_ILSVRC2015_train_00418004.mp4	0.0	165.38101291656494	
27	146.8242871761322	fix_post	2		12	25.0	2.5	/experiments/aot/R_S_ILSVRC2015_train_00418004.mp4	0.0	166.6975610256195	0.09996390342712402
28	146.92425107955933	fix_pre	0		120	26.0	2.5	/experiments/aot/S_yt-VfASxEzDrvc_145.mp4	0.0	166.79752492904663	0.9999899864196777
28	147.1079180240631	pulse	0	t		26.0	2.5	/experiments/aot/S_yt-VfASxEzDrvc_145.mp4	0.0	166.98119187355042	
28	147.924241065979	movie	1		300	26.0	2.5	/experiments/aot/S_yt-VfASxEzDrvc_145.mp4	0.0	167.7975149154663	2.500030040740967
28	148.70789408683777	pulse	1	t		26.0	2.5	/experiments/aot/S_yt-VfASxEzDrvc_145.mp4	0.0	168.58116793632507	
28	150.30763506889343	pulse	1	t		26.0	2.5	/experiments/aot/S_yt-VfASxEzDrvc_145.mp4	0.0	170.18090891838074	
28	150.42427110671997	fix_post	2		12	26.0	2.5	/experiments/aot/S_yt-VfASxEzDrvc_145.mp4	0.0	170.29754495620728	0.0995640754699707
29	150.52383518218994	fix_pre	0		120	27.0	2.5	/experiments/aot/R_S_yt-hyZEDFkh49w_196.mp4	0.0	170.39710903167725	1.0001130104064941
29	151.52394819259644	movie	1		300	27.0	2.5	/experiments/aot/R_S_yt-hyZEDFkh49w_196.mp4	0.0	171.39722204208374	2.500386953353882
29	151.90740609169006	pulse	1	t		27.0	2.5	/experiments/aot/R_S_yt-hyZEDFkh49w_196.mp4	0.0	171.78067994117737	
29	153.50764513015747	pulse	1	t		27.0	2.5	/experiments/aot/R_S_yt-hyZEDFkh49w_196.mp4	0.0	173.38091897964478	
29	154.02433514595032	fix_post	2		12	27.0	2.5	/experiments/aot/R_S_yt-hyZEDFkh49w_196.mp4	0.0	173.89760899543762	0.09996390342712402
30	154.12429904937744	fix_pre	0		119	28.0	2.5	blank	1.0	173.99757289886475	0.9916160106658936
30	155.10768008232117	pulse	0	t		28.0	2.5	blank	1.0	174.98095393180847	
30	155.11591506004333	movie	1		301	28.0	2.5	blank	1.0	174.98918890953064	2.507925033569336
30	156.70770120620728	pulse	1	t		28.0	2.5	blank	1.0	176.58097505569458	
30	157.62384009361267	fix_post	2		12	28.0	2.5	blank	1.0	177.49711394309998	0.10039305686950684
31	157.72423315048218	fix_pre	0		120	29.0	2.5	/experiments/aot/S_yt-06XMUn9DTKc_35.mp4	0.0	177.59750699996948	1.000067949295044
31	158.30762815475464	pulse	0	t		29.0	2.5	/experiments/aot/S_yt-06XMUn9DTKc_35.mp4	0.0	178.18090200424194	
31	158.72430109977722	movie	1		300	29.0	2.5	/experiments/aot/S_yt-06XMUn9DTKc_35.mp4	0.0	178.59757494926453	2.4995410442352295
31	159.90765810012817	pulse	1	t		29.0	2.5	/experiments/aot/S_yt-06XMUn9DTKc_35.mp4	0.0	179.78093194961548	
31	161.22384214401245	fix_post	2		12	29.0	2.5	/experiments/aot/S_yt-06XMUn9DTKc_35.mp4	0.0	181.09711599349976	0.1003570556640625
32	161.3241991996765	fix_pre	0		120	30.0	2.5	/experiments/aot/R_S_yt-xqjVM0Vj4mI_161.mp4	0.0	181.19747304916382	0.9999299049377441
32	161.50772309303284	pulse	0	t		30.0	2.5	/experiments/aot/R_S_yt-xqjVM0Vj4mI_161.mp4	0.0	181.38099694252014	
32	162.32412910461426	movie	1		300	30.0	2.5	/experiments/aot/R_S_yt-xqjVM0Vj4mI_161.mp4	0.0	182.19740295410156	2.5000200271606445
32	163.1075370311737	pulse	1	t		30.0	2.5	/experiments/aot/R_S_yt-xqjVM0Vj4mI_161.mp4	0.0	182.980810880661	
32	164.7075719833374	pulse	1	t		30.0	2.5	/experiments/aot/R_S_yt-xqjVM0Vj4mI_161.mp4	0.0	184.5808458328247	
32	164.8241491317749	fix_post	2		12	30.0	2.5	/experiments/aot/R_S_yt-xqjVM0Vj4mI_161.mp4	0.0	184.6974229812622	0.09999203681945801
33	164.92414116859436	fix_pre	0		120	31.0	2.5	/experiments/aot/R_S_comp_CH_C002_C005_PSNK_v05_SDR_PS_FINAL_20180709_SDR_2K_AVC.mp4	0.0	184.79741501808167	0.9999978542327881
33	165.92413902282715	movie	1		170	31.0	2.5	/experiments/aot/R_S_comp_CH_C002_C005_PSNK_v05_SDR_PS_FINAL_20180709_SDR_2K_AVC.mp4	0.0	185.79741287231445	2.4999401569366455
33	166.30766201019287	pulse	1	t		31.0	2.5	/experiments/aot/R_S_comp_CH_C002_C005_PSNK_v05_SDR_PS_FINAL_20180709_SDR_2K_AVC.mp4	0.0	186.18093585968018	
33	167.90764999389648	pulse	1	t		31.0	2.5	/experiments/aot/R_S_comp_CH_C002_C005_PSNK_v05_SDR_PS_FINAL_20180709_SDR_2K_AVC.mp4	0.0	187.7809238433838	
33	168.4240791797638	fix_post	2		12	31.0	2.5	/experiments/aot/R_S_comp_CH_C002_C005_PSNK_v05_SDR_PS_FINAL_20180709_SDR_2K_AVC.mp4	0.0	188.2973530292511	0.10009384155273438
34	168.52417302131653	fix_pre	0		119	32.0	2.5	/experiments/aot/S_yt-H45g6700wbc_159.mp4	0.0	188.39744687080383	0.9915680885314941
34	169.50753617286682	pulse	0	t		32.0	2.5	/experiments/aot/S_yt-H45g6700wbc_159.mp4	0.0	189.38081002235413	
34	169.51574110984802	movie	1		301	32.0	2.5	/experiments/aot/S_yt-H45g6700wbc_159.mp4	0.0	189.38901495933533	2.5083329677581787
34	171.10754799842834	pulse	1	t		32.0	2.5	/experiments/aot/S_yt-H45g6700wbc_159.mp4	0.0	190.98082184791565	
34	172.0240740776062	fix_post	2		12	32.0	2.5	/experiments/aot/S_yt-H45g6700wbc_159.mp4	0.0	191.8973479270935	0.10005998611450195
35	172.1241340637207	fix_pre	0		120	33.0	2.5	/experiments/aot/S_Person_Going_Through_A_Bible.mp4	0.0	191.997407913208	0.9995570182800293
35	172.70854306221008	pulse	0	t		33.0	2.5	/experiments/aot/S_Person_Going_Through_A_Bible.mp4	0.0	192.5818169116974	
35	173.12369108200073	movie	1		161	33.0	2.5	/experiments/aot/S_Person_Going_Through_A_Bible.mp4	0.0	192.99696493148804	2.500404119491577
35	174.31550121307373	pulse	1	t		33.0	2.5	/experiments/aot/S_Person_Going_Through_A_Bible.mp4	0.0	194.18877506256104	
35	175.6240952014923	fix_post	2		12	33.0	2.5	/experiments/aot/S_Person_Going_Through_A_Bible.mp4	0.0	195.49736905097961	0.10004401206970215
36	175.724139213562	fix_pre	0		120	34.0	2.5	blank	1.0	195.59741306304932	0.9999699592590332
36	175.90841102600098	pulse	0	t		34.0	2.5	blank	1.0	195.78168487548828	
36	176.72410917282104	movie	1		300	34.0	2.5	blank	1.0	196.59738302230835	2.4995689392089844
36	177.5075831413269	pulse	1	t		34.0	2.5	blank	1.0	197.3808569908142	
36	179.10754704475403	pulse	1	t		34.0	2.5	blank	1.0	198.98082089424133	
36	179.22367811203003	fix_post	2		12	34.0	2.5	blank	1.0	199.09695196151733	0.10036897659301758
37	179.32404708862305	fix_pre	0		120	35.0	2.5	/experiments/aot/S_yt-O_4DgW-XKvA_35.mp4	0.0	199.19732093811035	0.9999969005584717
37	180.32404398918152	movie	1		300	35.0	2.5	/experiments/aot/S_yt-O_4DgW-XKvA_35.mp4	0.0	200.19731783866882	2.5000100135803223
37	180.70758199691772	pulse	1	t		35.0	2.5	/experiments/aot/S_yt-O_4DgW-XKvA_35.mp4	0.0	200.58085584640503	
37	182.30756902694702	pulse	1	t		35.0	2.5	/experiments/aot/S_yt-O_4DgW-XKvA_35.mp4	0.0	202.18084287643433	
37	182.82405400276184	fix_post	2		12	35.0	2.5	/experiments/aot/S_yt-O_4DgW-XKvA_35.mp4	0.0	202.69732785224915	0.10007405281066895
38	182.9241280555725	fix_pre	0		119	36.0	2.5	/experiments/aot/R_S_flickr-southeasternstar-3464778323_10.mp4	0.0	202.79740190505981	0.9915919303894043
38	183.90759110450745	pulse	0	t		36.0	2.5	/experiments/aot/R_S_flickr-southeasternstar-3464778323_10.mp4	0.0	203.78086495399475	
38	183.9157199859619	movie	1		301	36.0	2.5	/experiments/aot/R_S_flickr-southeasternstar-3464778323_10.mp4	0.0	203.78899383544922	2.5079541206359863
38	185.50757312774658	pulse	1	t		36.0	2.5	/experiments/aot/R_S_flickr-southeasternstar-3464778323_10.mp4	0.0	205.3808469772339	
38	186.4236741065979	fix_post	2		12	36.0	2.5	/experiments/aot/R_S_flickr-southeasternstar-3464778323_10.mp4	0.0	206.2969479560852	0.10034489631652832
39	186.52401900291443	fix_pre	0		120	37.0	2.5	/experiments/aot/S_yt-WhQMF3WM0Ig_29.mp4	0.0	206.39729285240173	0.9996471405029297
39	187.10764813423157	pulse	0	t		37.0	2.5	/experiments/aot/S_yt-WhQMF3WM0Ig_29.mp4	0.0	206.98092198371887	
39	187.52366614341736	movie	1		300	37.0	2.5	/experiments/aot/S_yt-WhQMF3WM0Ig_29.mp4	0.0	207.39693999290466	2.4999489784240723
39	188.71302199363708	pulse	1	t		37.0	2.5	/experiments/aot/S_yt-WhQMF3WM0Ig_29.mp4	0.0	208.5862958431244	
39	190.02361512184143	fix_post	2		12	37.0	2.5	/experiments/aot/S_yt-WhQMF3WM0Ig_29.mp4	0.0	209.89688897132874	0.10049104690551758
40	190.12410616874695	fix_pre	0		120	38.0	2.5	/experiments/aot/R_S_yt-hZxbKZ1WCVg_24.mp4	0.0	209.99738001823425	1.0000479221343994
40	190.3076150417328	pulse	0	t		38.0	2.5	/experiments/aot/R_S_yt-hZxbKZ1WCVg_24.mp4	0.0	210.1808888912201	
40	191.12415409088135	movie	1		300	38.0	2.5	/experiments/aot/R_S_yt-hZxbKZ1WCVg_24.mp4	0.0	210.99742794036865	2.499830961227417
40	191.91153502464294	pulse	1	t		38.0	2.5	/experiments/aot/R_S_yt-hZxbKZ1WCVg_24.mp4	0.0	211.78480887413025	
40	193.50797700881958	pulse	1	t		38.0	2.5	/experiments/aot/R_S_yt-hZxbKZ1WCVg_24.mp4	0.0	213.38125085830688	
40	193.62398505210876	fix_post	2		12	38.0	2.5	/experiments/aot/R_S_yt-hZxbKZ1WCVg_24.mp4	0.0	213.49725890159607	0.09995102882385254
41	193.72393608093262	fix_pre	0		120	39.0	2.5	/experiments/aot/S_production_ID_4325591.mp4	0.0	213.59720993041992	1.000101089477539
41	194.72403717041016	movie	1		165	39.0	2.5	/experiments/aot/S_production_ID_4325591.mp4	0.0	214.59731101989746	2.4999499320983887
41	195.10817003250122	pulse	1	t		39.0	2.5	/experiments/aot/S_production_ID_4325591.mp4	0.0	214.98144388198853	
41	196.71586799621582	pulse	1	t		39.0	2.5	/experiments/aot/S_production_ID_4325591.mp4	0.0	216.58914184570312	
41	197.22398710250854	fix_post	2		12	39.0	2.5	/experiments/aot/S_production_ID_4325591.mp4	0.0	217.09726095199585	0.09964990615844727
42	197.323637008667	fix_pre	0		119	40.0	2.5	/experiments/aot/S_video-7.mp4	0.0	217.1969108581543	0.9919741153717041
42	198.3075020313263	pulse	0	t		40.0	2.5	/experiments/aot/S_video-7.mp4	0.0	218.1807758808136	
42	198.3156111240387	movie	1		164	40.0	2.5	/experiments/aot/S_video-7.mp4	0.0	218.188884973526	2.507972002029419
42	199.9074010848999	pulse	1	t		40.0	2.5	/experiments/aot/S_video-7.mp4	0.0	219.7806749343872	
42	200.82358312606812	fix_post	2		12	40.0	2.5	/experiments/aot/S_video-7.mp4	0.0	220.69685697555542	0.10036587715148926
43	200.9239490032196	fix_pre	0		120	41.0	2.5	blank	1.0	220.7972228527069	1.000016212463379
43	201.50747418403625	pulse	0	t		41.0	2.5	blank	1.0	221.38074803352356	
43	201.92396521568298	movie	1		300	41.0	2.5	blank	1.0	221.7972390651703	2.499558925628662
43	203.1075541973114	pulse	1	t		41.0	2.5	blank	1.0	222.9808280467987	
43	204.42352414131165	fix_post	2		12	41.0	2.5	blank	1.0	224.29679799079895	0.10047507286071777
44	204.52399921417236	fix_pre	0		120	42.0	2.5	/experiments/aot/S_yt-7WYXuBHeorw_188.mp4	0.0	224.39727306365967	1.0000078678131104
44	204.7082691192627	pulse	0	t		42.0	2.5	/experiments/aot/S_yt-7WYXuBHeorw_188.mp4	0.0	224.58154296875	
44	205.52400708198547	movie	1		300	42.0	2.5	/experiments/aot/S_yt-7WYXuBHeorw_188.mp4	0.0	225.39728093147278	2.49983811378479
44	206.31108021736145	pulse	1	t		42.0	2.5	/experiments/aot/S_yt-7WYXuBHeorw_188.mp4	0.0	226.18435406684875	
44	207.90815210342407	pulse	1	t		42.0	2.5	/experiments/aot/S_yt-7WYXuBHeorw_188.mp4	0.0	227.78142595291138	
44	208.02384519577026	fix_post	2		12	42.0	2.5	/experiments/aot/S_yt-7WYXuBHeorw_188.mp4	0.0	227.89711904525757	0.10028481483459473
45	208.12413001060486	fix_pre	0		120	43.0	2.5	/experiments/aot/S_yt-wrfAMDCg93Y_8.mp4	0.0	227.99740386009216	0.9997811317443848
45	209.12391114234924	movie	1		300	43.0	2.5	/experiments/aot/S_yt-wrfAMDCg93Y_8.mp4	0.0	228.99718499183655	2.500126838684082
45	209.51133799552917	pulse	1	t		43.0	2.5	/experiments/aot/S_yt-wrfAMDCg93Y_8.mp4	0.0	229.38461184501648	
45	211.1074080467224	pulse	1	t		43.0	2.5	/experiments/aot/S_yt-wrfAMDCg93Y_8.mp4	0.0	230.98068189620972	
45	211.62403798103333	fix_post	2		12	43.0	2.5	/experiments/aot/S_yt-wrfAMDCg93Y_8.mp4	0.0	231.49731183052063	0.09991002082824707
46	211.72394800186157	fix_pre	0		119	44.0	2.5	/experiments/aot/R_S_ILSVRC2015_train_00559000.mp4	0.0	231.59722185134888	0.991624116897583
46	212.70742011070251	pulse	0	t		44.0	2.5	/experiments/aot/R_S_ILSVRC2015_train_00559000.mp4	0.0	232.58069396018982	
46	212.71557211875916	movie	1		301	44.0	2.5	/experiments/aot/R_S_ILSVRC2015_train_00559000.mp4	0.0	232.58884596824646	2.5082950592041016
46	214.30740308761597	pulse	1	t		44.0	2.5	/experiments/aot/R_S_ILSVRC2015_train_00559000.mp4	0.0	234.18067693710327	
46	215.22386717796326	fix_post	2		12	44.0	2.5	/experiments/aot/R_S_ILSVRC2015_train_00559000.mp4	0.0	235.09714102745056	0.10000801086425781
47	215.32387518882751	fix_pre	0		120	45.0	2.5	/experiments/aot/R_S_ILSVRC2015_train_00405000.mp4	0.0	235.19714903831482	1.0000169277191162
47	215.90734720230103	pulse	0	t		45.0	2.5	/experiments/aot/R_S_ILSVRC2015_train_00405000.mp4	0.0	235.78062105178833	
47	216.32389211654663	movie	1		300	45.0	2.5	/experiments/aot/R_S_ILSVRC2015_train_00405000.mp4	0.0	236.19716596603394	2.499959945678711
47	217.50748920440674	pulse	1	t		45.0	2.5	/experiments/aot/R_S_ILSVRC2015_train_00405000.mp4	0.0	237.38076305389404	
47	218.82385206222534	fix_post	2		12	45.0	2.5	/experiments/aot/R_S_ILSVRC2015_train_00405000.mp4	0.0	238.69712591171265	0.10002613067626953
48	218.9238781929016	fix_pre	0		120	46.0	2.5	/experiments/aot/S_yt-RO4mhuXBVrY_67.mp4	0.0	238.79715204238892	0.99993896484375
48	219.1072940826416	pulse	0	t		46.0	2.5	/experiments/aot/S_yt-RO4mhuXBVrY_67.mp4	0.0	238.9805679321289	
48	219.92381715774536	movie	1		300	46.0	2.5	/experiments/aot/S_yt-RO4mhuXBVrY_67.mp4	0.0	239.79709100723267	2.5000250339508057
48	220.7114930152893	pulse	1	t		46.0	2.5	/experiments/aot/S_yt-RO4mhuXBVrY_67.mp4	0.0	240.5847668647766	
48	222.30988121032715	pulse	1	t		46.0	2.5	/experiments/aot/S_yt-RO4mhuXBVrY_67.mp4	0.0	242.18315505981445	
48	222.42384219169617	fix_post	2		12	46.0	2.5	/experiments/aot/S_yt-RO4mhuXBVrY_67.mp4	0.0	242.29711604118347	0.09998488426208496
49	222.52382707595825	fix_pre	0		120	47.0	2.5	/experiments/aot/R_S_comp_GMT308_139K_142NC_CARIBBEAN_DAY_v09_SDR_FINAL_22062018_SDR_2K_AVC.mp4	0.0	242.39710092544556	1.0000379085540771
49	223.52386498451233	movie	1		165	47.0	2.5	/experiments/aot/R_S_comp_GMT308_139K_142NC_CARIBBEAN_DAY_v09_SDR_FINAL_22062018_SDR_2K_AVC.mp4	0.0	243.39713883399963	2.500033140182495
49	223.9161970615387	pulse	1	t		47.0	2.5	/experiments/aot/R_S_comp_GMT308_139K_142NC_CARIBBEAN_DAY_v09_SDR_FINAL_22062018_SDR_2K_AVC.mp4	0.0	243.789470911026	
49	225.51560401916504	pulse	1	t		47.0	2.5	/experiments/aot/R_S_comp_GMT308_139K_142NC_CARIBBEAN_DAY_v09_SDR_FINAL_22062018_SDR_2K_AVC.mp4	0.0	245.38887786865234	
49	226.02389812469482	fix_post	2		12	47.0	2.5	/experiments/aot/R_S_comp_GMT308_139K_142NC_CARIBBEAN_DAY_v09_SDR_FINAL_22062018_SDR_2K_AVC.mp4	0.0	245.89717197418213	0.09993100166320801
50	226.12382912635803	fix_pre	0		119	48.0	2.5	blank	1.0	245.99710297584534	0.9917118549346924
50	227.10741901397705	pulse	0	t		48.0	2.5	blank	1.0	246.98069286346436	
50	227.11554098129272	movie	1		301	48.0	2.5	blank	1.0	246.98881483078003	2.5079262256622314
50	228.7073690891266	pulse	1	t		48.0	2.5	blank	1.0	248.5806429386139	
50	229.62346720695496	fix_post	2		12	48.0	2.5	blank	1.0	249.49674105644226	0.10047388076782227
51	229.72394108772278	fix_pre	0		120	49.0	2.5	/experiments/aot/S_ILSVRC2015_train_00165012.mp4	0.0	249.59721493721008	0.9999110698699951
51	230.30735516548157	pulse	0	t		49.0	2.5	/experiments/aot/S_ILSVRC2015_train_00165012.mp4	0.0	250.18062901496887	
51	230.72385215759277	movie	1		300	49.0	2.5	/experiments/aot/S_ILSVRC2015_train_00165012.mp4	0.0	250.59712600708008	2.4999918937683105
51	231.90723299980164	pulse	1	t		49.0	2.5	/experiments/aot/S_ILSVRC2015_train_00165012.mp4	0.0	251.78050684928894	
51	233.22384405136108	fix_post	2		12	49.0	2.5	/experiments/aot/S_ILSVRC2015_train_00165012.mp4	0.0	253.0971179008484	0.09962201118469238
52	233.32346606254578	fix_pre	0		120	50.0	2.5	/experiments/aot/S_yt-HFiRYTnMZxE_338.mp4	0.0	253.19673991203308	1.0002920627593994
52	233.50732517242432	pulse	0	t		50.0	2.5	/experiments/aot/S_yt-HFiRYTnMZxE_338.mp4	0.0	253.38059902191162	
52	234.32375812530518	movie	1		300	50.0	2.5	/experiments/aot/S_yt-HFiRYTnMZxE_338.mp4	0.0	254.19703197479248	2.499640941619873
52	235.1072211265564	pulse	1	t		50.0	2.5	/experiments/aot/S_yt-HFiRYTnMZxE_338.mp4	0.0	254.9804949760437	
52	236.71067309379578	pulse	1	t		50.0	2.5	/experiments/aot/S_yt-HFiRYTnMZxE_338.mp4	0.0	256.5839469432831	
52	236.82339906692505	fix_post	2		12	50.0	2.5	/experiments/aot/S_yt-HFiRYTnMZxE_338.mp4	0.0	256.69667291641235	0.10044503211975098
53	236.9238440990448	fix_pre	0		120	51.0	2.5	/experiments/aot/R_S_yt-2V2tq9-O_Nc_1669.mp4	0.0	256.7971179485321	0.9999449253082275
53	237.92378902435303	movie	1		300	51.0	2.5	/experiments/aot/R_S_yt-2V2tq9-O_Nc_1669.mp4	0.0	257.79706287384033	2.4997010231018066
53	238.3114411830902	pulse	1	t		51.0	2.5	/experiments/aot/R_S_yt-2V2tq9-O_Nc_1669.mp4	0.0	258.1847150325775	
53	239.91239404678345	pulse	1	t		51.0	2.5	/experiments/aot/R_S_yt-2V2tq9-O_Nc_1669.mp4	0.0	259.78566789627075	
53	240.42349004745483	fix_post	2		12	51.0	2.5	/experiments/aot/R_S_yt-2V2tq9-O_Nc_1669.mp4	0.0	260.29676389694214	0.10032200813293457
54	240.52381205558777	fix_pre	0		120	52.0	2.5	/experiments/aot/S_yt-G_eNNzNB-hU_1.mp4	0.0	260.3970859050751	1.0000500679016113
54	241.50803303718567	pulse	0	t		52.0	2.5	/experiments/aot/S_yt-G_eNNzNB-hU_1.mp4	0.0	261.381306886673	
54	241.52386212348938	movie	1		301	52.0	2.5	/experiments/aot/S_yt-G_eNNzNB-hU_1.mp4	0.0	261.3971359729767	2.508197069168091
54	243.111093044281	pulse	1	t		52.0	2.5	/experiments/aot/S_yt-G_eNNzNB-hU_1.mp4	0.0	262.9843668937683	
54	244.03205919265747	fix_post	2		12	52.0	2.5	/experiments/aot/S_yt-G_eNNzNB-hU_1.mp4	0.0	263.9053330421448	0.10007095336914062
55	244.1321301460266	fix_pre	0		120	53.0	2.5	/experiments/aot/R_S_yt-R-SETZtYWaA_336.mp4	0.0	264.0054039955139	0.9996428489685059
55	244.70804905891418	pulse	0	t		53.0	2.5	/experiments/aot/R_S_yt-R-SETZtYWaA_336.mp4	0.0	264.5813229084015	
55	245.13177299499512	movie	1		300	53.0	2.5	/experiments/aot/R_S_yt-R-SETZtYWaA_336.mp4	0.0	265.0050468444824	2.4998772144317627
55	246.30733513832092	pulse	1	t		53.0	2.5	/experiments/aot/R_S_yt-R-SETZtYWaA_336.mp4	0.0	266.1806089878082	
55	247.63165020942688	fix_post	2		12	53.0	2.5	/experiments/aot/R_S_yt-R-SETZtYWaA_336.mp4	0.0	267.5049240589142	0.10041999816894531
56	247.73207020759583	fix_pre	0		120	54.0	2.5	/experiments/aot/R_S_yt-hZxbKZ1WCVg_24.mp4	0.0	267.60534405708313	1.0000278949737549
56	247.9080240726471	pulse	0	t		54.0	2.5	/experiments/aot/R_S_yt-hZxbKZ1WCVg_24.mp4	0.0	267.7812979221344	
56	248.73209810256958	movie	1		300	54.0	2.5	/experiments/aot/R_S_yt-hZxbKZ1WCVg_24.mp4	0.0	268.6053719520569	2.499558925628662
56	249.50723910331726	pulse	1	t		54.0	2.5	/experiments/aot/R_S_yt-hZxbKZ1WCVg_24.mp4	0.0	269.38051295280457	
56	251.1071012020111	pulse	1	t		54.0	2.5	/experiments/aot/R_S_yt-hZxbKZ1WCVg_24.mp4	0.0	270.9803750514984	
56	251.23165702819824	fix_post	2		12	54.0	2.5	/experiments/aot/R_S_yt-hZxbKZ1WCVg_24.mp4	0.0	271.10493087768555	0.10045909881591797
57	251.33211612701416	fix_pre	0		120	55.0	2.5	blank	1.0	271.20538997650146	0.9999959468841553
57	252.33211207389832	movie	1		300	55.0	2.5	blank	1.0	272.2053859233856	2.4999029636383057
57	252.70803213119507	pulse	1	t		55.0	2.5	blank	1.0	272.5813059806824	
57	254.30799412727356	pulse	1	t		55.0	2.5	blank	1.0	274.18126797676086	
57	254.83201503753662	fix_post	2		12	55.0	2.5	blank	1.0	274.7052888870239	0.09962105751037598
58	254.931636095047	fix_pre	0		119	56.0	2.5	/experiments/aot/S_yt-etQaTgGOhR4_69.mp4	0.0	274.8049099445343	0.9919919967651367
58	255.9080011844635	pulse	0	t		56.0	2.5	/experiments/aot/S_yt-etQaTgGOhR4_69.mp4	0.0	275.7812750339508	
58	255.92362809181213	movie	1		301	56.0	2.5	/experiments/aot/S_yt-etQaTgGOhR4_69.mp4	0.0	275.79690194129944	2.5079829692840576
58	257.5114312171936	pulse	1	t		56.0	2.5	/experiments/aot/S_yt-etQaTgGOhR4_69.mp4	0.0	277.3847050666809	
58	258.4316110610962	fix_post	2		12	56.0	2.5	/experiments/aot/S_yt-etQaTgGOhR4_69.mp4	0.0	278.3048849105835	0.10045695304870605
59	258.5320680141449	fix_pre	0		120	57.0	2.5	/experiments/aot/R_S_yt-HFiRYTnMZxE_338.mp4	0.0	278.4053418636322	0.9999611377716064
59	259.1081340312958	pulse	0	t		57.0	2.5	/experiments/aot/R_S_yt-HFiRYTnMZxE_338.mp4	0.0	278.9814078807831	
59	259.5320291519165	movie	1		300	57.0	2.5	/experiments/aot/R_S_yt-HFiRYTnMZxE_338.mp4	0.0	279.4053030014038	2.4995968341827393
59	260.70809412002563	pulse	1	t		57.0	2.5	/experiments/aot/R_S_yt-HFiRYTnMZxE_338.mp4	0.0	280.58136796951294	
59	262.03162598609924	fix_post	2		12	57.0	2.5	/experiments/aot/R_S_yt-HFiRYTnMZxE_338.mp4	0.0	281.90489983558655	0.09999513626098633
60	262.13162112236023	fix_pre	0		120	58.0	2.5	/experiments/aot/R_S_yt-4wjGeLyvfjY_223.mp4	0.0	282.00489497184753	1.0000979900360107
60	262.3075180053711	pulse	0	t		58.0	2.5	/experiments/aot/R_S_yt-4wjGeLyvfjY_223.mp4	0.0	282.1807918548584	
60	263.13171911239624	movie	1		299	58.0	2.5	/experiments/aot/R_S_yt-4wjGeLyvfjY_223.mp4	0.0	283.00499296188354	2.500333070755005
60	263.9079921245575	pulse	1	t		58.0	2.5	/experiments/aot/R_S_yt-4wjGeLyvfjY_223.mp4	0.0	283.7812659740448	
60	265.5071301460266	pulse	1	t		58.0	2.5	/experiments/aot/R_S_yt-4wjGeLyvfjY_223.mp4	0.0	285.3804039955139	
60	265.63205218315125	fix_post	2		12	58.0	2.5	/experiments/aot/R_S_yt-4wjGeLyvfjY_223.mp4	0.0	285.50532603263855	0.09953784942626953
61	265.7315900325775	fix_pre	0		120	59.0	2.5	/experiments/aot/S_ILSVRC2015_train_00417000.mp4	0.0	285.6048638820648	1.0004701614379883
61	266.7320601940155	movie	1		300	59.0	2.5	/experiments/aot/S_ILSVRC2015_train_00417000.mp4	0.0	286.6053340435028	2.4999167919158936
61	267.10715508461	pulse	1	t		59.0	2.5	/experiments/aot/S_ILSVRC2015_train_00417000.mp4	0.0	286.9804289340973	
61	268.70813608169556	pulse	1	t		59.0	2.5	/experiments/aot/S_ILSVRC2015_train_00417000.mp4	0.0	288.58140993118286	
61	269.2319769859314	fix_post	2		12	59.0	2.5	/experiments/aot/S_ILSVRC2015_train_00417000.mp4	0.0	289.1052508354187	0.10001707077026367
62	269.33199405670166	fix_pre	0		119	60.0	2.5	/experiments/aot/R_S_bing-www_msn_com_en-us_video_news_tommy-lasorda-salutes-national-league-champs_vp-AAtLThQ_4.mp4	0.0	289.20526790618896	0.9916820526123047
62	270.30801010131836	pulse	0	t		60.0	2.5	/experiments/aot/R_S_bing-www_msn_com_en-us_video_news_tommy-lasorda-salutes-national-league-champs_vp-AAtLThQ_4.mp4	0.0	290.18128395080566	
62	270.32367610931396	movie	1		160	60.0	2.5	/experiments/aot/R_S_bing-www_msn_com_en-us_video_news_tommy-lasorda-salutes-national-league-champs_vp-AAtLThQ_4.mp4	0.0	290.19694995880127	2.5082790851593018
62	271.9152810573578	pulse	1	t		60.0	2.5	/experiments/aot/R_S_bing-www_msn_com_en-us_video_news_tommy-lasorda-salutes-national-league-champs_vp-AAtLThQ_4.mp4	0.0	291.7885549068451	
62	272.83195519447327	fix_post	2		12	60.0	2.5	/experiments/aot/R_S_bing-www_msn_com_en-us_video_news_tommy-lasorda-salutes-national-league-champs_vp-AAtLThQ_4.mp4	0.0	292.70522904396057	0.09999585151672363
63	272.93195104599	fix_pre	0		120	61.0	2.5	/experiments/aot/R_S_yt-RO4mhuXBVrY_67.mp4	0.0	292.8052248954773	0.9999520778656006
63	273.5078899860382	pulse	0	t		61.0	2.5	/experiments/aot/R_S_yt-RO4mhuXBVrY_67.mp4	0.0	293.3811638355255	
63	273.9319031238556	movie	1		300	61.0	2.5	/experiments/aot/R_S_yt-RO4mhuXBVrY_67.mp4	0.0	293.8051769733429	2.499638080596924
63	275.10802602767944	pulse	1	t		61.0	2.5	/experiments/aot/R_S_yt-RO4mhuXBVrY_67.mp4	0.0	294.98129987716675	
63	276.4315412044525	fix_post	2		12	61.0	2.5	/experiments/aot/R_S_yt-RO4mhuXBVrY_67.mp4	0.0	296.3048150539398	0.10039496421813965
64	276.53193616867065	fix_pre	0		120	62.0	2.5	blank	1.0	296.40521001815796	1.0000338554382324
64	276.7079451084137	pulse	0	t		62.0	2.5	blank	1.0	296.581218957901	
64	277.5319700241089	movie	1		300	62.0	2.5	blank	1.0	297.4052438735962	2.5000011920928955
64	278.3078761100769	pulse	1	t		62.0	2.5	blank	1.0	298.1811499595642	
64	279.90707898139954	pulse	1	t		62.0	2.5	blank	1.0	299.78035283088684	
64	280.0319712162018	fix_post	2		12	62.0	2.5	blank	1.0	299.9052450656891	0.0995187759399414
65	280.1314899921417	fix_pre	0		120	63.0	2.5	/experiments/aot/S_production_ID_3712945.mp4	0.0	300.004763841629	1.0004730224609375
65	281.13196301460266	movie	1		163	63.0	2.5	/experiments/aot/S_production_ID_3712945.mp4	0.0	301.00523686408997	2.4995691776275635
65	281.5155110359192	pulse	1	t		63.0	2.5	/experiments/aot/S_production_ID_3712945.mp4	0.0	301.3887848854065	
65	283.1155002117157	pulse	1	t		63.0	2.5	/experiments/aot/S_production_ID_3712945.mp4	0.0	302.988774061203	
65	283.6315321922302	fix_post	2		12	63.0	2.5	/experiments/aot/S_production_ID_3712945.mp4	0.0	303.50480604171753	0.10000300407409668
66	283.7315351963043	fix_pre	0		119	64.0	2.5	/experiments/aot/R_S_yt-nYi_FfCjepk_74.mp4	0.0	303.6048090457916	0.9919829368591309
66	284.7079122066498	pulse	0	t		64.0	2.5	/experiments/aot/R_S_yt-nYi_FfCjepk_74.mp4	0.0	304.5811860561371	
66	284.72351813316345	movie	1		301	64.0	2.5	/experiments/aot/R_S_yt-nYi_FfCjepk_74.mp4	0.0	304.59679198265076	2.507983922958374
66	286.3112051486969	pulse	1	t		64.0	2.5	/experiments/aot/R_S_yt-nYi_FfCjepk_74.mp4	0.0	306.1844789981842	
66	287.2315020561218	fix_post	2		12	64.0	2.5	/experiments/aot/R_S_yt-nYi_FfCjepk_74.mp4	0.0	307.10477590560913	0.10005712509155273
67	287.3315591812134	fix_pre	0		120	65.0	2.5	/experiments/aot/R_S_yt-6xXEMHBQ08A_28.mp4	0.0	307.2048330307007	1.0004048347473145
67	287.90790700912476	pulse	0	t		65.0	2.5	/experiments/aot/R_S_yt-6xXEMHBQ08A_28.mp4	0.0	307.78118085861206	
67	288.3319640159607	movie	1		300	65.0	2.5	/experiments/aot/R_S_yt-6xXEMHBQ08A_28.mp4	0.0	308.205237865448	2.499946117401123
67	289.50803303718567	pulse	1	t		65.0	2.5	/experiments/aot/R_S_yt-6xXEMHBQ08A_28.mp4	0.0	309.381306886673	
67	290.8319101333618	fix_post	2		12	65.0	2.5	/experiments/aot/R_S_yt-6xXEMHBQ08A_28.mp4	0.0	310.7051839828491	0.10000491142272949
68	290.93191504478455	fix_pre	0		120	66.0	2.5	/experiments/aot/S_yt-4sSV4iIs8gQ_55.mp4	0.0	310.80518889427185	1.000046968460083
68	291.1079001426697	pulse	0	t		66.0	2.5	/experiments/aot/S_yt-4sSV4iIs8gQ_55.mp4	0.0	310.981173992157	
68	291.93196201324463	movie	1		300	66.0	2.5	/experiments/aot/S_yt-4sSV4iIs8gQ_55.mp4	0.0	311.80523586273193	2.499929189682007
68	292.7081251144409	pulse	1	t		66.0	2.5	/experiments/aot/S_yt-4sSV4iIs8gQ_55.mp4	0.0	312.5813989639282	
68	294.3079960346222	pulse	1	t		66.0	2.5	/experiments/aot/S_yt-4sSV4iIs8gQ_55.mp4	0.0	314.1812698841095	
68	294.43189120292664	fix_post	2		12	66.0	2.5	/experiments/aot/S_yt-4sSV4iIs8gQ_55.mp4	0.0	314.30516505241394	0.09998083114624023
69	294.5318720340729	fix_pre	0		120	67.0	2.5	/experiments/aot/S_yt-B8Sy53C6Pxw_8.mp4	0.0	314.4051458835602	0.9999799728393555
69	295.53185200691223	movie	1		299	67.0	2.5	/experiments/aot/S_yt-B8Sy53C6Pxw_8.mp4	0.0	315.40512585639954	2.499603033065796
69	295.90783405303955	pulse	1	t		67.0	2.5	/experiments/aot/S_yt-B8Sy53C6Pxw_8.mp4	0.0	315.78110790252686	
69	297.5078811645508	pulse	1	t		67.0	2.5	/experiments/aot/S_yt-B8Sy53C6Pxw_8.mp4	0.0	317.3811550140381	
69	298.031455039978	fix_post	2		12	67.0	2.5	/experiments/aot/S_yt-B8Sy53C6Pxw_8.mp4	0.0	317.90472888946533	0.1002950668334961
70	298.1317501068115	fix_pre	0		118	68.0	2.5	/experiments/aot/S_ILnEDG_aP1A_35.mp4	0.0	318.0050239562988	0.9833989143371582
70	299.10695815086365	pulse	0	t		68.0	2.5	/experiments/aot/S_ILnEDG_aP1A_35.mp4	0.0	318.98023200035095	
70	299.1151490211487	movie	1		301	68.0	2.5	/experiments/aot/S_ILnEDG_aP1A_35.mp4	0.0	318.988422870636	2.5082859992980957
70	300.7079792022705	pulse	1	t		68.0	2.5	/experiments/aot/S_ILnEDG_aP1A_35.mp4	0.0	320.5812530517578	
70	301.6234350204468	fix_post	2		12	68.0	2.5	/experiments/aot/S_ILnEDG_aP1A_35.mp4	0.0	321.4967088699341	0.1000370979309082
71	301.7234721183777	fix_pre	0		120	69.0	2.5	/experiments/aot/S_production_ID_4802710.mp4	0.0	321.596745967865	0.9996700286865234
71	302.3078761100769	pulse	0	t		69.0	2.5	/experiments/aot/S_production_ID_4802710.mp4	0.0	322.1811499595642	
71	302.7231421470642	movie	1		161	69.0	2.5	/experiments/aot/S_production_ID_4802710.mp4	0.0	322.5964159965515	2.499922037124634
71	303.9154131412506	pulse	1	t		69.0	2.5	/experiments/aot/S_production_ID_4802710.mp4	0.0	323.7886869907379	
71	305.22306418418884	fix_post	2		12	69.0	2.5	/experiments/aot/S_production_ID_4802710.mp4	0.0	325.09633803367615	0.10040283203125
72	305.3234670162201	fix_pre	0		120	70.0	2.5	blank	1.0	325.1967408657074	1.0000221729278564
72	305.5077691078186	pulse	0	t		70.0	2.5	blank	1.0	325.3810429573059	
72	306.32348918914795	movie	1		300	70.0	2.5	blank	1.0	326.19676303863525	2.499910831451416
72	307.10779905319214	pulse	1	t		70.0	2.5	blank	1.0	326.98107290267944	
72	308.70769214630127	pulse	1	t		70.0	2.5	blank	1.0	328.5809659957886	
72	308.82340002059937	fix_post	2		12	70.0	2.5	blank	1.0	328.69667387008667	0.10004711151123047
73	308.9234471321106	fix_pre	0		120	71.0	2.5	/experiments/aot/S_yt-4wYTkhggZNM_90.mp4	0.0	328.7967209815979	0.9995460510253906
73	309.922993183136	movie	1		300	71.0	2.5	/experiments/aot/S_yt-4wYTkhggZNM_90.mp4	0.0	329.7962670326233	2.500403881072998
73	310.3110511302948	pulse	1	t		71.0	2.5	/experiments/aot/S_yt-4wYTkhggZNM_90.mp4	0.0	330.1843249797821	
73	311.9109950065613	pulse	1	t		71.0	2.5	/experiments/aot/S_yt-4wYTkhggZNM_90.mp4	0.0	331.7842688560486	
73	312.423397064209	fix_post	2		12	71.0	2.5	/experiments/aot/S_yt-4wYTkhggZNM_90.mp4	0.0	332.2966709136963	0.10005497932434082
74	312.5234520435333	fix_pre	0		120	72.0	2.5	/experiments/aot/R_S_yt-h8wy6x6oytA_25.mp4	0.0	332.39672589302063	0.9999821186065674
74	313.5077610015869	pulse	0	t		72.0	2.5	/experiments/aot/R_S_yt-h8wy6x6oytA_25.mp4	0.0	333.3810348510742	
74	313.5234341621399	movie	1		301	72.0	2.5	/experiments/aot/R_S_yt-h8wy6x6oytA_25.mp4	0.0	333.3967080116272	2.507938861846924
74	315.11123514175415	pulse	1	t		72.0	2.5	/experiments/aot/R_S_yt-h8wy6x6oytA_25.mp4	0.0	334.98450899124146	
74	316.0313730239868	fix_post	2		12	72.0	2.5	/experiments/aot/R_S_yt-h8wy6x6oytA_25.mp4	0.0	335.9046468734741	0.10032916069030762
75	316.1317021846771	fix_pre	0		120	73.0	2.5	/experiments/aot/R_S_yt-Pc1ZlCvsPpc_5.mp4	0.0	336.00497603416443	1.0001189708709717
75	316.7153980731964	pulse	0	t		73.0	2.5	/experiments/aot/R_S_yt-Pc1ZlCvsPpc_5.mp4	0.0	336.5886719226837	
75	317.1318211555481	movie	1		299	73.0	2.5	/experiments/aot/R_S_yt-Pc1ZlCvsPpc_5.mp4	0.0	337.0050950050354	2.49965500831604
75	318.3148591518402	pulse	1	t		73.0	2.5	/experiments/aot/R_S_yt-Pc1ZlCvsPpc_5.mp4	0.0	338.1881330013275	
75	319.63147616386414	fix_post	2		12	73.0	2.5	/experiments/aot/R_S_yt-Pc1ZlCvsPpc_5.mp4	0.0	339.50475001335144	0.10001897811889648
76	319.73149514198303	fix_pre	0		120	74.0	2.5	/experiments/aot/R_S_yt-qurTr1BJMec_244.mp4	0.0	339.60476899147034	1.000190019607544
76	319.9150171279907	pulse	0	t		74.0	2.5	/experiments/aot/R_S_yt-qurTr1BJMec_244.mp4	0.0	339.788290977478	
76	320.7316851615906	movie	1		300	74.0	2.5	/experiments/aot/R_S_yt-qurTr1BJMec_244.mp4	0.0	340.6049590110779	2.499631881713867
76	321.50779604911804	pulse	1	t		74.0	2.5	/experiments/aot/R_S_yt-qurTr1BJMec_244.mp4	0.0	341.38106989860535	
76	323.10967898368835	pulse	1	t		74.0	2.5	/experiments/aot/R_S_yt-qurTr1BJMec_244.mp4	0.0	342.98295283317566	
76	323.23131704330444	fix_post	2		12	74.0	2.5	/experiments/aot/R_S_yt-qurTr1BJMec_244.mp4	0.0	343.10459089279175	0.10039997100830078
77	323.33171701431274	fix_pre	0		120	75.0	2.5	/experiments/aot/S_yt-6MwA-jx56AQ_612.mp4	0.0	343.20499086380005	0.9995901584625244
77	324.33130717277527	movie	1		300	75.0	2.5	/experiments/aot/S_yt-6MwA-jx56AQ_612.mp4	0.0	344.2045810222626	2.4999539852142334
77	324.70782709121704	pulse	1	t		75.0	2.5	/experiments/aot/S_yt-6MwA-jx56AQ_612.mp4	0.0	344.58110094070435	
77	326.30838203430176	pulse	1	t		75.0	2.5	/experiments/aot/S_yt-6MwA-jx56AQ_612.mp4	0.0	346.18165588378906	
77	326.8312611579895	fix_post	2		12	75.0	2.5	/experiments/aot/S_yt-6MwA-jx56AQ_612.mp4	0.0	346.7045350074768	0.09998703002929688
78	326.9312481880188	fix_pre	0		119	76.0	2.5	/experiments/aot/R_S_ILSVRC2015_train_00743006.mp4	0.0	346.8045220375061	0.9920690059661865
78	327.90773701667786	pulse	0	t		76.0	2.5	/experiments/aot/R_S_ILSVRC2015_train_00743006.mp4	0.0	347.78101086616516	
78	327.923317193985	movie	1		301	76.0	2.5	/experiments/aot/R_S_ILSVRC2015_train_00743006.mp4	0.0	347.7965910434723	2.5083730220794678
78	329.51091599464417	pulse	1	t		76.0	2.5	/experiments/aot/R_S_ILSVRC2015_train_00743006.mp4	0.0	349.38418984413147	
78	330.43169021606445	fix_post	2		12	76.0	2.5	/experiments/aot/R_S_ILSVRC2015_train_00743006.mp4	0.0	350.30496406555176	0.0999908447265625
79	330.531681060791	fix_pre	0		120	77.0	2.5	blank	1.0	350.4049549102783	0.999946117401123
79	331.1076521873474	pulse	0	t		77.0	2.5	blank	1.0	350.9809260368347	
79	331.53162717819214	movie	1		300	77.0	2.5	blank	1.0	351.40490102767944	2.5001068115234375
79	332.71518421173096	pulse	1	t		77.0	2.5	blank	1.0	352.58845806121826	
79	334.0317339897156	fix_post	2		12	77.0	2.5	blank	1.0	353.9050078392029	0.09949016571044922
80	334.131224155426	fix_pre	0		120	78.0	2.5	/experiments/aot/R_S_bing-www_msn_com_en-us_video_news_tommy-lasorda-salutes-national-league-champs_vp-AAtLThQ_4.mp4	0.0	354.00449800491333	1.000499963760376
80	334.3151240348816	pulse	0	t		78.0	2.5	/experiments/aot/R_S_bing-www_msn_com_en-us_video_news_tommy-lasorda-salutes-national-league-champs_vp-AAtLThQ_4.mp4	0.0	354.1883978843689	
80	335.1317241191864	movie	1		160	78.0	2.5	/experiments/aot/R_S_bing-www_msn_com_en-us_video_news_tommy-lasorda-salutes-national-league-champs_vp-AAtLThQ_4.mp4	0.0	355.0049979686737	2.499500036239624
80	335.915185213089	pulse	1	t		78.0	2.5	/experiments/aot/R_S_bing-www_msn_com_en-us_video_news_tommy-lasorda-salutes-national-league-champs_vp-AAtLThQ_4.mp4	0.0	355.7884590625763	
80	337.5110561847687	pulse	1	t		78.0	2.5	/experiments/aot/R_S_bing-www_msn_com_en-us_video_news_tommy-lasorda-salutes-national-league-champs_vp-AAtLThQ_4.mp4	0.0	357.384330034256	
80	337.631224155426	fix_post	2		12	78.0	2.5	/experiments/aot/R_S_bing-www_msn_com_en-us_video_news_tommy-lasorda-salutes-national-league-champs_vp-AAtLThQ_4.mp4	0.0	357.50449800491333	0.10039496421813965
81	337.73161911964417	fix_pre	0		120	79.0	2.5	/experiments/aot/S_wc-jujp1kJRHrkJ_54.mp4	0.0	357.60489296913147	0.999553918838501
81	338.73117303848267	movie	1		300	79.0	2.5	/experiments/aot/S_wc-jujp1kJRHrkJ_54.mp4	0.0	358.60444688796997	2.500520944595337
81	339.1078290939331	pulse	1	t		79.0	2.5	/experiments/aot/S_wc-jujp1kJRHrkJ_54.mp4	0.0	358.9811029434204	
81	340.7078731060028	pulse	1	t		79.0	2.5	/experiments/aot/S_wc-jujp1kJRHrkJ_54.mp4	0.0	360.5811469554901	
81	341.231693983078	fix_post	2		12	79.0	2.5	/experiments/aot/S_wc-jujp1kJRHrkJ_54.mp4	0.0	361.1049678325653	0.09984517097473145
82	341.33153915405273	fix_pre	0		119	80.0	2.5	/experiments/aot/S_yt-GaJaxp546lc_22.mp4	0.0	361.20481300354004	0.9916789531707764
82	342.3076100349426	pulse	0	t		80.0	2.5	/experiments/aot/S_yt-GaJaxp546lc_22.mp4	0.0	362.18088388442993	
82	342.3232181072235	movie	1		301	80.0	2.5	/experiments/aot/S_yt-GaJaxp546lc_22.mp4	0.0	362.1964919567108	2.508302927017212
82	343.91101908683777	pulse	1	t		80.0	2.5	/experiments/aot/S_yt-GaJaxp546lc_22.mp4	0.0	363.7842929363251	
82	344.8315210342407	fix_post	2		12	80.0	2.5	/experiments/aot/S_yt-GaJaxp546lc_22.mp4	0.0	364.704794883728	0.10006594657897949
83	344.9315869808197	fix_pre	0		120	81.0	2.5	/experiments/aot/S_yt-rB3YVZvA78w_20.mp4	0.0	364.804860830307	1.000028133392334
83	345.50757598876953	pulse	0	t		81.0	2.5	/experiments/aot/S_yt-rB3YVZvA78w_20.mp4	0.0	365.38084983825684	
83	345.93161511421204	movie	1		300	81.0	2.5	/experiments/aot/S_yt-rB3YVZvA78w_20.mp4	0.0	365.80488896369934	2.4999330043792725
83	347.1076850891113	pulse	1	t		81.0	2.5	/experiments/aot/S_yt-rB3YVZvA78w_20.mp4	0.0	366.98095893859863	
83	348.4315481185913	fix_post	2		12	81.0	2.5	/experiments/aot/S_yt-rB3YVZvA78w_20.mp4	0.0	368.3048219680786	0.10004496574401855
84	348.5315930843353	fix_pre	0		120	82.0	2.5	/experiments/aot/R_S_production_ID_3712945.mp4	0.0	368.40486693382263	0.9995760917663574
84	348.7152531147003	pulse	0	t		82.0	2.5	/experiments/aot/R_S_production_ID_3712945.mp4	0.0	368.5885269641876	
84	349.5311691761017	movie	1		161	82.0	2.5	/experiments/aot/R_S_production_ID_3712945.mp4	0.0	369.404443025589	2.5004289150238037
84	350.3151271343231	pulse	1	t		82.0	2.5	/experiments/aot/R_S_production_ID_3712945.mp4	0.0	370.1884009838104	
84	351.9114031791687	pulse	1	t		82.0	2.5	/experiments/aot/R_S_production_ID_3712945.mp4	0.0	371.784677028656	
84	352.0315980911255	fix_post	2		12	82.0	2.5	/experiments/aot/R_S_production_ID_3712945.mp4	0.0	371.9048719406128	0.09999203681945801
85	352.13159012794495	fix_pre	0		120	83.0	2.5	blank	1.0	372.00486397743225	1.000133991241455
85	353.1317241191864	movie	1		300	83.0	2.5	blank	1.0	373.0049979686737	2.499856948852539
85	353.51511907577515	pulse	1	t		83.0	2.5	blank	1.0	373.38839292526245	
85	355.10743498802185	pulse	1	t		83.0	2.5	blank	1.0	374.98070883750916	
85	355.63158106803894	fix_post	2		12	83.0	2.5	blank	1.0	375.50485491752625	0.10001802444458008
87	355.7315990924835	stim	0		1716					375.6048729419708	14.299864053726196
87	356.70770716667175	pulse	0	t						376.58098101615906	
87	358.3075830936432	pulse	0	t						378.1808569431305	
87	359.90764808654785	pulse	0	t						379.78092193603516	
87	361.50767517089844	pulse	0	t						381.38094902038574	
87	363.1075210571289	pulse	0	t						382.9807949066162	
87	364.7149941921234	pulse	0	t						384.5882680416107	
87	366.31499314308167	pulse	0	t						386.18826699256897	
87	367.91499304771423	pulse	0	t						387.78826689720154	
87	369.50755310058594	pulse	0	t						389.38082695007324	
