trial_nr	onset	event_type	phase	response	nr_frames	movie_index	movie_duration	movie_file	blank	onset_abs	duration
0	0.20839595794677734	stim	0		1					17.298964023590088	0.008183002471923828
0	0.20309805870056152	response	0	space						17.293666124343872	
1	0.21657896041870117	stim	0		2469					17.30714702606201	20.590996026992798
1	20.793009042739868	pulse	0	t						37.88357710838318	
1	20.8075749874115	stim	1		1715					37.89814305305481	14.29756498336792
1	22.38678216934204	pulse	1	t						39.47735023498535	
1	23.986967086791992	pulse	1	t						41.0775351524353	
1	25.587273120880127	pulse	1	t						42.67784118652344	
1	27.187414169311523	pulse	1	t						44.277982234954834	
1	28.78769302368164	pulse	1	t						45.87826108932495	
1	30.387879133224487	pulse	1	t						47.4784471988678	
1	31.988147974014282	pulse	1	t						49.07871603965759	
1	33.58836007118225	pulse	1	t						50.67892813682556	
2	35.10513997077942	fix_pre	0		11	0.0	2.5	/experiments/knapen_AOT/AOT_stimuli/rescaled_final/1157_fw.mp4	0.0	52.19570803642273	0.09160208702087402
2	35.188722133636475	pulse	0	t		0.0	2.5	/experiments/knapen_AOT/AOT_stimuli/rescaled_final/1157_fw.mp4	0.0	52.279290199279785	
2	35.19674205780029	movie	1		243	0.0	2.5	/experiments/knapen_AOT/AOT_stimuli/rescaled_final/1157_fw.mp4	0.0	52.2873101234436	2.508776903152466
2	36.78943395614624	pulse	1	t		0.0	2.5	/experiments/knapen_AOT/AOT_stimuli/rescaled_final/1157_fw.mp4	0.0	53.88000202178955	
2	37.70551896095276	fix_post	2		12	0.0	2.5	/experiments/knapen_AOT/AOT_stimuli/rescaled_final/1157_fw.mp4	0.0	54.79608702659607	0.10002708435058594
3	37.805546045303345	fix_pre	0		120	1.0	2.5	/experiments/knapen_AOT/AOT_stimuli/rescaled_final/2134_rv.mp4	0.0	54.896114110946655	1.0001239776611328
3	38.38924598693848	pulse	0	t		1.0	2.5	/experiments/knapen_AOT/AOT_stimuli/rescaled_final/2134_rv.mp4	0.0	55.47981405258179	
3	38.80567002296448	movie	1		243	1.0	2.5	/experiments/knapen_AOT/AOT_stimuli/rescaled_final/2134_rv.mp4	0.0	55.89623808860779	2.500504970550537
3	39.98951005935669	pulse	1	t		1.0	2.5	/experiments/knapen_AOT/AOT_stimuli/rescaled_final/2134_rv.mp4	0.0	57.080078125	
3	41.306174993515015	fix_post	2		12	1.0	2.5	/experiments/knapen_AOT/AOT_stimuli/rescaled_final/2134_rv.mp4	0.0	58.396743059158325	0.09990119934082031
4	41.406076192855835	fix_pre	0		120	2.0	2.5	/experiments/knapen_AOT/AOT_stimuli/rescaled_final/0487_fw.mp4	0.0	58.496644258499146	1.0001189708709717
4	41.58208918571472	pulse	0	t		2.0	2.5	/experiments/knapen_AOT/AOT_stimuli/rescaled_final/0487_fw.mp4	0.0	58.67265725135803	
4	42.40619516372681	movie	1		244	2.0	2.5	/experiments/knapen_AOT/AOT_stimuli/rescaled_final/0487_fw.mp4	0.0	59.49676322937012	2.500437021255493
4	43.18296718597412	pulse	1	t		2.0	2.5	/experiments/knapen_AOT/AOT_stimuli/rescaled_final/0487_fw.mp4	0.0	60.27353525161743	
4	44.79006505012512	pulse	1	t		2.0	2.5	/experiments/knapen_AOT/AOT_stimuli/rescaled_final/0487_fw.mp4	0.0	61.88063311576843	
4	44.9066321849823	fix_post	2		12	2.0	2.5	/experiments/knapen_AOT/AOT_stimuli/rescaled_final/0487_fw.mp4	0.0	61.99720025062561	0.09997677803039551
5	45.006608963012695	fix_pre	0		120	3.0	2.5	/experiments/knapen_AOT/AOT_stimuli/rescaled_final/0346_rv.mp4	0.0	62.097177028656006	1.0000841617584229
5	46.00669312477112	movie	1		242	3.0	2.5	/experiments/knapen_AOT/AOT_stimuli/rescaled_final/0346_rv.mp4	0.0	63.09726119041443	2.492137908935547
5	46.3908851146698	pulse	1	t		3.0	2.5	/experiments/knapen_AOT/AOT_stimuli/rescaled_final/0346_rv.mp4	0.0	63.48145318031311	
5	47.98241996765137	pulse	1	t		3.0	2.5	/experiments/knapen_AOT/AOT_stimuli/rescaled_final/0346_rv.mp4	0.0	65.07298803329468	
5	48.498831033706665	fix_post	2		12	3.0	2.5	/experiments/knapen_AOT/AOT_stimuli/rescaled_final/0346_rv.mp4	0.0	65.58939909934998	0.09992504119873047
6	48.598756074905396	fix_pre	0		119	4.0	2.5	/experiments/knapen_AOT/AOT_stimuli/rescaled_final/1320_rv.mp4	0.0	65.6893241405487	0.9918780326843262
6	49.58235216140747	pulse	0	t		4.0	2.5	/experiments/knapen_AOT/AOT_stimuli/rescaled_final/1320_rv.mp4	0.0	66.67292022705078	
6	49.59063410758972	movie	1		244	4.0	2.5	/experiments/knapen_AOT/AOT_stimuli/rescaled_final/1320_rv.mp4	0.0	66.68120217323303	2.508641004562378
6	51.18415117263794	pulse	1	t		4.0	2.5	/experiments/knapen_AOT/AOT_stimuli/rescaled_final/1320_rv.mp4	0.0	68.27471923828125	
6	52.0992751121521	fix_post	2		12	4.0	2.5	/experiments/knapen_AOT/AOT_stimuli/rescaled_final/1320_rv.mp4	0.0	69.18984317779541	0.1000669002532959
7	52.199342012405396	fix_pre	0		120	5.0	2.5	blank	1.0	69.2899100780487	1.0001599788665771
7	52.78286409378052	pulse	0	t		5.0	2.5	blank	1.0	69.87343215942383	
7	53.19950199127197	movie	1		300	5.0	2.5	blank	1.0	70.29007005691528	2.500338077545166
7	54.383257150650024	pulse	1	t		5.0	2.5	blank	1.0	71.47382521629333	
7	55.69984006881714	fix_post	2		12	5.0	2.5	blank	1.0	72.79040813446045	0.1000070571899414
8	55.79984712600708	fix_pre	0		120	6.0	2.5	/experiments/knapen_AOT/AOT_stimuli/rescaled_final/0388_rv.mp4	0.0	72.89041519165039	1.0002410411834717
8	55.983638048172	pulse	0	t		6.0	2.5	/experiments/knapen_AOT/AOT_stimuli/rescaled_final/0388_rv.mp4	0.0	73.07420611381531	
8	56.80008816719055	movie	1		243	6.0	2.5	/experiments/knapen_AOT/AOT_stimuli/rescaled_final/0388_rv.mp4	0.0	73.89065623283386	2.5004079341888428
8	57.58361315727234	pulse	1	t		6.0	2.5	/experiments/knapen_AOT/AOT_stimuli/rescaled_final/0388_rv.mp4	0.0	74.67418122291565	
8	59.18362998962402	pulse	1	t		6.0	2.5	/experiments/knapen_AOT/AOT_stimuli/rescaled_final/0388_rv.mp4	0.0	76.27419805526733	
8	59.300496101379395	fix_post	2		12	6.0	2.5	/experiments/knapen_AOT/AOT_stimuli/rescaled_final/0388_rv.mp4	0.0	76.3910641670227	0.09990787506103516
9	59.40040397644043	fix_pre	0		119	7.0	2.5	/experiments/knapen_AOT/AOT_stimuli/rescaled_final/1172_rv.mp4	0.0	76.49097204208374	0.9917900562286377
9	60.39219403266907	movie	1		242	7.0	2.5	/experiments/knapen_AOT/AOT_stimuli/rescaled_final/1172_rv.mp4	0.0	77.48276209831238	2.5004520416259766
9	60.784218072891235	pulse	1	t		7.0	2.5	/experiments/knapen_AOT/AOT_stimuli/rescaled_final/1172_rv.mp4	0.0	77.87478613853455	
9	62.38443207740784	pulse	1	t		7.0	2.5	/experiments/knapen_AOT/AOT_stimuli/rescaled_final/1172_rv.mp4	0.0	79.47500014305115	
9	62.892646074295044	fix_post	2		12	7.0	2.5	/experiments/knapen_AOT/AOT_stimuli/rescaled_final/1172_rv.mp4	0.0	79.98321413993835	0.09994292259216309
10	62.99258899688721	fix_pre	0		120	8.0	2.5	/experiments/knapen_AOT/AOT_stimuli/rescaled_final/0561_fw.mp4	0.0	80.08315706253052	1.0001251697540283
10	63.98460817337036	pulse	0	t		8.0	2.5	/experiments/knapen_AOT/AOT_stimuli/rescaled_final/0561_fw.mp4	0.0	81.07517623901367	
10	63.992714166641235	movie	1		243	8.0	2.5	/experiments/knapen_AOT/AOT_stimuli/rescaled_final/0561_fw.mp4	0.0	81.08328223228455	2.508697986602783
10	65.58521604537964	pulse	1	t		8.0	2.5	/experiments/knapen_AOT/AOT_stimuli/rescaled_final/0561_fw.mp4	0.0	82.67578411102295	
10	66.50141215324402	fix_post	2		12	8.0	2.5	/experiments/knapen_AOT/AOT_stimuli/rescaled_final/0561_fw.mp4	0.0	83.59198021888733	0.10009503364562988
11	66.60150718688965	fix_pre	0		120	9.0	2.5	/experiments/knapen_AOT/AOT_stimuli/rescaled_final/1195_rv.mp4	0.0	83.69207525253296	1.0001308917999268
11	67.18504309654236	pulse	0	t		9.0	2.5	/experiments/knapen_AOT/AOT_stimuli/rescaled_final/1195_rv.mp4	0.0	84.27561116218567	
11	67.60163807868958	movie	1		243	9.0	2.5	/experiments/knapen_AOT/AOT_stimuli/rescaled_final/1195_rv.mp4	0.0	84.69220614433289	2.5005428791046143
11	68.78541207313538	pulse	1	t		9.0	2.5	/experiments/knapen_AOT/AOT_stimuli/rescaled_final/1195_rv.mp4	0.0	85.87598013877869	
11	70.10218095779419	fix_post	2		12	9.0	2.5	/experiments/knapen_AOT/AOT_stimuli/rescaled_final/1195_rv.mp4	0.0	87.1927490234375	0.09988522529602051
12	70.20206618309021	fix_pre	0		120	10.0	2.5	/experiments/knapen_AOT/AOT_stimuli/rescaled_final/0088_rv.mp4	0.0	87.29263424873352	1.0002048015594482
12	70.38562512397766	pulse	0	t		10.0	2.5	/experiments/knapen_AOT/AOT_stimuli/rescaled_final/0088_rv.mp4	0.0	87.47619318962097	
12	71.20227098464966	movie	1		243	10.0	2.5	/experiments/knapen_AOT/AOT_stimuli/rescaled_final/0088_rv.mp4	0.0	88.29283905029297	2.500452995300293
12	71.98579001426697	pulse	1	t		10.0	2.5	/experiments/knapen_AOT/AOT_stimuli/rescaled_final/0088_rv.mp4	0.0	89.07635807991028	
12	73.58590698242188	pulse	1	t		10.0	2.5	/experiments/knapen_AOT/AOT_stimuli/rescaled_final/0088_rv.mp4	0.0	90.67647504806519	
12	73.70272397994995	fix_post	2		12	10.0	2.5	/experiments/knapen_AOT/AOT_stimuli/rescaled_final/0088_rv.mp4	0.0	90.79329204559326	0.0998380184173584
13	73.80256199836731	fix_pre	0		119	11.0	2.5	/experiments/knapen_AOT/AOT_stimuli/rescaled_final/0277_fw.mp4	0.0	90.89313006401062	0.9917900562286377
13	74.79435205459595	movie	1		243	11.0	2.5	/experiments/knapen_AOT/AOT_stimuli/rescaled_final/0277_fw.mp4	0.0	91.88492012023926	2.5003480911254883
13	75.18633699417114	pulse	1	t		11.0	2.5	/experiments/knapen_AOT/AOT_stimuli/rescaled_final/0277_fw.mp4	0.0	92.27690505981445	
13	76.786612033844	pulse	1	t		11.0	2.5	/experiments/knapen_AOT/AOT_stimuli/rescaled_final/0277_fw.mp4	0.0	93.8771800994873	
13	77.29470014572144	fix_post	2		12	11.0	2.5	/experiments/knapen_AOT/AOT_stimuli/rescaled_final/0277_fw.mp4	0.0	94.38526821136475	0.10001587867736816
14	77.3947160243988	fix_pre	0		120	12.0	2.5	/experiments/knapen_AOT/AOT_stimuli/rescaled_final/1168_rv.mp4	0.0	94.48528409004211	1.0001411437988281
14	78.38682103157043	pulse	0	t		12.0	2.5	/experiments/knapen_AOT/AOT_stimuli/rescaled_final/1168_rv.mp4	0.0	95.47738909721375	
14	78.39485716819763	movie	1		244	12.0	2.5	/experiments/knapen_AOT/AOT_stimuli/rescaled_final/1168_rv.mp4	0.0	95.48542523384094	2.5087499618530273
14	79.9882161617279	pulse	1	t		12.0	2.5	/experiments/knapen_AOT/AOT_stimuli/rescaled_final/1168_rv.mp4	0.0	97.07878422737122	
14	80.90360713005066	fix_post	2		12	12.0	2.5	/experiments/knapen_AOT/AOT_stimuli/rescaled_final/1168_rv.mp4	0.0	97.99417519569397	0.1000518798828125
15	81.00365900993347	fix_pre	0		120	13.0	2.5	/experiments/knapen_AOT/AOT_stimuli/rescaled_final/0355_fw.mp4	0.0	98.09422707557678	1.0000791549682617
15	81.58739709854126	pulse	0	t		13.0	2.5	/experiments/knapen_AOT/AOT_stimuli/rescaled_final/0355_fw.mp4	0.0	98.67796516418457	
15	82.00373816490173	movie	1		244	13.0	2.5	/experiments/knapen_AOT/AOT_stimuli/rescaled_final/0355_fw.mp4	0.0	99.09430623054504	2.5003700256347656
15	83.18766617774963	pulse	1	t		13.0	2.5	/experiments/knapen_AOT/AOT_stimuli/rescaled_final/0355_fw.mp4	0.0	100.27823424339294	
15	84.5041081905365	fix_post	2		12	13.0	2.5	/experiments/knapen_AOT/AOT_stimuli/rescaled_final/0355_fw.mp4	0.0	101.59467625617981	0.10009884834289551
16	84.6042070388794	fix_pre	0		117	14.0	2.5	blank	1.0	101.6947751045227	1.0001130104064941
16	84.78774809837341	pulse	0	t		14.0	2.5	blank	1.0	101.87831616401672	
16	85.60432004928589	movie	1		300	14.0	2.5	blank	1.0	102.6948881149292	2.500352144241333
16	86.38789200782776	pulse	1	t		14.0	2.5	blank	1.0	103.47846007347107	
16	87.98826813697815	pulse	1	t		14.0	2.5	blank	1.0	105.07883620262146	
16	88.10467219352722	fix_post	2		12	14.0	2.5	blank	1.0	105.19524025917053	0.10005378723144531
17	88.20472598075867	fix_pre	0		120	15.0	2.5	/experiments/knapen_AOT/AOT_stimuli/rescaled_final/0725_rv.mp4	0.0	105.29529404640198	1.0000979900360107
17	89.20482397079468	movie	1		243	15.0	2.5	/experiments/knapen_AOT/AOT_stimuli/rescaled_final/0725_rv.mp4	0.0	106.29539203643799	2.4920341968536377
17	89.58879208564758	pulse	1	t		15.0	2.5	/experiments/knapen_AOT/AOT_stimuli/rescaled_final/0725_rv.mp4	0.0	106.6793601512909	
17	91.18864011764526	pulse	1	t		15.0	2.5	/experiments/knapen_AOT/AOT_stimuli/rescaled_final/0725_rv.mp4	0.0	108.27920818328857	
17	91.69685816764832	fix_post	2		12	15.0	2.5	/experiments/knapen_AOT/AOT_stimuli/rescaled_final/0725_rv.mp4	0.0	108.78742623329163	0.10004782676696777
18	91.79690599441528	fix_pre	0		120	16.0	2.5	/experiments/knapen_AOT/AOT_stimuli/rescaled_final/0731_fw.mp4	0.0	108.8874740600586	1.0001511573791504
18	92.78885817527771	pulse	0	t		16.0	2.5	/experiments/knapen_AOT/AOT_stimuli/rescaled_final/0731_fw.mp4	0.0	109.87942624092102	
18	92.79705715179443	movie	1		245	16.0	2.5	/experiments/knapen_AOT/AOT_stimuli/rescaled_final/0731_fw.mp4	0.0	109.88762521743774	2.508694887161255
18	94.38973808288574	pulse	1	t		16.0	2.5	/experiments/knapen_AOT/AOT_stimuli/rescaled_final/0731_fw.mp4	0.0	111.48030614852905	
18	95.30575203895569	fix_post	2		12	16.0	2.5	/experiments/knapen_AOT/AOT_stimuli/rescaled_final/0731_fw.mp4	0.0	112.396320104599	0.10010910034179688
19	95.40586113929749	fix_pre	0		120	17.0	2.5	/experiments/knapen_AOT/AOT_stimuli/rescaled_final/1223_fw.mp4	0.0	112.4964292049408	1.0001020431518555
19	95.98935413360596	pulse	0	t		17.0	2.5	/experiments/knapen_AOT/AOT_stimuli/rescaled_final/1223_fw.mp4	0.0	113.07992219924927	
19	96.40596318244934	movie	1		243	17.0	2.5	/experiments/knapen_AOT/AOT_stimuli/rescaled_final/1223_fw.mp4	0.0	113.49653124809265	2.5004489421844482
19	97.58978509902954	pulse	1	t		17.0	2.5	/experiments/knapen_AOT/AOT_stimuli/rescaled_final/1223_fw.mp4	0.0	114.68035316467285	
19	98.90641212463379	fix_post	2		12	17.0	2.5	/experiments/knapen_AOT/AOT_stimuli/rescaled_final/1223_fw.mp4	0.0	115.9969801902771	0.0999898910522461
20	99.00640201568604	fix_pre	0		120	18.0	2.5	/experiments/knapen_AOT/AOT_stimuli/rescaled_final/0082_fw.mp4	0.0	116.09697008132935	1.0000901222229004
20	99.18984913825989	pulse	0	t		18.0	2.5	/experiments/knapen_AOT/AOT_stimuli/rescaled_final/0082_fw.mp4	0.0	116.2804172039032	
20	100.00649213790894	movie	1		243	18.0	2.5	/experiments/knapen_AOT/AOT_stimuli/rescaled_final/0082_fw.mp4	0.0	117.09706020355225	2.500309944152832
20	100.79006218910217	pulse	1	t		18.0	2.5	/experiments/knapen_AOT/AOT_stimuli/rescaled_final/0082_fw.mp4	0.0	117.88063025474548	
20	102.39034914970398	pulse	1	t		18.0	2.5	/experiments/knapen_AOT/AOT_stimuli/rescaled_final/0082_fw.mp4	0.0	119.48091721534729	
20	102.50680208206177	fix_post	2		12	18.0	2.5	/experiments/knapen_AOT/AOT_stimuli/rescaled_final/0082_fw.mp4	0.0	119.59737014770508	0.1000070571899414
21	102.60680913925171	fix_pre	0		120	19.0	2.5	/experiments/knapen_AOT/AOT_stimuli/rescaled_final/1933_fw.mp4	0.0	119.69737720489502	1.0001819133758545
21	103.60699105262756	movie	1		242	19.0	2.5	/experiments/knapen_AOT/AOT_stimuli/rescaled_final/1933_fw.mp4	0.0	120.69755911827087	2.4921040534973145
21	103.99104499816895	pulse	1	t		19.0	2.5	/experiments/knapen_AOT/AOT_stimuli/rescaled_final/1933_fw.mp4	0.0	121.08161306381226	
21	105.58342909812927	pulse	1	t		19.0	2.5	/experiments/knapen_AOT/AOT_stimuli/rescaled_final/1933_fw.mp4	0.0	122.67399716377258	
21	106.09909510612488	fix_post	2		12	19.0	2.5	/experiments/knapen_AOT/AOT_stimuli/rescaled_final/1933_fw.mp4	0.0	123.18966317176819	0.10001707077026367
22	106.19911217689514	fix_pre	0		119	20.0	2.5	blank	1.0	123.28968024253845	0.9917418956756592
22	107.18274712562561	pulse	0	t		20.0	2.5	blank	1.0	124.27331519126892	
22	107.1908540725708	movie	1		301	20.0	2.5	blank	1.0	124.28142213821411	2.5087339878082275
22	108.7830970287323	pulse	1	t		20.0	2.5	blank	1.0	125.87366509437561	
22	109.69958806037903	fix_post	2		12	20.0	2.5	blank	1.0	126.79015612602234	0.10004496574401855
23	109.79963302612305	fix_pre	0		120	21.0	2.5	/experiments/knapen_AOT/AOT_stimuli/rescaled_final/1100_rv.mp4	0.0	126.89020109176636	1.000067949295044
23	110.38318610191345	pulse	0	t		21.0	2.5	/experiments/knapen_AOT/AOT_stimuli/rescaled_final/1100_rv.mp4	0.0	127.47375416755676	
23	110.79970097541809	movie	1		242	21.0	2.5	/experiments/knapen_AOT/AOT_stimuli/rescaled_final/1100_rv.mp4	0.0	127.8902690410614	2.50052809715271
23	111.98341298103333	pulse	1	t		21.0	2.5	/experiments/knapen_AOT/AOT_stimuli/rescaled_final/1100_rv.mp4	0.0	129.07398104667664	
23	113.3002290725708	fix_post	2		12	21.0	2.5	/experiments/knapen_AOT/AOT_stimuli/rescaled_final/1100_rv.mp4	0.0	130.3907971382141	0.09989690780639648
24	113.4001259803772	fix_pre	0		120	22.0	2.5	/experiments/knapen_AOT/AOT_stimuli/rescaled_final/2098_fw.mp4	0.0	130.4906940460205	1.0001020431518555
24	113.58372902870178	pulse	0	t		22.0	2.5	/experiments/knapen_AOT/AOT_stimuli/rescaled_final/2098_fw.mp4	0.0	130.6742970943451	
24	114.40022802352905	movie	1		244	22.0	2.5	/experiments/knapen_AOT/AOT_stimuli/rescaled_final/2098_fw.mp4	0.0	131.49079608917236	2.500386953353882
24	115.18389296531677	pulse	1	t		22.0	2.5	/experiments/knapen_AOT/AOT_stimuli/rescaled_final/2098_fw.mp4	0.0	132.27446103096008	
24	116.78430199623108	pulse	1	t		22.0	2.5	/experiments/knapen_AOT/AOT_stimuli/rescaled_final/2098_fw.mp4	0.0	133.8748700618744	
24	116.90061497688293	fix_post	2		12	22.0	2.5	/experiments/knapen_AOT/AOT_stimuli/rescaled_final/2098_fw.mp4	0.0	133.99118304252625	0.10009407997131348
25	117.00070905685425	fix_pre	0		120	23.0	2.5	/experiments/knapen_AOT/AOT_stimuli/rescaled_final/0207_rv.mp4	0.0	134.09127712249756	1.0000779628753662
25	118.00078701972961	movie	1		241	23.0	2.5	/experiments/knapen_AOT/AOT_stimuli/rescaled_final/0207_rv.mp4	0.0	135.09135508537292	2.492079019546509
25	118.38508605957031	pulse	1	t		23.0	2.5	/experiments/knapen_AOT/AOT_stimuli/rescaled_final/0207_rv.mp4	0.0	135.47565412521362	
25	119.98465895652771	pulse	1	t		23.0	2.5	/experiments/knapen_AOT/AOT_stimuli/rescaled_final/0207_rv.mp4	0.0	137.07522702217102	
25	120.49286603927612	fix_post	2		12	23.0	2.5	/experiments/knapen_AOT/AOT_stimuli/rescaled_final/0207_rv.mp4	0.0	137.58343410491943	0.10001206398010254
26	120.59287810325623	fix_pre	0		120	24.0	2.5	/experiments/knapen_AOT/AOT_stimuli/rescaled_final/0192_fw.mp4	0.0	137.68344616889954	1.000140905380249
26	121.5848491191864	pulse	0	t		24.0	2.5	/experiments/knapen_AOT/AOT_stimuli/rescaled_final/0192_fw.mp4	0.0	138.6754171848297	
26	121.59301900863647	movie	1		245	24.0	2.5	/experiments/knapen_AOT/AOT_stimuli/rescaled_final/0192_fw.mp4	0.0	138.68358707427979	2.5086820125579834
26	123.18585801124573	pulse	1	t		24.0	2.5	/experiments/knapen_AOT/AOT_stimuli/rescaled_final/0192_fw.mp4	0.0	140.27642607688904	
26	124.10170102119446	fix_post	2		12	24.0	2.5	/experiments/knapen_AOT/AOT_stimuli/rescaled_final/0192_fw.mp4	0.0	141.19226908683777	0.10001897811889648
27	124.20171999931335	fix_pre	0		120	25.0	2.5	/experiments/knapen_AOT/AOT_stimuli/rescaled_final/0939_rv.mp4	0.0	141.29228806495667	1.0001511573791504
27	124.7853729724884	pulse	0	t		25.0	2.5	/experiments/knapen_AOT/AOT_stimuli/rescaled_final/0939_rv.mp4	0.0	141.8759410381317	
27	125.2018711566925	movie	1		243	25.0	2.5	/experiments/knapen_AOT/AOT_stimuli/rescaled_final/0939_rv.mp4	0.0	142.29243922233582	2.5004799365997314
27	126.38566613197327	pulse	1	t		25.0	2.5	/experiments/knapen_AOT/AOT_stimuli/rescaled_final/0939_rv.mp4	0.0	143.47623419761658	
27	127.70235109329224	fix_post	2		12	25.0	2.5	/experiments/knapen_AOT/AOT_stimuli/rescaled_final/0939_rv.mp4	0.0	144.79291915893555	0.09989690780639648
28	127.80224800109863	fix_pre	0		120	26.0	2.5	/experiments/knapen_AOT/AOT_stimuli/rescaled_final/2040_fw.mp4	0.0	144.89281606674194	1.0001370906829834
28	127.98585414886475	pulse	0	t		26.0	2.5	/experiments/knapen_AOT/AOT_stimuli/rescaled_final/2040_fw.mp4	0.0	145.07642221450806	
28	128.80238509178162	movie	1		245	26.0	2.5	/experiments/knapen_AOT/AOT_stimuli/rescaled_final/2040_fw.mp4	0.0	145.89295315742493	2.5004138946533203
28	129.586040019989	pulse	1	t		26.0	2.5	/experiments/knapen_AOT/AOT_stimuli/rescaled_final/2040_fw.mp4	0.0	146.67660808563232	
28	131.1836380958557	pulse	1	t		26.0	2.5	/experiments/knapen_AOT/AOT_stimuli/rescaled_final/2040_fw.mp4	0.0	148.27420616149902	
28	131.30279898643494	fix_post	2		12	26.0	2.5	/experiments/knapen_AOT/AOT_stimuli/rescaled_final/2040_fw.mp4	0.0	148.39336705207825	0.1000680923461914
29	131.40286707878113	fix_pre	0		120	27.0	2.5	blank	1.0	148.49343514442444	1.0001859664916992
29	132.40305304527283	movie	1		299	27.0	2.5	blank	1.0	149.49362111091614	2.4920411109924316
29	132.78657603263855	pulse	1	t		27.0	2.5	blank	1.0	149.87714409828186	
29	134.38680815696716	pulse	1	t		27.0	2.5	blank	1.0	151.47737622261047	
29	134.89509415626526	fix_post	2		12	27.0	2.5	blank	1.0	151.98566222190857	0.09995198249816895
30	134.99504613876343	fix_pre	0		120	28.0	2.5	/experiments/knapen_AOT/AOT_stimuli/rescaled_final/1815_fw.mp4	0.0	152.08561420440674	1.0001239776611328
30	135.9870011806488	pulse	0	t		28.0	2.5	/experiments/knapen_AOT/AOT_stimuli/rescaled_final/1815_fw.mp4	0.0	153.07756924629211	
30	135.99517011642456	movie	1		245	28.0	2.5	/experiments/knapen_AOT/AOT_stimuli/rescaled_final/1815_fw.mp4	0.0	153.08573818206787	2.5086419582366943
30	137.58768701553345	pulse	1	t		28.0	2.5	/experiments/knapen_AOT/AOT_stimuli/rescaled_final/1815_fw.mp4	0.0	154.67825508117676	
30	138.50381207466125	fix_post	2		12	28.0	2.5	/experiments/knapen_AOT/AOT_stimuli/rescaled_final/1815_fw.mp4	0.0	155.59438014030457	0.10005998611450195
31	138.60387206077576	fix_pre	0		120	29.0	2.5	/experiments/knapen_AOT/AOT_stimuli/rescaled_final/0458_rv.mp4	0.0	155.69444012641907	1.0001919269561768
31	139.18751406669617	pulse	0	t		29.0	2.5	/experiments/knapen_AOT/AOT_stimuli/rescaled_final/0458_rv.mp4	0.0	156.27808213233948	
31	139.60406398773193	movie	1		243	29.0	2.5	/experiments/knapen_AOT/AOT_stimuli/rescaled_final/0458_rv.mp4	0.0	156.69463205337524	2.5004701614379883
31	140.78347301483154	pulse	1	t		29.0	2.5	/experiments/knapen_AOT/AOT_stimuli/rescaled_final/0458_rv.mp4	0.0	157.87404108047485	
31	142.10453414916992	fix_post	2		12	29.0	2.5	/experiments/knapen_AOT/AOT_stimuli/rescaled_final/0458_rv.mp4	0.0	159.19510221481323	0.09988188743591309
32	142.20441603660583	fix_pre	0		120	30.0	2.5	/experiments/knapen_AOT/AOT_stimuli/rescaled_final/0997_rv.mp4	0.0	159.29498410224915	1.0001311302185059
32	142.38799810409546	pulse	0	t		30.0	2.5	/experiments/knapen_AOT/AOT_stimuli/rescaled_final/0997_rv.mp4	0.0	159.47856616973877	
32	143.20454716682434	movie	1		243	30.0	2.5	/experiments/knapen_AOT/AOT_stimuli/rescaled_final/0997_rv.mp4	0.0	160.29511523246765	2.500532865524292
32	143.98829317092896	pulse	1	t		30.0	2.5	/experiments/knapen_AOT/AOT_stimuli/rescaled_final/0997_rv.mp4	0.0	161.07886123657227	
32	145.58827018737793	pulse	1	t		30.0	2.5	/experiments/knapen_AOT/AOT_stimuli/rescaled_final/0997_rv.mp4	0.0	162.67883825302124	
32	145.70508003234863	fix_post	2		9	30.0	2.5	/experiments/knapen_AOT/AOT_stimuli/rescaled_final/0997_rv.mp4	0.0	162.79564809799194	0.09983110427856445
33	145.8049111366272	fix_pre	0		119	31.0	2.5	/experiments/knapen_AOT/AOT_stimuli/rescaled_final/0644_rv.mp4	0.0	162.8954792022705	0.9918439388275146
33	146.7967550754547	movie	1		242	31.0	2.5	/experiments/knapen_AOT/AOT_stimuli/rescaled_final/0644_rv.mp4	0.0	163.88732314109802	2.5005810260772705
33	147.18881702423096	pulse	1	t		31.0	2.5	/experiments/knapen_AOT/AOT_stimuli/rescaled_final/0644_rv.mp4	0.0	164.27938508987427	
33	148.78890299797058	pulse	1	t		31.0	2.5	/experiments/knapen_AOT/AOT_stimuli/rescaled_final/0644_rv.mp4	0.0	165.8794710636139	
33	149.29733610153198	fix_post	2		12	31.0	2.5	/experiments/knapen_AOT/AOT_stimuli/rescaled_final/0644_rv.mp4	0.0	166.3879041671753	0.0998389720916748
34	149.39717507362366	fix_pre	0		120	32.0	2.5	/experiments/knapen_AOT/AOT_stimuli/rescaled_final/1027_fw.mp4	0.0	166.48774313926697	1.0001249313354492
34	150.38917803764343	pulse	0	t		32.0	2.5	/experiments/knapen_AOT/AOT_stimuli/rescaled_final/1027_fw.mp4	0.0	167.47974610328674	
34	150.3973000049591	movie	1		245	32.0	2.5	/experiments/knapen_AOT/AOT_stimuli/rescaled_final/1027_fw.mp4	0.0	167.48786807060242	2.508713960647583
34	151.99021315574646	pulse	1	t		32.0	2.5	/experiments/knapen_AOT/AOT_stimuli/rescaled_final/1027_fw.mp4	0.0	169.08078122138977	
34	152.9060139656067	fix_post	2		12	32.0	2.5	/experiments/knapen_AOT/AOT_stimuli/rescaled_final/1027_fw.mp4	0.0	169.99658203125	0.10003399848937988
35	153.00604796409607	fix_pre	0		120	33.0	2.5	/experiments/knapen_AOT/AOT_stimuli/rescaled_final/0772_rv.mp4	0.0	170.09661602973938	1.000136137008667
35	153.58970713615417	pulse	0	t		33.0	2.5	/experiments/knapen_AOT/AOT_stimuli/rescaled_final/0772_rv.mp4	0.0	170.68027520179749	
35	154.00618410110474	movie	1		243	33.0	2.5	/experiments/knapen_AOT/AOT_stimuli/rescaled_final/0772_rv.mp4	0.0	171.09675216674805	2.500396966934204
35	155.18989610671997	pulse	1	t		33.0	2.5	/experiments/knapen_AOT/AOT_stimuli/rescaled_final/0772_rv.mp4	0.0	172.28046417236328	
35	156.50658106803894	fix_post	2		12	33.0	2.5	/experiments/knapen_AOT/AOT_stimuli/rescaled_final/0772_rv.mp4	0.0	173.59714913368225	0.10004210472106934
36	156.60662317276	fix_pre	0		120	34.0	2.5	blank	1.0	173.69719123840332	1.0000460147857666
36	156.78253698349	pulse	0	t		34.0	2.5	blank	1.0	173.8731050491333	
36	157.60666918754578	movie	1		300	34.0	2.5	blank	1.0	174.6972372531891	2.500466823577881
36	158.38269209861755	pulse	1	t		34.0	2.5	blank	1.0	175.47326016426086	
36	159.9830629825592	pulse	1	t		34.0	2.5	blank	1.0	177.07363104820251	
36	160.10713601112366	fix_post	2		12	34.0	2.5	blank	1.0	177.19770407676697	0.10001206398010254
37	160.20714807510376	fix_pre	0		120	35.0	2.5	/experiments/knapen_AOT/AOT_stimuli/rescaled_final/1189_fw.mp4	0.0	177.29771614074707	1.000157117843628
37	161.2073051929474	movie	1		241	35.0	2.5	/experiments/knapen_AOT/AOT_stimuli/rescaled_final/1189_fw.mp4	0.0	178.2978732585907	2.4920778274536133
37	161.59133195877075	pulse	1	t		35.0	2.5	/experiments/knapen_AOT/AOT_stimuli/rescaled_final/1189_fw.mp4	0.0	178.68190002441406	
37	163.18280601501465	pulse	1	t		35.0	2.5	/experiments/knapen_AOT/AOT_stimuli/rescaled_final/1189_fw.mp4	0.0	180.27337408065796	
37	163.699383020401	fix_post	2		12	35.0	2.5	/experiments/knapen_AOT/AOT_stimuli/rescaled_final/1189_fw.mp4	0.0	180.7899510860443	0.0999300479888916
38	163.7993130683899	fix_pre	0		119	36.0	2.5	/experiments/knapen_AOT/AOT_stimuli/rescaled_final/0593_rv.mp4	0.0	180.8898811340332	0.9918599128723145
38	164.78285813331604	pulse	0	t		36.0	2.5	/experiments/knapen_AOT/AOT_stimuli/rescaled_final/0593_rv.mp4	0.0	181.87342619895935	
38	164.7911729812622	movie	1		243	36.0	2.5	/experiments/knapen_AOT/AOT_stimuli/rescaled_final/0593_rv.mp4	0.0	181.88174104690552	2.508618116378784
38	166.38422513008118	pulse	1	t		36.0	2.5	/experiments/knapen_AOT/AOT_stimuli/rescaled_final/0593_rv.mp4	0.0	183.4747931957245	
38	167.299791097641	fix_post	2		12	36.0	2.5	/experiments/knapen_AOT/AOT_stimuli/rescaled_final/0593_rv.mp4	0.0	184.3903591632843	0.10000801086425781
39	167.39979910850525	fix_pre	0		120	37.0	2.5	/experiments/knapen_AOT/AOT_stimuli/rescaled_final/0868_rv.mp4	0.0	184.49036717414856	1.0001649856567383
39	167.98354816436768	pulse	0	t		37.0	2.5	/experiments/knapen_AOT/AOT_stimuli/rescaled_final/0868_rv.mp4	0.0	185.074116230011	
39	168.399964094162	movie	1		243	37.0	2.5	/experiments/knapen_AOT/AOT_stimuli/rescaled_final/0868_rv.mp4	0.0	185.4905321598053	2.500537872314453
39	169.58385801315308	pulse	1	t		37.0	2.5	/experiments/knapen_AOT/AOT_stimuli/rescaled_final/0868_rv.mp4	0.0	186.6744260787964	
39	170.90050196647644	fix_post	2		12	37.0	2.5	/experiments/knapen_AOT/AOT_stimuli/rescaled_final/0868_rv.mp4	0.0	187.99107003211975	0.09990406036376953
40	171.0004060268402	fix_pre	0		120	38.0	2.5	/experiments/knapen_AOT/AOT_stimuli/rescaled_final/0838_fw.mp4	0.0	188.09097409248352	1.0001590251922607
40	171.18389010429382	pulse	0	t		38.0	2.5	/experiments/knapen_AOT/AOT_stimuli/rescaled_final/0838_fw.mp4	0.0	188.27445816993713	
40	172.00056505203247	movie	1		242	38.0	2.5	/experiments/knapen_AOT/AOT_stimuli/rescaled_final/0838_fw.mp4	0.0	189.09113311767578	2.5004239082336426
40	172.78412914276123	pulse	1	t		38.0	2.5	/experiments/knapen_AOT/AOT_stimuli/rescaled_final/0838_fw.mp4	0.0	189.87469720840454	
40	174.3855640888214	pulse	1	t		38.0	2.5	/experiments/knapen_AOT/AOT_stimuli/rescaled_final/0838_fw.mp4	0.0	191.47613215446472	
40	174.5009889602661	fix_post	2		11	38.0	2.5	/experiments/knapen_AOT/AOT_stimuli/rescaled_final/0838_fw.mp4	0.0	191.59155702590942	0.09157204627990723
41	174.59256100654602	fix_pre	0		120	39.0	2.5	/experiments/knapen_AOT/AOT_stimuli/rescaled_final/0923_rv.mp4	0.0	191.68312907218933	1.000154972076416
41	175.59271597862244	movie	1		242	39.0	2.5	/experiments/knapen_AOT/AOT_stimuli/rescaled_final/0923_rv.mp4	0.0	192.68328404426575	2.5005459785461426
41	175.98481106758118	pulse	1	t		39.0	2.5	/experiments/knapen_AOT/AOT_stimuli/rescaled_final/0923_rv.mp4	0.0	193.0753791332245	
41	177.5848331451416	pulse	1	t		39.0	2.5	/experiments/knapen_AOT/AOT_stimuli/rescaled_final/0923_rv.mp4	0.0	194.6754012107849	
41	178.09326195716858	fix_post	2		12	39.0	2.5	/experiments/knapen_AOT/AOT_stimuli/rescaled_final/0923_rv.mp4	0.0	195.1838300228119	0.09984421730041504
42	178.193106174469	fix_pre	0		120	40.0	2.5	/experiments/knapen_AOT/AOT_stimuli/rescaled_final/0088_fw.mp4	0.0	195.2836742401123	1.0001139640808105
42	179.1850700378418	pulse	0	t		40.0	2.5	/experiments/knapen_AOT/AOT_stimuli/rescaled_final/0088_fw.mp4	0.0	196.2756381034851	
42	179.1932201385498	movie	1		245	40.0	2.5	/experiments/knapen_AOT/AOT_stimuli/rescaled_final/0088_fw.mp4	0.0	196.28378820419312	2.5087528228759766
42	180.78650403022766	pulse	1	t		40.0	2.5	/experiments/knapen_AOT/AOT_stimuli/rescaled_final/0088_fw.mp4	0.0	197.87707209587097	
42	181.70197296142578	fix_post	2		12	40.0	2.5	/experiments/knapen_AOT/AOT_stimuli/rescaled_final/0088_fw.mp4	0.0	198.7925410270691	0.1000070571899414
43	181.80198001861572	fix_pre	0		120	41.0	2.5	blank	1.0	198.89254808425903	1.0001959800720215
43	182.3857181072235	pulse	0	t		41.0	2.5	blank	1.0	199.47628617286682	
43	182.80217599868774	movie	1		300	41.0	2.5	blank	1.0	199.89274406433105	2.5003390312194824
43	183.9858741760254	pulse	1	t		41.0	2.5	blank	1.0	201.0764422416687	
43	185.30251502990723	fix_post	2		12	41.0	2.5	blank	1.0	202.39308309555054	0.10000801086425781
44	185.40252304077148	fix_pre	0		120	42.0	2.5	/experiments/knapen_AOT/AOT_stimuli/rescaled_final/1667_rv.mp4	0.0	202.4930911064148	1.0001311302185059
44	185.58598113059998	pulse	0	t		42.0	2.5	/experiments/knapen_AOT/AOT_stimuli/rescaled_final/1667_rv.mp4	0.0	202.6765491962433	
44	186.40265417099	movie	1		243	42.0	2.5	/experiments/knapen_AOT/AOT_stimuli/rescaled_final/1667_rv.mp4	0.0	203.4932222366333	2.5004398822784424
44	187.18629217147827	pulse	1	t		42.0	2.5	/experiments/knapen_AOT/AOT_stimuli/rescaled_final/1667_rv.mp4	0.0	204.27686023712158	
44	188.78622698783875	pulse	1	t		42.0	2.5	/experiments/knapen_AOT/AOT_stimuli/rescaled_final/1667_rv.mp4	0.0	205.87679505348206	
44	188.90309405326843	fix_post	2		12	42.0	2.5	/experiments/knapen_AOT/AOT_stimuli/rescaled_final/1667_rv.mp4	0.0	205.99366211891174	0.09998011589050293
45	189.00307416915894	fix_pre	0		119	43.0	2.5	/experiments/knapen_AOT/AOT_stimuli/rescaled_final/0725_rv.mp4	0.0	206.09364223480225	0.9917960166931152
45	189.99487018585205	movie	1		244	43.0	2.5	/experiments/knapen_AOT/AOT_stimuli/rescaled_final/0725_rv.mp4	0.0	207.08543825149536	2.5004379749298096
45	190.38690614700317	pulse	1	t		43.0	2.5	/experiments/knapen_AOT/AOT_stimuli/rescaled_final/0725_rv.mp4	0.0	207.47747421264648	
45	191.98708510398865	pulse	1	t		43.0	2.5	/experiments/knapen_AOT/AOT_stimuli/rescaled_final/0725_rv.mp4	0.0	209.07765316963196	
45	192.49530816078186	fix_post	2		12	43.0	2.5	/experiments/knapen_AOT/AOT_stimuli/rescaled_final/0725_rv.mp4	0.0	209.58587622642517	0.09997987747192383
46	192.59528803825378	fix_pre	0		120	44.0	2.5	/experiments/knapen_AOT/AOT_stimuli/rescaled_final/0772_fw.mp4	0.0	209.6858561038971	1.0001189708709717
46	193.58724999427795	pulse	0	t		44.0	2.5	/experiments/knapen_AOT/AOT_stimuli/rescaled_final/0772_fw.mp4	0.0	210.67781805992126	
46	193.59540700912476	movie	1		244	44.0	2.5	/experiments/knapen_AOT/AOT_stimuli/rescaled_final/0772_fw.mp4	0.0	210.68597507476807	2.5087101459503174
46	195.1880760192871	pulse	1	t		44.0	2.5	/experiments/knapen_AOT/AOT_stimuli/rescaled_final/0772_fw.mp4	0.0	212.27864408493042	
46	196.10411715507507	fix_post	2		12	44.0	2.5	/experiments/knapen_AOT/AOT_stimuli/rescaled_final/0772_fw.mp4	0.0	213.19468522071838	0.10000896453857422
47	196.20412611961365	fix_pre	0		120	45.0	2.5	/experiments/knapen_AOT/AOT_stimuli/rescaled_final/0540_fw.mp4	0.0	213.29469418525696	1.0002100467681885
47	196.78782415390015	pulse	0	t		45.0	2.5	/experiments/knapen_AOT/AOT_stimuli/rescaled_final/0540_fw.mp4	0.0	213.87839221954346	
47	197.20433616638184	movie	1		244	45.0	2.5	/experiments/knapen_AOT/AOT_stimuli/rescaled_final/0540_fw.mp4	0.0	214.29490423202515	2.500278949737549
47	198.38805603981018	pulse	1	t		45.0	2.5	/experiments/knapen_AOT/AOT_stimuli/rescaled_final/0540_fw.mp4	0.0	215.4786241054535	
47	199.70461511611938	fix_post	2		12	45.0	2.5	/experiments/knapen_AOT/AOT_stimuli/rescaled_final/0540_fw.mp4	0.0	216.7951831817627	0.10002684593200684
48	199.8046419620514	fix_pre	0		120	46.0	2.5	/experiments/knapen_AOT/AOT_stimuli/rescaled_final/2119_fw.mp4	0.0	216.8952100276947	1.0001511573791504
48	199.9882800579071	pulse	0	t		46.0	2.5	/experiments/knapen_AOT/AOT_stimuli/rescaled_final/2119_fw.mp4	0.0	217.07884812355042	
48	200.80479311943054	movie	1		248	46.0	2.5	/experiments/knapen_AOT/AOT_stimuli/rescaled_final/2119_fw.mp4	0.0	217.89536118507385	2.50040602684021
48	201.58844304084778	pulse	1	t		46.0	2.5	/experiments/knapen_AOT/AOT_stimuli/rescaled_final/2119_fw.mp4	0.0	218.6790111064911	
48	203.18874716758728	pulse	1	t		46.0	2.5	/experiments/knapen_AOT/AOT_stimuli/rescaled_final/2119_fw.mp4	0.0	220.2793152332306	
48	203.30519914627075	fix_post	2		10	46.0	2.5	/experiments/knapen_AOT/AOT_stimuli/rescaled_final/2119_fw.mp4	0.0	220.39576721191406	0.09999299049377441
49	203.40519213676453	fix_pre	0		120	47.0	2.5	blank	1.0	220.49576020240784	1.000119924545288
49	204.40531206130981	movie	1		299	47.0	2.5	blank	1.0	221.49588012695312	2.4920880794525146
49	204.78891801834106	pulse	1	t		47.0	2.5	blank	1.0	221.87948608398438	
49	206.38925909996033	pulse	1	t		47.0	2.5	blank	1.0	223.47982716560364	
49	206.89740014076233	fix_post	2		12	47.0	2.5	blank	1.0	223.98796820640564	0.10004281997680664
50	206.99744296073914	fix_pre	0		120	48.0	2.5	/experiments/knapen_AOT/AOT_stimuli/rescaled_final/1720_fw.mp4	0.0	224.08801102638245	1.0001521110534668
50	207.9894461631775	pulse	0	t		48.0	2.5	/experiments/knapen_AOT/AOT_stimuli/rescaled_final/1720_fw.mp4	0.0	225.0800142288208	
50	207.9975950717926	movie	1		243	48.0	2.5	/experiments/knapen_AOT/AOT_stimuli/rescaled_final/1720_fw.mp4	0.0	225.0881631374359	2.5087480545043945
50	209.59030318260193	pulse	1	t		48.0	2.5	/experiments/knapen_AOT/AOT_stimuli/rescaled_final/1720_fw.mp4	0.0	226.68087124824524	
50	210.506343126297	fix_post	2		12	48.0	2.5	/experiments/knapen_AOT/AOT_stimuli/rescaled_final/1720_fw.mp4	0.0	227.5969111919403	0.09994697570800781
51	210.606290102005	fix_pre	0		120	49.0	2.5	/experiments/knapen_AOT/AOT_stimuli/rescaled_final/1195_rv.mp4	0.0	227.69685816764832	1.0001220703125
51	211.1822919845581	pulse	0	t		49.0	2.5	/experiments/knapen_AOT/AOT_stimuli/rescaled_final/1195_rv.mp4	0.0	228.27286005020142	
51	211.6064121723175	movie	1		243	49.0	2.5	/experiments/knapen_AOT/AOT_stimuli/rescaled_final/1195_rv.mp4	0.0	228.69698023796082	2.500358819961548
51	212.7832531929016	pulse	1	t		49.0	2.5	/experiments/knapen_AOT/AOT_stimuli/rescaled_final/1195_rv.mp4	0.0	229.87382125854492	
51	214.10677099227905	fix_post	2		12	49.0	2.5	/experiments/knapen_AOT/AOT_stimuli/rescaled_final/1195_rv.mp4	0.0	231.19733905792236	0.100006103515625
52	214.20677709579468	fix_pre	0		120	50.0	2.5	/experiments/knapen_AOT/AOT_stimuli/rescaled_final/0158_fw.mp4	0.0	231.297345161438	1.0002338886260986
52	214.38215112686157	pulse	0	t		50.0	2.5	/experiments/knapen_AOT/AOT_stimuli/rescaled_final/0158_fw.mp4	0.0	231.47271919250488	
52	215.20701098442078	movie	1		242	50.0	2.5	/experiments/knapen_AOT/AOT_stimuli/rescaled_final/0158_fw.mp4	0.0	232.2975790500641	2.5003981590270996
52	215.9823009967804	pulse	1	t		50.0	2.5	/experiments/knapen_AOT/AOT_stimuli/rescaled_final/0158_fw.mp4	0.0	233.0728690624237	
52	217.58245301246643	pulse	1	t		50.0	2.5	/experiments/knapen_AOT/AOT_stimuli/rescaled_final/0158_fw.mp4	0.0	234.67302107810974	
52	217.70740914344788	fix_post	2		12	50.0	2.5	/experiments/knapen_AOT/AOT_stimuli/rescaled_final/0158_fw.mp4	0.0	234.7979772090912	0.09990787506103516
53	217.8073170185089	fix_pre	0		120	51.0	2.5	/experiments/knapen_AOT/AOT_stimuli/rescaled_final/1840_fw.mp4	0.0	234.89788508415222	1.000169038772583
53	218.8074860572815	movie	1		241	51.0	2.5	/experiments/knapen_AOT/AOT_stimuli/rescaled_final/1840_fw.mp4	0.0	235.8980541229248	2.4921131134033203
53	219.18281316757202	pulse	1	t		51.0	2.5	/experiments/knapen_AOT/AOT_stimuli/rescaled_final/1840_fw.mp4	0.0	236.27338123321533	
53	220.78302097320557	pulse	1	t		51.0	2.5	/experiments/knapen_AOT/AOT_stimuli/rescaled_final/1840_fw.mp4	0.0	237.87358903884888	
53	221.29959917068481	fix_post	2		12	51.0	2.5	/experiments/knapen_AOT/AOT_stimuli/rescaled_final/1840_fw.mp4	0.0	238.39016723632812	0.09996199607849121
54	221.3995611667633	fix_pre	0		119	52.0	2.5	/experiments/knapen_AOT/AOT_stimuli/rescaled_final/1750_rv.mp4	0.0	238.49012923240662	0.9917628765106201
54	222.38331699371338	pulse	0	t		52.0	2.5	/experiments/knapen_AOT/AOT_stimuli/rescaled_final/1750_rv.mp4	0.0	239.4738850593567	
54	222.39132404327393	movie	1		244	52.0	2.5	/experiments/knapen_AOT/AOT_stimuli/rescaled_final/1750_rv.mp4	0.0	239.48189210891724	2.508733034133911
54	223.9841070175171	pulse	1	t		52.0	2.5	/experiments/knapen_AOT/AOT_stimuli/rescaled_final/1750_rv.mp4	0.0	241.0746750831604	
54	224.90005707740784	fix_post	2		12	52.0	2.5	/experiments/knapen_AOT/AOT_stimuli/rescaled_final/1750_rv.mp4	0.0	241.99062514305115	0.10002803802490234
55	225.00008511543274	fix_pre	0		120	53.0	2.5	/experiments/knapen_AOT/AOT_stimuli/rescaled_final/0623_fw.mp4	0.0	242.09065318107605	1.0001499652862549
55	225.58363103866577	pulse	0	t		53.0	2.5	/experiments/knapen_AOT/AOT_stimuli/rescaled_final/0623_fw.mp4	0.0	242.67419910430908	
55	226.000235080719	movie	1		242	53.0	2.5	/experiments/knapen_AOT/AOT_stimuli/rescaled_final/0623_fw.mp4	0.0	243.0908031463623	2.5004398822784424
55	227.18403601646423	pulse	1	t		53.0	2.5	/experiments/knapen_AOT/AOT_stimuli/rescaled_final/0623_fw.mp4	0.0	244.27460408210754	
55	228.50067496299744	fix_post	2		12	53.0	2.5	/experiments/knapen_AOT/AOT_stimuli/rescaled_final/0623_fw.mp4	0.0	245.59124302864075	0.09994316101074219
56	228.60061812400818	fix_pre	0		120	54.0	2.5	/experiments/knapen_AOT/AOT_stimuli/rescaled_final/0869_fw.mp4	0.0	245.6911861896515	1.0001778602600098
56	228.78424096107483	pulse	0	t		54.0	2.5	/experiments/knapen_AOT/AOT_stimuli/rescaled_final/0869_fw.mp4	0.0	245.87480902671814	
56	229.6007959842682	movie	1		243	54.0	2.5	/experiments/knapen_AOT/AOT_stimuli/rescaled_final/0869_fw.mp4	0.0	246.6913640499115	2.5005271434783936
56	230.38454914093018	pulse	1	t		54.0	2.5	/experiments/knapen_AOT/AOT_stimuli/rescaled_final/0869_fw.mp4	0.0	247.4751172065735	
56	231.98451209068298	pulse	1	t		54.0	2.5	/experiments/knapen_AOT/AOT_stimuli/rescaled_final/0869_fw.mp4	0.0	249.0750801563263	
56	232.10132312774658	fix_post	2		12	54.0	2.5	/experiments/knapen_AOT/AOT_stimuli/rescaled_final/0869_fw.mp4	0.0	249.1918911933899	0.09987783432006836
57	232.20120096206665	fix_pre	0		120	55.0	2.5	/experiments/knapen_AOT/AOT_stimuli/rescaled_final/0479_rv.mp4	0.0	249.29176902770996	1.0001192092895508
57	233.2013201713562	movie	1		241	55.0	2.5	/experiments/knapen_AOT/AOT_stimuli/rescaled_final/0479_rv.mp4	0.0	250.2918882369995	2.4921820163726807
57	233.58542203903198	pulse	1	t		55.0	2.5	/experiments/knapen_AOT/AOT_stimuli/rescaled_final/0479_rv.mp4	0.0	250.6759901046753	
57	235.18524599075317	pulse	1	t		55.0	2.5	/experiments/knapen_AOT/AOT_stimuli/rescaled_final/0479_rv.mp4	0.0	252.27581405639648	
57	235.69350218772888	fix_post	2		12	55.0	2.5	/experiments/knapen_AOT/AOT_stimuli/rescaled_final/0479_rv.mp4	0.0	252.7840702533722	0.09986400604248047
58	235.79336619377136	fix_pre	0		120	56.0	2.5	blank	1.0	252.88393425941467	1.000126838684082
58	236.78545808792114	pulse	0	t		56.0	2.5	blank	1.0	253.87602615356445	
58	236.79349303245544	movie	1		301	56.0	2.5	blank	1.0	253.88406109809875	2.5088140964508057
58	238.38569116592407	pulse	1	t		56.0	2.5	blank	1.0	255.47625923156738	
58	239.30230712890625	fix_post	2		12	56.0	2.5	blank	1.0	256.39287519454956	0.09995102882385254
59	239.4022581577301	fix_pre	0		120	57.0	2.5	/experiments/knapen_AOT/AOT_stimuli/rescaled_final/0403_rv.mp4	0.0	256.4928262233734	1.0001399517059326
59	239.98584008216858	pulse	0	t		57.0	2.5	/experiments/knapen_AOT/AOT_stimuli/rescaled_final/0403_rv.mp4	0.0	257.0764081478119	
59	240.40239810943604	movie	1		243	57.0	2.5	/experiments/knapen_AOT/AOT_stimuli/rescaled_final/0403_rv.mp4	0.0	257.49296617507935	2.500338077545166
59	241.58619213104248	pulse	1	t		57.0	2.5	/experiments/knapen_AOT/AOT_stimuli/rescaled_final/0403_rv.mp4	0.0	258.6767601966858	
59	242.9027361869812	fix_post	2		12	57.0	2.5	/experiments/knapen_AOT/AOT_stimuli/rescaled_final/0403_rv.mp4	0.0	259.9933042526245	0.10004186630249023
60	243.0027780532837	fix_pre	0		120	58.0	2.5	/experiments/knapen_AOT/AOT_stimuli/rescaled_final/0623_rv.mp4	0.0	260.093346118927	1.0001521110534668
60	243.18641710281372	pulse	0	t		58.0	2.5	/experiments/knapen_AOT/AOT_stimuli/rescaled_final/0623_rv.mp4	0.0	260.27698516845703	
60	244.00293016433716	movie	1		242	58.0	2.5	/experiments/knapen_AOT/AOT_stimuli/rescaled_final/0623_rv.mp4	0.0	261.09349822998047	2.500579833984375
60	244.7866599559784	pulse	1	t		58.0	2.5	/experiments/knapen_AOT/AOT_stimuli/rescaled_final/0623_rv.mp4	0.0	261.8772280216217	
60	246.3869800567627	pulse	1	t		58.0	2.5	/experiments/knapen_AOT/AOT_stimuli/rescaled_final/0623_rv.mp4	0.0	263.477548122406	
60	246.50350999832153	fix_post	2		12	58.0	2.5	/experiments/knapen_AOT/AOT_stimuli/rescaled_final/0623_rv.mp4	0.0	263.59407806396484	0.0998990535736084
61	246.60340905189514	fix_pre	0		120	59.0	2.5	/experiments/knapen_AOT/AOT_stimuli/rescaled_final/0339_rv.mp4	0.0	263.69397711753845	1.0000641345977783
61	247.60347318649292	movie	1		243	59.0	2.5	/experiments/knapen_AOT/AOT_stimuli/rescaled_final/0339_rv.mp4	0.0	264.69404125213623	2.4920358657836914
61	247.98764395713806	pulse	1	t		59.0	2.5	/experiments/knapen_AOT/AOT_stimuli/rescaled_final/0339_rv.mp4	0.0	265.0782120227814	
61	249.58744406700134	pulse	1	t		59.0	2.5	/experiments/knapen_AOT/AOT_stimuli/rescaled_final/0339_rv.mp4	0.0	266.67801213264465	
61	250.0955090522766	fix_post	2		12	59.0	2.5	/experiments/knapen_AOT/AOT_stimuli/rescaled_final/0339_rv.mp4	0.0	267.1860771179199	0.0999910831451416
62	250.19550013542175	fix_pre	0		120	60.0	2.5	/experiments/knapen_AOT/AOT_stimuli/rescaled_final/1114_rv.mp4	0.0	267.28606820106506	1.0001308917999268
62	251.1874430179596	pulse	0	t		60.0	2.5	/experiments/knapen_AOT/AOT_stimuli/rescaled_final/1114_rv.mp4	0.0	268.2780110836029	
62	251.19563102722168	movie	1		243	60.0	2.5	/experiments/knapen_AOT/AOT_stimuli/rescaled_final/1114_rv.mp4	0.0	268.286199092865	2.5087549686431885
62	252.78840899467468	pulse	1	t		60.0	2.5	/experiments/knapen_AOT/AOT_stimuli/rescaled_final/1114_rv.mp4	0.0	269.878977060318	
62	253.70438599586487	fix_post	2		12	60.0	2.5	/experiments/knapen_AOT/AOT_stimuli/rescaled_final/1114_rv.mp4	0.0	270.7949540615082	0.10005307197570801
63	253.80443906784058	fix_pre	0		120	61.0	2.5	blank	1.0	270.8950071334839	1.0000789165496826
63	254.38793110847473	pulse	0	t		61.0	2.5	blank	1.0	271.47849917411804	
63	254.80451798439026	movie	1		300	61.0	2.5	blank	1.0	271.89508605003357	2.5003671646118164
63	255.988343000412	pulse	1	t		61.0	2.5	blank	1.0	273.0789110660553	
63	257.3048851490021	fix_post	2		12	61.0	2.5	blank	1.0	274.3954532146454	0.10002398490905762
64	257.40490913391113	fix_pre	0		120	62.0	2.5	/experiments/knapen_AOT/AOT_stimuli/rescaled_final/1225_rv.mp4	0.0	274.49547719955444	1.0001399517059326
64	257.5885319709778	pulse	0	t		62.0	2.5	/experiments/knapen_AOT/AOT_stimuli/rescaled_final/1225_rv.mp4	0.0	274.6791000366211	
64	258.40504908561707	movie	1		243	62.0	2.5	/experiments/knapen_AOT/AOT_stimuli/rescaled_final/1225_rv.mp4	0.0	275.4956171512604	2.500570058822632
64	259.18871808052063	pulse	1	t		62.0	2.5	/experiments/knapen_AOT/AOT_stimuli/rescaled_final/1225_rv.mp4	0.0	276.27928614616394	
64	260.7887451648712	pulse	1	t		62.0	2.5	/experiments/knapen_AOT/AOT_stimuli/rescaled_final/1225_rv.mp4	0.0	277.8793132305145	
64	260.9056191444397	fix_post	2		12	62.0	2.5	/experiments/knapen_AOT/AOT_stimuli/rescaled_final/1225_rv.mp4	0.0	277.996187210083	0.09987401962280273
65	261.0054931640625	fix_pre	0		120	63.0	2.5	/experiments/knapen_AOT/AOT_stimuli/rescaled_final/0498_fw.mp4	0.0	278.0960612297058	1.0001039505004883
65	262.005597114563	movie	1		242	63.0	2.5	/experiments/knapen_AOT/AOT_stimuli/rescaled_final/0498_fw.mp4	0.0	279.0961651802063	2.4921939373016357
65	262.3896219730377	pulse	1	t		63.0	2.5	/experiments/knapen_AOT/AOT_stimuli/rescaled_final/0498_fw.mp4	0.0	279.48019003868103	
65	263.98957204818726	pulse	1	t		63.0	2.5	/experiments/knapen_AOT/AOT_stimuli/rescaled_final/0498_fw.mp4	0.0	281.08014011383057	
65	264.4977910518646	fix_post	2		12	63.0	2.5	/experiments/knapen_AOT/AOT_stimuli/rescaled_final/0498_fw.mp4	0.0	281.58835911750793	0.09983611106872559
66	264.59762716293335	fix_pre	0		117	64.0	2.5	/experiments/knapen_AOT/AOT_stimuli/rescaled_final/1655_fw.mp4	0.0	281.68819522857666	1.0001440048217773
66	265.5897390842438	pulse	0	t		64.0	2.5	/experiments/knapen_AOT/AOT_stimuli/rescaled_final/1655_fw.mp4	0.0	282.6803071498871	
66	265.5977711677551	movie	1		244	64.0	2.5	/experiments/knapen_AOT/AOT_stimuli/rescaled_final/1655_fw.mp4	0.0	282.68833923339844	2.5087568759918213
66	267.19041419029236	pulse	1	t		64.0	2.5	/experiments/knapen_AOT/AOT_stimuli/rescaled_final/1655_fw.mp4	0.0	284.28098225593567	
66	268.10652804374695	fix_post	2		12	64.0	2.5	/experiments/knapen_AOT/AOT_stimuli/rescaled_final/1655_fw.mp4	0.0	285.19709610939026	0.10008597373962402
67	268.2066140174866	fix_pre	0		120	65.0	2.5	/experiments/knapen_AOT/AOT_stimuli/rescaled_final/1970_rv.mp4	0.0	285.2971820831299	1.0000669956207275
67	268.79019808769226	pulse	0	t		65.0	2.5	/experiments/knapen_AOT/AOT_stimuli/rescaled_final/1970_rv.mp4	0.0	285.88076615333557	
67	269.2066810131073	movie	1		243	65.0	2.5	/experiments/knapen_AOT/AOT_stimuli/rescaled_final/1970_rv.mp4	0.0	286.2972490787506	2.500434160232544
67	270.39053606987	pulse	1	t		65.0	2.5	/experiments/knapen_AOT/AOT_stimuli/rescaled_final/1970_rv.mp4	0.0	287.4811041355133	
67	271.70711517333984	fix_post	2		12	65.0	2.5	/experiments/knapen_AOT/AOT_stimuli/rescaled_final/1970_rv.mp4	0.0	288.79768323898315	0.09996294975280762
68	271.80707812309265	fix_pre	0		120	66.0	2.5	/experiments/knapen_AOT/AOT_stimuli/rescaled_final/1800_rv.mp4	0.0	288.89764618873596	1.0001649856567383
68	271.98305010795593	pulse	0	t		66.0	2.5	/experiments/knapen_AOT/AOT_stimuli/rescaled_final/1800_rv.mp4	0.0	289.07361817359924	
68	272.8072431087494	movie	1		242	66.0	2.5	/experiments/knapen_AOT/AOT_stimuli/rescaled_final/1800_rv.mp4	0.0	289.8978111743927	2.5004680156707764
68	273.58348202705383	pulse	1	t		66.0	2.5	/experiments/knapen_AOT/AOT_stimuli/rescaled_final/1800_rv.mp4	0.0	290.67405009269714	
68	275.19102907180786	pulse	1	t		66.0	2.5	/experiments/knapen_AOT/AOT_stimuli/rescaled_final/1800_rv.mp4	0.0	292.2815971374512	
68	275.30771112442017	fix_post	2		12	66.0	2.5	/experiments/knapen_AOT/AOT_stimuli/rescaled_final/1800_rv.mp4	0.0	292.3982791900635	0.09991192817687988
69	275.40762305259705	fix_pre	0		120	67.0	2.5	/experiments/knapen_AOT/AOT_stimuli/rescaled_final/1019_fw.mp4	0.0	292.49819111824036	1.0001189708709717
69	276.407742023468	movie	1		243	67.0	2.5	/experiments/knapen_AOT/AOT_stimuli/rescaled_final/1019_fw.mp4	0.0	293.4983100891113	2.492011070251465
69	276.7830710411072	pulse	1	t		67.0	2.5	/experiments/knapen_AOT/AOT_stimuli/rescaled_final/1019_fw.mp4	0.0	293.8736391067505	
69	278.3832311630249	pulse	1	t		67.0	2.5	/experiments/knapen_AOT/AOT_stimuli/rescaled_final/1019_fw.mp4	0.0	295.4737992286682	
69	278.8997530937195	fix_post	2		12	67.0	2.5	/experiments/knapen_AOT/AOT_stimuli/rescaled_final/1019_fw.mp4	0.0	295.9903211593628	0.10003805160522461
70	278.9997911453247	fix_pre	0		119	68.0	2.5	blank	1.0	296.090359210968	0.9918208122253418
70	279.98349118232727	pulse	0	t		68.0	2.5	blank	1.0	297.0740592479706	
70	279.99161195755005	movie	1		301	68.0	2.5	blank	1.0	297.08218002319336	2.5087180137634277
70	281.5837941169739	pulse	1	t		68.0	2.5	blank	1.0	298.6743621826172	
70	282.5003299713135	fix_post	2		12	68.0	2.5	blank	1.0	299.5908980369568	0.10006403923034668
71	282.6003940105438	fix_pre	0		120	69.0	2.5	/experiments/knapen_AOT/AOT_stimuli/rescaled_final/1447_rv.mp4	0.0	299.69096207618713	1.0001261234283447
71	283.183886051178	pulse	0	t		69.0	2.5	/experiments/knapen_AOT/AOT_stimuli/rescaled_final/1447_rv.mp4	0.0	300.2744541168213	
71	283.60052013397217	movie	1		243	69.0	2.5	/experiments/knapen_AOT/AOT_stimuli/rescaled_final/1447_rv.mp4	0.0	300.6910881996155	2.5003159046173096
71	284.7842571735382	pulse	1	t		69.0	2.5	/experiments/knapen_AOT/AOT_stimuli/rescaled_final/1447_rv.mp4	0.0	301.8748252391815	
71	286.1008360385895	fix_post	2		12	69.0	2.5	/experiments/knapen_AOT/AOT_stimuli/rescaled_final/1447_rv.mp4	0.0	303.1914041042328	0.10003209114074707
72	286.2008681297302	fix_pre	0		120	70.0	2.5	/experiments/knapen_AOT/AOT_stimuli/rescaled_final/1168_fw.mp4	0.0	303.29143619537354	1.000201940536499
72	286.3843951225281	pulse	0	t		70.0	2.5	/experiments/knapen_AOT/AOT_stimuli/rescaled_final/1168_fw.mp4	0.0	303.4749631881714	
72	287.2010700702667	movie	1		243	70.0	2.5	/experiments/knapen_AOT/AOT_stimuli/rescaled_final/1168_fw.mp4	0.0	304.29163813591003	2.5004310607910156
72	287.9847650527954	pulse	1	t		70.0	2.5	/experiments/knapen_AOT/AOT_stimuli/rescaled_final/1168_fw.mp4	0.0	305.0753331184387	
72	289.5848641395569	pulse	1	t		70.0	2.5	/experiments/knapen_AOT/AOT_stimuli/rescaled_final/1168_fw.mp4	0.0	306.6754322052002	
72	289.70150113105774	fix_post	2		12	70.0	2.5	/experiments/knapen_AOT/AOT_stimuli/rescaled_final/1168_fw.mp4	0.0	306.79206919670105	0.09994888305664062
73	289.8014500141144	fix_pre	0		120	71.0	2.5	/experiments/knapen_AOT/AOT_stimuli/rescaled_final/1718_fw.mp4	0.0	306.8920180797577	1.0001349449157715
73	290.80158495903015	movie	1		242	71.0	2.5	/experiments/knapen_AOT/AOT_stimuli/rescaled_final/1718_fw.mp4	0.0	307.89215302467346	2.4920032024383545
73	291.1867001056671	pulse	1	t		71.0	2.5	/experiments/knapen_AOT/AOT_stimuli/rescaled_final/1718_fw.mp4	0.0	308.2772681713104	
73	292.78537797927856	pulse	1	t		71.0	2.5	/experiments/knapen_AOT/AOT_stimuli/rescaled_final/1718_fw.mp4	0.0	309.8759460449219	
73	293.2935881614685	fix_post	2		12	71.0	2.5	/experiments/knapen_AOT/AOT_stimuli/rescaled_final/1718_fw.mp4	0.0	310.3841562271118	0.1000969409942627
74	293.39368510246277	fix_pre	0		120	72.0	2.5	/experiments/knapen_AOT/AOT_stimuli/rescaled_final/1875_rv.mp4	0.0	310.4842531681061	1.0000629425048828
74	294.3856689929962	pulse	0	t		72.0	2.5	/experiments/knapen_AOT/AOT_stimuli/rescaled_final/1875_rv.mp4	0.0	311.4762370586395	
74	294.39374804496765	movie	1		243	72.0	2.5	/experiments/knapen_AOT/AOT_stimuli/rescaled_final/1875_rv.mp4	0.0	311.48431611061096	2.5087411403656006
74	295.98638796806335	pulse	1	t		72.0	2.5	/experiments/knapen_AOT/AOT_stimuli/rescaled_final/1875_rv.mp4	0.0	313.07695603370667	
74	296.90248918533325	fix_post	2		12	72.0	2.5	/experiments/knapen_AOT/AOT_stimuli/rescaled_final/1875_rv.mp4	0.0	313.99305725097656	0.10007786750793457
75	297.0025670528412	fix_pre	0		120	73.0	2.5	/experiments/knapen_AOT/AOT_stimuli/rescaled_final/0734_fw.mp4	0.0	314.0931351184845	1.0000720024108887
75	297.5861210823059	pulse	0	t		73.0	2.5	/experiments/knapen_AOT/AOT_stimuli/rescaled_final/0734_fw.mp4	0.0	314.6766891479492	
75	298.0026390552521	movie	1		243	73.0	2.5	/experiments/knapen_AOT/AOT_stimuli/rescaled_final/0734_fw.mp4	0.0	315.0932071208954	2.5005149841308594
75	299.18646717071533	pulse	1	t		73.0	2.5	/experiments/knapen_AOT/AOT_stimuli/rescaled_final/0734_fw.mp4	0.0	316.27703523635864	
75	300.50315403938293	fix_post	2		12	73.0	2.5	/experiments/knapen_AOT/AOT_stimuli/rescaled_final/0734_fw.mp4	0.0	317.59372210502625	0.09988999366760254
76	300.60304403305054	fix_pre	0		120	74.0	2.5	/experiments/knapen_AOT/AOT_stimuli/rescaled_final/1969_rv.mp4	0.0	317.69361209869385	1.0002191066741943
76	300.7866771221161	pulse	0	t		74.0	2.5	/experiments/knapen_AOT/AOT_stimuli/rescaled_final/1969_rv.mp4	0.0	317.8772451877594	
76	301.60326313972473	movie	1		243	74.0	2.5	/experiments/knapen_AOT/AOT_stimuli/rescaled_final/1969_rv.mp4	0.0	318.69383120536804	2.500417947769165
76	302.3868250846863	pulse	1	t		74.0	2.5	/experiments/knapen_AOT/AOT_stimuli/rescaled_final/1969_rv.mp4	0.0	319.4773931503296	
76	303.987104177475	pulse	1	t		74.0	2.5	/experiments/knapen_AOT/AOT_stimuli/rescaled_final/1969_rv.mp4	0.0	321.0776722431183	
76	304.1036810874939	fix_post	2		12	74.0	2.5	/experiments/knapen_AOT/AOT_stimuli/rescaled_final/1969_rv.mp4	0.0	321.1942491531372	0.09992194175720215
77	304.2036030292511	fix_pre	0		120	75.0	2.5	/experiments/knapen_AOT/AOT_stimuli/rescaled_final/1695_fw.mp4	0.0	321.2941710948944	1.0000710487365723
77	305.20367407798767	movie	1		241	75.0	2.5	/experiments/knapen_AOT/AOT_stimuli/rescaled_final/1695_fw.mp4	0.0	322.294242143631	2.4921319484710693
77	305.5878701210022	pulse	1	t		75.0	2.5	/experiments/knapen_AOT/AOT_stimuli/rescaled_final/1695_fw.mp4	0.0	322.6784381866455	
77	307.1875100135803	pulse	1	t		75.0	2.5	/experiments/knapen_AOT/AOT_stimuli/rescaled_final/1695_fw.mp4	0.0	324.27807807922363	
77	307.69580602645874	fix_post	2		12	75.0	2.5	/experiments/knapen_AOT/AOT_stimuli/rescaled_final/1695_fw.mp4	0.0	324.78637409210205	0.09995508193969727
78	307.79576110839844	fix_pre	0		120	76.0	2.5	/experiments/knapen_AOT/AOT_stimuli/rescaled_final/0326_fw.mp4	0.0	324.88632917404175	1.000133991241455
78	308.78779101371765	pulse	0	t		76.0	2.5	/experiments/knapen_AOT/AOT_stimuli/rescaled_final/0326_fw.mp4	0.0	325.87835907936096	
78	308.7958950996399	movie	1		245	76.0	2.5	/experiments/knapen_AOT/AOT_stimuli/rescaled_final/0326_fw.mp4	0.0	325.8864631652832	2.5087480545043945
78	310.3886229991913	pulse	1	t		76.0	2.5	/experiments/knapen_AOT/AOT_stimuli/rescaled_final/0326_fw.mp4	0.0	327.4791910648346	
78	311.3046431541443	fix_post	2		12	76.0	2.5	/experiments/knapen_AOT/AOT_stimuli/rescaled_final/0326_fw.mp4	0.0	328.3952112197876	0.1000359058380127
79	311.4046790599823	fix_pre	0		120	77.0	2.5	blank	1.0	328.4952471256256	1.0001089572906494
79	311.98830008506775	pulse	0	t		77.0	2.5	blank	1.0	329.07886815071106	
79	312.40478801727295	movie	1		300	77.0	2.5	blank	1.0	329.49535608291626	2.5004329681396484
79	313.58854508399963	pulse	1	t		77.0	2.5	blank	1.0	330.67911314964294	
79	314.9052209854126	fix_post	2		12	77.0	2.5	blank	1.0	331.9957890510559	0.09998798370361328
80	315.0052089691162	fix_pre	0		120	78.0	2.5	/experiments/knapen_AOT/AOT_stimuli/rescaled_final/1167_rv.mp4	0.0	332.0957770347595	1.0000731945037842
80	315.18868613243103	pulse	0	t		78.0	2.5	/experiments/knapen_AOT/AOT_stimuli/rescaled_final/1167_rv.mp4	0.0	332.27925419807434	
80	316.00528216362	movie	1		243	78.0	2.5	/experiments/knapen_AOT/AOT_stimuli/rescaled_final/1167_rv.mp4	0.0	333.0958502292633	2.500432014465332
80	316.78893208503723	pulse	1	t		78.0	2.5	/experiments/knapen_AOT/AOT_stimuli/rescaled_final/1167_rv.mp4	0.0	333.87950015068054	
80	318.3888680934906	pulse	1	t		78.0	2.5	/experiments/knapen_AOT/AOT_stimuli/rescaled_final/1167_rv.mp4	0.0	335.4794361591339	
80	318.5057141780853	fix_post	2		12	78.0	2.5	/experiments/knapen_AOT/AOT_stimuli/rescaled_final/1167_rv.mp4	0.0	335.59628224372864	0.09996795654296875
81	318.6056821346283	fix_pre	0		120	79.0	2.5	/experiments/knapen_AOT/AOT_stimuli/rescaled_final/0487_rv.mp4	0.0	335.6962502002716	1.0002388954162598
81	319.60592103004456	movie	1		244	79.0	2.5	/experiments/knapen_AOT/AOT_stimuli/rescaled_final/0487_rv.mp4	0.0	336.69648909568787	2.492043972015381
81	319.99008107185364	pulse	1	t		79.0	2.5	/experiments/knapen_AOT/AOT_stimuli/rescaled_final/0487_rv.mp4	0.0	337.08064913749695	
81	321.58243203163147	pulse	1	t		79.0	2.5	/experiments/knapen_AOT/AOT_stimuli/rescaled_final/0487_rv.mp4	0.0	338.6730000972748	
81	322.09796500205994	fix_post	2		10	79.0	2.5	/experiments/knapen_AOT/AOT_stimuli/rescaled_final/0487_rv.mp4	0.0	339.18853306770325	0.09995603561401367
82	322.19792103767395	fix_pre	0		120	80.0	2.5	/experiments/knapen_AOT/AOT_stimuli/rescaled_final/1800_fw.mp4	0.0	339.28848910331726	1.0001800060272217
82	323.1825611591339	pulse	0	t		80.0	2.5	/experiments/knapen_AOT/AOT_stimuli/rescaled_final/1800_fw.mp4	0.0	340.2731292247772	
82	323.1981010437012	movie	1		243	80.0	2.5	/experiments/knapen_AOT/AOT_stimuli/rescaled_final/1800_fw.mp4	0.0	340.2886691093445	2.508641004562378
82	324.793897151947	pulse	1	t		80.0	2.5	/experiments/knapen_AOT/AOT_stimuli/rescaled_final/1800_fw.mp4	0.0	341.88446521759033	
82	325.70674204826355	fix_post	2		12	80.0	2.5	/experiments/knapen_AOT/AOT_stimuli/rescaled_final/1800_fw.mp4	0.0	342.79731011390686	0.10002398490905762
83	325.8067660331726	fix_pre	0		120	81.0	2.5	/experiments/knapen_AOT/AOT_stimuli/rescaled_final/0479_fw.mp4	0.0	342.8973340988159	1.0002000331878662
83	326.3828430175781	pulse	0	t		81.0	2.5	/experiments/knapen_AOT/AOT_stimuli/rescaled_final/0479_fw.mp4	0.0	343.47341108322144	
83	326.8069660663605	movie	1		244	81.0	2.5	/experiments/knapen_AOT/AOT_stimuli/rescaled_final/0479_fw.mp4	0.0	343.8975341320038	2.500309944152832
83	327.9866590499878	pulse	1	t		81.0	2.5	/experiments/knapen_AOT/AOT_stimuli/rescaled_final/0479_fw.mp4	0.0	345.0772271156311	
83	329.3072760105133	fix_post	2		12	81.0	2.5	/experiments/knapen_AOT/AOT_stimuli/rescaled_final/0479_fw.mp4	0.0	346.3978440761566	0.10003304481506348
84	329.40730905532837	fix_pre	0		120	82.0	2.5	blank	1.0	346.4978771209717	1.0001389980316162
84	329.58324813842773	pulse	0	t		82.0	2.5	blank	1.0	346.67381620407104	
84	330.40744805336	movie	1		299	82.0	2.5	blank	1.0	347.4980161190033	2.492115020751953
84	331.18273401260376	pulse	1	t		82.0	2.5	blank	1.0	348.27330207824707	
84	332.78292512893677	pulse	1	t		82.0	2.5	blank	1.0	349.8734931945801	
84	332.89956307411194	fix_post	2		12	82.0	2.5	blank	1.0	349.99013113975525	0.09994196891784668
85	332.9995050430298	fix_pre	0		120	83.0	2.5	/experiments/knapen_AOT/AOT_stimuli/rescaled_final/1847_rv.mp4	0.0	350.0900731086731	1.0001249313354492
85	333.99962997436523	movie	1		242	83.0	2.5	/experiments/knapen_AOT/AOT_stimuli/rescaled_final/1847_rv.mp4	0.0	351.09019804000854	2.50052809715271
85	334.38370418548584	pulse	1	t		83.0	2.5	/experiments/knapen_AOT/AOT_stimuli/rescaled_final/1847_rv.mp4	0.0	351.47427225112915	
85	335.98361015319824	pulse	1	t		83.0	2.5	/experiments/knapen_AOT/AOT_stimuli/rescaled_final/1847_rv.mp4	0.0	353.07417821884155	
85	336.50015807151794	fix_post	2		12	83.0	2.5	/experiments/knapen_AOT/AOT_stimuli/rescaled_final/1847_rv.mp4	0.0	353.59072613716125	0.09994292259216309
87	336.6001009941101	stim	0		1716					353.6906690597534	14.302170991897583
87	337.5838050842285	pulse	0	t						354.6743731498718	
87	339.1838619709015	pulse	0	t						356.2744300365448	
87	340.7842330932617	pulse	0	t						357.87480115890503	
87	342.384437084198	pulse	0	t						359.4750051498413	
87	343.9847230911255	pulse	0	t						361.0752911567688	
87	345.5848550796509	pulse	0	t						362.6754231452942	
87	347.18508100509644	pulse	0	t						364.27564907073975	
87	348.7854051589966	pulse	0	t						365.8759732246399	
87	350.38563108444214	pulse	0	t						367.47619915008545	
