trial_nr	onset	event_type	phase	response	nr_frames	movie_index	movie_duration	movie_file	blank	onset_abs	duration
0	0.12453603744506836	stim	0		40					20.20795702934265	0.33371686935424805
0	0.450145959854126	response	0	space						20.53356695175171	
1	0.4582529067993164	stim	0		6349					20.5416738986969	52.90800905227661
1	53.361480951309204	pulse	0	t						73.44490194320679	
1	53.36626195907593	stim	1		1717					73.44968295097351	14.308398962020874
1	54.95812511444092	pulse	1	t						75.0415461063385	
1	56.55804896354675	pulse	1	t						76.64146995544434	
1	58.15807104110718	pulse	1	t						78.24149203300476	
1	59.75821304321289	pulse	1	t						79.84163403511047	
1	61.358027935028076	pulse	1	t						81.44144892692566	
1	62.95803499221802	pulse	1	t						83.0414559841156	
1	64.55804109573364	pulse	1	t						84.64146208763123	
1	66.15814805030823	pulse	1	t						86.24156904220581	
2	67.6746609210968	fix_pre	0		11	0.0	2.5	/experiments/AOT/AOT_stimuli/rescaled_final/1153_fw.mp4	0.0	87.75808191299438	0.09155797958374023
2	67.75805711746216	pulse	0	t		0.0	2.5	/experiments/AOT/AOT_stimuli/rescaled_final/1153_fw.mp4	0.0	87.84147810935974	
2	67.76621890068054	movie	1		245	0.0	2.5	/experiments/AOT/AOT_stimuli/rescaled_final/1153_fw.mp4	0.0	87.84963989257812	2.507930040359497
2	69.35756206512451	pulse	1	t		0.0	2.5	/experiments/AOT/AOT_stimuli/rescaled_final/1153_fw.mp4	0.0	89.4409830570221	
2	70.27414894104004	fix_post	2		12	0.0	2.5	/experiments/AOT/AOT_stimuli/rescaled_final/1153_fw.mp4	0.0	90.35756993293762	0.10038614273071289
3	70.37453508377075	fix_pre	0		120	1.0	2.5	/experiments/AOT/AOT_stimuli/rescaled_final/0292_fw.mp4	0.0	90.45795607566833	1.000020980834961
3	70.95801401138306	pulse	0	t		1.0	2.5	/experiments/AOT/AOT_stimuli/rescaled_final/0292_fw.mp4	0.0	91.04143500328064	
3	71.37455606460571	movie	1		244	1.0	2.5	/experiments/AOT/AOT_stimuli/rescaled_final/0292_fw.mp4	0.0	91.4579770565033	2.500272035598755
3	72.5581591129303	pulse	1	t		1.0	2.5	/experiments/AOT/AOT_stimuli/rescaled_final/0292_fw.mp4	0.0	92.64158010482788	
3	73.87482810020447	fix_post	2		12	1.0	2.5	/experiments/AOT/AOT_stimuli/rescaled_final/0292_fw.mp4	0.0	93.95824909210205	0.1000669002532959
4	73.97489500045776	fix_pre	0		120	2.0	2.5	/experiments/AOT/AOT_stimuli/rescaled_final/0469_rv.mp4	0.0	94.05831599235535	0.9992480278015137
4	74.15800094604492	pulse	0	t		2.0	2.5	/experiments/AOT/AOT_stimuli/rescaled_final/0469_rv.mp4	0.0	94.2414219379425	
4	74.97414302825928	movie	1		243	2.0	2.5	/experiments/AOT/AOT_stimuli/rescaled_final/0469_rv.mp4	0.0	95.05756402015686	2.5004348754882812
4	75.75802493095398	pulse	1	t		2.0	2.5	/experiments/AOT/AOT_stimuli/rescaled_final/0469_rv.mp4	0.0	95.84144592285156	
4	77.35652899742126	pulse	1	t		2.0	2.5	/experiments/AOT/AOT_stimuli/rescaled_final/0469_rv.mp4	0.0	97.43994998931885	
4	77.47457790374756	fix_post	2		12	2.0	2.5	/experiments/AOT/AOT_stimuli/rescaled_final/0469_rv.mp4	0.0	97.55799889564514	0.09984922409057617
5	77.57442712783813	fix_pre	0		120	3.0	2.5	/experiments/AOT/AOT_stimuli/rescaled_final/0810_fw.mp4	0.0	97.65784811973572	1.0000629425048828
5	78.57449007034302	movie	1		246	3.0	2.5	/experiments/AOT/AOT_stimuli/rescaled_final/0810_fw.mp4	0.0	98.6579110622406	2.499927043914795
5	78.95876693725586	pulse	1	t		3.0	2.5	/experiments/AOT/AOT_stimuli/rescaled_final/0810_fw.mp4	0.0	99.04218792915344	
5	80.55801296234131	pulse	1	t		3.0	2.5	/experiments/AOT/AOT_stimuli/rescaled_final/0810_fw.mp4	0.0	100.64143395423889	
5	81.07441711425781	fix_post	2		12	3.0	2.5	/experiments/AOT/AOT_stimuli/rescaled_final/0810_fw.mp4	0.0	101.1578381061554	0.10008502006530762
6	81.17450213432312	fix_pre	0		119	4.0	2.5	/experiments/AOT/AOT_stimuli/rescaled_final/0877_fw.mp4	0.0	101.2579231262207	0.9917149543762207
6	82.1580080986023	pulse	0	t		4.0	2.5	/experiments/AOT/AOT_stimuli/rescaled_final/0877_fw.mp4	0.0	102.24142909049988	
6	82.16621708869934	movie	1		245	4.0	2.5	/experiments/AOT/AOT_stimuli/rescaled_final/0877_fw.mp4	0.0	102.24963808059692	2.508288860321045
6	83.7583749294281	pulse	1	t		4.0	2.5	/experiments/AOT/AOT_stimuli/rescaled_final/0877_fw.mp4	0.0	103.84179592132568	
6	84.67450594902039	fix_post	2		12	4.0	2.5	/experiments/AOT/AOT_stimuli/rescaled_final/0877_fw.mp4	0.0	104.75792694091797	0.10001206398010254
7	84.77451801300049	fix_pre	0		120	5.0	2.5	/experiments/AOT/AOT_stimuli/rescaled_final/1237_rv.mp4	0.0	104.85793900489807	1.0000131130218506
7	85.3578839302063	pulse	0	t		5.0	2.5	/experiments/AOT/AOT_stimuli/rescaled_final/1237_rv.mp4	0.0	105.44130492210388	
7	85.77453112602234	movie	1		242	5.0	2.5	/experiments/AOT/AOT_stimuli/rescaled_final/1237_rv.mp4	0.0	105.85795211791992	2.4999849796295166
7	86.95802807807922	pulse	1	t		5.0	2.5	/experiments/AOT/AOT_stimuli/rescaled_final/1237_rv.mp4	0.0	107.0414490699768	
7	88.27451610565186	fix_post	2		12	5.0	2.5	/experiments/AOT/AOT_stimuli/rescaled_final/1237_rv.mp4	0.0	108.35793709754944	0.09995579719543457
8	88.37447190284729	fix_pre	0		120	6.0	2.5	blank	1.0	108.45789289474487	0.9999752044677734
8	88.55795192718506	pulse	0	t		6.0	2.5	blank	1.0	108.64137291908264	
8	89.37444710731506	movie	1		300	6.0	2.5	blank	1.0	109.45786809921265	2.499638795852661
8	90.15793013572693	pulse	1	t		6.0	2.5	blank	1.0	110.24135112762451	
8	91.75793504714966	pulse	1	t		6.0	2.5	blank	1.0	111.84135603904724	
8	91.87408590316772	fix_post	2		12	6.0	2.5	blank	1.0	111.95750689506531	0.10039019584655762
9	91.97447609901428	fix_pre	0		120	7.0	2.5	/experiments/AOT/AOT_stimuli/rescaled_final/0945_fw.mp4	0.0	112.05789709091187	1.000020980834961
9	92.97449707984924	movie	1		244	7.0	2.5	/experiments/AOT/AOT_stimuli/rescaled_final/0945_fw.mp4	0.0	113.05791807174683	2.4995079040527344
9	93.35761308670044	pulse	1	t		7.0	2.5	/experiments/AOT/AOT_stimuli/rescaled_final/0945_fw.mp4	0.0	113.44103407859802	
9	94.95797801017761	pulse	1	t		7.0	2.5	/experiments/AOT/AOT_stimuli/rescaled_final/0945_fw.mp4	0.0	115.0413990020752	
9	95.47400498390198	fix_post	2		12	7.0	2.5	/experiments/AOT/AOT_stimuli/rescaled_final/0945_fw.mp4	0.0	115.55742597579956	0.10035991668701172
10	95.57436490058899	fix_pre	0		119	8.0	2.5	/experiments/AOT/AOT_stimuli/rescaled_final/0852_fw.mp4	0.0	115.65778589248657	0.9917581081390381
10	96.55788207054138	pulse	0	t		8.0	2.5	/experiments/AOT/AOT_stimuli/rescaled_final/0852_fw.mp4	0.0	116.64130306243896	
10	96.56612300872803	movie	1		246	8.0	2.5	/experiments/AOT/AOT_stimuli/rescaled_final/0852_fw.mp4	0.0	116.64954400062561	2.507852077484131
10	98.15904498100281	pulse	1	t		8.0	2.5	/experiments/AOT/AOT_stimuli/rescaled_final/0852_fw.mp4	0.0	118.24246597290039	
10	99.07397508621216	fix_post	2		12	8.0	2.5	/experiments/AOT/AOT_stimuli/rescaled_final/0852_fw.mp4	0.0	119.15739607810974	0.10039997100830078
11	99.17437505722046	fix_pre	0		120	9.0	2.5	/experiments/AOT/AOT_stimuli/rescaled_final/1538_rv.mp4	0.0	119.25779604911804	0.9995808601379395
11	99.75798797607422	pulse	0	t		9.0	2.5	/experiments/AOT/AOT_stimuli/rescaled_final/1538_rv.mp4	0.0	119.8414089679718	
11	100.1739559173584	movie	1		244	9.0	2.5	/experiments/AOT/AOT_stimuli/rescaled_final/1538_rv.mp4	0.0	120.25737690925598	2.5004961490631104
11	101.35799312591553	pulse	1	t		9.0	2.5	/experiments/AOT/AOT_stimuli/rescaled_final/1538_rv.mp4	0.0	121.44141411781311	
11	102.67445206642151	fix_post	2		12	9.0	2.5	/experiments/AOT/AOT_stimuli/rescaled_final/1538_rv.mp4	0.0	122.75787305831909	0.09987902641296387
12	102.77433109283447	fix_pre	0		120	10.0	2.5	/experiments/AOT/AOT_stimuli/rescaled_final/0020_fw.mp4	0.0	122.85775208473206	0.9995858669281006
12	102.95785593986511	pulse	0	t		10.0	2.5	/experiments/AOT/AOT_stimuli/rescaled_final/0020_fw.mp4	0.0	123.0412769317627	
12	103.77391695976257	movie	1		244	10.0	2.5	/experiments/AOT/AOT_stimuli/rescaled_final/0020_fw.mp4	0.0	123.85733795166016	2.500417947769165
12	104.55783700942993	pulse	1	t		10.0	2.5	/experiments/AOT/AOT_stimuli/rescaled_final/0020_fw.mp4	0.0	124.64125800132751	
12	106.1563789844513	pulse	1	t		10.0	2.5	/experiments/AOT/AOT_stimuli/rescaled_final/0020_fw.mp4	0.0	126.23979997634888	
12	106.27433490753174	fix_post	2		12	10.0	2.5	/experiments/AOT/AOT_stimuli/rescaled_final/0020_fw.mp4	0.0	126.35775589942932	0.10002803802490234
13	106.37436294555664	fix_pre	0		120	11.0	2.5	/experiments/AOT/AOT_stimuli/rescaled_final/1963_fw.mp4	0.0	126.45778393745422	0.9996051788330078
13	107.37396812438965	movie	1		244	11.0	2.5	/experiments/AOT/AOT_stimuli/rescaled_final/1963_fw.mp4	0.0	127.45738911628723	2.5003879070281982
13	107.75764513015747	pulse	1	t		11.0	2.5	/experiments/AOT/AOT_stimuli/rescaled_final/1963_fw.mp4	0.0	127.84106612205505	
13	109.35793399810791	pulse	1	t		11.0	2.5	/experiments/AOT/AOT_stimuli/rescaled_final/1963_fw.mp4	0.0	129.4413549900055	
13	109.87435603141785	fix_post	2		12	11.0	2.5	/experiments/AOT/AOT_stimuli/rescaled_final/1963_fw.mp4	0.0	129.95777702331543	0.099945068359375
14	109.97430109977722	fix_pre	0		119	12.0	2.5	blank	1.0	130.0577220916748	0.991657018661499
14	110.95781111717224	pulse	0	t		12.0	2.5	blank	1.0	131.04123210906982	
14	110.96595811843872	movie	1		301	12.0	2.5	blank	1.0	131.0493791103363	2.5085318088531494
14	112.55783700942993	pulse	1	t		12.0	2.5	blank	1.0	132.64125800132751	
14	113.47448992729187	fix_post	2		12	12.0	2.5	blank	1.0	133.55791091918945	0.09986710548400879
15	113.57435703277588	fix_pre	0		120	13.0	2.5	/experiments/AOT/AOT_stimuli/rescaled_final/0793_fw.mp4	0.0	133.65777802467346	0.9999880790710449
15	114.15793299674988	pulse	0	t		13.0	2.5	/experiments/AOT/AOT_stimuli/rescaled_final/0793_fw.mp4	0.0	134.24135398864746	
15	114.57434511184692	movie	1		243	13.0	2.5	/experiments/AOT/AOT_stimuli/rescaled_final/0793_fw.mp4	0.0	134.6577661037445	2.500041961669922
15	115.75797295570374	pulse	1	t		13.0	2.5	/experiments/AOT/AOT_stimuli/rescaled_final/0793_fw.mp4	0.0	135.84139394760132	
15	117.07438707351685	fix_post	2		12	13.0	2.5	/experiments/AOT/AOT_stimuli/rescaled_final/0793_fw.mp4	0.0	137.15780806541443	0.09987783432006836
16	117.17426490783691	fix_pre	0		120	14.0	2.5	/experiments/AOT/AOT_stimuli/rescaled_final/0933_rv.mp4	0.0	137.2576858997345	1.0001320838928223
16	117.35786509513855	pulse	0	t		14.0	2.5	/experiments/AOT/AOT_stimuli/rescaled_final/0933_rv.mp4	0.0	137.44128608703613	
16	118.17439699172974	movie	1		243	14.0	2.5	/experiments/AOT/AOT_stimuli/rescaled_final/0933_rv.mp4	0.0	138.25781798362732	2.499488115310669
16	118.95777702331543	pulse	1	t		14.0	2.5	/experiments/AOT/AOT_stimuli/rescaled_final/0933_rv.mp4	0.0	139.041198015213	
16	120.55625700950623	pulse	1	t		14.0	2.5	/experiments/AOT/AOT_stimuli/rescaled_final/0933_rv.mp4	0.0	140.6396780014038	
16	120.6738851070404	fix_post	2		12	14.0	2.5	/experiments/AOT/AOT_stimuli/rescaled_final/0933_rv.mp4	0.0	140.757306098938	0.10038185119628906
17	120.7742669582367	fix_pre	0		120	15.0	2.5	/experiments/AOT/AOT_stimuli/rescaled_final/1668_rv.mp4	0.0	140.85768795013428	0.9999501705169678
17	121.77421712875366	movie	1		243	15.0	2.5	/experiments/AOT/AOT_stimuli/rescaled_final/1668_rv.mp4	0.0	141.85763812065125	2.499631881713867
17	122.15737390518188	pulse	1	t		15.0	2.5	/experiments/AOT/AOT_stimuli/rescaled_final/1668_rv.mp4	0.0	142.24079489707947	
17	123.75769805908203	pulse	1	t		15.0	2.5	/experiments/AOT/AOT_stimuli/rescaled_final/1668_rv.mp4	0.0	143.84111905097961	
17	124.27384901046753	fix_post	2		12	15.0	2.5	/experiments/AOT/AOT_stimuli/rescaled_final/1668_rv.mp4	0.0	144.3572700023651	0.10052108764648438
18	124.37437009811401	fix_pre	0		119	16.0	2.5	/experiments/AOT/AOT_stimuli/rescaled_final/1200_rv.mp4	0.0	144.4577910900116	0.9915828704833984
18	125.35780906677246	pulse	0	t		16.0	2.5	/experiments/AOT/AOT_stimuli/rescaled_final/1200_rv.mp4	0.0	145.44123005867004	
18	125.36595296859741	movie	1		246	16.0	2.5	/experiments/AOT/AOT_stimuli/rescaled_final/1200_rv.mp4	0.0	145.449373960495	2.507972002029419
18	126.95692300796509	pulse	1	t		16.0	2.5	/experiments/AOT/AOT_stimuli/rescaled_final/1200_rv.mp4	0.0	147.04034399986267	
18	127.87392497062683	fix_post	2		12	16.0	2.5	/experiments/AOT/AOT_stimuli/rescaled_final/1200_rv.mp4	0.0	147.9573459625244	0.09998512268066406
19	127.9739100933075	fix_pre	0		120	17.0	2.5	/experiments/AOT/AOT_stimuli/rescaled_final/1200_fw.mp4	0.0	148.05733108520508	1.0005550384521484
19	128.5574939250946	pulse	0	t		17.0	2.5	/experiments/AOT/AOT_stimuli/rescaled_final/1200_fw.mp4	0.0	148.6409149169922	
19	128.97446513175964	movie	1		242	17.0	2.5	/experiments/AOT/AOT_stimuli/rescaled_final/1200_fw.mp4	0.0	149.05788612365723	2.4993999004364014
19	130.15779399871826	pulse	1	t		17.0	2.5	/experiments/AOT/AOT_stimuli/rescaled_final/1200_fw.mp4	0.0	150.24121499061584	
19	131.47386503219604	fix_post	2		12	17.0	2.5	/experiments/AOT/AOT_stimuli/rescaled_final/1200_fw.mp4	0.0	151.55728602409363	0.10056400299072266
20	131.57442903518677	fix_pre	0		120	18.0	2.5	/experiments/AOT/AOT_stimuli/rescaled_final/1405_fw.mp4	0.0	151.65785002708435	0.9998018741607666
20	131.75777006149292	pulse	0	t		18.0	2.5	/experiments/AOT/AOT_stimuli/rescaled_final/1405_fw.mp4	0.0	151.8411910533905	
20	132.57423090934753	movie	1		244	18.0	2.5	/experiments/AOT/AOT_stimuli/rescaled_final/1405_fw.mp4	0.0	152.65765190124512	2.499713182449341
20	133.35769295692444	pulse	1	t		18.0	2.5	/experiments/AOT/AOT_stimuli/rescaled_final/1405_fw.mp4	0.0	153.44111394882202	
20	134.95651698112488	pulse	1	t		18.0	2.5	/experiments/AOT/AOT_stimuli/rescaled_final/1405_fw.mp4	0.0	155.03993797302246	
20	135.07394409179688	fix_post	2		12	18.0	2.5	/experiments/AOT/AOT_stimuli/rescaled_final/1405_fw.mp4	0.0	155.15736508369446	0.0998389720916748
21	135.17378306388855	fix_pre	0		120	19.0	2.5	/experiments/AOT/AOT_stimuli/rescaled_final/1276_rv.mp4	0.0	155.25720405578613	1.000396966934204
21	136.17418003082275	movie	1		243	19.0	2.5	/experiments/AOT/AOT_stimuli/rescaled_final/1276_rv.mp4	0.0	156.25760102272034	2.500072956085205
21	136.55746912956238	pulse	1	t		19.0	2.5	/experiments/AOT/AOT_stimuli/rescaled_final/1276_rv.mp4	0.0	156.64089012145996	
21	138.15768599510193	pulse	1	t		19.0	2.5	/experiments/AOT/AOT_stimuli/rescaled_final/1276_rv.mp4	0.0	158.2411069869995	
21	138.67425298690796	fix_post	2		12	19.0	2.5	/experiments/AOT/AOT_stimuli/rescaled_final/1276_rv.mp4	0.0	158.75767397880554	0.10003113746643066
22	138.7742841243744	fix_pre	0		119	20.0	2.5	blank	1.0	158.85770511627197	0.9915440082550049
22	139.75769305229187	pulse	0	t		20.0	2.5	blank	1.0	159.84111404418945	
22	139.7658281326294	movie	1		301	20.0	2.5	blank	1.0	159.84924912452698	2.5083417892456055
22	141.3576259613037	pulse	1	t		20.0	2.5	blank	1.0	161.4410469532013	
22	142.274169921875	fix_post	2		12	20.0	2.5	blank	1.0	162.35759091377258	0.1000361442565918
23	142.3742060661316	fix_pre	0		120	21.0	2.5	/experiments/AOT/AOT_stimuli/rescaled_final/1647_fw.mp4	0.0	162.45762705802917	0.9999568462371826
23	142.957701921463	pulse	0	t		21.0	2.5	/experiments/AOT/AOT_stimuli/rescaled_final/1647_fw.mp4	0.0	163.0411229133606	
23	143.37416291236877	movie	1		243	21.0	2.5	/experiments/AOT/AOT_stimuli/rescaled_final/1647_fw.mp4	0.0	163.45758390426636	2.500030040740967
23	144.55776500701904	pulse	1	t		21.0	2.5	/experiments/AOT/AOT_stimuli/rescaled_final/1647_fw.mp4	0.0	164.64118599891663	
23	145.87419295310974	fix_post	2		12	21.0	2.5	/experiments/AOT/AOT_stimuli/rescaled_final/1647_fw.mp4	0.0	165.95761394500732	0.0999140739440918
24	145.97410702705383	fix_pre	0		120	22.0	2.5	/experiments/AOT/AOT_stimuli/rescaled_final/1668_rv.mp4	0.0	166.05752801895142	1.000154972076416
24	146.15768694877625	pulse	0	t		22.0	2.5	/experiments/AOT/AOT_stimuli/rescaled_final/1668_rv.mp4	0.0	166.24110794067383	
24	146.97426199913025	movie	1		243	22.0	2.5	/experiments/AOT/AOT_stimuli/rescaled_final/1668_rv.mp4	0.0	167.05768299102783	2.4998929500579834
24	147.75767707824707	pulse	1	t		22.0	2.5	/experiments/AOT/AOT_stimuli/rescaled_final/1668_rv.mp4	0.0	167.84109807014465	
24	149.3559911251068	pulse	1	t		22.0	2.5	/experiments/AOT/AOT_stimuli/rescaled_final/1668_rv.mp4	0.0	169.4394121170044	
24	149.47415494918823	fix_post	2		12	22.0	2.5	/experiments/AOT/AOT_stimuli/rescaled_final/1668_rv.mp4	0.0	169.55757594108582	0.10002708435058594
25	149.57418203353882	fix_pre	0		120	23.0	2.5	/experiments/AOT/AOT_stimuli/rescaled_final/1506_rv.mp4	0.0	169.6576030254364	0.9999010562896729
25	150.5740830898285	movie	1		243	23.0	2.5	/experiments/AOT/AOT_stimuli/rescaled_final/1506_rv.mp4	0.0	170.65750408172607	2.500067949295044
25	150.95726990699768	pulse	1	t		23.0	2.5	/experiments/AOT/AOT_stimuli/rescaled_final/1506_rv.mp4	0.0	171.04069089889526	
25	152.55762100219727	pulse	1	t		23.0	2.5	/experiments/AOT/AOT_stimuli/rescaled_final/1506_rv.mp4	0.0	172.64104199409485	
25	153.07415103912354	fix_post	2		12	23.0	2.5	/experiments/AOT/AOT_stimuli/rescaled_final/1506_rv.mp4	0.0	173.15757203102112	0.09996986389160156
26	153.17412090301514	fix_pre	0		119	24.0	2.5	/experiments/AOT/AOT_stimuli/rescaled_final/0650_fw.mp4	0.0	173.25754189491272	0.9916951656341553
26	154.157634973526	pulse	0	t		24.0	2.5	/experiments/AOT/AOT_stimuli/rescaled_final/0650_fw.mp4	0.0	174.24105596542358	
26	154.1658160686493	movie	1		244	24.0	2.5	/experiments/AOT/AOT_stimuli/rescaled_final/0650_fw.mp4	0.0	174.24923706054688	2.5082850456237793
26	155.75885891914368	pulse	1	t		24.0	2.5	/experiments/AOT/AOT_stimuli/rescaled_final/0650_fw.mp4	0.0	175.84227991104126	
26	156.67410111427307	fix_post	2		12	24.0	2.5	/experiments/AOT/AOT_stimuli/rescaled_final/0650_fw.mp4	0.0	176.75752210617065	0.09953498840332031
27	156.7736361026764	fix_pre	0		120	25.0	2.5	/experiments/AOT/AOT_stimuli/rescaled_final/2161_rv.mp4	0.0	176.85705709457397	1.0004589557647705
27	157.3577151298523	pulse	0	t		25.0	2.5	/experiments/AOT/AOT_stimuli/rescaled_final/2161_rv.mp4	0.0	177.44113612174988	
27	157.77409505844116	movie	1		244	25.0	2.5	/experiments/AOT/AOT_stimuli/rescaled_final/2161_rv.mp4	0.0	177.85751605033875	2.500053882598877
27	158.95757913589478	pulse	1	t		25.0	2.5	/experiments/AOT/AOT_stimuli/rescaled_final/2161_rv.mp4	0.0	179.04100012779236	
27	160.27414894104004	fix_post	2		12	25.0	2.5	/experiments/AOT/AOT_stimuli/rescaled_final/2161_rv.mp4	0.0	180.35756993293762	0.09999203681945801
28	160.3741409778595	fix_pre	0		120	26.0	2.5	blank	1.0	180.45756196975708	0.9995269775390625
28	160.5576570034027	pulse	0	t		26.0	2.5	blank	1.0	180.6410779953003	
28	161.37366795539856	movie	1		300	26.0	2.5	blank	1.0	181.45708894729614	2.500385046005249
28	162.15760207176208	pulse	1	t		26.0	2.5	blank	1.0	182.24102306365967	
28	163.7575421333313	pulse	1	t		26.0	2.5	blank	1.0	183.84096312522888	
28	163.8740530014038	fix_post	2		12	26.0	2.5	blank	1.0	183.9574739933014	0.10010910034179688
29	163.9741621017456	fix_pre	0		120	27.0	2.5	/experiments/AOT/AOT_stimuli/rescaled_final/0200_rv.mp4	0.0	184.0575830936432	0.9994919300079346
29	164.97365403175354	movie	1		246	27.0	2.5	/experiments/AOT/AOT_stimuli/rescaled_final/0200_rv.mp4	0.0	185.05707502365112	2.4999759197235107
29	165.35729503631592	pulse	1	t		27.0	2.5	/experiments/AOT/AOT_stimuli/rescaled_final/0200_rv.mp4	0.0	185.4407160282135	
29	166.9575629234314	pulse	1	t		27.0	2.5	/experiments/AOT/AOT_stimuli/rescaled_final/0200_rv.mp4	0.0	187.04098391532898	
29	167.47362995147705	fix_post	2		12	27.0	2.5	/experiments/AOT/AOT_stimuli/rescaled_final/0200_rv.mp4	0.0	187.55705094337463	0.1003561019897461
30	167.5739860534668	fix_pre	0		119	28.0	2.5	/experiments/AOT/AOT_stimuli/rescaled_final/0397_fw.mp4	0.0	187.65740704536438	0.991879940032959
30	168.5576241016388	pulse	0	t		28.0	2.5	/experiments/AOT/AOT_stimuli/rescaled_final/0397_fw.mp4	0.0	188.64104509353638	
30	168.56586599349976	movie	1		245	28.0	2.5	/experiments/AOT/AOT_stimuli/rescaled_final/0397_fw.mp4	0.0	188.64928698539734	2.5076959133148193
30	170.1573760509491	pulse	1	t		28.0	2.5	/experiments/AOT/AOT_stimuli/rescaled_final/0397_fw.mp4	0.0	190.24079704284668	
30	171.07356190681458	fix_post	2		12	28.0	2.5	/experiments/AOT/AOT_stimuli/rescaled_final/0397_fw.mp4	0.0	191.15698289871216	0.10054612159729004
31	171.17410802841187	fix_pre	0		120	29.0	2.5	/experiments/AOT/AOT_stimuli/rescaled_final/1499_fw.mp4	0.0	191.25752902030945	0.9998800754547119
31	171.75758004188538	pulse	0	t		29.0	2.5	/experiments/AOT/AOT_stimuli/rescaled_final/1499_fw.mp4	0.0	191.84100103378296	
31	172.17398810386658	movie	1		244	29.0	2.5	/experiments/AOT/AOT_stimuli/rescaled_final/1499_fw.mp4	0.0	192.25740909576416	2.499621868133545
31	173.35770511627197	pulse	1	t		29.0	2.5	/experiments/AOT/AOT_stimuli/rescaled_final/1499_fw.mp4	0.0	193.44112610816956	
31	174.67360997200012	fix_post	2		12	29.0	2.5	/experiments/AOT/AOT_stimuli/rescaled_final/1499_fw.mp4	0.0	194.7570309638977	0.10043597221374512
32	174.77404594421387	fix_pre	0		120	30.0	2.5	/experiments/AOT/AOT_stimuli/rescaled_final/0153_rv.mp4	0.0	194.85746693611145	0.9999880790710449
32	174.95751404762268	pulse	0	t		30.0	2.5	/experiments/AOT/AOT_stimuli/rescaled_final/0153_rv.mp4	0.0	195.04093503952026	
32	175.7740340232849	movie	1		243	30.0	2.5	/experiments/AOT/AOT_stimuli/rescaled_final/0153_rv.mp4	0.0	195.8574550151825	2.499523878097534
32	176.55748009681702	pulse	1	t		30.0	2.5	/experiments/AOT/AOT_stimuli/rescaled_final/0153_rv.mp4	0.0	196.6409010887146	
32	178.1561050415039	pulse	1	t		30.0	2.5	/experiments/AOT/AOT_stimuli/rescaled_final/0153_rv.mp4	0.0	198.2395260334015	
32	178.27355790138245	fix_post	2		12	30.0	2.5	/experiments/AOT/AOT_stimuli/rescaled_final/0153_rv.mp4	0.0	198.35697889328003	0.10009002685546875
33	178.37364792823792	fix_pre	0		120	31.0	2.5	/experiments/AOT/AOT_stimuli/rescaled_final/1878_rv.mp4	0.0	198.4570689201355	1.000359058380127
33	179.37400698661804	movie	1		244	31.0	2.5	/experiments/AOT/AOT_stimuli/rescaled_final/1878_rv.mp4	0.0	199.45742797851562	2.5001370906829834
33	179.75713896751404	pulse	1	t		31.0	2.5	/experiments/AOT/AOT_stimuli/rescaled_final/1878_rv.mp4	0.0	199.84055995941162	
33	181.35745310783386	pulse	1	t		31.0	2.5	/experiments/AOT/AOT_stimuli/rescaled_final/1878_rv.mp4	0.0	201.44087409973145	
33	181.87414407730103	fix_post	2		12	31.0	2.5	/experiments/AOT/AOT_stimuli/rescaled_final/1878_rv.mp4	0.0	201.9575650691986	0.09939789772033691
34	181.97354197502136	fix_pre	0		119	32.0	2.5	/experiments/AOT/AOT_stimuli/rescaled_final/0087_rv.mp4	0.0	202.05696296691895	0.9921519756317139
34	182.95751810073853	pulse	0	t		32.0	2.5	/experiments/AOT/AOT_stimuli/rescaled_final/0087_rv.mp4	0.0	203.0409390926361	
34	182.96569395065308	movie	1		245	32.0	2.5	/experiments/AOT/AOT_stimuli/rescaled_final/0087_rv.mp4	0.0	203.04911494255066	2.508594036102295
34	184.55713510513306	pulse	1	t		32.0	2.5	/experiments/AOT/AOT_stimuli/rescaled_final/0087_rv.mp4	0.0	204.64055609703064	
34	185.47428798675537	fix_post	2		12	32.0	2.5	/experiments/AOT/AOT_stimuli/rescaled_final/0087_rv.mp4	0.0	205.55770897865295	0.09967207908630371
35	185.57396006584167	fix_pre	0		120	33.0	2.5	/experiments/AOT/AOT_stimuli/rescaled_final/0313_rv.mp4	0.0	205.65738105773926	1.0001208782196045
35	186.1575710773468	pulse	0	t		33.0	2.5	/experiments/AOT/AOT_stimuli/rescaled_final/0313_rv.mp4	0.0	206.24099206924438	
35	186.57408094406128	movie	1		246	33.0	2.5	/experiments/AOT/AOT_stimuli/rescaled_final/0313_rv.mp4	0.0	206.65750193595886	2.4998910427093506
35	187.757630109787	pulse	1	t		33.0	2.5	/experiments/AOT/AOT_stimuli/rescaled_final/0313_rv.mp4	0.0	207.84105110168457	
35	189.07397198677063	fix_post	2		12	33.0	2.5	/experiments/AOT/AOT_stimuli/rescaled_final/0313_rv.mp4	0.0	209.1573929786682	0.10001707077026367
36	189.1739890575409	fix_pre	0		120	34.0	2.5	blank	1.0	209.25741004943848	1.0000739097595215
36	189.35750603675842	pulse	0	t		34.0	2.5	blank	1.0	209.440927028656	
36	190.17406296730042	movie	1		300	34.0	2.5	blank	1.0	210.257483959198	2.4998700618743896
36	190.95743107795715	pulse	1	t		34.0	2.5	blank	1.0	211.04085206985474	
36	192.55745005607605	pulse	1	t		34.0	2.5	blank	1.0	212.64087104797363	
36	192.6739330291748	fix_post	2		12	34.0	2.5	blank	1.0	212.7573540210724	0.09994196891784668
37	192.77387499809265	fix_pre	0		120	35.0	2.5	/experiments/AOT/AOT_stimuli/rescaled_final/1181_rv.mp4	0.0	212.85729598999023	1.0002820491790771
37	193.77415704727173	movie	1		244	35.0	2.5	/experiments/AOT/AOT_stimuli/rescaled_final/1181_rv.mp4	0.0	213.8575780391693	2.4997479915618896
37	194.1567120552063	pulse	1	t		35.0	2.5	/experiments/AOT/AOT_stimuli/rescaled_final/1181_rv.mp4	0.0	214.24013304710388	
37	195.75737190246582	pulse	1	t		35.0	2.5	/experiments/AOT/AOT_stimuli/rescaled_final/1181_rv.mp4	0.0	215.8407928943634	
37	196.27390503883362	fix_post	2		12	35.0	2.5	/experiments/AOT/AOT_stimuli/rescaled_final/1181_rv.mp4	0.0	216.3573260307312	0.10002899169921875
38	196.37393403053284	fix_pre	0		119	36.0	2.5	/experiments/AOT/AOT_stimuli/rescaled_final/0807_rv.mp4	0.0	216.45735502243042	0.9915940761566162
38	197.35742902755737	pulse	0	t		36.0	2.5	/experiments/AOT/AOT_stimuli/rescaled_final/0807_rv.mp4	0.0	217.44085001945496	
38	197.36552810668945	movie	1		244	36.0	2.5	/experiments/AOT/AOT_stimuli/rescaled_final/0807_rv.mp4	0.0	217.44894909858704	2.5083999633789062
38	198.95702505111694	pulse	1	t		36.0	2.5	/experiments/AOT/AOT_stimuli/rescaled_final/0807_rv.mp4	0.0	219.04044604301453	
38	199.87392807006836	fix_post	2		12	36.0	2.5	/experiments/AOT/AOT_stimuli/rescaled_final/0807_rv.mp4	0.0	219.95734906196594	0.09999299049377441
39	199.97392106056213	fix_pre	0		120	37.0	2.5	/experiments/AOT/AOT_stimuli/rescaled_final/0962_fw.mp4	0.0	220.05734205245972	0.9999680519104004
39	200.55743193626404	pulse	0	t		37.0	2.5	/experiments/AOT/AOT_stimuli/rescaled_final/0962_fw.mp4	0.0	220.64085292816162	
39	200.97388911247253	movie	1		245	37.0	2.5	/experiments/AOT/AOT_stimuli/rescaled_final/0962_fw.mp4	0.0	221.05731010437012	2.4996249675750732
39	202.15743708610535	pulse	1	t		37.0	2.5	/experiments/AOT/AOT_stimuli/rescaled_final/0962_fw.mp4	0.0	222.24085807800293	
39	203.4735140800476	fix_post	2		12	37.0	2.5	/experiments/AOT/AOT_stimuli/rescaled_final/0962_fw.mp4	0.0	223.5569350719452	0.09996700286865234
40	203.57348108291626	fix_pre	0		120	38.0	2.5	/experiments/AOT/AOT_stimuli/rescaled_final/0491_rv.mp4	0.0	223.65690207481384	1.0004639625549316
40	203.75738406181335	pulse	0	t		38.0	2.5	/experiments/AOT/AOT_stimuli/rescaled_final/0491_rv.mp4	0.0	223.84080505371094	
40	204.5739450454712	movie	1		245	38.0	2.5	/experiments/AOT/AOT_stimuli/rescaled_final/0491_rv.mp4	0.0	224.65736603736877	2.4995570182800293
40	205.357342004776	pulse	1	t		38.0	2.5	/experiments/AOT/AOT_stimuli/rescaled_final/0491_rv.mp4	0.0	225.44076299667358	
40	206.9561369419098	pulse	1	t		38.0	2.5	/experiments/AOT/AOT_stimuli/rescaled_final/0491_rv.mp4	0.0	227.03955793380737	
40	207.07350206375122	fix_post	2		12	38.0	2.5	/experiments/AOT/AOT_stimuli/rescaled_final/0491_rv.mp4	0.0	227.1569230556488	0.10039305686950684
41	207.17389512062073	fix_pre	0		120	39.0	2.5	/experiments/AOT/AOT_stimuli/rescaled_final/0491_fw.mp4	0.0	227.2573161125183	0.9999778270721436
41	208.17387294769287	movie	1		246	39.0	2.5	/experiments/AOT/AOT_stimuli/rescaled_final/0491_fw.mp4	0.0	228.25729393959045	2.4999630451202393
41	208.556706905365	pulse	1	t		39.0	2.5	/experiments/AOT/AOT_stimuli/rescaled_final/0491_fw.mp4	0.0	228.64012789726257	
41	210.15733408927917	pulse	1	t		39.0	2.5	/experiments/AOT/AOT_stimuli/rescaled_final/0491_fw.mp4	0.0	230.24075508117676	
41	210.6738359928131	fix_post	2		12	39.0	2.5	/experiments/AOT/AOT_stimuli/rescaled_final/0491_fw.mp4	0.0	230.7572569847107	0.10006403923034668
42	210.77390003204346	fix_pre	0		119	40.0	2.5	/experiments/AOT/AOT_stimuli/rescaled_final/1506_fw.mp4	0.0	230.85732102394104	0.9916930198669434
42	211.75729703903198	pulse	0	t		40.0	2.5	/experiments/AOT/AOT_stimuli/rescaled_final/1506_fw.mp4	0.0	231.84071803092957	
42	211.7655930519104	movie	1		245	40.0	2.5	/experiments/AOT/AOT_stimuli/rescaled_final/1506_fw.mp4	0.0	231.84901404380798	2.508202075958252
42	213.3582420349121	pulse	1	t		40.0	2.5	/experiments/AOT/AOT_stimuli/rescaled_final/1506_fw.mp4	0.0	233.4416630268097	
42	214.27379512786865	fix_post	2		12	40.0	2.5	/experiments/AOT/AOT_stimuli/rescaled_final/1506_fw.mp4	0.0	234.35721611976624	0.0999758243560791
43	214.37377095222473	fix_pre	0		120	41.0	2.5	blank	1.0	234.45719194412231	1.0001320838928223
43	214.95738196372986	pulse	0	t		41.0	2.5	blank	1.0	235.04080295562744	
43	215.37390303611755	movie	1		300	41.0	2.5	blank	1.0	235.45732402801514	2.499969005584717
43	216.5573000907898	pulse	1	t		41.0	2.5	blank	1.0	236.64072108268738	
43	217.87387204170227	fix_post	2		12	41.0	2.5	blank	1.0	237.95729303359985	0.09993100166320801
44	217.97380304336548	fix_pre	0		120	42.0	2.5	/experiments/AOT/AOT_stimuli/rescaled_final/0650_fw.mp4	0.0	238.05722403526306	0.9996039867401123
44	218.15739512443542	pulse	0	t		42.0	2.5	/experiments/AOT/AOT_stimuli/rescaled_final/0650_fw.mp4	0.0	238.240816116333	
44	218.9734070301056	movie	1		242	42.0	2.5	/experiments/AOT/AOT_stimuli/rescaled_final/0650_fw.mp4	0.0	239.05682802200317	2.500446081161499
44	219.7573299407959	pulse	1	t		42.0	2.5	/experiments/AOT/AOT_stimuli/rescaled_final/0650_fw.mp4	0.0	239.84075093269348	
44	221.35575604438782	pulse	1	t		42.0	2.5	/experiments/AOT/AOT_stimuli/rescaled_final/0650_fw.mp4	0.0	241.4391770362854	
44	221.4738531112671	fix_post	2		12	42.0	2.5	/experiments/AOT/AOT_stimuli/rescaled_final/0650_fw.mp4	0.0	241.55727410316467	0.10001897811889648
45	221.573872089386	fix_pre	0		120	43.0	2.5	/experiments/AOT/AOT_stimuli/rescaled_final/0487_rv.mp4	0.0	241.65729308128357	0.9999499320983887
45	222.57382202148438	movie	1		245	43.0	2.5	/experiments/AOT/AOT_stimuli/rescaled_final/0487_rv.mp4	0.0	242.65724301338196	2.4995310306549072
45	222.95699095726013	pulse	1	t		43.0	2.5	/experiments/AOT/AOT_stimuli/rescaled_final/0487_rv.mp4	0.0	243.04041194915771	
45	224.5573329925537	pulse	1	t		43.0	2.5	/experiments/AOT/AOT_stimuli/rescaled_final/0487_rv.mp4	0.0	244.6407539844513	
45	225.07335305213928	fix_post	2		12	43.0	2.5	/experiments/AOT/AOT_stimuli/rescaled_final/0487_rv.mp4	0.0	245.15677404403687	0.10037398338317871
46	225.17372703552246	fix_pre	0		119	44.0	2.5	/experiments/AOT/AOT_stimuli/rescaled_final/0327_rv.mp4	0.0	245.25714802742004	0.9917340278625488
46	226.1573281288147	pulse	0	t		44.0	2.5	/experiments/AOT/AOT_stimuli/rescaled_final/0327_rv.mp4	0.0	246.24074912071228	
46	226.165461063385	movie	1		245	44.0	2.5	/experiments/AOT/AOT_stimuli/rescaled_final/0327_rv.mp4	0.0	246.2488820552826	2.5083000659942627
46	227.75687098503113	pulse	1	t		44.0	2.5	/experiments/AOT/AOT_stimuli/rescaled_final/0327_rv.mp4	0.0	247.8402919769287	
46	228.67376112937927	fix_post	2		12	44.0	2.5	/experiments/AOT/AOT_stimuli/rescaled_final/0327_rv.mp4	0.0	248.75718212127686	0.0999758243560791
47	228.77373695373535	fix_pre	0		120	45.0	2.5	/experiments/AOT/AOT_stimuli/rescaled_final/0487_rv.mp4	0.0	248.85715794563293	1.0000040531158447
47	229.35728406906128	pulse	0	t		45.0	2.5	/experiments/AOT/AOT_stimuli/rescaled_final/0487_rv.mp4	0.0	249.44070506095886	
47	229.7737410068512	movie	1		245	45.0	2.5	/experiments/AOT/AOT_stimuli/rescaled_final/0487_rv.mp4	0.0	249.85716199874878	2.5000109672546387
47	230.95733499526978	pulse	1	t		45.0	2.5	/experiments/AOT/AOT_stimuli/rescaled_final/0487_rv.mp4	0.0	251.04075598716736	
47	232.27375197410583	fix_post	2		12	45.0	2.5	/experiments/AOT/AOT_stimuli/rescaled_final/0487_rv.mp4	0.0	252.35717296600342	0.0996100902557373
48	232.37336206436157	fix_pre	0		120	46.0	2.5	/experiments/AOT/AOT_stimuli/rescaled_final/0940_fw.mp4	0.0	252.45678305625916	1.000472068786621
48	232.55730891227722	pulse	0	t		46.0	2.5	/experiments/AOT/AOT_stimuli/rescaled_final/0940_fw.mp4	0.0	252.6407299041748	
48	233.3738341331482	movie	1		243	46.0	2.5	/experiments/AOT/AOT_stimuli/rescaled_final/0940_fw.mp4	0.0	253.45725512504578	2.4998669624328613
48	234.1572620868683	pulse	1	t		46.0	2.5	/experiments/AOT/AOT_stimuli/rescaled_final/0940_fw.mp4	0.0	254.24068307876587	
48	235.75565791130066	pulse	1	t		46.0	2.5	/experiments/AOT/AOT_stimuli/rescaled_final/0940_fw.mp4	0.0	255.83907890319824	
48	235.87370109558105	fix_post	2		12	46.0	2.5	/experiments/AOT/AOT_stimuli/rescaled_final/0940_fw.mp4	0.0	255.95712208747864	0.11675095558166504
49	235.99045205116272	fix_pre	0		118	47.0	2.5	blank	1.0	256.0738730430603	0.9832890033721924
49	236.9737410545349	movie	1		300	47.0	2.5	blank	1.0	257.0571620464325	2.4996418952941895
49	237.35738492012024	pulse	1	t		47.0	2.5	blank	1.0	257.4408059120178	
49	238.95683002471924	pulse	1	t		47.0	2.5	blank	1.0	259.0402510166168	
49	239.4733829498291	fix_post	2		12	47.0	2.5	blank	1.0	259.5568039417267	0.10004806518554688
50	239.57343101501465	fix_pre	0		119	48.0	2.5	/experiments/AOT/AOT_stimuli/rescaled_final/1968_rv.mp4	0.0	259.65685200691223	0.992224931716919
50	240.55706310272217	pulse	0	t		48.0	2.5	/experiments/AOT/AOT_stimuli/rescaled_final/1968_rv.mp4	0.0	260.64048409461975	
50	240.56565594673157	movie	1		245	48.0	2.5	/experiments/AOT/AOT_stimuli/rescaled_final/1968_rv.mp4	0.0	260.64907693862915	2.507676124572754
50	242.15687608718872	pulse	1	t		48.0	2.5	/experiments/AOT/AOT_stimuli/rescaled_final/1968_rv.mp4	0.0	262.2402970790863	
50	243.07333207130432	fix_post	2		12	48.0	2.5	/experiments/AOT/AOT_stimuli/rescaled_final/1968_rv.mp4	0.0	263.1567530632019	0.10038185119628906
51	243.1737139225006	fix_pre	0		120	49.0	2.5	/experiments/AOT/AOT_stimuli/rescaled_final/0476_rv.mp4	0.0	263.2571349143982	1.000025987625122
51	243.75715804100037	pulse	0	t		49.0	2.5	/experiments/AOT/AOT_stimuli/rescaled_final/0476_rv.mp4	0.0	263.84057903289795	
51	244.17373991012573	movie	1		246	49.0	2.5	/experiments/AOT/AOT_stimuli/rescaled_final/0476_rv.mp4	0.0	264.2571609020233	2.4998950958251953
51	245.35719203948975	pulse	1	t		49.0	2.5	/experiments/AOT/AOT_stimuli/rescaled_final/0476_rv.mp4	0.0	265.44061303138733	
51	246.67363500595093	fix_post	2		12	49.0	2.5	/experiments/AOT/AOT_stimuli/rescaled_final/0476_rv.mp4	0.0	266.7570559978485	0.10010194778442383
52	246.77373695373535	fix_pre	0		120	50.0	2.5	/experiments/AOT/AOT_stimuli/rescaled_final/0279_fw.mp4	0.0	266.85715794563293	0.9995601177215576
52	246.95716190338135	pulse	0	t		50.0	2.5	/experiments/AOT/AOT_stimuli/rescaled_final/0279_fw.mp4	0.0	267.04058289527893	
52	247.7732970714569	movie	1		246	50.0	2.5	/experiments/AOT/AOT_stimuli/rescaled_final/0279_fw.mp4	0.0	267.8567180633545	2.5003249645233154
52	248.55712604522705	pulse	1	t		50.0	2.5	/experiments/AOT/AOT_stimuli/rescaled_final/0279_fw.mp4	0.0	268.64054703712463	
52	250.1558129787445	pulse	1	t		50.0	2.5	/experiments/AOT/AOT_stimuli/rescaled_final/0279_fw.mp4	0.0	270.2392339706421	
52	250.27362203598022	fix_post	2		12	50.0	2.5	/experiments/AOT/AOT_stimuli/rescaled_final/0279_fw.mp4	0.0	270.3570430278778	0.0996389389038086
53	250.37326097488403	fix_pre	0		120	51.0	2.5	/experiments/AOT/AOT_stimuli/rescaled_final/2114_fw.mp4	0.0	270.4566819667816	1.000330924987793
53	251.37359189987183	movie	1		247	51.0	2.5	/experiments/AOT/AOT_stimuli/rescaled_final/2114_fw.mp4	0.0	271.4570128917694	2.5000100135803223
53	251.75824308395386	pulse	1	t		51.0	2.5	/experiments/AOT/AOT_stimuli/rescaled_final/2114_fw.mp4	0.0	271.84166407585144	
53	253.35711097717285	pulse	1	t		51.0	2.5	/experiments/AOT/AOT_stimuli/rescaled_final/2114_fw.mp4	0.0	273.44053196907043	
53	253.87360191345215	fix_post	2		12	51.0	2.5	/experiments/AOT/AOT_stimuli/rescaled_final/2114_fw.mp4	0.0	273.95702290534973	0.09999918937683105
54	253.97360110282898	fix_pre	0		119	52.0	2.5	/experiments/AOT/AOT_stimuli/rescaled_final/0913_rv.mp4	0.0	274.05702209472656	0.9916658401489258
54	254.9571659564972	pulse	0	t		52.0	2.5	/experiments/AOT/AOT_stimuli/rescaled_final/0913_rv.mp4	0.0	275.0405869483948	
54	254.9652669429779	movie	1		246	52.0	2.5	/experiments/AOT/AOT_stimuli/rescaled_final/0913_rv.mp4	0.0	275.0486879348755	2.5083889961242676
54	256.55818796157837	pulse	1	t		52.0	2.5	/experiments/AOT/AOT_stimuli/rescaled_final/0913_rv.mp4	0.0	276.64160895347595	
54	257.4736559391022	fix_post	2		12	52.0	2.5	/experiments/AOT/AOT_stimuli/rescaled_final/0913_rv.mp4	0.0	277.55707693099976	0.10002899169921875
55	257.5736849308014	fix_pre	0		120	53.0	2.5	/experiments/AOT/AOT_stimuli/rescaled_final/1503_rv.mp4	0.0	277.657105922699	1.0000231266021729
55	258.1571979522705	pulse	0	t		53.0	2.5	/experiments/AOT/AOT_stimuli/rescaled_final/1503_rv.mp4	0.0	278.2406189441681	
55	258.57370805740356	movie	1		247	53.0	2.5	/experiments/AOT/AOT_stimuli/rescaled_final/1503_rv.mp4	0.0	278.65712904930115	2.4999399185180664
55	259.75722002983093	pulse	1	t		53.0	2.5	/experiments/AOT/AOT_stimuli/rescaled_final/1503_rv.mp4	0.0	279.8406410217285	
55	261.07364797592163	fix_post	2		12	53.0	2.5	/experiments/AOT/AOT_stimuli/rescaled_final/1503_rv.mp4	0.0	281.1570689678192	0.09993815422058105
56	261.1735861301422	fix_pre	0		120	54.0	2.5	/experiments/AOT/AOT_stimuli/rescaled_final/0057_fw.mp4	0.0	281.2570071220398	1.0001327991485596
56	261.35711097717285	pulse	0	t		54.0	2.5	/experiments/AOT/AOT_stimuli/rescaled_final/0057_fw.mp4	0.0	281.44053196907043	
56	262.17371892929077	movie	1		246	54.0	2.5	/experiments/AOT/AOT_stimuli/rescaled_final/0057_fw.mp4	0.0	282.25713992118835	2.499886989593506
56	262.95727491378784	pulse	1	t		54.0	2.5	/experiments/AOT/AOT_stimuli/rescaled_final/0057_fw.mp4	0.0	283.0406959056854	
56	264.5532250404358	pulse	1	t		54.0	2.5	/experiments/AOT/AOT_stimuli/rescaled_final/0057_fw.mp4	0.0	284.6366460323334	
56	264.6736059188843	fix_post	2		12	54.0	2.5	/experiments/AOT/AOT_stimuli/rescaled_final/0057_fw.mp4	0.0	284.75702691078186	0.09995007514953613
57	264.7735559940338	fix_pre	0		120	55.0	2.5	blank	1.0	284.8569769859314	1.0001709461212158
57	265.77372694015503	movie	1		300	55.0	2.5	blank	1.0	285.8571479320526	2.499835968017578
57	266.15704798698425	pulse	1	t		55.0	2.5	blank	1.0	286.24046897888184	
57	267.7570469379425	pulse	1	t		55.0	2.5	blank	1.0	287.8404679298401	
57	268.2735629081726	fix_post	2		12	55.0	2.5	blank	1.0	288.3569839000702	0.0999751091003418
58	268.37353801727295	fix_pre	0		119	56.0	2.5	/experiments/AOT/AOT_stimuli/rescaled_final/0130_fw.mp4	0.0	288.45695900917053	0.9917171001434326
58	269.3570809364319	pulse	0	t		56.0	2.5	/experiments/AOT/AOT_stimuli/rescaled_final/0130_fw.mp4	0.0	289.44050192832947	
58	269.3652551174164	movie	1		246	56.0	2.5	/experiments/AOT/AOT_stimuli/rescaled_final/0130_fw.mp4	0.0	289.44867610931396	2.5082359313964844
58	270.9568700790405	pulse	1	t		56.0	2.5	/experiments/AOT/AOT_stimuli/rescaled_final/0130_fw.mp4	0.0	291.0402910709381	
58	271.87349104881287	fix_post	2		12	56.0	2.5	/experiments/AOT/AOT_stimuli/rescaled_final/0130_fw.mp4	0.0	291.95691204071045	0.10004901885986328
59	271.97354006767273	fix_pre	0		120	57.0	2.5	/experiments/AOT/AOT_stimuli/rescaled_final/0602_rv.mp4	0.0	292.0569610595703	1.0000019073486328
59	272.55709409713745	pulse	0	t		57.0	2.5	/experiments/AOT/AOT_stimuli/rescaled_final/0602_rv.mp4	0.0	292.64051508903503	
59	272.97354197502136	movie	1		245	57.0	2.5	/experiments/AOT/AOT_stimuli/rescaled_final/0602_rv.mp4	0.0	293.05696296691895	2.4995720386505127
59	274.1571249961853	pulse	1	t		57.0	2.5	/experiments/AOT/AOT_stimuli/rescaled_final/0602_rv.mp4	0.0	294.2405459880829	
59	275.4731140136719	fix_post	2		12	57.0	2.5	/experiments/AOT/AOT_stimuli/rescaled_final/0602_rv.mp4	0.0	295.55653500556946	0.10050606727600098
60	275.5736200809479	fix_pre	0		120	58.0	2.5	/experiments/AOT/AOT_stimuli/rescaled_final/0233_rv.mp4	0.0	295.65704107284546	0.9994978904724121
60	275.75709199905396	pulse	0	t		58.0	2.5	/experiments/AOT/AOT_stimuli/rescaled_final/0233_rv.mp4	0.0	295.84051299095154	
60	276.5731179714203	movie	1		243	58.0	2.5	/experiments/AOT/AOT_stimuli/rescaled_final/0233_rv.mp4	0.0	296.65653896331787	2.5003910064697266
60	277.3570580482483	pulse	1	t		58.0	2.5	/experiments/AOT/AOT_stimuli/rescaled_final/0233_rv.mp4	0.0	297.4404790401459	
60	278.9555480480194	pulse	1	t		58.0	2.5	/experiments/AOT/AOT_stimuli/rescaled_final/0233_rv.mp4	0.0	299.038969039917	
60	279.07350897789	fix_post	2		12	58.0	2.5	/experiments/AOT/AOT_stimuli/rescaled_final/0233_rv.mp4	0.0	299.1569299697876	0.10003399848937988
61	279.1735429763794	fix_pre	0		120	59.0	2.5	/experiments/AOT/AOT_stimuli/rescaled_final/1668_fw.mp4	0.0	299.256963968277	0.9996380805969238
61	280.1731810569763	movie	1		244	59.0	2.5	/experiments/AOT/AOT_stimuli/rescaled_final/1668_fw.mp4	0.0	300.2566020488739	2.499858856201172
61	280.5564670562744	pulse	1	t		59.0	2.5	/experiments/AOT/AOT_stimuli/rescaled_final/1668_fw.mp4	0.0	300.639888048172	
61	282.1570460796356	pulse	1	t		59.0	2.5	/experiments/AOT/AOT_stimuli/rescaled_final/1668_fw.mp4	0.0	302.2404670715332	
61	282.6730399131775	fix_post	2		12	59.0	2.5	/experiments/AOT/AOT_stimuli/rescaled_final/1668_fw.mp4	0.0	302.7564609050751	0.10042214393615723
62	282.77346205711365	fix_pre	0		119	60.0	2.5	/experiments/AOT/AOT_stimuli/rescaled_final/0739_fw.mp4	0.0	302.85688304901123	0.9919538497924805
62	283.75705790519714	pulse	0	t		60.0	2.5	/experiments/AOT/AOT_stimuli/rescaled_final/0739_fw.mp4	0.0	303.8404788970947	
62	283.7654159069061	movie	1		245	60.0	2.5	/experiments/AOT/AOT_stimuli/rescaled_final/0739_fw.mp4	0.0	303.8488368988037	2.5081260204315186
62	285.3565571308136	pulse	1	t		60.0	2.5	/experiments/AOT/AOT_stimuli/rescaled_final/0739_fw.mp4	0.0	305.4399781227112	
62	286.27354192733765	fix_post	2		12	60.0	2.5	/experiments/AOT/AOT_stimuli/rescaled_final/0739_fw.mp4	0.0	306.35696291923523	0.09992599487304688
63	286.3734679222107	fix_pre	0		120	61.0	2.5	/experiments/AOT/AOT_stimuli/rescaled_final/1802_fw.mp4	0.0	306.4568889141083	1.0000569820404053
63	286.957053899765	pulse	0	t		61.0	2.5	/experiments/AOT/AOT_stimuli/rescaled_final/1802_fw.mp4	0.0	307.0404748916626	
63	287.3735249042511	movie	1		243	61.0	2.5	/experiments/AOT/AOT_stimuli/rescaled_final/1802_fw.mp4	0.0	307.4569458961487	2.5000240802764893
63	288.5570590496063	pulse	1	t		61.0	2.5	/experiments/AOT/AOT_stimuli/rescaled_final/1802_fw.mp4	0.0	308.6404800415039	
63	289.8735489845276	fix_post	2		12	61.0	2.5	/experiments/AOT/AOT_stimuli/rescaled_final/1802_fw.mp4	0.0	309.95696997642517	0.09999299049377441
64	289.97354197502136	fix_pre	0		120	62.0	2.5	blank	1.0	310.05696296691895	0.9999821186065674
64	290.15700006484985	pulse	0	t		62.0	2.5	blank	1.0	310.24042105674744	
64	290.97352409362793	movie	1		300	62.0	2.5	blank	1.0	311.0569450855255	2.499959945678711
64	291.7570719718933	pulse	1	t		62.0	2.5	blank	1.0	311.8404929637909	
64	293.35694193840027	pulse	1	t		62.0	2.5	blank	1.0	313.44036293029785	
64	293.47348403930664	fix_post	2		12	62.0	2.5	blank	1.0	313.5569050312042	0.09999895095825195
65	293.5734829902649	fix_pre	0		120	63.0	2.5	/experiments/AOT/AOT_stimuli/rescaled_final/0872_fw.mp4	0.0	313.6569039821625	1.0000450611114502
65	294.57352805137634	movie	1		245	63.0	2.5	/experiments/AOT/AOT_stimuli/rescaled_final/0872_fw.mp4	0.0	314.6569490432739	2.500235080718994
65	294.95579504966736	pulse	1	t		63.0	2.5	/experiments/AOT/AOT_stimuli/rescaled_final/0872_fw.mp4	0.0	315.03921604156494	
65	296.556734085083	pulse	1	t		63.0	2.5	/experiments/AOT/AOT_stimuli/rescaled_final/0872_fw.mp4	0.0	316.6401550769806	
65	297.07376313209534	fix_post	2		12	63.0	2.5	/experiments/AOT/AOT_stimuli/rescaled_final/0872_fw.mp4	0.0	317.1571841239929	0.09968090057373047
66	297.17344403266907	fix_pre	0		119	64.0	2.5	/experiments/AOT/AOT_stimuli/rescaled_final/0266_rv.mp4	0.0	317.25686502456665	0.9917809963226318
66	298.1570589542389	pulse	0	t		64.0	2.5	/experiments/AOT/AOT_stimuli/rescaled_final/0266_rv.mp4	0.0	318.2404799461365	
66	298.1652250289917	movie	1		247	64.0	2.5	/experiments/AOT/AOT_stimuli/rescaled_final/0266_rv.mp4	0.0	318.2486460208893	2.50775408744812
66	299.7564980983734	pulse	1	t		64.0	2.5	/experiments/AOT/AOT_stimuli/rescaled_final/0266_rv.mp4	0.0	319.839919090271	
66	300.6729791164398	fix_post	2		12	64.0	2.5	/experiments/AOT/AOT_stimuli/rescaled_final/0266_rv.mp4	0.0	320.7564001083374	0.10051488876342773
67	300.77349400520325	fix_pre	0		120	65.0	2.5	/experiments/AOT/AOT_stimuli/rescaled_final/1547_fw.mp4	0.0	320.85691499710083	0.9995229244232178
67	301.3582489490509	pulse	0	t		65.0	2.5	/experiments/AOT/AOT_stimuli/rescaled_final/1547_fw.mp4	0.0	321.4416699409485	
67	301.77301692962646	movie	1		245	65.0	2.5	/experiments/AOT/AOT_stimuli/rescaled_final/1547_fw.mp4	0.0	321.85643792152405	2.5000030994415283
67	302.9569730758667	pulse	1	t		65.0	2.5	/experiments/AOT/AOT_stimuli/rescaled_final/1547_fw.mp4	0.0	323.0403940677643	
67	304.273020029068	fix_post	2		12	65.0	2.5	/experiments/AOT/AOT_stimuli/rescaled_final/1547_fw.mp4	0.0	324.3564410209656	0.1003730297088623
68	304.37339305877686	fix_pre	0		120	66.0	2.5	/experiments/AOT/AOT_stimuli/rescaled_final/0692_rv.mp4	0.0	324.45681405067444	1.0000159740447998
68	304.5568721294403	pulse	0	t		66.0	2.5	/experiments/AOT/AOT_stimuli/rescaled_final/0692_rv.mp4	0.0	324.6402931213379	
68	305.37340903282166	movie	1		243	66.0	2.5	/experiments/AOT/AOT_stimuli/rescaled_final/0692_rv.mp4	0.0	325.45683002471924	2.4999680519104004
68	306.15684390068054	pulse	1	t		66.0	2.5	/experiments/AOT/AOT_stimuli/rescaled_final/0692_rv.mp4	0.0	326.2402648925781	
68	307.7553679943085	pulse	1	t		66.0	2.5	/experiments/AOT/AOT_stimuli/rescaled_final/0692_rv.mp4	0.0	327.83878898620605	
68	307.87337708473206	fix_post	2		12	66.0	2.5	/experiments/AOT/AOT_stimuli/rescaled_final/0692_rv.mp4	0.0	327.95679807662964	0.09956598281860352
69	307.97294306755066	fix_pre	0		120	67.0	2.5	/experiments/AOT/AOT_stimuli/rescaled_final/1147_rv.mp4	0.0	328.05636405944824	1.0004868507385254
69	308.9734299182892	movie	1		244	67.0	2.5	/experiments/AOT/AOT_stimuli/rescaled_final/1147_rv.mp4	0.0	329.05685091018677	2.499955177307129
69	309.3564019203186	pulse	1	t		67.0	2.5	/experiments/AOT/AOT_stimuli/rescaled_final/1147_rv.mp4	0.0	329.4398229122162	
69	310.95678997039795	pulse	1	t		67.0	2.5	/experiments/AOT/AOT_stimuli/rescaled_final/1147_rv.mp4	0.0	331.04021096229553	
69	311.4733850955963	fix_post	2		12	67.0	2.5	/experiments/AOT/AOT_stimuli/rescaled_final/1147_rv.mp4	0.0	331.5568060874939	0.09998297691345215
70	311.57336807250977	fix_pre	0		119	68.0	2.5	blank	1.0	331.65678906440735	0.9916229248046875
70	312.55683302879333	pulse	0	t		68.0	2.5	blank	1.0	332.6402540206909	
70	312.56499099731445	movie	1		301	68.0	2.5	blank	1.0	332.64841198921204	2.508465051651001
70	314.1568341255188	pulse	1	t		68.0	2.5	blank	1.0	334.2402551174164	
70	315.07345604896545	fix_post	2		12	68.0	2.5	blank	1.0	335.15687704086304	0.09993195533752441
71	315.173388004303	fix_pre	0		120	69.0	2.5	/experiments/AOT/AOT_stimuli/rescaled_final/0494_rv.mp4	0.0	335.25680899620056	0.9999361038208008
71	315.7568130493164	pulse	0	t		69.0	2.5	/experiments/AOT/AOT_stimuli/rescaled_final/0494_rv.mp4	0.0	335.840234041214	
71	316.1733241081238	movie	1		245	69.0	2.5	/experiments/AOT/AOT_stimuli/rescaled_final/0494_rv.mp4	0.0	336.25674510002136	2.5000178813934326
71	317.35691595077515	pulse	1	t		69.0	2.5	/experiments/AOT/AOT_stimuli/rescaled_final/0494_rv.mp4	0.0	337.44033694267273	
71	318.6733419895172	fix_post	2		12	69.0	2.5	/experiments/AOT/AOT_stimuli/rescaled_final/0494_rv.mp4	0.0	338.7567629814148	0.10006403923034668
72	318.77340602874756	fix_pre	0		120	70.0	2.5	/experiments/AOT/AOT_stimuli/rescaled_final/1364_fw.mp4	0.0	338.85682702064514	0.999924898147583
72	318.95684909820557	pulse	0	t		70.0	2.5	/experiments/AOT/AOT_stimuli/rescaled_final/1364_fw.mp4	0.0	339.04027009010315	
72	319.77333092689514	movie	1		246	70.0	2.5	/experiments/AOT/AOT_stimuli/rescaled_final/1364_fw.mp4	0.0	339.8567519187927	2.50004506111145
72	320.55687499046326	pulse	1	t		70.0	2.5	/experiments/AOT/AOT_stimuli/rescaled_final/1364_fw.mp4	0.0	340.64029598236084	
72	322.1530270576477	pulse	1	t		70.0	2.5	/experiments/AOT/AOT_stimuli/rescaled_final/1364_fw.mp4	0.0	342.2364480495453	
72	322.2733759880066	fix_post	2		12	70.0	2.5	/experiments/AOT/AOT_stimuli/rescaled_final/1364_fw.mp4	0.0	342.3567969799042	0.09990191459655762
73	322.37327790260315	fix_pre	0		120	71.0	2.5	/experiments/AOT/AOT_stimuli/rescaled_final/0470_fw.mp4	0.0	342.45669889450073	1.0000510215759277
73	323.3733289241791	movie	1		244	71.0	2.5	/experiments/AOT/AOT_stimuli/rescaled_final/0470_fw.mp4	0.0	343.45674991607666	2.499962091445923
73	323.75646710395813	pulse	1	t		71.0	2.5	/experiments/AOT/AOT_stimuli/rescaled_final/0470_fw.mp4	0.0	343.8398880958557	
73	325.3568549156189	pulse	1	t		71.0	2.5	/experiments/AOT/AOT_stimuli/rescaled_final/0470_fw.mp4	0.0	345.4402759075165	
73	325.873291015625	fix_post	2		12	71.0	2.5	/experiments/AOT/AOT_stimuli/rescaled_final/0470_fw.mp4	0.0	345.9567120075226	0.09995293617248535
74	325.9732439517975	fix_pre	0		119	72.0	2.5	/experiments/AOT/AOT_stimuli/rescaled_final/2146_rv.mp4	0.0	346.05666494369507	0.9917600154876709
74	326.9567930698395	pulse	0	t		72.0	2.5	/experiments/AOT/AOT_stimuli/rescaled_final/2146_rv.mp4	0.0	347.04021406173706	
74	326.96500396728516	movie	1		246	72.0	2.5	/experiments/AOT/AOT_stimuli/rescaled_final/2146_rv.mp4	0.0	347.04842495918274	2.5083680152893066
74	328.55627703666687	pulse	1	t		72.0	2.5	/experiments/AOT/AOT_stimuli/rescaled_final/2146_rv.mp4	0.0	348.63969802856445	
74	329.47337198257446	fix_post	2		12	72.0	2.5	/experiments/AOT/AOT_stimuli/rescaled_final/2146_rv.mp4	0.0	349.55679297447205	0.0999300479888916
75	329.57330203056335	fix_pre	0		120	73.0	2.5	/experiments/AOT/AOT_stimuli/rescaled_final/1644_fw.mp4	0.0	349.65672302246094	1.0000569820404053
75	330.15683007240295	pulse	0	t		73.0	2.5	/experiments/AOT/AOT_stimuli/rescaled_final/1644_fw.mp4	0.0	350.24025106430054	
75	330.57335901260376	movie	1		245	73.0	2.5	/experiments/AOT/AOT_stimuli/rescaled_final/1644_fw.mp4	0.0	350.65678000450134	2.4994640350341797
75	331.75693106651306	pulse	1	t		73.0	2.5	/experiments/AOT/AOT_stimuli/rescaled_final/1644_fw.mp4	0.0	351.84035205841064	
75	333.07282304763794	fix_post	2		12	73.0	2.5	/experiments/AOT/AOT_stimuli/rescaled_final/1644_fw.mp4	0.0	353.1562440395355	0.10040807723999023
76	333.17323112487793	fix_pre	0		120	74.0	2.5	/experiments/AOT/AOT_stimuli/rescaled_final/1697_rv.mp4	0.0	353.2566521167755	1.0000410079956055
76	333.35678791999817	pulse	0	t		74.0	2.5	/experiments/AOT/AOT_stimuli/rescaled_final/1697_rv.mp4	0.0	353.44020891189575	
76	334.17327213287354	movie	1		243	74.0	2.5	/experiments/AOT/AOT_stimuli/rescaled_final/1697_rv.mp4	0.0	354.2566931247711	2.4998857975006104
76	334.9567120075226	pulse	1	t		74.0	2.5	/experiments/AOT/AOT_stimuli/rescaled_final/1697_rv.mp4	0.0	355.04013299942017	
76	336.55513191223145	pulse	1	t		74.0	2.5	/experiments/AOT/AOT_stimuli/rescaled_final/1697_rv.mp4	0.0	356.638552904129	
76	336.67315793037415	fix_post	2		12	74.0	2.5	/experiments/AOT/AOT_stimuli/rescaled_final/1697_rv.mp4	0.0	356.75657892227173	0.10005712509155273
77	336.7732150554657	fix_pre	0		120	75.0	2.5	blank	1.0	356.8566360473633	1.0000228881835938
77	337.7732379436493	movie	1		300	75.0	2.5	blank	1.0	357.8566589355469	2.500005006790161
77	338.1567440032959	pulse	1	t		75.0	2.5	blank	1.0	358.2401649951935	
77	339.7567870616913	pulse	1	t		75.0	2.5	blank	1.0	359.84020805358887	
77	340.27324295043945	fix_post	2		12	75.0	2.5	blank	1.0	360.35666394233704	0.09995198249816895
78	340.3731949329376	fix_pre	0		119	76.0	2.5	/experiments/AOT/AOT_stimuli/rescaled_final/0602_fw.mp4	0.0	360.4566159248352	0.9917399883270264
78	341.3567409515381	pulse	0	t		76.0	2.5	/experiments/AOT/AOT_stimuli/rescaled_final/0602_fw.mp4	0.0	361.44016194343567	
78	341.36493492126465	movie	1		246	76.0	2.5	/experiments/AOT/AOT_stimuli/rescaled_final/0602_fw.mp4	0.0	361.44835591316223	2.508002996444702
78	342.9566979408264	pulse	1	t		76.0	2.5	/experiments/AOT/AOT_stimuli/rescaled_final/0602_fw.mp4	0.0	363.040118932724	
78	343.87293791770935	fix_post	2		12	76.0	2.5	/experiments/AOT/AOT_stimuli/rescaled_final/0602_fw.mp4	0.0	363.95635890960693	0.09987401962280273
79	343.97281193733215	fix_pre	0		120	77.0	2.5	/experiments/AOT/AOT_stimuli/rescaled_final/1422_rv.mp4	0.0	364.05623292922974	1.0004491806030273
79	344.5567169189453	pulse	0	t		77.0	2.5	/experiments/AOT/AOT_stimuli/rescaled_final/1422_rv.mp4	0.0	364.6401379108429	
79	344.9732611179352	movie	1		246	77.0	2.5	/experiments/AOT/AOT_stimuli/rescaled_final/1422_rv.mp4	0.0	365.05668210983276	2.4999330043792725
79	346.1568191051483	pulse	1	t		77.0	2.5	/experiments/AOT/AOT_stimuli/rescaled_final/1422_rv.mp4	0.0	366.2402400970459	
79	347.47319412231445	fix_post	2		12	77.0	2.5	/experiments/AOT/AOT_stimuli/rescaled_final/1422_rv.mp4	0.0	367.55661511421204	0.09999489784240723
80	347.57318902015686	fix_pre	0		120	78.0	2.5	/experiments/AOT/AOT_stimuli/rescaled_final/0721_rv.mp4	0.0	367.65661001205444	1.0
80	347.7568550109863	pulse	0	t		78.0	2.5	/experiments/AOT/AOT_stimuli/rescaled_final/0721_rv.mp4	0.0	367.8402760028839	
80	348.57318902015686	movie	1		246	78.0	2.5	/experiments/AOT/AOT_stimuli/rescaled_final/0721_rv.mp4	0.0	368.65661001205444	2.499743938446045
80	349.35666608810425	pulse	1	t		78.0	2.5	/experiments/AOT/AOT_stimuli/rescaled_final/0721_rv.mp4	0.0	369.44008708000183	
80	350.9526400566101	pulse	1	t		78.0	2.5	/experiments/AOT/AOT_stimuli/rescaled_final/0721_rv.mp4	0.0	371.0360610485077	
80	351.0729329586029	fix_post	2		12	78.0	2.5	/experiments/AOT/AOT_stimuli/rescaled_final/0721_rv.mp4	0.0	371.1563539505005	0.10008907318115234
81	351.17302203178406	fix_pre	0		120	79.0	2.5	/experiments/AOT/AOT_stimuli/rescaled_final/1422_rv.mp4	0.0	371.25644302368164	0.9999549388885498
81	352.1729769706726	movie	1		247	79.0	2.5	/experiments/AOT/AOT_stimuli/rescaled_final/1422_rv.mp4	0.0	372.2563979625702	2.5001909732818604
81	352.5564649105072	pulse	1	t		79.0	2.5	/experiments/AOT/AOT_stimuli/rescaled_final/1422_rv.mp4	0.0	372.6398859024048	
81	354.1567180156708	pulse	1	t		79.0	2.5	/experiments/AOT/AOT_stimuli/rescaled_final/1422_rv.mp4	0.0	374.24013900756836	
81	354.67316794395447	fix_post	2		12	79.0	2.5	/experiments/AOT/AOT_stimuli/rescaled_final/1422_rv.mp4	0.0	374.75658893585205	0.10005998611450195
82	354.77322793006897	fix_pre	0		119	80.0	2.5	/experiments/AOT/AOT_stimuli/rescaled_final/1547_fw.mp4	0.0	374.85664892196655	0.9916200637817383
82	355.7567160129547	pulse	0	t		80.0	2.5	/experiments/AOT/AOT_stimuli/rescaled_final/1547_fw.mp4	0.0	375.8401370048523	
82	355.7648479938507	movie	1		245	80.0	2.5	/experiments/AOT/AOT_stimuli/rescaled_final/1547_fw.mp4	0.0	375.8482689857483	2.508397102355957
82	357.3564169406891	pulse	1	t		80.0	2.5	/experiments/AOT/AOT_stimuli/rescaled_final/1547_fw.mp4	0.0	377.43983793258667	
82	358.27324509620667	fix_post	2		12	80.0	2.5	/experiments/AOT/AOT_stimuli/rescaled_final/1547_fw.mp4	0.0	378.35666608810425	0.09991788864135742
83	358.373162984848	fix_pre	0		120	81.0	2.5	/experiments/AOT/AOT_stimuli/rescaled_final/0222_fw.mp4	0.0	378.4565839767456	0.9999229907989502
83	358.95657896995544	pulse	0	t		81.0	2.5	/experiments/AOT/AOT_stimuli/rescaled_final/0222_fw.mp4	0.0	379.039999961853	
83	359.373085975647	movie	1		244	81.0	2.5	/experiments/AOT/AOT_stimuli/rescaled_final/0222_fw.mp4	0.0	379.45650696754456	2.5001180171966553
83	360.556587934494	pulse	1	t		81.0	2.5	/experiments/AOT/AOT_stimuli/rescaled_final/0222_fw.mp4	0.0	380.6400089263916	
83	361.8732039928436	fix_post	2		12	81.0	2.5	/experiments/AOT/AOT_stimuli/rescaled_final/0222_fw.mp4	0.0	381.9566249847412	0.0998690128326416
84	361.97307300567627	fix_pre	0		120	82.0	2.5	/experiments/AOT/AOT_stimuli/rescaled_final/0154_rv.mp4	0.0	382.05649399757385	1.0000500679016113
84	362.15655994415283	pulse	0	t		82.0	2.5	/experiments/AOT/AOT_stimuli/rescaled_final/0154_rv.mp4	0.0	382.2399809360504	
84	362.9731230735779	movie	1		245	82.0	2.5	/experiments/AOT/AOT_stimuli/rescaled_final/0154_rv.mp4	0.0	383.05654406547546	2.4995410442352295
84	363.7565050125122	pulse	1	t		82.0	2.5	/experiments/AOT/AOT_stimuli/rescaled_final/0154_rv.mp4	0.0	383.8399260044098	
84	365.3566200733185	pulse	1	t		82.0	2.5	/experiments/AOT/AOT_stimuli/rescaled_final/0154_rv.mp4	0.0	385.44004106521606	
84	365.4726641178131	fix_post	2		12	82.0	2.5	/experiments/AOT/AOT_stimuli/rescaled_final/0154_rv.mp4	0.0	385.5560851097107	0.10011982917785645
85	365.57278394699097	fix_pre	0		120	83.0	2.5	blank	1.0	385.65620493888855	0.9999251365661621
85	366.57270908355713	movie	1		300	83.0	2.5	blank	1.0	386.6561300754547	2.499990940093994
85	366.95657300949097	pulse	1	t		83.0	2.5	blank	1.0	387.03999400138855	
85	368.55658292770386	pulse	1	t		83.0	2.5	blank	1.0	388.64000391960144	
85	369.0727000236511	fix_post	2		12	83.0	2.5	blank	1.0	389.1561210155487	0.10037899017333984
87	369.17307901382446	stim	0		1716					389.25650000572205	14.299966096878052
87	370.1566119194031	pulse	0	t						390.24003291130066	
87	371.75656294822693	pulse	0	t						391.8399839401245	
87	373.35650300979614	pulse	0	t						393.4399240016937	
87	374.95664501190186	pulse	0	t						395.04006600379944	
87	376.556517124176	pulse	0	t						396.6399381160736	
87	378.15644001960754	pulse	0	t						398.2398610115051	
87	379.7565529346466	pulse	0	t						399.8399739265442	
87	381.35652112960815	pulse	0	t						401.43994212150574	
87	382.95648193359375	pulse	0	t						403.03990292549133	
