trial_nr	onset	event_type	phase	response	nr_frames	movie_index	movie_duration	movie_file	blank	onset_abs	duration
0	0.16651129722595215	stim	0		5					16.228626012802124	0.04158377647399902
0	0.19996333122253418	response	0	space						16.262078046798706	
1	0.20809507369995117	stim	0		3733					16.270209789276123	31.12379264831543
1	31.322367668151855	pulse	0	t						47.38448238372803	
1	31.33188772201538	stim	1		1716					47.39400243759155	14.308090925216675
1	32.913275480270386	pulse	1	t						48.97539019584656	
1	34.50535821914673	pulse	1	t						50.5674729347229	
1	36.10557746887207	pulse	1	t						52.16769218444824	
1	37.71402430534363	pulse	1	t						53.7761390209198	
1	39.305830001831055	pulse	1	t						55.36794471740723	
1	40.906211376190186	pulse	1	t						56.96832609176636	
1	42.50632643699646	pulse	1	t						58.56844115257263	
1	44.106584548950195	pulse	1	t						60.16869926452637	
2	45.639978647232056	fix_pre	0		9	0.0	2.5	/experiments/Knapen_AOT/AOT_stimuli/rescaled_final/0098_fw.mp4	0.0	61.70209336280823	0.09171700477600098
2	45.70683717727661	pulse	0	t		0.0	2.5	/experiments/Knapen_AOT/AOT_stimuli/rescaled_final/0098_fw.mp4	0.0	61.76895189285278	
2	45.73169565200806	movie	1		284	0.0	2.5	/experiments/Knapen_AOT/AOT_stimuli/rescaled_final/0098_fw.mp4	0.0	61.79381036758423	2.4919674396514893
2	47.305323123931885	pulse	1	t		0.0	2.5	/experiments/Knapen_AOT/AOT_stimuli/rescaled_final/0098_fw.mp4	0.0	63.36743783950806	
2	48.223663091659546	fix_post	2		12	0.0	2.5	/experiments/Knapen_AOT/AOT_stimuli/rescaled_final/0098_fw.mp4	0.0	64.28577780723572	0.10002660751342773
3	48.323689699172974	fix_pre	0		120	1.0	2.5	/experiments/Knapen_AOT/AOT_stimuli/rescaled_final/0995_rv.mp4	0.0	64.38580441474915	1.0085358619689941
3	48.90730690956116	pulse	0	t		1.0	2.5	/experiments/Knapen_AOT/AOT_stimuli/rescaled_final/0995_rv.mp4	0.0	64.96942162513733	
3	49.33222556114197	movie	1		279	1.0	2.5	/experiments/Knapen_AOT/AOT_stimuli/rescaled_final/0995_rv.mp4	0.0	65.39434027671814	2.4919965267181396
3	50.50572180747986	pulse	1	t		1.0	2.5	/experiments/Knapen_AOT/AOT_stimuli/rescaled_final/0995_rv.mp4	0.0	66.56783652305603	
3	51.82422208786011	fix_post	2		12	1.0	2.5	/experiments/Knapen_AOT/AOT_stimuli/rescaled_final/0995_rv.mp4	0.0	67.88633680343628	0.1000070571899414
4	51.92422914505005	fix_pre	0		120	2.0	2.5	/experiments/Knapen_AOT/AOT_stimuli/rescaled_final/1747_fw.mp4	0.0	67.98634386062622	1.0085630416870117
4	52.10781502723694	pulse	0	t		2.0	2.5	/experiments/Knapen_AOT/AOT_stimuli/rescaled_final/1747_fw.mp4	0.0	68.16992974281311	
4	52.93279218673706	movie	1		282	2.0	2.5	/experiments/Knapen_AOT/AOT_stimuli/rescaled_final/1747_fw.mp4	0.0	68.99490690231323	2.4919583797454834
4	53.705846071243286	pulse	1	t		2.0	2.5	/experiments/Knapen_AOT/AOT_stimuli/rescaled_final/1747_fw.mp4	0.0	69.76796078681946	
4	55.30680966377258	pulse	1	t		2.0	2.5	/experiments/Knapen_AOT/AOT_stimuli/rescaled_final/1747_fw.mp4	0.0	71.36892437934875	
4	55.424750566482544	fix_post	2		12	2.0	2.5	/experiments/Knapen_AOT/AOT_stimuli/rescaled_final/1747_fw.mp4	0.0	71.48686528205872	0.10002779960632324
5	55.52477836608887	fix_pre	0		120	3.0	2.5	/experiments/Knapen_AOT/AOT_stimuli/rescaled_final/0973_fw.mp4	0.0	71.58689308166504	1.0085835456848145
5	56.53336191177368	movie	1		286	3.0	2.5	/experiments/Knapen_AOT/AOT_stimuli/rescaled_final/0973_fw.mp4	0.0	72.59547662734985	2.4919686317443848
5	56.90671753883362	pulse	1	t		3.0	2.5	/experiments/Knapen_AOT/AOT_stimuli/rescaled_final/0973_fw.mp4	0.0	72.96883225440979	
5	58.5065815448761	pulse	1	t		3.0	2.5	/experiments/Knapen_AOT/AOT_stimuli/rescaled_final/0973_fw.mp4	0.0	74.56869626045227	
5	59.025330543518066	fix_post	2		12	3.0	2.5	/experiments/Knapen_AOT/AOT_stimuli/rescaled_final/0973_fw.mp4	0.0	75.08744525909424	0.09999465942382812
6	59.125325202941895	fix_pre	0		119	4.0	2.5	/experiments/Knapen_AOT/AOT_stimuli/rescaled_final/1353_rv.mp4	0.0	75.18743991851807	1.0001049041748047
6	60.10901618003845	pulse	0	t		4.0	2.5	/experiments/Knapen_AOT/AOT_stimuli/rescaled_final/1353_rv.mp4	0.0	76.17113089561462	
6	60.1254301071167	movie	1		290	4.0	2.5	/experiments/Knapen_AOT/AOT_stimuli/rescaled_final/1353_rv.mp4	0.0	76.18754482269287	2.5003912448883057
6	61.70758652687073	pulse	1	t		4.0	2.5	/experiments/Knapen_AOT/AOT_stimuli/rescaled_final/1353_rv.mp4	0.0	77.7697012424469	
6	62.625821352005005	fix_post	2		12	4.0	2.5	/experiments/Knapen_AOT/AOT_stimuli/rescaled_final/1353_rv.mp4	0.0	78.68793606758118	0.10002613067626953
7	62.725847482681274	fix_pre	0		120	5.0	2.5	/experiments/Knapen_AOT/AOT_stimuli/rescaled_final/0347_fw.mp4	0.0	78.78796219825745	1.0085334777832031
7	63.30951166152954	pulse	0	t		5.0	2.5	/experiments/Knapen_AOT/AOT_stimuli/rescaled_final/0347_fw.mp4	0.0	79.37162637710571	
7	63.73438096046448	movie	1		271	5.0	2.5	/experiments/Knapen_AOT/AOT_stimuli/rescaled_final/0347_fw.mp4	0.0	79.79649567604065	2.492065668106079
7	64.90797901153564	pulse	1	t		5.0	2.5	/experiments/Knapen_AOT/AOT_stimuli/rescaled_final/0347_fw.mp4	0.0	80.97009372711182	
7	66.22644662857056	fix_post	2		12	5.0	2.5	/experiments/Knapen_AOT/AOT_stimuli/rescaled_final/0347_fw.mp4	0.0	82.28856134414673	0.09998631477355957
8	66.32643294334412	fix_pre	0		120	6.0	2.5	/experiments/Knapen_AOT/AOT_stimuli/rescaled_final/2098_fw.mp4	0.0	82.38854765892029	1.0084576606750488
8	66.50997400283813	pulse	0	t		6.0	2.5	/experiments/Knapen_AOT/AOT_stimuli/rescaled_final/2098_fw.mp4	0.0	82.5720887184143	
8	67.33489060401917	movie	1		288	6.0	2.5	/experiments/Knapen_AOT/AOT_stimuli/rescaled_final/2098_fw.mp4	0.0	83.39700531959534	2.492039442062378
8	68.10796189308167	pulse	1	t		6.0	2.5	/experiments/Knapen_AOT/AOT_stimuli/rescaled_final/2098_fw.mp4	0.0	84.17007660865784	
8	69.70924592018127	pulse	1	t		6.0	2.5	/experiments/Knapen_AOT/AOT_stimuli/rescaled_final/2098_fw.mp4	0.0	85.77136063575745	
8	69.82693004608154	fix_post	2		12	6.0	2.5	/experiments/Knapen_AOT/AOT_stimuli/rescaled_final/2098_fw.mp4	0.0	85.88904476165771	0.09999895095825195
9	69.9269289970398	fix_pre	0		120	7.0	2.5	blank	1.0	85.98904371261597	1.0001451969146729
9	70.92707419395447	movie	1		300	7.0	2.5	blank	1.0	86.98918890953064	2.5004189014434814
9	71.31066560745239	pulse	1	t		7.0	2.5	blank	1.0	87.37278032302856	
9	72.91093802452087	pulse	1	t		7.0	2.5	blank	1.0	88.97305274009705	
9	73.42749309539795	fix_post	2		12	7.0	2.5	blank	1.0	89.48960781097412	0.10002565383911133
10	73.52751874923706	fix_pre	0		119	8.0	2.5	/experiments/Knapen_AOT/AOT_stimuli/rescaled_final/2011_fw.mp4	0.0	89.58963346481323	1.0084729194641113
10	74.51115894317627	pulse	0	t		8.0	2.5	/experiments/Knapen_AOT/AOT_stimuli/rescaled_final/2011_fw.mp4	0.0	90.57327365875244	
10	74.53599166870117	movie	1		287	8.0	2.5	/experiments/Knapen_AOT/AOT_stimuli/rescaled_final/2011_fw.mp4	0.0	90.59810638427734	2.4920053482055664
10	76.11028504371643	pulse	1	t		8.0	2.5	/experiments/Knapen_AOT/AOT_stimuli/rescaled_final/2011_fw.mp4	0.0	92.1723997592926	
10	77.02799701690674	fix_post	2		12	8.0	2.5	/experiments/Knapen_AOT/AOT_stimuli/rescaled_final/2011_fw.mp4	0.0	93.09011173248291	0.10001969337463379
11	77.12801671028137	fix_pre	0		120	9.0	2.5	/experiments/Knapen_AOT/AOT_stimuli/rescaled_final/0701_rv.mp4	0.0	93.19013142585754	1.0086078643798828
11	77.71164894104004	pulse	0	t		9.0	2.5	/experiments/Knapen_AOT/AOT_stimuli/rescaled_final/0701_rv.mp4	0.0	93.77376365661621	
11	78.13662457466125	movie	1		281	9.0	2.5	/experiments/Knapen_AOT/AOT_stimuli/rescaled_final/0701_rv.mp4	0.0	94.19873929023743	2.4919466972351074
11	79.3098030090332	pulse	1	t		9.0	2.5	/experiments/Knapen_AOT/AOT_stimuli/rescaled_final/0701_rv.mp4	0.0	95.37191772460938	
11	80.62857127189636	fix_post	2		12	9.0	2.5	/experiments/Knapen_AOT/AOT_stimuli/rescaled_final/0701_rv.mp4	0.0	96.69068598747253	0.09999704360961914
12	80.72856831550598	fix_pre	0		120	10.0	2.5	/experiments/Knapen_AOT/AOT_stimuli/rescaled_final/1885_rv.mp4	0.0	96.79068303108215	1.0085082054138184
12	80.91214919090271	pulse	0	t		10.0	2.5	/experiments/Knapen_AOT/AOT_stimuli/rescaled_final/1885_rv.mp4	0.0	96.97426390647888	
12	81.7370765209198	movie	1		288	10.0	2.5	/experiments/Knapen_AOT/AOT_stimuli/rescaled_final/1885_rv.mp4	0.0	97.79919123649597	2.4920177459716797
12	82.51039671897888	pulse	1	t		10.0	2.5	/experiments/Knapen_AOT/AOT_stimuli/rescaled_final/1885_rv.mp4	0.0	98.57251143455505	
12	84.11081147193909	pulse	1	t		10.0	2.5	/experiments/Knapen_AOT/AOT_stimuli/rescaled_final/1885_rv.mp4	0.0	100.17292618751526	
12	84.22909426689148	fix_post	2		12	10.0	2.5	/experiments/Knapen_AOT/AOT_stimuli/rescaled_final/1885_rv.mp4	0.0	100.29120898246765	0.1000673770904541
13	84.32916164398193	fix_pre	0		120	11.0	2.5	/experiments/Knapen_AOT/AOT_stimuli/rescaled_final/0990_rv.mp4	0.0	100.3912763595581	1.0084209442138672
13	85.3375825881958	movie	1		287	11.0	2.5	/experiments/Knapen_AOT/AOT_stimuli/rescaled_final/0990_rv.mp4	0.0	101.39969730377197	2.492095947265625
13	85.71125483512878	pulse	1	t		11.0	2.5	/experiments/Knapen_AOT/AOT_stimuli/rescaled_final/0990_rv.mp4	0.0	101.77336955070496	
13	87.31118988990784	pulse	1	t		11.0	2.5	/experiments/Knapen_AOT/AOT_stimuli/rescaled_final/0990_rv.mp4	0.0	103.37330460548401	
13	87.82967853546143	fix_post	2		12	11.0	2.5	/experiments/Knapen_AOT/AOT_stimuli/rescaled_final/0990_rv.mp4	0.0	103.8917932510376	0.09999847412109375
14	87.92967700958252	fix_pre	0		119	12.0	2.5	/experiments/Knapen_AOT/AOT_stimuli/rescaled_final/0880_fw.mp4	0.0	103.99179172515869	1.000166416168213
14	88.91337895393372	pulse	0	t		12.0	2.5	/experiments/Knapen_AOT/AOT_stimuli/rescaled_final/0880_fw.mp4	0.0	104.97549366950989	
14	88.92984342575073	movie	1		285	12.0	2.5	/experiments/Knapen_AOT/AOT_stimuli/rescaled_final/0880_fw.mp4	0.0	104.9919581413269	2.500347137451172
14	90.51186418533325	pulse	1	t		12.0	2.5	/experiments/Knapen_AOT/AOT_stimuli/rescaled_final/0880_fw.mp4	0.0	106.57397890090942	
14	91.4301905632019	fix_post	2		12	12.0	2.5	/experiments/Knapen_AOT/AOT_stimuli/rescaled_final/0880_fw.mp4	0.0	107.49230527877808	0.09998035430908203
15	91.53017091751099	fix_pre	0		120	13.0	2.5	blank	1.0	107.59228563308716	1.000169277191162
15	92.10581922531128	pulse	0	t		13.0	2.5	blank	1.0	108.16793394088745	
15	92.53034019470215	movie	1		300	13.0	2.5	blank	1.0	108.59245491027832	2.50040864944458
15	93.70606184005737	pulse	1	t		13.0	2.5	blank	1.0	109.76817655563354	
15	95.03074884414673	fix_post	2		12	13.0	2.5	blank	1.0	111.0928635597229	0.09999632835388184
16	95.13074517250061	fix_pre	0		120	14.0	2.5	/experiments/Knapen_AOT/AOT_stimuli/rescaled_final/1305_fw.mp4	0.0	111.19285988807678	1.0084784030914307
16	95.30602145195007	pulse	0	t		14.0	2.5	/experiments/Knapen_AOT/AOT_stimuli/rescaled_final/1305_fw.mp4	0.0	111.36813616752625	
16	96.13922357559204	movie	1		282	14.0	2.5	/experiments/Knapen_AOT/AOT_stimuli/rescaled_final/1305_fw.mp4	0.0	112.20133829116821	2.4920313358306885
16	96.90624022483826	pulse	1	t		14.0	2.5	/experiments/Knapen_AOT/AOT_stimuli/rescaled_final/1305_fw.mp4	0.0	112.96835494041443	
16	98.50656914710999	pulse	1	t		14.0	2.5	/experiments/Knapen_AOT/AOT_stimuli/rescaled_final/1305_fw.mp4	0.0	114.56868386268616	
16	98.63125491142273	fix_post	2		12	14.0	2.5	/experiments/Knapen_AOT/AOT_stimuli/rescaled_final/1305_fw.mp4	0.0	114.6933696269989	0.10000014305114746
17	98.73125505447388	fix_pre	0		120	15.0	2.5	/experiments/Knapen_AOT/AOT_stimuli/rescaled_final/1885_rv.mp4	0.0	114.79336977005005	1.0085172653198242
17	99.7397723197937	movie	1		273	15.0	2.5	/experiments/Knapen_AOT/AOT_stimuli/rescaled_final/1885_rv.mp4	0.0	115.80188703536987	2.492048740386963
17	100.10669302940369	pulse	1	t		15.0	2.5	/experiments/Knapen_AOT/AOT_stimuli/rescaled_final/1885_rv.mp4	0.0	116.16880774497986	
17	101.70693135261536	pulse	1	t		15.0	2.5	/experiments/Knapen_AOT/AOT_stimuli/rescaled_final/1885_rv.mp4	0.0	117.76904606819153	
17	102.23182106018066	fix_post	2		12	15.0	2.5	/experiments/Knapen_AOT/AOT_stimuli/rescaled_final/1885_rv.mp4	0.0	118.29393577575684	0.1000514030456543
18	102.33187246322632	fix_pre	0		118	16.0	2.5	/experiments/Knapen_AOT/AOT_stimuli/rescaled_final/0565_rv.mp4	0.0	118.39398717880249	0.9917521476745605
18	103.3071870803833	pulse	0	t		16.0	2.5	/experiments/Knapen_AOT/AOT_stimuli/rescaled_final/0565_rv.mp4	0.0	119.36930179595947	
18	103.32362461090088	movie	1		292	16.0	2.5	/experiments/Knapen_AOT/AOT_stimuli/rescaled_final/0565_rv.mp4	0.0	119.38573932647705	2.5003662109375
18	104.90622901916504	pulse	1	t		16.0	2.5	/experiments/Knapen_AOT/AOT_stimuli/rescaled_final/0565_rv.mp4	0.0	120.96834373474121	
18	105.82399082183838	fix_post	2		12	16.0	2.5	/experiments/Knapen_AOT/AOT_stimuli/rescaled_final/0565_rv.mp4	0.0	121.88610553741455	0.10007572174072266
19	105.9240665435791	fix_pre	0		120	17.0	2.5	/experiments/Knapen_AOT/AOT_stimuli/rescaled_final/1240_rv.mp4	0.0	121.98618125915527	1.0085084438323975
19	106.50768065452576	pulse	0	t		17.0	2.5	/experiments/Knapen_AOT/AOT_stimuli/rescaled_final/1240_rv.mp4	0.0	122.56979537010193	
19	106.9325749874115	movie	1		280	17.0	2.5	/experiments/Knapen_AOT/AOT_stimuli/rescaled_final/1240_rv.mp4	0.0	122.99468970298767	2.4919581413269043
19	108.10573053359985	pulse	1	t		17.0	2.5	/experiments/Knapen_AOT/AOT_stimuli/rescaled_final/1240_rv.mp4	0.0	124.16784524917603	
19	109.4245331287384	fix_post	2		12	17.0	2.5	/experiments/Knapen_AOT/AOT_stimuli/rescaled_final/1240_rv.mp4	0.0	125.48664784431458	0.1000373363494873
20	109.52457046508789	fix_pre	0		120	18.0	2.5	/experiments/Knapen_AOT/AOT_stimuli/rescaled_final/1709_fw.mp4	0.0	125.58668518066406	1.008490800857544
20	109.70816898345947	pulse	0	t		18.0	2.5	/experiments/Knapen_AOT/AOT_stimuli/rescaled_final/1709_fw.mp4	0.0	125.77028369903564	
20	110.53306126594543	movie	1		282	18.0	2.5	/experiments/Knapen_AOT/AOT_stimuli/rescaled_final/1709_fw.mp4	0.0	126.5951759815216	2.492006301879883
20	111.30799794197083	pulse	1	t		18.0	2.5	/experiments/Knapen_AOT/AOT_stimuli/rescaled_final/1709_fw.mp4	0.0	127.370112657547	
20	112.90642976760864	pulse	1	t		18.0	2.5	/experiments/Knapen_AOT/AOT_stimuli/rescaled_final/1709_fw.mp4	0.0	128.96854448318481	
20	113.02506756782532	fix_post	2		12	18.0	2.5	/experiments/Knapen_AOT/AOT_stimuli/rescaled_final/1709_fw.mp4	0.0	129.0871822834015	0.10006928443908691
21	113.1251368522644	fix_pre	0		120	19.0	2.5	/experiments/Knapen_AOT/AOT_stimuli/rescaled_final/0606_rv.mp4	0.0	129.18725156784058	1.008453369140625
21	114.13359022140503	movie	1		272	19.0	2.5	/experiments/Knapen_AOT/AOT_stimuli/rescaled_final/0606_rv.mp4	0.0	130.1957049369812	2.4920356273651123
21	114.50891900062561	pulse	1	t		19.0	2.5	/experiments/Knapen_AOT/AOT_stimuli/rescaled_final/0606_rv.mp4	0.0	130.57103371620178	
21	116.10707902908325	pulse	1	t		19.0	2.5	/experiments/Knapen_AOT/AOT_stimuli/rescaled_final/0606_rv.mp4	0.0	132.16919374465942	
21	116.62562584877014	fix_post	2		12	19.0	2.5	/experiments/Knapen_AOT/AOT_stimuli/rescaled_final/0606_rv.mp4	0.0	132.6877405643463	0.10002946853637695
22	116.72565531730652	fix_pre	0		119	20.0	2.5	blank	1.0	132.7877700328827	0.9919116497039795
22	117.70936751365662	pulse	0	t		20.0	2.5	blank	1.0	133.7714822292328	
22	117.7175669670105	movie	1		301	20.0	2.5	blank	1.0	133.77968168258667	2.5087087154388428
22	119.30953073501587	pulse	1	t		20.0	2.5	blank	1.0	135.37164545059204	
22	120.22627568244934	fix_post	2		12	20.0	2.5	blank	1.0	136.2883903980255	0.09993290901184082
23	120.32620859146118	fix_pre	0		120	21.0	2.5	/experiments/Knapen_AOT/AOT_stimuli/rescaled_final/0220_fw.mp4	0.0	136.38832330703735	1.0084679126739502
23	120.90982365608215	pulse	0	t		21.0	2.5	/experiments/Knapen_AOT/AOT_stimuli/rescaled_final/0220_fw.mp4	0.0	136.97193837165833	
23	121.33467650413513	movie	1		267	21.0	2.5	/experiments/Knapen_AOT/AOT_stimuli/rescaled_final/0220_fw.mp4	0.0	137.3967912197113	2.4920260906219482
23	122.50832939147949	pulse	1	t		21.0	2.5	/experiments/Knapen_AOT/AOT_stimuli/rescaled_final/0220_fw.mp4	0.0	138.57044410705566	
23	123.82670259475708	fix_post	2		12	21.0	2.5	/experiments/Knapen_AOT/AOT_stimuli/rescaled_final/0220_fw.mp4	0.0	139.88881731033325	0.10001802444458008
24	123.92672061920166	fix_pre	0		120	22.0	2.5	/experiments/Knapen_AOT/AOT_stimuli/rescaled_final/0100_fw.mp4	0.0	139.98883533477783	1.008620023727417
24	124.11039566993713	pulse	0	t		22.0	2.5	/experiments/Knapen_AOT/AOT_stimuli/rescaled_final/0100_fw.mp4	0.0	140.1725103855133	
24	124.93534064292908	movie	1		283	22.0	2.5	/experiments/Knapen_AOT/AOT_stimuli/rescaled_final/0100_fw.mp4	0.0	140.99745535850525	2.4919021129608154
24	125.70848488807678	pulse	1	t		22.0	2.5	/experiments/Knapen_AOT/AOT_stimuli/rescaled_final/0100_fw.mp4	0.0	141.77059960365295	
24	127.31096363067627	pulse	1	t		22.0	2.5	/experiments/Knapen_AOT/AOT_stimuli/rescaled_final/0100_fw.mp4	0.0	143.37307834625244	
24	127.42724275588989	fix_post	2		12	22.0	2.5	/experiments/Knapen_AOT/AOT_stimuli/rescaled_final/0100_fw.mp4	0.0	143.48935747146606	0.10006046295166016
25	127.52730321884155	fix_pre	0		120	23.0	2.5	/experiments/Knapen_AOT/AOT_stimuli/rescaled_final/1698_fw.mp4	0.0	143.58941793441772	1.0085489749908447
25	128.5358521938324	movie	1		283	23.0	2.5	/experiments/Knapen_AOT/AOT_stimuli/rescaled_final/1698_fw.mp4	0.0	144.59796690940857	2.4919230937957764
25	128.90994882583618	pulse	1	t		23.0	2.5	/experiments/Knapen_AOT/AOT_stimuli/rescaled_final/1698_fw.mp4	0.0	144.97206354141235	
25	130.51139950752258	pulse	1	t		23.0	2.5	/experiments/Knapen_AOT/AOT_stimuli/rescaled_final/1698_fw.mp4	0.0	146.57351422309875	
25	131.02777528762817	fix_post	2		12	23.0	2.5	/experiments/Knapen_AOT/AOT_stimuli/rescaled_final/1698_fw.mp4	0.0	147.08989000320435	0.10007190704345703
26	131.12784719467163	fix_pre	0		119	24.0	2.5	/experiments/Knapen_AOT/AOT_stimuli/rescaled_final/0990_fw.mp4	0.0	147.1899619102478	1.0000979900360107
26	132.11144995689392	pulse	0	t		24.0	2.5	/experiments/Knapen_AOT/AOT_stimuli/rescaled_final/0990_fw.mp4	0.0	148.1735646724701	
26	132.12794518470764	movie	1		290	24.0	2.5	/experiments/Knapen_AOT/AOT_stimuli/rescaled_final/0990_fw.mp4	0.0	148.1900599002838	2.5003719329833984
26	133.71050786972046	pulse	1	t		24.0	2.5	/experiments/Knapen_AOT/AOT_stimuli/rescaled_final/0990_fw.mp4	0.0	149.77262258529663	
26	134.62831711769104	fix_post	2		12	24.0	2.5	/experiments/Knapen_AOT/AOT_stimuli/rescaled_final/0990_fw.mp4	0.0	150.6904318332672	0.10001778602600098
27	134.72833490371704	fix_pre	0		120	25.0	2.5	/experiments/Knapen_AOT/AOT_stimuli/rescaled_final/0545_fw.mp4	0.0	150.7904496192932	1.0085039138793945
27	135.31203699111938	pulse	0	t		25.0	2.5	/experiments/Knapen_AOT/AOT_stimuli/rescaled_final/0545_fw.mp4	0.0	151.37415170669556	
27	135.73683881759644	movie	1		282	25.0	2.5	/experiments/Knapen_AOT/AOT_stimuli/rescaled_final/0545_fw.mp4	0.0	151.7989535331726	2.4920542240142822
27	136.9100787639618	pulse	1	t		25.0	2.5	/experiments/Knapen_AOT/AOT_stimuli/rescaled_final/0545_fw.mp4	0.0	152.97219347953796	
27	138.22889304161072	fix_post	2		12	25.0	2.5	/experiments/Knapen_AOT/AOT_stimuli/rescaled_final/0545_fw.mp4	0.0	154.2910077571869	0.0999913215637207
28	138.32888436317444	fix_pre	0		120	26.0	2.5	blank	1.0	154.3909990787506	1.0001938343048096
28	138.51247763633728	pulse	0	t		26.0	2.5	blank	1.0	154.57459235191345	
28	139.32907819747925	movie	1		300	26.0	2.5	blank	1.0	155.39119291305542	2.500312566757202
28	140.11268019676208	pulse	1	t		26.0	2.5	blank	1.0	156.17479491233826	
28	141.7130846977234	pulse	1	t		26.0	2.5	blank	1.0	157.77519941329956	
28	141.82939076423645	fix_post	2		12	26.0	2.5	blank	1.0	157.89150547981262	0.10002660751342773
29	141.92941737174988	fix_pre	0		120	27.0	2.5	/experiments/Knapen_AOT/AOT_stimuli/rescaled_final/0520_rv.mp4	0.0	157.99153208732605	1.008514642715454
29	142.93793201446533	movie	1		280	27.0	2.5	/experiments/Knapen_AOT/AOT_stimuli/rescaled_final/0520_rv.mp4	0.0	159.0000467300415	2.4920051097869873
29	143.31181502342224	pulse	1	t		27.0	2.5	/experiments/Knapen_AOT/AOT_stimuli/rescaled_final/0520_rv.mp4	0.0	159.3739297389984	
29	144.91166758537292	pulse	1	t		27.0	2.5	/experiments/Knapen_AOT/AOT_stimuli/rescaled_final/0520_rv.mp4	0.0	160.9737823009491	
29	145.42993712425232	fix_post	2		12	27.0	2.5	/experiments/Knapen_AOT/AOT_stimuli/rescaled_final/0520_rv.mp4	0.0	161.4920518398285	0.1000816822052002
30	145.53001880645752	fix_pre	0		119	28.0	2.5	/experiments/Knapen_AOT/AOT_stimuli/rescaled_final/1899_rv.mp4	0.0	161.5921335220337	1.0001139640808105
30	146.51369071006775	pulse	0	t		28.0	2.5	/experiments/Knapen_AOT/AOT_stimuli/rescaled_final/1899_rv.mp4	0.0	162.57580542564392	
30	146.53013277053833	movie	1		274	28.0	2.5	/experiments/Knapen_AOT/AOT_stimuli/rescaled_final/1899_rv.mp4	0.0	162.5922474861145	2.5003581047058105
30	148.1121804714203	pulse	1	t		28.0	2.5	/experiments/Knapen_AOT/AOT_stimuli/rescaled_final/1899_rv.mp4	0.0	164.17429518699646	
30	149.03049087524414	fix_post	2		12	28.0	2.5	/experiments/Knapen_AOT/AOT_stimuli/rescaled_final/1899_rv.mp4	0.0	165.0926055908203	0.09999680519104004
31	149.13048768043518	fix_pre	0		120	29.0	2.5	/experiments/Knapen_AOT/AOT_stimuli/rescaled_final/1611_rv.mp4	0.0	165.19260239601135	1.0085639953613281
31	149.70644330978394	pulse	0	t		29.0	2.5	/experiments/Knapen_AOT/AOT_stimuli/rescaled_final/1611_rv.mp4	0.0	165.7685580253601	
31	150.1390516757965	movie	1		277	29.0	2.5	/experiments/Knapen_AOT/AOT_stimuli/rescaled_final/1611_rv.mp4	0.0	166.20116639137268	2.491971969604492
31	151.3066201210022	pulse	1	t		29.0	2.5	/experiments/Knapen_AOT/AOT_stimuli/rescaled_final/1611_rv.mp4	0.0	167.36873483657837	
31	152.631023645401	fix_post	2		12	29.0	2.5	/experiments/Knapen_AOT/AOT_stimuli/rescaled_final/1611_rv.mp4	0.0	168.69313836097717	0.10007309913635254
32	152.73109674453735	fix_pre	0		120	30.0	2.5	/experiments/Knapen_AOT/AOT_stimuli/rescaled_final/0759_rv.mp4	0.0	168.79321146011353	1.0084505081176758
32	152.9063971042633	pulse	0	t		30.0	2.5	/experiments/Knapen_AOT/AOT_stimuli/rescaled_final/0759_rv.mp4	0.0	168.96851181983948	
32	153.73954725265503	movie	1		275	30.0	2.5	/experiments/Knapen_AOT/AOT_stimuli/rescaled_final/0759_rv.mp4	0.0	169.8016619682312	2.4920167922973633
32	154.50652241706848	pulse	1	t		30.0	2.5	/experiments/Knapen_AOT/AOT_stimuli/rescaled_final/0759_rv.mp4	0.0	170.56863713264465	
32	156.10680770874023	pulse	1	t		30.0	2.5	/experiments/Knapen_AOT/AOT_stimuli/rescaled_final/0759_rv.mp4	0.0	172.1689224243164	
32	156.2315640449524	fix_post	2		12	30.0	2.5	/experiments/Knapen_AOT/AOT_stimuli/rescaled_final/0759_rv.mp4	0.0	172.29367876052856	0.10001683235168457
33	156.33158087730408	fix_pre	0		120	31.0	2.5	/experiments/Knapen_AOT/AOT_stimuli/rescaled_final/0370_rv.mp4	0.0	172.39369559288025	1.0085034370422363
33	157.3400843143463	movie	1		278	31.0	2.5	/experiments/Knapen_AOT/AOT_stimuli/rescaled_final/0370_rv.mp4	0.0	173.40219902992249	2.492058038711548
33	157.70713710784912	pulse	1	t		31.0	2.5	/experiments/Knapen_AOT/AOT_stimuli/rescaled_final/0370_rv.mp4	0.0	173.7692518234253	
33	159.30724906921387	pulse	1	t		31.0	2.5	/experiments/Knapen_AOT/AOT_stimuli/rescaled_final/0370_rv.mp4	0.0	175.36936378479004	
33	159.83214235305786	fix_post	2		12	31.0	2.5	/experiments/Knapen_AOT/AOT_stimuli/rescaled_final/0370_rv.mp4	0.0	175.89425706863403	0.10002636909484863
34	159.9321687221527	fix_pre	0		118	32.0	2.5	/experiments/Knapen_AOT/AOT_stimuli/rescaled_final/0589_rv.mp4	0.0	175.99428343772888	0.9917922019958496
34	160.90749979019165	pulse	0	t		32.0	2.5	/experiments/Knapen_AOT/AOT_stimuli/rescaled_final/0589_rv.mp4	0.0	176.96961450576782	
34	160.92396092414856	movie	1		289	32.0	2.5	/experiments/Knapen_AOT/AOT_stimuli/rescaled_final/0589_rv.mp4	0.0	176.98607563972473	2.500349998474121
34	162.5064582824707	pulse	1	t		32.0	2.5	/experiments/Knapen_AOT/AOT_stimuli/rescaled_final/0589_rv.mp4	0.0	178.56857299804688	
34	163.42431092262268	fix_post	2		12	32.0	2.5	/experiments/Knapen_AOT/AOT_stimuli/rescaled_final/0589_rv.mp4	0.0	179.48642563819885	0.10001802444458008
35	163.52432894706726	fix_pre	0		120	33.0	2.5	blank	1.0	179.58644366264343	1.0001506805419922
35	164.1082727909088	pulse	0	t		33.0	2.5	blank	1.0	180.17038750648499	
35	164.52447962760925	movie	1		300	33.0	2.5	blank	1.0	180.58659434318542	2.50040602684021
35	165.70844531059265	pulse	1	t		33.0	2.5	blank	1.0	181.77056002616882	
35	167.02488565444946	fix_post	2		12	33.0	2.5	blank	1.0	183.08700037002563	0.10001254081726074
36	167.12489819526672	fix_pre	0		120	34.0	2.5	/experiments/Knapen_AOT/AOT_stimuli/rescaled_final/0683_fw.mp4	0.0	183.1870129108429	1.0085039138793945
36	167.3086359500885	pulse	0	t		34.0	2.5	/experiments/Knapen_AOT/AOT_stimuli/rescaled_final/0683_fw.mp4	0.0	183.37075066566467	
36	168.13340210914612	movie	1		284	34.0	2.5	/experiments/Knapen_AOT/AOT_stimuli/rescaled_final/0683_fw.mp4	0.0	184.1955168247223	2.4919986724853516
36	168.90699195861816	pulse	1	t		34.0	2.5	/experiments/Knapen_AOT/AOT_stimuli/rescaled_final/0683_fw.mp4	0.0	184.96910667419434	
36	170.50723552703857	pulse	1	t		34.0	2.5	/experiments/Knapen_AOT/AOT_stimuli/rescaled_final/0683_fw.mp4	0.0	186.56935024261475	
36	170.62540078163147	fix_post	2		12	34.0	2.5	/experiments/Knapen_AOT/AOT_stimuli/rescaled_final/0683_fw.mp4	0.0	186.68751549720764	0.10007643699645996
37	170.72547721862793	fix_pre	0		120	35.0	2.5	/experiments/Knapen_AOT/AOT_stimuli/rescaled_final/1413_rv.mp4	0.0	186.7875919342041	1.0085318088531494
37	171.73400902748108	movie	1		280	35.0	2.5	/experiments/Knapen_AOT/AOT_stimuli/rescaled_final/1413_rv.mp4	0.0	187.79612374305725	2.491931200027466
37	172.10743880271912	pulse	1	t		35.0	2.5	/experiments/Knapen_AOT/AOT_stimuli/rescaled_final/1413_rv.mp4	0.0	188.1695535182953	
37	173.70755863189697	pulse	1	t		35.0	2.5	/experiments/Knapen_AOT/AOT_stimuli/rescaled_final/1413_rv.mp4	0.0	189.76967334747314	
37	174.22594022750854	fix_post	2		12	35.0	2.5	/experiments/Knapen_AOT/AOT_stimuli/rescaled_final/1413_rv.mp4	0.0	190.28805494308472	0.10003304481506348
38	174.3259732723236	fix_pre	0		119	36.0	2.5	/experiments/Knapen_AOT/AOT_stimuli/rescaled_final/0005_rv.mp4	0.0	190.38808798789978	1.0001599788665771
38	175.30973982810974	pulse	0	t		36.0	2.5	/experiments/Knapen_AOT/AOT_stimuli/rescaled_final/0005_rv.mp4	0.0	191.3718545436859	
38	175.32613325119019	movie	1		282	36.0	2.5	/experiments/Knapen_AOT/AOT_stimuli/rescaled_final/0005_rv.mp4	0.0	191.38824796676636	2.5003724098205566
38	176.90994381904602	pulse	1	t		36.0	2.5	/experiments/Knapen_AOT/AOT_stimuli/rescaled_final/0005_rv.mp4	0.0	192.9720585346222	
38	177.82650566101074	fix_post	2		12	36.0	2.5	/experiments/Knapen_AOT/AOT_stimuli/rescaled_final/0005_rv.mp4	0.0	193.8886203765869	0.10009026527404785
39	177.9265959262848	fix_pre	0		120	37.0	2.5	/experiments/Knapen_AOT/AOT_stimuli/rescaled_final/1591_rv.mp4	0.0	193.98871064186096	1.0084071159362793
39	178.51015949249268	pulse	0	t		37.0	2.5	/experiments/Knapen_AOT/AOT_stimuli/rescaled_final/1591_rv.mp4	0.0	194.57227420806885	
39	178.93500304222107	movie	1		291	37.0	2.5	/experiments/Knapen_AOT/AOT_stimuli/rescaled_final/1591_rv.mp4	0.0	194.99711775779724	2.492015838623047
39	180.1086390018463	pulse	1	t		37.0	2.5	/experiments/Knapen_AOT/AOT_stimuli/rescaled_final/1591_rv.mp4	0.0	196.17075371742249	
39	181.42701888084412	fix_post	2		12	37.0	2.5	/experiments/Knapen_AOT/AOT_stimuli/rescaled_final/1591_rv.mp4	0.0	197.4891335964203	0.1000211238861084
40	181.52704000473022	fix_pre	0		119	38.0	2.5	/experiments/Knapen_AOT/AOT_stimuli/rescaled_final/0799_fw.mp4	0.0	197.5891547203064	1.0086779594421387
40	181.71097111701965	pulse	0	t		38.0	2.5	/experiments/Knapen_AOT/AOT_stimuli/rescaled_final/0799_fw.mp4	0.0	197.77308583259583	
40	182.53571796417236	movie	1		284	38.0	2.5	/experiments/Knapen_AOT/AOT_stimuli/rescaled_final/0799_fw.mp4	0.0	198.59783267974854	2.491835117340088
40	183.3088619709015	pulse	1	t		38.0	2.5	/experiments/Knapen_AOT/AOT_stimuli/rescaled_final/0799_fw.mp4	0.0	199.37097668647766	
40	184.90929317474365	pulse	1	t		38.0	2.5	/experiments/Knapen_AOT/AOT_stimuli/rescaled_final/0799_fw.mp4	0.0	200.97140789031982	
40	185.02755308151245	fix_post	2		12	38.0	2.5	/experiments/Knapen_AOT/AOT_stimuli/rescaled_final/0799_fw.mp4	0.0	201.08966779708862	0.10004973411560059
41	185.12760281562805	fix_pre	0		120	39.0	2.5	/experiments/Knapen_AOT/AOT_stimuli/rescaled_final/1188_fw.mp4	0.0	201.18971753120422	1.0085093975067139
41	186.13611221313477	movie	1		273	39.0	2.5	/experiments/Knapen_AOT/AOT_stimuli/rescaled_final/1188_fw.mp4	0.0	202.19822692871094	2.491995096206665
41	186.5116012096405	pulse	1	t		39.0	2.5	/experiments/Knapen_AOT/AOT_stimuli/rescaled_final/1188_fw.mp4	0.0	202.57371592521667	
41	188.10974740982056	pulse	1	t		39.0	2.5	/experiments/Knapen_AOT/AOT_stimuli/rescaled_final/1188_fw.mp4	0.0	204.17186212539673	
41	188.62810730934143	fix_post	2		12	39.0	2.5	/experiments/Knapen_AOT/AOT_stimuli/rescaled_final/1188_fw.mp4	0.0	204.6902220249176	0.10000967979431152
42	188.72811698913574	fix_pre	0		119	40.0	2.5	/experiments/Knapen_AOT/AOT_stimuli/rescaled_final/1003_fw.mp4	0.0	204.7902317047119	1.0001771450042725
42	189.71198105812073	pulse	0	t		40.0	2.5	/experiments/Knapen_AOT/AOT_stimuli/rescaled_final/1003_fw.mp4	0.0	205.7740957736969	
42	189.72829413414001	movie	1		273	40.0	2.5	/experiments/Knapen_AOT/AOT_stimuli/rescaled_final/1003_fw.mp4	0.0	205.7904088497162	2.5003645420074463
42	191.31122756004333	pulse	1	t		40.0	2.5	/experiments/Knapen_AOT/AOT_stimuli/rescaled_final/1003_fw.mp4	0.0	207.3733422756195	
42	192.22865867614746	fix_post	2		12	40.0	2.5	/experiments/Knapen_AOT/AOT_stimuli/rescaled_final/1003_fw.mp4	0.0	208.29077339172363	0.1000978946685791
43	192.32875657081604	fix_pre	0		120	41.0	2.5	blank	1.0	208.3908712863922	1.000053882598877
43	192.91251683235168	pulse	0	t		41.0	2.5	blank	1.0	208.97463154792786	
43	193.32881045341492	movie	1		300	41.0	2.5	blank	1.0	209.3909251689911	2.5003907680511475
43	194.51256799697876	pulse	1	t		41.0	2.5	blank	1.0	210.57468271255493	
43	195.82920122146606	fix_post	2		12	41.0	2.5	blank	1.0	211.89131593704224	0.10001850128173828
44	195.9292197227478	fix_pre	0		120	42.0	2.5	/experiments/Knapen_AOT/AOT_stimuli/rescaled_final/0342_rv.mp4	0.0	211.99133443832397	1.0085010528564453
44	196.11276507377625	pulse	0	t		42.0	2.5	/experiments/Knapen_AOT/AOT_stimuli/rescaled_final/0342_rv.mp4	0.0	212.17487978935242	
44	196.93772077560425	movie	1		275	42.0	2.5	/experiments/Knapen_AOT/AOT_stimuli/rescaled_final/0342_rv.mp4	0.0	212.99983549118042	2.492058277130127
44	197.71093845367432	pulse	1	t		42.0	2.5	/experiments/Knapen_AOT/AOT_stimuli/rescaled_final/0342_rv.mp4	0.0	213.7730531692505	
44	199.3114309310913	pulse	1	t		42.0	2.5	/experiments/Knapen_AOT/AOT_stimuli/rescaled_final/0342_rv.mp4	0.0	215.37354564666748	
44	199.42977905273438	fix_post	2		12	42.0	2.5	/experiments/Knapen_AOT/AOT_stimuli/rescaled_final/0342_rv.mp4	0.0	215.49189376831055	0.0999753475189209
45	199.5297544002533	fix_pre	0		120	43.0	2.5	/experiments/Knapen_AOT/AOT_stimuli/rescaled_final/1124_fw.mp4	0.0	215.59186911582947	1.0085093975067139
45	200.53826379776	movie	1		277	43.0	2.5	/experiments/Knapen_AOT/AOT_stimuli/rescaled_final/1124_fw.mp4	0.0	216.60037851333618	2.4920737743377686
45	200.9132444858551	pulse	1	t		43.0	2.5	/experiments/Knapen_AOT/AOT_stimuli/rescaled_final/1124_fw.mp4	0.0	216.97535920143127	
45	202.5056893825531	pulse	1	t		43.0	2.5	/experiments/Knapen_AOT/AOT_stimuli/rescaled_final/1124_fw.mp4	0.0	218.56780409812927	
45	203.03033757209778	fix_post	2		12	43.0	2.5	/experiments/Knapen_AOT/AOT_stimuli/rescaled_final/1124_fw.mp4	0.0	219.09245228767395	0.09995365142822266
46	203.130291223526	fix_pre	0		119	44.0	2.5	/experiments/Knapen_AOT/AOT_stimuli/rescaled_final/0596_rv.mp4	0.0	219.19240593910217	1.0085716247558594
46	204.11410808563232	pulse	0	t		44.0	2.5	/experiments/Knapen_AOT/AOT_stimuli/rescaled_final/0596_rv.mp4	0.0	220.1762228012085	
46	204.13886284828186	movie	1		267	44.0	2.5	/experiments/Knapen_AOT/AOT_stimuli/rescaled_final/0596_rv.mp4	0.0	220.20097756385803	2.492006301879883
46	205.70599150657654	pulse	1	t		44.0	2.5	/experiments/Knapen_AOT/AOT_stimuli/rescaled_final/0596_rv.mp4	0.0	221.7681062221527	
46	206.63086915016174	fix_post	2		12	44.0	2.5	/experiments/Knapen_AOT/AOT_stimuli/rescaled_final/0596_rv.mp4	0.0	222.69298386573792	0.09999942779541016
47	206.73086857795715	fix_pre	0		120	45.0	2.5	/experiments/Knapen_AOT/AOT_stimuli/rescaled_final/1799_rv.mp4	0.0	222.79298329353333	1.0086076259613037
47	207.30623292922974	pulse	0	t		45.0	2.5	/experiments/Knapen_AOT/AOT_stimuli/rescaled_final/1799_rv.mp4	0.0	223.3683476448059	
47	207.73947620391846	movie	1		286	45.0	2.5	/experiments/Knapen_AOT/AOT_stimuli/rescaled_final/1799_rv.mp4	0.0	223.80159091949463	2.4918875694274902
47	208.90649795532227	pulse	1	t		45.0	2.5	/experiments/Knapen_AOT/AOT_stimuli/rescaled_final/1799_rv.mp4	0.0	224.96861267089844	
47	210.23136377334595	fix_post	2		12	45.0	2.5	/experiments/Knapen_AOT/AOT_stimuli/rescaled_final/1799_rv.mp4	0.0	226.29347848892212	0.10000824928283691
48	210.33137202262878	fix_pre	0		120	46.0	2.5	/experiments/Knapen_AOT/AOT_stimuli/rescaled_final/0177_fw.mp4	0.0	226.39348673820496	1.0085105895996094
48	210.5066237449646	pulse	0	t		46.0	2.5	/experiments/Knapen_AOT/AOT_stimuli/rescaled_final/0177_fw.mp4	0.0	226.56873846054077	
48	211.3398826122284	movie	1		282	46.0	2.5	/experiments/Knapen_AOT/AOT_stimuli/rescaled_final/0177_fw.mp4	0.0	227.40199732780457	2.4920220375061035
48	212.10685086250305	pulse	1	t		46.0	2.5	/experiments/Knapen_AOT/AOT_stimuli/rescaled_final/0177_fw.mp4	0.0	228.16896557807922	
48	213.70710062980652	pulse	1	t		46.0	2.5	/experiments/Knapen_AOT/AOT_stimuli/rescaled_final/0177_fw.mp4	0.0	229.7692153453827	
48	213.8319046497345	fix_post	2		12	46.0	2.5	/experiments/Knapen_AOT/AOT_stimuli/rescaled_final/0177_fw.mp4	0.0	229.89401936531067	0.1000521183013916
49	213.9319567680359	fix_pre	0		120	47.0	2.5	/experiments/Knapen_AOT/AOT_stimuli/rescaled_final/2170_rv.mp4	0.0	229.99407148361206	1.0084476470947266
49	214.94040441513062	movie	1		272	47.0	2.5	/experiments/Knapen_AOT/AOT_stimuli/rescaled_final/2170_rv.mp4	0.0	231.0025191307068	2.4920313358306885
49	215.30593490600586	pulse	1	t		47.0	2.5	/experiments/Knapen_AOT/AOT_stimuli/rescaled_final/2170_rv.mp4	0.0	231.36804962158203	
49	216.90626049041748	pulse	1	t		47.0	2.5	/experiments/Knapen_AOT/AOT_stimuli/rescaled_final/2170_rv.mp4	0.0	232.96837520599365	
49	217.4324357509613	fix_post	2		12	47.0	2.5	/experiments/Knapen_AOT/AOT_stimuli/rescaled_final/2170_rv.mp4	0.0	233.49455046653748	0.10006952285766602
50	217.53250527381897	fix_pre	0		118	48.0	2.5	/experiments/Knapen_AOT/AOT_stimuli/rescaled_final/0799_rv.mp4	0.0	233.59461998939514	0.991771936416626
50	218.5078785419464	pulse	0	t		48.0	2.5	/experiments/Knapen_AOT/AOT_stimuli/rescaled_final/0799_rv.mp4	0.0	234.56999325752258	
50	218.5242772102356	movie	1		262	48.0	2.5	/experiments/Knapen_AOT/AOT_stimuli/rescaled_final/0799_rv.mp4	0.0	234.58639192581177	2.50036883354187
50	220.10635423660278	pulse	1	t		48.0	2.5	/experiments/Knapen_AOT/AOT_stimuli/rescaled_final/0799_rv.mp4	0.0	236.16846895217896	
50	221.02464604377747	fix_post	2		12	48.0	2.5	/experiments/Knapen_AOT/AOT_stimuli/rescaled_final/0799_rv.mp4	0.0	237.08676075935364	0.10002493858337402
51	221.12467098236084	fix_pre	0		120	49.0	2.5	blank	1.0	237.186785697937	1.0001180171966553
51	221.70835423469543	pulse	0	t		49.0	2.5	blank	1.0	237.7704689502716	
51	222.1247889995575	movie	1		300	49.0	2.5	blank	1.0	238.18690371513367	2.50040864944458
51	223.3086817264557	pulse	1	t		49.0	2.5	blank	1.0	239.37079644203186	
51	224.62519764900208	fix_post	2		12	49.0	2.5	blank	1.0	240.68731236457825	0.10001349449157715
52	224.72521114349365	fix_pre	0		120	50.0	2.5	/experiments/Knapen_AOT/AOT_stimuli/rescaled_final/0167_fw.mp4	0.0	240.78732585906982	1.0084946155548096
52	224.90878868103027	pulse	0	t		50.0	2.5	/experiments/Knapen_AOT/AOT_stimuli/rescaled_final/0167_fw.mp4	0.0	240.97090339660645	
52	225.73370575904846	movie	1		283	50.0	2.5	/experiments/Knapen_AOT/AOT_stimuli/rescaled_final/0167_fw.mp4	0.0	241.79582047462463	2.4920504093170166
52	226.50680232048035	pulse	1	t		50.0	2.5	/experiments/Knapen_AOT/AOT_stimuli/rescaled_final/0167_fw.mp4	0.0	242.56891703605652	
52	228.10948824882507	pulse	1	t		50.0	2.5	/experiments/Knapen_AOT/AOT_stimuli/rescaled_final/0167_fw.mp4	0.0	244.17160296440125	
52	228.22575616836548	fix_post	2		12	50.0	2.5	/experiments/Knapen_AOT/AOT_stimuli/rescaled_final/0167_fw.mp4	0.0	244.28787088394165	0.09998941421508789
53	228.32574558258057	fix_pre	0		120	51.0	2.5	/experiments/Knapen_AOT/AOT_stimuli/rescaled_final/2177_rv.mp4	0.0	244.38786029815674	1.0085844993591309
53	229.3343300819397	movie	1		284	51.0	2.5	/experiments/Knapen_AOT/AOT_stimuli/rescaled_final/2177_rv.mp4	0.0	245.39644479751587	2.49196720123291
53	229.70893263816833	pulse	1	t		51.0	2.5	/experiments/Knapen_AOT/AOT_stimuli/rescaled_final/2177_rv.mp4	0.0	245.7710473537445	
53	231.3083381652832	pulse	1	t		51.0	2.5	/experiments/Knapen_AOT/AOT_stimuli/rescaled_final/2177_rv.mp4	0.0	247.37045288085938	
53	231.8262972831726	fix_post	2		12	51.0	2.5	/experiments/Knapen_AOT/AOT_stimuli/rescaled_final/2177_rv.mp4	0.0	247.88841199874878	0.09998846054077148
54	231.92628574371338	fix_pre	0		119	52.0	2.5	/experiments/Knapen_AOT/AOT_stimuli/rescaled_final/2064_rv.mp4	0.0	247.98840045928955	1.0001544952392578
54	232.9100341796875	pulse	0	t		52.0	2.5	/experiments/Knapen_AOT/AOT_stimuli/rescaled_final/2064_rv.mp4	0.0	248.97214889526367	
54	232.92644023895264	movie	1		283	52.0	2.5	/experiments/Knapen_AOT/AOT_stimuli/rescaled_final/2064_rv.mp4	0.0	248.9885549545288	2.5003671646118164
54	234.50906133651733	pulse	1	t		52.0	2.5	/experiments/Knapen_AOT/AOT_stimuli/rescaled_final/2064_rv.mp4	0.0	250.5711760520935	
54	235.42680740356445	fix_post	2		12	52.0	2.5	/experiments/Knapen_AOT/AOT_stimuli/rescaled_final/2064_rv.mp4	0.0	251.48892211914062	0.1000213623046875
55	235.52682876586914	fix_pre	0		120	53.0	2.5	/experiments/Knapen_AOT/AOT_stimuli/rescaled_final/2007_fw.mp4	0.0	251.5889434814453	1.0085012912750244
55	236.1105523109436	pulse	0	t		53.0	2.5	/experiments/Knapen_AOT/AOT_stimuli/rescaled_final/2007_fw.mp4	0.0	252.17266702651978	
55	236.53533005714417	movie	1		271	53.0	2.5	/experiments/Knapen_AOT/AOT_stimuli/rescaled_final/2007_fw.mp4	0.0	252.59744477272034	2.4920287132263184
55	237.70927906036377	pulse	1	t		53.0	2.5	/experiments/Knapen_AOT/AOT_stimuli/rescaled_final/2007_fw.mp4	0.0	253.77139377593994	
55	239.02735877037048	fix_post	2		12	53.0	2.5	/experiments/Knapen_AOT/AOT_stimuli/rescaled_final/2007_fw.mp4	0.0	255.08947348594666	0.10003471374511719
56	239.1273934841156	fix_pre	0		120	54.0	2.5	/experiments/Knapen_AOT/AOT_stimuli/rescaled_final/0361_rv.mp4	0.0	255.18950819969177	1.0084686279296875
56	239.31092143058777	pulse	0	t		54.0	2.5	/experiments/Knapen_AOT/AOT_stimuli/rescaled_final/0361_rv.mp4	0.0	255.37303614616394	
56	240.1358621120453	movie	1		286	54.0	2.5	/experiments/Knapen_AOT/AOT_stimuli/rescaled_final/0361_rv.mp4	0.0	256.19797682762146	2.49202823638916
56	240.9094099998474	pulse	1	t		54.0	2.5	/experiments/Knapen_AOT/AOT_stimuli/rescaled_final/0361_rv.mp4	0.0	256.9715247154236	
56	242.51081705093384	pulse	1	t		54.0	2.5	/experiments/Knapen_AOT/AOT_stimuli/rescaled_final/0361_rv.mp4	0.0	258.57293176651	
56	242.62789034843445	fix_post	2		12	54.0	2.5	/experiments/Knapen_AOT/AOT_stimuli/rescaled_final/0361_rv.mp4	0.0	258.6900050640106	0.1000220775604248
57	242.72791242599487	fix_pre	0		120	55.0	2.5	blank	1.0	258.79002714157104	1.0001623630523682
57	243.72807478904724	movie	1		300	55.0	2.5	blank	1.0	259.7901895046234	2.5003654956817627
57	244.11179208755493	pulse	1	t		55.0	2.5	blank	1.0	260.1739068031311	
57	245.71190428733826	pulse	1	t		55.0	2.5	blank	1.0	261.77401900291443	
57	246.228440284729	fix_post	2		12	55.0	2.5	blank	1.0	262.2905550003052	0.1000213623046875
58	246.3284616470337	fix_pre	0		119	56.0	2.5	/experiments/Knapen_AOT/AOT_stimuli/rescaled_final/0558_fw.mp4	0.0	262.39057636260986	1.000112771987915
58	247.3121416568756	pulse	0	t		56.0	2.5	/experiments/Knapen_AOT/AOT_stimuli/rescaled_final/0558_fw.mp4	0.0	263.3742563724518	
58	247.3285744190216	movie	1		266	56.0	2.5	/experiments/Knapen_AOT/AOT_stimuli/rescaled_final/0558_fw.mp4	0.0	263.3906891345978	2.5004050731658936
58	248.91107845306396	pulse	1	t		56.0	2.5	/experiments/Knapen_AOT/AOT_stimuli/rescaled_final/0558_fw.mp4	0.0	264.97319316864014	
58	249.8289794921875	fix_post	2		12	56.0	2.5	/experiments/Knapen_AOT/AOT_stimuli/rescaled_final/0558_fw.mp4	0.0	265.8910942077637	0.10002446174621582
59	249.92900395393372	fix_pre	0		120	57.0	2.5	/experiments/Knapen_AOT/AOT_stimuli/rescaled_final/1488_fw.mp4	0.0	265.9911186695099	1.008500099182129
59	250.51263570785522	pulse	0	t		57.0	2.5	/experiments/Knapen_AOT/AOT_stimuli/rescaled_final/1488_fw.mp4	0.0	266.5747504234314	
59	250.93750405311584	movie	1		281	57.0	2.5	/experiments/Knapen_AOT/AOT_stimuli/rescaled_final/1488_fw.mp4	0.0	266.999618768692	2.492041826248169
59	252.11127018928528	pulse	1	t		57.0	2.5	/experiments/Knapen_AOT/AOT_stimuli/rescaled_final/1488_fw.mp4	0.0	268.17338490486145	
59	253.429545879364	fix_post	2		12	57.0	2.5	/experiments/Knapen_AOT/AOT_stimuli/rescaled_final/1488_fw.mp4	0.0	269.4916605949402	0.09998917579650879
60	253.52953505516052	fix_pre	0		120	58.0	2.5	/experiments/Knapen_AOT/AOT_stimuli/rescaled_final/0690_fw.mp4	0.0	269.5916497707367	1.0086305141448975
60	253.71317625045776	pulse	0	t		58.0	2.5	/experiments/Knapen_AOT/AOT_stimuli/rescaled_final/0690_fw.mp4	0.0	269.77529096603394	
60	254.53816556930542	movie	1		284	58.0	2.5	/experiments/Knapen_AOT/AOT_stimuli/rescaled_final/0690_fw.mp4	0.0	270.6002802848816	2.4918909072875977
60	255.31159710884094	pulse	1	t		58.0	2.5	/experiments/Knapen_AOT/AOT_stimuli/rescaled_final/0690_fw.mp4	0.0	271.3737118244171	
60	256.9117455482483	pulse	1	t		58.0	2.5	/experiments/Knapen_AOT/AOT_stimuli/rescaled_final/0690_fw.mp4	0.0	272.97386026382446	
60	257.030056476593	fix_post	2		12	58.0	2.5	/experiments/Knapen_AOT/AOT_stimuli/rescaled_final/0690_fw.mp4	0.0	273.0921711921692	0.10010099411010742
61	257.1301574707031	fix_pre	0		120	59.0	2.5	/experiments/Knapen_AOT/AOT_stimuli/rescaled_final/1276_fw.mp4	0.0	273.1922721862793	1.008418321609497
61	258.1385757923126	movie	1		285	59.0	2.5	/experiments/Knapen_AOT/AOT_stimuli/rescaled_final/1276_fw.mp4	0.0	274.2006905078888	2.492013454437256
61	258.5118827819824	pulse	1	t		59.0	2.5	/experiments/Knapen_AOT/AOT_stimuli/rescaled_final/1276_fw.mp4	0.0	274.5739974975586	
61	260.10613203048706	pulse	1	t		59.0	2.5	/experiments/Knapen_AOT/AOT_stimuli/rescaled_final/1276_fw.mp4	0.0	276.16824674606323	
61	260.6305892467499	fix_post	2		12	59.0	2.5	/experiments/Knapen_AOT/AOT_stimuli/rescaled_final/1276_fw.mp4	0.0	276.69270396232605	0.1000528335571289
62	260.730642080307	fix_pre	0		118	60.0	2.5	/experiments/Knapen_AOT/AOT_stimuli/rescaled_final/1677_rv.mp4	0.0	276.7927567958832	0.9918406009674072
62	261.7062027454376	pulse	0	t		60.0	2.5	/experiments/Knapen_AOT/AOT_stimuli/rescaled_final/1677_rv.mp4	0.0	277.7683174610138	
62	261.7224826812744	movie	1		274	60.0	2.5	/experiments/Knapen_AOT/AOT_stimuli/rescaled_final/1677_rv.mp4	0.0	277.7845973968506	2.500328779220581
62	263.30629444122314	pulse	1	t		60.0	2.5	/experiments/Knapen_AOT/AOT_stimuli/rescaled_final/1677_rv.mp4	0.0	279.3684091567993	
62	264.222811460495	fix_post	2		12	60.0	2.5	/experiments/Knapen_AOT/AOT_stimuli/rescaled_final/1677_rv.mp4	0.0	280.28492617607117	0.10001111030578613
63	264.3228225708008	fix_pre	0		120	61.0	2.5	/experiments/Knapen_AOT/AOT_stimuli/rescaled_final/2007_rv.mp4	0.0	280.38493728637695	1.008579969406128
63	264.9065704345703	pulse	0	t		61.0	2.5	/experiments/Knapen_AOT/AOT_stimuli/rescaled_final/2007_rv.mp4	0.0	280.9686851501465	
63	265.3314025402069	movie	1		273	61.0	2.5	/experiments/Knapen_AOT/AOT_stimuli/rescaled_final/2007_rv.mp4	0.0	281.3935172557831	2.491941452026367
63	266.506765127182	pulse	1	t		61.0	2.5	/experiments/Knapen_AOT/AOT_stimuli/rescaled_final/2007_rv.mp4	0.0	282.5688798427582	
63	267.8233439922333	fix_post	2		12	61.0	2.5	/experiments/Knapen_AOT/AOT_stimuli/rescaled_final/2007_rv.mp4	0.0	283.88545870780945	0.10002470016479492
64	267.92336869239807	fix_pre	0		120	62.0	2.5	/experiments/Knapen_AOT/AOT_stimuli/rescaled_final/0852_rv.mp4	0.0	283.98548340797424	1.0085082054138184
64	268.1070327758789	pulse	0	t		62.0	2.5	/experiments/Knapen_AOT/AOT_stimuli/rescaled_final/0852_rv.mp4	0.0	284.1691474914551	
64	268.9318768978119	movie	1		282	62.0	2.5	/experiments/Knapen_AOT/AOT_stimuli/rescaled_final/0852_rv.mp4	0.0	284.99399161338806	2.4920449256896973
64	269.70792174339294	pulse	1	t		62.0	2.5	/experiments/Knapen_AOT/AOT_stimuli/rescaled_final/0852_rv.mp4	0.0	285.7700364589691	
64	271.3075261116028	pulse	1	t		62.0	2.5	/experiments/Knapen_AOT/AOT_stimuli/rescaled_final/0852_rv.mp4	0.0	287.36964082717896	
64	271.4239218235016	fix_post	2		12	62.0	2.5	/experiments/Knapen_AOT/AOT_stimuli/rescaled_final/0852_rv.mp4	0.0	287.48603653907776	0.09998464584350586
65	271.5239064693451	fix_pre	0		120	63.0	2.5	blank	1.0	287.58602118492126	1.000143051147461
65	272.52404952049255	movie	1		300	63.0	2.5	blank	1.0	288.5861642360687	2.500403642654419
65	272.9076907634735	pulse	1	t		63.0	2.5	blank	1.0	288.9698054790497	
65	274.5079011917114	pulse	1	t		63.0	2.5	blank	1.0	290.5700159072876	
65	275.024453163147	fix_post	2		12	63.0	2.5	blank	1.0	291.08656787872314	0.10019540786743164
66	275.1246485710144	fix_pre	0		119	64.0	2.5	/experiments/Knapen_AOT/AOT_stimuli/rescaled_final/1829_fw.mp4	0.0	291.1867632865906	0.9999434947967529
66	276.1083583831787	pulse	0	t		64.0	2.5	/experiments/Knapen_AOT/AOT_stimuli/rescaled_final/1829_fw.mp4	0.0	292.1704730987549	
66	276.12459206581116	movie	1		281	64.0	2.5	/experiments/Knapen_AOT/AOT_stimuli/rescaled_final/1829_fw.mp4	0.0	292.18670678138733	2.5003983974456787
66	277.707937002182	pulse	1	t		64.0	2.5	/experiments/Knapen_AOT/AOT_stimuli/rescaled_final/1829_fw.mp4	0.0	293.7700517177582	
66	278.62499046325684	fix_post	2		12	64.0	2.5	/experiments/Knapen_AOT/AOT_stimuli/rescaled_final/1829_fw.mp4	0.0	294.687105178833	0.10002636909484863
67	278.7250168323517	fix_pre	0		120	65.0	2.5	/experiments/Knapen_AOT/AOT_stimuli/rescaled_final/0955_rv.mp4	0.0	294.78713154792786	1.0084636211395264
67	279.30865001678467	pulse	0	t		65.0	2.5	/experiments/Knapen_AOT/AOT_stimuli/rescaled_final/0955_rv.mp4	0.0	295.37076473236084	
67	279.7334804534912	movie	1		277	65.0	2.5	/experiments/Knapen_AOT/AOT_stimuli/rescaled_final/0955_rv.mp4	0.0	295.7955951690674	2.5003693103790283
67	280.90706396102905	pulse	1	t		65.0	2.5	/experiments/Knapen_AOT/AOT_stimuli/rescaled_final/0955_rv.mp4	0.0	296.9691786766052	
67	282.23384976387024	fix_post	2		11	65.0	2.5	/experiments/Knapen_AOT/AOT_stimuli/rescaled_final/0955_rv.mp4	0.0	298.2959644794464	0.09166479110717773
68	282.3255145549774	fix_pre	0		119	66.0	2.5	/experiments/Knapen_AOT/AOT_stimuli/rescaled_final/1677_rv.mp4	0.0	298.3876292705536	1.0085160732269287
68	282.50913190841675	pulse	0	t		66.0	2.5	/experiments/Knapen_AOT/AOT_stimuli/rescaled_final/1677_rv.mp4	0.0	298.5712466239929	
68	283.33403062820435	movie	1		276	66.0	2.5	/experiments/Knapen_AOT/AOT_stimuli/rescaled_final/1677_rv.mp4	0.0	299.3961453437805	2.4920170307159424
68	284.107962846756	pulse	1	t		66.0	2.5	/experiments/Knapen_AOT/AOT_stimuli/rescaled_final/1677_rv.mp4	0.0	300.17007756233215	
68	285.70752453804016	pulse	1	t		66.0	2.5	/experiments/Knapen_AOT/AOT_stimuli/rescaled_final/1677_rv.mp4	0.0	301.76963925361633	
68	285.8260476589203	fix_post	2		12	66.0	2.5	/experiments/Knapen_AOT/AOT_stimuli/rescaled_final/1677_rv.mp4	0.0	301.88816237449646	0.10005712509155273
69	285.92610478401184	fix_pre	0		120	67.0	2.5	/experiments/Knapen_AOT/AOT_stimuli/rescaled_final/0519_fw.mp4	0.0	301.988219499588	1.0084528923034668
69	286.9345576763153	movie	1		284	67.0	2.5	/experiments/Knapen_AOT/AOT_stimuli/rescaled_final/0519_fw.mp4	0.0	302.9966723918915	2.492035150527954
69	287.30859088897705	pulse	1	t		67.0	2.5	/experiments/Knapen_AOT/AOT_stimuli/rescaled_final/0519_fw.mp4	0.0	303.3707056045532	
69	288.9085156917572	pulse	1	t		67.0	2.5	/experiments/Knapen_AOT/AOT_stimuli/rescaled_final/0519_fw.mp4	0.0	304.9706304073334	
69	289.42659282684326	fix_post	2		12	67.0	2.5	/experiments/Knapen_AOT/AOT_stimuli/rescaled_final/0519_fw.mp4	0.0	305.48870754241943	0.10005879402160645
70	289.52665162086487	fix_pre	0		119	68.0	2.5	blank	1.0	305.58876633644104	0.9918081760406494
70	290.51033997535706	pulse	0	t		68.0	2.5	blank	1.0	306.5724546909332	
70	290.5184597969055	movie	1		301	68.0	2.5	blank	1.0	306.5805745124817	2.5086750984191895
70	292.1105194091797	pulse	1	t		68.0	2.5	blank	1.0	308.17263412475586	
70	293.0271348953247	fix_post	2		12	68.0	2.5	blank	1.0	309.0892496109009	0.10001993179321289
71	293.1271548271179	fix_pre	0		120	69.0	2.5	/experiments/Knapen_AOT/AOT_stimuli/rescaled_final/0973_rv.mp4	0.0	309.1892695426941	1.0084939002990723
71	293.71081948280334	pulse	0	t		69.0	2.5	/experiments/Knapen_AOT/AOT_stimuli/rescaled_final/0973_rv.mp4	0.0	309.7729341983795	
71	294.135648727417	movie	1		281	69.0	2.5	/experiments/Knapen_AOT/AOT_stimuli/rescaled_final/0973_rv.mp4	0.0	310.19776344299316	2.4920828342437744
71	295.3096721172333	pulse	1	t		69.0	2.5	/experiments/Knapen_AOT/AOT_stimuli/rescaled_final/0973_rv.mp4	0.0	311.37178683280945	
71	296.62773156166077	fix_post	2		12	69.0	2.5	/experiments/Knapen_AOT/AOT_stimuli/rescaled_final/0973_rv.mp4	0.0	312.68984627723694	0.0999765396118164
72	296.7277081012726	fix_pre	0		120	70.0	2.5	/experiments/Knapen_AOT/AOT_stimuli/rescaled_final/1843_fw.mp4	0.0	312.78982281684875	1.0085816383361816
72	296.91132283210754	pulse	0	t		70.0	2.5	/experiments/Knapen_AOT/AOT_stimuli/rescaled_final/1843_fw.mp4	0.0	312.9734375476837	
72	297.73628973960876	movie	1		266	70.0	2.5	/experiments/Knapen_AOT/AOT_stimuli/rescaled_final/1843_fw.mp4	0.0	313.79840445518494	2.491920232772827
72	298.5095262527466	pulse	1	t		70.0	2.5	/experiments/Knapen_AOT/AOT_stimuli/rescaled_final/1843_fw.mp4	0.0	314.57164096832275	
72	300.1098484992981	pulse	1	t		70.0	2.5	/experiments/Knapen_AOT/AOT_stimuli/rescaled_final/1843_fw.mp4	0.0	316.17196321487427	
72	300.2282099723816	fix_post	2		12	70.0	2.5	/experiments/Knapen_AOT/AOT_stimuli/rescaled_final/1843_fw.mp4	0.0	316.29032468795776	0.10004591941833496
73	300.3282558917999	fix_pre	0		120	71.0	2.5	/experiments/Knapen_AOT/AOT_stimuli/rescaled_final/1488_fw.mp4	0.0	316.3903706073761	1.0085513591766357
73	301.33680725097656	movie	1		272	71.0	2.5	/experiments/Knapen_AOT/AOT_stimuli/rescaled_final/1488_fw.mp4	0.0	317.39892196655273	2.491955041885376
73	301.71047043800354	pulse	1	t		71.0	2.5	/experiments/Knapen_AOT/AOT_stimuli/rescaled_final/1488_fw.mp4	0.0	317.7725851535797	
73	303.31236243247986	pulse	1	t		71.0	2.5	/experiments/Knapen_AOT/AOT_stimuli/rescaled_final/1488_fw.mp4	0.0	319.37447714805603	
73	303.82876229286194	fix_post	2		12	71.0	2.5	/experiments/Knapen_AOT/AOT_stimuli/rescaled_final/1488_fw.mp4	0.0	319.8908770084381	0.10007309913635254
74	303.9288353919983	fix_pre	0		119	72.0	2.5	/experiments/Knapen_AOT/AOT_stimuli/rescaled_final/0633_fw.mp4	0.0	319.99095010757446	1.0000238418579102
74	304.91249227523804	pulse	0	t		72.0	2.5	/experiments/Knapen_AOT/AOT_stimuli/rescaled_final/0633_fw.mp4	0.0	320.9746069908142	
74	304.9288592338562	movie	1		279	72.0	2.5	/experiments/Knapen_AOT/AOT_stimuli/rescaled_final/0633_fw.mp4	0.0	320.9909739494324	2.5087807178497314
74	306.5114209651947	pulse	1	t		72.0	2.5	/experiments/Knapen_AOT/AOT_stimuli/rescaled_final/0633_fw.mp4	0.0	322.5735356807709	
74	307.43763995170593	fix_post	2		11	72.0	2.5	/experiments/Knapen_AOT/AOT_stimuli/rescaled_final/0633_fw.mp4	0.0	323.4997546672821	0.09180784225463867
75	307.52944779396057	fix_pre	0		120	73.0	2.5	/experiments/Knapen_AOT/AOT_stimuli/rescaled_final/1762_fw.mp4	0.0	323.59156250953674	1.0083246231079102
75	308.113374710083	pulse	0	t		73.0	2.5	/experiments/Knapen_AOT/AOT_stimuli/rescaled_final/1762_fw.mp4	0.0	324.1754894256592	
75	308.5377724170685	movie	1		271	73.0	2.5	/experiments/Knapen_AOT/AOT_stimuli/rescaled_final/1762_fw.mp4	0.0	324.59988713264465	2.4920666217803955
75	309.71139001846313	pulse	1	t		73.0	2.5	/experiments/Knapen_AOT/AOT_stimuli/rescaled_final/1762_fw.mp4	0.0	325.7735047340393	
75	311.0298390388489	fix_post	2		12	73.0	2.5	/experiments/Knapen_AOT/AOT_stimuli/rescaled_final/1762_fw.mp4	0.0	327.09195375442505	0.10000753402709961
76	311.129846572876	fix_pre	0		120	74.0	2.5	/experiments/Knapen_AOT/AOT_stimuli/rescaled_final/1852_fw.mp4	0.0	327.19196128845215	1.0085573196411133
76	311.3133509159088	pulse	0	t		74.0	2.5	/experiments/Knapen_AOT/AOT_stimuli/rescaled_final/1852_fw.mp4	0.0	327.375465631485	
76	312.1384038925171	movie	1		273	74.0	2.5	/experiments/Knapen_AOT/AOT_stimuli/rescaled_final/1852_fw.mp4	0.0	328.20051860809326	2.4922709465026855
76	312.9139783382416	pulse	1	t		74.0	2.5	/experiments/Knapen_AOT/AOT_stimuli/rescaled_final/1852_fw.mp4	0.0	328.97609305381775	
76	314.51255893707275	pulse	1	t		74.0	2.5	/experiments/Knapen_AOT/AOT_stimuli/rescaled_final/1852_fw.mp4	0.0	330.5746736526489	
76	314.6306748390198	fix_post	2		12	74.0	2.5	/experiments/Knapen_AOT/AOT_stimuli/rescaled_final/1852_fw.mp4	0.0	330.69278955459595	0.0997323989868164
77	314.7304072380066	fix_pre	0		120	75.0	2.5	/experiments/Knapen_AOT/AOT_stimuli/rescaled_final/0149_fw.mp4	0.0	330.79252195358276	1.0084810256958008
77	315.7388882637024	movie	1		282	75.0	2.5	/experiments/Knapen_AOT/AOT_stimuli/rescaled_final/0149_fw.mp4	0.0	331.80100297927856	2.49202823638916
77	316.1123435497284	pulse	1	t		75.0	2.5	/experiments/Knapen_AOT/AOT_stimuli/rescaled_final/0149_fw.mp4	0.0	332.17445826530457	
77	317.713219165802	pulse	1	t		75.0	2.5	/experiments/Knapen_AOT/AOT_stimuli/rescaled_final/0149_fw.mp4	0.0	333.7753338813782	
77	318.23091650009155	fix_post	2		12	75.0	2.5	/experiments/Knapen_AOT/AOT_stimuli/rescaled_final/0149_fw.mp4	0.0	334.2930312156677	0.09999537467956543
78	318.3309118747711	fix_pre	0		118	76.0	2.5	/experiments/Knapen_AOT/AOT_stimuli/rescaled_final/1799_rv.mp4	0.0	334.3930265903473	0.9918839931488037
78	319.30647826194763	pulse	0	t		76.0	2.5	/experiments/Knapen_AOT/AOT_stimuli/rescaled_final/1799_rv.mp4	0.0	335.3685929775238	
78	319.3227958679199	movie	1		269	76.0	2.5	/experiments/Knapen_AOT/AOT_stimuli/rescaled_final/1799_rv.mp4	0.0	335.3849105834961	2.500347375869751
78	320.90683817863464	pulse	1	t		76.0	2.5	/experiments/Knapen_AOT/AOT_stimuli/rescaled_final/1799_rv.mp4	0.0	336.9689528942108	
78	321.8231432437897	fix_post	2		12	76.0	2.5	/experiments/Knapen_AOT/AOT_stimuli/rescaled_final/1799_rv.mp4	0.0	337.88525795936584	0.10000371932983398
79	321.9231469631195	fix_pre	0		120	77.0	2.5	blank	1.0	337.9852616786957	1.0001394748687744
79	322.5067973136902	pulse	0	t		77.0	2.5	blank	1.0	338.56891202926636	
79	322.9232864379883	movie	1		300	77.0	2.5	blank	1.0	338.98540115356445	2.5004193782806396
79	324.10703897476196	pulse	1	t		77.0	2.5	blank	1.0	340.16915369033813	
79	325.4237058162689	fix_post	2		12	77.0	2.5	blank	1.0	341.4858205318451	0.10001683235168457
80	325.5237226486206	fix_pre	0		120	78.0	2.5	/experiments/Knapen_AOT/AOT_stimuli/rescaled_final/2008_rv.mp4	0.0	341.5858373641968	1.0084660053253174
80	325.707323551178	pulse	0	t		78.0	2.5	/experiments/Knapen_AOT/AOT_stimuli/rescaled_final/2008_rv.mp4	0.0	341.76943826675415	
80	326.5321886539459	movie	1		277	78.0	2.5	/experiments/Knapen_AOT/AOT_stimuli/rescaled_final/2008_rv.mp4	0.0	342.5943033695221	2.492046356201172
80	327.3068587779999	pulse	1	t		78.0	2.5	/experiments/Knapen_AOT/AOT_stimuli/rescaled_final/2008_rv.mp4	0.0	343.36897349357605	
80	328.90648579597473	pulse	1	t		78.0	2.5	/experiments/Knapen_AOT/AOT_stimuli/rescaled_final/2008_rv.mp4	0.0	344.9686005115509	
80	329.0242350101471	fix_post	2		12	78.0	2.5	/experiments/Knapen_AOT/AOT_stimuli/rescaled_final/2008_rv.mp4	0.0	345.08634972572327	0.10001182556152344
81	329.1242468357086	fix_pre	0		120	79.0	2.5	/experiments/Knapen_AOT/AOT_stimuli/rescaled_final/1301_rv.mp4	0.0	345.1863615512848	1.00844407081604
81	330.13269090652466	movie	1		271	79.0	2.5	/experiments/Knapen_AOT/AOT_stimuli/rescaled_final/1301_rv.mp4	0.0	346.19480562210083	2.4920732975006104
81	330.5080289840698	pulse	1	t		79.0	2.5	/experiments/Knapen_AOT/AOT_stimuli/rescaled_final/1301_rv.mp4	0.0	346.570143699646	
81	332.1084232330322	pulse	1	t		79.0	2.5	/experiments/Knapen_AOT/AOT_stimuli/rescaled_final/1301_rv.mp4	0.0	348.1705379486084	
81	332.62476420402527	fix_post	2		12	79.0	2.5	/experiments/Knapen_AOT/AOT_stimuli/rescaled_final/1301_rv.mp4	0.0	348.68687891960144	0.10006213188171387
82	332.724826335907	fix_pre	0		119	80.0	2.5	/experiments/Knapen_AOT/AOT_stimuli/rescaled_final/1734_rv.mp4	0.0	348.78694105148315	1.0084331035614014
82	333.70845890045166	pulse	0	t		80.0	2.5	/experiments/Knapen_AOT/AOT_stimuli/rescaled_final/1734_rv.mp4	0.0	349.77057361602783	
82	333.7332594394684	movie	1		268	80.0	2.5	/experiments/Knapen_AOT/AOT_stimuli/rescaled_final/1734_rv.mp4	0.0	349.79537415504456	2.4920601844787598
82	335.30725169181824	pulse	1	t		80.0	2.5	/experiments/Knapen_AOT/AOT_stimuli/rescaled_final/1734_rv.mp4	0.0	351.3693664073944	
82	336.22531962394714	fix_post	2		12	80.0	2.5	/experiments/Knapen_AOT/AOT_stimuli/rescaled_final/1734_rv.mp4	0.0	352.2874343395233	0.09999871253967285
83	336.3253183364868	fix_pre	0		120	81.0	2.5	/experiments/Knapen_AOT/AOT_stimuli/rescaled_final/2007_fw.mp4	0.0	352.387433052063	1.0085489749908447
83	336.90896105766296	pulse	0	t		81.0	2.5	/experiments/Knapen_AOT/AOT_stimuli/rescaled_final/2007_fw.mp4	0.0	352.97107577323914	
83	337.33386731147766	movie	1		277	81.0	2.5	/experiments/Knapen_AOT/AOT_stimuli/rescaled_final/2007_fw.mp4	0.0	353.39598202705383	2.491957187652588
83	338.50714206695557	pulse	1	t		81.0	2.5	/experiments/Knapen_AOT/AOT_stimuli/rescaled_final/2007_fw.mp4	0.0	354.56925678253174	
83	339.82582449913025	fix_post	2		12	81.0	2.5	/experiments/Knapen_AOT/AOT_stimuli/rescaled_final/2007_fw.mp4	0.0	355.8879392147064	0.1000363826751709
84	339.9258608818054	fix_pre	0		120	82.0	2.5	blank	1.0	355.9879755973816	1.0001671314239502
84	340.10940408706665	pulse	0	t		82.0	2.5	blank	1.0	356.1715188026428	
84	340.92602801322937	movie	1		300	82.0	2.5	blank	1.0	356.98814272880554	2.500347375869751
84	341.7097918987274	pulse	1	t		82.0	2.5	blank	1.0	357.7719066143036	
84	343.3099160194397	pulse	1	t		82.0	2.5	blank	1.0	359.37203073501587	
84	343.4263753890991	fix_post	2		12	82.0	2.5	blank	1.0	359.4884901046753	0.10001683235168457
85	343.5263922214508	fix_pre	0		120	83.0	2.5	/experiments/Knapen_AOT/AOT_stimuli/rescaled_final/0827_rv.mp4	0.0	359.588506937027	1.0085201263427734
85	344.5349123477936	movie	1		274	83.0	2.5	/experiments/Knapen_AOT/AOT_stimuli/rescaled_final/0827_rv.mp4	0.0	360.59702706336975	2.4920125007629395
85	344.9087669849396	pulse	1	t		83.0	2.5	/experiments/Knapen_AOT/AOT_stimuli/rescaled_final/0827_rv.mp4	0.0	360.97088170051575	
85	346.5082185268402	pulse	1	t		83.0	2.5	/experiments/Knapen_AOT/AOT_stimuli/rescaled_final/0827_rv.mp4	0.0	362.5703332424164	
85	347.0269248485565	fix_post	2		12	83.0	2.5	/experiments/Knapen_AOT/AOT_stimuli/rescaled_final/0827_rv.mp4	0.0	363.0890395641327	0.10000419616699219
87	347.1269290447235	stim	0		1716					363.1890437602997	14.302163362503052
87	348.1106848716736	pulse	0	t						364.17279958724976	
87	349.71088099479675	pulse	0	t						365.7729957103729	
87	351.31119656562805	pulse	0	t						367.3733112812042	
87	352.91136360168457	pulse	0	t						368.97347831726074	
87	354.51158356666565	pulse	0	t						370.5736982822418	
87	356.1117935180664	pulse	0	t						372.1739082336426	
87	357.7121322154999	pulse	0	t						373.77424693107605	
87	359.31224846839905	pulse	0	t						375.3743631839752	
87	360.91265082359314	pulse	0	t						376.9747655391693	
