trial_nr	onset	event_type	phase	response	nr_frames	movie_index	movie_duration	movie_file	blank	onset_abs	duration
0	0.14999890327453613	stim	0		332					38.37033700942993	2.7665040493011475
0	2.908275842666626	response	0	space						41.12861394882202	
1	2.9165029525756836	stim	0		4372					41.13684105873108	36.4332058429718
1	39.345072984695435	pulse	0	t						77.56541109085083	
1	39.349708795547485	stim	1		1717					77.57004690170288	14.308295011520386
1	40.94145083427429	pulse	1	t						79.16178894042969	
1	42.54150199890137	pulse	1	t						80.76184010505676	
1	44.1414589881897	pulse	1	t						82.36179709434509	
1	45.74154090881348	pulse	1	t						83.96187901496887	
1	47.34141492843628	pulse	1	t						85.56175303459167	
1	48.94152092933655	pulse	1	t						87.16185903549194	
1	50.54106783866882	pulse	1	t						88.76140594482422	
1	52.14112997055054	pulse	1	t						90.36146807670593	
2	53.65800380706787	fix_pre	0		11	0.0	2.5	/experiments/aot/S_yt-2pRKCSgdXXU_30.mp4	0.0	91.87834191322327	0.0920250415802002
2	53.741798877716064	pulse	0	t		0.0	2.5	/experiments/aot/S_yt-2pRKCSgdXXU_30.mp4	0.0	91.96213698387146	
2	53.75002884864807	movie	1		299	0.0	2.5	/experiments/aot/S_yt-2pRKCSgdXXU_30.mp4	0.0	91.97036695480347	2.5079989433288574
2	55.34149694442749	pulse	1	t		0.0	2.5	/experiments/aot/S_yt-2pRKCSgdXXU_30.mp4	0.0	93.56183505058289	
2	56.25802779197693	fix_post	2		12	0.0	2.5	/experiments/aot/S_yt-2pRKCSgdXXU_30.mp4	0.0	94.47836589813232	0.09995913505554199
3	56.35798692703247	fix_pre	0		120	1.0	2.5	/experiments/aot/R_S_pexels-roman-odintsov-8232443.mp4	0.0	94.57832503318787	1.0000998973846436
3	56.941476821899414	pulse	0	t		1.0	2.5	/experiments/aot/R_S_pexels-roman-odintsov-8232443.mp4	0.0	95.16181492805481	
3	57.358086824417114	movie	1		167	1.0	2.5	/experiments/aot/R_S_pexels-roman-odintsov-8232443.mp4	0.0	95.57842493057251	2.499772071838379
3	58.54152297973633	pulse	1	t		1.0	2.5	/experiments/aot/R_S_pexels-roman-odintsov-8232443.mp4	0.0	96.76186108589172	
3	59.85785889625549	fix_post	2		12	1.0	2.5	/experiments/aot/R_S_pexels-roman-odintsov-8232443.mp4	0.0	98.07819700241089	0.10005688667297363
4	59.95791578292847	fix_pre	0		120	2.0	2.5	/experiments/aot/R_S_ILSVRC2015_test_00012005.mp4	0.0	98.17825388908386	1.000068187713623
4	60.1414008140564	pulse	0	t		2.0	2.5	/experiments/aot/R_S_ILSVRC2015_test_00012005.mp4	0.0	98.36173892021179	
4	60.95798397064209	movie	1		300	2.0	2.5	/experiments/aot/R_S_ILSVRC2015_test_00012005.mp4	0.0	99.17832207679749	2.4999489784240723
4	61.74139094352722	pulse	1	t		2.0	2.5	/experiments/aot/R_S_ILSVRC2015_test_00012005.mp4	0.0	99.96172904968262	
4	63.34099292755127	pulse	1	t		2.0	2.5	/experiments/aot/R_S_ILSVRC2015_test_00012005.mp4	0.0	101.56133103370667	
4	63.45793294906616	fix_post	2		12	2.0	2.5	/experiments/aot/R_S_ILSVRC2015_test_00012005.mp4	0.0	101.67827105522156	0.09991192817687988
5	63.55784487724304	fix_pre	0		120	3.0	2.5	/experiments/aot/S_comp_A103_C002_0205DG_v12_SDR_FINAL_20180706_SDR_2K_AVC.mp4	0.0	101.77818298339844	1.000093936920166
5	64.55793881416321	movie	1		162	3.0	2.5	/experiments/aot/S_comp_A103_C002_0205DG_v12_SDR_FINAL_20180706_SDR_2K_AVC.mp4	0.0	102.7782769203186	2.4999451637268066
5	64.94135785102844	pulse	1	t		3.0	2.5	/experiments/aot/S_comp_A103_C002_0205DG_v12_SDR_FINAL_20180706_SDR_2K_AVC.mp4	0.0	103.16169595718384	
5	66.5412847995758	pulse	1	t		3.0	2.5	/experiments/aot/S_comp_A103_C002_0205DG_v12_SDR_FINAL_20180706_SDR_2K_AVC.mp4	0.0	104.7616229057312	
5	67.05788397789001	fix_post	2		12	3.0	2.5	/experiments/aot/S_comp_A103_C002_0205DG_v12_SDR_FINAL_20180706_SDR_2K_AVC.mp4	0.0	105.27822208404541	0.10006499290466309
6	67.15794897079468	fix_pre	0		119	4.0	2.5	/experiments/aot/S_wc-8bTJmWfuVyJ4_8.mp4	0.0	105.37828707695007	0.9915909767150879
6	68.14140892028809	pulse	0	t		4.0	2.5	/experiments/aot/S_wc-8bTJmWfuVyJ4_8.mp4	0.0	106.36174702644348	
6	68.14953994750977	movie	1		163	4.0	2.5	/experiments/aot/S_wc-8bTJmWfuVyJ4_8.mp4	0.0	106.36987805366516	2.508366823196411
6	69.7417459487915	pulse	1	t		4.0	2.5	/experiments/aot/S_wc-8bTJmWfuVyJ4_8.mp4	0.0	107.9620840549469	
6	70.65790677070618	fix_post	2		12	4.0	2.5	/experiments/aot/S_wc-8bTJmWfuVyJ4_8.mp4	0.0	108.87824487686157	0.09997701644897461
7	70.75788378715515	fix_pre	0		120	5.0	2.5	blank	1.0	108.97822189331055	0.9999980926513672
7	71.34141397476196	pulse	0	t		5.0	2.5	blank	1.0	109.56175208091736	
7	71.75788187980652	movie	1		300	5.0	2.5	blank	1.0	109.97821998596191	2.4999969005584717
7	72.94140291213989	pulse	1	t		5.0	2.5	blank	1.0	111.16174101829529	
7	74.25787878036499	fix_post	2		12	5.0	2.5	blank	1.0	112.47821688652039	0.09999608993530273
8	74.3578748703003	fix_pre	0		120	6.0	2.5	/experiments/aot/S_yt-kkbtZP78JxQ_96.mp4	0.0	112.57821297645569	0.9999909400939941
8	74.54129481315613	pulse	0	t		6.0	2.5	/experiments/aot/S_yt-kkbtZP78JxQ_96.mp4	0.0	112.76163291931152	
8	75.35786581039429	movie	1		300	6.0	2.5	/experiments/aot/S_yt-kkbtZP78JxQ_96.mp4	0.0	113.57820391654968	2.500025987625122
8	76.14138984680176	pulse	1	t		6.0	2.5	/experiments/aot/S_yt-kkbtZP78JxQ_96.mp4	0.0	114.36172795295715	
8	77.74091076850891	pulse	1	t		6.0	2.5	/experiments/aot/S_yt-kkbtZP78JxQ_96.mp4	0.0	115.9612488746643	
8	77.85789179801941	fix_post	2		12	6.0	2.5	/experiments/aot/S_yt-kkbtZP78JxQ_96.mp4	0.0	116.0782299041748	0.09999299049377441
9	77.95788478851318	fix_pre	0		120	7.0	2.5	/experiments/aot/R_S_yt-yPl8LcgSMjo_32.mp4	0.0	116.17822289466858	0.9999911785125732
9	78.95787596702576	movie	1		300	7.0	2.5	/experiments/aot/R_S_yt-yPl8LcgSMjo_32.mp4	0.0	117.17821407318115	2.500131845474243
9	79.34129095077515	pulse	1	t		7.0	2.5	/experiments/aot/R_S_yt-yPl8LcgSMjo_32.mp4	0.0	117.56162905693054	
9	80.94136881828308	pulse	1	t		7.0	2.5	/experiments/aot/R_S_yt-yPl8LcgSMjo_32.mp4	0.0	119.16170692443848	
9	81.4580078125	fix_post	2		12	7.0	2.5	/experiments/aot/R_S_yt-yPl8LcgSMjo_32.mp4	0.0	119.6783459186554	0.09982800483703613
10	81.55783581733704	fix_pre	0		119	8.0	2.5	/experiments/aot/S_ILSVRC2015_train_00595000.mp4	0.0	119.77817392349243	0.9917380809783936
10	82.54135584831238	pulse	0	t		8.0	2.5	/experiments/aot/S_ILSVRC2015_train_00595000.mp4	0.0	120.76169395446777	
10	82.54957389831543	movie	1		301	8.0	2.5	/experiments/aot/S_ILSVRC2015_train_00595000.mp4	0.0	120.76991200447083	2.5082290172576904
10	84.14131999015808	pulse	1	t		8.0	2.5	/experiments/aot/S_ILSVRC2015_train_00595000.mp4	0.0	122.36165809631348	
10	85.05780291557312	fix_post	2		12	8.0	2.5	/experiments/aot/S_ILSVRC2015_train_00595000.mp4	0.0	123.27814102172852	0.10002303123474121
11	85.15782594680786	fix_pre	0		120	9.0	2.5	/experiments/aot/R_S_yt-GfPep7IhZIU_47.mp4	0.0	123.37816405296326	1.0000169277191162
11	85.74133491516113	pulse	0	t		9.0	2.5	/experiments/aot/R_S_yt-GfPep7IhZIU_47.mp4	0.0	123.96167302131653	
11	86.15784287452698	movie	1		299	9.0	2.5	/experiments/aot/R_S_yt-GfPep7IhZIU_47.mp4	0.0	124.37818098068237	2.500020980834961
11	87.3413028717041	pulse	1	t		9.0	2.5	/experiments/aot/R_S_yt-GfPep7IhZIU_47.mp4	0.0	125.5616409778595	
11	88.65786385536194	fix_post	2		12	9.0	2.5	/experiments/aot/R_S_yt-GfPep7IhZIU_47.mp4	0.0	126.87820196151733	0.09993314743041992
12	88.75779700279236	fix_pre	0		120	10.0	2.5	/experiments/aot/R_S_SPNvf6JCjGw_123.mp4	0.0	126.97813510894775	1.0000698566436768
12	88.94133377075195	pulse	0	t		10.0	2.5	/experiments/aot/R_S_SPNvf6JCjGw_123.mp4	0.0	127.16167187690735	
12	89.75786685943604	movie	1		300	10.0	2.5	/experiments/aot/R_S_SPNvf6JCjGw_123.mp4	0.0	127.97820496559143	2.4999260902404785
12	90.54130697250366	pulse	1	t		10.0	2.5	/experiments/aot/R_S_SPNvf6JCjGw_123.mp4	0.0	128.76164507865906	
12	92.14126777648926	pulse	1	t		10.0	2.5	/experiments/aot/R_S_SPNvf6JCjGw_123.mp4	0.0	130.36160588264465	
12	92.25779294967651	fix_post	2		12	10.0	2.5	/experiments/aot/R_S_SPNvf6JCjGw_123.mp4	0.0	130.4781310558319	0.10001587867736816
13	92.35780882835388	fix_pre	0		120	11.0	2.5	/experiments/aot/R_S_yt-mHLTJkMrkZI_143.mp4	0.0	130.57814693450928	0.999993085861206
13	93.35780191421509	movie	1		299	11.0	2.5	/experiments/aot/R_S_yt-mHLTJkMrkZI_143.mp4	0.0	131.57814002037048	2.4999420642852783
13	93.74122881889343	pulse	1	t		11.0	2.5	/experiments/aot/R_S_yt-mHLTJkMrkZI_143.mp4	0.0	131.96156692504883	
13	95.34122586250305	pulse	1	t		11.0	2.5	/experiments/aot/R_S_yt-mHLTJkMrkZI_143.mp4	0.0	133.56156396865845	
13	95.85774397850037	fix_post	2		12	11.0	2.5	/experiments/aot/R_S_yt-mHLTJkMrkZI_143.mp4	0.0	134.07808208465576	0.10005497932434082
14	95.9577989578247	fix_pre	0		119	12.0	2.5	/experiments/aot/R_S_yt-mQRzWCcKOR8_28.mp4	0.0	134.1781370639801	0.9915869235992432
14	96.94123196601868	pulse	0	t		12.0	2.5	/experiments/aot/R_S_yt-mQRzWCcKOR8_28.mp4	0.0	135.16157007217407	
14	96.94938588142395	movie	1		301	12.0	2.5	/experiments/aot/R_S_yt-mQRzWCcKOR8_28.mp4	0.0	135.16972398757935	2.5084340572357178
14	98.54121398925781	pulse	1	t		12.0	2.5	/experiments/aot/R_S_yt-mQRzWCcKOR8_28.mp4	0.0	136.7615520954132	
14	99.45781993865967	fix_post	2		12	12.0	2.5	/experiments/aot/R_S_yt-mQRzWCcKOR8_28.mp4	0.0	137.67815804481506	0.09999585151672363
15	99.55781579017639	fix_pre	0		120	13.0	2.5	blank	1.0	137.7781538963318	0.9995520114898682
15	100.14118790626526	pulse	0	t		13.0	2.5	blank	1.0	138.36152601242065	
15	100.55736780166626	movie	1		300	13.0	2.5	blank	1.0	138.77770590782166	2.500354051589966
15	101.74117684364319	pulse	1	t		13.0	2.5	blank	1.0	139.96151494979858	
15	103.05772185325623	fix_post	2		12	13.0	2.5	blank	1.0	141.27805995941162	0.10000205039978027
16	103.157723903656	fix_pre	0		120	14.0	2.5	/experiments/aot/S_yt-BG-G7m5wLZ4_94.mp4	0.0	141.3780620098114	1.0000879764556885
16	103.34128499031067	pulse	0	t		14.0	2.5	/experiments/aot/S_yt-BG-G7m5wLZ4_94.mp4	0.0	141.56162309646606	
16	104.1578118801117	movie	1		300	14.0	2.5	/experiments/aot/S_yt-BG-G7m5wLZ4_94.mp4	0.0	142.3781499862671	2.499537944793701
16	104.94127178192139	pulse	1	t		14.0	2.5	/experiments/aot/S_yt-BG-G7m5wLZ4_94.mp4	0.0	143.16160988807678	
16	106.54121398925781	pulse	1	t		14.0	2.5	/experiments/aot/S_yt-BG-G7m5wLZ4_94.mp4	0.0	144.7615520954132	
16	106.6573498249054	fix_post	2		12	14.0	2.5	/experiments/aot/S_yt-BG-G7m5wLZ4_94.mp4	0.0	144.8776879310608	0.10000801086425781
17	106.75735783576965	fix_pre	0		120	15.0	2.5	/experiments/aot/S_yt-mL3MuCfKtdY_79.mp4	0.0	144.97769594192505	1.0000131130218506
17	107.7573709487915	movie	1		299	15.0	2.5	/experiments/aot/S_yt-mL3MuCfKtdY_79.mp4	0.0	145.9777090549469	2.5003838539123535
17	108.14088892936707	pulse	1	t		15.0	2.5	/experiments/aot/S_yt-mL3MuCfKtdY_79.mp4	0.0	146.36122703552246	
17	109.74103784561157	pulse	1	t		15.0	2.5	/experiments/aot/S_yt-mL3MuCfKtdY_79.mp4	0.0	147.96137595176697	
17	110.25775480270386	fix_post	2		12	15.0	2.5	/experiments/aot/S_yt-mL3MuCfKtdY_79.mp4	0.0	148.47809290885925	0.1000220775604248
18	110.35777688026428	fix_pre	0		119	16.0	2.5	/experiments/aot/R_S_yt-R0gFQo85cAE_5.mp4	0.0	148.57811498641968	0.9917149543762207
18	111.34119391441345	pulse	0	t		16.0	2.5	/experiments/aot/R_S_yt-R0gFQo85cAE_5.mp4	0.0	149.56153202056885	
18	111.3494918346405	movie	1		301	16.0	2.5	/experiments/aot/R_S_yt-R0gFQo85cAE_5.mp4	0.0	149.5698299407959	2.5083320140838623
18	112.94121599197388	pulse	1	t		16.0	2.5	/experiments/aot/R_S_yt-R0gFQo85cAE_5.mp4	0.0	151.16155409812927	
18	113.85782384872437	fix_post	2		12	16.0	2.5	/experiments/aot/R_S_yt-R0gFQo85cAE_5.mp4	0.0	152.07816195487976	0.09985208511352539
19	113.95767593383789	fix_pre	0		120	17.0	2.5	/experiments/aot/S_yt-x7TqP8l4lCA_39.mp4	0.0	152.1780140399933	0.999985933303833
19	114.54111289978027	pulse	0	t		17.0	2.5	/experiments/aot/S_yt-x7TqP8l4lCA_39.mp4	0.0	152.76145100593567	
19	114.95766186714172	movie	1		299	17.0	2.5	/experiments/aot/S_yt-x7TqP8l4lCA_39.mp4	0.0	153.17799997329712	2.5000290870666504
19	116.14110589027405	pulse	1	t		17.0	2.5	/experiments/aot/S_yt-x7TqP8l4lCA_39.mp4	0.0	154.36144399642944	
19	117.45769095420837	fix_post	2		12	17.0	2.5	/experiments/aot/S_yt-x7TqP8l4lCA_39.mp4	0.0	155.67802906036377	0.1000669002532959
20	117.55775785446167	fix_pre	0		120	18.0	2.5	/experiments/aot/R_S_yt-n1snPiGfg0A_45.mp4	0.0	155.77809596061707	0.9998891353607178
20	117.74111199378967	pulse	0	t		18.0	2.5	/experiments/aot/R_S_yt-n1snPiGfg0A_45.mp4	0.0	155.96145009994507	
20	118.55764698982239	movie	1		300	18.0	2.5	/experiments/aot/R_S_yt-n1snPiGfg0A_45.mp4	0.0	156.77798509597778	2.4999759197235107
20	119.34110689163208	pulse	1	t		18.0	2.5	/experiments/aot/R_S_yt-n1snPiGfg0A_45.mp4	0.0	157.56144499778748	
20	120.94117188453674	pulse	1	t		18.0	2.5	/experiments/aot/R_S_yt-n1snPiGfg0A_45.mp4	0.0	159.16150999069214	
20	121.0576229095459	fix_post	2		12	18.0	2.5	/experiments/aot/R_S_yt-n1snPiGfg0A_45.mp4	0.0	159.2779610157013	0.10001707077026367
21	121.15763998031616	fix_pre	0		120	19.0	2.5	blank	1.0	159.37797808647156	1.0000269412994385
21	122.1576669216156	movie	1		300	19.0	2.5	blank	1.0	160.378005027771	2.500030040740967
21	122.54111099243164	pulse	1	t		19.0	2.5	blank	1.0	160.76144909858704	
21	124.14115476608276	pulse	1	t		19.0	2.5	blank	1.0	162.36149287223816	
21	124.65769696235657	fix_post	2		12	19.0	2.5	blank	1.0	162.87803506851196	0.09995794296264648
22	124.75765490531921	fix_pre	0		119	20.0	2.5	/experiments/aot/S_yt-tOOaOzYvtKE_79.mp4	0.0	162.9779930114746	0.9916460514068604
22	125.7412919998169	pulse	0	t		20.0	2.5	/experiments/aot/S_yt-tOOaOzYvtKE_79.mp4	0.0	163.9616301059723	
22	125.74930095672607	movie	1		301	20.0	2.5	/experiments/aot/S_yt-tOOaOzYvtKE_79.mp4	0.0	163.96963906288147	2.5083959102630615
22	127.34115099906921	pulse	1	t		20.0	2.5	/experiments/aot/S_yt-tOOaOzYvtKE_79.mp4	0.0	165.5614891052246	
22	128.25769686698914	fix_post	2		12	20.0	2.5	/experiments/aot/S_yt-tOOaOzYvtKE_79.mp4	0.0	166.47803497314453	0.1002509593963623
23	128.3579478263855	fix_pre	0		120	21.0	2.5	/experiments/aot/R_S_yt-yJmHtBFyhH4_15.mp4	0.0	166.5782859325409	0.9997501373291016
23	128.9411699771881	pulse	0	t		21.0	2.5	/experiments/aot/R_S_yt-yJmHtBFyhH4_15.mp4	0.0	167.1615080833435	
23	129.3576979637146	movie	1		300	21.0	2.5	/experiments/aot/R_S_yt-yJmHtBFyhH4_15.mp4	0.0	167.57803606987	2.5000669956207275
23	130.54107999801636	pulse	1	t		21.0	2.5	/experiments/aot/R_S_yt-yJmHtBFyhH4_15.mp4	0.0	168.76141810417175	
23	131.85776495933533	fix_post	2		12	21.0	2.5	/experiments/aot/R_S_yt-yJmHtBFyhH4_15.mp4	0.0	170.07810306549072	0.09989786148071289
24	131.95766282081604	fix_pre	0		120	22.0	2.5	/experiments/aot/R_S_pexels-c-technical-6491262.mp4	0.0	170.17800092697144	1.0000159740447998
24	132.1411509513855	pulse	0	t		22.0	2.5	/experiments/aot/R_S_pexels-c-technical-6491262.mp4	0.0	170.3614890575409	
24	132.95767879486084	movie	1		166	22.0	2.5	/experiments/aot/R_S_pexels-c-technical-6491262.mp4	0.0	171.17801690101624	2.499906063079834
24	133.74116587638855	pulse	1	t		22.0	2.5	/experiments/aot/R_S_pexels-c-technical-6491262.mp4	0.0	171.96150398254395	
24	135.3410918712616	pulse	1	t		22.0	2.5	/experiments/aot/R_S_pexels-c-technical-6491262.mp4	0.0	173.561429977417	
24	135.45758485794067	fix_post	2		12	22.0	2.5	/experiments/aot/R_S_pexels-c-technical-6491262.mp4	0.0	173.67792296409607	0.09996199607849121
25	135.55754685401917	fix_pre	0		120	23.0	2.5	/experiments/aot/R_S_yt-pB9w3AA-woE_37.mp4	0.0	173.77788496017456	1.0000510215759277
25	136.5575978755951	movie	1		300	23.0	2.5	/experiments/aot/R_S_yt-pB9w3AA-woE_37.mp4	0.0	174.7779359817505	2.5000219345092773
25	136.94111490249634	pulse	1	t		23.0	2.5	/experiments/aot/R_S_yt-pB9w3AA-woE_37.mp4	0.0	175.16145300865173	
25	138.54099798202515	pulse	1	t		23.0	2.5	/experiments/aot/R_S_yt-pB9w3AA-woE_37.mp4	0.0	176.76133608818054	
25	139.05761981010437	fix_post	2		12	23.0	2.5	/experiments/aot/R_S_yt-pB9w3AA-woE_37.mp4	0.0	177.27795791625977	0.0999600887298584
26	139.15757989883423	fix_pre	0		119	24.0	2.5	/experiments/aot/S_yt-JTVyt-eu4VI_1.mp4	0.0	177.37791800498962	0.9915928840637207
26	140.1410939693451	pulse	0	t		24.0	2.5	/experiments/aot/S_yt-JTVyt-eu4VI_1.mp4	0.0	178.3614320755005	
26	140.14917278289795	movie	1		301	24.0	2.5	/experiments/aot/S_yt-JTVyt-eu4VI_1.mp4	0.0	178.36951088905334	2.5082921981811523
26	141.7410409450531	pulse	1	t		24.0	2.5	/experiments/aot/S_yt-JTVyt-eu4VI_1.mp4	0.0	179.9613790512085	
26	142.6574649810791	fix_post	2		12	24.0	2.5	/experiments/aot/S_yt-JTVyt-eu4VI_1.mp4	0.0	180.8778030872345	0.10003280639648438
27	142.7574977874756	fix_pre	0		120	25.0	2.5	/experiments/aot/S_yt-WTxvvlP8xnw_113.mp4	0.0	180.97783589363098	1.0000882148742676
27	143.34105396270752	pulse	0	t		25.0	2.5	/experiments/aot/S_yt-WTxvvlP8xnw_113.mp4	0.0	181.56139206886292	
27	143.75758600234985	movie	1		300	25.0	2.5	/experiments/aot/S_yt-WTxvvlP8xnw_113.mp4	0.0	181.97792410850525	2.500011920928955
27	144.94108486175537	pulse	1	t		25.0	2.5	/experiments/aot/S_yt-WTxvvlP8xnw_113.mp4	0.0	183.16142296791077	
27	146.2575979232788	fix_post	2		12	25.0	2.5	/experiments/aot/S_yt-WTxvvlP8xnw_113.mp4	0.0	184.4779360294342	0.09996986389160156
28	146.3575677871704	fix_pre	0		120	26.0	2.5	/experiments/aot/R_S_yt-SHTeTAnZgho_43.mp4	0.0	184.5779058933258	0.9999661445617676
28	146.54105496406555	pulse	0	t		26.0	2.5	/experiments/aot/R_S_yt-SHTeTAnZgho_43.mp4	0.0	184.76139307022095	
28	147.35753393173218	movie	1		300	26.0	2.5	/experiments/aot/R_S_yt-SHTeTAnZgho_43.mp4	0.0	185.57787203788757	2.499943971633911
28	148.1410629749298	pulse	1	t		26.0	2.5	/experiments/aot/R_S_yt-SHTeTAnZgho_43.mp4	0.0	186.3614010810852	
28	149.74096298217773	pulse	1	t		26.0	2.5	/experiments/aot/R_S_yt-SHTeTAnZgho_43.mp4	0.0	187.96130108833313	
28	149.8574779033661	fix_post	2		12	26.0	2.5	/experiments/aot/R_S_yt-SHTeTAnZgho_43.mp4	0.0	188.07781600952148	0.10003995895385742
29	149.95751786231995	fix_pre	0		120	27.0	2.5	/experiments/aot/R_S_comp_DB_D002_C003_PSNK_v04_SDR_PS_20180914_SDR_2K_AVC.mp4	0.0	188.17785596847534	0.9999310970306396
29	150.9574489593506	movie	1		162	27.0	2.5	/experiments/aot/R_S_comp_DB_D002_C003_PSNK_v04_SDR_PS_20180914_SDR_2K_AVC.mp4	0.0	189.17778706550598	2.500152826309204
29	151.34110689163208	pulse	1	t		27.0	2.5	/experiments/aot/R_S_comp_DB_D002_C003_PSNK_v04_SDR_PS_20180914_SDR_2K_AVC.mp4	0.0	189.56144499778748	
29	152.9410858154297	pulse	1	t		27.0	2.5	/experiments/aot/R_S_comp_DB_D002_C003_PSNK_v04_SDR_PS_20180914_SDR_2K_AVC.mp4	0.0	191.16142392158508	
29	153.4576017856598	fix_post	2		12	27.0	2.5	/experiments/aot/R_S_comp_DB_D002_C003_PSNK_v04_SDR_PS_20180914_SDR_2K_AVC.mp4	0.0	191.67793989181519	0.1000220775604248
30	153.55762386322021	fix_pre	0		119	28.0	2.5	blank	1.0	191.7779619693756	0.9916019439697266
30	154.54104495048523	pulse	0	t		28.0	2.5	blank	1.0	192.76138305664062	
30	154.54922580718994	movie	1		301	28.0	2.5	blank	1.0	192.76956391334534	2.508280038833618
30	156.14105486869812	pulse	1	t		28.0	2.5	blank	1.0	194.36139297485352	
30	157.05750584602356	fix_post	2		12	28.0	2.5	blank	1.0	195.27784395217896	0.09995198249816895
31	157.15745782852173	fix_pre	0		120	29.0	2.5	/experiments/aot/S_yt-mQRzWCcKOR8_28.mp4	0.0	195.37779593467712	1.0001270771026611
31	157.7410078048706	pulse	0	t		29.0	2.5	/experiments/aot/S_yt-mQRzWCcKOR8_28.mp4	0.0	195.961345911026	
31	158.1575849056244	movie	1		300	29.0	2.5	/experiments/aot/S_yt-mQRzWCcKOR8_28.mp4	0.0	196.37792301177979	2.4999520778656006
31	159.34097599983215	pulse	1	t		29.0	2.5	/experiments/aot/S_yt-mQRzWCcKOR8_28.mp4	0.0	197.56131410598755	
31	160.65753698349	fix_post	2		12	29.0	2.5	/experiments/aot/S_yt-mQRzWCcKOR8_28.mp4	0.0	198.87787508964539	0.09999489784240723
32	160.7575318813324	fix_pre	0		120	30.0	2.5	/experiments/aot/R_S_yt-mJzkLd3Mr_c_35.mp4	0.0	198.9778699874878	0.999906063079834
32	160.94097685813904	pulse	0	t		30.0	2.5	/experiments/aot/R_S_yt-mJzkLd3Mr_c_35.mp4	0.0	199.16131496429443	
32	161.75743794441223	movie	1		300	30.0	2.5	/experiments/aot/R_S_yt-mJzkLd3Mr_c_35.mp4	0.0	199.97777605056763	2.4997398853302
32	162.54105186462402	pulse	1	t		30.0	2.5	/experiments/aot/R_S_yt-mJzkLd3Mr_c_35.mp4	0.0	200.76138997077942	
32	164.14105892181396	pulse	1	t		30.0	2.5	/experiments/aot/R_S_yt-mJzkLd3Mr_c_35.mp4	0.0	202.36139702796936	
32	164.25717782974243	fix_post	2		12	30.0	2.5	/experiments/aot/R_S_yt-mJzkLd3Mr_c_35.mp4	0.0	202.47751593589783	0.10003304481506348
33	164.3572108745575	fix_pre	0		120	31.0	2.5	/experiments/aot/R_S_production_ID_4428752.mp4	0.0	202.5775489807129	1.0005691051483154
33	165.3577799797058	movie	1		162	31.0	2.5	/experiments/aot/R_S_production_ID_4428752.mp4	0.0	203.5781180858612	2.4997119903564453
33	165.74097800254822	pulse	1	t		31.0	2.5	/experiments/aot/R_S_production_ID_4428752.mp4	0.0	203.9613161087036	
33	167.34103679656982	pulse	1	t		31.0	2.5	/experiments/aot/R_S_production_ID_4428752.mp4	0.0	205.56137490272522	
33	167.85749197006226	fix_post	2		12	31.0	2.5	/experiments/aot/R_S_production_ID_4428752.mp4	0.0	206.07783007621765	0.09996294975280762
34	167.95745491981506	fix_pre	0		119	32.0	2.5	/experiments/aot/S_yt-XtzmBXKYEWk_60.mp4	0.0	206.17779302597046	0.9917149543762207
34	168.9409477710724	pulse	0	t		32.0	2.5	/experiments/aot/S_yt-XtzmBXKYEWk_60.mp4	0.0	207.16128587722778	
34	168.94916987419128	movie	1		301	32.0	2.5	/experiments/aot/S_yt-XtzmBXKYEWk_60.mp4	0.0	207.16950798034668	2.5082530975341797
34	170.54088687896729	pulse	1	t		32.0	2.5	/experiments/aot/S_yt-XtzmBXKYEWk_60.mp4	0.0	208.76122498512268	
34	171.45742297172546	fix_post	2		12	32.0	2.5	/experiments/aot/S_yt-XtzmBXKYEWk_60.mp4	0.0	209.67776107788086	0.09995198249816895
35	171.55737495422363	fix_pre	0		120	33.0	2.5	/experiments/aot/R_S_yt-AbJBxqEYoMg_105.mp4	0.0	209.77771306037903	1.0000660419464111
35	172.14087390899658	pulse	0	t		33.0	2.5	/experiments/aot/R_S_yt-AbJBxqEYoMg_105.mp4	0.0	210.36121201515198	
35	172.55744099617004	movie	1		299	33.0	2.5	/experiments/aot/R_S_yt-AbJBxqEYoMg_105.mp4	0.0	210.77777910232544	2.4999148845672607
35	173.74082589149475	pulse	1	t		33.0	2.5	/experiments/aot/R_S_yt-AbJBxqEYoMg_105.mp4	0.0	211.96116399765015	
35	175.0573558807373	fix_post	2		12	33.0	2.5	/experiments/aot/R_S_yt-AbJBxqEYoMg_105.mp4	0.0	213.2776939868927	0.10006189346313477
36	175.15741777420044	fix_pre	0		120	34.0	2.5	blank	1.0	213.37775588035583	0.9999251365661621
36	175.34090399742126	pulse	0	t		34.0	2.5	blank	1.0	213.56124210357666	
36	176.1573429107666	movie	1		300	34.0	2.5	blank	1.0	214.377681016922	2.500156879425049
36	176.9408938884735	pulse	1	t		34.0	2.5	blank	1.0	215.1612319946289	
36	178.54085493087769	pulse	1	t		34.0	2.5	blank	1.0	216.76119303703308	
36	178.65749979019165	fix_post	2		12	34.0	2.5	blank	1.0	216.87783789634705	0.09992218017578125
37	178.75742197036743	fix_pre	0		120	35.0	2.5	/experiments/aot/R_S_yt-WRBmpC-RxIc_678.mp4	0.0	216.97776007652283	1.0000128746032715
37	179.7574348449707	movie	1		299	35.0	2.5	/experiments/aot/R_S_yt-WRBmpC-RxIc_678.mp4	0.0	217.9777729511261	2.499948024749756
37	180.1409158706665	pulse	1	t		35.0	2.5	/experiments/aot/R_S_yt-WRBmpC-RxIc_678.mp4	0.0	218.3612539768219	
37	181.74085783958435	pulse	1	t		35.0	2.5	/experiments/aot/R_S_yt-WRBmpC-RxIc_678.mp4	0.0	219.96119594573975	
37	182.25738286972046	fix_post	2		12	35.0	2.5	/experiments/aot/R_S_yt-WRBmpC-RxIc_678.mp4	0.0	220.47772097587585	0.09999704360961914
38	182.35737991333008	fix_pre	0		119	36.0	2.5	/experiments/aot/R_S_ILSVRC2015_train_00743005.mp4	0.0	220.57771801948547	0.9915940761566162
38	183.34081196784973	pulse	0	t		36.0	2.5	/experiments/aot/R_S_ILSVRC2015_train_00743005.mp4	0.0	221.56115007400513	
38	183.3489739894867	movie	1		301	36.0	2.5	/experiments/aot/R_S_ILSVRC2015_train_00743005.mp4	0.0	221.5693120956421	2.5085577964782715
38	184.94085597991943	pulse	1	t		36.0	2.5	/experiments/aot/R_S_ILSVRC2015_train_00743005.mp4	0.0	223.16119408607483	
38	185.85753178596497	fix_post	2		12	36.0	2.5	/experiments/aot/R_S_ILSVRC2015_train_00743005.mp4	0.0	224.07786989212036	0.09974908828735352
39	185.95728087425232	fix_pre	0		120	37.0	2.5	/experiments/aot/S_yt-UmLeGNcqouI_718.mp4	0.0	224.17761898040771	1.0001990795135498
39	186.54085087776184	pulse	0	t		37.0	2.5	/experiments/aot/S_yt-UmLeGNcqouI_718.mp4	0.0	224.76118898391724	
39	186.95747995376587	movie	1		300	37.0	2.5	/experiments/aot/S_yt-UmLeGNcqouI_718.mp4	0.0	225.17781805992126	2.499912977218628
39	188.14083099365234	pulse	1	t		37.0	2.5	/experiments/aot/S_yt-UmLeGNcqouI_718.mp4	0.0	226.36116909980774	
39	189.4573929309845	fix_post	2		12	37.0	2.5	/experiments/aot/S_yt-UmLeGNcqouI_718.mp4	0.0	227.6777310371399	0.10001802444458008
40	189.55741095542908	fix_pre	0		120	38.0	2.5	/experiments/aot/R_S_ILSVRC2015_train_00524006.mp4	0.0	227.77774906158447	0.9999580383300781
40	189.7408058643341	pulse	0	t		38.0	2.5	/experiments/aot/R_S_ILSVRC2015_train_00524006.mp4	0.0	227.9611439704895	
40	190.55736899375916	movie	1		300	38.0	2.5	/experiments/aot/R_S_ILSVRC2015_train_00524006.mp4	0.0	228.77770709991455	2.499903917312622
40	191.34082794189453	pulse	1	t		38.0	2.5	/experiments/aot/R_S_ILSVRC2015_train_00524006.mp4	0.0	229.56116604804993	
40	192.94080686569214	pulse	1	t		38.0	2.5	/experiments/aot/R_S_ILSVRC2015_train_00524006.mp4	0.0	231.16114497184753	
40	193.05727291107178	fix_post	2		12	38.0	2.5	/experiments/aot/R_S_ILSVRC2015_train_00524006.mp4	0.0	231.27761101722717	0.10006308555603027
41	193.1573359966278	fix_pre	0		120	39.0	2.5	/experiments/aot/R_S_yt-pOCEuqVE7ro_61.mp4	0.0	231.3776741027832	0.9999439716339111
41	194.15727996826172	movie	1		299	39.0	2.5	/experiments/aot/R_S_yt-pOCEuqVE7ro_61.mp4	0.0	232.37761807441711	2.5000698566436768
41	194.5408627986908	pulse	1	t		39.0	2.5	/experiments/aot/R_S_yt-pOCEuqVE7ro_61.mp4	0.0	232.7612009048462	
41	196.14081978797913	pulse	1	t		39.0	2.5	/experiments/aot/R_S_yt-pOCEuqVE7ro_61.mp4	0.0	234.36115789413452	
41	196.6573498249054	fix_post	2		12	39.0	2.5	/experiments/aot/R_S_yt-pOCEuqVE7ro_61.mp4	0.0	234.8776879310608	0.1000220775604248
42	196.75737190246582	fix_pre	0		119	40.0	2.5	/experiments/aot/S_pexels-c-technical-6491262.mp4	0.0	234.97771000862122	0.991563081741333
42	197.740877866745	pulse	0	t		40.0	2.5	/experiments/aot/S_pexels-c-technical-6491262.mp4	0.0	235.9612159729004	
42	197.74893498420715	movie	1		163	40.0	2.5	/experiments/aot/S_pexels-c-technical-6491262.mp4	0.0	235.96927309036255	2.5084099769592285
42	199.3409149646759	pulse	1	t		40.0	2.5	/experiments/aot/S_pexels-c-technical-6491262.mp4	0.0	237.5612530708313	
42	200.25734496116638	fix_post	2		12	40.0	2.5	/experiments/aot/S_pexels-c-technical-6491262.mp4	0.0	238.47768306732178	0.09987282752990723
43	200.3572177886963	fix_pre	0		120	41.0	2.5	blank	1.0	238.57755589485168	1.0000331401824951
43	200.94074988365173	pulse	0	t		41.0	2.5	blank	1.0	239.16108798980713	
43	201.35725092887878	movie	1		300	41.0	2.5	blank	1.0	239.57758903503418	2.5000109672546387
43	202.5407588481903	pulse	1	t		41.0	2.5	blank	1.0	240.7610969543457	
43	203.85726189613342	fix_post	2		12	41.0	2.5	blank	1.0	242.07760000228882	0.09999799728393555
44	203.95725989341736	fix_pre	0		120	42.0	2.5	/experiments/aot/R_S_wc-1MzpHfRq1MUK_32.mp4	0.0	242.17759799957275	0.9999420642852783
44	204.14083194732666	pulse	0	t		42.0	2.5	/experiments/aot/R_S_wc-1MzpHfRq1MUK_32.mp4	0.0	242.36117005348206	
44	204.95720195770264	movie	1		300	42.0	2.5	/experiments/aot/R_S_wc-1MzpHfRq1MUK_32.mp4	0.0	243.17754006385803	2.5000979900360107
44	205.74083399772644	pulse	1	t		42.0	2.5	/experiments/aot/R_S_wc-1MzpHfRq1MUK_32.mp4	0.0	243.96117210388184	
44	207.3412458896637	pulse	1	t		42.0	2.5	/experiments/aot/R_S_wc-1MzpHfRq1MUK_32.mp4	0.0	245.5615839958191	
44	207.45729994773865	fix_post	2		12	42.0	2.5	/experiments/aot/R_S_wc-1MzpHfRq1MUK_32.mp4	0.0	245.67763805389404	0.10001087188720703
45	207.55731081962585	fix_pre	0		120	43.0	2.5	/experiments/aot/S_pexels-roman-odintsov-8232443.mp4	0.0	245.77764892578125	0.99989914894104
45	208.5572099685669	movie	1		162	43.0	2.5	/experiments/aot/S_pexels-roman-odintsov-8232443.mp4	0.0	246.7775480747223	2.5000669956207275
45	208.9407777786255	pulse	1	t		43.0	2.5	/experiments/aot/S_pexels-roman-odintsov-8232443.mp4	0.0	247.16111588478088	
45	210.54086899757385	pulse	1	t		43.0	2.5	/experiments/aot/S_pexels-roman-odintsov-8232443.mp4	0.0	248.76120710372925	
45	211.05727696418762	fix_post	2		12	43.0	2.5	/experiments/aot/S_pexels-roman-odintsov-8232443.mp4	0.0	249.27761507034302	0.09987282752990723
46	211.15714979171753	fix_pre	0		119	44.0	2.5	/experiments/aot/S_yt-roThCERxVCs_133.mp4	0.0	249.37748789787292	0.9917922019958496
46	212.14101576805115	pulse	0	t		44.0	2.5	/experiments/aot/S_yt-roThCERxVCs_133.mp4	0.0	250.36135387420654	
46	212.14894199371338	movie	1		301	44.0	2.5	/experiments/aot/S_yt-roThCERxVCs_133.mp4	0.0	250.36928009986877	2.508246898651123
46	213.7406599521637	pulse	1	t		44.0	2.5	/experiments/aot/S_yt-roThCERxVCs_133.mp4	0.0	251.9609980583191	
46	214.6571888923645	fix_post	2		12	44.0	2.5	/experiments/aot/S_yt-roThCERxVCs_133.mp4	0.0	252.8775269985199	0.10004401206970215
47	214.7572329044342	fix_pre	0		120	45.0	2.5	/experiments/aot/S_BO_A018_C029_SDR_20190812_SDR_2K_AVC.mp4	0.0	252.9775710105896	0.9999079704284668
47	215.34068393707275	pulse	0	t		45.0	2.5	/experiments/aot/S_BO_A018_C029_SDR_20190812_SDR_2K_AVC.mp4	0.0	253.56102204322815	
47	215.75714087486267	movie	1		163	45.0	2.5	/experiments/aot/S_BO_A018_C029_SDR_20190812_SDR_2K_AVC.mp4	0.0	253.97747898101807	2.4996249675750732
47	216.94069695472717	pulse	1	t		45.0	2.5	/experiments/aot/S_BO_A018_C029_SDR_20190812_SDR_2K_AVC.mp4	0.0	255.16103506088257	
47	218.25676584243774	fix_post	2		12	45.0	2.5	/experiments/aot/S_BO_A018_C029_SDR_20190812_SDR_2K_AVC.mp4	0.0	256.47710394859314	0.1000051498413086
48	218.35677099227905	fix_pre	0		120	46.0	2.5	/experiments/aot/S_yt-QFGyhhr1KSQ_9.mp4	0.0	256.57710909843445	1.0000689029693604
48	218.5402410030365	pulse	0	t		46.0	2.5	/experiments/aot/S_yt-QFGyhhr1KSQ_9.mp4	0.0	256.7605791091919	
48	219.3568398952484	movie	1		299	46.0	2.5	/experiments/aot/S_yt-QFGyhhr1KSQ_9.mp4	0.0	257.5771780014038	2.5004119873046875
48	220.14087677001953	pulse	1	t		46.0	2.5	/experiments/aot/S_yt-QFGyhhr1KSQ_9.mp4	0.0	258.3612148761749	
48	221.7411069869995	pulse	1	t		46.0	2.5	/experiments/aot/S_yt-QFGyhhr1KSQ_9.mp4	0.0	259.9614450931549	
48	221.8572518825531	fix_post	2		12	46.0	2.5	/experiments/aot/S_yt-QFGyhhr1KSQ_9.mp4	0.0	260.0775899887085	0.09993696212768555
49	221.9571888446808	fix_pre	0		120	47.0	2.5	/experiments/aot/S_BO_A018_C029_SDR_20190812_SDR_2K_AVC.mp4	0.0	260.1775269508362	1.0000419616699219
49	222.9572308063507	movie	1		160	47.0	2.5	/experiments/aot/S_BO_A018_C029_SDR_20190812_SDR_2K_AVC.mp4	0.0	261.1775689125061	2.499911069869995
49	223.34069395065308	pulse	1	t		47.0	2.5	/experiments/aot/S_BO_A018_C029_SDR_20190812_SDR_2K_AVC.mp4	0.0	261.5610320568085	
49	224.94062995910645	pulse	1	t		47.0	2.5	/experiments/aot/S_BO_A018_C029_SDR_20190812_SDR_2K_AVC.mp4	0.0	263.16096806526184	
49	225.4571418762207	fix_post	2		12	47.0	2.5	/experiments/aot/S_BO_A018_C029_SDR_20190812_SDR_2K_AVC.mp4	0.0	263.6774799823761	0.10000491142272949
50	225.55714678764343	fix_pre	0		119	48.0	2.5	/experiments/aot/R_S_yt-ni4JaYu7PhU_6.mp4	0.0	263.7774848937988	0.9918131828308105
50	226.54057383537292	pulse	0	t		48.0	2.5	/experiments/aot/R_S_yt-ni4JaYu7PhU_6.mp4	0.0	264.7609119415283	
50	226.54895997047424	movie	1		301	48.0	2.5	/experiments/aot/R_S_yt-ni4JaYu7PhU_6.mp4	0.0	264.76929807662964	2.508208990097046
50	228.14067482948303	pulse	1	t		48.0	2.5	/experiments/aot/R_S_yt-ni4JaYu7PhU_6.mp4	0.0	266.3610129356384	
50	229.0571689605713	fix_post	2		12	48.0	2.5	/experiments/aot/R_S_yt-ni4JaYu7PhU_6.mp4	0.0	267.2775070667267	0.09996891021728516
51	229.15713787078857	fix_pre	0		120	49.0	2.5	blank	1.0	267.37747597694397	1.0000629425048828
51	229.74055194854736	pulse	0	t		49.0	2.5	blank	1.0	267.96089005470276	
51	230.15720081329346	movie	1		300	49.0	2.5	blank	1.0	268.37753891944885	2.499927043914795
51	231.34059596061707	pulse	1	t		49.0	2.5	blank	1.0	269.56093406677246	
51	232.65712785720825	fix_post	2		12	49.0	2.5	blank	1.0	270.87746596336365	0.10002899169921875
52	232.75715684890747	fix_pre	0		120	50.0	2.5	/experiments/aot/R_S_ILSVRC2015_train_00414000.mp4	0.0	270.97749495506287	0.9999589920043945
52	232.94064092636108	pulse	0	t		50.0	2.5	/experiments/aot/R_S_ILSVRC2015_train_00414000.mp4	0.0	271.1609790325165	
52	233.75711584091187	movie	1		299	50.0	2.5	/experiments/aot/R_S_ILSVRC2015_train_00414000.mp4	0.0	271.97745394706726	2.49997615814209
52	234.5406138896942	pulse	1	t		50.0	2.5	/experiments/aot/R_S_ILSVRC2015_train_00414000.mp4	0.0	272.7609519958496	
52	236.14052391052246	pulse	1	t		50.0	2.5	/experiments/aot/R_S_ILSVRC2015_train_00414000.mp4	0.0	274.36086201667786	
52	236.25709199905396	fix_post	2		12	50.0	2.5	/experiments/aot/R_S_ILSVRC2015_train_00414000.mp4	0.0	274.47743010520935	0.10002684593200684
53	236.35711884498596	fix_pre	0		120	51.0	2.5	/experiments/aot/R_S_yt-tQ-hgwTcMqU_43.mp4	0.0	274.57745695114136	1.0000109672546387
53	237.3571298122406	movie	1		299	51.0	2.5	/experiments/aot/R_S_yt-tQ-hgwTcMqU_43.mp4	0.0	275.577467918396	2.500019073486328
53	237.7405560016632	pulse	1	t		51.0	2.5	/experiments/aot/R_S_yt-tQ-hgwTcMqU_43.mp4	0.0	275.9608941078186	
53	239.34076380729675	pulse	1	t		51.0	2.5	/experiments/aot/R_S_yt-tQ-hgwTcMqU_43.mp4	0.0	277.56110191345215	
53	239.85714888572693	fix_post	2		12	51.0	2.5	/experiments/aot/R_S_yt-tQ-hgwTcMqU_43.mp4	0.0	278.0774869918823	0.09992194175720215
54	239.95707082748413	fix_pre	0		119	52.0	2.5	/experiments/aot/S_yt-n1snPiGfg0A_45.mp4	0.0	278.1774089336395	0.9917070865631104
54	240.94049382209778	pulse	0	t		52.0	2.5	/experiments/aot/S_yt-n1snPiGfg0A_45.mp4	0.0	279.1608319282532	
54	240.94877791404724	movie	1		301	52.0	2.5	/experiments/aot/S_yt-n1snPiGfg0A_45.mp4	0.0	279.16911602020264	2.5082528591156006
54	242.540531873703	pulse	1	t		52.0	2.5	/experiments/aot/S_yt-n1snPiGfg0A_45.mp4	0.0	280.7608699798584	
54	243.45703077316284	fix_post	2		12	52.0	2.5	/experiments/aot/S_yt-n1snPiGfg0A_45.mp4	0.0	281.67736887931824	0.10001420974731445
55	243.55704498291016	fix_pre	0		120	53.0	2.5	/experiments/aot/S_yt-w_e3sxIzepA_115.mp4	0.0	281.77738308906555	1.0000829696655273
55	244.1405508518219	pulse	0	t		53.0	2.5	/experiments/aot/S_yt-w_e3sxIzepA_115.mp4	0.0	282.3608889579773	
55	244.55712795257568	movie	1		299	53.0	2.5	/experiments/aot/S_yt-w_e3sxIzepA_115.mp4	0.0	282.7774660587311	2.499980926513672
55	245.74055981636047	pulse	1	t		53.0	2.5	/experiments/aot/S_yt-w_e3sxIzepA_115.mp4	0.0	283.96089792251587	
55	247.05710887908936	fix_post	2		12	53.0	2.5	/experiments/aot/S_yt-w_e3sxIzepA_115.mp4	0.0	285.27744698524475	0.10001111030578613
56	247.15711998939514	fix_pre	0		120	54.0	2.5	/experiments/aot/S_yt-qazCIJqjxUU_3.mp4	0.0	285.37745809555054	0.9998979568481445
56	247.340500831604	pulse	0	t		54.0	2.5	/experiments/aot/S_yt-qazCIJqjxUU_3.mp4	0.0	285.5608389377594	
56	248.1570179462433	movie	1		300	54.0	2.5	/experiments/aot/S_yt-qazCIJqjxUU_3.mp4	0.0	286.3773560523987	2.5000159740448
56	248.9406759738922	pulse	1	t		54.0	2.5	/experiments/aot/S_yt-qazCIJqjxUU_3.mp4	0.0	287.1610140800476	
56	250.540109872818	pulse	1	t		54.0	2.5	/experiments/aot/S_yt-qazCIJqjxUU_3.mp4	0.0	288.7604479789734	
56	250.6570339202881	fix_post	2		12	54.0	2.5	/experiments/aot/S_yt-qazCIJqjxUU_3.mp4	0.0	288.8773720264435	0.10003805160522461
57	250.7570719718933	fix_pre	0		120	55.0	2.5	/experiments/aot/S_yt-kKRGgUhVRzc_74.mp4	0.0	288.9774100780487	0.999971866607666
57	251.75704383850098	movie	1		300	55.0	2.5	/experiments/aot/S_yt-kKRGgUhVRzc_74.mp4	0.0	289.9773819446564	2.5000791549682617
57	252.14059376716614	pulse	1	t		55.0	2.5	/experiments/aot/S_yt-kKRGgUhVRzc_74.mp4	0.0	290.36093187332153	
57	253.74052095413208	pulse	1	t		55.0	2.5	/experiments/aot/S_yt-kKRGgUhVRzc_74.mp4	0.0	291.9608590602875	
57	254.25712299346924	fix_post	2		12	55.0	2.5	/experiments/aot/S_yt-kKRGgUhVRzc_74.mp4	0.0	292.47746109962463	0.09986495971679688
58	254.35698795318604	fix_pre	0		119	56.0	2.5	blank	1.0	292.57732605934143	0.9916439056396484
58	255.3404779434204	pulse	0	t		56.0	2.5	blank	1.0	293.5608160495758	
58	255.34863185882568	movie	1		301	56.0	2.5	blank	1.0	293.5689699649811	2.5083861351013184
58	256.94046688079834	pulse	1	t		56.0	2.5	blank	1.0	295.16080498695374	
58	257.857017993927	fix_post	2		12	56.0	2.5	blank	1.0	296.0773561000824	0.1000218391418457
59	257.95703983306885	fix_pre	0		120	57.0	2.5	/experiments/aot/R_S_ILSVRC2015_train_00559000.mp4	0.0	296.17737793922424	0.9999539852142334
59	258.5404009819031	pulse	0	t		57.0	2.5	/experiments/aot/R_S_ILSVRC2015_train_00559000.mp4	0.0	296.7607390880585	
59	258.9569938182831	movie	1		300	57.0	2.5	/experiments/aot/R_S_ILSVRC2015_train_00559000.mp4	0.0	297.1773319244385	2.4999589920043945
59	260.14042592048645	pulse	1	t		57.0	2.5	/experiments/aot/R_S_ILSVRC2015_train_00559000.mp4	0.0	298.36076402664185	
59	261.4569528102875	fix_post	2		12	57.0	2.5	/experiments/aot/R_S_ILSVRC2015_train_00559000.mp4	0.0	299.67729091644287	0.10009503364562988
60	261.5570478439331	fix_pre	0		120	58.0	2.5	/experiments/aot/R_S_yt-hDYtYKUsVE4_120.mp4	0.0	299.7773859500885	0.9999561309814453
60	261.74051880836487	pulse	0	t		58.0	2.5	/experiments/aot/R_S_yt-hDYtYKUsVE4_120.mp4	0.0	299.96085691452026	
60	262.55700397491455	movie	1		300	58.0	2.5	/experiments/aot/R_S_yt-hDYtYKUsVE4_120.mp4	0.0	300.77734208106995	2.500041961669922
60	263.34049582481384	pulse	1	t		58.0	2.5	/experiments/aot/R_S_yt-hDYtYKUsVE4_120.mp4	0.0	301.56083393096924	
60	264.94041180610657	pulse	1	t		58.0	2.5	/experiments/aot/R_S_yt-hDYtYKUsVE4_120.mp4	0.0	303.16074991226196	
60	265.0570459365845	fix_post	2		12	58.0	2.5	/experiments/aot/R_S_yt-hDYtYKUsVE4_120.mp4	0.0	303.27738404273987	0.09994888305664062
61	265.1569948196411	fix_pre	0		120	59.0	2.5	/experiments/aot/R_S_yt-R0gFQo85cAE_5.mp4	0.0	303.3773329257965	1.0000500679016113
61	266.1570448875427	movie	1		299	59.0	2.5	/experiments/aot/R_S_yt-R0gFQo85cAE_5.mp4	0.0	304.3773829936981	2.4999380111694336
61	266.54044485092163	pulse	1	t		59.0	2.5	/experiments/aot/R_S_yt-R0gFQo85cAE_5.mp4	0.0	304.760782957077	
61	268.1404609680176	pulse	1	t		59.0	2.5	/experiments/aot/R_S_yt-R0gFQo85cAE_5.mp4	0.0	306.360799074173	
61	268.65698289871216	fix_post	2		12	59.0	2.5	/experiments/aot/R_S_yt-R0gFQo85cAE_5.mp4	0.0	306.87732100486755	0.10002303123474121
62	268.7570059299469	fix_pre	0		119	60.0	2.5	/experiments/aot/S_yt-UzWRbs9Syf4_7.mp4	0.0	306.9773440361023	0.9915790557861328
62	269.74045181274414	pulse	0	t		60.0	2.5	/experiments/aot/S_yt-UzWRbs9Syf4_7.mp4	0.0	307.96078991889954	
62	269.74858498573303	movie	1		301	60.0	2.5	/experiments/aot/S_yt-UzWRbs9Syf4_7.mp4	0.0	307.9689230918884	2.508358955383301
62	271.3405478000641	pulse	1	t		60.0	2.5	/experiments/aot/S_yt-UzWRbs9Syf4_7.mp4	0.0	309.5608859062195	
62	272.25694394111633	fix_post	2		12	60.0	2.5	/experiments/aot/S_yt-UzWRbs9Syf4_7.mp4	0.0	310.47728204727173	0.10001182556152344
63	272.35695576667786	fix_pre	0		120	61.0	2.5	/experiments/aot/S_pexels-c-technical-6491262.mp4	0.0	310.57729387283325	0.9999902248382568
63	272.94042778015137	pulse	0	t		61.0	2.5	/experiments/aot/S_pexels-c-technical-6491262.mp4	0.0	311.16076588630676	
63	273.3569459915161	movie	1		162	61.0	2.5	/experiments/aot/S_pexels-c-technical-6491262.mp4	0.0	311.5772840976715	2.5001659393310547
63	274.54002380371094	pulse	1	t		61.0	2.5	/experiments/aot/S_pexels-c-technical-6491262.mp4	0.0	312.76036190986633	
63	275.85711193084717	fix_post	2		12	61.0	2.5	/experiments/aot/S_pexels-c-technical-6491262.mp4	0.0	314.07745003700256	0.09958505630493164
64	275.9566969871521	fix_pre	0		120	62.0	2.5	/experiments/aot/S_yt-ejSzwn8tY8g_49.mp4	0.0	314.1770350933075	1.0001227855682373
64	276.1406178474426	pulse	0	t		62.0	2.5	/experiments/aot/S_yt-ejSzwn8tY8g_49.mp4	0.0	314.360955953598	
64	276.95681977272034	movie	1		300	62.0	2.5	/experiments/aot/S_yt-ejSzwn8tY8g_49.mp4	0.0	315.17715787887573	2.500131130218506
64	277.74032282829285	pulse	1	t		62.0	2.5	/experiments/aot/S_yt-ejSzwn8tY8g_49.mp4	0.0	315.96066093444824	
64	279.3401129245758	pulse	1	t		62.0	2.5	/experiments/aot/S_yt-ejSzwn8tY8g_49.mp4	0.0	317.5604510307312	
64	279.45695090293884	fix_post	2		12	62.0	2.5	/experiments/aot/S_yt-ejSzwn8tY8g_49.mp4	0.0	317.67728900909424	0.09998202323913574
65	279.556932926178	fix_pre	0		120	63.0	2.5	blank	1.0	317.7772710323334	0.9999589920043945
65	280.5568919181824	movie	1		300	63.0	2.5	blank	1.0	318.77723002433777	2.4999969005584717
65	280.94038677215576	pulse	1	t		63.0	2.5	blank	1.0	319.16072487831116	
65	282.54035687446594	pulse	1	t		63.0	2.5	blank	1.0	320.76069498062134	
65	283.05688881874084	fix_post	2		12	63.0	2.5	blank	1.0	321.27722692489624	0.09998416900634766
66	283.1568729877472	fix_pre	0		119	64.0	2.5	/experiments/aot/R_S_ILSVRC2015_train_00165012.mp4	0.0	321.3772110939026	0.9916269779205322
66	284.1403548717499	pulse	0	t		64.0	2.5	/experiments/aot/R_S_ILSVRC2015_train_00165012.mp4	0.0	322.3606929779053	
66	284.1484999656677	movie	1		301	64.0	2.5	/experiments/aot/R_S_ILSVRC2015_train_00165012.mp4	0.0	322.3688380718231	2.5079779624938965
66	285.7403998374939	pulse	1	t		64.0	2.5	/experiments/aot/R_S_ILSVRC2015_train_00165012.mp4	0.0	323.9607379436493	
66	286.6564779281616	fix_post	2		12	64.0	2.5	/experiments/aot/R_S_ILSVRC2015_train_00165012.mp4	0.0	324.876816034317	0.1004488468170166
67	286.75692677497864	fix_pre	0		120	65.0	2.5	/experiments/aot/S_wc-NVeGRb_y_y_5_36.mp4	0.0	324.97726488113403	0.9999589920043945
67	287.34035897254944	pulse	0	t		65.0	2.5	/experiments/aot/S_wc-NVeGRb_y_y_5_36.mp4	0.0	325.56069707870483	
67	287.75688576698303	movie	1		161	65.0	2.5	/experiments/aot/S_wc-NVeGRb_y_y_5_36.mp4	0.0	325.9772238731384	2.4999680519104004
67	288.9402837753296	pulse	1	t		65.0	2.5	/experiments/aot/S_wc-NVeGRb_y_y_5_36.mp4	0.0	327.160621881485	
67	290.25685381889343	fix_post	2		12	65.0	2.5	/experiments/aot/S_wc-NVeGRb_y_y_5_36.mp4	0.0	328.4771919250488	0.09997701644897461
68	290.3568308353424	fix_pre	0		120	66.0	2.5	/experiments/aot/R_S_ILSVRC2015_train_00404003.mp4	0.0	328.5771689414978	1.0000190734863281
68	290.5403139591217	pulse	0	t		66.0	2.5	/experiments/aot/R_S_ILSVRC2015_train_00404003.mp4	0.0	328.7606520652771	
68	291.35684990882874	movie	1		300	66.0	2.5	/experiments/aot/R_S_ILSVRC2015_train_00404003.mp4	0.0	329.57718801498413	2.5000250339508057
68	292.1404860019684	pulse	1	t		66.0	2.5	/experiments/aot/R_S_ILSVRC2015_train_00404003.mp4	0.0	330.3608241081238	
68	293.74028396606445	pulse	1	t		66.0	2.5	/experiments/aot/R_S_ILSVRC2015_train_00404003.mp4	0.0	331.96062207221985	
68	293.85687494277954	fix_post	2		12	66.0	2.5	/experiments/aot/R_S_ILSVRC2015_train_00404003.mp4	0.0	332.07721304893494	0.09996485710144043
69	293.956839799881	fix_pre	0		120	67.0	2.5	/experiments/aot/S_yt-tQ-hgwTcMqU_43.mp4	0.0	332.1771779060364	0.9999940395355225
69	294.9568338394165	movie	1		300	67.0	2.5	/experiments/aot/S_yt-tQ-hgwTcMqU_43.mp4	0.0	333.1771719455719	2.5002999305725098
69	295.34029483795166	pulse	1	t		67.0	2.5	/experiments/aot/S_yt-tQ-hgwTcMqU_43.mp4	0.0	333.56063294410706	
69	296.9403429031372	pulse	1	t		67.0	2.5	/experiments/aot/S_yt-tQ-hgwTcMqU_43.mp4	0.0	335.1606810092926	
69	297.457133769989	fix_post	2		12	67.0	2.5	/experiments/aot/S_yt-tQ-hgwTcMqU_43.mp4	0.0	335.6774718761444	0.09966707229614258
70	297.55680084228516	fix_pre	0		119	68.0	2.5	/experiments/aot/R_S_pexels-cottonbro-9499408.mp4	0.0	335.77713894844055	0.9917099475860596
70	298.5403378009796	pulse	0	t		68.0	2.5	/experiments/aot/R_S_pexels-cottonbro-9499408.mp4	0.0	336.760675907135	
70	298.5485107898712	movie	1		164	68.0	2.5	/experiments/aot/R_S_pexels-cottonbro-9499408.mp4	0.0	336.7688488960266	2.5082881450653076
70	300.13982582092285	pulse	1	t		68.0	2.5	/experiments/aot/R_S_pexels-cottonbro-9499408.mp4	0.0	338.36016392707825	
70	301.0567989349365	fix_post	2		12	68.0	2.5	/experiments/aot/R_S_pexels-cottonbro-9499408.mp4	0.0	339.2771370410919	0.10010004043579102
71	301.1568989753723	fix_pre	0		120	69.0	2.5	blank	1.0	339.3772370815277	0.9999079704284668
71	301.7403419017792	pulse	0	t		69.0	2.5	blank	1.0	339.96068000793457	
71	302.1568069458008	movie	1		300	69.0	2.5	blank	1.0	340.3771450519562	2.5000529289245605
71	303.34031677246094	pulse	1	t		69.0	2.5	blank	1.0	341.56065487861633	
71	304.65685987472534	fix_post	2		12	69.0	2.5	blank	1.0	342.87719798088074	0.10000896453857422
72	304.7568688392639	fix_pre	0		120	70.0	2.5	/experiments/aot/S_ILSVRC2015_train_00549001.mp4	0.0	342.9772069454193	0.9999430179595947
72	304.9402918815613	pulse	0	t		70.0	2.5	/experiments/aot/S_ILSVRC2015_train_00549001.mp4	0.0	343.1606299877167	
72	305.7568118572235	movie	1		300	70.0	2.5	/experiments/aot/S_ILSVRC2015_train_00549001.mp4	0.0	343.9771499633789	2.4999749660491943
72	306.54025983810425	pulse	1	t		70.0	2.5	/experiments/aot/S_ILSVRC2015_train_00549001.mp4	0.0	344.76059794425964	
72	308.14029693603516	pulse	1	t		70.0	2.5	/experiments/aot/S_ILSVRC2015_train_00549001.mp4	0.0	346.36063504219055	
72	308.2567868232727	fix_post	2		12	70.0	2.5	/experiments/aot/S_ILSVRC2015_train_00549001.mp4	0.0	346.4771249294281	0.09997105598449707
73	308.3567578792572	fix_pre	0		120	71.0	2.5	/experiments/aot/S_G007_C004_UHD_SDR_2K_AVC.mp4	0.0	346.5770959854126	1.000014066696167
73	309.35677194595337	movie	1		164	71.0	2.5	/experiments/aot/S_G007_C004_UHD_SDR_2K_AVC.mp4	0.0	347.57711005210876	2.5000498294830322
73	309.74028182029724	pulse	1	t		71.0	2.5	/experiments/aot/S_G007_C004_UHD_SDR_2K_AVC.mp4	0.0	347.96061992645264	
73	311.34036684036255	pulse	1	t		71.0	2.5	/experiments/aot/S_G007_C004_UHD_SDR_2K_AVC.mp4	0.0	349.56070494651794	
73	311.8568217754364	fix_post	2		12	71.0	2.5	/experiments/aot/S_G007_C004_UHD_SDR_2K_AVC.mp4	0.0	350.0771598815918	0.10000205039978027
74	311.9568238258362	fix_pre	0		119	72.0	2.5	/experiments/aot/R_S_comp_HK_H004_C010_PSNK_v08_SDR_PS_20181009_SDR_2K_AVC.mp4	0.0	350.1771619319916	0.9915461540222168
74	312.9402768611908	pulse	0	t		72.0	2.5	/experiments/aot/R_S_comp_HK_H004_C010_PSNK_v08_SDR_PS_20181009_SDR_2K_AVC.mp4	0.0	351.1606149673462	
74	312.9483699798584	movie	1		166	72.0	2.5	/experiments/aot/R_S_comp_HK_H004_C010_PSNK_v08_SDR_PS_20181009_SDR_2K_AVC.mp4	0.0	351.1687080860138	2.5084388256073
74	314.5400228500366	pulse	1	t		72.0	2.5	/experiments/aot/R_S_comp_HK_H004_C010_PSNK_v08_SDR_PS_20181009_SDR_2K_AVC.mp4	0.0	352.760360956192	
74	315.4568088054657	fix_post	2		12	72.0	2.5	/experiments/aot/R_S_comp_HK_H004_C010_PSNK_v08_SDR_PS_20181009_SDR_2K_AVC.mp4	0.0	353.6771469116211	0.09989809989929199
75	315.556706905365	fix_pre	0		120	73.0	2.5	/experiments/aot/S_yt-Co4dzHwupRM_18.mp4	0.0	353.7770450115204	1.0001070499420166
75	316.14028096199036	pulse	0	t		73.0	2.5	/experiments/aot/S_yt-Co4dzHwupRM_18.mp4	0.0	354.36061906814575	
75	316.556813955307	movie	1		300	73.0	2.5	/experiments/aot/S_yt-Co4dzHwupRM_18.mp4	0.0	354.7771520614624	2.4999358654022217
75	317.74431896209717	pulse	1	t		73.0	2.5	/experiments/aot/S_yt-Co4dzHwupRM_18.mp4	0.0	355.96465706825256	
75	319.05674982070923	fix_post	2		12	73.0	2.5	/experiments/aot/S_yt-Co4dzHwupRM_18.mp4	0.0	357.2770879268646	0.10003113746643066
76	319.15678095817566	fix_pre	0		120	74.0	2.5	/experiments/aot/R_S_comp_LA_A006_C008_PSNK_ALL_LOGOS_v10_SDR_PS_FINAL_20180801_SDR_2K_AVC.mp4	0.0	357.37711906433105	0.9998869895935059
76	319.3402729034424	pulse	0	t		74.0	2.5	/experiments/aot/R_S_comp_LA_A006_C008_PSNK_ALL_LOGOS_v10_SDR_PS_FINAL_20180801_SDR_2K_AVC.mp4	0.0	357.5606110095978	
76	320.15666794776917	movie	1		170	74.0	2.5	/experiments/aot/R_S_comp_LA_A006_C008_PSNK_ALL_LOGOS_v10_SDR_PS_FINAL_20180801_SDR_2K_AVC.mp4	0.0	358.37700605392456	2.500105857849121
76	320.9402759075165	pulse	1	t		74.0	2.5	/experiments/aot/R_S_comp_LA_A006_C008_PSNK_ALL_LOGOS_v10_SDR_PS_FINAL_20180801_SDR_2K_AVC.mp4	0.0	359.1606140136719	
76	322.5402579307556	pulse	1	t		74.0	2.5	/experiments/aot/R_S_comp_LA_A006_C008_PSNK_ALL_LOGOS_v10_SDR_PS_FINAL_20180801_SDR_2K_AVC.mp4	0.0	360.760596036911	
76	322.6567738056183	fix_post	2		12	74.0	2.5	/experiments/aot/R_S_comp_LA_A006_C008_PSNK_ALL_LOGOS_v10_SDR_PS_FINAL_20180801_SDR_2K_AVC.mp4	0.0	360.8771119117737	0.10000896453857422
77	322.75678277015686	fix_pre	0		120	75.0	2.5	/experiments/aot/R_S_yt-qycUhA3Isjg_76.mp4	0.0	360.97712087631226	0.9999902248382568
77	323.7567729949951	movie	1		299	75.0	2.5	/experiments/aot/R_S_yt-qycUhA3Isjg_76.mp4	0.0	361.9771111011505	2.4999818801879883
77	324.14020681381226	pulse	1	t		75.0	2.5	/experiments/aot/R_S_yt-qycUhA3Isjg_76.mp4	0.0	362.36054491996765	
77	325.7402169704437	pulse	1	t		75.0	2.5	/experiments/aot/R_S_yt-qycUhA3Isjg_76.mp4	0.0	363.9605550765991	
77	326.2567548751831	fix_post	2		12	75.0	2.5	/experiments/aot/R_S_yt-qycUhA3Isjg_76.mp4	0.0	364.4770929813385	0.09997105598449707
78	326.3567259311676	fix_pre	0		119	76.0	2.5	blank	1.0	364.577064037323	0.9916799068450928
78	327.34023094177246	pulse	0	t		76.0	2.5	blank	1.0	365.56056904792786	
78	327.3484058380127	movie	1		301	76.0	2.5	blank	1.0	365.5687439441681	2.5084340572357178
78	328.94031381607056	pulse	1	t		76.0	2.5	blank	1.0	367.16065192222595	
78	329.8568398952484	fix_post	2		12	76.0	2.5	blank	1.0	368.0771780014038	0.09993910789489746
79	329.9567790031433	fix_pre	0		120	77.0	2.5	/experiments/aot/S_yt-vQGD-rJyMw4_166.mp4	0.0	368.1771171092987	0.9995708465576172
79	330.539803981781	pulse	0	t		77.0	2.5	/experiments/aot/S_yt-vQGD-rJyMw4_166.mp4	0.0	368.7601420879364	
79	330.9563498497009	movie	1		299	77.0	2.5	/experiments/aot/S_yt-vQGD-rJyMw4_166.mp4	0.0	369.1766879558563	2.5003459453582764
79	332.14027190208435	pulse	1	t		77.0	2.5	/experiments/aot/S_yt-vQGD-rJyMw4_166.mp4	0.0	370.36061000823975	
79	333.4566957950592	fix_post	2		12	77.0	2.5	/experiments/aot/S_yt-vQGD-rJyMw4_166.mp4	0.0	371.6770339012146	0.10000205039978027
80	333.556697845459	fix_pre	0		120	78.0	2.5	/experiments/aot/R_S_yt-qF-69JWJX_Y_55.mp4	0.0	371.7770359516144	0.9999740123748779
80	333.74014377593994	pulse	0	t		78.0	2.5	/experiments/aot/R_S_yt-qF-69JWJX_Y_55.mp4	0.0	371.96048188209534	
80	334.55667185783386	movie	1		300	78.0	2.5	/experiments/aot/R_S_yt-qF-69JWJX_Y_55.mp4	0.0	372.77700996398926	2.500054121017456
80	335.3401229381561	pulse	1	t		78.0	2.5	/experiments/aot/R_S_yt-qF-69JWJX_Y_55.mp4	0.0	373.5604610443115	
80	336.9406337738037	pulse	1	t		78.0	2.5	/experiments/aot/R_S_yt-qF-69JWJX_Y_55.mp4	0.0	375.1609718799591	
80	337.0567259788513	fix_post	2		12	78.0	2.5	/experiments/aot/R_S_yt-qF-69JWJX_Y_55.mp4	0.0	375.2770640850067	0.09985780715942383
81	337.15658378601074	fix_pre	0		120	79.0	2.5	/experiments/aot/R_S_comp_A103_C002_0205DG_v12_SDR_FINAL_20180706_SDR_2K_AVC.mp4	0.0	375.37692189216614	1.0001120567321777
81	338.1566958427429	movie	1		163	79.0	2.5	/experiments/aot/R_S_comp_A103_C002_0205DG_v12_SDR_FINAL_20180706_SDR_2K_AVC.mp4	0.0	376.3770339488983	2.499891996383667
81	338.54010677337646	pulse	1	t		79.0	2.5	/experiments/aot/R_S_comp_A103_C002_0205DG_v12_SDR_FINAL_20180706_SDR_2K_AVC.mp4	0.0	376.76044487953186	
81	340.14007592201233	pulse	1	t		79.0	2.5	/experiments/aot/R_S_comp_A103_C002_0205DG_v12_SDR_FINAL_20180706_SDR_2K_AVC.mp4	0.0	378.3604140281677	
81	340.6565878391266	fix_post	2		12	79.0	2.5	/experiments/aot/R_S_comp_A103_C002_0205DG_v12_SDR_FINAL_20180706_SDR_2K_AVC.mp4	0.0	378.876925945282	0.1000511646270752
82	340.75663900375366	fix_pre	0		120	80.0	2.5	/experiments/aot/R_S_ILSVRC2015_train_00745000.mp4	0.0	378.97697710990906	0.9999327659606934
82	341.74095582962036	pulse	0	t		80.0	2.5	/experiments/aot/R_S_ILSVRC2015_train_00745000.mp4	0.0	379.96129393577576	
82	341.75657176971436	movie	1		301	80.0	2.5	/experiments/aot/R_S_ILSVRC2015_train_00745000.mp4	0.0	379.97690987586975	2.508308172225952
82	343.34004187583923	pulse	1	t		80.0	2.5	/experiments/aot/R_S_ILSVRC2015_train_00745000.mp4	0.0	381.56037998199463	
82	344.2648799419403	fix_post	2		12	80.0	2.5	/experiments/aot/R_S_ILSVRC2015_train_00745000.mp4	0.0	382.4852180480957	0.10001897811889648
83	344.3648989200592	fix_pre	0		120	81.0	2.5	/experiments/aot/R_S_comp_DB_D001_C001_PSNK_v06_SDR_PS_20180824_SDR_2K_AVC.mp4	0.0	382.5852370262146	0.9999909400939941
83	344.94007396698	pulse	0	t		81.0	2.5	/experiments/aot/R_S_comp_DB_D001_C001_PSNK_v06_SDR_PS_20180824_SDR_2K_AVC.mp4	0.0	383.1604120731354	
83	345.3648898601532	movie	1		173	81.0	2.5	/experiments/aot/R_S_comp_DB_D001_C001_PSNK_v06_SDR_PS_20180824_SDR_2K_AVC.mp4	0.0	383.5852279663086	2.5000979900360107
83	346.54852390289307	pulse	1	t		81.0	2.5	/experiments/aot/R_S_comp_DB_D001_C001_PSNK_v06_SDR_PS_20180824_SDR_2K_AVC.mp4	0.0	384.76886200904846	
83	347.8649878501892	fix_post	2		12	81.0	2.5	/experiments/aot/R_S_comp_DB_D001_C001_PSNK_v06_SDR_PS_20180824_SDR_2K_AVC.mp4	0.0	386.0853259563446	0.09989500045776367
84	347.964882850647	fix_pre	0		120	82.0	2.5	/experiments/aot/S_yt-WASlRH1zA8c_175.mp4	0.0	386.18522095680237	1.0001230239868164
84	348.14010977745056	pulse	0	t		82.0	2.5	/experiments/aot/S_yt-WASlRH1zA8c_175.mp4	0.0	386.36044788360596	
84	348.9650058746338	movie	1		300	82.0	2.5	/experiments/aot/S_yt-WASlRH1zA8c_175.mp4	0.0	387.1853439807892	2.4999630451202393
84	349.74000692367554	pulse	1	t		82.0	2.5	/experiments/aot/S_yt-WASlRH1zA8c_175.mp4	0.0	387.96034502983093	
84	351.3400228023529	pulse	1	t		82.0	2.5	/experiments/aot/S_yt-WASlRH1zA8c_175.mp4	0.0	389.5603609085083	
84	351.464968919754	fix_post	2		12	82.0	2.5	/experiments/aot/S_yt-WASlRH1zA8c_175.mp4	0.0	389.6853070259094	0.09988594055175781
85	351.5648548603058	fix_pre	0		120	83.0	2.5	blank	1.0	389.7851929664612	1.0001039505004883
85	352.5649588108063	movie	1		300	83.0	2.5	blank	1.0	390.78529691696167	2.4999241828918457
85	352.9400677680969	pulse	1	t		83.0	2.5	blank	1.0	391.1604058742523	
85	354.53997778892517	pulse	1	t		83.0	2.5	blank	1.0	392.76031589508057	
85	355.0648829936981	fix_post	2		12	83.0	2.5	blank	1.0	393.2852210998535	0.09994792938232422
87	355.16483092308044	stim	0		1716					393.38516902923584	14.30005407333374
87	356.1400899887085	pulse	0	t						394.3604280948639	
87	357.7400188446045	pulse	0	t						395.9603569507599	
87	359.3401358127594	pulse	0	t						397.5604739189148	
87	360.9400599002838	pulse	0	t						399.1603980064392	
87	362.53998279571533	pulse	0	t						400.7603209018707	
87	364.1399438381195	pulse	0	t						402.3602819442749	
87	365.7398748397827	pulse	0	t						403.9602129459381	
87	367.3399758338928	pulse	0	t						405.5603139400482	
87	368.93999695777893	pulse	0	t						407.1603350639343	
