trial_nr	onset	event_type	phase	response	nr_frames	movie_index	movie_duration	movie_file	blank	onset_abs	duration
0	0.13292813301086426	stim	0		33					35.74703621864319	0.27531003952026367
0	0.40027904510498047	response	0	space						36.014387130737305	
1	0.40823817253112793	stim	0		4719					36.02234625816345	39.324787855148315
1	39.725133180618286	pulse	0	t						75.33924126625061	
1	39.73302602767944	stim	1		1717					75.34713411331177	14.308374166488647
1	41.32486009597778	pulse	1	t						76.93896818161011	
1	42.92489504814148	pulse	1	t						78.5390031337738	
1	44.524827003479004	pulse	1	t						80.13893508911133	
1	46.12487316131592	pulse	1	t						81.73898124694824	
1	47.724815130233765	pulse	1	t						83.33892321586609	
1	49.324865102767944	pulse	1	t						84.93897318840027	
1	50.92487907409668	pulse	1	t						86.538987159729	
1	52.524797201156616	pulse	1	t						88.13890528678894	
2	54.04140019416809	fix_pre	0		11	0.0	2.5	/experiments/AOT/AOT_stimuli/rescaled_final/0874_fw.mp4	0.0	89.65550827980042	0.09162497520446777
2	54.124850034713745	pulse	0	t		0.0	2.5	/experiments/AOT/AOT_stimuli/rescaled_final/0874_fw.mp4	0.0	89.73895812034607	
2	54.13302516937256	movie	1		242	0.0	2.5	/experiments/AOT/AOT_stimuli/rescaled_final/0874_fw.mp4	0.0	89.74713325500488	2.508265972137451
2	55.72497200965881	pulse	1	t		0.0	2.5	/experiments/AOT/AOT_stimuli/rescaled_final/0874_fw.mp4	0.0	91.33908009529114	
2	56.64129114151001	fix_post	2		12	0.0	2.5	/experiments/AOT/AOT_stimuli/rescaled_final/0874_fw.mp4	0.0	92.25539922714233	0.0995948314666748
3	56.740885972976685	fix_pre	0		120	1.0	2.5	/experiments/AOT/AOT_stimuli/rescaled_final/2124_fw.mp4	0.0	92.35499405860901	1.0000221729278564
3	57.324872970581055	pulse	0	t		1.0	2.5	/experiments/AOT/AOT_stimuli/rescaled_final/2124_fw.mp4	0.0	92.93898105621338	
3	57.74090814590454	movie	1		242	1.0	2.5	/experiments/AOT/AOT_stimuli/rescaled_final/2124_fw.mp4	0.0	93.35501623153687	2.500066041946411
3	58.924830198287964	pulse	1	t		1.0	2.5	/experiments/AOT/AOT_stimuli/rescaled_final/2124_fw.mp4	0.0	94.53893828392029	
3	60.24097418785095	fix_post	2		12	1.0	2.5	/experiments/AOT/AOT_stimuli/rescaled_final/2124_fw.mp4	0.0	95.85508227348328	0.10037493705749512
4	60.34134912490845	fix_pre	0		120	2.0	2.5	/experiments/AOT/AOT_stimuli/rescaled_final/1282_fw.mp4	0.0	95.95545721054077	0.9995169639587402
4	60.52489519119263	pulse	0	t		2.0	2.5	/experiments/AOT/AOT_stimuli/rescaled_final/1282_fw.mp4	0.0	96.13900327682495	
4	61.34086608886719	movie	1		245	2.0	2.5	/experiments/AOT/AOT_stimuli/rescaled_final/1282_fw.mp4	0.0	96.95497417449951	2.500425100326538
4	62.12485313415527	pulse	1	t		2.0	2.5	/experiments/AOT/AOT_stimuli/rescaled_final/1282_fw.mp4	0.0	97.7389612197876	
4	63.72319006919861	pulse	1	t		2.0	2.5	/experiments/AOT/AOT_stimuli/rescaled_final/1282_fw.mp4	0.0	99.33729815483093	
4	63.841291189193726	fix_post	2		12	2.0	2.5	/experiments/AOT/AOT_stimuli/rescaled_final/1282_fw.mp4	0.0	99.45539927482605	0.09959197044372559
5	63.94088315963745	fix_pre	0		120	3.0	2.5	/experiments/AOT/AOT_stimuli/rescaled_final/0172_rv.mp4	0.0	99.55499124526978	1.0004839897155762
5	64.94136714935303	movie	1		246	3.0	2.5	/experiments/AOT/AOT_stimuli/rescaled_final/0172_rv.mp4	0.0	100.55547523498535	2.499966859817505
5	65.32578206062317	pulse	1	t		3.0	2.5	/experiments/AOT/AOT_stimuli/rescaled_final/0172_rv.mp4	0.0	100.9398901462555	
5	66.92483496665955	pulse	1	t		3.0	2.5	/experiments/AOT/AOT_stimuli/rescaled_final/0172_rv.mp4	0.0	102.53894305229187	
5	67.44133400917053	fix_post	2		12	3.0	2.5	/experiments/AOT/AOT_stimuli/rescaled_final/0172_rv.mp4	0.0	103.05544209480286	0.09999608993530273
6	67.54133009910583	fix_pre	0		119	4.0	2.5	/experiments/AOT/AOT_stimuli/rescaled_final/0818_rv.mp4	0.0	103.15543818473816	0.9917140007019043
6	68.52478504180908	pulse	0	t		4.0	2.5	/experiments/AOT/AOT_stimuli/rescaled_final/0818_rv.mp4	0.0	104.1388931274414	
6	68.53304409980774	movie	1		244	4.0	2.5	/experiments/AOT/AOT_stimuli/rescaled_final/0818_rv.mp4	0.0	104.14715218544006	2.5083611011505127
6	70.12473106384277	pulse	1	t		4.0	2.5	/experiments/AOT/AOT_stimuli/rescaled_final/0818_rv.mp4	0.0	105.7388391494751	
6	71.04140520095825	fix_post	2		12	4.0	2.5	/experiments/AOT/AOT_stimuli/rescaled_final/0818_rv.mp4	0.0	106.65551328659058	0.0999608039855957
7	71.14136600494385	fix_pre	0		120	5.0	2.5	/experiments/AOT/AOT_stimuli/rescaled_final/1226_fw.mp4	0.0	106.75547409057617	0.9999539852142334
7	71.72490215301514	pulse	0	t		5.0	2.5	/experiments/AOT/AOT_stimuli/rescaled_final/1226_fw.mp4	0.0	107.33901023864746	
7	72.14131999015808	movie	1		244	5.0	2.5	/experiments/AOT/AOT_stimuli/rescaled_final/1226_fw.mp4	0.0	107.7554280757904	2.500190019607544
7	73.32484006881714	pulse	1	t		5.0	2.5	/experiments/AOT/AOT_stimuli/rescaled_final/1226_fw.mp4	0.0	108.93894815444946	
7	74.64151000976562	fix_post	2		12	5.0	2.5	/experiments/AOT/AOT_stimuli/rescaled_final/1226_fw.mp4	0.0	110.25561809539795	0.09979009628295898
8	74.74130010604858	fix_pre	0		120	6.0	2.5	blank	1.0	110.35540819168091	0.9995310306549072
8	74.92479014396667	pulse	0	t		6.0	2.5	blank	1.0	110.538898229599	
8	75.74083113670349	movie	1		300	6.0	2.5	blank	1.0	111.35493922233582	2.500417947769165
8	76.52494502067566	pulse	1	t		6.0	2.5	blank	1.0	112.13905310630798	
8	78.1248071193695	pulse	1	t		6.0	2.5	blank	1.0	113.73891520500183	
8	78.24124908447266	fix_post	2		12	6.0	2.5	blank	1.0	113.85535717010498	0.10003399848937988
9	78.34128308296204	fix_pre	0		120	7.0	2.5	/experiments/AOT/AOT_stimuli/rescaled_final/0249_fw.mp4	0.0	113.95539116859436	0.9999220371246338
9	79.34120512008667	movie	1		244	7.0	2.5	/experiments/AOT/AOT_stimuli/rescaled_final/0249_fw.mp4	0.0	114.955313205719	2.5000269412994385
9	79.7244610786438	pulse	1	t		7.0	2.5	/experiments/AOT/AOT_stimuli/rescaled_final/0249_fw.mp4	0.0	115.33856916427612	
9	81.32472610473633	pulse	1	t		7.0	2.5	/experiments/AOT/AOT_stimuli/rescaled_final/0249_fw.mp4	0.0	116.93883419036865	
9	81.84123206138611	fix_post	2		12	7.0	2.5	/experiments/AOT/AOT_stimuli/rescaled_final/0249_fw.mp4	0.0	117.45534014701843	0.10002899169921875
10	81.94126105308533	fix_pre	0		119	8.0	2.5	/experiments/AOT/AOT_stimuli/rescaled_final/0020_rv.mp4	0.0	117.55536913871765	0.9917569160461426
10	82.92477202415466	pulse	0	t		8.0	2.5	/experiments/AOT/AOT_stimuli/rescaled_final/0020_rv.mp4	0.0	118.53888010978699	
10	82.93301796913147	movie	1		244	8.0	2.5	/experiments/AOT/AOT_stimuli/rescaled_final/0020_rv.mp4	0.0	118.5471260547638	2.508213996887207
10	84.52604413032532	pulse	1	t		8.0	2.5	/experiments/AOT/AOT_stimuli/rescaled_final/0020_rv.mp4	0.0	120.14015221595764	
10	85.44123196601868	fix_post	2		12	8.0	2.5	/experiments/AOT/AOT_stimuli/rescaled_final/0020_rv.mp4	0.0	121.055340051651	0.10007214546203613
11	85.54130411148071	fix_pre	0		120	9.0	2.5	/experiments/AOT/AOT_stimuli/rescaled_final/1499_rv.mp4	0.0	121.15541219711304	0.999971866607666
11	86.12486720085144	pulse	0	t		9.0	2.5	/experiments/AOT/AOT_stimuli/rescaled_final/1499_rv.mp4	0.0	121.73897528648376	
11	86.54127597808838	movie	1		245	9.0	2.5	/experiments/AOT/AOT_stimuli/rescaled_final/1499_rv.mp4	0.0	122.1553840637207	2.4996800422668457
11	87.7243139743805	pulse	1	t		9.0	2.5	/experiments/AOT/AOT_stimuli/rescaled_final/1499_rv.mp4	0.0	123.33842206001282	
11	89.04095602035522	fix_post	2		12	9.0	2.5	/experiments/AOT/AOT_stimuli/rescaled_final/1499_rv.mp4	0.0	124.65506410598755	0.10035514831542969
12	89.14131116867065	fix_pre	0		120	10.0	2.5	/experiments/AOT/AOT_stimuli/rescaled_final/2000_fw.mp4	0.0	124.75541925430298	0.9997079372406006
12	89.32446098327637	pulse	0	t		10.0	2.5	/experiments/AOT/AOT_stimuli/rescaled_final/2000_fw.mp4	0.0	124.93856906890869	
12	90.14101910591125	movie	1		244	10.0	2.5	/experiments/AOT/AOT_stimuli/rescaled_final/2000_fw.mp4	0.0	125.75512719154358	2.5002269744873047
12	90.92467403411865	pulse	1	t		10.0	2.5	/experiments/AOT/AOT_stimuli/rescaled_final/2000_fw.mp4	0.0	126.53878211975098	
12	92.52303719520569	pulse	1	t		10.0	2.5	/experiments/AOT/AOT_stimuli/rescaled_final/2000_fw.mp4	0.0	128.137145280838	
12	92.64124608039856	fix_post	2		12	10.0	2.5	/experiments/AOT/AOT_stimuli/rescaled_final/2000_fw.mp4	0.0	128.25535416603088	0.10006499290466309
13	92.74131107330322	fix_pre	0		120	11.0	2.5	/experiments/AOT/AOT_stimuli/rescaled_final/0596_fw.mp4	0.0	128.35541915893555	0.9999740123748779
13	93.7412850856781	movie	1		246	11.0	2.5	/experiments/AOT/AOT_stimuli/rescaled_final/0596_fw.mp4	0.0	129.35539317131042	2.4999070167541504
13	94.12446618080139	pulse	1	t		11.0	2.5	/experiments/AOT/AOT_stimuli/rescaled_final/0596_fw.mp4	0.0	129.73857426643372	
13	95.72458505630493	pulse	1	t		11.0	2.5	/experiments/AOT/AOT_stimuli/rescaled_final/0596_fw.mp4	0.0	131.33869314193726	
13	96.24119210243225	fix_post	2		12	11.0	2.5	/experiments/AOT/AOT_stimuli/rescaled_final/0596_fw.mp4	0.0	131.85530018806458	0.09995007514953613
14	96.34114217758179	fix_pre	0		119	12.0	2.5	blank	1.0	131.9552502632141	0.9917469024658203
14	97.32462906837463	pulse	0	t		12.0	2.5	blank	1.0	132.93873715400696	
14	97.33288908004761	movie	1		301	12.0	2.5	blank	1.0	132.94699716567993	2.5082919597625732
14	98.92474412918091	pulse	1	t		12.0	2.5	blank	1.0	134.53885221481323	
14	99.84118103981018	fix_post	2		12	12.0	2.5	blank	1.0	135.4552891254425	0.09993815422058105
15	99.94111919403076	fix_pre	0		120	13.0	2.5	/experiments/AOT/AOT_stimuli/rescaled_final/1695_rv.mp4	0.0	135.5552272796631	1.0000698566436768
15	100.52476000785828	pulse	0	t		13.0	2.5	/experiments/AOT/AOT_stimuli/rescaled_final/1695_rv.mp4	0.0	136.1388680934906	
15	100.94118905067444	movie	1		243	13.0	2.5	/experiments/AOT/AOT_stimuli/rescaled_final/1695_rv.mp4	0.0	136.55529713630676	2.499912977218628
15	102.12478113174438	pulse	1	t		13.0	2.5	/experiments/AOT/AOT_stimuli/rescaled_final/1695_rv.mp4	0.0	137.7388892173767	
15	103.44110202789307	fix_post	2		12	13.0	2.5	/experiments/AOT/AOT_stimuli/rescaled_final/1695_rv.mp4	0.0	139.0552101135254	0.10001516342163086
16	103.5411171913147	fix_pre	0		120	14.0	2.5	/experiments/AOT/AOT_stimuli/rescaled_final/0316_fw.mp4	0.0	139.15522527694702	0.9999728202819824
16	103.7246720790863	pulse	0	t		14.0	2.5	/experiments/AOT/AOT_stimuli/rescaled_final/0316_fw.mp4	0.0	139.33878016471863	
16	104.54109001159668	movie	1		247	14.0	2.5	/experiments/AOT/AOT_stimuli/rescaled_final/0316_fw.mp4	0.0	140.155198097229	2.4996960163116455
16	105.32460904121399	pulse	1	t		14.0	2.5	/experiments/AOT/AOT_stimuli/rescaled_final/0316_fw.mp4	0.0	140.9387171268463	
16	106.92086410522461	pulse	1	t		14.0	2.5	/experiments/AOT/AOT_stimuli/rescaled_final/0316_fw.mp4	0.0	142.53497219085693	
16	107.04078602790833	fix_post	2		12	14.0	2.5	/experiments/AOT/AOT_stimuli/rescaled_final/0316_fw.mp4	0.0	142.65489411354065	0.10036516189575195
17	107.14115118980408	fix_pre	0		120	15.0	2.5	/experiments/AOT/AOT_stimuli/rescaled_final/1608_fw.mp4	0.0	142.7552592754364	0.999565839767456
17	108.14071702957153	movie	1		246	15.0	2.5	/experiments/AOT/AOT_stimuli/rescaled_final/1608_fw.mp4	0.0	143.75482511520386	2.4999330043792725
17	108.52416706085205	pulse	1	t		15.0	2.5	/experiments/AOT/AOT_stimuli/rescaled_final/1608_fw.mp4	0.0	144.13827514648438	
17	110.12468099594116	pulse	1	t		15.0	2.5	/experiments/AOT/AOT_stimuli/rescaled_final/1608_fw.mp4	0.0	145.7387890815735	
17	110.6406500339508	fix_post	2		12	15.0	2.5	/experiments/AOT/AOT_stimuli/rescaled_final/1608_fw.mp4	0.0	146.25475811958313	0.10047006607055664
18	110.74112010002136	fix_pre	0		119	16.0	2.5	/experiments/AOT/AOT_stimuli/rescaled_final/0033_rv.mp4	0.0	146.3552281856537	0.9916410446166992
18	111.72459506988525	pulse	0	t		16.0	2.5	/experiments/AOT/AOT_stimuli/rescaled_final/0033_rv.mp4	0.0	147.33870315551758	
18	111.73276114463806	movie	1		246	16.0	2.5	/experiments/AOT/AOT_stimuli/rescaled_final/0033_rv.mp4	0.0	147.34686923027039	2.5084128379821777
18	113.32414698600769	pulse	1	t		16.0	2.5	/experiments/AOT/AOT_stimuli/rescaled_final/0033_rv.mp4	0.0	148.93825507164001	
18	114.24117398262024	fix_post	2		12	16.0	2.5	/experiments/AOT/AOT_stimuli/rescaled_final/0033_rv.mp4	0.0	149.85528206825256	0.0998830795288086
19	114.34105706214905	fix_pre	0		120	17.0	2.5	/experiments/AOT/AOT_stimuli/rescaled_final/2121_fw.mp4	0.0	149.95516514778137	1.0001020431518555
19	114.92463111877441	pulse	0	t		17.0	2.5	/experiments/AOT/AOT_stimuli/rescaled_final/2121_fw.mp4	0.0	150.53873920440674	
19	115.3411591053009	movie	1		243	17.0	2.5	/experiments/AOT/AOT_stimuli/rescaled_final/2121_fw.mp4	0.0	150.95526719093323	2.500063896179199
19	116.5246901512146	pulse	1	t		17.0	2.5	/experiments/AOT/AOT_stimuli/rescaled_final/2121_fw.mp4	0.0	152.13879823684692	
19	117.8412230014801	fix_post	2		12	17.0	2.5	/experiments/AOT/AOT_stimuli/rescaled_final/2121_fw.mp4	0.0	153.45533108711243	0.09993219375610352
20	117.9411551952362	fix_pre	0		120	18.0	2.5	/experiments/AOT/AOT_stimuli/rescaled_final/1623_fw.mp4	0.0	153.55526328086853	0.9995529651641846
20	118.1246120929718	pulse	0	t		18.0	2.5	/experiments/AOT/AOT_stimuli/rescaled_final/1623_fw.mp4	0.0	153.73872017860413	
20	118.94070816040039	movie	1		245	18.0	2.5	/experiments/AOT/AOT_stimuli/rescaled_final/1623_fw.mp4	0.0	154.55481624603271	2.5004429817199707
20	119.7245512008667	pulse	1	t		18.0	2.5	/experiments/AOT/AOT_stimuli/rescaled_final/1623_fw.mp4	0.0	155.33865928649902	
20	121.32301306724548	pulse	1	t		18.0	2.5	/experiments/AOT/AOT_stimuli/rescaled_final/1623_fw.mp4	0.0	156.9371211528778	
20	121.44115114212036	fix_post	2		12	18.0	2.5	/experiments/AOT/AOT_stimuli/rescaled_final/1623_fw.mp4	0.0	157.05525922775269	0.09995388984680176
21	121.54110503196716	fix_pre	0		120	19.0	2.5	blank	1.0	157.1552131175995	0.9999511241912842
21	122.54105615615845	movie	1		300	19.0	2.5	blank	1.0	158.15516424179077	2.499974012374878
21	122.92456698417664	pulse	1	t		19.0	2.5	blank	1.0	158.53867506980896	
21	124.52455019950867	pulse	1	t		19.0	2.5	blank	1.0	160.138658285141	
21	125.04103016853333	fix_post	2		12	19.0	2.5	blank	1.0	160.65513825416565	0.10004901885986328
22	125.14107918739319	fix_pre	0		119	20.0	2.5	/experiments/AOT/AOT_stimuli/rescaled_final/1356_rv.mp4	0.0	160.7551872730255	0.9916338920593262
22	126.12458801269531	pulse	0	t		20.0	2.5	/experiments/AOT/AOT_stimuli/rescaled_final/1356_rv.mp4	0.0	161.73869609832764	
22	126.13271307945251	movie	1		245	20.0	2.5	/experiments/AOT/AOT_stimuli/rescaled_final/1356_rv.mp4	0.0	161.74682116508484	2.508352041244507
22	127.72577118873596	pulse	1	t		20.0	2.5	/experiments/AOT/AOT_stimuli/rescaled_final/1356_rv.mp4	0.0	163.3398792743683	
22	128.64106512069702	fix_post	2		12	20.0	2.5	/experiments/AOT/AOT_stimuli/rescaled_final/1356_rv.mp4	0.0	164.25517320632935	0.09955787658691406
23	128.74062299728394	fix_pre	0		120	21.0	2.5	/experiments/AOT/AOT_stimuli/rescaled_final/1757_fw.mp4	0.0	164.35473108291626	1.0004541873931885
23	129.32455801963806	pulse	0	t		21.0	2.5	/experiments/AOT/AOT_stimuli/rescaled_final/1757_fw.mp4	0.0	164.93866610527039	
23	129.74107718467712	movie	1		245	21.0	2.5	/experiments/AOT/AOT_stimuli/rescaled_final/1757_fw.mp4	0.0	165.35518527030945	2.500013828277588
23	130.9245891571045	pulse	1	t		21.0	2.5	/experiments/AOT/AOT_stimuli/rescaled_final/1757_fw.mp4	0.0	166.53869724273682	
23	132.2410910129547	fix_post	2		12	21.0	2.5	/experiments/AOT/AOT_stimuli/rescaled_final/1757_fw.mp4	0.0	167.85519909858704	0.09995603561401367
24	132.34104704856873	fix_pre	0		120	22.0	2.5	/experiments/AOT/AOT_stimuli/rescaled_final/0264_rv.mp4	0.0	167.95515513420105	0.9999399185180664
24	132.52455115318298	pulse	0	t		22.0	2.5	/experiments/AOT/AOT_stimuli/rescaled_final/0264_rv.mp4	0.0	168.1386592388153	
24	133.3409869670868	movie	1		243	22.0	2.5	/experiments/AOT/AOT_stimuli/rescaled_final/0264_rv.mp4	0.0	168.95509505271912	2.4996261596679688
24	134.12452816963196	pulse	1	t		22.0	2.5	/experiments/AOT/AOT_stimuli/rescaled_final/0264_rv.mp4	0.0	169.73863625526428	
24	135.72292304039001	pulse	1	t		22.0	2.5	/experiments/AOT/AOT_stimuli/rescaled_final/0264_rv.mp4	0.0	171.33703112602234	
24	135.84061312675476	fix_post	2		12	22.0	2.5	/experiments/AOT/AOT_stimuli/rescaled_final/0264_rv.mp4	0.0	171.45472121238708	0.10042095184326172
25	135.94103407859802	fix_pre	0		120	23.0	2.5	/experiments/AOT/AOT_stimuli/rescaled_final/1541_rv.mp4	0.0	171.55514216423035	0.9999480247497559
25	136.94098210334778	movie	1		245	23.0	2.5	/experiments/AOT/AOT_stimuli/rescaled_final/1541_rv.mp4	0.0	172.5550901889801	2.5000720024108887
25	137.32473707199097	pulse	1	t		23.0	2.5	/experiments/AOT/AOT_stimuli/rescaled_final/1541_rv.mp4	0.0	172.9388451576233	
25	138.92444610595703	pulse	1	t		23.0	2.5	/experiments/AOT/AOT_stimuli/rescaled_final/1541_rv.mp4	0.0	174.53855419158936	
25	139.44105410575867	fix_post	2		12	23.0	2.5	/experiments/AOT/AOT_stimuli/rescaled_final/1541_rv.mp4	0.0	175.055162191391	0.10000991821289062
26	139.54106402397156	fix_pre	0		119	24.0	2.5	/experiments/AOT/AOT_stimuli/rescaled_final/2000_rv.mp4	0.0	175.15517210960388	0.9916641712188721
26	140.52450919151306	pulse	0	t		24.0	2.5	/experiments/AOT/AOT_stimuli/rescaled_final/2000_rv.mp4	0.0	176.13861727714539	
26	140.53272819519043	movie	1		244	24.0	2.5	/experiments/AOT/AOT_stimuli/rescaled_final/2000_rv.mp4	0.0	176.14683628082275	2.5083398818969727
26	142.1248300075531	pulse	1	t		24.0	2.5	/experiments/AOT/AOT_stimuli/rescaled_final/2000_rv.mp4	0.0	177.73893809318542	
26	143.0410680770874	fix_post	2		12	24.0	2.5	/experiments/AOT/AOT_stimuli/rescaled_final/2000_rv.mp4	0.0	178.65517616271973	0.09994792938232422
27	143.14101600646973	fix_pre	0		120	25.0	2.5	/experiments/AOT/AOT_stimuli/rescaled_final/0407_rv.mp4	0.0	178.75512409210205	0.9996030330657959
27	143.72405099868774	pulse	0	t		25.0	2.5	/experiments/AOT/AOT_stimuli/rescaled_final/0407_rv.mp4	0.0	179.33815908432007	
27	144.14061903953552	movie	1		245	25.0	2.5	/experiments/AOT/AOT_stimuli/rescaled_final/0407_rv.mp4	0.0	179.75472712516785	2.500352144241333
27	145.32424211502075	pulse	1	t		25.0	2.5	/experiments/AOT/AOT_stimuli/rescaled_final/0407_rv.mp4	0.0	180.93835020065308	
27	146.64097118377686	fix_post	2		12	25.0	2.5	/experiments/AOT/AOT_stimuli/rescaled_final/0407_rv.mp4	0.0	182.25507926940918	0.10003399848937988
28	146.74100518226624	fix_pre	0		120	26.0	2.5	/experiments/AOT/AOT_stimuli/rescaled_final/0172_fw.mp4	0.0	182.35511326789856	1.000105857849121
28	146.92452812194824	pulse	0	t		26.0	2.5	/experiments/AOT/AOT_stimuli/rescaled_final/0172_fw.mp4	0.0	182.53863620758057	
28	147.74111104011536	movie	1		244	26.0	2.5	/experiments/AOT/AOT_stimuli/rescaled_final/0172_fw.mp4	0.0	183.35521912574768	2.4998600482940674
28	148.5243661403656	pulse	1	t		26.0	2.5	/experiments/AOT/AOT_stimuli/rescaled_final/0172_fw.mp4	0.0	184.13847422599792	
28	150.12319111824036	pulse	1	t		26.0	2.5	/experiments/AOT/AOT_stimuli/rescaled_final/0172_fw.mp4	0.0	185.73729920387268	
28	150.24097108840942	fix_post	2		12	26.0	2.5	/experiments/AOT/AOT_stimuli/rescaled_final/0172_fw.mp4	0.0	185.85507917404175	0.09998798370361328
29	150.34095907211304	fix_pre	0		120	27.0	2.5	blank	1.0	185.95506715774536	0.9998829364776611
29	151.3408420085907	movie	1		300	27.0	2.5	blank	1.0	186.95495009422302	2.500056028366089
29	151.7244291305542	pulse	1	t		27.0	2.5	blank	1.0	187.33853721618652	
29	153.3244001865387	pulse	1	t		27.0	2.5	blank	1.0	188.93850827217102	
29	153.8408980369568	fix_post	2		12	27.0	2.5	blank	1.0	189.4550061225891	0.09996914863586426
30	153.94086718559265	fix_pre	0		119	28.0	2.5	/experiments/AOT/AOT_stimuli/rescaled_final/0351_fw.mp4	0.0	189.55497527122498	0.9916858673095703
30	154.92445302009583	pulse	0	t		28.0	2.5	/experiments/AOT/AOT_stimuli/rescaled_final/0351_fw.mp4	0.0	190.53856110572815	
30	154.93255305290222	movie	1		247	28.0	2.5	/experiments/AOT/AOT_stimuli/rescaled_final/0351_fw.mp4	0.0	190.54666113853455	2.5082709789276123
30	156.523912191391	pulse	1	t		28.0	2.5	/experiments/AOT/AOT_stimuli/rescaled_final/0351_fw.mp4	0.0	192.13802027702332	
30	157.44082403182983	fix_post	2		12	28.0	2.5	/experiments/AOT/AOT_stimuli/rescaled_final/0351_fw.mp4	0.0	193.05493211746216	0.09963703155517578
31	157.540461063385	fix_pre	0		120	29.0	2.5	/experiments/AOT/AOT_stimuli/rescaled_final/0027_fw.mp4	0.0	193.15456914901733	1.0003750324249268
31	158.12438201904297	pulse	0	t		29.0	2.5	/experiments/AOT/AOT_stimuli/rescaled_final/0027_fw.mp4	0.0	193.7384901046753	
31	158.54083609580994	movie	1		243	29.0	2.5	/experiments/AOT/AOT_stimuli/rescaled_final/0027_fw.mp4	0.0	194.15494418144226	2.5000030994415283
31	159.72443103790283	pulse	1	t		29.0	2.5	/experiments/AOT/AOT_stimuli/rescaled_final/0027_fw.mp4	0.0	195.33853912353516	
31	161.04083919525146	fix_post	2		12	29.0	2.5	/experiments/AOT/AOT_stimuli/rescaled_final/0027_fw.mp4	0.0	196.6549472808838	0.10000181198120117
32	161.14084100723267	fix_pre	0		120	30.0	2.5	/experiments/AOT/AOT_stimuli/rescaled_final/0832_fw.mp4	0.0	196.754949092865	0.999608039855957
32	161.32438898086548	pulse	0	t		30.0	2.5	/experiments/AOT/AOT_stimuli/rescaled_final/0832_fw.mp4	0.0	196.9384970664978	
32	162.14044904708862	movie	1		245	30.0	2.5	/experiments/AOT/AOT_stimuli/rescaled_final/0832_fw.mp4	0.0	197.75455713272095	2.5004220008850098
32	162.9243140220642	pulse	1	t		30.0	2.5	/experiments/AOT/AOT_stimuli/rescaled_final/0832_fw.mp4	0.0	198.53842210769653	
32	164.52310419082642	pulse	1	t		30.0	2.5	/experiments/AOT/AOT_stimuli/rescaled_final/0832_fw.mp4	0.0	200.13721227645874	
32	164.64087104797363	fix_post	2		12	30.0	2.5	/experiments/AOT/AOT_stimuli/rescaled_final/0832_fw.mp4	0.0	200.25497913360596	0.10002803802490234
33	164.74089908599854	fix_pre	0		120	31.0	2.5	/experiments/AOT/AOT_stimuli/rescaled_final/0020_fw.mp4	0.0	200.35500717163086	0.9999599456787109
33	165.74085903167725	movie	1		245	31.0	2.5	/experiments/AOT/AOT_stimuli/rescaled_final/0020_fw.mp4	0.0	201.35496711730957	2.50007700920105
33	166.12435698509216	pulse	1	t		31.0	2.5	/experiments/AOT/AOT_stimuli/rescaled_final/0020_fw.mp4	0.0	201.7384650707245	
33	167.7244520187378	pulse	1	t		31.0	2.5	/experiments/AOT/AOT_stimuli/rescaled_final/0020_fw.mp4	0.0	203.33856010437012	
33	168.2409360408783	fix_post	2		12	31.0	2.5	/experiments/AOT/AOT_stimuli/rescaled_final/0020_fw.mp4	0.0	203.85504412651062	0.09943199157714844
34	168.34036803245544	fix_pre	0		119	32.0	2.5	/experiments/AOT/AOT_stimuli/rescaled_final/0501_fw.mp4	0.0	203.95447611808777	0.9921109676361084
34	169.32437896728516	pulse	0	t		32.0	2.5	/experiments/AOT/AOT_stimuli/rescaled_final/0501_fw.mp4	0.0	204.93848705291748	
34	169.33247900009155	movie	1		244	32.0	2.5	/experiments/AOT/AOT_stimuli/rescaled_final/0501_fw.mp4	0.0	204.94658708572388	2.5083260536193848
34	170.92392706871033	pulse	1	t		32.0	2.5	/experiments/AOT/AOT_stimuli/rescaled_final/0501_fw.mp4	0.0	206.53803515434265	
34	171.84080505371094	fix_post	2		12	32.0	2.5	/experiments/AOT/AOT_stimuli/rescaled_final/0501_fw.mp4	0.0	207.45491313934326	0.09996414184570312
35	171.94076919555664	fix_pre	0		120	33.0	2.5	/experiments/AOT/AOT_stimuli/rescaled_final/1220_rv.mp4	0.0	207.55487728118896	0.9995918273925781
35	172.52432298660278	pulse	0	t		33.0	2.5	/experiments/AOT/AOT_stimuli/rescaled_final/1220_rv.mp4	0.0	208.1384310722351	
35	172.94036102294922	movie	1		242	33.0	2.5	/experiments/AOT/AOT_stimuli/rescaled_final/1220_rv.mp4	0.0	208.55446910858154	2.5005199909210205
35	174.1244421005249	pulse	1	t		33.0	2.5	/experiments/AOT/AOT_stimuli/rescaled_final/1220_rv.mp4	0.0	209.73855018615723	
35	175.44088101387024	fix_post	2		12	33.0	2.5	/experiments/AOT/AOT_stimuli/rescaled_final/1220_rv.mp4	0.0	211.05498909950256	0.09991908073425293
36	175.5408000946045	fix_pre	0		120	34.0	2.5	blank	1.0	211.15490818023682	1.0000739097595215
36	175.7242910861969	pulse	0	t		34.0	2.5	blank	1.0	211.33839917182922	
36	176.540874004364	movie	1		300	34.0	2.5	blank	1.0	212.15498208999634	2.499965190887451
36	177.32434916496277	pulse	1	t		34.0	2.5	blank	1.0	212.9384572505951	
36	178.9242560863495	pulse	1	t		34.0	2.5	blank	1.0	214.5383641719818	
36	179.04083919525146	fix_post	2		12	34.0	2.5	blank	1.0	214.6549472808838	0.1000068187713623
37	179.14084601402283	fix_pre	0		120	35.0	2.5	/experiments/AOT/AOT_stimuli/rescaled_final/1986_fw.mp4	0.0	214.75495409965515	0.9999029636383057
37	180.14074897766113	movie	1		245	35.0	2.5	/experiments/AOT/AOT_stimuli/rescaled_final/1986_fw.mp4	0.0	215.75485706329346	2.5000860691070557
37	180.52405905723572	pulse	1	t		35.0	2.5	/experiments/AOT/AOT_stimuli/rescaled_final/1986_fw.mp4	0.0	216.13816714286804	
37	182.12427806854248	pulse	1	t		35.0	2.5	/experiments/AOT/AOT_stimuli/rescaled_final/1986_fw.mp4	0.0	217.7383861541748	
37	182.6408350467682	fix_post	2		12	35.0	2.5	/experiments/AOT/AOT_stimuli/rescaled_final/1986_fw.mp4	0.0	218.2549431324005	0.09998393058776855
38	182.74081897735596	fix_pre	0		119	36.0	2.5	/experiments/AOT/AOT_stimuli/rescaled_final/1989_fw.mp4	0.0	218.35492706298828	0.9915580749511719
38	183.72423219680786	pulse	0	t		36.0	2.5	/experiments/AOT/AOT_stimuli/rescaled_final/1989_fw.mp4	0.0	219.33834028244019	
38	183.73237705230713	movie	1		246	36.0	2.5	/experiments/AOT/AOT_stimuli/rescaled_final/1989_fw.mp4	0.0	219.34648513793945	2.5079290866851807
38	185.3242371082306	pulse	1	t		36.0	2.5	/experiments/AOT/AOT_stimuli/rescaled_final/1989_fw.mp4	0.0	220.93834519386292	
38	186.2403061389923	fix_post	2		12	36.0	2.5	/experiments/AOT/AOT_stimuli/rescaled_final/1989_fw.mp4	0.0	221.85441422462463	0.1005239486694336
39	186.34083008766174	fix_pre	0		120	37.0	2.5	/experiments/AOT/AOT_stimuli/rescaled_final/0347_fw.mp4	0.0	221.95493817329407	0.9999980926513672
39	186.92433500289917	pulse	0	t		37.0	2.5	/experiments/AOT/AOT_stimuli/rescaled_final/0347_fw.mp4	0.0	222.5384430885315	
39	187.3408281803131	movie	1		243	37.0	2.5	/experiments/AOT/AOT_stimuli/rescaled_final/0347_fw.mp4	0.0	222.95493626594543	2.4999029636383057
39	188.5244061946869	pulse	1	t		37.0	2.5	/experiments/AOT/AOT_stimuli/rescaled_final/0347_fw.mp4	0.0	224.1385142803192	
39	189.84073114395142	fix_post	2		12	37.0	2.5	/experiments/AOT/AOT_stimuli/rescaled_final/0347_fw.mp4	0.0	225.45483922958374	0.10000991821289062
40	189.9407410621643	fix_pre	0		120	38.0	2.5	/experiments/AOT/AOT_stimuli/rescaled_final/1497_rv.mp4	0.0	225.55484914779663	1.0000269412994385
40	190.1242651939392	pulse	0	t		38.0	2.5	/experiments/AOT/AOT_stimuli/rescaled_final/1497_rv.mp4	0.0	225.73837327957153	
40	190.94076800346375	movie	1		244	38.0	2.5	/experiments/AOT/AOT_stimuli/rescaled_final/1497_rv.mp4	0.0	226.55487608909607	2.4995460510253906
40	191.7242431640625	pulse	1	t		38.0	2.5	/experiments/AOT/AOT_stimuli/rescaled_final/1497_rv.mp4	0.0	227.33835124969482	
40	193.32281613349915	pulse	1	t		38.0	2.5	/experiments/AOT/AOT_stimuli/rescaled_final/1497_rv.mp4	0.0	228.93692421913147	
40	193.44031405448914	fix_post	2		12	38.0	2.5	/experiments/AOT/AOT_stimuli/rescaled_final/1497_rv.mp4	0.0	229.05442214012146	0.09996294975280762
41	193.54027700424194	fix_pre	0		120	39.0	2.5	/experiments/AOT/AOT_stimuli/rescaled_final/2073_rv.mp4	0.0	229.15438508987427	1.000439167022705
41	194.54071617126465	movie	1		244	39.0	2.5	/experiments/AOT/AOT_stimuli/rescaled_final/2073_rv.mp4	0.0	230.15482425689697	2.499521017074585
41	194.92417001724243	pulse	1	t		39.0	2.5	/experiments/AOT/AOT_stimuli/rescaled_final/2073_rv.mp4	0.0	230.53827810287476	
41	196.5242521762848	pulse	1	t		39.0	2.5	/experiments/AOT/AOT_stimuli/rescaled_final/2073_rv.mp4	0.0	232.13836026191711	
41	197.04023718833923	fix_post	2		12	39.0	2.5	/experiments/AOT/AOT_stimuli/rescaled_final/2073_rv.mp4	0.0	232.65434527397156	0.10052299499511719
42	197.14076018333435	fix_pre	0		119	40.0	2.5	/experiments/AOT/AOT_stimuli/rescaled_final/0583_rv.mp4	0.0	232.75486826896667	0.9916198253631592
42	198.1242151260376	pulse	0	t		40.0	2.5	/experiments/AOT/AOT_stimuli/rescaled_final/0583_rv.mp4	0.0	233.73832321166992	
42	198.1323800086975	movie	1		246	40.0	2.5	/experiments/AOT/AOT_stimuli/rescaled_final/0583_rv.mp4	0.0	233.74648809432983	2.508538007736206
42	199.72348618507385	pulse	1	t		40.0	2.5	/experiments/AOT/AOT_stimuli/rescaled_final/0583_rv.mp4	0.0	235.33759427070618	
42	200.64091801643372	fix_post	2		12	40.0	2.5	/experiments/AOT/AOT_stimuli/rescaled_final/0583_rv.mp4	0.0	236.25502610206604	0.09984517097473145
43	200.74076318740845	fix_pre	0		120	41.0	2.5	/experiments/AOT/AOT_stimuli/rescaled_final/1429_fw.mp4	0.0	236.35487127304077	0.9997429847717285
43	201.32395911216736	pulse	0	t		41.0	2.5	/experiments/AOT/AOT_stimuli/rescaled_final/1429_fw.mp4	0.0	236.93806719779968	
43	201.74050617218018	movie	1		245	41.0	2.5	/experiments/AOT/AOT_stimuli/rescaled_final/1429_fw.mp4	0.0	237.3546142578125	2.4997739791870117
43	202.92423009872437	pulse	1	t		41.0	2.5	/experiments/AOT/AOT_stimuli/rescaled_final/1429_fw.mp4	0.0	238.5383381843567	
43	204.2402801513672	fix_post	2		12	41.0	2.5	/experiments/AOT/AOT_stimuli/rescaled_final/1429_fw.mp4	0.0	239.8543882369995	0.10002994537353516
44	204.34031009674072	fix_pre	0		120	42.0	2.5	blank	1.0	239.95441818237305	1.0003819465637207
44	204.52419304847717	pulse	0	t		42.0	2.5	blank	1.0	240.1383011341095	
44	205.34069204330444	movie	1		300	42.0	2.5	blank	1.0	240.95480012893677	2.4999101161956787
44	206.1241900920868	pulse	1	t		42.0	2.5	blank	1.0	241.73829817771912	
44	207.72412610054016	pulse	1	t		42.0	2.5	blank	1.0	243.33823418617249	
44	207.84060215950012	fix_post	2		12	42.0	2.5	blank	1.0	243.45471024513245	0.09968280792236328
45	207.94028496742249	fix_pre	0		120	43.0	2.5	/experiments/AOT/AOT_stimuli/rescaled_final/0832_rv.mp4	0.0	243.5543930530548	1.0003681182861328
45	208.94065308570862	movie	1		244	43.0	2.5	/experiments/AOT/AOT_stimuli/rescaled_final/0832_rv.mp4	0.0	244.55476117134094	2.499943971633911
45	209.32374215126038	pulse	1	t		43.0	2.5	/experiments/AOT/AOT_stimuli/rescaled_final/0832_rv.mp4	0.0	244.9378502368927	
45	210.9241189956665	pulse	1	t		43.0	2.5	/experiments/AOT/AOT_stimuli/rescaled_final/0832_rv.mp4	0.0	246.53822708129883	
45	211.44059705734253	fix_post	2		12	43.0	2.5	/experiments/AOT/AOT_stimuli/rescaled_final/0832_rv.mp4	0.0	247.05470514297485	0.09999704360961914
46	211.54059410095215	fix_pre	0		119	44.0	2.5	/experiments/AOT/AOT_stimuli/rescaled_final/0906_rv.mp4	0.0	247.15470218658447	0.9916799068450928
46	212.52418899536133	pulse	0	t		44.0	2.5	/experiments/AOT/AOT_stimuli/rescaled_final/0906_rv.mp4	0.0	248.13829708099365	
46	212.53227400779724	movie	1		247	44.0	2.5	/experiments/AOT/AOT_stimuli/rescaled_final/0906_rv.mp4	0.0	248.14638209342957	2.5083279609680176
46	214.12534403800964	pulse	1	t		44.0	2.5	/experiments/AOT/AOT_stimuli/rescaled_final/0906_rv.mp4	0.0	249.73945212364197	
46	215.04060196876526	fix_post	2		12	44.0	2.5	/experiments/AOT/AOT_stimuli/rescaled_final/0906_rv.mp4	0.0	250.65471005439758	0.09999418258666992
47	215.14059615135193	fix_pre	0		120	45.0	2.5	/experiments/AOT/AOT_stimuli/rescaled_final/1062_rv.mp4	0.0	250.75470423698425	0.9999868869781494
47	215.72414112091064	pulse	0	t		45.0	2.5	/experiments/AOT/AOT_stimuli/rescaled_final/1062_rv.mp4	0.0	251.33824920654297	
47	216.14058303833008	movie	1		244	45.0	2.5	/experiments/AOT/AOT_stimuli/rescaled_final/1062_rv.mp4	0.0	251.7546911239624	2.500025987625122
47	217.32421898841858	pulse	1	t		45.0	2.5	/experiments/AOT/AOT_stimuli/rescaled_final/1062_rv.mp4	0.0	252.9383270740509	
47	218.6406090259552	fix_post	2		12	45.0	2.5	/experiments/AOT/AOT_stimuli/rescaled_final/1062_rv.mp4	0.0	254.25471711158752	0.09993195533752441
48	218.74054098129272	fix_pre	0		120	46.0	2.5	/experiments/AOT/AOT_stimuli/rescaled_final/0875_fw.mp4	0.0	254.35464906692505	1.0000290870666504
48	218.9241180419922	pulse	0	t		46.0	2.5	/experiments/AOT/AOT_stimuli/rescaled_final/0875_fw.mp4	0.0	254.5382261276245	
48	219.74057006835938	movie	1		245	46.0	2.5	/experiments/AOT/AOT_stimuli/rescaled_final/0875_fw.mp4	0.0	255.3546781539917	2.4999840259552
48	220.52411103248596	pulse	1	t		46.0	2.5	/experiments/AOT/AOT_stimuli/rescaled_final/0875_fw.mp4	0.0	256.1382191181183	
48	222.1222951412201	pulse	1	t		46.0	2.5	/experiments/AOT/AOT_stimuli/rescaled_final/0875_fw.mp4	0.0	257.7364032268524	
48	222.24055409431458	fix_post	2		12	46.0	2.5	/experiments/AOT/AOT_stimuli/rescaled_final/0875_fw.mp4	0.0	257.8546621799469	0.09995889663696289
49	222.34051299095154	fix_pre	0		120	47.0	2.5	/experiments/AOT/AOT_stimuli/rescaled_final/1356_fw.mp4	0.0	257.95462107658386	0.9999961853027344
49	223.34050917625427	movie	1		246	47.0	2.5	/experiments/AOT/AOT_stimuli/rescaled_final/1356_fw.mp4	0.0	258.9546172618866	2.500098943710327
49	223.72376108169556	pulse	1	t		47.0	2.5	/experiments/AOT/AOT_stimuli/rescaled_final/1356_fw.mp4	0.0	259.3378691673279	
49	225.32404899597168	pulse	1	t		47.0	2.5	/experiments/AOT/AOT_stimuli/rescaled_final/1356_fw.mp4	0.0	260.938157081604	
49	225.8406081199646	fix_post	2		12	47.0	2.5	/experiments/AOT/AOT_stimuli/rescaled_final/1356_fw.mp4	0.0	261.4547162055969	0.09992003440856934
50	225.94052815437317	fix_pre	0		119	48.0	2.5	/experiments/AOT/AOT_stimuli/rescaled_final/1230_rv.mp4	0.0	261.5546362400055	0.9916439056396484
50	226.9241030216217	pulse	0	t		48.0	2.5	/experiments/AOT/AOT_stimuli/rescaled_final/1230_rv.mp4	0.0	262.538211107254	
50	226.93217206001282	movie	1		248	48.0	2.5	/experiments/AOT/AOT_stimuli/rescaled_final/1230_rv.mp4	0.0	262.54628014564514	2.508323907852173
50	228.5252070426941	pulse	1	t		48.0	2.5	/experiments/AOT/AOT_stimuli/rescaled_final/1230_rv.mp4	0.0	264.1393151283264	
50	229.440495967865	fix_post	2		12	48.0	2.5	/experiments/AOT/AOT_stimuli/rescaled_final/1230_rv.mp4	0.0	265.0546040534973	0.10009908676147461
51	229.54059505462646	fix_pre	0		120	49.0	2.5	blank	1.0	265.1547031402588	0.9999361038208008
51	230.12405920028687	pulse	0	t		49.0	2.5	blank	1.0	265.7381672859192	
51	230.54053115844727	movie	1		300	49.0	2.5	blank	1.0	266.1546392440796	2.4999849796295166
51	231.72398400306702	pulse	1	t		49.0	2.5	blank	1.0	267.33809208869934	
51	233.04051613807678	fix_post	2		12	49.0	2.5	blank	1.0	268.6546242237091	0.09997200965881348
52	233.1404881477356	fix_pre	0		120	50.0	2.5	/experiments/AOT/AOT_stimuli/rescaled_final/1913_rv.mp4	0.0	268.7545962333679	0.9995980262756348
52	233.32400798797607	pulse	0	t		50.0	2.5	/experiments/AOT/AOT_stimuli/rescaled_final/1913_rv.mp4	0.0	268.9381160736084	
52	234.14008617401123	movie	1		244	50.0	2.5	/experiments/AOT/AOT_stimuli/rescaled_final/1913_rv.mp4	0.0	269.75419425964355	2.499976873397827
52	234.92401218414307	pulse	1	t		50.0	2.5	/experiments/AOT/AOT_stimuli/rescaled_final/1913_rv.mp4	0.0	270.5381202697754	
52	236.52261400222778	pulse	1	t		50.0	2.5	/experiments/AOT/AOT_stimuli/rescaled_final/1913_rv.mp4	0.0	272.1367220878601	
52	236.64006304740906	fix_post	2		12	50.0	2.5	/experiments/AOT/AOT_stimuli/rescaled_final/1913_rv.mp4	0.0	272.2541711330414	0.10052299499511719
53	236.74058604240417	fix_pre	0		120	51.0	2.5	/experiments/AOT/AOT_stimuli/rescaled_final/1021_fw.mp4	0.0	272.3546941280365	0.9999160766601562
53	237.74050211906433	movie	1		244	51.0	2.5	/experiments/AOT/AOT_stimuli/rescaled_final/1021_fw.mp4	0.0	273.35461020469666	2.49953293800354
53	238.12348198890686	pulse	1	t		51.0	2.5	/experiments/AOT/AOT_stimuli/rescaled_final/1021_fw.mp4	0.0	273.7375900745392	
53	239.72397303581238	pulse	1	t		51.0	2.5	/experiments/AOT/AOT_stimuli/rescaled_final/1021_fw.mp4	0.0	275.3380811214447	
53	240.24003505706787	fix_post	2		12	51.0	2.5	/experiments/AOT/AOT_stimuli/rescaled_final/1021_fw.mp4	0.0	275.8541431427002	0.10006594657897949
54	240.34010100364685	fix_pre	0		119	52.0	2.5	/experiments/AOT/AOT_stimuli/rescaled_final/1453_fw.mp4	0.0	275.9542090892792	0.9920949935913086
54	241.3240261077881	pulse	0	t		52.0	2.5	/experiments/AOT/AOT_stimuli/rescaled_final/1453_fw.mp4	0.0	276.9381341934204	
54	241.33219599723816	movie	1		247	52.0	2.5	/experiments/AOT/AOT_stimuli/rescaled_final/1453_fw.mp4	0.0	276.9463040828705	2.5078670978546143
54	242.92353415489197	pulse	1	t		52.0	2.5	/experiments/AOT/AOT_stimuli/rescaled_final/1453_fw.mp4	0.0	278.5376422405243	
54	243.84006309509277	fix_post	2		12	52.0	2.5	/experiments/AOT/AOT_stimuli/rescaled_final/1453_fw.mp4	0.0	279.4541711807251	0.10038495063781738
55	243.9404480457306	fix_pre	0		120	53.0	2.5	/experiments/AOT/AOT_stimuli/rescaled_final/0540_rv.mp4	0.0	279.5545561313629	1.0000619888305664
55	244.5240089893341	pulse	0	t		53.0	2.5	/experiments/AOT/AOT_stimuli/rescaled_final/0540_rv.mp4	0.0	280.13811707496643	
55	244.94051003456116	movie	1		246	53.0	2.5	/experiments/AOT/AOT_stimuli/rescaled_final/0540_rv.mp4	0.0	280.5546181201935	2.500019073486328
55	246.12402415275574	pulse	1	t		53.0	2.5	/experiments/AOT/AOT_stimuli/rescaled_final/0540_rv.mp4	0.0	281.73813223838806	
55	247.44052910804749	fix_post	2		12	53.0	2.5	/experiments/AOT/AOT_stimuli/rescaled_final/0540_rv.mp4	0.0	283.0546371936798	0.09995698928833008
56	247.54048609733582	fix_pre	0		120	54.0	2.5	/experiments/AOT/AOT_stimuli/rescaled_final/0053_rv.mp4	0.0	283.15459418296814	0.9999260902404785
56	247.724023103714	pulse	0	t		54.0	2.5	/experiments/AOT/AOT_stimuli/rescaled_final/0053_rv.mp4	0.0	283.3381311893463	
56	248.5404121875763	movie	1		243	54.0	2.5	/experiments/AOT/AOT_stimuli/rescaled_final/0053_rv.mp4	0.0	284.1545202732086	2.500006914138794
56	249.3239130973816	pulse	1	t		54.0	2.5	/experiments/AOT/AOT_stimuli/rescaled_final/0053_rv.mp4	0.0	284.9380211830139	
56	250.92260599136353	pulse	1	t		54.0	2.5	/experiments/AOT/AOT_stimuli/rescaled_final/0053_rv.mp4	0.0	286.53671407699585	
56	251.0404191017151	fix_post	2		12	54.0	2.5	/experiments/AOT/AOT_stimuli/rescaled_final/0053_rv.mp4	0.0	286.6545271873474	0.09999895095825195
57	251.14041805267334	fix_pre	0		120	55.0	2.5	/experiments/AOT/AOT_stimuli/rescaled_final/0618_fw.mp4	0.0	286.75452613830566	0.9996130466461182
57	252.14003109931946	movie	1		248	55.0	2.5	/experiments/AOT/AOT_stimuli/rescaled_final/0618_fw.mp4	0.0	287.7541391849518	2.5004119873046875
57	252.52485918998718	pulse	1	t		55.0	2.5	/experiments/AOT/AOT_stimuli/rescaled_final/0618_fw.mp4	0.0	288.1389672756195	
57	254.12391710281372	pulse	1	t		55.0	2.5	/experiments/AOT/AOT_stimuli/rescaled_final/0618_fw.mp4	0.0	289.73802518844604	
57	254.64044308662415	fix_post	2		12	55.0	2.5	/experiments/AOT/AOT_stimuli/rescaled_final/0618_fw.mp4	0.0	290.25455117225647	0.10004591941833496
58	254.74048900604248	fix_pre	0		119	56.0	2.5	blank	1.0	290.3545970916748	0.9912099838256836
58	255.72361397743225	pulse	0	t		56.0	2.5	blank	1.0	291.3377220630646	
58	255.73169898986816	movie	1		301	56.0	2.5	blank	1.0	291.3458070755005	2.5086770057678223
58	257.3237290382385	pulse	1	t		56.0	2.5	blank	1.0	292.93783712387085	
58	258.240375995636	fix_post	2		12	56.0	2.5	blank	1.0	293.8544840812683	0.10002398490905762
59	258.34039998054504	fix_pre	0		120	57.0	2.5	/experiments/AOT/AOT_stimuli/rescaled_final/2157_rv.mp4	0.0	293.95450806617737	1.0000150203704834
59	258.9240050315857	pulse	0	t		57.0	2.5	/experiments/AOT/AOT_stimuli/rescaled_final/2157_rv.mp4	0.0	294.538113117218	
59	259.3404150009155	movie	1		243	57.0	2.5	/experiments/AOT/AOT_stimuli/rescaled_final/2157_rv.mp4	0.0	294.95452308654785	2.499974012374878
59	260.5239281654358	pulse	1	t		57.0	2.5	/experiments/AOT/AOT_stimuli/rescaled_final/2157_rv.mp4	0.0	296.1380362510681	
59	261.8403890132904	fix_post	2		12	57.0	2.5	/experiments/AOT/AOT_stimuli/rescaled_final/2157_rv.mp4	0.0	297.45449709892273	0.10013818740844727
60	261.94052720069885	fix_pre	0		120	58.0	2.5	/experiments/AOT/AOT_stimuli/rescaled_final/0445_rv.mp4	0.0	297.5546352863312	0.9998059272766113
60	262.1239800453186	pulse	0	t		58.0	2.5	/experiments/AOT/AOT_stimuli/rescaled_final/0445_rv.mp4	0.0	297.7380881309509	
60	262.94033312797546	movie	1		243	58.0	2.5	/experiments/AOT/AOT_stimuli/rescaled_final/0445_rv.mp4	0.0	298.5544412136078	2.500035047531128
60	263.72379302978516	pulse	1	t		58.0	2.5	/experiments/AOT/AOT_stimuli/rescaled_final/0445_rv.mp4	0.0	299.3379011154175	
60	265.3223011493683	pulse	1	t		58.0	2.5	/experiments/AOT/AOT_stimuli/rescaled_final/0445_rv.mp4	0.0	300.9364092350006	
60	265.4403681755066	fix_post	2		12	58.0	2.5	/experiments/AOT/AOT_stimuli/rescaled_final/0445_rv.mp4	0.0	301.0544762611389	0.09993481636047363
61	265.54030299186707	fix_pre	0		120	59.0	2.5	/experiments/AOT/AOT_stimuli/rescaled_final/1203_rv.mp4	0.0	301.1544110774994	0.9996681213378906
61	266.53997111320496	movie	1		246	59.0	2.5	/experiments/AOT/AOT_stimuli/rescaled_final/1203_rv.mp4	0.0	302.1540791988373	2.500257968902588
61	266.9236650466919	pulse	1	t		59.0	2.5	/experiments/AOT/AOT_stimuli/rescaled_final/1203_rv.mp4	0.0	302.5377731323242	
61	268.52387714385986	pulse	1	t		59.0	2.5	/experiments/AOT/AOT_stimuli/rescaled_final/1203_rv.mp4	0.0	304.1379852294922	
61	269.04022908210754	fix_post	2		12	59.0	2.5	/experiments/AOT/AOT_stimuli/rescaled_final/1203_rv.mp4	0.0	304.65433716773987	0.10012388229370117
62	269.14035296440125	fix_pre	0		119	60.0	2.5	/experiments/AOT/AOT_stimuli/rescaled_final/1272_rv.mp4	0.0	304.75446105003357	0.9916861057281494
62	270.1238100528717	pulse	0	t		60.0	2.5	/experiments/AOT/AOT_stimuli/rescaled_final/1272_rv.mp4	0.0	305.737918138504	
62	270.1320390701294	movie	1		248	60.0	2.5	/experiments/AOT/AOT_stimuli/rescaled_final/1272_rv.mp4	0.0	305.7461471557617	2.508445978164673
62	271.7233531475067	pulse	1	t		60.0	2.5	/experiments/AOT/AOT_stimuli/rescaled_final/1272_rv.mp4	0.0	307.33746123313904	
62	272.64048504829407	fix_post	2		12	60.0	2.5	/experiments/AOT/AOT_stimuli/rescaled_final/1272_rv.mp4	0.0	308.2545931339264	0.09988999366760254
63	272.74037504196167	fix_pre	0		120	61.0	2.5	blank	1.0	308.354483127594	1.0000550746917725
63	273.32382011413574	pulse	0	t		61.0	2.5	blank	1.0	308.93792819976807	
63	273.74043011665344	movie	1		300	61.0	2.5	blank	1.0	309.35453820228577	2.4999659061431885
63	274.9238431453705	pulse	1	t		61.0	2.5	blank	1.0	310.5379512310028	
63	276.24039602279663	fix_post	2		12	61.0	2.5	blank	1.0	311.85450410842896	0.09989500045776367
64	276.3402910232544	fix_pre	0		120	62.0	2.5	/experiments/AOT/AOT_stimuli/rescaled_final/2101_rv.mp4	0.0	311.9543991088867	1.000040054321289
64	276.5238721370697	pulse	0	t		62.0	2.5	/experiments/AOT/AOT_stimuli/rescaled_final/2101_rv.mp4	0.0	312.137980222702	
64	277.3403310775757	movie	1		244	62.0	2.5	/experiments/AOT/AOT_stimuli/rescaled_final/2101_rv.mp4	0.0	312.954439163208	2.4995639324188232
64	278.1238901615143	pulse	1	t		62.0	2.5	/experiments/AOT/AOT_stimuli/rescaled_final/2101_rv.mp4	0.0	313.7379982471466	
64	279.7224090099335	pulse	1	t		62.0	2.5	/experiments/AOT/AOT_stimuli/rescaled_final/2101_rv.mp4	0.0	315.3365170955658	
64	279.8398950099945	fix_post	2		12	62.0	2.5	/experiments/AOT/AOT_stimuli/rescaled_final/2101_rv.mp4	0.0	315.45400309562683	0.10043001174926758
65	279.9403250217438	fix_pre	0		120	63.0	2.5	/experiments/AOT/AOT_stimuli/rescaled_final/1328_fw.mp4	0.0	315.5544331073761	1.0000450611114502
65	280.9403700828552	movie	1		244	63.0	2.5	/experiments/AOT/AOT_stimuli/rescaled_final/1328_fw.mp4	0.0	316.55447816848755	2.4998960494995117
65	281.32344102859497	pulse	1	t		63.0	2.5	/experiments/AOT/AOT_stimuli/rescaled_final/1328_fw.mp4	0.0	316.9375491142273	
65	282.9238061904907	pulse	1	t		63.0	2.5	/experiments/AOT/AOT_stimuli/rescaled_final/1328_fw.mp4	0.0	318.53791427612305	
65	283.44026613235474	fix_post	2		12	63.0	2.5	/experiments/AOT/AOT_stimuli/rescaled_final/1328_fw.mp4	0.0	319.05437421798706	0.09999489784240723
66	283.54026103019714	fix_pre	0		119	64.0	2.5	/experiments/AOT/AOT_stimuli/rescaled_final/1376_fw.mp4	0.0	319.15436911582947	0.9916970729827881
66	284.523864030838	pulse	0	t		64.0	2.5	/experiments/AOT/AOT_stimuli/rescaled_final/1376_fw.mp4	0.0	320.13797211647034	
66	284.53195810317993	movie	1		245	64.0	2.5	/experiments/AOT/AOT_stimuli/rescaled_final/1376_fw.mp4	0.0	320.14606618881226	2.5078659057617188
66	286.1251060962677	pulse	1	t		64.0	2.5	/experiments/AOT/AOT_stimuli/rescaled_final/1376_fw.mp4	0.0	321.7392141819	
66	287.03982400894165	fix_post	2		12	64.0	2.5	/experiments/AOT/AOT_stimuli/rescaled_final/1376_fw.mp4	0.0	322.653932094574	0.10046815872192383
67	287.1402921676636	fix_pre	0		120	65.0	2.5	/experiments/AOT/AOT_stimuli/rescaled_final/0861_rv.mp4	0.0	322.7544002532959	1.0000088214874268
67	287.72376108169556	pulse	0	t		65.0	2.5	/experiments/AOT/AOT_stimuli/rescaled_final/0861_rv.mp4	0.0	323.3378691673279	
67	288.140300989151	movie	1		245	65.0	2.5	/experiments/AOT/AOT_stimuli/rescaled_final/0861_rv.mp4	0.0	323.7544090747833	2.499936103820801
67	289.32371401786804	pulse	1	t		65.0	2.5	/experiments/AOT/AOT_stimuli/rescaled_final/0861_rv.mp4	0.0	324.93782210350037	
67	290.6402370929718	fix_post	2		12	65.0	2.5	/experiments/AOT/AOT_stimuli/rescaled_final/0861_rv.mp4	0.0	326.2543451786041	0.09995198249816895
68	290.74018907546997	fix_pre	0		120	66.0	2.5	/experiments/AOT/AOT_stimuli/rescaled_final/1921_rv.mp4	0.0	326.3542971611023	1.0000429153442383
68	290.92369198799133	pulse	0	t		66.0	2.5	/experiments/AOT/AOT_stimuli/rescaled_final/1921_rv.mp4	0.0	326.53780007362366	
68	291.7402319908142	movie	1		244	66.0	2.5	/experiments/AOT/AOT_stimuli/rescaled_final/1921_rv.mp4	0.0	327.35434007644653	2.499925136566162
68	292.52373600006104	pulse	1	t		66.0	2.5	/experiments/AOT/AOT_stimuli/rescaled_final/1921_rv.mp4	0.0	328.13784408569336	
68	294.12218713760376	pulse	1	t		66.0	2.5	/experiments/AOT/AOT_stimuli/rescaled_final/1921_rv.mp4	0.0	329.7362952232361	
68	294.24015712738037	fix_post	2		12	66.0	2.5	/experiments/AOT/AOT_stimuli/rescaled_final/1921_rv.mp4	0.0	329.8542652130127	0.10005784034729004
69	294.34021496772766	fix_pre	0		120	67.0	2.5	/experiments/AOT/AOT_stimuli/rescaled_final/0469_fw.mp4	0.0	329.95432305336	0.9999241828918457
69	295.3401391506195	movie	1		244	67.0	2.5	/experiments/AOT/AOT_stimuli/rescaled_final/0469_fw.mp4	0.0	330.95424723625183	2.5000720024108887
69	295.7237741947174	pulse	1	t		67.0	2.5	/experiments/AOT/AOT_stimuli/rescaled_final/0469_fw.mp4	0.0	331.33788228034973	
69	297.3237180709839	pulse	1	t		67.0	2.5	/experiments/AOT/AOT_stimuli/rescaled_final/0469_fw.mp4	0.0	332.9378261566162	
69	297.8402111530304	fix_post	2		12	67.0	2.5	/experiments/AOT/AOT_stimuli/rescaled_final/0469_fw.mp4	0.0	333.4543192386627	0.10014581680297852
70	297.9403569698334	fix_pre	0		119	68.0	2.5	blank	1.0	333.5544650554657	0.9914760589599609
70	298.9238200187683	pulse	0	t		68.0	2.5	blank	1.0	334.53792810440063	
70	298.93183302879333	movie	1		301	68.0	2.5	blank	1.0	334.54594111442566	2.5083861351013184
70	300.52370619773865	pulse	1	t		68.0	2.5	blank	1.0	336.137814283371	
70	301.44021916389465	fix_post	2		12	68.0	2.5	blank	1.0	337.054327249527	0.10003900527954102
71	301.5402581691742	fix_pre	0		120	69.0	2.5	/experiments/AOT/AOT_stimuli/rescaled_final/2157_fw.mp4	0.0	337.1543662548065	0.9998989105224609
71	302.1236720085144	pulse	0	t		69.0	2.5	/experiments/AOT/AOT_stimuli/rescaled_final/2157_fw.mp4	0.0	337.73778009414673	
71	302.54015707969666	movie	1		243	69.0	2.5	/experiments/AOT/AOT_stimuli/rescaled_final/2157_fw.mp4	0.0	338.154265165329	2.5001649856567383
71	303.72376799583435	pulse	1	t		69.0	2.5	/experiments/AOT/AOT_stimuli/rescaled_final/2157_fw.mp4	0.0	339.3378760814667	
71	305.0403220653534	fix_post	2		12	69.0	2.5	/experiments/AOT/AOT_stimuli/rescaled_final/2157_fw.mp4	0.0	340.6544301509857	0.09990811347961426
72	305.140230178833	fix_pre	0		120	70.0	2.5	/experiments/AOT/AOT_stimuli/rescaled_final/1921_rv.mp4	0.0	340.75433826446533	0.9999909400939941
72	305.32381319999695	pulse	0	t		70.0	2.5	/experiments/AOT/AOT_stimuli/rescaled_final/1921_rv.mp4	0.0	340.9379212856293	
72	306.140221118927	movie	1		243	70.0	2.5	/experiments/AOT/AOT_stimuli/rescaled_final/1921_rv.mp4	0.0	341.7543292045593	2.500011920928955
72	306.9236481189728	pulse	1	t		70.0	2.5	/experiments/AOT/AOT_stimuli/rescaled_final/1921_rv.mp4	0.0	342.5377562046051	
72	308.52190113067627	pulse	1	t		70.0	2.5	/experiments/AOT/AOT_stimuli/rescaled_final/1921_rv.mp4	0.0	344.1360092163086	
72	308.64023303985596	fix_post	2		12	70.0	2.5	/experiments/AOT/AOT_stimuli/rescaled_final/1921_rv.mp4	0.0	344.2543411254883	0.09996700286865234
73	308.7402000427246	fix_pre	0		120	71.0	2.5	/experiments/AOT/AOT_stimuli/rescaled_final/0011_rv.mp4	0.0	344.35430812835693	0.9995229244232178
73	309.7397229671478	movie	1		246	71.0	2.5	/experiments/AOT/AOT_stimuli/rescaled_final/0011_rv.mp4	0.0	345.35383105278015	2.50004506111145
73	310.12382197380066	pulse	1	t		71.0	2.5	/experiments/AOT/AOT_stimuli/rescaled_final/0011_rv.mp4	0.0	345.737930059433	
73	311.72313117980957	pulse	1	t		71.0	2.5	/experiments/AOT/AOT_stimuli/rescaled_final/0011_rv.mp4	0.0	347.3372392654419	
73	312.2397680282593	fix_post	2		12	71.0	2.5	/experiments/AOT/AOT_stimuli/rescaled_final/0011_rv.mp4	0.0	347.8538761138916	0.10008716583251953
74	312.3398551940918	fix_pre	0		119	72.0	2.5	/experiments/AOT/AOT_stimuli/rescaled_final/0100_rv.mp4	0.0	347.9539632797241	0.9921669960021973
74	313.3238492012024	pulse	0	t		72.0	2.5	/experiments/AOT/AOT_stimuli/rescaled_final/0100_rv.mp4	0.0	348.9379572868347	
74	313.332022190094	movie	1		247	72.0	2.5	/experiments/AOT/AOT_stimuli/rescaled_final/0100_rv.mp4	0.0	348.9461302757263	2.508204936981201
74	314.9233911037445	pulse	1	t		72.0	2.5	/experiments/AOT/AOT_stimuli/rescaled_final/0100_rv.mp4	0.0	350.53749918937683	
74	315.8402271270752	fix_post	2		12	72.0	2.5	/experiments/AOT/AOT_stimuli/rescaled_final/0100_rv.mp4	0.0	351.4543352127075	0.09986686706542969
75	315.9400939941406	fix_pre	0		120	73.0	2.5	/experiments/AOT/AOT_stimuli/rescaled_final/0020_fw.mp4	0.0	351.55420207977295	1.0000441074371338
75	316.5235891342163	pulse	0	t		73.0	2.5	/experiments/AOT/AOT_stimuli/rescaled_final/0020_fw.mp4	0.0	352.13769721984863	
75	316.94013810157776	movie	1		247	73.0	2.5	/experiments/AOT/AOT_stimuli/rescaled_final/0020_fw.mp4	0.0	352.5542461872101	2.49992299079895
75	318.1236391067505	pulse	1	t		73.0	2.5	/experiments/AOT/AOT_stimuli/rescaled_final/0020_fw.mp4	0.0	353.7377471923828	
75	319.4400610923767	fix_post	2		12	73.0	2.5	/experiments/AOT/AOT_stimuli/rescaled_final/0020_fw.mp4	0.0	355.05416917800903	0.09997797012329102
76	319.5400390625	fix_pre	0		120	74.0	2.5	/experiments/AOT/AOT_stimuli/rescaled_final/1213_rv.mp4	0.0	355.1541471481323	1.000072956085205
76	319.7235891819	pulse	0	t		74.0	2.5	/experiments/AOT/AOT_stimuli/rescaled_final/1213_rv.mp4	0.0	355.33769726753235	
76	320.5401120185852	movie	1		246	74.0	2.5	/experiments/AOT/AOT_stimuli/rescaled_final/1213_rv.mp4	0.0	356.15422010421753	2.499911069869995
76	321.32353806495667	pulse	1	t		74.0	2.5	/experiments/AOT/AOT_stimuli/rescaled_final/1213_rv.mp4	0.0	356.937646150589	
76	322.9231381416321	pulse	1	t		74.0	2.5	/experiments/AOT/AOT_stimuli/rescaled_final/1213_rv.mp4	0.0	358.5372462272644	
76	323.0400230884552	fix_post	2		12	74.0	2.5	/experiments/AOT/AOT_stimuli/rescaled_final/1213_rv.mp4	0.0	358.6541311740875	0.09970903396606445
77	323.13973212242126	fix_pre	0		120	75.0	2.5	/experiments/AOT/AOT_stimuli/rescaled_final/1357_fw.mp4	0.0	358.7538402080536	0.999906063079834
77	324.1396381855011	movie	1		244	75.0	2.5	/experiments/AOT/AOT_stimuli/rescaled_final/1357_fw.mp4	0.0	359.7537462711334	2.500464916229248
77	324.5231261253357	pulse	1	t		75.0	2.5	/experiments/AOT/AOT_stimuli/rescaled_final/1357_fw.mp4	0.0	360.137234210968	
77	326.12354707717896	pulse	1	t		75.0	2.5	/experiments/AOT/AOT_stimuli/rescaled_final/1357_fw.mp4	0.0	361.7376551628113	
77	326.64010310173035	fix_post	2		12	75.0	2.5	/experiments/AOT/AOT_stimuli/rescaled_final/1357_fw.mp4	0.0	362.25421118736267	0.09988188743591309
78	326.73998498916626	fix_pre	0		119	76.0	2.5	blank	1.0	362.3540930747986	0.991692066192627
78	327.72365713119507	pulse	0	t		76.0	2.5	blank	1.0	363.3377652168274	
78	327.7316770553589	movie	1		301	76.0	2.5	blank	1.0	363.3457851409912	2.5083999633789062
78	329.32346415519714	pulse	1	t		76.0	2.5	blank	1.0	364.93757224082947	
78	330.2400770187378	fix_post	2		12	76.0	2.5	blank	1.0	365.8541851043701	0.09995102882385254
79	330.34002804756165	fix_pre	0		120	77.0	2.5	/experiments/AOT/AOT_stimuli/rescaled_final/0330_rv.mp4	0.0	365.95413613319397	1.0000100135803223
79	330.9235591888428	pulse	0	t		77.0	2.5	/experiments/AOT/AOT_stimuli/rescaled_final/0330_rv.mp4	0.0	366.5376672744751	
79	331.34003806114197	movie	1		245	77.0	2.5	/experiments/AOT/AOT_stimuli/rescaled_final/0330_rv.mp4	0.0	366.9541461467743	2.4999659061431885
79	332.52358317375183	pulse	1	t		77.0	2.5	/experiments/AOT/AOT_stimuli/rescaled_final/0330_rv.mp4	0.0	368.13769125938416	
79	333.84000396728516	fix_post	2		12	77.0	2.5	/experiments/AOT/AOT_stimuli/rescaled_final/0330_rv.mp4	0.0	369.4541120529175	0.09998822212219238
80	333.93999218940735	fix_pre	0		120	78.0	2.5	/experiments/AOT/AOT_stimuli/rescaled_final/0331_rv.mp4	0.0	369.5541002750397	0.9999949932098389
80	334.12349009513855	pulse	0	t		78.0	2.5	/experiments/AOT/AOT_stimuli/rescaled_final/0331_rv.mp4	0.0	369.7375981807709	
80	334.9399871826172	movie	1		244	78.0	2.5	/experiments/AOT/AOT_stimuli/rescaled_final/0331_rv.mp4	0.0	370.5540952682495	2.4999358654022217
80	335.72354197502136	pulse	1	t		78.0	2.5	/experiments/AOT/AOT_stimuli/rescaled_final/0331_rv.mp4	0.0	371.3376500606537	
80	337.32208919525146	pulse	1	t		78.0	2.5	/experiments/AOT/AOT_stimuli/rescaled_final/0331_rv.mp4	0.0	372.9361972808838	
80	337.4399230480194	fix_post	2		12	78.0	2.5	/experiments/AOT/AOT_stimuli/rescaled_final/0331_rv.mp4	0.0	373.05403113365173	0.09999704360961914
81	337.539920091629	fix_pre	0		120	79.0	2.5	/experiments/AOT/AOT_stimuli/rescaled_final/1865_fw.mp4	0.0	373.15402817726135	1.0000200271606445
81	338.5399401187897	movie	1		245	79.0	2.5	/experiments/AOT/AOT_stimuli/rescaled_final/1865_fw.mp4	0.0	374.154048204422	2.49959397315979
81	338.9234051704407	pulse	1	t		79.0	2.5	/experiments/AOT/AOT_stimuli/rescaled_final/1865_fw.mp4	0.0	374.537513256073	
81	340.5234739780426	pulse	1	t		79.0	2.5	/experiments/AOT/AOT_stimuli/rescaled_final/1865_fw.mp4	0.0	376.1375820636749	
81	341.03953409194946	fix_post	2		12	79.0	2.5	/experiments/AOT/AOT_stimuli/rescaled_final/1865_fw.mp4	0.0	376.6536421775818	0.10047292709350586
82	341.14000701904297	fix_pre	0		119	80.0	2.5	/experiments/AOT/AOT_stimuli/rescaled_final/0864_fw.mp4	0.0	376.7541151046753	0.9916560649871826
82	342.12344908714294	pulse	0	t		80.0	2.5	/experiments/AOT/AOT_stimuli/rescaled_final/0864_fw.mp4	0.0	377.73755717277527	
82	342.13166308403015	movie	1		245	80.0	2.5	/experiments/AOT/AOT_stimuli/rescaled_final/0864_fw.mp4	0.0	377.7457711696625	2.5082669258117676
82	343.72465896606445	pulse	1	t		80.0	2.5	/experiments/AOT/AOT_stimuli/rescaled_final/0864_fw.mp4	0.0	379.3387670516968	
82	344.6399300098419	fix_post	2		12	80.0	2.5	/experiments/AOT/AOT_stimuli/rescaled_final/0864_fw.mp4	0.0	380.25403809547424	0.09967613220214844
83	344.73960614204407	fix_pre	0		120	81.0	2.5	/experiments/AOT/AOT_stimuli/rescaled_final/1299_fw.mp4	0.0	380.3537142276764	0.9999899864196777
83	345.32342314720154	pulse	0	t		81.0	2.5	/experiments/AOT/AOT_stimuli/rescaled_final/1299_fw.mp4	0.0	380.93753123283386	
83	345.73959612846375	movie	1		243	81.0	2.5	/experiments/AOT/AOT_stimuli/rescaled_final/1299_fw.mp4	0.0	381.35370421409607	2.500316858291626
83	346.92354011535645	pulse	1	t		81.0	2.5	/experiments/AOT/AOT_stimuli/rescaled_final/1299_fw.mp4	0.0	382.53764820098877	
83	348.23991298675537	fix_post	2		12	81.0	2.5	/experiments/AOT/AOT_stimuli/rescaled_final/1299_fw.mp4	0.0	383.8540210723877	0.10001611709594727
84	348.3399291038513	fix_pre	0		120	82.0	2.5	/experiments/AOT/AOT_stimuli/rescaled_final/0791_fw.mp4	0.0	383.95403718948364	1.000053882598877
84	348.5234520435333	pulse	0	t		82.0	2.5	/experiments/AOT/AOT_stimuli/rescaled_final/0791_fw.mp4	0.0	384.13756012916565	
84	349.3399829864502	movie	1		244	82.0	2.5	/experiments/AOT/AOT_stimuli/rescaled_final/0791_fw.mp4	0.0	384.9540910720825	2.4995150566101074
84	350.12333512306213	pulse	1	t		82.0	2.5	/experiments/AOT/AOT_stimuli/rescaled_final/0791_fw.mp4	0.0	385.73744320869446	
84	351.7219331264496	pulse	1	t		82.0	2.5	/experiments/AOT/AOT_stimuli/rescaled_final/0791_fw.mp4	0.0	387.3360412120819	
84	351.8394980430603	fix_post	2		12	82.0	2.5	/experiments/AOT/AOT_stimuli/rescaled_final/0791_fw.mp4	0.0	387.4536061286926	0.09993696212768555
85	351.939435005188	fix_pre	0		120	83.0	2.5	blank	1.0	387.5535430908203	1.0000550746917725
85	352.93949007987976	movie	1		300	83.0	2.5	blank	1.0	388.5535981655121	2.5003840923309326
85	353.32343101501465	pulse	1	t		83.0	2.5	blank	1.0	388.937539100647	
85	354.92337799072266	pulse	1	t		83.0	2.5	blank	1.0	390.537486076355	
85	355.4398741722107	fix_post	2		12	83.0	2.5	blank	1.0	391.053982257843	0.09995198249816895
87	355.53982615470886	stim	0		1716					391.1539342403412	14.299904823303223
87	356.5233781337738	pulse	0	t						392.1374862194061	
87	358.1233711242676	pulse	0	t						393.7374792098999	
87	359.723384141922	pulse	0	t						395.3374922275543	
87	361.3233301639557	pulse	0	t						396.937438249588	
87	362.92327904701233	pulse	0	t						398.53738713264465	
87	364.5232889652252	pulse	0	t						400.13739705085754	
87	366.12281799316406	pulse	0	t						401.7369260787964	
87	367.7229630947113	pulse	0	t						403.3370711803436	
87	369.32353711128235	pulse	0	t						404.9376451969147	
