trial_nr	onset	event_type	phase	response	nr_frames	movie_index	movie_duration	movie_file	blank	onset_abs	duration
0	0.19997692108154297	stim	0		4					102.11044502258301	0.033312082290649414
0	0.22528600692749023	response	0	space						102.13575410842896	
1	0.23328900337219238	stim	0		4658					102.14375710487366	38.834654808044434
1	39.05751085281372	pulse	0	t						140.96797895431519	
1	39.067943811416626	stim	1		1716					140.9784119129181	14.306593179702759
1	40.64788293838501	pulse	1	t						142.55835103988647	
1	42.24803686141968	pulse	1	t						144.15850496292114	
1	43.84831094741821	pulse	1	t						145.75877904891968	
1	45.448588848114014	pulse	1	t						147.35905694961548	
1	47.04875302314758	pulse	1	t						148.95922112464905	
1	48.649043798446655	pulse	1	t						150.55951189994812	
1	50.249348878860474	pulse	1	t						152.15981698036194	
1	51.84949088096619	pulse	1	t						153.75995898246765	
2	53.374536991119385	fix_pre	0		10	0.0	2.5	/experiments/knapen_AOT/AOT_stimuli/rescaled_final/1807_rv.mp4	0.0	155.28500509262085	0.0833590030670166
2	53.44972491264343	pulse	0	t		0.0	2.5	/experiments/knapen_AOT/AOT_stimuli/rescaled_final/1807_rv.mp4	0.0	155.3601930141449	
2	53.4578959941864	movie	1		243	0.0	2.5	/experiments/knapen_AOT/AOT_stimuli/rescaled_final/1807_rv.mp4	0.0	155.36836409568787	2.508697986602783
2	55.05093193054199	pulse	1	t		0.0	2.5	/experiments/knapen_AOT/AOT_stimuli/rescaled_final/1807_rv.mp4	0.0	156.96140003204346	
2	55.966593980789185	fix_post	2		12	0.0	2.5	/experiments/knapen_AOT/AOT_stimuli/rescaled_final/1807_rv.mp4	0.0	157.87706208229065	0.10004091262817383
3	56.06663489341736	fix_pre	0		120	1.0	2.5	/experiments/knapen_AOT/AOT_stimuli/rescaled_final/1008_rv.mp4	0.0	157.97710299491882	1.0001609325408936
3	56.650195837020874	pulse	0	t		1.0	2.5	/experiments/knapen_AOT/AOT_stimuli/rescaled_final/1008_rv.mp4	0.0	158.56066393852234	
3	57.06679582595825	movie	1		242	1.0	2.5	/experiments/knapen_AOT/AOT_stimuli/rescaled_final/1008_rv.mp4	0.0	158.97726392745972	2.500519037246704
3	58.25064182281494	pulse	1	t		1.0	2.5	/experiments/knapen_AOT/AOT_stimuli/rescaled_final/1008_rv.mp4	0.0	160.1611099243164	
3	59.567314863204956	fix_post	2		12	1.0	2.5	/experiments/knapen_AOT/AOT_stimuli/rescaled_final/1008_rv.mp4	0.0	161.47778296470642	0.09990715980529785
4	59.667222023010254	fix_pre	0		120	2.0	2.5	/experiments/knapen_AOT/AOT_stimuli/rescaled_final/1582_fw.mp4	0.0	161.57769012451172	1.0001318454742432
4	59.850759983062744	pulse	0	t		2.0	2.5	/experiments/knapen_AOT/AOT_stimuli/rescaled_final/1582_fw.mp4	0.0	161.7612280845642	
4	60.6673538684845	movie	1		242	2.0	2.5	/experiments/knapen_AOT/AOT_stimuli/rescaled_final/1582_fw.mp4	0.0	162.57782196998596	2.500383138656616
4	61.45094299316406	pulse	1	t		2.0	2.5	/experiments/knapen_AOT/AOT_stimuli/rescaled_final/1582_fw.mp4	0.0	163.36141109466553	
4	63.05105495452881	pulse	1	t		2.0	2.5	/experiments/knapen_AOT/AOT_stimuli/rescaled_final/1582_fw.mp4	0.0	164.96152305603027	
4	63.16773700714111	fix_post	2		12	2.0	2.5	/experiments/knapen_AOT/AOT_stimuli/rescaled_final/1582_fw.mp4	0.0	165.07820510864258	0.0999748706817627
5	63.267711877822876	fix_pre	0		119	3.0	2.5	/experiments/knapen_AOT/AOT_stimuli/rescaled_final/0794_rv.mp4	0.0	165.17817997932434	0.9918220043182373
5	64.25953388214111	movie	1		244	3.0	2.5	/experiments/knapen_AOT/AOT_stimuli/rescaled_final/0794_rv.mp4	0.0	166.17000198364258	2.500343084335327
5	64.65151500701904	pulse	1	t		3.0	2.5	/experiments/knapen_AOT/AOT_stimuli/rescaled_final/0794_rv.mp4	0.0	166.5619831085205	
5	66.2517478466034	pulse	1	t		3.0	2.5	/experiments/knapen_AOT/AOT_stimuli/rescaled_final/0794_rv.mp4	0.0	168.16221594810486	
5	66.75987696647644	fix_post	2		12	3.0	2.5	/experiments/knapen_AOT/AOT_stimuli/rescaled_final/0794_rv.mp4	0.0	168.6703450679779	0.10001897811889648
6	66.85989594459534	fix_pre	0		120	4.0	2.5	/experiments/knapen_AOT/AOT_stimuli/rescaled_final/0167_rv.mp4	0.0	168.7703640460968	1.0001509189605713
6	67.85190296173096	pulse	0	t		4.0	2.5	/experiments/knapen_AOT/AOT_stimuli/rescaled_final/0167_rv.mp4	0.0	169.76237106323242	
6	67.86004686355591	movie	1		243	4.0	2.5	/experiments/knapen_AOT/AOT_stimuli/rescaled_final/0167_rv.mp4	0.0	169.77051496505737	2.508765935897827
6	69.45342302322388	pulse	1	t		4.0	2.5	/experiments/knapen_AOT/AOT_stimuli/rescaled_final/0167_rv.mp4	0.0	171.36389112472534	
6	70.36881279945374	fix_post	2		12	4.0	2.5	/experiments/knapen_AOT/AOT_stimuli/rescaled_final/0167_rv.mp4	0.0	172.2792809009552	0.09999608993530273
7	70.46880888938904	fix_pre	0		120	5.0	2.5	/experiments/knapen_AOT/AOT_stimuli/rescaled_final/1301_rv.mp4	0.0	172.3792769908905	1.0001161098480225
7	71.05242991447449	pulse	0	t		5.0	2.5	/experiments/knapen_AOT/AOT_stimuli/rescaled_final/1301_rv.mp4	0.0	172.96289801597595	
7	71.46892499923706	movie	1		243	5.0	2.5	/experiments/knapen_AOT/AOT_stimuli/rescaled_final/1301_rv.mp4	0.0	173.37939310073853	2.5005359649658203
7	72.65269088745117	pulse	1	t		5.0	2.5	/experiments/knapen_AOT/AOT_stimuli/rescaled_final/1301_rv.mp4	0.0	174.56315898895264	
7	73.96946096420288	fix_post	2		12	5.0	2.5	/experiments/knapen_AOT/AOT_stimuli/rescaled_final/1301_rv.mp4	0.0	175.87992906570435	0.09992289543151855
8	74.0693838596344	fix_pre	0		120	6.0	2.5	blank	1.0	175.97985196113586	1.0001370906829834
8	74.25288486480713	pulse	0	t		6.0	2.5	blank	1.0	176.1633529663086	
8	75.06952095031738	movie	1		300	6.0	2.5	blank	1.0	176.97998905181885	2.5002949237823486
8	75.85302996635437	pulse	1	t		6.0	2.5	blank	1.0	177.76349806785583	
8	77.45338082313538	pulse	1	t		6.0	2.5	blank	1.0	179.36384892463684	
8	77.56981587409973	fix_post	2		12	6.0	2.5	blank	1.0	179.4802839756012	0.10001611709594727
9	77.66983199119568	fix_pre	0		119	7.0	2.5	/experiments/knapen_AOT/AOT_stimuli/rescaled_final/1038_rv.mp4	0.0	179.58030009269714	0.9918079376220703
9	78.66163992881775	movie	1		242	7.0	2.5	/experiments/knapen_AOT/AOT_stimuli/rescaled_final/1038_rv.mp4	0.0	180.5721080303192	2.500458002090454
9	79.05363583564758	pulse	1	t		7.0	2.5	/experiments/knapen_AOT/AOT_stimuli/rescaled_final/1038_rv.mp4	0.0	180.96410393714905	
9	80.6538507938385	pulse	1	t		7.0	2.5	/experiments/knapen_AOT/AOT_stimuli/rescaled_final/1038_rv.mp4	0.0	182.56431889533997	
9	81.1620979309082	fix_post	2		12	7.0	2.5	/experiments/knapen_AOT/AOT_stimuli/rescaled_final/1038_rv.mp4	0.0	183.07256603240967	0.10003304481506348
10	81.26213097572327	fix_pre	0		120	8.0	2.5	/experiments/knapen_AOT/AOT_stimuli/rescaled_final/1690_fw.mp4	0.0	183.17259907722473	1.0000958442687988
10	82.25400185585022	pulse	0	t		8.0	2.5	/experiments/knapen_AOT/AOT_stimuli/rescaled_final/1690_fw.mp4	0.0	184.16446995735168	
10	82.26222681999207	movie	1		244	8.0	2.5	/experiments/knapen_AOT/AOT_stimuli/rescaled_final/1690_fw.mp4	0.0	184.17269492149353	2.508676052093506
10	83.85476899147034	pulse	1	t		8.0	2.5	/experiments/knapen_AOT/AOT_stimuli/rescaled_final/1690_fw.mp4	0.0	185.7652370929718	
10	84.77090287208557	fix_post	2		12	8.0	2.5	/experiments/knapen_AOT/AOT_stimuli/rescaled_final/1690_fw.mp4	0.0	186.68137097358704	0.10000801086425781
11	84.87091088294983	fix_pre	0		120	9.0	2.5	/experiments/knapen_AOT/AOT_stimuli/rescaled_final/1986_rv.mp4	0.0	186.7813789844513	1.000251054763794
11	85.45464992523193	pulse	0	t		9.0	2.5	/experiments/knapen_AOT/AOT_stimuli/rescaled_final/1986_rv.mp4	0.0	187.3651180267334	
11	85.87116193771362	movie	1		242	9.0	2.5	/experiments/knapen_AOT/AOT_stimuli/rescaled_final/1986_rv.mp4	0.0	187.7816300392151	2.519892930984497
11	87.05495595932007	pulse	1	t		9.0	2.5	/experiments/knapen_AOT/AOT_stimuli/rescaled_final/1986_rv.mp4	0.0	188.96542406082153	
11	88.39105486869812	fix_post	2		10	9.0	2.5	/experiments/knapen_AOT/AOT_stimuli/rescaled_final/1986_rv.mp4	0.0	190.30152297019958	0.08044695854187012
12	88.47150182723999	fix_pre	0		120	10.0	2.5	/experiments/knapen_AOT/AOT_stimuli/rescaled_final/1407_rv.mp4	0.0	190.38196992874146	1.0001540184020996
12	88.65498280525208	pulse	0	t		10.0	2.5	/experiments/knapen_AOT/AOT_stimuli/rescaled_final/1407_rv.mp4	0.0	190.56545090675354	
12	89.47165584564209	movie	1		242	10.0	2.5	/experiments/knapen_AOT/AOT_stimuli/rescaled_final/1407_rv.mp4	0.0	191.38212394714355	2.500359058380127
12	90.24788784980774	pulse	1	t		10.0	2.5	/experiments/knapen_AOT/AOT_stimuli/rescaled_final/1407_rv.mp4	0.0	192.1583559513092	
12	91.85526180267334	pulse	1	t		10.0	2.5	/experiments/knapen_AOT/AOT_stimuli/rescaled_final/1407_rv.mp4	0.0	193.7657299041748	
12	91.97201490402222	fix_post	2		12	10.0	2.5	/experiments/knapen_AOT/AOT_stimuli/rescaled_final/1407_rv.mp4	0.0	193.88248300552368	0.09996891021728516
13	92.0719838142395	fix_pre	0		119	11.0	2.5	/experiments/knapen_AOT/AOT_stimuli/rescaled_final/1234_rv.mp4	0.0	193.98245191574097	0.9918851852416992
13	93.0638689994812	movie	1		242	11.0	2.5	/experiments/knapen_AOT/AOT_stimuli/rescaled_final/1234_rv.mp4	0.0	194.97433710098267	2.5004749298095703
13	93.44800901412964	pulse	1	t		11.0	2.5	/experiments/knapen_AOT/AOT_stimuli/rescaled_final/1234_rv.mp4	0.0	195.3584771156311	
13	95.04861783981323	pulse	1	t		11.0	2.5	/experiments/knapen_AOT/AOT_stimuli/rescaled_final/1234_rv.mp4	0.0	196.9590859413147	
13	95.56434392929077	fix_post	2		12	11.0	2.5	/experiments/knapen_AOT/AOT_stimuli/rescaled_final/1234_rv.mp4	0.0	197.47481203079224	0.09992098808288574
14	95.66426491737366	fix_pre	0		119	12.0	2.5	/experiments/knapen_AOT/AOT_stimuli/rescaled_final/1757_rv.mp4	0.0	197.57473301887512	0.9917240142822266
14	96.64800596237183	pulse	0	t		12.0	2.5	/experiments/knapen_AOT/AOT_stimuli/rescaled_final/1757_rv.mp4	0.0	198.5584740638733	
14	96.65598893165588	movie	1		243	12.0	2.5	/experiments/knapen_AOT/AOT_stimuli/rescaled_final/1757_rv.mp4	0.0	198.56645703315735	2.5087430477142334
14	98.24867486953735	pulse	1	t		12.0	2.5	/experiments/knapen_AOT/AOT_stimuli/rescaled_final/1757_rv.mp4	0.0	200.15914297103882	
14	99.16473197937012	fix_post	2		12	12.0	2.5	/experiments/knapen_AOT/AOT_stimuli/rescaled_final/1757_rv.mp4	0.0	201.07520008087158	0.10007286071777344
15	99.26480484008789	fix_pre	0		120	13.0	2.5	blank	1.0	201.17527294158936	1.0000720024108887
15	99.84831881523132	pulse	0	t		13.0	2.5	blank	1.0	201.7587869167328	
15	100.26487684249878	movie	1		300	13.0	2.5	blank	1.0	202.17534494400024	2.500460147857666
15	101.44851183891296	pulse	1	t		13.0	2.5	blank	1.0	203.35897994041443	
15	102.76533699035645	fix_post	2		12	13.0	2.5	blank	1.0	204.6758050918579	0.09997987747192383
16	102.86531686782837	fix_pre	0		120	14.0	2.5	/experiments/knapen_AOT/AOT_stimuli/rescaled_final/1871_fw.mp4	0.0	204.77578496932983	1.0001490116119385
16	103.04886198043823	pulse	0	t		14.0	2.5	/experiments/knapen_AOT/AOT_stimuli/rescaled_final/1871_fw.mp4	0.0	204.9593300819397	
16	103.86546587944031	movie	1		243	14.0	2.5	/experiments/knapen_AOT/AOT_stimuli/rescaled_final/1871_fw.mp4	0.0	205.77593398094177	2.500462055206299
16	104.64905595779419	pulse	1	t		14.0	2.5	/experiments/knapen_AOT/AOT_stimuli/rescaled_final/1871_fw.mp4	0.0	206.55952405929565	
16	106.2498300075531	pulse	1	t		14.0	2.5	/experiments/knapen_AOT/AOT_stimuli/rescaled_final/1871_fw.mp4	0.0	208.16029810905457	
16	106.3659279346466	fix_post	2		12	14.0	2.5	/experiments/knapen_AOT/AOT_stimuli/rescaled_final/1871_fw.mp4	0.0	208.27639603614807	0.09987187385559082
17	106.4657998085022	fix_pre	0		120	15.0	2.5	/experiments/knapen_AOT/AOT_stimuli/rescaled_final/1220_fw.mp4	0.0	208.37626791000366	1.0001871585845947
17	107.46598696708679	movie	1		241	15.0	2.5	/experiments/knapen_AOT/AOT_stimuli/rescaled_final/1220_fw.mp4	0.0	209.37645506858826	2.492065906524658
17	107.85082983970642	pulse	1	t		15.0	2.5	/experiments/knapen_AOT/AOT_stimuli/rescaled_final/1220_fw.mp4	0.0	209.76129794120789	
17	109.4497799873352	pulse	1	t		15.0	2.5	/experiments/knapen_AOT/AOT_stimuli/rescaled_final/1220_fw.mp4	0.0	211.36024808883667	
17	109.95805287361145	fix_post	2		12	15.0	2.5	/experiments/knapen_AOT/AOT_stimuli/rescaled_final/1220_fw.mp4	0.0	211.86852097511292	0.0999441146850586
18	110.05799698829651	fix_pre	0		120	16.0	2.5	/experiments/knapen_AOT/AOT_stimuli/rescaled_final/1273_fw.mp4	0.0	211.96846508979797	1.0001599788665771
18	111.0500078201294	pulse	0	t		16.0	2.5	/experiments/knapen_AOT/AOT_stimuli/rescaled_final/1273_fw.mp4	0.0	212.96047592163086	
18	111.05815696716309	movie	1		245	16.0	2.5	/experiments/knapen_AOT/AOT_stimuli/rescaled_final/1273_fw.mp4	0.0	212.96862506866455	2.508718967437744
18	112.65479302406311	pulse	1	t		16.0	2.5	/experiments/knapen_AOT/AOT_stimuli/rescaled_final/1273_fw.mp4	0.0	214.56526112556458	
18	113.56687593460083	fix_post	2		12	16.0	2.5	/experiments/knapen_AOT/AOT_stimuli/rescaled_final/1273_fw.mp4	0.0	215.4773440361023	0.1000070571899414
19	113.66688299179077	fix_pre	0		120	17.0	2.5	/experiments/knapen_AOT/AOT_stimuli/rescaled_final/1528_fw.mp4	0.0	215.57735109329224	1.0001389980316162
19	114.25054788589478	pulse	0	t		17.0	2.5	/experiments/knapen_AOT/AOT_stimuli/rescaled_final/1528_fw.mp4	0.0	216.16101598739624	
19	114.66702198982239	movie	1		246	17.0	2.5	/experiments/knapen_AOT/AOT_stimuli/rescaled_final/1528_fw.mp4	0.0	216.57749009132385	2.500469923019409
19	115.85084986686707	pulse	1	t		17.0	2.5	/experiments/knapen_AOT/AOT_stimuli/rescaled_final/1528_fw.mp4	0.0	217.76131796836853	
19	117.1674919128418	fix_post	2		12	17.0	2.5	/experiments/knapen_AOT/AOT_stimuli/rescaled_final/1528_fw.mp4	0.0	219.07796001434326	0.09997010231018066
20	117.26746201515198	fix_pre	0		120	18.0	2.5	/experiments/knapen_AOT/AOT_stimuli/rescaled_final/0292_fw.mp4	0.0	219.17793011665344	1.0001299381256104
20	117.45103001594543	pulse	0	t		18.0	2.5	/experiments/knapen_AOT/AOT_stimuli/rescaled_final/0292_fw.mp4	0.0	219.3614981174469	
20	118.26759195327759	movie	1		244	18.0	2.5	/experiments/knapen_AOT/AOT_stimuli/rescaled_final/0292_fw.mp4	0.0	220.17806005477905	2.500372886657715
20	119.05121397972107	pulse	1	t		18.0	2.5	/experiments/knapen_AOT/AOT_stimuli/rescaled_final/0292_fw.mp4	0.0	220.96168208122253	
20	120.65147280693054	pulse	1	t		18.0	2.5	/experiments/knapen_AOT/AOT_stimuli/rescaled_final/0292_fw.mp4	0.0	222.561940908432	
20	120.7679648399353	fix_post	2		12	18.0	2.5	/experiments/knapen_AOT/AOT_stimuli/rescaled_final/0292_fw.mp4	0.0	222.67843294143677	0.09998512268066406
21	120.86794996261597	fix_pre	0		120	19.0	2.5	/experiments/knapen_AOT/AOT_stimuli/rescaled_final/0794_fw.mp4	0.0	222.77841806411743	1.0002238750457764
21	121.86817383766174	movie	1		243	19.0	2.5	/experiments/knapen_AOT/AOT_stimuli/rescaled_final/0794_fw.mp4	0.0	223.7786419391632	2.492025136947632
21	122.25229501724243	pulse	1	t		19.0	2.5	/experiments/knapen_AOT/AOT_stimuli/rescaled_final/0794_fw.mp4	0.0	224.1627631187439	
21	123.85197496414185	pulse	1	t		19.0	2.5	/experiments/knapen_AOT/AOT_stimuli/rescaled_final/0794_fw.mp4	0.0	225.7624430656433	
21	124.36019897460938	fix_post	2		12	19.0	2.5	/experiments/knapen_AOT/AOT_stimuli/rescaled_final/0794_fw.mp4	0.0	226.27066707611084	0.09996294975280762
22	124.46016192436218	fix_pre	0		120	20.0	2.5	blank	1.0	226.37063002586365	1.000148057937622
22	125.45219898223877	pulse	0	t		20.0	2.5	blank	1.0	227.36266708374023	
22	125.4603099822998	movie	1		301	20.0	2.5	blank	1.0	227.37077808380127	2.508723020553589
22	127.05244493484497	pulse	1	t		20.0	2.5	blank	1.0	228.96291303634644	
22	127.9690330028534	fix_post	2		12	20.0	2.5	blank	1.0	229.87950110435486	0.10004401206970215
23	128.0690770149231	fix_pre	0		120	21.0	2.5	/experiments/knapen_AOT/AOT_stimuli/rescaled_final/0264_rv.mp4	0.0	229.97954511642456	1.0001518726348877
23	128.6526279449463	pulse	0	t		21.0	2.5	/experiments/knapen_AOT/AOT_stimuli/rescaled_final/0264_rv.mp4	0.0	230.56309604644775	
23	129.06922888755798	movie	1		242	21.0	2.5	/experiments/knapen_AOT/AOT_stimuli/rescaled_final/0264_rv.mp4	0.0	230.97969698905945	2.500383138656616
23	130.25297498703003	pulse	1	t		21.0	2.5	/experiments/knapen_AOT/AOT_stimuli/rescaled_final/0264_rv.mp4	0.0	232.1634430885315	
23	131.5696120262146	fix_post	2		12	21.0	2.5	/experiments/knapen_AOT/AOT_stimuli/rescaled_final/0264_rv.mp4	0.0	233.48008012771606	0.10000991821289062
24	131.6696219444275	fix_pre	0		120	22.0	2.5	/experiments/knapen_AOT/AOT_stimuli/rescaled_final/1316_rv.mp4	0.0	233.58009004592896	1.000128984451294
24	131.85311484336853	pulse	0	t		22.0	2.5	/experiments/knapen_AOT/AOT_stimuli/rescaled_final/1316_rv.mp4	0.0	233.76358294487	
24	132.66975092887878	movie	1		243	22.0	2.5	/experiments/knapen_AOT/AOT_stimuli/rescaled_final/1316_rv.mp4	0.0	234.58021903038025	2.5004069805145264
24	133.45336484909058	pulse	1	t		22.0	2.5	/experiments/knapen_AOT/AOT_stimuli/rescaled_final/1316_rv.mp4	0.0	235.36383295059204	
24	135.05357789993286	pulse	1	t		22.0	2.5	/experiments/knapen_AOT/AOT_stimuli/rescaled_final/1316_rv.mp4	0.0	236.96404600143433	
24	135.1701579093933	fix_post	2		12	22.0	2.5	/experiments/knapen_AOT/AOT_stimuli/rescaled_final/1316_rv.mp4	0.0	237.08062601089478	0.09998703002929688
25	135.2701449394226	fix_pre	0		120	23.0	2.5	/experiments/knapen_AOT/AOT_stimuli/rescaled_final/2124_fw.mp4	0.0	237.18061304092407	1.0001790523529053
25	136.2703239917755	movie	1		241	23.0	2.5	/experiments/knapen_AOT/AOT_stimuli/rescaled_final/2124_fw.mp4	0.0	238.18079209327698	2.492189884185791
25	136.65445280075073	pulse	1	t		23.0	2.5	/experiments/knapen_AOT/AOT_stimuli/rescaled_final/2124_fw.mp4	0.0	238.5649209022522	
25	138.25407600402832	pulse	1	t		23.0	2.5	/experiments/knapen_AOT/AOT_stimuli/rescaled_final/2124_fw.mp4	0.0	240.16454410552979	
25	138.7625138759613	fix_post	2		12	23.0	2.5	/experiments/knapen_AOT/AOT_stimuli/rescaled_final/2124_fw.mp4	0.0	240.67298197746277	0.09986996650695801
26	138.86238384246826	fix_pre	0		120	24.0	2.5	/experiments/knapen_AOT/AOT_stimuli/rescaled_final/1757_fw.mp4	0.0	240.77285194396973	1.0001170635223389
26	139.85443687438965	pulse	0	t		24.0	2.5	/experiments/knapen_AOT/AOT_stimuli/rescaled_final/1757_fw.mp4	0.0	241.7649049758911	
26	139.8625009059906	movie	1		243	24.0	2.5	/experiments/knapen_AOT/AOT_stimuli/rescaled_final/1757_fw.mp4	0.0	241.77296900749207	2.5087571144104004
26	141.45525979995728	pulse	1	t		24.0	2.5	/experiments/knapen_AOT/AOT_stimuli/rescaled_final/1757_fw.mp4	0.0	243.36572790145874	
26	142.371258020401	fix_post	2		12	24.0	2.5	/experiments/knapen_AOT/AOT_stimuli/rescaled_final/1757_fw.mp4	0.0	244.28172612190247	0.09990477561950684
27	142.4711627960205	fix_pre	0		120	25.0	2.5	/experiments/knapen_AOT/AOT_stimuli/rescaled_final/0573_rv.mp4	0.0	244.38163089752197	1.0002222061157227
27	143.04738092422485	pulse	0	t		25.0	2.5	/experiments/knapen_AOT/AOT_stimuli/rescaled_final/0573_rv.mp4	0.0	244.95784902572632	
27	143.47138500213623	movie	1		244	25.0	2.5	/experiments/knapen_AOT/AOT_stimuli/rescaled_final/0573_rv.mp4	0.0	245.3818531036377	2.5003700256347656
27	144.655170917511	pulse	1	t		25.0	2.5	/experiments/knapen_AOT/AOT_stimuli/rescaled_final/0573_rv.mp4	0.0	246.56563901901245	
27	145.971755027771	fix_post	2		12	25.0	2.5	/experiments/knapen_AOT/AOT_stimuli/rescaled_final/0573_rv.mp4	0.0	247.88222312927246	0.1000368595123291
28	146.07179188728333	fix_pre	0		120	26.0	2.5	blank	1.0	247.9822599887848	1.0000710487365723
28	146.24767994880676	pulse	0	t		26.0	2.5	blank	1.0	248.15814805030823	
28	147.0718629360199	movie	1		300	26.0	2.5	blank	1.0	248.98233103752136	2.5004100799560547
28	147.84807682037354	pulse	1	t		26.0	2.5	blank	1.0	249.758544921875	
28	149.44749188423157	pulse	1	t		26.0	2.5	blank	1.0	251.35795998573303	
28	149.57227301597595	fix_post	2		12	26.0	2.5	blank	1.0	251.48274111747742	0.10004186630249023
29	149.67231488227844	fix_pre	0		120	27.0	2.5	/experiments/knapen_AOT/AOT_stimuli/rescaled_final/1419_rv.mp4	0.0	251.5827829837799	1.0001220703125
29	150.67243695259094	movie	1		242	27.0	2.5	/experiments/knapen_AOT/AOT_stimuli/rescaled_final/1419_rv.mp4	0.0	252.5829050540924	2.492142915725708
29	151.0476999282837	pulse	1	t		27.0	2.5	/experiments/knapen_AOT/AOT_stimuli/rescaled_final/1419_rv.mp4	0.0	252.95816802978516	
29	152.64791584014893	pulse	1	t		27.0	2.5	/experiments/knapen_AOT/AOT_stimuli/rescaled_final/1419_rv.mp4	0.0	254.5583839416504	
29	153.16457986831665	fix_post	2		12	27.0	2.5	/experiments/knapen_AOT/AOT_stimuli/rescaled_final/1419_rv.mp4	0.0	255.07504796981812	0.09993314743041992
30	153.26451301574707	fix_pre	0		119	28.0	2.5	/experiments/knapen_AOT/AOT_stimuli/rescaled_final/1130_fw.mp4	0.0	255.17498111724854	0.9918158054351807
30	154.24807691574097	pulse	0	t		28.0	2.5	/experiments/knapen_AOT/AOT_stimuli/rescaled_final/1130_fw.mp4	0.0	256.15854501724243	
30	154.25632882118225	movie	1		244	28.0	2.5	/experiments/knapen_AOT/AOT_stimuli/rescaled_final/1130_fw.mp4	0.0	256.1667969226837	2.5087552070617676
30	155.85294389724731	pulse	1	t		28.0	2.5	/experiments/knapen_AOT/AOT_stimuli/rescaled_final/1130_fw.mp4	0.0	257.7634119987488	
30	156.76508402824402	fix_post	2		12	28.0	2.5	/experiments/knapen_AOT/AOT_stimuli/rescaled_final/1130_fw.mp4	0.0	258.6755521297455	0.09990596771240234
31	156.86498999595642	fix_pre	0		116	29.0	2.5	/experiments/knapen_AOT/AOT_stimuli/rescaled_final/1539_fw.mp4	0.0	258.7754580974579	1.0002470016479492
31	157.44873189926147	pulse	0	t		29.0	2.5	/experiments/knapen_AOT/AOT_stimuli/rescaled_final/1539_fw.mp4	0.0	259.35920000076294	
31	157.86523699760437	movie	1		242	29.0	2.5	/experiments/knapen_AOT/AOT_stimuli/rescaled_final/1539_fw.mp4	0.0	259.77570509910583	2.5004868507385254
31	159.04893493652344	pulse	1	t		29.0	2.5	/experiments/knapen_AOT/AOT_stimuli/rescaled_final/1539_fw.mp4	0.0	260.9594030380249	
31	160.3657238483429	fix_post	2		12	29.0	2.5	/experiments/knapen_AOT/AOT_stimuli/rescaled_final/1539_fw.mp4	0.0	262.27619194984436	0.09980511665344238
32	160.46552896499634	fix_pre	0		120	30.0	2.5	/experiments/knapen_AOT/AOT_stimuli/rescaled_final/0934_fw.mp4	0.0	262.3759970664978	1.0001659393310547
32	160.6490318775177	pulse	0	t		30.0	2.5	/experiments/knapen_AOT/AOT_stimuli/rescaled_final/0934_fw.mp4	0.0	262.55949997901917	
32	161.4656949043274	movie	1		242	30.0	2.5	/experiments/knapen_AOT/AOT_stimuli/rescaled_final/0934_fw.mp4	0.0	263.37616300582886	2.5004639625549316
32	162.249351978302	pulse	1	t		30.0	2.5	/experiments/knapen_AOT/AOT_stimuli/rescaled_final/0934_fw.mp4	0.0	264.15982007980347	
32	163.8495090007782	pulse	1	t		30.0	2.5	/experiments/knapen_AOT/AOT_stimuli/rescaled_final/0934_fw.mp4	0.0	265.75997710227966	
32	163.96615886688232	fix_post	2		12	30.0	2.5	/experiments/knapen_AOT/AOT_stimuli/rescaled_final/0934_fw.mp4	0.0	265.8766269683838	0.09995293617248535
33	164.0661118030548	fix_pre	0		119	31.0	2.5	/experiments/knapen_AOT/AOT_stimuli/rescaled_final/0509_fw.mp4	0.0	265.9765799045563	0.9917712211608887
33	165.0578830242157	movie	1		245	31.0	2.5	/experiments/knapen_AOT/AOT_stimuli/rescaled_final/0509_fw.mp4	0.0	266.96835112571716	2.50044584274292
33	165.44997000694275	pulse	1	t		31.0	2.5	/experiments/knapen_AOT/AOT_stimuli/rescaled_final/0509_fw.mp4	0.0	267.3604381084442	
33	167.0500168800354	pulse	1	t		31.0	2.5	/experiments/knapen_AOT/AOT_stimuli/rescaled_final/0509_fw.mp4	0.0	268.96048498153687	
33	167.55832886695862	fix_post	2		12	31.0	2.5	/experiments/knapen_AOT/AOT_stimuli/rescaled_final/0509_fw.mp4	0.0	269.4687969684601	0.10003495216369629
34	167.65836381912231	fix_pre	0		120	32.0	2.5	/experiments/knapen_AOT/AOT_stimuli/rescaled_final/1130_rv.mp4	0.0	269.5688319206238	1.0001180171966553
34	168.65034699440002	pulse	0	t		32.0	2.5	/experiments/knapen_AOT/AOT_stimuli/rescaled_final/1130_rv.mp4	0.0	270.5608150959015	
34	168.65848183631897	movie	1		244	32.0	2.5	/experiments/knapen_AOT/AOT_stimuli/rescaled_final/1130_rv.mp4	0.0	270.56894993782043	2.5087060928344727
34	170.25115299224854	pulse	1	t		32.0	2.5	/experiments/knapen_AOT/AOT_stimuli/rescaled_final/1130_rv.mp4	0.0	272.16162109375	
34	171.16718792915344	fix_post	2		12	32.0	2.5	/experiments/knapen_AOT/AOT_stimuli/rescaled_final/1130_rv.mp4	0.0	273.0776560306549	0.10001397132873535
35	171.26720190048218	fix_pre	0		120	33.0	2.5	/experiments/knapen_AOT/AOT_stimuli/rescaled_final/0822_fw.mp4	0.0	273.17767000198364	1.0001540184020996
35	171.85085797309875	pulse	0	t		33.0	2.5	/experiments/knapen_AOT/AOT_stimuli/rescaled_final/0822_fw.mp4	0.0	273.7613260746002	
35	172.26735591888428	movie	1		243	33.0	2.5	/experiments/knapen_AOT/AOT_stimuli/rescaled_final/0822_fw.mp4	0.0	274.17782402038574	2.5005218982696533
35	173.45102882385254	pulse	1	t		33.0	2.5	/experiments/knapen_AOT/AOT_stimuli/rescaled_final/0822_fw.mp4	0.0	275.361496925354	
35	174.76787781715393	fix_post	2		12	33.0	2.5	/experiments/knapen_AOT/AOT_stimuli/rescaled_final/0822_fw.mp4	0.0	276.6783459186554	0.09982109069824219
36	174.86769890785217	fix_pre	0		120	34.0	2.5	/experiments/knapen_AOT/AOT_stimuli/rescaled_final/1407_fw.mp4	0.0	276.77816700935364	1.0001249313354492
36	175.0512499809265	pulse	0	t		34.0	2.5	/experiments/knapen_AOT/AOT_stimuli/rescaled_final/1407_fw.mp4	0.0	276.961718082428	
36	175.86782383918762	movie	1		242	34.0	2.5	/experiments/knapen_AOT/AOT_stimuli/rescaled_final/1407_fw.mp4	0.0	277.7782919406891	2.5004990100860596
36	176.6516330242157	pulse	1	t		34.0	2.5	/experiments/knapen_AOT/AOT_stimuli/rescaled_final/1407_fw.mp4	0.0	278.56210112571716	
36	178.25166392326355	pulse	1	t		34.0	2.5	/experiments/knapen_AOT/AOT_stimuli/rescaled_final/1407_fw.mp4	0.0	280.162132024765	
36	178.36832284927368	fix_post	2		12	34.0	2.5	/experiments/knapen_AOT/AOT_stimuli/rescaled_final/1407_fw.mp4	0.0	280.27879095077515	0.09993505477905273
37	178.46825790405273	fix_pre	0		120	35.0	2.5	blank	1.0	280.3787260055542	1.0001940727233887
37	179.46845197677612	movie	1		299	35.0	2.5	blank	1.0	281.3789200782776	2.4920029640197754
37	179.8520348072052	pulse	1	t		35.0	2.5	blank	1.0	281.76250290870667	
37	181.4521279335022	pulse	1	t		35.0	2.5	blank	1.0	283.36259603500366	
37	181.9604549407959	fix_post	2		12	35.0	2.5	blank	1.0	283.87092304229736	0.10001492500305176
38	182.06046986579895	fix_pre	0		120	36.0	2.5	/experiments/knapen_AOT/AOT_stimuli/rescaled_final/0645_fw.mp4	0.0	283.9709379673004	1.0001499652862549
38	183.05249881744385	pulse	0	t		36.0	2.5	/experiments/knapen_AOT/AOT_stimuli/rescaled_final/0645_fw.mp4	0.0	284.9629669189453	
38	183.0606198310852	movie	1		244	36.0	2.5	/experiments/knapen_AOT/AOT_stimuli/rescaled_final/0645_fw.mp4	0.0	284.97108793258667	2.5087151527404785
38	184.65319991111755	pulse	1	t		36.0	2.5	/experiments/knapen_AOT/AOT_stimuli/rescaled_final/0645_fw.mp4	0.0	286.563668012619	
38	185.56933498382568	fix_post	2		12	36.0	2.5	/experiments/knapen_AOT/AOT_stimuli/rescaled_final/0645_fw.mp4	0.0	287.47980308532715	0.10002398490905762
39	185.66935896873474	fix_pre	0		120	37.0	2.5	/experiments/knapen_AOT/AOT_stimuli/rescaled_final/2104_fw.mp4	0.0	287.5798270702362	1.0001459121704102
39	186.25292682647705	pulse	0	t		37.0	2.5	/experiments/knapen_AOT/AOT_stimuli/rescaled_final/2104_fw.mp4	0.0	288.1633949279785	
39	186.66950488090515	movie	1		243	37.0	2.5	/experiments/knapen_AOT/AOT_stimuli/rescaled_final/2104_fw.mp4	0.0	288.5799729824066	2.500441074371338
39	187.8532269001007	pulse	1	t		37.0	2.5	/experiments/knapen_AOT/AOT_stimuli/rescaled_final/2104_fw.mp4	0.0	289.7636950016022	
39	189.1699459552765	fix_post	2		12	37.0	2.5	/experiments/knapen_AOT/AOT_stimuli/rescaled_final/2104_fw.mp4	0.0	291.08041405677795	0.09990286827087402
40	189.26984882354736	fix_pre	0		120	38.0	2.5	/experiments/knapen_AOT/AOT_stimuli/rescaled_final/1051_fw.mp4	0.0	291.1803169250488	1.0001461505889893
40	189.45336079597473	pulse	0	t		38.0	2.5	/experiments/knapen_AOT/AOT_stimuli/rescaled_final/1051_fw.mp4	0.0	291.3638288974762	
40	190.26999497413635	movie	1		243	38.0	2.5	/experiments/knapen_AOT/AOT_stimuli/rescaled_final/1051_fw.mp4	0.0	292.1804630756378	2.5004160404205322
40	191.05373001098633	pulse	1	t		38.0	2.5	/experiments/knapen_AOT/AOT_stimuli/rescaled_final/1051_fw.mp4	0.0	292.9641981124878	
40	192.65371179580688	pulse	1	t		38.0	2.5	/experiments/knapen_AOT/AOT_stimuli/rescaled_final/1051_fw.mp4	0.0	294.56417989730835	
40	192.77041101455688	fix_post	2		12	38.0	2.5	/experiments/knapen_AOT/AOT_stimuli/rescaled_final/1051_fw.mp4	0.0	294.68087911605835	0.10001277923583984
41	192.87042379379272	fix_pre	0		120	39.0	2.5	/experiments/knapen_AOT/AOT_stimuli/rescaled_final/1088_fw.mp4	0.0	294.7808918952942	1.0001320838928223
41	193.87055587768555	movie	1		243	39.0	2.5	/experiments/knapen_AOT/AOT_stimuli/rescaled_final/1088_fw.mp4	0.0	295.781023979187	2.4920589923858643
41	194.25471901893616	pulse	1	t		39.0	2.5	/experiments/knapen_AOT/AOT_stimuli/rescaled_final/1088_fw.mp4	0.0	296.1651871204376	
41	195.85432481765747	pulse	1	t		39.0	2.5	/experiments/knapen_AOT/AOT_stimuli/rescaled_final/1088_fw.mp4	0.0	297.76479291915894	
41	196.3626148700714	fix_post	2		12	39.0	2.5	/experiments/knapen_AOT/AOT_stimuli/rescaled_final/1088_fw.mp4	0.0	298.2730829715729	0.10004115104675293
42	196.46265602111816	fix_pre	0		120	40.0	2.5	blank	1.0	298.37312412261963	1.0000669956207275
42	197.44701290130615	pulse	0	t		40.0	2.5	blank	1.0	299.3574810028076	
42	197.4627230167389	movie	1		301	40.0	2.5	blank	1.0	299.37319111824036	2.508776903152466
42	199.04726886749268	pulse	1	t		40.0	2.5	blank	1.0	300.95773696899414	
42	199.97149991989136	fix_post	2		12	40.0	2.5	blank	1.0	301.8819680213928	0.09994292259216309
43	200.07144284248352	fix_pre	0		120	41.0	2.5	/experiments/knapen_AOT/AOT_stimuli/rescaled_final/0391_fw.mp4	0.0	301.981910943985	1.000169038772583
43	200.64761185646057	pulse	0	t		41.0	2.5	/experiments/knapen_AOT/AOT_stimuli/rescaled_final/0391_fw.mp4	0.0	302.55807995796204	
43	201.0716118812561	movie	1		243	41.0	2.5	/experiments/knapen_AOT/AOT_stimuli/rescaled_final/0391_fw.mp4	0.0	302.98207998275757	2.5003840923309326
43	202.2477629184723	pulse	1	t		41.0	2.5	/experiments/knapen_AOT/AOT_stimuli/rescaled_final/0391_fw.mp4	0.0	304.15823101997375	
43	203.57199597358704	fix_post	2		12	41.0	2.5	/experiments/knapen_AOT/AOT_stimuli/rescaled_final/0391_fw.mp4	0.0	305.4824640750885	0.0999748706817627
44	203.6719708442688	fix_pre	0		120	42.0	2.5	/experiments/knapen_AOT/AOT_stimuli/rescaled_final/1862_rv.mp4	0.0	305.58243894577026	1.0002470016479492
44	203.84748196601868	pulse	0	t		42.0	2.5	/experiments/knapen_AOT/AOT_stimuli/rescaled_final/1862_rv.mp4	0.0	305.75795006752014	
44	204.67221784591675	movie	1		242	42.0	2.5	/experiments/knapen_AOT/AOT_stimuli/rescaled_final/1862_rv.mp4	0.0	306.5826859474182	2.500447988510132
44	205.44738483428955	pulse	1	t		42.0	2.5	/experiments/knapen_AOT/AOT_stimuli/rescaled_final/1862_rv.mp4	0.0	307.357852935791	
44	207.0477168560028	pulse	1	t		42.0	2.5	/experiments/knapen_AOT/AOT_stimuli/rescaled_final/1862_rv.mp4	0.0	308.9581849575043	
44	207.17266583442688	fix_post	2		12	42.0	2.5	/experiments/knapen_AOT/AOT_stimuli/rescaled_final/1862_rv.mp4	0.0	309.08313393592834	0.09990811347961426
45	207.2725739479065	fix_pre	0		119	43.0	2.5	/experiments/knapen_AOT/AOT_stimuli/rescaled_final/1398_fw.mp4	0.0	309.18304204940796	0.9917519092559814
45	208.26432585716248	movie	1		244	43.0	2.5	/experiments/knapen_AOT/AOT_stimuli/rescaled_final/1398_fw.mp4	0.0	310.17479395866394	2.5004069805145264
45	208.6489589214325	pulse	1	t		43.0	2.5	/experiments/knapen_AOT/AOT_stimuli/rescaled_final/1398_fw.mp4	0.0	310.55942702293396	
45	210.2481129169464	pulse	1	t		43.0	2.5	/experiments/knapen_AOT/AOT_stimuli/rescaled_final/1398_fw.mp4	0.0	312.1585810184479	
45	210.764732837677	fix_post	2		12	43.0	2.5	/experiments/knapen_AOT/AOT_stimuli/rescaled_final/1398_fw.mp4	0.0	312.67520093917847	0.10003900527954102
46	210.86477184295654	fix_pre	0		119	44.0	2.5	/experiments/knapen_AOT/AOT_stimuli/rescaled_final/0645_rv.mp4	0.0	312.775239944458	0.991832971572876
46	211.84835481643677	pulse	0	t		44.0	2.5	/experiments/knapen_AOT/AOT_stimuli/rescaled_final/0645_rv.mp4	0.0	313.75882291793823	
46	211.85660481452942	movie	1		244	44.0	2.5	/experiments/knapen_AOT/AOT_stimuli/rescaled_final/0645_rv.mp4	0.0	313.7670729160309	2.50864315032959
46	213.4502158164978	pulse	1	t		44.0	2.5	/experiments/knapen_AOT/AOT_stimuli/rescaled_final/0645_rv.mp4	0.0	315.36068391799927	
46	214.365247964859	fix_post	2		12	44.0	2.5	/experiments/knapen_AOT/AOT_stimuli/rescaled_final/0645_rv.mp4	0.0	316.2757160663605	0.10002493858337402
47	214.46527290344238	fix_pre	0		120	45.0	2.5	/experiments/knapen_AOT/AOT_stimuli/rescaled_final/0521_fw.mp4	0.0	316.37574100494385	1.0001659393310547
47	215.04896903038025	pulse	0	t		45.0	2.5	/experiments/knapen_AOT/AOT_stimuli/rescaled_final/0521_fw.mp4	0.0	316.9594371318817	
47	215.46543884277344	movie	1		243	45.0	2.5	/experiments/knapen_AOT/AOT_stimuli/rescaled_final/0521_fw.mp4	0.0	317.3759069442749	2.5004611015319824
47	216.6492178440094	pulse	1	t		45.0	2.5	/experiments/knapen_AOT/AOT_stimuli/rescaled_final/0521_fw.mp4	0.0	318.55968594551086	
47	217.96589994430542	fix_post	2		9	45.0	2.5	/experiments/knapen_AOT/AOT_stimuli/rescaled_final/0521_fw.mp4	0.0	319.8763680458069	0.09992098808288574
48	218.0658209323883	fix_pre	0		120	46.0	2.5	/experiments/knapen_AOT/AOT_stimuli/rescaled_final/1073_fw.mp4	0.0	319.97628903388977	1.0001780986785889
48	218.24945783615112	pulse	0	t		46.0	2.5	/experiments/knapen_AOT/AOT_stimuli/rescaled_final/1073_fw.mp4	0.0	320.1599259376526	
48	219.0659990310669	movie	1		242	46.0	2.5	/experiments/knapen_AOT/AOT_stimuli/rescaled_final/1073_fw.mp4	0.0	320.97646713256836	2.500426769256592
48	219.84955883026123	pulse	1	t		46.0	2.5	/experiments/knapen_AOT/AOT_stimuli/rescaled_final/1073_fw.mp4	0.0	321.7600269317627	
48	221.45008301734924	pulse	1	t		46.0	2.5	/experiments/knapen_AOT/AOT_stimuli/rescaled_final/1073_fw.mp4	0.0	323.3605511188507	
48	221.5664258003235	fix_post	2		12	46.0	2.5	/experiments/knapen_AOT/AOT_stimuli/rescaled_final/1073_fw.mp4	0.0	323.47689390182495	0.09992313385009766
49	221.66634893417358	fix_pre	0		120	47.0	2.5	blank	1.0	323.57681703567505	1.000128984451294
49	222.66647791862488	movie	1		299	47.0	2.5	blank	1.0	324.57694602012634	2.4921369552612305
49	223.0500729084015	pulse	1	t		47.0	2.5	blank	1.0	324.96054100990295	
49	224.6503767967224	pulse	1	t		47.0	2.5	blank	1.0	326.5608448982239	
49	225.1586148738861	fix_post	2		12	47.0	2.5	blank	1.0	327.0690829753876	0.09995102882385254
50	225.25856590270996	fix_pre	0		120	48.0	2.5	/experiments/knapen_AOT/AOT_stimuli/rescaled_final/1397_fw.mp4	0.0	327.1690340042114	1.000101089477539
50	226.25060200691223	pulse	0	t		48.0	2.5	/experiments/knapen_AOT/AOT_stimuli/rescaled_final/1397_fw.mp4	0.0	328.1610701084137	
50	226.2586669921875	movie	1		244	48.0	2.5	/experiments/knapen_AOT/AOT_stimuli/rescaled_final/1397_fw.mp4	0.0	328.16913509368896	2.5087180137634277
50	227.85139799118042	pulse	1	t		48.0	2.5	/experiments/knapen_AOT/AOT_stimuli/rescaled_final/1397_fw.mp4	0.0	329.7618660926819	
50	228.76738500595093	fix_post	2		12	48.0	2.5	/experiments/knapen_AOT/AOT_stimuli/rescaled_final/1397_fw.mp4	0.0	330.6778531074524	0.10003995895385742
51	228.86742496490479	fix_pre	0		120	49.0	2.5	/experiments/knapen_AOT/AOT_stimuli/rescaled_final/1270_rv.mp4	0.0	330.77789306640625	1.0001540184020996
51	229.45095801353455	pulse	0	t		49.0	2.5	/experiments/knapen_AOT/AOT_stimuli/rescaled_final/1270_rv.mp4	0.0	331.361426115036	
51	229.86757898330688	movie	1		243	49.0	2.5	/experiments/knapen_AOT/AOT_stimuli/rescaled_final/1270_rv.mp4	0.0	331.77804708480835	2.5003910064697266
51	231.05143785476685	pulse	1	t		49.0	2.5	/experiments/knapen_AOT/AOT_stimuli/rescaled_final/1270_rv.mp4	0.0	332.9619059562683	
51	232.3679699897766	fix_post	2		12	49.0	2.5	/experiments/knapen_AOT/AOT_stimuli/rescaled_final/1270_rv.mp4	0.0	334.2784380912781	0.09998703002929688
52	232.4679570198059	fix_pre	0		120	50.0	2.5	/experiments/knapen_AOT/AOT_stimuli/rescaled_final/1556_fw.mp4	0.0	334.3784251213074	1.0001769065856934
52	232.65156197547913	pulse	0	t		50.0	2.5	/experiments/knapen_AOT/AOT_stimuli/rescaled_final/1556_fw.mp4	0.0	334.5620300769806	
52	233.4681339263916	movie	1		244	50.0	2.5	/experiments/knapen_AOT/AOT_stimuli/rescaled_final/1556_fw.mp4	0.0	335.37860202789307	2.500356912612915
52	234.25172686576843	pulse	1	t		50.0	2.5	/experiments/knapen_AOT/AOT_stimuli/rescaled_final/1556_fw.mp4	0.0	336.1621949672699	
52	235.8521490097046	pulse	1	t		50.0	2.5	/experiments/knapen_AOT/AOT_stimuli/rescaled_final/1556_fw.mp4	0.0	337.76261711120605	
52	235.96849083900452	fix_post	2		12	50.0	2.5	/experiments/knapen_AOT/AOT_stimuli/rescaled_final/1556_fw.mp4	0.0	337.878958940506	0.10002398490905762
53	236.06851482391357	fix_pre	0		120	51.0	2.5	/experiments/knapen_AOT/AOT_stimuli/rescaled_final/0026_rv.mp4	0.0	337.97898292541504	1.0001220703125
53	237.06863689422607	movie	1		242	51.0	2.5	/experiments/knapen_AOT/AOT_stimuli/rescaled_final/0026_rv.mp4	0.0	338.97910499572754	2.4920759201049805
53	237.45272994041443	pulse	1	t		51.0	2.5	/experiments/knapen_AOT/AOT_stimuli/rescaled_final/0026_rv.mp4	0.0	339.3631980419159	
53	239.05253291130066	pulse	1	t		51.0	2.5	/experiments/knapen_AOT/AOT_stimuli/rescaled_final/0026_rv.mp4	0.0	340.9630010128021	
53	239.56071281433105	fix_post	2		12	51.0	2.5	/experiments/knapen_AOT/AOT_stimuli/rescaled_final/0026_rv.mp4	0.0	341.4711809158325	0.0999760627746582
54	239.6606888771057	fix_pre	0		120	52.0	2.5	/experiments/knapen_AOT/AOT_stimuli/rescaled_final/0616_fw.mp4	0.0	341.5711569786072	1.0001189708709717
54	240.65264987945557	pulse	0	t		52.0	2.5	/experiments/knapen_AOT/AOT_stimuli/rescaled_final/0616_fw.mp4	0.0	342.56311798095703	
54	240.66080784797668	movie	1		243	52.0	2.5	/experiments/knapen_AOT/AOT_stimuli/rescaled_final/0616_fw.mp4	0.0	342.57127594947815	2.5087430477142334
54	242.25368189811707	pulse	1	t		52.0	2.5	/experiments/knapen_AOT/AOT_stimuli/rescaled_final/0616_fw.mp4	0.0	344.16414999961853	
54	243.16955089569092	fix_post	2		12	52.0	2.5	/experiments/knapen_AOT/AOT_stimuli/rescaled_final/0616_fw.mp4	0.0	345.0800189971924	0.1000359058380127
55	243.26958680152893	fix_pre	0		120	53.0	2.5	/experiments/knapen_AOT/AOT_stimuli/rescaled_final/0199_rv.mp4	0.0	345.1800549030304	1.0001251697540283
55	243.85311484336853	pulse	0	t		53.0	2.5	/experiments/knapen_AOT/AOT_stimuli/rescaled_final/0199_rv.mp4	0.0	345.76358294487	
55	244.26971197128296	movie	1		244	53.0	2.5	/experiments/knapen_AOT/AOT_stimuli/rescaled_final/0199_rv.mp4	0.0	346.1801800727844	2.5003838539123535
55	245.44985485076904	pulse	1	t		53.0	2.5	/experiments/knapen_AOT/AOT_stimuli/rescaled_final/0199_rv.mp4	0.0	347.3603229522705	
55	246.7700958251953	fix_post	2		12	53.0	2.5	/experiments/knapen_AOT/AOT_stimuli/rescaled_final/0199_rv.mp4	0.0	348.6805639266968	0.10003399848937988
56	246.8701298236847	fix_pre	0		120	54.0	2.5	/experiments/knapen_AOT/AOT_stimuli/rescaled_final/0989_fw.mp4	0.0	348.78059792518616	1.0001862049102783
56	247.05362582206726	pulse	0	t		54.0	2.5	/experiments/knapen_AOT/AOT_stimuli/rescaled_final/0989_fw.mp4	0.0	348.9640939235687	
56	247.87031602859497	movie	1		243	54.0	2.5	/experiments/knapen_AOT/AOT_stimuli/rescaled_final/0989_fw.mp4	0.0	349.78078413009644	2.5004119873046875
56	248.65389490127563	pulse	1	t		54.0	2.5	/experiments/knapen_AOT/AOT_stimuli/rescaled_final/0989_fw.mp4	0.0	350.5643630027771	
56	250.2541308403015	pulse	1	t		54.0	2.5	/experiments/knapen_AOT/AOT_stimuli/rescaled_final/0989_fw.mp4	0.0	352.164598941803	
56	250.37072801589966	fix_post	2		12	54.0	2.5	/experiments/knapen_AOT/AOT_stimuli/rescaled_final/0989_fw.mp4	0.0	352.2811961174011	0.09993386268615723
57	250.47066187858582	fix_pre	0		120	55.0	2.5	blank	1.0	352.3811299800873	1.0001320838928223
57	251.47079396247864	movie	1		299	55.0	2.5	blank	1.0	353.3812620639801	2.4920129776000977
57	251.85446095466614	pulse	1	t		55.0	2.5	blank	1.0	353.7649290561676	
57	253.45462489128113	pulse	1	t		55.0	2.5	blank	1.0	355.3650929927826	
57	253.96280694007874	fix_post	2		12	55.0	2.5	blank	1.0	355.8732750415802	0.10001397132873535
58	254.06282091140747	fix_pre	0		120	56.0	2.5	/experiments/knapen_AOT/AOT_stimuli/rescaled_final/0448_fw.mp4	0.0	355.97328901290894	1.0001490116119385
58	255.05491089820862	pulse	0	t		56.0	2.5	/experiments/knapen_AOT/AOT_stimuli/rescaled_final/0448_fw.mp4	0.0	356.9653789997101	
58	255.0629699230194	movie	1		243	56.0	2.5	/experiments/knapen_AOT/AOT_stimuli/rescaled_final/0448_fw.mp4	0.0	356.9734380245209	2.50871205329895
58	256.655681848526	pulse	1	t		56.0	2.5	/experiments/knapen_AOT/AOT_stimuli/rescaled_final/0448_fw.mp4	0.0	358.56614995002747	
58	257.57168197631836	fix_post	2		12	56.0	2.5	/experiments/knapen_AOT/AOT_stimuli/rescaled_final/0448_fw.mp4	0.0	359.4821500778198	0.1000518798828125
59	257.6717338562012	fix_pre	0		120	57.0	2.5	/experiments/knapen_AOT/AOT_stimuli/rescaled_final/1130_rv.mp4	0.0	359.58220195770264	1.000110149383545
59	258.2477869987488	pulse	0	t		57.0	2.5	/experiments/knapen_AOT/AOT_stimuli/rescaled_final/1130_rv.mp4	0.0	360.15825510025024	
59	258.6718440055847	movie	1		243	57.0	2.5	/experiments/knapen_AOT/AOT_stimuli/rescaled_final/1130_rv.mp4	0.0	360.5823121070862	2.500419855117798
59	259.8557598590851	pulse	1	t		57.0	2.5	/experiments/knapen_AOT/AOT_stimuli/rescaled_final/1130_rv.mp4	0.0	361.76622796058655	
59	261.1722638607025	fix_post	2		12	57.0	2.5	/experiments/knapen_AOT/AOT_stimuli/rescaled_final/1130_rv.mp4	0.0	363.082731962204	0.1000370979309082
60	261.2723009586334	fix_pre	0		120	58.0	2.5	/experiments/knapen_AOT/AOT_stimuli/rescaled_final/1248_rv.mp4	0.0	363.1827690601349	1.0001349449157715
60	261.44834995269775	pulse	0	t		58.0	2.5	/experiments/knapen_AOT/AOT_stimuli/rescaled_final/1248_rv.mp4	0.0	363.3588180541992	
60	262.2724359035492	movie	1		243	58.0	2.5	/experiments/knapen_AOT/AOT_stimuli/rescaled_final/1248_rv.mp4	0.0	364.18290400505066	2.5004239082336426
60	263.0488188266754	pulse	1	t		58.0	2.5	/experiments/knapen_AOT/AOT_stimuli/rescaled_final/1248_rv.mp4	0.0	364.9592869281769	
60	264.64807891845703	pulse	1	t		58.0	2.5	/experiments/knapen_AOT/AOT_stimuli/rescaled_final/1248_rv.mp4	0.0	366.5585470199585	
60	264.77285981178284	fix_post	2		12	58.0	2.5	/experiments/knapen_AOT/AOT_stimuli/rescaled_final/1248_rv.mp4	0.0	366.6833279132843	0.09992218017578125
61	264.8727819919586	fix_pre	0		120	59.0	2.5	/experiments/knapen_AOT/AOT_stimuli/rescaled_final/0667_rv.mp4	0.0	366.7832500934601	1.0001308917999268
61	265.87291288375854	movie	1		241	59.0	2.5	/experiments/knapen_AOT/AOT_stimuli/rescaled_final/0667_rv.mp4	0.0	367.78338098526	2.492138147354126
61	266.24813199043274	pulse	1	t		59.0	2.5	/experiments/knapen_AOT/AOT_stimuli/rescaled_final/0667_rv.mp4	0.0	368.1586000919342	
61	267.84846782684326	pulse	1	t		59.0	2.5	/experiments/knapen_AOT/AOT_stimuli/rescaled_final/0667_rv.mp4	0.0	369.7589359283447	
61	268.36505103111267	fix_post	2		12	59.0	2.5	/experiments/knapen_AOT/AOT_stimuli/rescaled_final/0667_rv.mp4	0.0	370.27551913261414	0.09992480278015137
62	268.4649758338928	fix_pre	0		119	60.0	2.5	/experiments/knapen_AOT/AOT_stimuli/rescaled_final/0760_fw.mp4	0.0	370.3754439353943	0.9918050765991211
62	269.44873094558716	pulse	0	t		60.0	2.5	/experiments/knapen_AOT/AOT_stimuli/rescaled_final/0760_fw.mp4	0.0	371.3591990470886	
62	269.45678091049194	movie	1		244	60.0	2.5	/experiments/knapen_AOT/AOT_stimuli/rescaled_final/0760_fw.mp4	0.0	371.3672490119934	2.508776903152466
62	271.04945492744446	pulse	1	t		60.0	2.5	/experiments/knapen_AOT/AOT_stimuli/rescaled_final/0760_fw.mp4	0.0	372.9599230289459	
62	271.9655578136444	fix_post	2		12	60.0	2.5	/experiments/knapen_AOT/AOT_stimuli/rescaled_final/0760_fw.mp4	0.0	373.8760259151459	0.10003900527954102
63	272.06559681892395	fix_pre	0		120	61.0	2.5	/experiments/knapen_AOT/AOT_stimuli/rescaled_final/1946_fw.mp4	0.0	373.9760649204254	1.0000691413879395
63	272.6490669250488	pulse	0	t		61.0	2.5	/experiments/knapen_AOT/AOT_stimuli/rescaled_final/1946_fw.mp4	0.0	374.5595350265503	
63	273.0656659603119	movie	1		243	61.0	2.5	/experiments/knapen_AOT/AOT_stimuli/rescaled_final/1946_fw.mp4	0.0	374.97613406181335	2.5003960132598877
63	274.24949502944946	pulse	1	t		61.0	2.5	/experiments/knapen_AOT/AOT_stimuli/rescaled_final/1946_fw.mp4	0.0	376.1599631309509	
63	275.5660619735718	fix_post	2		12	61.0	2.5	/experiments/knapen_AOT/AOT_stimuli/rescaled_final/1946_fw.mp4	0.0	377.47653007507324	0.10004997253417969
64	275.66611194610596	fix_pre	0		120	62.0	2.5	/experiments/knapen_AOT/AOT_stimuli/rescaled_final/1994_rv.mp4	0.0	377.5765800476074	1.0001239776611328
64	275.84956192970276	pulse	0	t		62.0	2.5	/experiments/knapen_AOT/AOT_stimuli/rescaled_final/1994_rv.mp4	0.0	377.7600300312042	
64	276.6662359237671	movie	1		243	62.0	2.5	/experiments/knapen_AOT/AOT_stimuli/rescaled_final/1994_rv.mp4	0.0	378.57670402526855	2.500473976135254
64	277.4498679637909	pulse	1	t		62.0	2.5	/experiments/knapen_AOT/AOT_stimuli/rescaled_final/1994_rv.mp4	0.0	379.36033606529236	
64	279.05006289482117	pulse	1	t		62.0	2.5	/experiments/knapen_AOT/AOT_stimuli/rescaled_final/1994_rv.mp4	0.0	380.96053099632263	
64	279.16670989990234	fix_post	2		9	62.0	2.5	/experiments/knapen_AOT/AOT_stimuli/rescaled_final/1994_rv.mp4	0.0	381.0771780014038	0.10001206398010254
65	279.26672196388245	fix_pre	0		120	63.0	2.5	blank	1.0	381.1771900653839	1.0000488758087158
65	280.26677083969116	movie	1		299	63.0	2.5	blank	1.0	382.1772389411926	2.492025136947632
65	280.6503310203552	pulse	1	t		63.0	2.5	blank	1.0	382.5607991218567	
65	282.25051188468933	pulse	1	t		63.0	2.5	blank	1.0	384.1609799861908	
65	282.7587959766388	fix_post	2		12	63.0	2.5	blank	1.0	384.66926407814026	0.10001397132873535
66	282.85880994796753	fix_pre	0		120	64.0	2.5	/experiments/knapen_AOT/AOT_stimuli/rescaled_final/1008_fw.mp4	0.0	384.769278049469	1.0001230239868164
66	283.8509478569031	pulse	0	t		64.0	2.5	/experiments/knapen_AOT/AOT_stimuli/rescaled_final/1008_fw.mp4	0.0	385.76141595840454	
66	283.85893297195435	movie	1		243	64.0	2.5	/experiments/knapen_AOT/AOT_stimuli/rescaled_final/1008_fw.mp4	0.0	385.7694010734558	2.5087740421295166
66	285.45158791542053	pulse	1	t		64.0	2.5	/experiments/knapen_AOT/AOT_stimuli/rescaled_final/1008_fw.mp4	0.0	387.362056016922	
66	286.36770701408386	fix_post	2		12	64.0	2.5	/experiments/knapen_AOT/AOT_stimuli/rescaled_final/1008_fw.mp4	0.0	388.2781751155853	0.10000395774841309
67	286.4677109718323	fix_pre	0		120	65.0	2.5	/experiments/knapen_AOT/AOT_stimuli/rescaled_final/0509_fw.mp4	0.0	388.37817907333374	1.0001230239868164
67	287.0512719154358	pulse	0	t		65.0	2.5	/experiments/knapen_AOT/AOT_stimuli/rescaled_final/0509_fw.mp4	0.0	388.96174001693726	
67	287.4678339958191	movie	1		245	65.0	2.5	/experiments/knapen_AOT/AOT_stimuli/rescaled_final/0509_fw.mp4	0.0	389.37830209732056	2.500349998474121
67	288.6516058444977	pulse	1	t		65.0	2.5	/experiments/knapen_AOT/AOT_stimuli/rescaled_final/0509_fw.mp4	0.0	390.56207394599915	
67	289.9681839942932	fix_post	2		12	65.0	2.5	/experiments/knapen_AOT/AOT_stimuli/rescaled_final/0509_fw.mp4	0.0	391.8786520957947	0.10003495216369629
68	290.0682189464569	fix_pre	0		120	66.0	2.5	/experiments/knapen_AOT/AOT_stimuli/rescaled_final/1352_fw.mp4	0.0	391.9786870479584	1.000187873840332
68	290.25189089775085	pulse	0	t		66.0	2.5	/experiments/knapen_AOT/AOT_stimuli/rescaled_final/1352_fw.mp4	0.0	392.1623589992523	
68	291.06840682029724	movie	1		242	66.0	2.5	/experiments/knapen_AOT/AOT_stimuli/rescaled_final/1352_fw.mp4	0.0	392.9788749217987	2.500488042831421
68	291.85201597213745	pulse	1	t		66.0	2.5	/experiments/knapen_AOT/AOT_stimuli/rescaled_final/1352_fw.mp4	0.0	393.7624840736389	
68	293.45288491249084	pulse	1	t		66.0	2.5	/experiments/knapen_AOT/AOT_stimuli/rescaled_final/1352_fw.mp4	0.0	395.3633530139923	
68	293.56889486312866	fix_post	2		12	66.0	2.5	/experiments/knapen_AOT/AOT_stimuli/rescaled_final/1352_fw.mp4	0.0	395.4793629646301	0.09989404678344727
69	293.6687889099121	fix_pre	0		120	67.0	2.5	/experiments/knapen_AOT/AOT_stimuli/rescaled_final/0155_rv.mp4	0.0	395.5792570114136	1.0000989437103271
69	294.66888785362244	movie	1		241	67.0	2.5	/experiments/knapen_AOT/AOT_stimuli/rescaled_final/0155_rv.mp4	0.0	396.5793559551239	2.492095947265625
69	295.05386781692505	pulse	1	t		67.0	2.5	/experiments/knapen_AOT/AOT_stimuli/rescaled_final/0155_rv.mp4	0.0	396.9643359184265	
69	296.65278792381287	pulse	1	t		67.0	2.5	/experiments/knapen_AOT/AOT_stimuli/rescaled_final/0155_rv.mp4	0.0	398.56325602531433	
69	297.16098380088806	fix_post	2		12	67.0	2.5	/experiments/knapen_AOT/AOT_stimuli/rescaled_final/0155_rv.mp4	0.0	399.0714519023895	0.09994006156921387
70	297.2609238624573	fix_pre	0		120	68.0	2.5	blank	1.0	399.17139196395874	1.0002350807189941
70	298.2530188560486	pulse	0	t		68.0	2.5	blank	1.0	400.16348695755005	
70	298.26115894317627	movie	1		301	68.0	2.5	blank	1.0	400.17162704467773	2.5086679458618164
70	299.85317301750183	pulse	1	t		68.0	2.5	blank	1.0	401.7636411190033	
70	300.7698268890381	fix_post	2		12	68.0	2.5	blank	1.0	402.68029499053955	0.10003304481506348
71	300.86985993385315	fix_pre	0		120	69.0	2.5	/experiments/knapen_AOT/AOT_stimuli/rescaled_final/0864_fw.mp4	0.0	402.7803280353546	1.0000998973846436
71	301.4534327983856	pulse	0	t		69.0	2.5	/experiments/knapen_AOT/AOT_stimuli/rescaled_final/0864_fw.mp4	0.0	403.3639008998871	
71	301.8699598312378	movie	1		243	69.0	2.5	/experiments/knapen_AOT/AOT_stimuli/rescaled_final/0864_fw.mp4	0.0	403.78042793273926	2.500460147857666
71	303.05380296707153	pulse	1	t		69.0	2.5	/experiments/knapen_AOT/AOT_stimuli/rescaled_final/0864_fw.mp4	0.0	404.964271068573	
71	304.37041997909546	fix_post	2		12	69.0	2.5	/experiments/knapen_AOT/AOT_stimuli/rescaled_final/0864_fw.mp4	0.0	406.2808880805969	0.09994101524353027
72	304.470360994339	fix_pre	0		120	70.0	2.5	/experiments/knapen_AOT/AOT_stimuli/rescaled_final/0116_fw.mp4	0.0	406.38082909584045	1.0001869201660156
72	304.65397787094116	pulse	0	t		70.0	2.5	/experiments/knapen_AOT/AOT_stimuli/rescaled_final/0116_fw.mp4	0.0	406.5644459724426	
72	305.470547914505	movie	1		245	70.0	2.5	/experiments/knapen_AOT/AOT_stimuli/rescaled_final/0116_fw.mp4	0.0	407.38101601600647	2.5003819465637207
72	306.2541239261627	pulse	1	t		70.0	2.5	/experiments/knapen_AOT/AOT_stimuli/rescaled_final/0116_fw.mp4	0.0	408.1645920276642	
72	307.854444026947	pulse	1	t		70.0	2.5	/experiments/knapen_AOT/AOT_stimuli/rescaled_final/0116_fw.mp4	0.0	409.7649121284485	
72	307.9709298610687	fix_post	2		12	70.0	2.5	/experiments/knapen_AOT/AOT_stimuli/rescaled_final/0116_fw.mp4	0.0	409.8813979625702	0.09999203681945801
73	308.0709218978882	fix_pre	0		120	71.0	2.5	/experiments/knapen_AOT/AOT_stimuli/rescaled_final/2059_rv.mp4	0.0	409.98138999938965	1.0001139640808105
73	309.071035861969	movie	1		243	71.0	2.5	/experiments/knapen_AOT/AOT_stimuli/rescaled_final/2059_rv.mp4	0.0	410.98150396347046	2.4921441078186035
73	309.45576786994934	pulse	1	t		71.0	2.5	/experiments/knapen_AOT/AOT_stimuli/rescaled_final/2059_rv.mp4	0.0	411.3662359714508	
73	311.04747700691223	pulse	1	t		71.0	2.5	/experiments/knapen_AOT/AOT_stimuli/rescaled_final/2059_rv.mp4	0.0	412.9579451084137	
73	311.5631799697876	fix_post	2		12	71.0	2.5	/experiments/knapen_AOT/AOT_stimuli/rescaled_final/2059_rv.mp4	0.0	413.47364807128906	0.09999299049377441
74	311.6631729602814	fix_pre	0		120	72.0	2.5	/experiments/knapen_AOT/AOT_stimuli/rescaled_final/0490_rv.mp4	0.0	413.57364106178284	1.0001039505004883
74	312.64757895469666	pulse	0	t		72.0	2.5	/experiments/knapen_AOT/AOT_stimuli/rescaled_final/0490_rv.mp4	0.0	414.5580470561981	
74	312.66327691078186	movie	1		244	72.0	2.5	/experiments/knapen_AOT/AOT_stimuli/rescaled_final/0490_rv.mp4	0.0	414.5737450122833	2.5087080001831055
74	314.25605297088623	pulse	1	t		72.0	2.5	/experiments/knapen_AOT/AOT_stimuli/rescaled_final/0490_rv.mp4	0.0	416.1665210723877	
74	315.17198491096497	fix_post	2		12	72.0	2.5	/experiments/knapen_AOT/AOT_stimuli/rescaled_final/0490_rv.mp4	0.0	417.08245301246643	0.10004997253417969
75	315.27203488349915	fix_pre	0		120	73.0	2.5	/experiments/knapen_AOT/AOT_stimuli/rescaled_final/0697_fw.mp4	0.0	417.1825029850006	1.000101089477539
75	315.84809398651123	pulse	0	t		73.0	2.5	/experiments/knapen_AOT/AOT_stimuli/rescaled_final/0697_fw.mp4	0.0	417.7585620880127	
75	316.2721359729767	movie	1		242	73.0	2.5	/experiments/knapen_AOT/AOT_stimuli/rescaled_final/0697_fw.mp4	0.0	418.18260407447815	2.500412940979004
75	317.448215007782	pulse	1	t		73.0	2.5	/experiments/knapen_AOT/AOT_stimuli/rescaled_final/0697_fw.mp4	0.0	419.35868310928345	
75	318.7725489139557	fix_post	2		12	73.0	2.5	/experiments/knapen_AOT/AOT_stimuli/rescaled_final/0697_fw.mp4	0.0	420.68301701545715	0.0999751091003418
76	318.87252402305603	fix_pre	0		120	74.0	2.5	/experiments/knapen_AOT/AOT_stimuli/rescaled_final/0367_fw.mp4	0.0	420.7829921245575	1.0001778602600098
76	319.04769492149353	pulse	0	t		74.0	2.5	/experiments/knapen_AOT/AOT_stimuli/rescaled_final/0367_fw.mp4	0.0	420.958163022995	
76	319.87270188331604	movie	1		243	74.0	2.5	/experiments/knapen_AOT/AOT_stimuli/rescaled_final/0367_fw.mp4	0.0	421.7831699848175	2.4920549392700195
76	320.6478898525238	pulse	1	t		74.0	2.5	/experiments/knapen_AOT/AOT_stimuli/rescaled_final/0367_fw.mp4	0.0	422.55835795402527	
76	322.2483649253845	pulse	1	t		74.0	2.5	/experiments/knapen_AOT/AOT_stimuli/rescaled_final/0367_fw.mp4	0.0	424.158833026886	
76	322.36475682258606	fix_post	2		12	74.0	2.5	/experiments/knapen_AOT/AOT_stimuli/rescaled_final/0367_fw.mp4	0.0	424.2752249240875	0.09998703002929688
77	322.46474385261536	fix_pre	0		120	75.0	2.5	blank	1.0	424.3752119541168	1.0001139640808105
77	323.46485781669617	movie	1		300	75.0	2.5	blank	1.0	425.37532591819763	2.500392198562622
77	323.8485448360443	pulse	1	t		75.0	2.5	blank	1.0	425.7590129375458	
77	325.4486629962921	pulse	1	t		75.0	2.5	blank	1.0	427.3591310977936	
77	325.9652500152588	fix_post	2		12	75.0	2.5	blank	1.0	427.87571811676025	0.10004186630249023
78	326.0652918815613	fix_pre	0		119	76.0	2.5	/experiments/knapen_AOT/AOT_stimuli/rescaled_final/1301_rv.mp4	0.0	427.97575998306274	0.9918510913848877
78	327.04889583587646	pulse	0	t		76.0	2.5	/experiments/knapen_AOT/AOT_stimuli/rescaled_final/1301_rv.mp4	0.0	428.95936393737793	
78	327.05714297294617	movie	1		244	76.0	2.5	/experiments/knapen_AOT/AOT_stimuli/rescaled_final/1301_rv.mp4	0.0	428.96761107444763	2.508635997772217
78	328.6498188972473	pulse	1	t		76.0	2.5	/experiments/knapen_AOT/AOT_stimuli/rescaled_final/1301_rv.mp4	0.0	430.5602869987488	
78	329.5657789707184	fix_post	2		12	76.0	2.5	/experiments/knapen_AOT/AOT_stimuli/rescaled_final/1301_rv.mp4	0.0	431.47624707221985	0.1000528335571289
79	329.6658318042755	fix_pre	0		120	77.0	2.5	/experiments/knapen_AOT/AOT_stimuli/rescaled_final/0831_rv.mp4	0.0	431.576299905777	1.0000901222229004
79	330.24951791763306	pulse	0	t		77.0	2.5	/experiments/knapen_AOT/AOT_stimuli/rescaled_final/0831_rv.mp4	0.0	432.1599860191345	
79	330.6659219264984	movie	1		242	77.0	2.5	/experiments/knapen_AOT/AOT_stimuli/rescaled_final/0831_rv.mp4	0.0	432.5763900279999	2.5005910396575928
79	331.84983587265015	pulse	1	t		77.0	2.5	/experiments/knapen_AOT/AOT_stimuli/rescaled_final/0831_rv.mp4	0.0	433.7603039741516	
79	333.166512966156	fix_post	2		12	77.0	2.5	/experiments/knapen_AOT/AOT_stimuli/rescaled_final/0831_rv.mp4	0.0	435.07698106765747	0.09979391098022461
80	333.26630687713623	fix_pre	0		120	78.0	2.5	/experiments/knapen_AOT/AOT_stimuli/rescaled_final/0893_rv.mp4	0.0	435.1767749786377	1.0001869201660156
80	333.4498429298401	pulse	0	t		78.0	2.5	/experiments/knapen_AOT/AOT_stimuli/rescaled_final/0893_rv.mp4	0.0	435.36031103134155	
80	334.26649379730225	movie	1		242	78.0	2.5	/experiments/knapen_AOT/AOT_stimuli/rescaled_final/0893_rv.mp4	0.0	436.1769618988037	2.500427007675171
80	335.0500957965851	pulse	1	t		78.0	2.5	/experiments/knapen_AOT/AOT_stimuli/rescaled_final/0893_rv.mp4	0.0	436.96056389808655	
80	336.65017080307007	pulse	1	t		78.0	2.5	/experiments/knapen_AOT/AOT_stimuli/rescaled_final/0893_rv.mp4	0.0	438.56063890457153	
80	336.7669208049774	fix_post	2		12	78.0	2.5	/experiments/knapen_AOT/AOT_stimuli/rescaled_final/0893_rv.mp4	0.0	438.6773889064789	0.09992718696594238
81	336.86684799194336	fix_pre	0		120	79.0	2.5	/experiments/knapen_AOT/AOT_stimuli/rescaled_final/0405_fw.mp4	0.0	438.7773160934448	1.0001440048217773
81	337.86699199676514	movie	1		241	79.0	2.5	/experiments/knapen_AOT/AOT_stimuli/rescaled_final/0405_fw.mp4	0.0	439.7774600982666	2.501736879348755
81	338.25113701820374	pulse	1	t		79.0	2.5	/experiments/knapen_AOT/AOT_stimuli/rescaled_final/0405_fw.mp4	0.0	440.1616051197052	
81	339.8508229255676	pulse	1	t		79.0	2.5	/experiments/knapen_AOT/AOT_stimuli/rescaled_final/0405_fw.mp4	0.0	441.7612910270691	
81	340.3687288761139	fix_post	2		9	79.0	2.5	/experiments/knapen_AOT/AOT_stimuli/rescaled_final/0405_fw.mp4	0.0	442.27919697761536	0.09039807319641113
82	340.4591269493103	fix_pre	0		120	80.0	2.5	/experiments/knapen_AOT/AOT_stimuli/rescaled_final/1270_fw.mp4	0.0	442.36959505081177	1.0001049041748047
82	341.45102190971375	pulse	0	t		80.0	2.5	/experiments/knapen_AOT/AOT_stimuli/rescaled_final/1270_fw.mp4	0.0	443.3614900112152	
82	341.4592318534851	movie	1		244	80.0	2.5	/experiments/knapen_AOT/AOT_stimuli/rescaled_final/1270_fw.mp4	0.0	443.3696999549866	2.5086779594421387
82	343.05187797546387	pulse	1	t		80.0	2.5	/experiments/knapen_AOT/AOT_stimuli/rescaled_final/1270_fw.mp4	0.0	444.96234607696533	
82	343.96790981292725	fix_post	2		12	80.0	2.5	/experiments/knapen_AOT/AOT_stimuli/rescaled_final/1270_fw.mp4	0.0	445.8783779144287	0.10000205039978027
83	344.067911863327	fix_pre	0		120	81.0	2.5	/experiments/knapen_AOT/AOT_stimuli/rescaled_final/1670_fw.mp4	0.0	445.9783799648285	1.000180959701538
83	344.65161895751953	pulse	0	t		81.0	2.5	/experiments/knapen_AOT/AOT_stimuli/rescaled_final/1670_fw.mp4	0.0	446.562087059021	
83	345.06809282302856	movie	1		244	81.0	2.5	/experiments/knapen_AOT/AOT_stimuli/rescaled_final/1670_fw.mp4	0.0	446.97856092453003	2.5004310607910156
83	346.25197887420654	pulse	1	t		81.0	2.5	/experiments/knapen_AOT/AOT_stimuli/rescaled_final/1670_fw.mp4	0.0	448.162446975708	
83	347.5685238838196	fix_post	2		12	81.0	2.5	/experiments/knapen_AOT/AOT_stimuli/rescaled_final/1670_fw.mp4	0.0	449.47899198532104	0.09997701644897461
84	347.66850090026855	fix_pre	0		120	82.0	2.5	blank	1.0	449.57896900177	1.000140905380249
84	347.8519639968872	pulse	0	t		82.0	2.5	blank	1.0	449.7624320983887	
84	348.6686418056488	movie	1		300	82.0	2.5	blank	1.0	450.57910990715027	2.5003511905670166
84	349.4521858692169	pulse	1	t		82.0	2.5	blank	1.0	451.3626539707184	
84	351.0526158809662	pulse	1	t		82.0	2.5	blank	1.0	452.96308398246765	
84	351.1689929962158	fix_post	2		12	82.0	2.5	blank	1.0	453.0794610977173	0.10000181198120117
85	351.268994808197	fix_pre	0		120	83.0	2.5	/experiments/knapen_AOT/AOT_stimuli/rescaled_final/1205_rv.mp4	0.0	453.1794629096985	1.0001811981201172
85	352.26917600631714	movie	1		242	83.0	2.5	/experiments/knapen_AOT/AOT_stimuli/rescaled_final/1205_rv.mp4	0.0	454.1796441078186	2.492130994796753
85	352.65339398384094	pulse	1	t		83.0	2.5	/experiments/knapen_AOT/AOT_stimuli/rescaled_final/1205_rv.mp4	0.0	454.5638620853424	
85	354.2529408931732	pulse	1	t		83.0	2.5	/experiments/knapen_AOT/AOT_stimuli/rescaled_final/1205_rv.mp4	0.0	456.1634089946747	
85	354.7613070011139	fix_post	2		12	83.0	2.5	/experiments/knapen_AOT/AOT_stimuli/rescaled_final/1205_rv.mp4	0.0	456.67177510261536	0.09995794296264648
87	354.86126494407654	stim	0		1716					456.771733045578	14.302186012268066
87	355.8531630039215	pulse	0	t						457.763631105423	
87	357.45352602005005	pulse	0	t						459.3639941215515	
87	359.0536959171295	pulse	0	t						460.964164018631	
87	360.6539478302002	pulse	0	t						462.56441593170166	
87	362.25405287742615	pulse	0	t						464.1645209789276	
87	363.8543529510498	pulse	0	t						465.76482105255127	
87	365.4546959400177	pulse	0	t						467.36516404151917	
87	367.054878950119	pulse	0	t						468.9653470516205	
87	368.65499687194824	pulse	0	t						470.5654649734497	
