trial_nr	onset	event_type	phase	response	nr_frames	movie_index	movie_duration	movie_file	blank	onset_abs	duration
0	0.12502026557922363	stim	0		198					35.739083766937256	1.6501238346099854
0	1.76700758934021	response	0	space						37.38107109069824	
1	1.775144100189209	stim	0		4245					37.38920760154724	35.389336824417114
1	37.15406656265259	pulse	0	t						72.76813006401062	
1	37.16448092460632	stim	1		1715					72.77854442596436	14.301455736160278
1	38.74754047393799	pulse	1	t						74.36160397529602	
1	40.347816705703735	pulse	1	t						75.96188020706177	
1	41.948012590408325	pulse	1	t						77.56207609176636	
1	43.54830312728882	pulse	1	t						79.16236662864685	
1	45.14849281311035	pulse	1	t						80.76255631446838	
1	46.748775005340576	pulse	1	t						82.36283850669861	
1	48.349042892456055	pulse	1	t						83.96310639381409	
1	49.94923496246338	pulse	1	t						85.56329846382141	
2	51.4659366607666	fix_pre	0		11	0.0	2.5	/experiments/Knapen_AOT/AOT_stimuli/rescaled_final/1621_fw.mp4	0.0	87.08000016212463	0.10838627815246582
2	51.549718141555786	pulse	0	t		0.0	2.5	/experiments/Knapen_AOT/AOT_stimuli/rescaled_final/1621_fw.mp4	0.0	87.16378164291382	
2	51.57432293891907	movie	1		291	0.0	2.5	/experiments/Knapen_AOT/AOT_stimuli/rescaled_final/1621_fw.mp4	0.0	87.1883864402771	2.4919769763946533
2	53.148170948028564	pulse	1	t		0.0	2.5	/experiments/Knapen_AOT/AOT_stimuli/rescaled_final/1621_fw.mp4	0.0	88.7622344493866	
2	54.06629991531372	fix_post	2		12	0.0	2.5	/experiments/Knapen_AOT/AOT_stimuli/rescaled_final/1621_fw.mp4	0.0	89.68036341667175	0.10003781318664551
3	54.166337728500366	fix_pre	0		120	1.0	2.5	/experiments/Knapen_AOT/AOT_stimuli/rescaled_final/1267_rv.mp4	0.0	89.7804012298584	1.0085458755493164
3	54.75001001358032	pulse	0	t		1.0	2.5	/experiments/Knapen_AOT/AOT_stimuli/rescaled_final/1267_rv.mp4	0.0	90.36407351493835	
3	55.17488360404968	movie	1		284	1.0	2.5	/experiments/Knapen_AOT/AOT_stimuli/rescaled_final/1267_rv.mp4	0.0	90.78894710540771	2.491976499557495
3	56.348063468933105	pulse	1	t		1.0	2.5	/experiments/Knapen_AOT/AOT_stimuli/rescaled_final/1267_rv.mp4	0.0	91.96212697029114	
3	57.66686010360718	fix_post	2		12	1.0	2.5	/experiments/Knapen_AOT/AOT_stimuli/rescaled_final/1267_rv.mp4	0.0	93.28092360496521	0.10001468658447266
4	57.76687479019165	fix_pre	0		120	2.0	2.5	/experiments/Knapen_AOT/AOT_stimuli/rescaled_final/0637_fw.mp4	0.0	93.38093829154968	1.0084879398345947
4	57.950424671173096	pulse	0	t		2.0	2.5	/experiments/Knapen_AOT/AOT_stimuli/rescaled_final/0637_fw.mp4	0.0	93.56448817253113	
4	58.775362730026245	movie	1		282	2.0	2.5	/experiments/Knapen_AOT/AOT_stimuli/rescaled_final/0637_fw.mp4	0.0	94.38942623138428	2.4920363426208496
4	59.54873561859131	pulse	1	t		2.0	2.5	/experiments/Knapen_AOT/AOT_stimuli/rescaled_final/0637_fw.mp4	0.0	95.16279911994934	
4	61.14930534362793	pulse	1	t		2.0	2.5	/experiments/Knapen_AOT/AOT_stimuli/rescaled_final/0637_fw.mp4	0.0	96.76336884498596	
4	61.267399072647095	fix_post	2		12	2.0	2.5	/experiments/Knapen_AOT/AOT_stimuli/rescaled_final/0637_fw.mp4	0.0	96.88146257400513	0.10001087188720703
5	61.3674099445343	fix_pre	0		120	3.0	2.5	/experiments/Knapen_AOT/AOT_stimuli/rescaled_final/0205_fw.mp4	0.0	96.98147344589233	1.0085341930389404
5	62.37594413757324	movie	1		285	3.0	2.5	/experiments/Knapen_AOT/AOT_stimuli/rescaled_final/0205_fw.mp4	0.0	97.99000763893127	2.492044687271118
5	62.74980425834656	pulse	1	t		3.0	2.5	/experiments/Knapen_AOT/AOT_stimuli/rescaled_final/0205_fw.mp4	0.0	98.36386775970459	
5	64.34918665885925	pulse	1	t		3.0	2.5	/experiments/Knapen_AOT/AOT_stimuli/rescaled_final/0205_fw.mp4	0.0	99.96325016021729	
5	64.86798882484436	fix_post	2		12	3.0	2.5	/experiments/Knapen_AOT/AOT_stimuli/rescaled_final/0205_fw.mp4	0.0	100.48205232620239	0.09996962547302246
6	64.96795845031738	fix_pre	0		119	4.0	2.5	/experiments/Knapen_AOT/AOT_stimuli/rescaled_final/0443_rv.mp4	0.0	100.58202195167542	1.0001590251922607
6	65.943838596344	pulse	0	t		4.0	2.5	/experiments/Knapen_AOT/AOT_stimuli/rescaled_final/0443_rv.mp4	0.0	101.55790209770203	
6	65.96811747550964	movie	1		289	4.0	2.5	/experiments/Knapen_AOT/AOT_stimuli/rescaled_final/0443_rv.mp4	0.0	101.58218097686768	2.5003695487976074
6	67.5439076423645	pulse	1	t		4.0	2.5	/experiments/Knapen_AOT/AOT_stimuli/rescaled_final/0443_rv.mp4	0.0	103.15797114372253	
6	68.46848702430725	fix_post	2		12	4.0	2.5	/experiments/Knapen_AOT/AOT_stimuli/rescaled_final/0443_rv.mp4	0.0	104.08255052566528	0.10000371932983398
7	68.56849074363708	fix_pre	0		120	5.0	2.5	blank	1.0	104.18255424499512	1.0001509189605713
7	69.14403557777405	pulse	0	t		5.0	2.5	blank	1.0	104.75809907913208	
7	69.56864166259766	movie	1		300	5.0	2.5	blank	1.0	105.18270516395569	2.5003809928894043
7	70.74409461021423	pulse	1	t		5.0	2.5	blank	1.0	106.35815811157227	
7	72.06902265548706	fix_post	2		12	5.0	2.5	blank	1.0	107.68308615684509	0.10002994537353516
8	72.1690526008606	fix_pre	0		120	6.0	2.5	/experiments/Knapen_AOT/AOT_stimuli/rescaled_final/0934_rv.mp4	0.0	107.78311610221863	1.008521556854248
8	72.34425902366638	pulse	0	t		6.0	2.5	/experiments/Knapen_AOT/AOT_stimuli/rescaled_final/0934_rv.mp4	0.0	107.95832252502441	
8	73.17757415771484	movie	1		283	6.0	2.5	/experiments/Knapen_AOT/AOT_stimuli/rescaled_final/0934_rv.mp4	0.0	108.79163765907288	2.4919793605804443
8	73.94453573226929	pulse	1	t		6.0	2.5	/experiments/Knapen_AOT/AOT_stimuli/rescaled_final/0934_rv.mp4	0.0	109.55859923362732	
8	75.5448637008667	pulse	1	t		6.0	2.5	/experiments/Knapen_AOT/AOT_stimuli/rescaled_final/0934_rv.mp4	0.0	111.15892720222473	
8	75.66955351829529	fix_post	2		12	6.0	2.5	/experiments/Knapen_AOT/AOT_stimuli/rescaled_final/0934_rv.mp4	0.0	111.28361701965332	0.10005688667297363
9	75.76961040496826	fix_pre	0		120	7.0	2.5	/experiments/Knapen_AOT/AOT_stimuli/rescaled_final/0058_fw.mp4	0.0	111.3836739063263	1.0084657669067383
9	76.778076171875	movie	1		288	7.0	2.5	/experiments/Knapen_AOT/AOT_stimuli/rescaled_final/0058_fw.mp4	0.0	112.39213967323303	2.4920358657836914
9	77.14501643180847	pulse	1	t		7.0	2.5	/experiments/Knapen_AOT/AOT_stimuli/rescaled_final/0058_fw.mp4	0.0	112.7590799331665	
9	78.74522042274475	pulse	1	t		7.0	2.5	/experiments/Knapen_AOT/AOT_stimuli/rescaled_final/0058_fw.mp4	0.0	114.35928392410278	
9	79.27011203765869	fix_post	2		12	7.0	2.5	/experiments/Knapen_AOT/AOT_stimuli/rescaled_final/0058_fw.mp4	0.0	114.88417553901672	0.1000058650970459
10	79.37011790275574	fix_pre	0		118	8.0	2.5	/experiments/Knapen_AOT/AOT_stimuli/rescaled_final/0508_fw.mp4	0.0	114.98418140411377	0.9919064044952393
10	80.34547901153564	pulse	0	t		8.0	2.5	/experiments/Knapen_AOT/AOT_stimuli/rescaled_final/0508_fw.mp4	0.0	115.95954251289368	
10	80.36202430725098	movie	1		288	8.0	2.5	/experiments/Knapen_AOT/AOT_stimuli/rescaled_final/0508_fw.mp4	0.0	115.97608780860901	2.500279188156128
10	81.9447615146637	pulse	1	t		8.0	2.5	/experiments/Knapen_AOT/AOT_stimuli/rescaled_final/0508_fw.mp4	0.0	117.55882501602173	
10	82.8623034954071	fix_post	2		12	8.0	2.5	/experiments/Knapen_AOT/AOT_stimuli/rescaled_final/0508_fw.mp4	0.0	118.47636699676514	0.09999752044677734
11	82.96230101585388	fix_pre	0		120	9.0	2.5	/experiments/Knapen_AOT/AOT_stimuli/rescaled_final/0312_fw.mp4	0.0	118.57636451721191	1.0085844993591309
11	83.54597854614258	pulse	0	t		9.0	2.5	/experiments/Knapen_AOT/AOT_stimuli/rescaled_final/0312_fw.mp4	0.0	119.16004204750061	
11	83.97088551521301	movie	1		285	9.0	2.5	/experiments/Knapen_AOT/AOT_stimuli/rescaled_final/0312_fw.mp4	0.0	119.58494901657104	2.4919559955596924
11	85.14634037017822	pulse	1	t		9.0	2.5	/experiments/Knapen_AOT/AOT_stimuli/rescaled_final/0312_fw.mp4	0.0	120.76040387153625	
11	86.4628415107727	fix_post	2		12	9.0	2.5	/experiments/Knapen_AOT/AOT_stimuli/rescaled_final/0312_fw.mp4	0.0	122.07690501213074	0.10001301765441895
12	86.56285452842712	fix_pre	0		120	10.0	2.5	/experiments/Knapen_AOT/AOT_stimuli/rescaled_final/0367_fw.mp4	0.0	122.17691802978516	1.0085086822509766
12	86.746737241745	pulse	0	t		10.0	2.5	/experiments/Knapen_AOT/AOT_stimuli/rescaled_final/0367_fw.mp4	0.0	122.36080074310303	
12	87.5713632106781	movie	1		284	10.0	2.5	/experiments/Knapen_AOT/AOT_stimuli/rescaled_final/0367_fw.mp4	0.0	123.18542671203613	2.4920341968536377
12	88.34469389915466	pulse	1	t		10.0	2.5	/experiments/Knapen_AOT/AOT_stimuli/rescaled_final/0367_fw.mp4	0.0	123.9587574005127	
12	89.94697380065918	pulse	1	t		10.0	2.5	/experiments/Knapen_AOT/AOT_stimuli/rescaled_final/0367_fw.mp4	0.0	125.56103730201721	
12	90.06339740753174	fix_post	2		12	10.0	2.5	/experiments/Knapen_AOT/AOT_stimuli/rescaled_final/0367_fw.mp4	0.0	125.67746090888977	0.10002779960632324
13	90.16342520713806	fix_pre	0		120	11.0	2.5	/experiments/Knapen_AOT/AOT_stimuli/rescaled_final/0700_fw.mp4	0.0	125.7774887084961	1.0084893703460693
13	91.17191457748413	movie	1		284	11.0	2.5	/experiments/Knapen_AOT/AOT_stimuli/rescaled_final/0700_fw.mp4	0.0	126.78597807884216	2.4919984340667725
13	91.5457534790039	pulse	1	t		11.0	2.5	/experiments/Knapen_AOT/AOT_stimuli/rescaled_final/0700_fw.mp4	0.0	127.15981698036194	
13	93.14500164985657	pulse	1	t		11.0	2.5	/experiments/Knapen_AOT/AOT_stimuli/rescaled_final/0700_fw.mp4	0.0	128.7590651512146	
13	93.6639130115509	fix_post	2		12	11.0	2.5	/experiments/Knapen_AOT/AOT_stimuli/rescaled_final/0700_fw.mp4	0.0	129.27797651290894	0.10001301765441895
14	93.76392602920532	fix_pre	0		119	12.0	2.5	/experiments/Knapen_AOT/AOT_stimuli/rescaled_final/0416_fw.mp4	0.0	129.37798953056335	1.0001695156097412
14	94.74754548072815	pulse	0	t		12.0	2.5	/experiments/Knapen_AOT/AOT_stimuli/rescaled_final/0416_fw.mp4	0.0	130.36160898208618	
14	94.76409554481506	movie	1		286	12.0	2.5	/experiments/Knapen_AOT/AOT_stimuli/rescaled_final/0416_fw.mp4	0.0	130.3781590461731	2.500356435775757
14	96.34663033485413	pulse	1	t		12.0	2.5	/experiments/Knapen_AOT/AOT_stimuli/rescaled_final/0416_fw.mp4	0.0	131.96069383621216	
14	97.26445198059082	fix_post	2		12	12.0	2.5	/experiments/Knapen_AOT/AOT_stimuli/rescaled_final/0416_fw.mp4	0.0	132.87851548194885	0.10002303123474121
15	97.36447501182556	fix_pre	0		120	13.0	2.5	/experiments/Knapen_AOT/AOT_stimuli/rescaled_final/1178_rv.mp4	0.0	132.9785385131836	1.0085780620574951
15	97.9481954574585	pulse	0	t		13.0	2.5	/experiments/Knapen_AOT/AOT_stimuli/rescaled_final/1178_rv.mp4	0.0	133.56225895881653	
15	98.37305307388306	movie	1		284	13.0	2.5	/experiments/Knapen_AOT/AOT_stimuli/rescaled_final/1178_rv.mp4	0.0	133.9871165752411	2.4919486045837402
15	99.54689168930054	pulse	1	t		13.0	2.5	/experiments/Knapen_AOT/AOT_stimuli/rescaled_final/1178_rv.mp4	0.0	135.16095519065857	
15	100.8650016784668	fix_post	2		12	13.0	2.5	/experiments/Knapen_AOT/AOT_stimuli/rescaled_final/1178_rv.mp4	0.0	136.47906517982483	0.10003328323364258
16	100.96503496170044	fix_pre	0		120	14.0	2.5	blank	1.0	136.57909846305847	1.00014066696167
16	101.14860773086548	pulse	0	t		14.0	2.5	blank	1.0	136.7626712322235	
16	101.96517562866211	movie	1		300	14.0	2.5	blank	1.0	137.57923913002014	2.5003790855407715
16	102.748859167099	pulse	1	t		14.0	2.5	blank	1.0	138.36292266845703	
16	104.34906911849976	pulse	1	t		14.0	2.5	blank	1.0	139.9631326198578	
16	104.46555471420288	fix_post	2		12	14.0	2.5	blank	1.0	140.0796182155609	0.10001277923583984
17	104.56556749343872	fix_pre	0		120	15.0	2.5	/experiments/Knapen_AOT/AOT_stimuli/rescaled_final/0218_fw.mp4	0.0	140.17963099479675	1.008591651916504
17	105.57415914535522	movie	1		286	15.0	2.5	/experiments/Knapen_AOT/AOT_stimuli/rescaled_final/0218_fw.mp4	0.0	141.18822264671326	2.4919445514678955
17	105.94757175445557	pulse	1	t		15.0	2.5	/experiments/Knapen_AOT/AOT_stimuli/rescaled_final/0218_fw.mp4	0.0	141.5616352558136	
17	107.54775047302246	pulse	1	t		15.0	2.5	/experiments/Knapen_AOT/AOT_stimuli/rescaled_final/0218_fw.mp4	0.0	143.1618139743805	
17	108.06610369682312	fix_post	2		12	15.0	2.5	/experiments/Knapen_AOT/AOT_stimuli/rescaled_final/0218_fw.mp4	0.0	143.68016719818115	0.10001897811889648
18	108.16612267494202	fix_pre	0		119	16.0	2.5	/experiments/Knapen_AOT/AOT_stimuli/rescaled_final/0784_fw.mp4	0.0	143.78018617630005	1.0003087520599365
18	109.15012574195862	pulse	0	t		16.0	2.5	/experiments/Knapen_AOT/AOT_stimuli/rescaled_final/0784_fw.mp4	0.0	144.76418924331665	
18	109.16643142700195	movie	1		287	16.0	2.5	/experiments/Knapen_AOT/AOT_stimuli/rescaled_final/0784_fw.mp4	0.0	144.78049492835999	2.500213623046875
18	110.74885439872742	pulse	1	t		16.0	2.5	/experiments/Knapen_AOT/AOT_stimuli/rescaled_final/0784_fw.mp4	0.0	146.36291790008545	
18	111.66664505004883	fix_post	2		12	16.0	2.5	/experiments/Knapen_AOT/AOT_stimuli/rescaled_final/0784_fw.mp4	0.0	147.28070855140686	0.10004401206970215
19	111.76668906211853	fix_pre	0		120	17.0	2.5	/experiments/Knapen_AOT/AOT_stimuli/rescaled_final/0518_rv.mp4	0.0	147.38075256347656	1.0085246562957764
19	112.35028624534607	pulse	0	t		17.0	2.5	/experiments/Knapen_AOT/AOT_stimuli/rescaled_final/0518_rv.mp4	0.0	147.9643497467041	
19	112.7752137184143	movie	1		284	17.0	2.5	/experiments/Knapen_AOT/AOT_stimuli/rescaled_final/0518_rv.mp4	0.0	148.38927721977234	2.4919559955596924
19	113.95070958137512	pulse	1	t		17.0	2.5	/experiments/Knapen_AOT/AOT_stimuli/rescaled_final/0518_rv.mp4	0.0	149.56477308273315	
19	115.267169713974	fix_post	2		12	17.0	2.5	/experiments/Knapen_AOT/AOT_stimuli/rescaled_final/0518_rv.mp4	0.0	150.88123321533203	0.10001754760742188
20	115.36718726158142	fix_pre	0		120	18.0	2.5	/experiments/Knapen_AOT/AOT_stimuli/rescaled_final/1479_rv.mp4	0.0	150.98125076293945	1.0085031986236572
20	115.55078053474426	pulse	0	t		18.0	2.5	/experiments/Knapen_AOT/AOT_stimuli/rescaled_final/1479_rv.mp4	0.0	151.1648440361023	
20	116.37569046020508	movie	1		286	18.0	2.5	/experiments/Knapen_AOT/AOT_stimuli/rescaled_final/1479_rv.mp4	0.0	151.9897539615631	2.492035388946533
20	117.14981198310852	pulse	1	t		18.0	2.5	/experiments/Knapen_AOT/AOT_stimuli/rescaled_final/1479_rv.mp4	0.0	152.76387548446655	
20	118.75003814697266	pulse	1	t		18.0	2.5	/experiments/Knapen_AOT/AOT_stimuli/rescaled_final/1479_rv.mp4	0.0	154.3641016483307	
20	118.86772584915161	fix_post	2		12	18.0	2.5	/experiments/Knapen_AOT/AOT_stimuli/rescaled_final/1479_rv.mp4	0.0	154.48178935050964	0.10003089904785156
21	118.96775674819946	fix_pre	0		120	19.0	2.5	blank	1.0	154.5818202495575	1.000121831893921
21	119.96787858009338	movie	1		300	19.0	2.5	blank	1.0	155.58194208145142	2.500398874282837
21	120.35151553153992	pulse	1	t		19.0	2.5	blank	1.0	155.96557903289795	
21	121.95174551010132	pulse	1	t		19.0	2.5	blank	1.0	157.56580901145935	
21	122.46827745437622	fix_post	2		12	19.0	2.5	blank	1.0	158.08234095573425	0.10000729560852051
22	122.56828474998474	fix_pre	0		119	20.0	2.5	/experiments/Knapen_AOT/AOT_stimuli/rescaled_final/1485_fw.mp4	0.0	158.18234825134277	1.0002162456512451
22	123.54448127746582	pulse	0	t		20.0	2.5	/experiments/Knapen_AOT/AOT_stimuli/rescaled_final/1485_fw.mp4	0.0	159.15854477882385	
22	123.56850099563599	movie	1		280	20.0	2.5	/experiments/Knapen_AOT/AOT_stimuli/rescaled_final/1485_fw.mp4	0.0	159.18256449699402	2.5004146099090576
22	125.15159392356873	pulse	1	t		20.0	2.5	/experiments/Knapen_AOT/AOT_stimuli/rescaled_final/1485_fw.mp4	0.0	160.76565742492676	
22	126.06891560554504	fix_post	2		12	20.0	2.5	/experiments/Knapen_AOT/AOT_stimuli/rescaled_final/1485_fw.mp4	0.0	161.68297910690308	0.09990429878234863
23	126.16881990432739	fix_pre	0		120	21.0	2.5	/experiments/Knapen_AOT/AOT_stimuli/rescaled_final/2025_rv.mp4	0.0	161.78288340568542	1.008523941040039
23	126.74478459358215	pulse	0	t		21.0	2.5	/experiments/Knapen_AOT/AOT_stimuli/rescaled_final/2025_rv.mp4	0.0	162.35884809494019	
23	127.17734384536743	movie	1		285	21.0	2.5	/experiments/Knapen_AOT/AOT_stimuli/rescaled_final/2025_rv.mp4	0.0	162.79140734672546	2.491994619369507
23	128.34447288513184	pulse	1	t		21.0	2.5	/experiments/Knapen_AOT/AOT_stimuli/rescaled_final/2025_rv.mp4	0.0	163.95853638648987	
23	129.66933846473694	fix_post	2		12	21.0	2.5	/experiments/Knapen_AOT/AOT_stimuli/rescaled_final/2025_rv.mp4	0.0	165.28340196609497	0.10003876686096191
24	129.7693772315979	fix_pre	0		120	22.0	2.5	/experiments/Knapen_AOT/AOT_stimuli/rescaled_final/0156_rv.mp4	0.0	165.38344073295593	1.0084683895111084
24	129.9449644088745	pulse	0	t		22.0	2.5	/experiments/Knapen_AOT/AOT_stimuli/rescaled_final/0156_rv.mp4	0.0	165.55902791023254	
24	130.777845621109	movie	1		278	22.0	2.5	/experiments/Knapen_AOT/AOT_stimuli/rescaled_final/0156_rv.mp4	0.0	166.39190912246704	2.492035150527954
24	131.54502034187317	pulse	1	t		22.0	2.5	/experiments/Knapen_AOT/AOT_stimuli/rescaled_final/0156_rv.mp4	0.0	167.1590838432312	
24	133.14508247375488	pulse	1	t		22.0	2.5	/experiments/Knapen_AOT/AOT_stimuli/rescaled_final/0156_rv.mp4	0.0	168.75914597511292	
24	133.26988077163696	fix_post	2		12	22.0	2.5	/experiments/Knapen_AOT/AOT_stimuli/rescaled_final/0156_rv.mp4	0.0	168.883944272995	0.10002636909484863
25	133.3699071407318	fix_pre	0		120	23.0	2.5	/experiments/Knapen_AOT/AOT_stimuli/rescaled_final/0621_fw.mp4	0.0	168.98397064208984	1.008481740951538
25	134.37838888168335	movie	1		278	23.0	2.5	/experiments/Knapen_AOT/AOT_stimuli/rescaled_final/0621_fw.mp4	0.0	169.99245238304138	2.4920332431793213
25	134.7453155517578	pulse	1	t		23.0	2.5	/experiments/Knapen_AOT/AOT_stimuli/rescaled_final/0621_fw.mp4	0.0	170.35937905311584	
25	136.345552444458	pulse	1	t		23.0	2.5	/experiments/Knapen_AOT/AOT_stimuli/rescaled_final/0621_fw.mp4	0.0	171.95961594581604	
25	136.87042212486267	fix_post	2		12	23.0	2.5	/experiments/Knapen_AOT/AOT_stimuli/rescaled_final/0621_fw.mp4	0.0	172.4844856262207	0.10001611709594727
26	136.97043824195862	fix_pre	0		118	24.0	2.5	/experiments/Knapen_AOT/AOT_stimuli/rescaled_final/0897_rv.mp4	0.0	172.58450174331665	0.9918291568756104
26	137.94587588310242	pulse	0	t		24.0	2.5	/experiments/Knapen_AOT/AOT_stimuli/rescaled_final/0897_rv.mp4	0.0	173.55993938446045	
26	137.96226739883423	movie	1		278	24.0	2.5	/experiments/Knapen_AOT/AOT_stimuli/rescaled_final/0897_rv.mp4	0.0	173.57633090019226	2.500354766845703
26	139.54454255104065	pulse	1	t		24.0	2.5	/experiments/Knapen_AOT/AOT_stimuli/rescaled_final/0897_rv.mp4	0.0	175.15860605239868	
26	140.46262216567993	fix_post	2		12	24.0	2.5	/experiments/Knapen_AOT/AOT_stimuli/rescaled_final/0897_rv.mp4	0.0	176.07668566703796	0.1000826358795166
27	140.56270480155945	fix_pre	0		120	25.0	2.5	/experiments/Knapen_AOT/AOT_stimuli/rescaled_final/1984_fw.mp4	0.0	176.17676830291748	1.0084915161132812
27	141.14635753631592	pulse	0	t		25.0	2.5	/experiments/Knapen_AOT/AOT_stimuli/rescaled_final/1984_fw.mp4	0.0	176.76042103767395	
27	141.57119631767273	movie	1		281	25.0	2.5	/experiments/Knapen_AOT/AOT_stimuli/rescaled_final/1984_fw.mp4	0.0	177.18525981903076	2.4919705390930176
27	142.74445629119873	pulse	1	t		25.0	2.5	/experiments/Knapen_AOT/AOT_stimuli/rescaled_final/1984_fw.mp4	0.0	178.35851979255676	
27	144.06316685676575	fix_post	2		12	25.0	2.5	/experiments/Knapen_AOT/AOT_stimuli/rescaled_final/1984_fw.mp4	0.0	179.67723035812378	0.10002613067626953
28	144.16319298744202	fix_pre	0		120	26.0	2.5	/experiments/Knapen_AOT/AOT_stimuli/rescaled_final/0607_rv.mp4	0.0	179.77725648880005	1.0086297988891602
28	144.34674286842346	pulse	0	t		26.0	2.5	/experiments/Knapen_AOT/AOT_stimuli/rescaled_final/0607_rv.mp4	0.0	179.9608063697815	
28	145.17182278633118	movie	1		290	26.0	2.5	/experiments/Knapen_AOT/AOT_stimuli/rescaled_final/0607_rv.mp4	0.0	180.7858862876892	2.4919722080230713
28	145.94541454315186	pulse	1	t		26.0	2.5	/experiments/Knapen_AOT/AOT_stimuli/rescaled_final/0607_rv.mp4	0.0	181.5594780445099	
28	147.5455777645111	pulse	1	t		26.0	2.5	/experiments/Knapen_AOT/AOT_stimuli/rescaled_final/0607_rv.mp4	0.0	183.15964126586914	
28	147.66379499435425	fix_post	2		12	26.0	2.5	/experiments/Knapen_AOT/AOT_stimuli/rescaled_final/0607_rv.mp4	0.0	183.27785849571228	0.09994029998779297
29	147.76373529434204	fix_pre	0		120	27.0	2.5	/experiments/Knapen_AOT/AOT_stimuli/rescaled_final/1013_fw.mp4	0.0	183.37779879570007	1.0085134506225586
29	148.7722487449646	movie	1		290	27.0	2.5	/experiments/Knapen_AOT/AOT_stimuli/rescaled_final/1013_fw.mp4	0.0	184.38631224632263	2.4920058250427246
29	149.14623928070068	pulse	1	t		27.0	2.5	/experiments/Knapen_AOT/AOT_stimuli/rescaled_final/1013_fw.mp4	0.0	184.76030278205872	
29	150.74565815925598	pulse	1	t		27.0	2.5	/experiments/Knapen_AOT/AOT_stimuli/rescaled_final/1013_fw.mp4	0.0	186.359721660614	
29	151.26425457000732	fix_post	2		12	27.0	2.5	/experiments/Knapen_AOT/AOT_stimuli/rescaled_final/1013_fw.mp4	0.0	186.87831807136536	0.10000896453857422
30	151.3642635345459	fix_pre	0		119	28.0	2.5	blank	1.0	186.97832703590393	0.9918632507324219
30	152.3480052947998	pulse	0	t		28.0	2.5	blank	1.0	187.96206879615784	
30	152.35612678527832	movie	1		301	28.0	2.5	blank	1.0	187.97019028663635	2.5087006092071533
30	153.94824743270874	pulse	1	t		28.0	2.5	blank	1.0	189.56231093406677	
30	154.86482739448547	fix_post	2		12	28.0	2.5	blank	1.0	190.4788908958435	0.10009121894836426
31	154.96491861343384	fix_pre	0		120	29.0	2.5	/experiments/Knapen_AOT/AOT_stimuli/rescaled_final/1072_rv.mp4	0.0	190.57898211479187	1.0083997249603271
31	155.5486137866974	pulse	0	t		29.0	2.5	/experiments/Knapen_AOT/AOT_stimuli/rescaled_final/1072_rv.mp4	0.0	191.16267728805542	
31	155.97331833839417	movie	1		286	29.0	2.5	/experiments/Knapen_AOT/AOT_stimuli/rescaled_final/1072_rv.mp4	0.0	191.5873818397522	2.492008924484253
31	157.14708876609802	pulse	1	t		29.0	2.5	/experiments/Knapen_AOT/AOT_stimuli/rescaled_final/1072_rv.mp4	0.0	192.76115226745605	
31	158.46532726287842	fix_post	2		12	29.0	2.5	/experiments/Knapen_AOT/AOT_stimuli/rescaled_final/1072_rv.mp4	0.0	194.07939076423645	0.10010004043579102
32	158.5654273033142	fix_pre	0		120	30.0	2.5	/experiments/Knapen_AOT/AOT_stimuli/rescaled_final/1569_fw.mp4	0.0	194.17949080467224	1.0084381103515625
32	158.74890518188477	pulse	0	t		30.0	2.5	/experiments/Knapen_AOT/AOT_stimuli/rescaled_final/1569_fw.mp4	0.0	194.3629686832428	
32	159.57386541366577	movie	1		288	30.0	2.5	/experiments/Knapen_AOT/AOT_stimuli/rescaled_final/1569_fw.mp4	0.0	195.1879289150238	2.492000102996826
32	160.34688758850098	pulse	1	t		30.0	2.5	/experiments/Knapen_AOT/AOT_stimuli/rescaled_final/1569_fw.mp4	0.0	195.960951089859	
32	161.94779634475708	pulse	1	t		30.0	2.5	/experiments/Knapen_AOT/AOT_stimuli/rescaled_final/1569_fw.mp4	0.0	197.5618598461151	
32	162.0658655166626	fix_post	2		12	30.0	2.5	/experiments/Knapen_AOT/AOT_stimuli/rescaled_final/1569_fw.mp4	0.0	197.67992901802063	0.1000223159790039
33	162.1658878326416	fix_pre	0		120	31.0	2.5	/experiments/Knapen_AOT/AOT_stimuli/rescaled_final/2111_fw.mp4	0.0	197.77995133399963	1.0085203647613525
33	163.17440819740295	movie	1		278	31.0	2.5	/experiments/Knapen_AOT/AOT_stimuli/rescaled_final/2111_fw.mp4	0.0	198.788471698761	2.4921011924743652
33	163.5492238998413	pulse	1	t		31.0	2.5	/experiments/Knapen_AOT/AOT_stimuli/rescaled_final/2111_fw.mp4	0.0	199.16328740119934	
33	165.14818477630615	pulse	1	t		31.0	2.5	/experiments/Knapen_AOT/AOT_stimuli/rescaled_final/2111_fw.mp4	0.0	200.76224827766418	
33	165.66650938987732	fix_post	2		12	31.0	2.5	/experiments/Knapen_AOT/AOT_stimuli/rescaled_final/2111_fw.mp4	0.0	201.28057289123535	0.10005998611450195
34	165.76656937599182	fix_pre	0		119	32.0	2.5	/experiments/Knapen_AOT/AOT_stimuli/rescaled_final/0464_fw.mp4	0.0	201.38063287734985	1.000040054321289
34	166.75030136108398	pulse	0	t		32.0	2.5	/experiments/Knapen_AOT/AOT_stimuli/rescaled_final/0464_fw.mp4	0.0	202.36436486244202	
34	166.7666094303131	movie	1		284	32.0	2.5	/experiments/Knapen_AOT/AOT_stimuli/rescaled_final/0464_fw.mp4	0.0	202.38067293167114	2.5003793239593506
34	168.34853792190552	pulse	1	t		32.0	2.5	/experiments/Knapen_AOT/AOT_stimuli/rescaled_final/0464_fw.mp4	0.0	203.96260142326355	
34	169.26698875427246	fix_post	2		12	32.0	2.5	/experiments/Knapen_AOT/AOT_stimuli/rescaled_final/0464_fw.mp4	0.0	204.8810522556305	0.10002493858337402
35	169.36701369285583	fix_pre	0		120	33.0	2.5	/experiments/Knapen_AOT/AOT_stimuli/rescaled_final/1711_rv.mp4	0.0	204.98107719421387	1.0084691047668457
35	169.95059823989868	pulse	0	t		33.0	2.5	/experiments/Knapen_AOT/AOT_stimuli/rescaled_final/1711_rv.mp4	0.0	205.5646617412567	
35	170.37548279762268	movie	1		291	33.0	2.5	/experiments/Knapen_AOT/AOT_stimuli/rescaled_final/1711_rv.mp4	0.0	205.9895462989807	2.492025136947632
35	171.54927229881287	pulse	1	t		33.0	2.5	/experiments/Knapen_AOT/AOT_stimuli/rescaled_final/1711_rv.mp4	0.0	207.1633358001709	
35	172.8675079345703	fix_post	2		12	33.0	2.5	/experiments/Knapen_AOT/AOT_stimuli/rescaled_final/1711_rv.mp4	0.0	208.48157143592834	0.10007095336914062
36	172.96757888793945	fix_pre	0		120	34.0	2.5	/experiments/Knapen_AOT/AOT_stimuli/rescaled_final/0784_fw.mp4	0.0	208.58164238929749	1.008497714996338
36	173.15122079849243	pulse	0	t		34.0	2.5	/experiments/Knapen_AOT/AOT_stimuli/rescaled_final/0784_fw.mp4	0.0	208.76528429985046	
36	173.9760766029358	movie	1		282	34.0	2.5	/experiments/Knapen_AOT/AOT_stimuli/rescaled_final/0784_fw.mp4	0.0	209.59014010429382	2.4919850826263428
36	174.74944376945496	pulse	1	t		34.0	2.5	/experiments/Knapen_AOT/AOT_stimuli/rescaled_final/0784_fw.mp4	0.0	210.363507270813	
36	176.34984683990479	pulse	1	t		34.0	2.5	/experiments/Knapen_AOT/AOT_stimuli/rescaled_final/0784_fw.mp4	0.0	211.96391034126282	
36	176.46806168556213	fix_post	2		12	34.0	2.5	/experiments/Knapen_AOT/AOT_stimuli/rescaled_final/0784_fw.mp4	0.0	212.08212518692017	0.10003519058227539
37	176.5680968761444	fix_pre	0		120	35.0	2.5	blank	1.0	212.18216037750244	1.000119686126709
37	177.56821656227112	movie	1		300	35.0	2.5	blank	1.0	213.18228006362915	2.5004231929779053
37	177.95184516906738	pulse	1	t		35.0	2.5	blank	1.0	213.56590867042542	
37	179.55201697349548	pulse	1	t		35.0	2.5	blank	1.0	215.16608047485352	
37	180.06863975524902	fix_post	2		12	35.0	2.5	blank	1.0	215.68270325660706	0.09996700286865234
38	180.16860675811768	fix_pre	0		119	36.0	2.5	/experiments/Knapen_AOT/AOT_stimuli/rescaled_final/1070_fw.mp4	0.0	215.7826702594757	1.000197172164917
38	181.14492559432983	pulse	0	t		36.0	2.5	/experiments/Knapen_AOT/AOT_stimuli/rescaled_final/1070_fw.mp4	0.0	216.75898909568787	
38	181.1688039302826	movie	1		286	36.0	2.5	/experiments/Knapen_AOT/AOT_stimuli/rescaled_final/1070_fw.mp4	0.0	216.78286743164062	2.5003297328948975
38	182.75145626068115	pulse	1	t		36.0	2.5	/experiments/Knapen_AOT/AOT_stimuli/rescaled_final/1070_fw.mp4	0.0	218.36551976203918	
38	183.6691336631775	fix_post	2		12	36.0	2.5	/experiments/Knapen_AOT/AOT_stimuli/rescaled_final/1070_fw.mp4	0.0	219.28319716453552	0.10003948211669922
39	183.7691731452942	fix_pre	0		120	37.0	2.5	/experiments/Knapen_AOT/AOT_stimuli/rescaled_final/1169_rv.mp4	0.0	219.38323664665222	1.0084478855133057
39	184.34475898742676	pulse	0	t		37.0	2.5	/experiments/Knapen_AOT/AOT_stimuli/rescaled_final/1169_rv.mp4	0.0	219.9588224887848	
39	184.7776210308075	movie	1		288	37.0	2.5	/experiments/Knapen_AOT/AOT_stimuli/rescaled_final/1169_rv.mp4	0.0	220.39168453216553	2.492070436477661
39	185.94468784332275	pulse	1	t		37.0	2.5	/experiments/Knapen_AOT/AOT_stimuli/rescaled_final/1169_rv.mp4	0.0	221.5587513446808	
39	187.26969146728516	fix_post	2		12	37.0	2.5	/experiments/Knapen_AOT/AOT_stimuli/rescaled_final/1169_rv.mp4	0.0	222.8837549686432	0.10002350807189941
40	187.36971497535706	fix_pre	0		120	38.0	2.5	/experiments/Knapen_AOT/AOT_stimuli/rescaled_final/1131_fw.mp4	0.0	222.9837784767151	1.0084831714630127
40	187.54541039466858	pulse	0	t		38.0	2.5	/experiments/Knapen_AOT/AOT_stimuli/rescaled_final/1131_fw.mp4	0.0	223.1594738960266	
40	188.37819814682007	movie	1		286	38.0	2.5	/experiments/Knapen_AOT/AOT_stimuli/rescaled_final/1131_fw.mp4	0.0	223.9922616481781	2.4921324253082275
40	189.1451530456543	pulse	1	t		38.0	2.5	/experiments/Knapen_AOT/AOT_stimuli/rescaled_final/1131_fw.mp4	0.0	224.75921654701233	
40	190.74549889564514	pulse	1	t		38.0	2.5	/experiments/Knapen_AOT/AOT_stimuli/rescaled_final/1131_fw.mp4	0.0	226.35956239700317	
40	190.8703305721283	fix_post	2		12	38.0	2.5	/experiments/Knapen_AOT/AOT_stimuli/rescaled_final/1131_fw.mp4	0.0	226.48439407348633	0.09994792938232422
41	190.97027850151062	fix_pre	0		120	39.0	2.5	/experiments/Knapen_AOT/AOT_stimuli/rescaled_final/2152_fw.mp4	0.0	226.58434200286865	1.0085389614105225
41	191.97881746292114	movie	1		288	39.0	2.5	/experiments/Knapen_AOT/AOT_stimuli/rescaled_final/2152_fw.mp4	0.0	227.59288096427917	2.492035388946533
41	192.34569334983826	pulse	1	t		39.0	2.5	/experiments/Knapen_AOT/AOT_stimuli/rescaled_final/2152_fw.mp4	0.0	227.9597568511963	
41	193.94405603408813	pulse	1	t		39.0	2.5	/experiments/Knapen_AOT/AOT_stimuli/rescaled_final/2152_fw.mp4	0.0	229.55811953544617	
41	194.47085285186768	fix_post	2		12	39.0	2.5	/experiments/Knapen_AOT/AOT_stimuli/rescaled_final/2152_fw.mp4	0.0	230.0849163532257	0.09995412826538086
42	194.57080698013306	fix_pre	0		118	40.0	2.5	/experiments/Knapen_AOT/AOT_stimuli/rescaled_final/1562_rv.mp4	0.0	230.1848704814911	0.9917805194854736
42	195.54615116119385	pulse	0	t		40.0	2.5	/experiments/Knapen_AOT/AOT_stimuli/rescaled_final/1562_rv.mp4	0.0	231.16021466255188	
42	195.56258749961853	movie	1		289	40.0	2.5	/experiments/Knapen_AOT/AOT_stimuli/rescaled_final/1562_rv.mp4	0.0	231.17665100097656	2.500391721725464
42	197.14505863189697	pulse	1	t		40.0	2.5	/experiments/Knapen_AOT/AOT_stimuli/rescaled_final/1562_rv.mp4	0.0	232.759122133255	
42	198.062979221344	fix_post	2		12	40.0	2.5	/experiments/Knapen_AOT/AOT_stimuli/rescaled_final/1562_rv.mp4	0.0	233.67704272270203	0.09999465942382812
43	198.16297388076782	fix_pre	0		120	41.0	2.5	/experiments/Knapen_AOT/AOT_stimuli/rescaled_final/2085_rv.mp4	0.0	233.77703738212585	1.0085713863372803
43	198.74665546417236	pulse	0	t		41.0	2.5	/experiments/Knapen_AOT/AOT_stimuli/rescaled_final/2085_rv.mp4	0.0	234.3607189655304	
43	199.1715452671051	movie	1		289	41.0	2.5	/experiments/Knapen_AOT/AOT_stimuli/rescaled_final/2085_rv.mp4	0.0	234.78560876846313	2.491957902908325
43	200.34494066238403	pulse	1	t		41.0	2.5	/experiments/Knapen_AOT/AOT_stimuli/rescaled_final/2085_rv.mp4	0.0	235.95900416374207	
43	201.66350317001343	fix_post	2		12	41.0	2.5	/experiments/Knapen_AOT/AOT_stimuli/rescaled_final/2085_rv.mp4	0.0	237.27756667137146	0.10001301765441895
44	201.76351618766785	fix_pre	0		120	42.0	2.5	blank	1.0	237.37757968902588	1.0001399517059326
44	201.9470841884613	pulse	0	t		42.0	2.5	blank	1.0	237.56114768981934	
44	202.76365613937378	movie	1		284	42.0	2.5	blank	1.0	238.3777196407318	2.5004143714904785
44	203.6215364933014	pulse	1	t		42.0	2.5	blank	1.0	239.23559999465942	
44	205.14753437042236	pulse	1	t		42.0	2.5	blank	1.0	240.7615978717804	
44	205.26407051086426	fix_post	2		12	42.0	2.5	blank	1.0	240.8781340122223	0.10005474090576172
45	205.36412525177002	fix_pre	0		120	43.0	2.5	/experiments/Knapen_AOT/AOT_stimuli/rescaled_final/0206_rv.mp4	0.0	240.97818875312805	1.008420705795288
45	206.3725459575653	movie	1		283	43.0	2.5	/experiments/Knapen_AOT/AOT_stimuli/rescaled_final/0206_rv.mp4	0.0	241.98660945892334	2.492034912109375
45	206.74689483642578	pulse	1	t		43.0	2.5	/experiments/Knapen_AOT/AOT_stimuli/rescaled_final/0206_rv.mp4	0.0	242.3609583377838	
45	208.34578561782837	pulse	1	t		43.0	2.5	/experiments/Knapen_AOT/AOT_stimuli/rescaled_final/0206_rv.mp4	0.0	243.9598491191864	
45	208.86458086967468	fix_post	2		12	43.0	2.5	/experiments/Knapen_AOT/AOT_stimuli/rescaled_final/0206_rv.mp4	0.0	244.47864437103271	0.10007190704345703
46	208.96465277671814	fix_pre	0		119	44.0	2.5	/experiments/Knapen_AOT/AOT_stimuli/rescaled_final/1178_rv.mp4	0.0	244.57871627807617	1.0001788139343262
46	209.9483585357666	pulse	0	t		44.0	2.5	/experiments/Knapen_AOT/AOT_stimuli/rescaled_final/1178_rv.mp4	0.0	245.56242203712463	
46	209.96483159065247	movie	1		293	44.0	2.5	/experiments/Knapen_AOT/AOT_stimuli/rescaled_final/1178_rv.mp4	0.0	245.5788950920105	2.5003223419189453
46	211.54698634147644	pulse	1	t		44.0	2.5	/experiments/Knapen_AOT/AOT_stimuli/rescaled_final/1178_rv.mp4	0.0	247.16104984283447	
46	212.4651539325714	fix_post	2		12	44.0	2.5	/experiments/Knapen_AOT/AOT_stimuli/rescaled_final/1178_rv.mp4	0.0	248.07921743392944	0.09995508193969727
47	212.5651090145111	fix_pre	0		120	45.0	2.5	/experiments/Knapen_AOT/AOT_stimuli/rescaled_final/1534_fw.mp4	0.0	248.17917251586914	1.0085334777832031
47	213.14891910552979	pulse	0	t		45.0	2.5	/experiments/Knapen_AOT/AOT_stimuli/rescaled_final/1534_fw.mp4	0.0	248.76298260688782	
47	213.5736424922943	movie	1		285	45.0	2.5	/experiments/Knapen_AOT/AOT_stimuli/rescaled_final/1534_fw.mp4	0.0	249.18770599365234	2.4920549392700195
47	214.7476487159729	pulse	1	t		45.0	2.5	/experiments/Knapen_AOT/AOT_stimuli/rescaled_final/1534_fw.mp4	0.0	250.36171221733093	
47	216.06569743156433	fix_post	2		12	45.0	2.5	/experiments/Knapen_AOT/AOT_stimuli/rescaled_final/1534_fw.mp4	0.0	251.67976093292236	0.09996628761291504
48	216.16566371917725	fix_pre	0		120	46.0	2.5	/experiments/Knapen_AOT/AOT_stimuli/rescaled_final/0032_fw.mp4	0.0	251.77972722053528	1.0085601806640625
48	216.34923911094666	pulse	0	t		46.0	2.5	/experiments/Knapen_AOT/AOT_stimuli/rescaled_final/0032_fw.mp4	0.0	251.9633026123047	
48	217.1742238998413	movie	1		282	46.0	2.5	/experiments/Knapen_AOT/AOT_stimuli/rescaled_final/0032_fw.mp4	0.0	252.78828740119934	2.491983413696289
48	217.94809460639954	pulse	1	t		46.0	2.5	/experiments/Knapen_AOT/AOT_stimuli/rescaled_final/0032_fw.mp4	0.0	253.56215810775757	
48	219.54756617546082	pulse	1	t		46.0	2.5	/experiments/Knapen_AOT/AOT_stimuli/rescaled_final/0032_fw.mp4	0.0	255.16162967681885	
48	219.6662073135376	fix_post	2		12	46.0	2.5	/experiments/Knapen_AOT/AOT_stimuli/rescaled_final/0032_fw.mp4	0.0	255.28027081489563	0.10005021095275879
49	219.76625752449036	fix_pre	0		120	47.0	2.5	/experiments/Knapen_AOT/AOT_stimuli/rescaled_final/1407_fw.mp4	0.0	255.3803210258484	1.0084705352783203
49	220.77472805976868	movie	1		289	47.0	2.5	/experiments/Knapen_AOT/AOT_stimuli/rescaled_final/1407_fw.mp4	0.0	256.3887915611267	2.4920589923858643
49	221.1487536430359	pulse	1	t		47.0	2.5	/experiments/Knapen_AOT/AOT_stimuli/rescaled_final/1407_fw.mp4	0.0	256.7628171443939	
49	222.74845671653748	pulse	1	t		47.0	2.5	/experiments/Knapen_AOT/AOT_stimuli/rescaled_final/1407_fw.mp4	0.0	258.3625202178955	
49	223.26678705215454	fix_post	2		12	47.0	2.5	/experiments/Knapen_AOT/AOT_stimuli/rescaled_final/1407_fw.mp4	0.0	258.8808505535126	0.10004138946533203
50	223.36682844161987	fix_pre	0		119	48.0	2.5	blank	1.0	258.9808919429779	0.9917433261871338
50	224.3506269454956	pulse	0	t		48.0	2.5	blank	1.0	259.96469044685364	
50	224.358571767807	movie	1		301	48.0	2.5	blank	1.0	259.97263526916504	2.5087063312530518
50	225.9506869316101	pulse	1	t		48.0	2.5	blank	1.0	261.56475043296814	
50	226.86727809906006	fix_post	2		12	48.0	2.5	blank	1.0	262.4813416004181	0.10001659393310547
51	226.96729469299316	fix_pre	0		120	49.0	2.5	/experiments/Knapen_AOT/AOT_stimuli/rescaled_final/1562_fw.mp4	0.0	262.5813581943512	1.0084941387176514
51	227.55106663703918	pulse	0	t		49.0	2.5	/experiments/Knapen_AOT/AOT_stimuli/rescaled_final/1562_fw.mp4	0.0	263.1651301383972	
51	227.97578883171082	movie	1		280	49.0	2.5	/experiments/Knapen_AOT/AOT_stimuli/rescaled_final/1562_fw.mp4	0.0	263.58985233306885	2.4920318126678467
51	229.14917469024658	pulse	1	t		49.0	2.5	/experiments/Knapen_AOT/AOT_stimuli/rescaled_final/1562_fw.mp4	0.0	264.7632381916046	
51	230.46782064437866	fix_post	2		12	49.0	2.5	/experiments/Knapen_AOT/AOT_stimuli/rescaled_final/1562_fw.mp4	0.0	266.0818841457367	0.10002708435058594
52	230.56784772872925	fix_pre	0		120	50.0	2.5	/experiments/Knapen_AOT/AOT_stimuli/rescaled_final/0043_fw.mp4	0.0	266.1819112300873	1.0085558891296387
52	230.74553680419922	pulse	0	t		50.0	2.5	/experiments/Knapen_AOT/AOT_stimuli/rescaled_final/0043_fw.mp4	0.0	266.35960030555725	
52	231.5764036178589	movie	1		276	50.0	2.5	/experiments/Knapen_AOT/AOT_stimuli/rescaled_final/0043_fw.mp4	0.0	267.1904671192169	2.4919846057891846
52	232.34946274757385	pulse	1	t		50.0	2.5	/experiments/Knapen_AOT/AOT_stimuli/rescaled_final/0043_fw.mp4	0.0	267.9635262489319	
52	233.95209217071533	pulse	1	t		50.0	2.5	/experiments/Knapen_AOT/AOT_stimuli/rescaled_final/0043_fw.mp4	0.0	269.56615567207336	
52	234.06838822364807	fix_post	2		12	50.0	2.5	/experiments/Knapen_AOT/AOT_stimuli/rescaled_final/0043_fw.mp4	0.0	269.6824517250061	0.09998655319213867
53	234.1683747768402	fix_pre	0		120	51.0	2.5	/experiments/Knapen_AOT/AOT_stimuli/rescaled_final/0490_fw.mp4	0.0	269.78243827819824	1.0085723400115967
53	235.1769471168518	movie	1		281	51.0	2.5	/experiments/Knapen_AOT/AOT_stimuli/rescaled_final/0490_fw.mp4	0.0	270.79101061820984	2.491969347000122
53	235.544536113739	pulse	1	t		51.0	2.5	/experiments/Knapen_AOT/AOT_stimuli/rescaled_final/0490_fw.mp4	0.0	271.15859961509705	
53	237.1442699432373	pulse	1	t		51.0	2.5	/experiments/Knapen_AOT/AOT_stimuli/rescaled_final/0490_fw.mp4	0.0	272.75833344459534	
53	237.66891646385193	fix_post	2		12	51.0	2.5	/experiments/Knapen_AOT/AOT_stimuli/rescaled_final/0490_fw.mp4	0.0	273.28297996520996	0.1000823974609375
54	237.76899886131287	fix_pre	0		118	52.0	2.5	/experiments/Knapen_AOT/AOT_stimuli/rescaled_final/1653_fw.mp4	0.0	273.3830623626709	0.9917964935302734
54	238.74455332756042	pulse	0	t		52.0	2.5	/experiments/Knapen_AOT/AOT_stimuli/rescaled_final/1653_fw.mp4	0.0	274.35861682891846	
54	238.76079535484314	movie	1		286	52.0	2.5	/experiments/Knapen_AOT/AOT_stimuli/rescaled_final/1653_fw.mp4	0.0	274.3748588562012	2.5004403591156006
54	240.3446238040924	pulse	1	t		52.0	2.5	/experiments/Knapen_AOT/AOT_stimuli/rescaled_final/1653_fw.mp4	0.0	275.95868730545044	
54	241.26123571395874	fix_post	2		12	52.0	2.5	/experiments/Knapen_AOT/AOT_stimuli/rescaled_final/1653_fw.mp4	0.0	276.8752992153168	0.09990072250366211
55	241.3611364364624	fix_pre	0		120	53.0	2.5	/experiments/Knapen_AOT/AOT_stimuli/rescaled_final/1399_rv.mp4	0.0	276.97519993782043	1.008507251739502
55	241.944970369339	pulse	0	t		53.0	2.5	/experiments/Knapen_AOT/AOT_stimuli/rescaled_final/1399_rv.mp4	0.0	277.559033870697	
55	242.3696436882019	movie	1		280	53.0	2.5	/experiments/Knapen_AOT/AOT_stimuli/rescaled_final/1399_rv.mp4	0.0	277.98370718955994	2.492013931274414
55	243.54500102996826	pulse	1	t		53.0	2.5	/experiments/Knapen_AOT/AOT_stimuli/rescaled_final/1399_rv.mp4	0.0	279.1590645313263	
55	244.86165761947632	fix_post	2		12	53.0	2.5	/experiments/Knapen_AOT/AOT_stimuli/rescaled_final/1399_rv.mp4	0.0	280.47572112083435	0.10003662109375
56	244.96169424057007	fix_pre	0		120	54.0	2.5	/experiments/Knapen_AOT/AOT_stimuli/rescaled_final/1538_fw.mp4	0.0	280.5757577419281	1.0084974765777588
56	245.14525699615479	pulse	0	t		54.0	2.5	/experiments/Knapen_AOT/AOT_stimuli/rescaled_final/1538_fw.mp4	0.0	280.7593204975128	
56	245.97019171714783	movie	1		280	54.0	2.5	/experiments/Knapen_AOT/AOT_stimuli/rescaled_final/1538_fw.mp4	0.0	281.58425521850586	2.500405788421631
56	246.7454445362091	pulse	1	t		54.0	2.5	/experiments/Knapen_AOT/AOT_stimuli/rescaled_final/1538_fw.mp4	0.0	282.35950803756714	
56	248.34568858146667	pulse	1	t		54.0	2.5	/experiments/Knapen_AOT/AOT_stimuli/rescaled_final/1538_fw.mp4	0.0	283.9597520828247	
56	248.47059750556946	fix_post	2		11	54.0	2.5	/experiments/Knapen_AOT/AOT_stimuli/rescaled_final/1538_fw.mp4	0.0	284.0846610069275	0.09161734580993652
57	248.5622148513794	fix_pre	0		120	55.0	2.5	blank	1.0	284.1762783527374	1.0001671314239502
57	249.56238198280334	movie	1		300	55.0	2.5	blank	1.0	285.1764454841614	2.5003576278686523
57	249.94602513313293	pulse	1	t		55.0	2.5	blank	1.0	285.56008863449097	
57	251.5462327003479	pulse	1	t		55.0	2.5	blank	1.0	287.16029620170593	
57	252.062739610672	fix_post	2		12	55.0	2.5	blank	1.0	287.67680311203003	0.10009431838989258
58	252.1628339290619	fix_pre	0		119	56.0	2.5	/experiments/Knapen_AOT/AOT_stimuli/rescaled_final/0843_fw.mp4	0.0	287.7768974304199	1.000084400177002
58	253.14645504951477	pulse	0	t		56.0	2.5	/experiments/Knapen_AOT/AOT_stimuli/rescaled_final/0843_fw.mp4	0.0	288.7605185508728	
58	253.1629183292389	movie	1		276	56.0	2.5	/experiments/Knapen_AOT/AOT_stimuli/rescaled_final/0843_fw.mp4	0.0	288.7769818305969	2.5003738403320312
58	254.74499607086182	pulse	1	t		56.0	2.5	/experiments/Knapen_AOT/AOT_stimuli/rescaled_final/0843_fw.mp4	0.0	290.35905957221985	
58	255.66329216957092	fix_post	2		12	56.0	2.5	/experiments/Knapen_AOT/AOT_stimuli/rescaled_final/0843_fw.mp4	0.0	291.27735567092896	0.10003089904785156
59	255.76332306861877	fix_pre	0		120	57.0	2.5	/experiments/Knapen_AOT/AOT_stimuli/rescaled_final/0447_rv.mp4	0.0	291.3773865699768	1.0084891319274902
59	256.3469226360321	pulse	0	t		57.0	2.5	/experiments/Knapen_AOT/AOT_stimuli/rescaled_final/0447_rv.mp4	0.0	291.96098613739014	
59	256.77181220054626	movie	1		277	57.0	2.5	/experiments/Knapen_AOT/AOT_stimuli/rescaled_final/0447_rv.mp4	0.0	292.3858757019043	2.4921152591705322
59	257.94534063339233	pulse	1	t		57.0	2.5	/experiments/Knapen_AOT/AOT_stimuli/rescaled_final/0447_rv.mp4	0.0	293.55940413475037	
59	259.2639274597168	fix_post	2		12	57.0	2.5	/experiments/Knapen_AOT/AOT_stimuli/rescaled_final/0447_rv.mp4	0.0	294.87799096107483	0.09991741180419922
60	259.363844871521	fix_pre	0		120	58.0	2.5	/experiments/Knapen_AOT/AOT_stimuli/rescaled_final/0523_fw.mp4	0.0	294.977908372879	1.0084953308105469
60	259.5477514266968	pulse	0	t		58.0	2.5	/experiments/Knapen_AOT/AOT_stimuli/rescaled_final/0523_fw.mp4	0.0	295.1618149280548	
60	260.37234020233154	movie	1		283	58.0	2.5	/experiments/Knapen_AOT/AOT_stimuli/rescaled_final/0523_fw.mp4	0.0	295.9864037036896	2.4920053482055664
60	261.1457190513611	pulse	1	t		58.0	2.5	/experiments/Knapen_AOT/AOT_stimuli/rescaled_final/0523_fw.mp4	0.0	296.7597825527191	
60	262.74640822410583	pulse	1	t		58.0	2.5	/experiments/Knapen_AOT/AOT_stimuli/rescaled_final/0523_fw.mp4	0.0	298.36047172546387	
60	262.8643455505371	fix_post	2		12	58.0	2.5	/experiments/Knapen_AOT/AOT_stimuli/rescaled_final/0523_fw.mp4	0.0	298.47840905189514	0.10003829002380371
61	262.9643838405609	fix_pre	0		120	59.0	2.5	/experiments/Knapen_AOT/AOT_stimuli/rescaled_final/1387_fw.mp4	0.0	298.57844734191895	1.0086088180541992
61	263.9729926586151	movie	1		273	59.0	2.5	/experiments/Knapen_AOT/AOT_stimuli/rescaled_final/1387_fw.mp4	0.0	299.58705615997314	2.4919087886810303
61	264.3469955921173	pulse	1	t		59.0	2.5	/experiments/Knapen_AOT/AOT_stimuli/rescaled_final/1387_fw.mp4	0.0	299.96105909347534	
61	265.94713401794434	pulse	1	t		59.0	2.5	/experiments/Knapen_AOT/AOT_stimuli/rescaled_final/1387_fw.mp4	0.0	301.56119751930237	
61	266.46490144729614	fix_post	2		12	59.0	2.5	/experiments/Knapen_AOT/AOT_stimuli/rescaled_final/1387_fw.mp4	0.0	302.0789649486542	0.1000216007232666
62	266.5649230480194	fix_pre	0		119	60.0	2.5	/experiments/Knapen_AOT/AOT_stimuli/rescaled_final/0584_rv.mp4	0.0	302.17898654937744	1.000185489654541
62	267.54868030548096	pulse	0	t		60.0	2.5	/experiments/Knapen_AOT/AOT_stimuli/rescaled_final/0584_rv.mp4	0.0	303.162743806839	
62	267.56510853767395	movie	1		289	60.0	2.5	/experiments/Knapen_AOT/AOT_stimuli/rescaled_final/0584_rv.mp4	0.0	303.179172039032	2.5003459453582764
62	269.14773416519165	pulse	1	t		60.0	2.5	/experiments/Knapen_AOT/AOT_stimuli/rescaled_final/0584_rv.mp4	0.0	304.7617976665497	
62	270.0654544830322	fix_post	2		12	60.0	2.5	/experiments/Knapen_AOT/AOT_stimuli/rescaled_final/0584_rv.mp4	0.0	305.67951798439026	0.10004997253417969
63	270.1655044555664	fix_pre	0		120	61.0	2.5	/experiments/Knapen_AOT/AOT_stimuli/rescaled_final/1538_rv.mp4	0.0	305.77956795692444	1.0084869861602783
63	270.74910378456116	pulse	0	t		61.0	2.5	/experiments/Knapen_AOT/AOT_stimuli/rescaled_final/1538_rv.mp4	0.0	306.3631672859192	
63	271.1739914417267	movie	1		282	61.0	2.5	/experiments/Knapen_AOT/AOT_stimuli/rescaled_final/1538_rv.mp4	0.0	306.7880549430847	2.492009162902832
63	272.34738993644714	pulse	1	t		61.0	2.5	/experiments/Knapen_AOT/AOT_stimuli/rescaled_final/1538_rv.mp4	0.0	307.9614534378052	
63	273.6660006046295	fix_post	2		12	61.0	2.5	/experiments/Knapen_AOT/AOT_stimuli/rescaled_final/1538_rv.mp4	0.0	309.28006410598755	0.09999513626098633
64	273.7659957408905	fix_pre	0		120	62.0	2.5	/experiments/Knapen_AOT/AOT_stimuli/rescaled_final/1070_rv.mp4	0.0	309.38005924224854	1.008502721786499
64	273.94955563545227	pulse	0	t		62.0	2.5	/experiments/Knapen_AOT/AOT_stimuli/rescaled_final/1070_rv.mp4	0.0	309.5636191368103	
64	274.774498462677	movie	1		286	62.0	2.5	/experiments/Knapen_AOT/AOT_stimuli/rescaled_final/1070_rv.mp4	0.0	310.38856196403503	2.4920639991760254
64	275.5478518009186	pulse	1	t		62.0	2.5	/experiments/Knapen_AOT/AOT_stimuli/rescaled_final/1070_rv.mp4	0.0	311.1619153022766	
64	277.14799904823303	pulse	1	t		62.0	2.5	/experiments/Knapen_AOT/AOT_stimuli/rescaled_final/1070_rv.mp4	0.0	312.76206254959106	
64	277.266562461853	fix_post	2		12	62.0	2.5	/experiments/Knapen_AOT/AOT_stimuli/rescaled_final/1070_rv.mp4	0.0	312.88062596321106	0.10004067420959473
65	277.3666031360626	fix_pre	0		120	63.0	2.5	blank	1.0	312.98066663742065	1.0000975131988525
65	278.3667006492615	movie	1		300	63.0	2.5	blank	1.0	313.9807641506195	2.500363349914551
65	278.75036883354187	pulse	1	t		63.0	2.5	blank	1.0	314.3644323348999	
65	280.3506233692169	pulse	1	t		63.0	2.5	blank	1.0	315.96468687057495	
65	280.867063999176	fix_post	2		12	63.0	2.5	blank	1.0	316.48112750053406	0.10003423690795898
66	280.967098236084	fix_pre	0		119	64.0	2.5	/experiments/Knapen_AOT/AOT_stimuli/rescaled_final/1569_fw.mp4	0.0	316.581161737442	1.0001871585845947
66	281.9507691860199	pulse	0	t		64.0	2.5	/experiments/Knapen_AOT/AOT_stimuli/rescaled_final/1569_fw.mp4	0.0	317.56483268737793	
66	281.9672853946686	movie	1		288	64.0	2.5	/experiments/Knapen_AOT/AOT_stimuli/rescaled_final/1569_fw.mp4	0.0	317.5813488960266	2.500452756881714
66	283.54938220977783	pulse	1	t		64.0	2.5	/experiments/Knapen_AOT/AOT_stimuli/rescaled_final/1569_fw.mp4	0.0	319.16344571113586	
66	284.4677381515503	fix_post	2		12	64.0	2.5	/experiments/Knapen_AOT/AOT_stimuli/rescaled_final/1569_fw.mp4	0.0	320.0818016529083	0.09989476203918457
67	284.5676329135895	fix_pre	0		120	65.0	2.5	/experiments/Knapen_AOT/AOT_stimuli/rescaled_final/0700_fw.mp4	0.0	320.1816964149475	1.0085313320159912
67	285.15129017829895	pulse	0	t		65.0	2.5	/experiments/Knapen_AOT/AOT_stimuli/rescaled_final/0700_fw.mp4	0.0	320.765353679657	
67	285.57616424560547	movie	1		276	65.0	2.5	/experiments/Knapen_AOT/AOT_stimuli/rescaled_final/0700_fw.mp4	0.0	321.1902277469635	2.4919869899749756
67	286.7496690750122	pulse	1	t		65.0	2.5	/experiments/Knapen_AOT/AOT_stimuli/rescaled_final/0700_fw.mp4	0.0	322.36373257637024	
67	288.06815123558044	fix_post	2		12	65.0	2.5	/experiments/Knapen_AOT/AOT_stimuli/rescaled_final/0700_fw.mp4	0.0	323.6822147369385	0.10002708435058594
68	288.16817831993103	fix_pre	0		120	66.0	2.5	/experiments/Knapen_AOT/AOT_stimuli/rescaled_final/0032_rv.mp4	0.0	323.78224182128906	1.008533239364624
68	288.3519630432129	pulse	0	t		66.0	2.5	/experiments/Knapen_AOT/AOT_stimuli/rescaled_final/0032_rv.mp4	0.0	323.9660265445709	
68	289.17671155929565	movie	1		282	66.0	2.5	/experiments/Knapen_AOT/AOT_stimuli/rescaled_final/0032_rv.mp4	0.0	324.7907750606537	2.4920082092285156
68	289.9509117603302	pulse	1	t		66.0	2.5	/experiments/Knapen_AOT/AOT_stimuli/rescaled_final/0032_rv.mp4	0.0	325.56497526168823	
68	291.5506501197815	pulse	1	t		66.0	2.5	/experiments/Knapen_AOT/AOT_stimuli/rescaled_final/0032_rv.mp4	0.0	327.1647136211395	
68	291.66871976852417	fix_post	2		12	66.0	2.5	/experiments/Knapen_AOT/AOT_stimuli/rescaled_final/0032_rv.mp4	0.0	327.2827832698822	0.09999275207519531
69	291.76871252059937	fix_pre	0		120	67.0	2.5	/experiments/Knapen_AOT/AOT_stimuli/rescaled_final/2005_fw.mp4	0.0	327.3827760219574	1.0085415840148926
69	292.77725410461426	movie	1		277	67.0	2.5	/experiments/Knapen_AOT/AOT_stimuli/rescaled_final/2005_fw.mp4	0.0	328.3913176059723	2.491997718811035
69	293.1518476009369	pulse	1	t		67.0	2.5	/experiments/Knapen_AOT/AOT_stimuli/rescaled_final/2005_fw.mp4	0.0	328.7659111022949	
69	294.7445147037506	pulse	1	t		67.0	2.5	/experiments/Knapen_AOT/AOT_stimuli/rescaled_final/2005_fw.mp4	0.0	330.35857820510864	
69	295.2692518234253	fix_post	2		12	67.0	2.5	/experiments/Knapen_AOT/AOT_stimuli/rescaled_final/2005_fw.mp4	0.0	330.8833153247833	0.10001516342163086
70	295.3692669868469	fix_pre	0		118	68.0	2.5	blank	1.0	330.98333048820496	0.9834856986999512
70	296.34479093551636	pulse	0	t		68.0	2.5	blank	1.0	331.9588544368744	
70	296.3527526855469	movie	1		301	68.0	2.5	blank	1.0	331.9668161869049	2.508683681488037
70	297.94483947753906	pulse	1	t		68.0	2.5	blank	1.0	333.5589029788971	
70	298.8614363670349	fix_post	2		12	68.0	2.5	blank	1.0	334.47549986839294	0.1000971794128418
71	298.96153354644775	fix_pre	0		120	69.0	2.5	/experiments/Knapen_AOT/AOT_stimuli/rescaled_final/0783_rv.mp4	0.0	334.5755970478058	1.0084712505340576
71	299.5451443195343	pulse	0	t		69.0	2.5	/experiments/Knapen_AOT/AOT_stimuli/rescaled_final/0783_rv.mp4	0.0	335.15920782089233	
71	299.9700047969818	movie	1		286	69.0	2.5	/experiments/Knapen_AOT/AOT_stimuli/rescaled_final/0783_rv.mp4	0.0	335.58406829833984	2.4920268058776855
71	301.1454281806946	pulse	1	t		69.0	2.5	/experiments/Knapen_AOT/AOT_stimuli/rescaled_final/0783_rv.mp4	0.0	336.7594916820526	
71	302.4620316028595	fix_post	2		12	69.0	2.5	/experiments/Knapen_AOT/AOT_stimuli/rescaled_final/0783_rv.mp4	0.0	338.07609510421753	0.09999537467956543
72	302.56202697753906	fix_pre	0		120	70.0	2.5	/experiments/Knapen_AOT/AOT_stimuli/rescaled_final/1349_rv.mp4	0.0	338.1760904788971	1.0084974765777588
72	302.7455201148987	pulse	0	t		70.0	2.5	/experiments/Knapen_AOT/AOT_stimuli/rescaled_final/1349_rv.mp4	0.0	338.3595836162567	
72	303.5705244541168	movie	1		282	70.0	2.5	/experiments/Knapen_AOT/AOT_stimuli/rescaled_final/1349_rv.mp4	0.0	339.18458795547485	2.4920170307159424
72	304.3458366394043	pulse	1	t		70.0	2.5	/experiments/Knapen_AOT/AOT_stimuli/rescaled_final/1349_rv.mp4	0.0	339.95990014076233	
72	305.94600677490234	pulse	1	t		70.0	2.5	/experiments/Knapen_AOT/AOT_stimuli/rescaled_final/1349_rv.mp4	0.0	341.5600702762604	
72	306.06254148483276	fix_post	2		12	70.0	2.5	/experiments/Knapen_AOT/AOT_stimuli/rescaled_final/1349_rv.mp4	0.0	341.6766049861908	0.09999942779541016
73	306.1625409126282	fix_pre	0		120	71.0	2.5	/experiments/Knapen_AOT/AOT_stimuli/rescaled_final/0227_rv.mp4	0.0	341.7766044139862	1.0085821151733398
73	307.1711230278015	movie	1		285	71.0	2.5	/experiments/Knapen_AOT/AOT_stimuli/rescaled_final/0227_rv.mp4	0.0	342.78518652915955	2.491987943649292
73	307.5445713996887	pulse	1	t		71.0	2.5	/experiments/Knapen_AOT/AOT_stimuli/rescaled_final/0227_rv.mp4	0.0	343.15863490104675	
73	309.1465458869934	pulse	1	t		71.0	2.5	/experiments/Knapen_AOT/AOT_stimuli/rescaled_final/0227_rv.mp4	0.0	344.76060938835144	
73	309.6631109714508	fix_post	2		12	71.0	2.5	/experiments/Knapen_AOT/AOT_stimuli/rescaled_final/0227_rv.mp4	0.0	345.27717447280884	0.09999895095825195
74	309.76310992240906	fix_pre	0		119	72.0	2.5	/experiments/Knapen_AOT/AOT_stimuli/rescaled_final/0287_rv.mp4	0.0	345.3771734237671	1.0000865459442139
74	310.7467203140259	pulse	0	t		72.0	2.5	/experiments/Knapen_AOT/AOT_stimuli/rescaled_final/0287_rv.mp4	0.0	346.3607838153839	
74	310.76319646835327	movie	1		279	72.0	2.5	/experiments/Knapen_AOT/AOT_stimuli/rescaled_final/0287_rv.mp4	0.0	346.3772599697113	2.5004193782806396
74	312.3456027507782	pulse	1	t		72.0	2.5	/experiments/Knapen_AOT/AOT_stimuli/rescaled_final/0287_rv.mp4	0.0	347.95966625213623	
74	313.2636158466339	fix_post	2		12	72.0	2.5	/experiments/Knapen_AOT/AOT_stimuli/rescaled_final/0287_rv.mp4	0.0	348.87767934799194	0.10001420974731445
75	313.3636300563812	fix_pre	0		120	73.0	2.5	/experiments/Knapen_AOT/AOT_stimuli/rescaled_final/1257_rv.mp4	0.0	348.97769355773926	1.008462905883789
75	313.9471755027771	pulse	0	t		73.0	2.5	/experiments/Knapen_AOT/AOT_stimuli/rescaled_final/1257_rv.mp4	0.0	349.56123900413513	
75	314.372092962265	movie	1		284	73.0	2.5	/experiments/Knapen_AOT/AOT_stimuli/rescaled_final/1257_rv.mp4	0.0	349.98615646362305	2.492064952850342
75	315.5461766719818	pulse	1	t		73.0	2.5	/experiments/Knapen_AOT/AOT_stimuli/rescaled_final/1257_rv.mp4	0.0	351.16024017333984	
75	316.86415791511536	fix_post	2		12	73.0	2.5	/experiments/Knapen_AOT/AOT_stimuli/rescaled_final/1257_rv.mp4	0.0	352.4782214164734	0.10000371932983398
76	316.9641616344452	fix_pre	0		120	74.0	2.5	/experiments/Knapen_AOT/AOT_stimuli/rescaled_final/0493_rv.mp4	0.0	352.5782251358032	1.0085268020629883
76	317.1476848125458	pulse	0	t		74.0	2.5	/experiments/Knapen_AOT/AOT_stimuli/rescaled_final/0493_rv.mp4	0.0	352.7617483139038	
76	317.9726884365082	movie	1		288	74.0	2.5	/experiments/Knapen_AOT/AOT_stimuli/rescaled_final/0493_rv.mp4	0.0	353.5867519378662	2.492086410522461
76	318.7458589076996	pulse	1	t		74.0	2.5	/experiments/Knapen_AOT/AOT_stimuli/rescaled_final/0493_rv.mp4	0.0	354.3599224090576	
76	320.3463387489319	pulse	1	t		74.0	2.5	/experiments/Knapen_AOT/AOT_stimuli/rescaled_final/0493_rv.mp4	0.0	355.9604022502899	
76	320.46477484703064	fix_post	2		12	74.0	2.5	/experiments/Knapen_AOT/AOT_stimuli/rescaled_final/0493_rv.mp4	0.0	356.0788383483887	0.09993886947631836
77	320.56471371650696	fix_pre	0		120	75.0	2.5	blank	1.0	356.178777217865	1.000150203704834
77	321.5648639202118	movie	1		300	75.0	2.5	blank	1.0	357.1789274215698	2.5003671646118164
77	321.9483757019043	pulse	1	t		75.0	2.5	blank	1.0	357.56243920326233	
77	323.5487468242645	pulse	1	t		75.0	2.5	blank	1.0	359.16281032562256	
77	324.0652310848236	fix_post	2		12	75.0	2.5	blank	1.0	359.67929458618164	0.10006165504455566
78	324.16529273986816	fix_pre	0		119	76.0	2.5	/experiments/Knapen_AOT/AOT_stimuli/rescaled_final/0900_fw.mp4	0.0	359.7793562412262	1.0085139274597168
78	325.14893102645874	pulse	0	t		76.0	2.5	/experiments/Knapen_AOT/AOT_stimuli/rescaled_final/0900_fw.mp4	0.0	360.7629945278168	
78	325.1738066673279	movie	1		280	76.0	2.5	/experiments/Knapen_AOT/AOT_stimuli/rescaled_final/0900_fw.mp4	0.0	360.7878701686859	2.4919891357421875
78	326.74880933761597	pulse	1	t		76.0	2.5	/experiments/Knapen_AOT/AOT_stimuli/rescaled_final/0900_fw.mp4	0.0	362.362872838974	
78	327.66579580307007	fix_post	2		12	76.0	2.5	/experiments/Knapen_AOT/AOT_stimuli/rescaled_final/0900_fw.mp4	0.0	363.2798593044281	0.10003161430358887
79	327.76582741737366	fix_pre	0		120	77.0	2.5	/experiments/Knapen_AOT/AOT_stimuli/rescaled_final/1935_fw.mp4	0.0	363.3798909187317	1.0085053443908691
79	328.3493573665619	pulse	0	t		77.0	2.5	/experiments/Knapen_AOT/AOT_stimuli/rescaled_final/1935_fw.mp4	0.0	363.9634208679199	
79	328.7743327617645	movie	1		281	77.0	2.5	/experiments/Knapen_AOT/AOT_stimuli/rescaled_final/1935_fw.mp4	0.0	364.38839626312256	2.4919776916503906
79	329.9480736255646	pulse	1	t		77.0	2.5	/experiments/Knapen_AOT/AOT_stimuli/rescaled_final/1935_fw.mp4	0.0	365.5621371269226	
79	331.2663104534149	fix_post	2		12	77.0	2.5	/experiments/Knapen_AOT/AOT_stimuli/rescaled_final/1935_fw.mp4	0.0	366.88037395477295	0.09999561309814453
80	331.36630606651306	fix_pre	0		120	78.0	2.5	/experiments/Knapen_AOT/AOT_stimuli/rescaled_final/0964_rv.mp4	0.0	366.9803695678711	1.0085246562957764
80	331.5498855113983	pulse	0	t		78.0	2.5	/experiments/Knapen_AOT/AOT_stimuli/rescaled_final/0964_rv.mp4	0.0	367.16394901275635	
80	332.37483072280884	movie	1		283	78.0	2.5	/experiments/Knapen_AOT/AOT_stimuli/rescaled_final/0964_rv.mp4	0.0	367.98889422416687	2.492034673690796
80	333.14779925346375	pulse	1	t		78.0	2.5	/experiments/Knapen_AOT/AOT_stimuli/rescaled_final/0964_rv.mp4	0.0	368.7618627548218	
80	334.7482738494873	pulse	1	t		78.0	2.5	/experiments/Knapen_AOT/AOT_stimuli/rescaled_final/0964_rv.mp4	0.0	370.36233735084534	
80	334.86686539649963	fix_post	2		12	78.0	2.5	/experiments/Knapen_AOT/AOT_stimuli/rescaled_final/0964_rv.mp4	0.0	370.48092889785767	0.1000051498413086
81	334.96687054634094	fix_pre	0		120	79.0	2.5	/experiments/Knapen_AOT/AOT_stimuli/rescaled_final/0621_fw.mp4	0.0	370.580934047699	1.0084929466247559
81	335.9753634929657	movie	1		285	79.0	2.5	/experiments/Knapen_AOT/AOT_stimuli/rescaled_final/0621_fw.mp4	0.0	371.58942699432373	2.4920427799224854
81	336.34920263290405	pulse	1	t		79.0	2.5	/experiments/Knapen_AOT/AOT_stimuli/rescaled_final/0621_fw.mp4	0.0	371.9632661342621	
81	337.9491572380066	pulse	1	t		79.0	2.5	/experiments/Knapen_AOT/AOT_stimuli/rescaled_final/0621_fw.mp4	0.0	373.5632207393646	
81	338.4674062728882	fix_post	2		12	79.0	2.5	/experiments/Knapen_AOT/AOT_stimuli/rescaled_final/0621_fw.mp4	0.0	374.0814697742462	0.10001945495605469
82	338.56742572784424	fix_pre	0		119	80.0	2.5	/experiments/Knapen_AOT/AOT_stimuli/rescaled_final/1257_rv.mp4	0.0	374.18148922920227	1.0001792907714844
82	339.5512442588806	pulse	0	t		80.0	2.5	/experiments/Knapen_AOT/AOT_stimuli/rescaled_final/1257_rv.mp4	0.0	375.16530776023865	
82	339.5676050186157	movie	1		283	80.0	2.5	/experiments/Knapen_AOT/AOT_stimuli/rescaled_final/1257_rv.mp4	0.0	375.18166851997375	2.5003302097320557
82	341.1502101421356	pulse	1	t		80.0	2.5	/experiments/Knapen_AOT/AOT_stimuli/rescaled_final/1257_rv.mp4	0.0	376.76427364349365	
82	342.0679352283478	fix_post	2		12	80.0	2.5	/experiments/Knapen_AOT/AOT_stimuli/rescaled_final/1257_rv.mp4	0.0	377.6819987297058	0.10007023811340332
83	342.1680054664612	fix_pre	0		120	81.0	2.5	/experiments/Knapen_AOT/AOT_stimuli/rescaled_final/1386_rv.mp4	0.0	377.7820689678192	1.00846266746521
83	342.7515194416046	pulse	0	t		81.0	2.5	/experiments/Knapen_AOT/AOT_stimuli/rescaled_final/1386_rv.mp4	0.0	378.36558294296265	
83	343.1764681339264	movie	1		273	81.0	2.5	/experiments/Knapen_AOT/AOT_stimuli/rescaled_final/1386_rv.mp4	0.0	378.7905316352844	2.4920387268066406
83	344.35049200057983	pulse	1	t		81.0	2.5	/experiments/Knapen_AOT/AOT_stimuli/rescaled_final/1386_rv.mp4	0.0	379.96455550193787	
83	345.66850686073303	fix_post	2		12	81.0	2.5	/experiments/Knapen_AOT/AOT_stimuli/rescaled_final/1386_rv.mp4	0.0	381.28257036209106	0.09998893737792969
84	345.76849579811096	fix_pre	0		120	82.0	2.5	/experiments/Knapen_AOT/AOT_stimuli/rescaled_final/0478_fw.mp4	0.0	381.382559299469	1.0085196495056152
84	345.95225071907043	pulse	0	t		82.0	2.5	/experiments/Knapen_AOT/AOT_stimuli/rescaled_final/0478_fw.mp4	0.0	381.56631422042847	
84	346.7770154476166	movie	1		281	82.0	2.5	/experiments/Knapen_AOT/AOT_stimuli/rescaled_final/0478_fw.mp4	0.0	382.3910789489746	2.49200177192688
84	347.55045914649963	pulse	1	t		82.0	2.5	/experiments/Knapen_AOT/AOT_stimuli/rescaled_final/0478_fw.mp4	0.0	383.16452264785767	
84	349.150719165802	pulse	1	t		82.0	2.5	/experiments/Knapen_AOT/AOT_stimuli/rescaled_final/0478_fw.mp4	0.0	384.76478266716003	
84	349.26901721954346	fix_post	2		12	82.0	2.5	/experiments/Knapen_AOT/AOT_stimuli/rescaled_final/0478_fw.mp4	0.0	384.8830807209015	0.10002732276916504
85	349.3690445423126	fix_pre	0		120	83.0	2.5	blank	1.0	384.98310804367065	1.0001401901245117
85	350.36918473243713	movie	1		300	83.0	2.5	blank	1.0	385.98324823379517	2.5003983974456787
85	350.74498414993286	pulse	1	t		83.0	2.5	blank	1.0	386.3590476512909	
85	352.34491658210754	pulse	1	t		83.0	2.5	blank	1.0	387.9589800834656	
85	352.8695831298828	fix_post	2		12	83.0	2.5	blank	1.0	388.48364663124084	0.10844111442565918
87	352.9780242443085	stim	0		1714					388.5920877456665	14.285370826721191
87	353.94507479667664	pulse	0	t						389.55913829803467	
87	355.54518866539	pulse	0	t						391.15925216674805	
87	357.14540576934814	pulse	0	t						392.7594692707062	
87	358.7456548213959	pulse	0	t						394.3597183227539	
87	360.3459300994873	pulse	0	t						395.95999360084534	
87	361.946191072464	pulse	0	t						397.560254573822	
87	363.54646944999695	pulse	0	t						399.160532951355	
87	365.1467671394348	pulse	0	t						400.76083064079285	
87	366.7468066215515	pulse	0	t						402.36087012290955	
