trial_nr	onset	event_type	phase	response	nr_frames	movie_index	movie_duration	movie_file	blank	onset_abs	duration
0	0.1665487289428711	stim	0		59					22.169846773147583	0.49167895317077637
0	0.650099515914917	response	0	space						22.65339756011963	
1	0.6582276821136475	stim	0		4824					22.66152572631836	40.21711564064026
1	40.86548066139221	pulse	0	t						62.868778705596924	
1	40.875343322753906	stim	1		1715					62.87864136695862	14.29941701889038
1	42.45628523826599	pulse	1	t						64.4595832824707	
1	44.056567430496216	pulse	1	t						66.05986547470093	
1	45.65677189826965	pulse	1	t						67.66006994247437	
1	47.257025957107544	pulse	1	t						69.26032400131226	
1	48.85723304748535	pulse	1	t						70.86053109169006	
1	50.457526445388794	pulse	1	t						72.4608244895935	
1	52.05772566795349	pulse	1	t						74.0610237121582	
1	53.657952070236206	pulse	1	t						75.66125011444092	
2	55.17476034164429	fix_pre	0		11	0.0	2.5	/experiments/Knapen_AOT/AOT_stimuli/rescaled_final/0084_fw.mp4	0.0	77.178058385849	0.10002517700195312
2	55.25822997093201	pulse	0	t		0.0	2.5	/experiments/Knapen_AOT/AOT_stimuli/rescaled_final/0084_fw.mp4	0.0	77.26152801513672	
2	55.27478551864624	movie	1		300	0.0	2.5	/experiments/Knapen_AOT/AOT_stimuli/rescaled_final/0084_fw.mp4	0.0	77.27808356285095	2.5003561973571777
2	56.85856366157532	pulse	1	t		0.0	2.5	/experiments/Knapen_AOT/AOT_stimuli/rescaled_final/0084_fw.mp4	0.0	78.86186170578003	
2	57.77514171600342	fix_post	2		12	0.0	2.5	/experiments/Knapen_AOT/AOT_stimuli/rescaled_final/0084_fw.mp4	0.0	79.77843976020813	0.10004210472106934
3	57.87518382072449	fix_pre	0		120	1.0	2.5	/experiments/Knapen_AOT/AOT_stimuli/rescaled_final/1075_fw.mp4	0.0	79.8784818649292	1.0001344680786133
3	58.45874214172363	pulse	0	t		1.0	2.5	/experiments/Knapen_AOT/AOT_stimuli/rescaled_final/1075_fw.mp4	0.0	80.46204018592834	
3	58.8753182888031	movie	1		300	1.0	2.5	/experiments/Knapen_AOT/AOT_stimuli/rescaled_final/1075_fw.mp4	0.0	80.87861633300781	2.500373601913452
3	60.05896472930908	pulse	1	t		1.0	2.5	/experiments/Knapen_AOT/AOT_stimuli/rescaled_final/1075_fw.mp4	0.0	82.0622627735138	
3	61.37569189071655	fix_post	2		12	1.0	2.5	/experiments/Knapen_AOT/AOT_stimuli/rescaled_final/1075_fw.mp4	0.0	83.37898993492126	0.10002923011779785
4	61.47572112083435	fix_pre	0		120	2.0	2.5	/experiments/Knapen_AOT/AOT_stimuli/rescaled_final/0614_fw.mp4	0.0	83.47901916503906	1.0001113414764404
4	61.65929365158081	pulse	0	t		2.0	2.5	/experiments/Knapen_AOT/AOT_stimuli/rescaled_final/0614_fw.mp4	0.0	83.66259169578552	
4	62.47583246231079	movie	1		300	2.0	2.5	/experiments/Knapen_AOT/AOT_stimuli/rescaled_final/0614_fw.mp4	0.0	84.4791305065155	2.5004076957702637
4	63.259443283081055	pulse	1	t		2.0	2.5	/experiments/Knapen_AOT/AOT_stimuli/rescaled_final/0614_fw.mp4	0.0	85.26274132728577	
4	64.85580849647522	pulse	1	t		2.0	2.5	/experiments/Knapen_AOT/AOT_stimuli/rescaled_final/0614_fw.mp4	0.0	86.85910654067993	
4	64.97624015808105	fix_post	2		12	2.0	2.5	/experiments/Knapen_AOT/AOT_stimuli/rescaled_final/0614_fw.mp4	0.0	86.97953820228577	0.10000967979431152
5	65.07624983787537	fix_pre	0		120	3.0	2.5	/experiments/Knapen_AOT/AOT_stimuli/rescaled_final/1099_rv.mp4	0.0	87.07954788208008	1.0001451969146729
5	66.07639503479004	movie	1		299	3.0	2.5	/experiments/Knapen_AOT/AOT_stimuli/rescaled_final/1099_rv.mp4	0.0	88.07969307899475	2.4920332431793213
5	66.45604825019836	pulse	1	t		3.0	2.5	/experiments/Knapen_AOT/AOT_stimuli/rescaled_final/1099_rv.mp4	0.0	88.45934629440308	
5	68.05560755729675	pulse	1	t		3.0	2.5	/experiments/Knapen_AOT/AOT_stimuli/rescaled_final/1099_rv.mp4	0.0	90.05890560150146	
5	68.56842827796936	fix_post	2		12	3.0	2.5	/experiments/Knapen_AOT/AOT_stimuli/rescaled_final/1099_rv.mp4	0.0	90.57172632217407	0.10001397132873535
6	68.6684422492981	fix_pre	0		120	4.0	2.5	/experiments/Knapen_AOT/AOT_stimuli/rescaled_final/0387_rv.mp4	0.0	90.67174029350281	1.0003156661987305
6	69.66039538383484	pulse	0	t		4.0	2.5	/experiments/Knapen_AOT/AOT_stimuli/rescaled_final/0387_rv.mp4	0.0	91.66369342803955	
6	69.66875791549683	movie	1		301	4.0	2.5	/experiments/Knapen_AOT/AOT_stimuli/rescaled_final/0387_rv.mp4	0.0	91.67205595970154	2.5085549354553223
6	71.25686693191528	pulse	1	t		4.0	2.5	/experiments/Knapen_AOT/AOT_stimuli/rescaled_final/0387_rv.mp4	0.0	93.26016497612	
6	72.17731285095215	fix_post	2		12	4.0	2.5	/experiments/Knapen_AOT/AOT_stimuli/rescaled_final/0387_rv.mp4	0.0	94.18061089515686	0.10001420974731445
7	72.27732706069946	fix_pre	0		120	5.0	2.5	/experiments/Knapen_AOT/AOT_stimuli/rescaled_final/0641_rv.mp4	0.0	94.28062510490417	1.0001556873321533
7	72.86098647117615	pulse	0	t		5.0	2.5	/experiments/Knapen_AOT/AOT_stimuli/rescaled_final/0641_rv.mp4	0.0	94.86428451538086	
7	73.27748274803162	movie	1		299	5.0	2.5	/experiments/Knapen_AOT/AOT_stimuli/rescaled_final/0641_rv.mp4	0.0	95.28078079223633	2.500389575958252
7	74.45688199996948	pulse	1	t		5.0	2.5	/experiments/Knapen_AOT/AOT_stimuli/rescaled_final/0641_rv.mp4	0.0	96.4601800441742	
7	75.77787232398987	fix_post	2		12	5.0	2.5	/experiments/Knapen_AOT/AOT_stimuli/rescaled_final/0641_rv.mp4	0.0	97.78117036819458	0.10001087188720703
8	75.87788319587708	fix_pre	0		120	6.0	2.5	/experiments/Knapen_AOT/AOT_stimuli/rescaled_final/2020_fw.mp4	0.0	97.88118124008179	1.0001425743103027
8	76.06135034561157	pulse	0	t		6.0	2.5	/experiments/Knapen_AOT/AOT_stimuli/rescaled_final/2020_fw.mp4	0.0	98.06464838981628	
8	76.87802577018738	movie	1		300	6.0	2.5	/experiments/Knapen_AOT/AOT_stimuli/rescaled_final/2020_fw.mp4	0.0	98.88132381439209	2.5003678798675537
8	77.65718746185303	pulse	1	t		6.0	2.5	/experiments/Knapen_AOT/AOT_stimuli/rescaled_final/2020_fw.mp4	0.0	99.66048550605774	
8	79.25758695602417	pulse	1	t		6.0	2.5	/experiments/Knapen_AOT/AOT_stimuli/rescaled_final/2020_fw.mp4	0.0	101.26088500022888	
8	79.37839365005493	fix_post	2		12	6.0	2.5	/experiments/Knapen_AOT/AOT_stimuli/rescaled_final/2020_fw.mp4	0.0	101.38169169425964	0.10001325607299805
9	79.47840690612793	fix_pre	0		120	7.0	2.5	blank	1.0	101.48170495033264	1.000154972076416
9	80.47856187820435	movie	1		299	7.0	2.5	blank	1.0	102.48185992240906	2.4920296669006348
9	80.86210322380066	pulse	1	t		7.0	2.5	blank	1.0	102.86540126800537	
9	82.46230864524841	pulse	1	t		7.0	2.5	blank	1.0	104.46560668945312	
9	82.97059154510498	fix_post	2		12	7.0	2.5	blank	1.0	104.97388958930969	0.10004806518554688
10	83.07063961029053	fix_pre	0		120	8.0	2.5	/experiments/Knapen_AOT/AOT_stimuli/rescaled_final/1836_fw.mp4	0.0	105.07393765449524	1.0002155303955078
10	84.06254482269287	pulse	0	t		8.0	2.5	/experiments/Knapen_AOT/AOT_stimuli/rescaled_final/1836_fw.mp4	0.0	106.06584286689758	
10	84.07085514068604	movie	1		301	8.0	2.5	/experiments/Knapen_AOT/AOT_stimuli/rescaled_final/1836_fw.mp4	0.0	106.07415318489075	2.5086333751678467
10	85.65908551216125	pulse	1	t		8.0	2.5	/experiments/Knapen_AOT/AOT_stimuli/rescaled_final/1836_fw.mp4	0.0	107.66238355636597	
10	86.57948851585388	fix_post	2		12	8.0	2.5	/experiments/Knapen_AOT/AOT_stimuli/rescaled_final/1836_fw.mp4	0.0	108.5827865600586	0.10001850128173828
11	86.67950701713562	fix_pre	0		120	9.0	2.5	/experiments/Knapen_AOT/AOT_stimuli/rescaled_final/0434_fw.mp4	0.0	108.68280506134033	1.0001599788665771
11	87.2630455493927	pulse	0	t		9.0	2.5	/experiments/Knapen_AOT/AOT_stimuli/rescaled_final/0434_fw.mp4	0.0	109.26634359359741	
11	87.6796669960022	movie	1		300	9.0	2.5	/experiments/Knapen_AOT/AOT_stimuli/rescaled_final/0434_fw.mp4	0.0	109.68296504020691	2.5003623962402344
11	88.85904622077942	pulse	1	t		9.0	2.5	/experiments/Knapen_AOT/AOT_stimuli/rescaled_final/0434_fw.mp4	0.0	110.86234426498413	
11	90.18002939224243	fix_post	2		12	9.0	2.5	/experiments/Knapen_AOT/AOT_stimuli/rescaled_final/0434_fw.mp4	0.0	112.18332743644714	0.10000801086425781
12	90.28003740310669	fix_pre	0		120	10.0	2.5	/experiments/Knapen_AOT/AOT_stimuli/rescaled_final/2137_fw.mp4	0.0	112.2833354473114	1.0001511573791504
12	90.45531296730042	pulse	0	t		10.0	2.5	/experiments/Knapen_AOT/AOT_stimuli/rescaled_final/2137_fw.mp4	0.0	112.45861101150513	
12	91.28018856048584	movie	1		300	10.0	2.5	/experiments/Knapen_AOT/AOT_stimuli/rescaled_final/2137_fw.mp4	0.0	113.28348660469055	2.500413417816162
12	92.05552291870117	pulse	1	t		10.0	2.5	/experiments/Knapen_AOT/AOT_stimuli/rescaled_final/2137_fw.mp4	0.0	114.05882096290588	
12	93.65571856498718	pulse	1	t		10.0	2.5	/experiments/Knapen_AOT/AOT_stimuli/rescaled_final/2137_fw.mp4	0.0	115.6590166091919	
12	93.780601978302	fix_post	2		12	10.0	2.5	/experiments/Knapen_AOT/AOT_stimuli/rescaled_final/2137_fw.mp4	0.0	115.78390002250671	0.09998154640197754
13	93.88058352470398	fix_pre	0		119	11.0	2.5	/experiments/Knapen_AOT/AOT_stimuli/rescaled_final/1183_fw.mp4	0.0	115.88388156890869	0.9918482303619385
13	94.87243175506592	movie	1		300	11.0	2.5	/experiments/Knapen_AOT/AOT_stimuli/rescaled_final/1183_fw.mp4	0.0	116.87572979927063	2.500328779220581
13	95.25595188140869	pulse	1	t		11.0	2.5	/experiments/Knapen_AOT/AOT_stimuli/rescaled_final/1183_fw.mp4	0.0	117.2592499256134	
13	96.85617899894714	pulse	1	t		11.0	2.5	/experiments/Knapen_AOT/AOT_stimuli/rescaled_final/1183_fw.mp4	0.0	118.85947704315186	
13	97.3727605342865	fix_post	2		12	11.0	2.5	/experiments/Knapen_AOT/AOT_stimuli/rescaled_final/1183_fw.mp4	0.0	119.37605857849121	0.1000206470489502
14	97.47278118133545	fix_pre	0		119	12.0	2.5	/experiments/Knapen_AOT/AOT_stimuli/rescaled_final/1318_rv.mp4	0.0	119.47607922554016	0.9922144412994385
14	98.45641350746155	pulse	0	t		12.0	2.5	/experiments/Knapen_AOT/AOT_stimuli/rescaled_final/1318_rv.mp4	0.0	120.45971155166626	
14	98.46499562263489	movie	1		301	12.0	2.5	/experiments/Knapen_AOT/AOT_stimuli/rescaled_final/1318_rv.mp4	0.0	120.4682936668396	2.508368492126465
14	100.05676126480103	pulse	1	t		12.0	2.5	/experiments/Knapen_AOT/AOT_stimuli/rescaled_final/1318_rv.mp4	0.0	122.06005930900574	
14	100.97336411476135	fix_post	2		12	12.0	2.5	/experiments/Knapen_AOT/AOT_stimuli/rescaled_final/1318_rv.mp4	0.0	122.97666215896606	0.10001516342163086
15	101.07337927818298	fix_pre	0		120	13.0	2.5	/experiments/Knapen_AOT/AOT_stimuli/rescaled_final/1814_rv.mp4	0.0	123.0766773223877	1.000093698501587
15	101.65686750411987	pulse	0	t		13.0	2.5	/experiments/Knapen_AOT/AOT_stimuli/rescaled_final/1814_rv.mp4	0.0	123.66016554832458	
15	102.07347297668457	movie	1		300	13.0	2.5	/experiments/Knapen_AOT/AOT_stimuli/rescaled_final/1814_rv.mp4	0.0	124.07677102088928	2.500378370285034
15	103.25722575187683	pulse	1	t		13.0	2.5	/experiments/Knapen_AOT/AOT_stimuli/rescaled_final/1814_rv.mp4	0.0	125.26052379608154	
15	104.5738513469696	fix_post	2		12	13.0	2.5	/experiments/Knapen_AOT/AOT_stimuli/rescaled_final/1814_rv.mp4	0.0	126.57714939117432	0.10004544258117676
16	104.67389678955078	fix_pre	0		120	14.0	2.5	blank	1.0	126.6771948337555	1.0001204013824463
16	104.85736775398254	pulse	0	t		14.0	2.5	blank	1.0	126.86066579818726	
16	105.67401719093323	movie	1		300	14.0	2.5	blank	1.0	127.67731523513794	2.500382900238037
16	106.45762538909912	pulse	1	t		14.0	2.5	blank	1.0	128.46092343330383	
16	108.05785417556763	pulse	1	t		14.0	2.5	blank	1.0	130.06115221977234	
16	108.17440009117126	fix_post	2		12	14.0	2.5	blank	1.0	130.17769813537598	0.10001230239868164
17	108.27441239356995	fix_pre	0		120	15.0	2.5	/experiments/Knapen_AOT/AOT_stimuli/rescaled_final/0200_fw.mp4	0.0	130.27771043777466	1.0002570152282715
17	109.27466940879822	movie	1		298	15.0	2.5	/experiments/Knapen_AOT/AOT_stimuli/rescaled_final/0200_fw.mp4	0.0	131.27796745300293	2.491931915283203
17	109.65817427635193	pulse	1	t		15.0	2.5	/experiments/Knapen_AOT/AOT_stimuli/rescaled_final/0200_fw.mp4	0.0	131.66147232055664	
17	111.25837898254395	pulse	1	t		15.0	2.5	/experiments/Knapen_AOT/AOT_stimuli/rescaled_final/0200_fw.mp4	0.0	133.26167702674866	
17	111.76660132408142	fix_post	2		12	15.0	2.5	/experiments/Knapen_AOT/AOT_stimuli/rescaled_final/0200_fw.mp4	0.0	133.76989936828613	0.10001826286315918
18	111.86661958694458	fix_pre	0		120	16.0	2.5	/experiments/Knapen_AOT/AOT_stimuli/rescaled_final/1056_fw.mp4	0.0	133.8699176311493	1.0001335144042969
18	112.8585593700409	pulse	0	t		16.0	2.5	/experiments/Knapen_AOT/AOT_stimuli/rescaled_final/1056_fw.mp4	0.0	134.8618574142456	
18	112.86675310134888	movie	1		301	16.0	2.5	/experiments/Knapen_AOT/AOT_stimuli/rescaled_final/1056_fw.mp4	0.0	134.8700511455536	2.5087244510650635
18	114.4589409828186	pulse	1	t		16.0	2.5	/experiments/Knapen_AOT/AOT_stimuli/rescaled_final/1056_fw.mp4	0.0	136.46223902702332	
18	115.37547755241394	fix_post	2		12	16.0	2.5	/experiments/Knapen_AOT/AOT_stimuli/rescaled_final/1056_fw.mp4	0.0	137.37877559661865	0.10001873970031738
19	115.47549629211426	fix_pre	0		120	17.0	2.5	/experiments/Knapen_AOT/AOT_stimuli/rescaled_final/0433_fw.mp4	0.0	137.47879433631897	1.000138759613037
19	116.05902862548828	pulse	0	t		17.0	2.5	/experiments/Knapen_AOT/AOT_stimuli/rescaled_final/0433_fw.mp4	0.0	138.062326669693	
19	116.4756350517273	movie	1		300	17.0	2.5	/experiments/Knapen_AOT/AOT_stimuli/rescaled_final/0433_fw.mp4	0.0	138.478933095932	2.5003836154937744
19	117.65930652618408	pulse	1	t		17.0	2.5	/experiments/Knapen_AOT/AOT_stimuli/rescaled_final/0433_fw.mp4	0.0	139.6626045703888	
19	118.97601866722107	fix_post	2		12	17.0	2.5	/experiments/Knapen_AOT/AOT_stimuli/rescaled_final/0433_fw.mp4	0.0	140.97931671142578	0.10003185272216797
20	119.07605051994324	fix_pre	0		120	18.0	2.5	/experiments/Knapen_AOT/AOT_stimuli/rescaled_final/0434_fw.mp4	0.0	141.07934856414795	1.0001356601715088
20	119.2595546245575	pulse	0	t		18.0	2.5	/experiments/Knapen_AOT/AOT_stimuli/rescaled_final/0434_fw.mp4	0.0	141.2628526687622	
20	120.07618618011475	movie	1		300	18.0	2.5	/experiments/Knapen_AOT/AOT_stimuli/rescaled_final/0434_fw.mp4	0.0	142.07948422431946	2.500373125076294
20	120.85985779762268	pulse	1	t		18.0	2.5	/experiments/Knapen_AOT/AOT_stimuli/rescaled_final/0434_fw.mp4	0.0	142.8631558418274	
20	122.45585036277771	pulse	1	t		18.0	2.5	/experiments/Knapen_AOT/AOT_stimuli/rescaled_final/0434_fw.mp4	0.0	144.45914840698242	
20	122.57655930519104	fix_post	2		12	18.0	2.5	/experiments/Knapen_AOT/AOT_stimuli/rescaled_final/0434_fw.mp4	0.0	144.57985734939575	0.10002255439758301
21	122.67658185958862	fix_pre	0		120	19.0	2.5	blank	1.0	144.67987990379333	1.000159740447998
21	123.67674160003662	movie	1		299	19.0	2.5	blank	1.0	145.68003964424133	2.4920151233673096
21	124.06022787094116	pulse	1	t		19.0	2.5	blank	1.0	146.06352591514587	
21	125.66050100326538	pulse	1	t		19.0	2.5	blank	1.0	147.6637990474701	
21	126.16875672340393	fix_post	2		12	19.0	2.5	blank	1.0	148.17205476760864	0.1000204086303711
22	126.2687771320343	fix_pre	0		120	20.0	2.5	/experiments/Knapen_AOT/AOT_stimuli/rescaled_final/0157_rv.mp4	0.0	148.272075176239	1.0085699558258057
22	127.26076078414917	pulse	0	t		20.0	2.5	/experiments/Knapen_AOT/AOT_stimuli/rescaled_final/0157_rv.mp4	0.0	149.26405882835388	
22	127.27734708786011	movie	1		299	20.0	2.5	/experiments/Knapen_AOT/AOT_stimuli/rescaled_final/0157_rv.mp4	0.0	149.28064513206482	2.5003247261047363
22	128.85714030265808	pulse	1	t		20.0	2.5	/experiments/Knapen_AOT/AOT_stimuli/rescaled_final/0157_rv.mp4	0.0	150.8604383468628	
22	129.77767181396484	fix_post	2		12	20.0	2.5	/experiments/Knapen_AOT/AOT_stimuli/rescaled_final/0157_rv.mp4	0.0	151.78096985816956	0.10000824928283691
23	129.87768006324768	fix_pre	0		120	21.0	2.5	/experiments/Knapen_AOT/AOT_stimuli/rescaled_final/1096_rv.mp4	0.0	151.8809781074524	1.0001568794250488
23	130.46118593215942	pulse	0	t		21.0	2.5	/experiments/Knapen_AOT/AOT_stimuli/rescaled_final/1096_rv.mp4	0.0	152.46448397636414	
23	130.87783694267273	movie	1		300	21.0	2.5	/experiments/Knapen_AOT/AOT_stimuli/rescaled_final/1096_rv.mp4	0.0	152.88113498687744	2.5003554821014404
23	132.05723357200623	pulse	1	t		21.0	2.5	/experiments/Knapen_AOT/AOT_stimuli/rescaled_final/1096_rv.mp4	0.0	154.06053161621094	
23	133.37819242477417	fix_post	2		12	21.0	2.5	/experiments/Knapen_AOT/AOT_stimuli/rescaled_final/1096_rv.mp4	0.0	155.38149046897888	0.10000944137573242
24	133.4782018661499	fix_pre	0		120	22.0	2.5	/experiments/Knapen_AOT/AOT_stimuli/rescaled_final/0383_fw.mp4	0.0	155.48149991035461	1.0001490116119385
24	133.66168665885925	pulse	0	t		22.0	2.5	/experiments/Knapen_AOT/AOT_stimuli/rescaled_final/0383_fw.mp4	0.0	155.66498470306396	
24	134.47835087776184	movie	1		300	22.0	2.5	/experiments/Knapen_AOT/AOT_stimuli/rescaled_final/0383_fw.mp4	0.0	156.48164892196655	2.5003814697265625
24	135.2573959827423	pulse	1	t		22.0	2.5	/experiments/Knapen_AOT/AOT_stimuli/rescaled_final/0383_fw.mp4	0.0	157.26069402694702	
24	136.8578746318817	pulse	1	t		22.0	2.5	/experiments/Knapen_AOT/AOT_stimuli/rescaled_final/0383_fw.mp4	0.0	158.86117267608643	
24	136.9787323474884	fix_post	2		12	22.0	2.5	/experiments/Knapen_AOT/AOT_stimuli/rescaled_final/0383_fw.mp4	0.0	158.98203039169312	0.10000872611999512
25	137.0787410736084	fix_pre	0		120	23.0	2.5	/experiments/Knapen_AOT/AOT_stimuli/rescaled_final/0717_fw.mp4	0.0	159.0820391178131	1.0001468658447266
25	138.07888793945312	movie	1		298	23.0	2.5	/experiments/Knapen_AOT/AOT_stimuli/rescaled_final/0717_fw.mp4	0.0	160.08218598365784	2.4920690059661865
25	138.45830917358398	pulse	1	t		23.0	2.5	/experiments/Knapen_AOT/AOT_stimuli/rescaled_final/0717_fw.mp4	0.0	160.4616072177887	
25	140.05821871757507	pulse	1	t		23.0	2.5	/experiments/Knapen_AOT/AOT_stimuli/rescaled_final/0717_fw.mp4	0.0	162.06151676177979	
25	140.5709569454193	fix_post	2		12	23.0	2.5	/experiments/Knapen_AOT/AOT_stimuli/rescaled_final/0717_fw.mp4	0.0	162.57425498962402	0.09998130798339844
26	140.6709382534027	fix_pre	0		120	24.0	2.5	/experiments/Knapen_AOT/AOT_stimuli/rescaled_final/0372_rv.mp4	0.0	162.67423629760742	1.0085070133209229
26	141.66290640830994	pulse	0	t		24.0	2.5	/experiments/Knapen_AOT/AOT_stimuli/rescaled_final/0372_rv.mp4	0.0	163.66620445251465	
26	141.67944526672363	movie	1		300	24.0	2.5	/experiments/Knapen_AOT/AOT_stimuli/rescaled_final/0372_rv.mp4	0.0	163.68274331092834	2.5003702640533447
26	143.25931668281555	pulse	1	t		24.0	2.5	/experiments/Knapen_AOT/AOT_stimuli/rescaled_final/0372_rv.mp4	0.0	165.26261472702026	
26	144.17981553077698	fix_post	2		12	24.0	2.5	/experiments/Knapen_AOT/AOT_stimuli/rescaled_final/0372_rv.mp4	0.0	166.1831135749817	0.10001635551452637
27	144.2798318862915	fix_pre	0		120	25.0	2.5	/experiments/Knapen_AOT/AOT_stimuli/rescaled_final/1543_rv.mp4	0.0	166.28312993049622	1.0001628398895264
27	144.8634238243103	pulse	0	t		25.0	2.5	/experiments/Knapen_AOT/AOT_stimuli/rescaled_final/1543_rv.mp4	0.0	166.86672186851501	
27	145.27999472618103	movie	1		300	25.0	2.5	/experiments/Knapen_AOT/AOT_stimuli/rescaled_final/1543_rv.mp4	0.0	167.28329277038574	2.5003485679626465
27	146.45941400527954	pulse	1	t		25.0	2.5	/experiments/Knapen_AOT/AOT_stimuli/rescaled_final/1543_rv.mp4	0.0	168.46271204948425	
27	147.78034329414368	fix_post	2		12	25.0	2.5	/experiments/Knapen_AOT/AOT_stimuli/rescaled_final/1543_rv.mp4	0.0	169.7836413383484	0.10001873970031738
28	147.880362033844	fix_pre	0		120	26.0	2.5	/experiments/Knapen_AOT/AOT_stimuli/rescaled_final/1143_fw.mp4	0.0	169.8836600780487	1.000157356262207
28	148.05593872070312	pulse	0	t		26.0	2.5	/experiments/Knapen_AOT/AOT_stimuli/rescaled_final/1143_fw.mp4	0.0	170.05923676490784	
28	148.8805193901062	movie	1		300	26.0	2.5	/experiments/Knapen_AOT/AOT_stimuli/rescaled_final/1143_fw.mp4	0.0	170.8838174343109	2.5003793239593506
28	149.65589690208435	pulse	1	t		26.0	2.5	/experiments/Knapen_AOT/AOT_stimuli/rescaled_final/1143_fw.mp4	0.0	171.65919494628906	
28	151.256041765213	pulse	1	t		26.0	2.5	/experiments/Knapen_AOT/AOT_stimuli/rescaled_final/1143_fw.mp4	0.0	173.25933980941772	
28	151.38089871406555	fix_post	2		12	26.0	2.5	/experiments/Knapen_AOT/AOT_stimuli/rescaled_final/1143_fw.mp4	0.0	173.38419675827026	0.10001134872436523
29	151.48091006278992	fix_pre	0		120	27.0	2.5	blank	1.0	173.48420810699463	1.0001437664031982
29	152.48105382919312	movie	1		299	27.0	2.5	blank	1.0	174.48435187339783	2.4920501708984375
29	152.85626888275146	pulse	1	t		27.0	2.5	blank	1.0	174.85956692695618	
29	154.45649528503418	pulse	1	t		27.0	2.5	blank	1.0	176.4597933292389	
29	154.97310400009155	fix_post	2		12	27.0	2.5	blank	1.0	176.97640204429626	0.10001420974731445
30	155.07311820983887	fix_pre	0		119	28.0	2.5	/experiments/Knapen_AOT/AOT_stimuli/rescaled_final/1262_rv.mp4	0.0	177.07641625404358	1.0001580715179443
30	156.05672454833984	pulse	0	t		28.0	2.5	/experiments/Knapen_AOT/AOT_stimuli/rescaled_final/1262_rv.mp4	0.0	178.06002259254456	
30	156.0732762813568	movie	1		300	28.0	2.5	/experiments/Knapen_AOT/AOT_stimuli/rescaled_final/1262_rv.mp4	0.0	178.07657432556152	2.5003714561462402
30	157.6573257446289	pulse	1	t		28.0	2.5	/experiments/Knapen_AOT/AOT_stimuli/rescaled_final/1262_rv.mp4	0.0	179.66062378883362	
30	158.57364773750305	fix_post	2		12	28.0	2.5	/experiments/Knapen_AOT/AOT_stimuli/rescaled_final/1262_rv.mp4	0.0	180.57694578170776	0.10004997253417969
31	158.67369771003723	fix_pre	0		120	29.0	2.5	/experiments/Knapen_AOT/AOT_stimuli/rescaled_final/1318_fw.mp4	0.0	180.67699575424194	1.0000779628753662
31	159.25719594955444	pulse	0	t		29.0	2.5	/experiments/Knapen_AOT/AOT_stimuli/rescaled_final/1318_fw.mp4	0.0	181.26049399375916	
31	159.6737756729126	movie	1		300	29.0	2.5	/experiments/Knapen_AOT/AOT_stimuli/rescaled_final/1318_fw.mp4	0.0	181.6770737171173	2.5004372596740723
31	160.857439994812	pulse	1	t		29.0	2.5	/experiments/Knapen_AOT/AOT_stimuli/rescaled_final/1318_fw.mp4	0.0	182.86073803901672	
31	162.17421293258667	fix_post	2		12	29.0	2.5	/experiments/Knapen_AOT/AOT_stimuli/rescaled_final/1318_fw.mp4	0.0	184.17751097679138	0.0999908447265625
32	162.27420377731323	fix_pre	0		120	30.0	2.5	/experiments/Knapen_AOT/AOT_stimuli/rescaled_final/1666_rv.mp4	0.0	184.27750182151794	1.0001814365386963
32	162.45765113830566	pulse	0	t		30.0	2.5	/experiments/Knapen_AOT/AOT_stimuli/rescaled_final/1666_rv.mp4	0.0	184.46094918251038	
32	163.27438521385193	movie	1		300	30.0	2.5	/experiments/Knapen_AOT/AOT_stimuli/rescaled_final/1666_rv.mp4	0.0	185.27768325805664	2.5003502368927
32	164.05796575546265	pulse	1	t		30.0	2.5	/experiments/Knapen_AOT/AOT_stimuli/rescaled_final/1666_rv.mp4	0.0	186.06126379966736	
32	165.6581687927246	pulse	1	t		30.0	2.5	/experiments/Knapen_AOT/AOT_stimuli/rescaled_final/1666_rv.mp4	0.0	187.66146683692932	
32	165.77473545074463	fix_post	2		12	30.0	2.5	/experiments/Knapen_AOT/AOT_stimuli/rescaled_final/1666_rv.mp4	0.0	187.77803349494934	0.1000063419342041
33	165.87474179267883	fix_pre	0		120	31.0	2.5	/experiments/Knapen_AOT/AOT_stimuli/rescaled_final/1005_fw.mp4	0.0	187.87803983688354	1.0001487731933594
33	166.8748905658722	movie	1		299	31.0	2.5	/experiments/Knapen_AOT/AOT_stimuli/rescaled_final/1005_fw.mp4	0.0	188.8781886100769	2.4920411109924316
33	167.25844192504883	pulse	1	t		31.0	2.5	/experiments/Knapen_AOT/AOT_stimuli/rescaled_final/1005_fw.mp4	0.0	189.26173996925354	
33	168.85874152183533	pulse	1	t		31.0	2.5	/experiments/Knapen_AOT/AOT_stimuli/rescaled_final/1005_fw.mp4	0.0	190.86203956604004	
33	169.36693167686462	fix_post	2		12	31.0	2.5	/experiments/Knapen_AOT/AOT_stimuli/rescaled_final/1005_fw.mp4	0.0	191.37022972106934	0.10001301765441895
34	169.46694469451904	fix_pre	0		120	32.0	2.5	/experiments/Knapen_AOT/AOT_stimuli/rescaled_final/0471_rv.mp4	0.0	191.47024273872375	1.0003435611724854
34	170.45887327194214	pulse	0	t		32.0	2.5	/experiments/Knapen_AOT/AOT_stimuli/rescaled_final/0471_rv.mp4	0.0	192.46217131614685	
34	170.46728825569153	movie	1		301	32.0	2.5	/experiments/Knapen_AOT/AOT_stimuli/rescaled_final/0471_rv.mp4	0.0	192.47058629989624	2.5085158348083496
34	172.0592565536499	pulse	1	t		32.0	2.5	/experiments/Knapen_AOT/AOT_stimuli/rescaled_final/0471_rv.mp4	0.0	194.06255459785461	
34	172.97580409049988	fix_post	2		12	32.0	2.5	/experiments/Knapen_AOT/AOT_stimuli/rescaled_final/0471_rv.mp4	0.0	194.9791021347046	0.10002350807189941
35	173.07582759857178	fix_pre	0		120	33.0	2.5	/experiments/Knapen_AOT/AOT_stimuli/rescaled_final/0009_fw.mp4	0.0	195.0791256427765	1.0001225471496582
35	173.65944504737854	pulse	0	t		33.0	2.5	/experiments/Knapen_AOT/AOT_stimuli/rescaled_final/0009_fw.mp4	0.0	195.66274309158325	
35	174.07595014572144	movie	1		300	33.0	2.5	/experiments/Knapen_AOT/AOT_stimuli/rescaled_final/0009_fw.mp4	0.0	196.07924818992615	2.5004003047943115
35	175.25970816612244	pulse	1	t		33.0	2.5	/experiments/Knapen_AOT/AOT_stimuli/rescaled_final/0009_fw.mp4	0.0	197.26300621032715	
35	176.57635045051575	fix_post	2		12	33.0	2.5	/experiments/Knapen_AOT/AOT_stimuli/rescaled_final/0009_fw.mp4	0.0	198.57964849472046	0.10004472732543945
36	176.6763951778412	fix_pre	0		120	34.0	2.5	/experiments/Knapen_AOT/AOT_stimuli/rescaled_final/0693_rv.mp4	0.0	198.6796932220459	1.0001091957092285
36	176.85989546775818	pulse	0	t		34.0	2.5	/experiments/Knapen_AOT/AOT_stimuli/rescaled_final/0693_rv.mp4	0.0	198.8631935119629	
36	177.67650437355042	movie	1		300	34.0	2.5	/experiments/Knapen_AOT/AOT_stimuli/rescaled_final/0693_rv.mp4	0.0	199.67980241775513	2.5004067420959473
36	178.46014547348022	pulse	1	t		34.0	2.5	/experiments/Knapen_AOT/AOT_stimuli/rescaled_final/0693_rv.mp4	0.0	200.46344351768494	
36	180.05599546432495	pulse	1	t		34.0	2.5	/experiments/Knapen_AOT/AOT_stimuli/rescaled_final/0693_rv.mp4	0.0	202.05929350852966	
36	180.17691111564636	fix_post	2		12	34.0	2.5	/experiments/Knapen_AOT/AOT_stimuli/rescaled_final/0693_rv.mp4	0.0	202.18020915985107	0.09999680519104004
37	180.2769079208374	fix_pre	0		120	35.0	2.5	blank	1.0	202.28020596504211	1.0001513957977295
37	181.27705931663513	movie	1		299	35.0	2.5	blank	1.0	203.28035736083984	2.4920248985290527
37	181.66062879562378	pulse	1	t		35.0	2.5	blank	1.0	203.6639268398285	
37	183.26080989837646	pulse	1	t		35.0	2.5	blank	1.0	205.26410794258118	
37	183.76908421516418	fix_post	2		12	35.0	2.5	blank	1.0	205.7723822593689	0.10001993179321289
38	183.8691041469574	fix_pre	0		120	36.0	2.5	/experiments/Knapen_AOT/AOT_stimuli/rescaled_final/1519_rv.mp4	0.0	205.8724021911621	1.0003790855407715
38	184.86104249954224	pulse	0	t		36.0	2.5	/experiments/Knapen_AOT/AOT_stimuli/rescaled_final/1519_rv.mp4	0.0	206.86434054374695	
38	184.86948323249817	movie	1		301	36.0	2.5	/experiments/Knapen_AOT/AOT_stimuli/rescaled_final/1519_rv.mp4	0.0	206.87278127670288	2.508486270904541
38	186.45743083953857	pulse	1	t		36.0	2.5	/experiments/Knapen_AOT/AOT_stimuli/rescaled_final/1519_rv.mp4	0.0	208.4607288837433	
38	187.3779695034027	fix_post	2		12	36.0	2.5	/experiments/Knapen_AOT/AOT_stimuli/rescaled_final/1519_rv.mp4	0.0	209.38126754760742	0.10004806518554688
39	187.47801756858826	fix_pre	0		120	37.0	2.5	/experiments/Knapen_AOT/AOT_stimuli/rescaled_final/1866_fw.mp4	0.0	209.48131561279297	1.0001177787780762
39	188.06157422065735	pulse	0	t		37.0	2.5	/experiments/Knapen_AOT/AOT_stimuli/rescaled_final/1866_fw.mp4	0.0	210.06487226486206	
39	188.47813534736633	movie	1		300	37.0	2.5	/experiments/Knapen_AOT/AOT_stimuli/rescaled_final/1866_fw.mp4	0.0	210.48143339157104	2.500415325164795
39	189.65760707855225	pulse	1	t		37.0	2.5	/experiments/Knapen_AOT/AOT_stimuli/rescaled_final/1866_fw.mp4	0.0	211.66090512275696	
39	190.97855067253113	fix_post	2		12	37.0	2.5	/experiments/Knapen_AOT/AOT_stimuli/rescaled_final/1866_fw.mp4	0.0	212.98184871673584	0.09997677803039551
40	191.07852745056152	fix_pre	0		120	38.0	2.5	/experiments/Knapen_AOT/AOT_stimuli/rescaled_final/0689_rv.mp4	0.0	213.08182549476624	1.000138521194458
40	191.2620849609375	pulse	0	t		38.0	2.5	/experiments/Knapen_AOT/AOT_stimuli/rescaled_final/0689_rv.mp4	0.0	213.2653830051422	
40	192.07866597175598	movie	1		300	38.0	2.5	/experiments/Knapen_AOT/AOT_stimuli/rescaled_final/0689_rv.mp4	0.0	214.0819640159607	2.500391721725464
40	192.85789847373962	pulse	1	t		38.0	2.5	/experiments/Knapen_AOT/AOT_stimuli/rescaled_final/0689_rv.mp4	0.0	214.86119651794434	
40	194.4582121372223	pulse	1	t		38.0	2.5	/experiments/Knapen_AOT/AOT_stimuli/rescaled_final/0689_rv.mp4	0.0	216.461510181427	
40	194.57905769348145	fix_post	2		12	38.0	2.5	/experiments/Knapen_AOT/AOT_stimuli/rescaled_final/0689_rv.mp4	0.0	216.58235573768616	0.10001683235168457
41	194.67907452583313	fix_pre	0		120	39.0	2.5	/experiments/Knapen_AOT/AOT_stimuli/rescaled_final/1543_fw.mp4	0.0	216.68237257003784	1.0001440048217773
41	195.6792185306549	movie	1		299	39.0	2.5	/experiments/Knapen_AOT/AOT_stimuli/rescaled_final/1543_fw.mp4	0.0	217.68251657485962	2.4920589923858643
41	196.05877208709717	pulse	1	t		39.0	2.5	/experiments/Knapen_AOT/AOT_stimuli/rescaled_final/1543_fw.mp4	0.0	218.06207013130188	
41	197.65852284431458	pulse	1	t		39.0	2.5	/experiments/Knapen_AOT/AOT_stimuli/rescaled_final/1543_fw.mp4	0.0	219.6618208885193	
41	198.17127752304077	fix_post	2		12	39.0	2.5	/experiments/Knapen_AOT/AOT_stimuli/rescaled_final/1543_fw.mp4	0.0	220.17457556724548	0.09998655319213867
42	198.2712640762329	fix_pre	0		120	40.0	2.5	/experiments/Knapen_AOT/AOT_stimuli/rescaled_final/1570_fw.mp4	0.0	220.27456212043762	1.0005550384521484
42	199.25531888008118	pulse	0	t		40.0	2.5	/experiments/Knapen_AOT/AOT_stimuli/rescaled_final/1570_fw.mp4	0.0	221.2586169242859	
42	199.27181911468506	movie	1		301	40.0	2.5	/experiments/Knapen_AOT/AOT_stimuli/rescaled_final/1570_fw.mp4	0.0	221.27511715888977	2.508314847946167
42	200.85533261299133	pulse	1	t		40.0	2.5	/experiments/Knapen_AOT/AOT_stimuli/rescaled_final/1570_fw.mp4	0.0	222.85863065719604	
42	201.78013396263123	fix_post	2		12	40.0	2.5	/experiments/Knapen_AOT/AOT_stimuli/rescaled_final/1570_fw.mp4	0.0	223.78343200683594	0.10002422332763672
43	201.88015818595886	fix_pre	0		120	41.0	2.5	/experiments/Knapen_AOT/AOT_stimuli/rescaled_final/1067_rv.mp4	0.0	223.88345623016357	1.0001680850982666
43	202.45537686347961	pulse	0	t		41.0	2.5	/experiments/Knapen_AOT/AOT_stimuli/rescaled_final/1067_rv.mp4	0.0	224.45867490768433	
43	202.88032627105713	movie	1		300	41.0	2.5	/experiments/Knapen_AOT/AOT_stimuli/rescaled_final/1067_rv.mp4	0.0	224.88362431526184	2.500349998474121
43	204.0556502342224	pulse	1	t		41.0	2.5	/experiments/Knapen_AOT/AOT_stimuli/rescaled_final/1067_rv.mp4	0.0	226.05894827842712	
43	205.38067626953125	fix_post	2		12	41.0	2.5	/experiments/Knapen_AOT/AOT_stimuli/rescaled_final/1067_rv.mp4	0.0	227.38397431373596	0.10002732276916504
44	205.48070359230042	fix_pre	0		120	42.0	2.5	blank	1.0	227.48400163650513	1.000138759613037
44	205.65587210655212	pulse	0	t		42.0	2.5	blank	1.0	227.65917015075684	
44	206.48084235191345	movie	1		300	42.0	2.5	blank	1.0	228.48414039611816	2.5003817081451416
44	207.2560794353485	pulse	1	t		42.0	2.5	blank	1.0	229.25937747955322	
44	208.8563072681427	pulse	1	t		42.0	2.5	blank	1.0	230.8596053123474	
44	208.9812240600586	fix_post	2		12	42.0	2.5	blank	1.0	230.9845221042633	0.10003018379211426
45	209.0812542438507	fix_pre	0		120	43.0	2.5	/experiments/Knapen_AOT/AOT_stimuli/rescaled_final/1655_rv.mp4	0.0	231.08455228805542	1.0002985000610352
45	210.08155274391174	movie	1		287	43.0	2.5	/experiments/Knapen_AOT/AOT_stimuli/rescaled_final/1655_rv.mp4	0.0	232.08485078811646	2.491873264312744
45	210.45673823356628	pulse	1	t		43.0	2.5	/experiments/Knapen_AOT/AOT_stimuli/rescaled_final/1655_rv.mp4	0.0	232.460036277771	
45	212.05683970451355	pulse	1	t		43.0	2.5	/experiments/Knapen_AOT/AOT_stimuli/rescaled_final/1655_rv.mp4	0.0	234.06013774871826	
45	212.5734260082245	fix_post	2		12	43.0	2.5	/experiments/Knapen_AOT/AOT_stimuli/rescaled_final/1655_rv.mp4	0.0	234.5767240524292	0.10002470016479492
46	212.67345070838928	fix_pre	0		119	44.0	2.5	/experiments/Knapen_AOT/AOT_stimuli/rescaled_final/0387_fw.mp4	0.0	234.676748752594	0.9919674396514893
46	213.65704345703125	pulse	0	t		44.0	2.5	/experiments/Knapen_AOT/AOT_stimuli/rescaled_final/0387_fw.mp4	0.0	235.66034150123596	
46	213.66541814804077	movie	1		301	44.0	2.5	/experiments/Knapen_AOT/AOT_stimuli/rescaled_final/0387_fw.mp4	0.0	235.66871619224548	2.5085458755493164
46	215.25738668441772	pulse	1	t		44.0	2.5	/experiments/Knapen_AOT/AOT_stimuli/rescaled_final/0387_fw.mp4	0.0	237.26068472862244	
46	216.1739640235901	fix_post	2		12	44.0	2.5	/experiments/Knapen_AOT/AOT_stimuli/rescaled_final/0387_fw.mp4	0.0	238.1772620677948	0.10005593299865723
47	216.27401995658875	fix_pre	0		120	45.0	2.5	/experiments/Knapen_AOT/AOT_stimuli/rescaled_final/1367_rv.mp4	0.0	238.27731800079346	1.0001423358917236
47	216.85751390457153	pulse	0	t		45.0	2.5	/experiments/Knapen_AOT/AOT_stimuli/rescaled_final/1367_rv.mp4	0.0	238.86081194877625	
47	217.27416229248047	movie	1		300	45.0	2.5	/experiments/Knapen_AOT/AOT_stimuli/rescaled_final/1367_rv.mp4	0.0	239.27746033668518	2.500345468521118
47	218.45780062675476	pulse	1	t		45.0	2.5	/experiments/Knapen_AOT/AOT_stimuli/rescaled_final/1367_rv.mp4	0.0	240.46109867095947	
47	219.7745077610016	fix_post	2		12	45.0	2.5	/experiments/Knapen_AOT/AOT_stimuli/rescaled_final/1367_rv.mp4	0.0	241.7778058052063	0.10005664825439453
48	219.87456440925598	fix_pre	0		120	46.0	2.5	/experiments/Knapen_AOT/AOT_stimuli/rescaled_final/1819_fw.mp4	0.0	241.8778624534607	1.0000905990600586
48	220.0580484867096	pulse	0	t		46.0	2.5	/experiments/Knapen_AOT/AOT_stimuli/rescaled_final/1819_fw.mp4	0.0	242.0613465309143	
48	220.87465500831604	movie	1		300	46.0	2.5	/experiments/Knapen_AOT/AOT_stimuli/rescaled_final/1819_fw.mp4	0.0	242.87795305252075	2.500387668609619
48	221.65834140777588	pulse	1	t		46.0	2.5	/experiments/Knapen_AOT/AOT_stimuli/rescaled_final/1819_fw.mp4	0.0	243.6616394519806	
48	223.25851154327393	pulse	1	t		46.0	2.5	/experiments/Knapen_AOT/AOT_stimuli/rescaled_final/1819_fw.mp4	0.0	245.26180958747864	
48	223.37504267692566	fix_post	2		12	46.0	2.5	/experiments/Knapen_AOT/AOT_stimuli/rescaled_final/1819_fw.mp4	0.0	245.37834072113037	0.10010242462158203
49	223.47514510154724	fix_pre	0		120	47.0	2.5	/experiments/Knapen_AOT/AOT_stimuli/rescaled_final/0710_fw.mp4	0.0	245.47844314575195	1.00008225440979
49	224.47522735595703	movie	1		299	47.0	2.5	/experiments/Knapen_AOT/AOT_stimuli/rescaled_final/0710_fw.mp4	0.0	246.47852540016174	2.4920477867126465
49	224.85876941680908	pulse	1	t		47.0	2.5	/experiments/Knapen_AOT/AOT_stimuli/rescaled_final/0710_fw.mp4	0.0	246.8620674610138	
49	226.4590699672699	pulse	1	t		47.0	2.5	/experiments/Knapen_AOT/AOT_stimuli/rescaled_final/0710_fw.mp4	0.0	248.4623680114746	
49	226.96727514266968	fix_post	2		12	47.0	2.5	/experiments/Knapen_AOT/AOT_stimuli/rescaled_final/0710_fw.mp4	0.0	248.9705731868744	0.10003042221069336
50	227.06730556488037	fix_pre	0		120	48.0	2.5	/experiments/Knapen_AOT/AOT_stimuli/rescaled_final/1076_fw.mp4	0.0	249.07060360908508	1.0084805488586426
50	228.05921053886414	pulse	0	t		48.0	2.5	/experiments/Knapen_AOT/AOT_stimuli/rescaled_final/1076_fw.mp4	0.0	250.06250858306885	
50	228.075786113739	movie	1		300	48.0	2.5	/experiments/Knapen_AOT/AOT_stimuli/rescaled_final/1076_fw.mp4	0.0	250.07908415794373	2.500342845916748
50	229.65574979782104	pulse	1	t		48.0	2.5	/experiments/Knapen_AOT/AOT_stimuli/rescaled_final/1076_fw.mp4	0.0	251.65904784202576	
50	230.57612895965576	fix_post	2		12	48.0	2.5	/experiments/Knapen_AOT/AOT_stimuli/rescaled_final/1076_fw.mp4	0.0	252.57942700386047	0.10004138946533203
51	230.6761703491211	fix_pre	0		120	49.0	2.5	blank	1.0	252.6794683933258	1.0001184940338135
51	231.25968313217163	pulse	0	t		49.0	2.5	blank	1.0	253.26298117637634	
51	231.6762888431549	movie	1		300	49.0	2.5	blank	1.0	253.67958688735962	2.500387191772461
51	232.8599350452423	pulse	1	t		49.0	2.5	blank	1.0	254.86323308944702	
51	234.17667603492737	fix_post	2		12	49.0	2.5	blank	1.0	256.1799740791321	0.10003018379211426
52	234.27670621871948	fix_pre	0		120	50.0	2.5	/experiments/Knapen_AOT/AOT_stimuli/rescaled_final/0890_fw.mp4	0.0	256.2800042629242	1.000180959701538
52	234.46016693115234	pulse	0	t		50.0	2.5	/experiments/Knapen_AOT/AOT_stimuli/rescaled_final/0890_fw.mp4	0.0	256.46346497535706	
52	235.27688717842102	movie	1		300	50.0	2.5	/experiments/Knapen_AOT/AOT_stimuli/rescaled_final/0890_fw.mp4	0.0	257.28018522262573	2.500326156616211
52	236.05611157417297	pulse	1	t		50.0	2.5	/experiments/Knapen_AOT/AOT_stimuli/rescaled_final/0890_fw.mp4	0.0	258.0594096183777	
52	237.65650272369385	pulse	1	t		50.0	2.5	/experiments/Knapen_AOT/AOT_stimuli/rescaled_final/0890_fw.mp4	0.0	259.65980076789856	
52	237.77721333503723	fix_post	2		12	50.0	2.5	/experiments/Knapen_AOT/AOT_stimuli/rescaled_final/0890_fw.mp4	0.0	259.78051137924194	0.1000218391418457
53	237.87723517417908	fix_pre	0		120	51.0	2.5	/experiments/Knapen_AOT/AOT_stimuli/rescaled_final/0790_rv.mp4	0.0	259.8805332183838	1.0001287460327148
53	238.8773639202118	movie	1		299	51.0	2.5	/experiments/Knapen_AOT/AOT_stimuli/rescaled_final/0790_rv.mp4	0.0	260.8806619644165	2.4920506477355957
53	239.25726795196533	pulse	1	t		51.0	2.5	/experiments/Knapen_AOT/AOT_stimuli/rescaled_final/0790_rv.mp4	0.0	261.26056599617004	
53	240.8566677570343	pulse	1	t		51.0	2.5	/experiments/Knapen_AOT/AOT_stimuli/rescaled_final/0790_rv.mp4	0.0	262.859965801239	
53	241.3694145679474	fix_post	2		12	51.0	2.5	/experiments/Knapen_AOT/AOT_stimuli/rescaled_final/0790_rv.mp4	0.0	263.3727126121521	0.1000063419342041
54	241.4694209098816	fix_pre	0		120	52.0	2.5	/experiments/Knapen_AOT/AOT_stimuli/rescaled_final/0736_rv.mp4	0.0	263.4727189540863	1.0085349082946777
54	242.46138644218445	pulse	0	t		52.0	2.5	/experiments/Knapen_AOT/AOT_stimuli/rescaled_final/0736_rv.mp4	0.0	264.46468448638916	
54	242.47795581817627	movie	1		300	52.0	2.5	/experiments/Knapen_AOT/AOT_stimuli/rescaled_final/0736_rv.mp4	0.0	264.481253862381	2.500345230102539
54	244.05818605422974	pulse	1	t		52.0	2.5	/experiments/Knapen_AOT/AOT_stimuli/rescaled_final/0736_rv.mp4	0.0	266.06148409843445	
54	244.9783010482788	fix_post	2		12	52.0	2.5	/experiments/Knapen_AOT/AOT_stimuli/rescaled_final/0736_rv.mp4	0.0	266.9815990924835	0.10001158714294434
55	245.07831263542175	fix_pre	0		120	53.0	2.5	/experiments/Knapen_AOT/AOT_stimuli/rescaled_final/1056_fw.mp4	0.0	267.08161067962646	1.0001506805419922
55	245.66186833381653	pulse	0	t		53.0	2.5	/experiments/Knapen_AOT/AOT_stimuli/rescaled_final/1056_fw.mp4	0.0	267.66516637802124	
55	246.07846331596375	movie	1		300	53.0	2.5	/experiments/Knapen_AOT/AOT_stimuli/rescaled_final/1056_fw.mp4	0.0	268.08176136016846	2.5003821849823
55	247.25795030593872	pulse	1	t		53.0	2.5	/experiments/Knapen_AOT/AOT_stimuli/rescaled_final/1056_fw.mp4	0.0	269.26124835014343	
55	248.57884550094604	fix_post	2		12	53.0	2.5	/experiments/Knapen_AOT/AOT_stimuli/rescaled_final/1056_fw.mp4	0.0	270.58214354515076	0.10001897811889648
56	248.67886447906494	fix_pre	0		120	54.0	2.5	/experiments/Knapen_AOT/AOT_stimuli/rescaled_final/0780_fw.mp4	0.0	270.68216252326965	1.0001649856567383
56	248.8623492717743	pulse	0	t		54.0	2.5	/experiments/Knapen_AOT/AOT_stimuli/rescaled_final/0780_fw.mp4	0.0	270.865647315979	
56	249.67902946472168	movie	1		300	54.0	2.5	/experiments/Knapen_AOT/AOT_stimuli/rescaled_final/0780_fw.mp4	0.0	271.6823275089264	2.500351667404175
56	250.458270072937	pulse	1	t		54.0	2.5	/experiments/Knapen_AOT/AOT_stimuli/rescaled_final/0780_fw.mp4	0.0	272.4615681171417	
56	252.05845761299133	pulse	1	t		54.0	2.5	/experiments/Knapen_AOT/AOT_stimuli/rescaled_final/0780_fw.mp4	0.0	274.06175565719604	
56	252.17938113212585	fix_post	2		12	54.0	2.5	/experiments/Knapen_AOT/AOT_stimuli/rescaled_final/0780_fw.mp4	0.0	274.18267917633057	0.10001587867736816
57	252.27939701080322	fix_pre	0		120	55.0	2.5	blank	1.0	274.28269505500793	1.0001521110534668
57	253.2795491218567	movie	1		299	55.0	2.5	blank	1.0	275.2828471660614	2.492049217224121
57	253.66306376457214	pulse	1	t		55.0	2.5	blank	1.0	275.66636180877686	
57	255.26330661773682	pulse	1	t		55.0	2.5	blank	1.0	277.2666046619415	
57	255.7715983390808	fix_post	2		12	55.0	2.5	blank	1.0	277.7748963832855	0.10000038146972656
58	255.87159872055054	fix_pre	0		120	56.0	2.5	/experiments/Knapen_AOT/AOT_stimuli/rescaled_final/2119_rv.mp4	0.0	277.87489676475525	1.0085742473602295
58	256.8558204174042	pulse	0	t		56.0	2.5	/experiments/Knapen_AOT/AOT_stimuli/rescaled_final/2119_rv.mp4	0.0	278.8591184616089	
58	256.88017296791077	movie	1		300	56.0	2.5	/experiments/Knapen_AOT/AOT_stimuli/rescaled_final/2119_rv.mp4	0.0	278.8834710121155	2.500298500061035
58	258.4557514190674	pulse	1	t		56.0	2.5	/experiments/Knapen_AOT/AOT_stimuli/rescaled_final/2119_rv.mp4	0.0	280.4590494632721	
58	259.3804714679718	fix_post	2		12	56.0	2.5	/experiments/Knapen_AOT/AOT_stimuli/rescaled_final/2119_rv.mp4	0.0	281.3837695121765	0.10001373291015625
59	259.48048520088196	fix_pre	0		120	57.0	2.5	/experiments/Knapen_AOT/AOT_stimuli/rescaled_final/2084_rv.mp4	0.0	281.48378324508667	1.0001521110534668
59	260.05572295188904	pulse	0	t		57.0	2.5	/experiments/Knapen_AOT/AOT_stimuli/rescaled_final/2084_rv.mp4	0.0	282.05902099609375	
59	260.4806373119354	movie	1		300	57.0	2.5	/experiments/Knapen_AOT/AOT_stimuli/rescaled_final/2084_rv.mp4	0.0	282.48393535614014	2.50036883354187
59	261.6560378074646	pulse	1	t		57.0	2.5	/experiments/Knapen_AOT/AOT_stimuli/rescaled_final/2084_rv.mp4	0.0	283.6593358516693	
59	262.9810061454773	fix_post	2		12	57.0	2.5	/experiments/Knapen_AOT/AOT_stimuli/rescaled_final/2084_rv.mp4	0.0	284.984304189682	0.10001826286315918
60	263.08102440834045	fix_pre	0		120	58.0	2.5	/experiments/Knapen_AOT/AOT_stimuli/rescaled_final/1200_rv.mp4	0.0	285.08432245254517	1.0001463890075684
60	263.2561831474304	pulse	0	t		58.0	2.5	/experiments/Knapen_AOT/AOT_stimuli/rescaled_final/1200_rv.mp4	0.0	285.25948119163513	
60	264.081170797348	movie	1		300	58.0	2.5	/experiments/Knapen_AOT/AOT_stimuli/rescaled_final/1200_rv.mp4	0.0	286.08446884155273	2.5003738403320312
60	264.85646629333496	pulse	1	t		58.0	2.5	/experiments/Knapen_AOT/AOT_stimuli/rescaled_final/1200_rv.mp4	0.0	286.8597643375397	
60	266.4566984176636	pulse	1	t		58.0	2.5	/experiments/Knapen_AOT/AOT_stimuli/rescaled_final/1200_rv.mp4	0.0	288.4599964618683	
60	266.58154463768005	fix_post	2		12	58.0	2.5	/experiments/Knapen_AOT/AOT_stimuli/rescaled_final/1200_rv.mp4	0.0	288.58484268188477	0.10004687309265137
61	266.6815915107727	fix_pre	0		120	59.0	2.5	/experiments/Knapen_AOT/AOT_stimuli/rescaled_final/1791_fw.mp4	0.0	288.6848895549774	1.0001227855682373
61	267.68171429634094	movie	1		300	59.0	2.5	/experiments/Knapen_AOT/AOT_stimuli/rescaled_final/1791_fw.mp4	0.0	289.68501234054565	2.5003809928894043
61	268.0570316314697	pulse	1	t		59.0	2.5	/experiments/Knapen_AOT/AOT_stimuli/rescaled_final/1791_fw.mp4	0.0	290.06032967567444	
61	269.6571719646454	pulse	1	t		59.0	2.5	/experiments/Knapen_AOT/AOT_stimuli/rescaled_final/1791_fw.mp4	0.0	291.6604700088501	
61	270.18209528923035	fix_post	2		12	59.0	2.5	/experiments/Knapen_AOT/AOT_stimuli/rescaled_final/1791_fw.mp4	0.0	292.18539333343506	0.10003066062927246
62	270.2821259498596	fix_pre	0		118	60.0	2.5	/experiments/Knapen_AOT/AOT_stimuli/rescaled_final/0091_rv.mp4	0.0	292.28542399406433	0.9836182594299316
62	271.25740599632263	pulse	0	t		60.0	2.5	/experiments/Knapen_AOT/AOT_stimuli/rescaled_final/0091_rv.mp4	0.0	293.26070404052734	
62	271.26574420928955	movie	1		301	60.0	2.5	/experiments/Knapen_AOT/AOT_stimuli/rescaled_final/0091_rv.mp4	0.0	293.26904225349426	2.508561849594116
62	272.85768604278564	pulse	1	t		60.0	2.5	/experiments/Knapen_AOT/AOT_stimuli/rescaled_final/0091_rv.mp4	0.0	294.86098408699036	
62	273.77430605888367	fix_post	2		12	60.0	2.5	/experiments/Knapen_AOT/AOT_stimuli/rescaled_final/0091_rv.mp4	0.0	295.7776041030884	0.10002946853637695
63	273.87433552742004	fix_pre	0		120	61.0	2.5	blank	1.0	295.87763357162476	1.0001425743103027
63	274.45785307884216	pulse	0	t		61.0	2.5	blank	1.0	296.4611511230469	
63	274.87447810173035	movie	1		300	61.0	2.5	blank	1.0	296.87777614593506	2.5003819465637207
63	276.0581123828888	pulse	1	t		61.0	2.5	blank	1.0	298.0614104270935	
63	277.37486004829407	fix_post	2		12	61.0	2.5	blank	1.0	299.3781580924988	0.10000443458557129
64	277.47486448287964	fix_pre	0		120	62.0	2.5	/experiments/Knapen_AOT/AOT_stimuli/rescaled_final/1001_fw.mp4	0.0	299.47816252708435	1.0001561641693115
64	277.6583344936371	pulse	0	t		62.0	2.5	/experiments/Knapen_AOT/AOT_stimuli/rescaled_final/1001_fw.mp4	0.0	299.6616325378418	
64	278.47502064704895	movie	1		300	62.0	2.5	/experiments/Knapen_AOT/AOT_stimuli/rescaled_final/1001_fw.mp4	0.0	300.47831869125366	2.5003652572631836
64	279.25866866111755	pulse	1	t		62.0	2.5	/experiments/Knapen_AOT/AOT_stimuli/rescaled_final/1001_fw.mp4	0.0	301.26196670532227	
64	280.85883259773254	pulse	1	t		62.0	2.5	/experiments/Knapen_AOT/AOT_stimuli/rescaled_final/1001_fw.mp4	0.0	302.86213064193726	
64	280.97538590431213	fix_post	2		12	62.0	2.5	/experiments/Knapen_AOT/AOT_stimuli/rescaled_final/1001_fw.mp4	0.0	302.97868394851685	0.10002422332763672
65	281.07541012763977	fix_pre	0		120	63.0	2.5	/experiments/Knapen_AOT/AOT_stimuli/rescaled_final/1358_fw.mp4	0.0	303.0787081718445	1.0001435279846191
65	282.0755536556244	movie	1		299	63.0	2.5	/experiments/Knapen_AOT/AOT_stimuli/rescaled_final/1358_fw.mp4	0.0	304.0788516998291	2.4920573234558105
65	282.4592504501343	pulse	1	t		63.0	2.5	/experiments/Knapen_AOT/AOT_stimuli/rescaled_final/1358_fw.mp4	0.0	304.462548494339	
65	284.0593855381012	pulse	1	t		63.0	2.5	/experiments/Knapen_AOT/AOT_stimuli/rescaled_final/1358_fw.mp4	0.0	306.0626835823059	
65	284.5676109790802	fix_post	2		12	63.0	2.5	/experiments/Knapen_AOT/AOT_stimuli/rescaled_final/1358_fw.mp4	0.0	306.5709090232849	0.10001587867736816
66	284.66762685775757	fix_pre	0		120	64.0	2.5	/experiments/Knapen_AOT/AOT_stimuli/rescaled_final/0544_fw.mp4	0.0	306.6709249019623	1.0084912776947021
66	285.65959429740906	pulse	0	t		64.0	2.5	/experiments/Knapen_AOT/AOT_stimuli/rescaled_final/0544_fw.mp4	0.0	307.66289234161377	
66	285.67611813545227	movie	1		300	64.0	2.5	/experiments/Knapen_AOT/AOT_stimuli/rescaled_final/0544_fw.mp4	0.0	307.679416179657	2.500354528427124
66	287.25593423843384	pulse	1	t		64.0	2.5	/experiments/Knapen_AOT/AOT_stimuli/rescaled_final/0544_fw.mp4	0.0	309.25923228263855	
66	288.1764726638794	fix_post	2		12	64.0	2.5	/experiments/Knapen_AOT/AOT_stimuli/rescaled_final/0544_fw.mp4	0.0	310.1797707080841	0.10002541542053223
67	288.2764980792999	fix_pre	0		120	65.0	2.5	/experiments/Knapen_AOT/AOT_stimuli/rescaled_final/0613_fw.mp4	0.0	310.27979612350464	1.0001294612884521
67	288.8600220680237	pulse	0	t		65.0	2.5	/experiments/Knapen_AOT/AOT_stimuli/rescaled_final/0613_fw.mp4	0.0	310.8633201122284	
67	289.2766275405884	movie	1		300	65.0	2.5	/experiments/Knapen_AOT/AOT_stimuli/rescaled_final/0613_fw.mp4	0.0	311.2799255847931	2.5003771781921387
67	290.4559955596924	pulse	1	t		65.0	2.5	/experiments/Knapen_AOT/AOT_stimuli/rescaled_final/0613_fw.mp4	0.0	312.4592936038971	
67	291.7770047187805	fix_post	2		12	65.0	2.5	/experiments/Knapen_AOT/AOT_stimuli/rescaled_final/0613_fw.mp4	0.0	313.78030276298523	0.10002541542053223
68	291.87703013420105	fix_pre	0		120	66.0	2.5	/experiments/Knapen_AOT/AOT_stimuli/rescaled_final/1997_rv.mp4	0.0	313.88032817840576	1.0001423358917236
68	292.06049394607544	pulse	0	t		66.0	2.5	/experiments/Knapen_AOT/AOT_stimuli/rescaled_final/1997_rv.mp4	0.0	314.06379199028015	
68	292.8771724700928	movie	1		300	66.0	2.5	/experiments/Knapen_AOT/AOT_stimuli/rescaled_final/1997_rv.mp4	0.0	314.8804705142975	2.5003955364227295
68	293.6564345359802	pulse	1	t		66.0	2.5	/experiments/Knapen_AOT/AOT_stimuli/rescaled_final/1997_rv.mp4	0.0	315.65973258018494	
68	295.2567141056061	pulse	1	t		66.0	2.5	/experiments/Knapen_AOT/AOT_stimuli/rescaled_final/1997_rv.mp4	0.0	317.2600121498108	
68	295.3775680065155	fix_post	2		12	66.0	2.5	/experiments/Knapen_AOT/AOT_stimuli/rescaled_final/1997_rv.mp4	0.0	317.3808660507202	0.10000753402709961
69	295.4775755405426	fix_pre	0		120	67.0	2.5	/experiments/Knapen_AOT/AOT_stimuli/rescaled_final/1200_rv.mp4	0.0	317.4808735847473	1.0001435279846191
69	296.4777190685272	movie	1		299	67.0	2.5	/experiments/Knapen_AOT/AOT_stimuli/rescaled_final/1200_rv.mp4	0.0	318.48101711273193	2.4921298027038574
69	296.85720229148865	pulse	1	t		67.0	2.5	/experiments/Knapen_AOT/AOT_stimuli/rescaled_final/1200_rv.mp4	0.0	318.86050033569336	
69	298.45702934265137	pulse	1	t		67.0	2.5	/experiments/Knapen_AOT/AOT_stimuli/rescaled_final/1200_rv.mp4	0.0	320.4603273868561	
69	298.9698488712311	fix_post	2		12	67.0	2.5	/experiments/Knapen_AOT/AOT_stimuli/rescaled_final/1200_rv.mp4	0.0	320.9731469154358	0.09993267059326172
70	299.06978154182434	fix_pre	0		120	68.0	2.5	/experiments/Knapen_AOT/AOT_stimuli/rescaled_final/1832_fw.mp4	0.0	321.07307958602905	1.0084905624389648
70	300.06175899505615	pulse	0	t		68.0	2.5	/experiments/Knapen_AOT/AOT_stimuli/rescaled_final/1832_fw.mp4	0.0	322.06505703926086	
70	300.0782721042633	movie	1		300	68.0	2.5	/experiments/Knapen_AOT/AOT_stimuli/rescaled_final/1832_fw.mp4	0.0	322.081570148468	2.5003678798675537
70	301.6582188606262	pulse	1	t		68.0	2.5	/experiments/Knapen_AOT/AOT_stimuli/rescaled_final/1832_fw.mp4	0.0	323.66151690483093	
70	302.57863998413086	fix_post	2		12	68.0	2.5	/experiments/Knapen_AOT/AOT_stimuli/rescaled_final/1832_fw.mp4	0.0	324.58193802833557	0.10001754760742188
71	302.6786575317383	fix_pre	0		120	69.0	2.5	/experiments/Knapen_AOT/AOT_stimuli/rescaled_final/1465_rv.mp4	0.0	324.681955575943	1.0001368522644043
71	303.2621912956238	pulse	0	t		69.0	2.5	/experiments/Knapen_AOT/AOT_stimuli/rescaled_final/1465_rv.mp4	0.0	325.2654893398285	
71	303.6787943840027	movie	1		300	69.0	2.5	/experiments/Knapen_AOT/AOT_stimuli/rescaled_final/1465_rv.mp4	0.0	325.6820924282074	2.5004422664642334
71	304.8585321903229	pulse	1	t		69.0	2.5	/experiments/Knapen_AOT/AOT_stimuli/rescaled_final/1465_rv.mp4	0.0	326.8618302345276	
71	306.1792366504669	fix_post	2		12	69.0	2.5	/experiments/Knapen_AOT/AOT_stimuli/rescaled_final/1465_rv.mp4	0.0	328.18253469467163	0.09995245933532715
72	306.27918910980225	fix_pre	0		120	70.0	2.5	blank	1.0	328.28248715400696	1.0001468658447266
72	306.4627273082733	pulse	0	t		70.0	2.5	blank	1.0	328.466025352478	
72	307.279335975647	movie	1		300	70.0	2.5	blank	1.0	329.2826340198517	2.5003788471221924
72	308.06289863586426	pulse	1	t		70.0	2.5	blank	1.0	330.06619668006897	
72	309.6631712913513	pulse	1	t		70.0	2.5	blank	1.0	331.66646933555603	
72	309.77971482276917	fix_post	2		12	70.0	2.5	blank	1.0	331.7830128669739	0.1000359058380127
73	309.8797507286072	fix_pre	0		120	71.0	2.5	/experiments/Knapen_AOT/AOT_stimuli/rescaled_final/0158_rv.mp4	0.0	331.8830487728119	1.0001349449157715
73	310.87988567352295	movie	1		300	71.0	2.5	/experiments/Knapen_AOT/AOT_stimuli/rescaled_final/0158_rv.mp4	0.0	332.88318371772766	2.5003697872161865
73	311.2594645023346	pulse	1	t		71.0	2.5	/experiments/Knapen_AOT/AOT_stimuli/rescaled_final/0158_rv.mp4	0.0	333.2627625465393	
73	312.8592677116394	pulse	1	t		71.0	2.5	/experiments/Knapen_AOT/AOT_stimuli/rescaled_final/0158_rv.mp4	0.0	334.8625657558441	
73	313.38025546073914	fix_post	2		12	71.0	2.5	/experiments/Knapen_AOT/AOT_stimuli/rescaled_final/0158_rv.mp4	0.0	335.38355350494385	0.10001873970031738
74	313.48027420043945	fix_pre	0		119	72.0	2.5	/experiments/Knapen_AOT/AOT_stimuli/rescaled_final/0736_fw.mp4	0.0	335.48357224464417	0.991797685623169
74	314.45597434043884	pulse	0	t		72.0	2.5	/experiments/Knapen_AOT/AOT_stimuli/rescaled_final/0736_fw.mp4	0.0	336.45927238464355	
74	314.4720718860626	movie	1		301	72.0	2.5	/experiments/Knapen_AOT/AOT_stimuli/rescaled_final/0736_fw.mp4	0.0	336.47536993026733	2.508730411529541
74	316.0604226589203	pulse	1	t		72.0	2.5	/experiments/Knapen_AOT/AOT_stimuli/rescaled_final/0736_fw.mp4	0.0	338.063720703125	
74	316.98080229759216	fix_post	2		12	72.0	2.5	/experiments/Knapen_AOT/AOT_stimuli/rescaled_final/0736_fw.mp4	0.0	338.9841003417969	0.10008668899536133
75	317.0808889865875	fix_pre	0		120	73.0	2.5	/experiments/Knapen_AOT/AOT_stimuli/rescaled_final/1099_rv.mp4	0.0	339.08418703079224	1.000098705291748
75	317.656044960022	pulse	0	t		73.0	2.5	/experiments/Knapen_AOT/AOT_stimuli/rescaled_final/1099_rv.mp4	0.0	339.6593430042267	
75	318.0809876918793	movie	1		300	73.0	2.5	/experiments/Knapen_AOT/AOT_stimuli/rescaled_final/1099_rv.mp4	0.0	340.084285736084	2.5003623962402344
75	319.25629591941833	pulse	1	t		73.0	2.5	/experiments/Knapen_AOT/AOT_stimuli/rescaled_final/1099_rv.mp4	0.0	341.25959396362305	
75	320.5813500881195	fix_post	2		12	73.0	2.5	/experiments/Knapen_AOT/AOT_stimuli/rescaled_final/1099_rv.mp4	0.0	342.5846481323242	0.10000753402709961
76	320.6813576221466	fix_pre	0		120	74.0	2.5	/experiments/Knapen_AOT/AOT_stimuli/rescaled_final/0496_rv.mp4	0.0	342.6846556663513	1.0001518726348877
76	320.85656547546387	pulse	0	t		74.0	2.5	/experiments/Knapen_AOT/AOT_stimuli/rescaled_final/0496_rv.mp4	0.0	342.8598635196686	
76	321.6815094947815	movie	1		300	74.0	2.5	/experiments/Knapen_AOT/AOT_stimuli/rescaled_final/0496_rv.mp4	0.0	343.6848075389862	2.5003747940063477
76	322.45677614212036	pulse	1	t		74.0	2.5	/experiments/Knapen_AOT/AOT_stimuli/rescaled_final/0496_rv.mp4	0.0	344.4600741863251	
76	324.05702018737793	pulse	1	t		74.0	2.5	/experiments/Knapen_AOT/AOT_stimuli/rescaled_final/0496_rv.mp4	0.0	346.06031823158264	
76	324.18188428878784	fix_post	2		12	74.0	2.5	/experiments/Knapen_AOT/AOT_stimuli/rescaled_final/0496_rv.mp4	0.0	346.18518233299255	0.10000991821289062
77	324.28189420700073	fix_pre	0		120	75.0	2.5	blank	1.0	346.28519225120544	1.0002074241638184
77	325.28210163116455	movie	1		299	75.0	2.5	blank	1.0	347.28539967536926	2.4920012950897217
77	325.6572141647339	pulse	1	t		75.0	2.5	blank	1.0	347.6605122089386	
77	327.25755763053894	pulse	1	t		75.0	2.5	blank	1.0	349.26085567474365	
77	327.7741029262543	fix_post	2		12	75.0	2.5	blank	1.0	349.777400970459	0.10002756118774414
78	327.874130487442	fix_pre	0		119	76.0	2.5	/experiments/Knapen_AOT/AOT_stimuli/rescaled_final/0614_fw.mp4	0.0	349.87742853164673	1.0001368522644043
78	328.85771131515503	pulse	0	t		76.0	2.5	/experiments/Knapen_AOT/AOT_stimuli/rescaled_final/0614_fw.mp4	0.0	350.86100935935974	
78	328.8742673397064	movie	1		300	76.0	2.5	/experiments/Knapen_AOT/AOT_stimuli/rescaled_final/0614_fw.mp4	0.0	350.87756538391113	2.500359535217285
78	330.4580235481262	pulse	1	t		76.0	2.5	/experiments/Knapen_AOT/AOT_stimuli/rescaled_final/0614_fw.mp4	0.0	352.46132159233093	
78	331.3746268749237	fix_post	2		12	76.0	2.5	/experiments/Knapen_AOT/AOT_stimuli/rescaled_final/0614_fw.mp4	0.0	353.3779249191284	0.10001730918884277
79	331.47464418411255	fix_pre	0		120	77.0	2.5	/experiments/Knapen_AOT/AOT_stimuli/rescaled_final/1700_rv.mp4	0.0	353.47794222831726	1.0002191066741943
79	332.05821228027344	pulse	0	t		77.0	2.5	/experiments/Knapen_AOT/AOT_stimuli/rescaled_final/1700_rv.mp4	0.0	354.06151032447815	
79	332.47486329078674	movie	1		300	77.0	2.5	/experiments/Knapen_AOT/AOT_stimuli/rescaled_final/1700_rv.mp4	0.0	354.47816133499146	2.500335454940796
79	333.6584541797638	pulse	1	t		77.0	2.5	/experiments/Knapen_AOT/AOT_stimuli/rescaled_final/1700_rv.mp4	0.0	355.6617522239685	
79	334.97519874572754	fix_post	2		12	77.0	2.5	/experiments/Knapen_AOT/AOT_stimuli/rescaled_final/1700_rv.mp4	0.0	356.97849678993225	0.09999775886535645
80	335.0751965045929	fix_pre	0		120	78.0	2.5	/experiments/Knapen_AOT/AOT_stimuli/rescaled_final/1701_rv.mp4	0.0	357.0784945487976	1.0001146793365479
80	335.2586793899536	pulse	0	t		78.0	2.5	/experiments/Knapen_AOT/AOT_stimuli/rescaled_final/1701_rv.mp4	0.0	357.2619774341583	
80	336.07531118392944	movie	1		299	78.0	2.5	/experiments/Knapen_AOT/AOT_stimuli/rescaled_final/1701_rv.mp4	0.0	358.07860922813416	2.5004007816314697
80	336.85900378227234	pulse	1	t		78.0	2.5	/experiments/Knapen_AOT/AOT_stimuli/rescaled_final/1701_rv.mp4	0.0	358.86230182647705	
80	338.45916986465454	pulse	1	t		78.0	2.5	/experiments/Knapen_AOT/AOT_stimuli/rescaled_final/1701_rv.mp4	0.0	360.46246790885925	
80	338.5757119655609	fix_post	2		12	78.0	2.5	/experiments/Knapen_AOT/AOT_stimuli/rescaled_final/1701_rv.mp4	0.0	360.5790100097656	0.10000729560852051
81	338.67571926116943	fix_pre	0		120	79.0	2.5	/experiments/Knapen_AOT/AOT_stimuli/rescaled_final/1087_fw.mp4	0.0	360.67901730537415	1.0001590251922607
81	339.6758782863617	movie	1		298	79.0	2.5	/experiments/Knapen_AOT/AOT_stimuli/rescaled_final/1087_fw.mp4	0.0	361.6791763305664	2.4920337200164795
81	340.05942964553833	pulse	1	t		79.0	2.5	/experiments/Knapen_AOT/AOT_stimuli/rescaled_final/1087_fw.mp4	0.0	362.06272768974304	
81	341.6596460342407	pulse	1	t		79.0	2.5	/experiments/Knapen_AOT/AOT_stimuli/rescaled_final/1087_fw.mp4	0.0	363.66294407844543	
81	342.1679120063782	fix_post	2		12	79.0	2.5	/experiments/Knapen_AOT/AOT_stimuli/rescaled_final/1087_fw.mp4	0.0	364.1712100505829	0.10006237030029297
82	342.26797437667847	fix_pre	0		120	80.0	2.5	/experiments/Knapen_AOT/AOT_stimuli/rescaled_final/2061_rv.mp4	0.0	364.2712724208832	1.0084612369537354
82	343.2598707675934	pulse	0	t		80.0	2.5	/experiments/Knapen_AOT/AOT_stimuli/rescaled_final/2061_rv.mp4	0.0	365.2631688117981	
82	343.2764356136322	movie	1		300	80.0	2.5	/experiments/Knapen_AOT/AOT_stimuli/rescaled_final/2061_rv.mp4	0.0	365.2797336578369	2.500359535217285
82	344.8570899963379	pulse	1	t		80.0	2.5	/experiments/Knapen_AOT/AOT_stimuli/rescaled_final/2061_rv.mp4	0.0	366.8603880405426	
82	345.7767951488495	fix_post	2		12	80.0	2.5	/experiments/Knapen_AOT/AOT_stimuli/rescaled_final/2061_rv.mp4	0.0	367.7800931930542	0.10006403923034668
83	345.87685918807983	fix_pre	0		120	81.0	2.5	/experiments/Knapen_AOT/AOT_stimuli/rescaled_final/0277_rv.mp4	0.0	367.88015723228455	1.000105857849121
83	346.4603953361511	pulse	0	t		81.0	2.5	/experiments/Knapen_AOT/AOT_stimuli/rescaled_final/0277_rv.mp4	0.0	368.46369338035583	
83	346.87696504592896	movie	1		300	81.0	2.5	/experiments/Knapen_AOT/AOT_stimuli/rescaled_final/0277_rv.mp4	0.0	368.88026309013367	2.500403642654419
83	348.0563838481903	pulse	1	t		81.0	2.5	/experiments/Knapen_AOT/AOT_stimuli/rescaled_final/0277_rv.mp4	0.0	370.059681892395	
83	349.3773686885834	fix_post	2		12	81.0	2.5	/experiments/Knapen_AOT/AOT_stimuli/rescaled_final/0277_rv.mp4	0.0	371.3806667327881	0.10000920295715332
84	349.4773778915405	fix_pre	0		120	82.0	2.5	/experiments/Knapen_AOT/AOT_stimuli/rescaled_final/2074_fw.mp4	0.0	371.48067593574524	1.0002496242523193
84	349.6608335971832	pulse	0	t		82.0	2.5	/experiments/Knapen_AOT/AOT_stimuli/rescaled_final/2074_fw.mp4	0.0	371.66413164138794	
84	350.47762751579285	movie	1		300	82.0	2.5	/experiments/Knapen_AOT/AOT_stimuli/rescaled_final/2074_fw.mp4	0.0	372.48092555999756	2.5002474784851074
84	351.25671648979187	pulse	1	t		82.0	2.5	/experiments/Knapen_AOT/AOT_stimuli/rescaled_final/2074_fw.mp4	0.0	373.2600145339966	
84	352.85708355903625	pulse	1	t		82.0	2.5	/experiments/Knapen_AOT/AOT_stimuli/rescaled_final/2074_fw.mp4	0.0	374.86038160324097	
84	352.97787499427795	fix_post	2		12	82.0	2.5	/experiments/Knapen_AOT/AOT_stimuli/rescaled_final/2074_fw.mp4	0.0	374.98117303848267	0.10002470016479492
85	353.07789969444275	fix_pre	0		120	83.0	2.5	blank	1.0	375.08119773864746	1.0001544952392578
85	354.078054189682	movie	1		299	83.0	2.5	blank	1.0	376.0813522338867	2.492029905319214
85	354.46157217025757	pulse	1	t		83.0	2.5	blank	1.0	376.4648702144623	
85	356.0617778301239	pulse	1	t		83.0	2.5	blank	1.0	378.0650758743286	
85	356.5700840950012	fix_post	2		12	83.0	2.5	blank	1.0	378.57338213920593	0.12508678436279297
87	356.695170879364	stim	0		1713					378.6984689235687	14.277061462402344
87	357.6620578765869	pulse	0	t						379.6653559207916	
87	359.2622563838959	pulse	0	t						381.2655544281006	
87	360.8625032901764	pulse	0	t						382.8658013343811	
87	362.4627585411072	pulse	0	t						384.4660565853119	
87	364.0630509853363	pulse	0	t						386.066349029541	
87	365.6555585861206	pulse	0	t						387.6588566303253	
87	367.255961894989	pulse	0	t						389.2592599391937	
87	368.85539269447327	pulse	0	t						390.858690738678	
87	370.45561933517456	pulse	0	t						392.4589173793793	
