trial_nr	onset	event_type	phase	response	nr_frames	movie_index	movie_duration	movie_file	blank	onset_abs	duration
0	0.15816235542297363	stim	0		1					16.101277589797974	0.008365869522094727
0	0.08831477165222168	response	0	space						16.03143000602722	
1	0.16652822494506836	stim	0		4613					16.10964345932007	38.46040868759155
1	38.61238241195679	pulse	0	t						54.55549764633179	
1	38.62693691253662	stim	1		1714					54.57005214691162	14.297365665435791
1	40.205899477005005	pulse	1	t						56.149014711380005	
1	41.806188344955444	pulse	1	t						57.749303579330444	
1	43.40640711784363	pulse	1	t						59.34952235221863	
1	45.006640911102295	pulse	1	t						60.949756145477295	
1	46.60710573196411	pulse	1	t						62.55022096633911	
1	48.20712661743164	pulse	1	t						64.15024185180664	
1	49.8075909614563	pulse	1	t						65.7507061958313	
1	51.40772271156311	pulse	1	t						67.35083794593811	
2	52.92430257797241	fix_pre	0		11	0.0	2.5	/experiments/knapen_AOT/AOT_stimuli/rescaled_final/0996_rv.mp4	0.0	68.86741781234741	0.10842251777648926
2	53.00075340270996	pulse	0	t		0.0	2.5	/experiments/knapen_AOT/AOT_stimuli/rescaled_final/0996_rv.mp4	0.0	68.94386863708496	
2	53.0327250957489	movie	1		266	0.0	2.5	/experiments/knapen_AOT/AOT_stimuli/rescaled_final/0996_rv.mp4	0.0	68.9758403301239	2.4919636249542236
2	54.60663819313049	pulse	1	t		0.0	2.5	/experiments/knapen_AOT/AOT_stimuli/rescaled_final/0996_rv.mp4	0.0	70.5497534275055	
2	55.524688720703125	fix_post	2		12	0.0	2.5	/experiments/knapen_AOT/AOT_stimuli/rescaled_final/0996_rv.mp4	0.0	71.46780395507812	0.10004305839538574
3	55.62473177909851	fix_pre	0		120	1.0	2.5	/experiments/knapen_AOT/AOT_stimuli/rescaled_final/1084_fw.mp4	0.0	71.56784701347351	1.0084846019744873
3	56.20074248313904	pulse	0	t		1.0	2.5	/experiments/knapen_AOT/AOT_stimuli/rescaled_final/1084_fw.mp4	0.0	72.14385771751404	
3	56.633216381073	movie	1		261	1.0	2.5	/experiments/knapen_AOT/AOT_stimuli/rescaled_final/1084_fw.mp4	0.0	72.576331615448	2.492053270339966
3	57.80065107345581	pulse	1	t		1.0	2.5	/experiments/knapen_AOT/AOT_stimuli/rescaled_final/1084_fw.mp4	0.0	73.74376630783081	
3	59.125269651412964	fix_post	2		12	1.0	2.5	/experiments/knapen_AOT/AOT_stimuli/rescaled_final/1084_fw.mp4	0.0	75.06838488578796	0.10011076927185059
4	59.225380420684814	fix_pre	0		120	2.0	2.5	/experiments/knapen_AOT/AOT_stimuli/rescaled_final/0262_fw.mp4	0.0	75.16849565505981	1.0084397792816162
4	59.400938510894775	pulse	0	t		2.0	2.5	/experiments/knapen_AOT/AOT_stimuli/rescaled_final/0262_fw.mp4	0.0	75.34405374526978	
4	60.23382019996643	movie	1		279	2.0	2.5	/experiments/knapen_AOT/AOT_stimuli/rescaled_final/0262_fw.mp4	0.0	76.17693543434143	2.49200177192688
4	61.00075840950012	pulse	1	t		2.0	2.5	/experiments/knapen_AOT/AOT_stimuli/rescaled_final/0262_fw.mp4	0.0	76.94387364387512	
4	62.601134061813354	pulse	1	t		2.0	2.5	/experiments/knapen_AOT/AOT_stimuli/rescaled_final/0262_fw.mp4	0.0	78.54424929618835	
4	62.72582197189331	fix_post	2		12	2.0	2.5	/experiments/knapen_AOT/AOT_stimuli/rescaled_final/0262_fw.mp4	0.0	78.66893720626831	0.09998345375061035
5	62.82580542564392	fix_pre	0		120	3.0	2.5	/experiments/knapen_AOT/AOT_stimuli/rescaled_final/0262_rv.mp4	0.0	78.76892066001892	1.0084953308105469
5	63.83430075645447	movie	1		277	3.0	2.5	/experiments/knapen_AOT/AOT_stimuli/rescaled_final/0262_rv.mp4	0.0	79.77741599082947	2.4921751022338867
5	64.20125794410706	pulse	1	t		3.0	2.5	/experiments/knapen_AOT/AOT_stimuli/rescaled_final/0262_rv.mp4	0.0	80.14437317848206	
5	65.8017783164978	pulse	1	t		3.0	2.5	/experiments/knapen_AOT/AOT_stimuli/rescaled_final/0262_rv.mp4	0.0	81.7448935508728	
5	66.32647585868835	fix_post	2		12	3.0	2.5	/experiments/knapen_AOT/AOT_stimuli/rescaled_final/0262_rv.mp4	0.0	82.26959109306335	0.0998830795288086
6	66.42635893821716	fix_pre	0		118	4.0	2.5	/experiments/knapen_AOT/AOT_stimuli/rescaled_final/0845_rv.mp4	0.0	82.36947417259216	0.9917953014373779
6	67.40173602104187	pulse	0	t		4.0	2.5	/experiments/knapen_AOT/AOT_stimuli/rescaled_final/0845_rv.mp4	0.0	83.34485125541687	
6	67.41815423965454	movie	1		268	4.0	2.5	/experiments/knapen_AOT/AOT_stimuli/rescaled_final/0845_rv.mp4	0.0	83.36126947402954	2.5003855228424072
6	69.00223588943481	pulse	1	t		4.0	2.5	/experiments/knapen_AOT/AOT_stimuli/rescaled_final/0845_rv.mp4	0.0	84.94535112380981	
6	69.91853976249695	fix_post	2		12	4.0	2.5	/experiments/knapen_AOT/AOT_stimuli/rescaled_final/0845_rv.mp4	0.0	85.86165499687195	0.10000944137573242
7	70.01854920387268	fix_pre	0		120	5.0	2.5	blank	1.0	85.96166443824768	1.0001425743103027
7	70.6021933555603	pulse	0	t		5.0	2.5	blank	1.0	86.5453085899353	
7	71.01869177818298	movie	1		300	5.0	2.5	blank	1.0	86.96180701255798	2.500389337539673
7	72.20243310928345	pulse	1	t		5.0	2.5	blank	1.0	88.14554834365845	
7	73.51908111572266	fix_post	2		12	5.0	2.5	blank	1.0	89.46219635009766	0.10000896453857422
8	73.61909008026123	fix_pre	0		120	6.0	2.5	/experiments/knapen_AOT/AOT_stimuli/rescaled_final/1869_fw.mp4	0.0	89.56220531463623	1.0085647106170654
8	73.80266642570496	pulse	0	t		6.0	2.5	/experiments/knapen_AOT/AOT_stimuli/rescaled_final/1869_fw.mp4	0.0	89.74578166007996	
8	74.6276547908783	movie	1		270	6.0	2.5	/experiments/knapen_AOT/AOT_stimuli/rescaled_final/1869_fw.mp4	0.0	90.5707700252533	2.491955280303955
8	75.40248227119446	pulse	1	t		6.0	2.5	/experiments/knapen_AOT/AOT_stimuli/rescaled_final/1869_fw.mp4	0.0	91.34559750556946	
8	77.0010597705841	pulse	1	t		6.0	2.5	/experiments/knapen_AOT/AOT_stimuli/rescaled_final/1869_fw.mp4	0.0	92.9441750049591	
8	77.11961007118225	fix_post	2		12	6.0	2.5	/experiments/knapen_AOT/AOT_stimuli/rescaled_final/1869_fw.mp4	0.0	93.06272530555725	0.1000220775604248
9	77.21963214874268	fix_pre	0		120	7.0	2.5	/experiments/knapen_AOT/AOT_stimuli/rescaled_final/1401_rv.mp4	0.0	93.16274738311768	1.0085113048553467
9	78.22814345359802	movie	1		259	7.0	2.5	/experiments/knapen_AOT/AOT_stimuli/rescaled_final/1401_rv.mp4	0.0	94.17125868797302	2.4920120239257812
9	78.60170555114746	pulse	1	t		7.0	2.5	/experiments/knapen_AOT/AOT_stimuli/rescaled_final/1401_rv.mp4	0.0	94.54482078552246	
9	80.20133662223816	pulse	1	t		7.0	2.5	/experiments/knapen_AOT/AOT_stimuli/rescaled_final/1401_rv.mp4	0.0	96.14445185661316	
9	80.7201554775238	fix_post	2		12	7.0	2.5	/experiments/knapen_AOT/AOT_stimuli/rescaled_final/1401_rv.mp4	0.0	96.6632707118988	0.10001420974731445
10	80.82016968727112	fix_pre	0		119	8.0	2.5	/experiments/knapen_AOT/AOT_stimuli/rescaled_final/1487_fw.mp4	0.0	96.76328492164612	1.0086147785186768
10	81.80387377738953	pulse	0	t		8.0	2.5	/experiments/knapen_AOT/AOT_stimuli/rescaled_final/1487_fw.mp4	0.0	97.74698901176453	
10	81.8287844657898	movie	1		273	8.0	2.5	/experiments/knapen_AOT/AOT_stimuli/rescaled_final/1487_fw.mp4	0.0	97.7718997001648	2.491917133331299
10	83.40283966064453	pulse	1	t		8.0	2.5	/experiments/knapen_AOT/AOT_stimuli/rescaled_final/1487_fw.mp4	0.0	99.34595489501953	
10	84.3207015991211	fix_post	2		12	8.0	2.5	/experiments/knapen_AOT/AOT_stimuli/rescaled_final/1487_fw.mp4	0.0	100.2638168334961	0.10001420974731445
11	84.42071580886841	fix_pre	0		120	9.0	2.5	/experiments/knapen_AOT/AOT_stimuli/rescaled_final/2084_fw.mp4	0.0	100.36383104324341	1.008495807647705
11	85.00444173812866	pulse	0	t		9.0	2.5	/experiments/knapen_AOT/AOT_stimuli/rescaled_final/2084_fw.mp4	0.0	100.94755697250366	
11	85.42921161651611	movie	1		269	9.0	2.5	/experiments/knapen_AOT/AOT_stimuli/rescaled_final/2084_fw.mp4	0.0	101.37232685089111	2.492027521133423
11	86.60252380371094	pulse	1	t		9.0	2.5	/experiments/knapen_AOT/AOT_stimuli/rescaled_final/2084_fw.mp4	0.0	102.54563903808594	
11	87.92123913764954	fix_post	2		12	9.0	2.5	/experiments/knapen_AOT/AOT_stimuli/rescaled_final/2084_fw.mp4	0.0	103.86435437202454	0.10001587867736816
12	88.0212550163269	fix_pre	0		120	10.0	2.5	/experiments/knapen_AOT/AOT_stimuli/rescaled_final/1557_rv.mp4	0.0	103.9643702507019	1.0086214542388916
12	88.2049732208252	pulse	0	t		10.0	2.5	/experiments/knapen_AOT/AOT_stimuli/rescaled_final/1557_rv.mp4	0.0	104.1480884552002	
12	89.0298764705658	movie	1		268	10.0	2.5	/experiments/knapen_AOT/AOT_stimuli/rescaled_final/1557_rv.mp4	0.0	104.9729917049408	2.4919066429138184
12	89.8033971786499	pulse	1	t		10.0	2.5	/experiments/knapen_AOT/AOT_stimuli/rescaled_final/1557_rv.mp4	0.0	105.7465124130249	
12	91.40499782562256	pulse	1	t		10.0	2.5	/experiments/knapen_AOT/AOT_stimuli/rescaled_final/1557_rv.mp4	0.0	107.34811305999756	
12	91.52178311347961	fix_post	2		12	10.0	2.5	/experiments/knapen_AOT/AOT_stimuli/rescaled_final/1557_rv.mp4	0.0	107.46489834785461	0.10001707077026367
13	91.62180018424988	fix_pre	0		120	11.0	2.5	/experiments/knapen_AOT/AOT_stimuli/rescaled_final/1877_rv.mp4	0.0	107.56491541862488	1.0085031986236572
13	92.63030338287354	movie	1		274	11.0	2.5	/experiments/knapen_AOT/AOT_stimuli/rescaled_final/1877_rv.mp4	0.0	108.57341861724854	2.492082357406616
13	93.00354337692261	pulse	1	t		11.0	2.5	/experiments/knapen_AOT/AOT_stimuli/rescaled_final/1877_rv.mp4	0.0	108.94665861129761	
13	94.60384893417358	pulse	1	t		11.0	2.5	/experiments/knapen_AOT/AOT_stimuli/rescaled_final/1877_rv.mp4	0.0	110.54696416854858	
13	95.12238574028015	fix_post	2		12	11.0	2.5	/experiments/knapen_AOT/AOT_stimuli/rescaled_final/1877_rv.mp4	0.0	111.06550097465515	0.09996795654296875
14	95.22235369682312	fix_pre	0		119	12.0	2.5	/experiments/knapen_AOT/AOT_stimuli/rescaled_final/0739_fw.mp4	0.0	111.16546893119812	1.0003457069396973
14	96.20610117912292	pulse	0	t		12.0	2.5	/experiments/knapen_AOT/AOT_stimuli/rescaled_final/0739_fw.mp4	0.0	112.14921641349792	
14	96.22269940376282	movie	1		275	12.0	2.5	/experiments/knapen_AOT/AOT_stimuli/rescaled_final/0739_fw.mp4	0.0	112.16581463813782	2.5001676082611084
14	97.80506944656372	pulse	1	t		12.0	2.5	/experiments/knapen_AOT/AOT_stimuli/rescaled_final/0739_fw.mp4	0.0	113.74818468093872	
14	98.72286701202393	fix_post	2		12	12.0	2.5	/experiments/knapen_AOT/AOT_stimuli/rescaled_final/0739_fw.mp4	0.0	114.66598224639893	0.10001397132873535
15	98.82288098335266	fix_pre	0		120	13.0	2.5	/experiments/knapen_AOT/AOT_stimuli/rescaled_final/2027_fw.mp4	0.0	114.76599621772766	1.008568525314331
15	99.4065489768982	pulse	0	t		13.0	2.5	/experiments/knapen_AOT/AOT_stimuli/rescaled_final/2027_fw.mp4	0.0	115.3496642112732	
15	99.83144950866699	movie	1		266	13.0	2.5	/experiments/knapen_AOT/AOT_stimuli/rescaled_final/2027_fw.mp4	0.0	115.77456474304199	2.4919679164886475
15	101.00510382652283	pulse	1	t		13.0	2.5	/experiments/knapen_AOT/AOT_stimuli/rescaled_final/2027_fw.mp4	0.0	116.94821906089783	
15	102.32341742515564	fix_post	2		12	13.0	2.5	/experiments/knapen_AOT/AOT_stimuli/rescaled_final/2027_fw.mp4	0.0	118.26653265953064	0.10008740425109863
16	102.42350482940674	fix_pre	0		120	14.0	2.5	blank	1.0	118.36662006378174	1.0000648498535156
16	102.60702061653137	pulse	0	t		14.0	2.5	blank	1.0	118.55013585090637	
16	103.42356967926025	movie	1		300	14.0	2.5	blank	1.0	119.36668491363525	2.50036358833313
16	104.20729804039001	pulse	1	t		14.0	2.5	blank	1.0	120.15041327476501	
16	105.80750060081482	pulse	1	t		14.0	2.5	blank	1.0	121.75061583518982	
16	105.92393326759338	fix_post	2		12	14.0	2.5	blank	1.0	121.86704850196838	0.10003924369812012
17	106.0239725112915	fix_pre	0		120	15.0	2.5	/experiments/knapen_AOT/AOT_stimuli/rescaled_final/1721_rv.mp4	0.0	121.9670877456665	1.0085406303405762
17	107.03251314163208	movie	1		273	15.0	2.5	/experiments/knapen_AOT/AOT_stimuli/rescaled_final/1721_rv.mp4	0.0	122.97562837600708	2.5003209114074707
17	107.40784287452698	pulse	1	t		15.0	2.5	/experiments/knapen_AOT/AOT_stimuli/rescaled_final/1721_rv.mp4	0.0	123.35095810890198	
17	109.00606560707092	pulse	1	t		15.0	2.5	/experiments/knapen_AOT/AOT_stimuli/rescaled_final/1721_rv.mp4	0.0	124.94918084144592	
17	109.53283405303955	fix_post	2		11	15.0	2.5	/experiments/knapen_AOT/AOT_stimuli/rescaled_final/1721_rv.mp4	0.0	125.47594928741455	0.0916588306427002
18	109.62449288368225	fix_pre	0		119	16.0	2.5	/experiments/knapen_AOT/AOT_stimuli/rescaled_final/0441_fw.mp4	0.0	125.56760811805725	1.008526086807251
18	110.60832929611206	pulse	0	t		16.0	2.5	/experiments/knapen_AOT/AOT_stimuli/rescaled_final/0441_fw.mp4	0.0	126.55144453048706	
18	110.6330189704895	movie	1		273	16.0	2.5	/experiments/knapen_AOT/AOT_stimuli/rescaled_final/0441_fw.mp4	0.0	126.5761342048645	2.492058277130127
18	112.20694518089294	pulse	1	t		16.0	2.5	/experiments/knapen_AOT/AOT_stimuli/rescaled_final/0441_fw.mp4	0.0	128.15006041526794	
18	113.12507724761963	fix_post	2		12	16.0	2.5	/experiments/knapen_AOT/AOT_stimuli/rescaled_final/0441_fw.mp4	0.0	129.06819248199463	0.10001921653747559
19	113.2250964641571	fix_pre	0		120	17.0	2.5	/experiments/knapen_AOT/AOT_stimuli/rescaled_final/0164_fw.mp4	0.0	129.1682116985321	1.008453369140625
19	113.80880045890808	pulse	0	t		17.0	2.5	/experiments/knapen_AOT/AOT_stimuli/rescaled_final/0164_fw.mp4	0.0	129.75191569328308	
19	114.23354983329773	movie	1		269	17.0	2.5	/experiments/knapen_AOT/AOT_stimuli/rescaled_final/0164_fw.mp4	0.0	130.17666506767273	2.4920010566711426
19	115.40908241271973	pulse	1	t		17.0	2.5	/experiments/knapen_AOT/AOT_stimuli/rescaled_final/0164_fw.mp4	0.0	131.35219764709473	
19	116.72555088996887	fix_post	2		12	17.0	2.5	/experiments/knapen_AOT/AOT_stimuli/rescaled_final/0164_fw.mp4	0.0	132.66866612434387	0.10003876686096191
20	116.82558965682983	fix_pre	0		120	18.0	2.5	/experiments/knapen_AOT/AOT_stimuli/rescaled_final/1869_fw.mp4	0.0	132.76870489120483	1.0085527896881104
20	117.00113248825073	pulse	0	t		18.0	2.5	/experiments/knapen_AOT/AOT_stimuli/rescaled_final/1869_fw.mp4	0.0	132.94424772262573	
20	117.83414244651794	movie	1		273	18.0	2.5	/experiments/knapen_AOT/AOT_stimuli/rescaled_final/1869_fw.mp4	0.0	133.77725768089294	2.4919955730438232
20	118.60116243362427	pulse	1	t		18.0	2.5	/experiments/knapen_AOT/AOT_stimuli/rescaled_final/1869_fw.mp4	0.0	134.54427766799927	
20	120.20159816741943	pulse	1	t		18.0	2.5	/experiments/knapen_AOT/AOT_stimuli/rescaled_final/1869_fw.mp4	0.0	136.14471340179443	
20	120.32613801956177	fix_post	2		12	18.0	2.5	/experiments/knapen_AOT/AOT_stimuli/rescaled_final/1869_fw.mp4	0.0	136.26925325393677	0.10005044937133789
21	120.4261884689331	fix_pre	0		120	19.0	2.5	/experiments/knapen_AOT/AOT_stimuli/rescaled_final/1247_rv.mp4	0.0	136.3693037033081	1.0084433555603027
21	121.43463182449341	movie	1		265	19.0	2.5	/experiments/knapen_AOT/AOT_stimuli/rescaled_final/1247_rv.mp4	0.0	137.3777470588684	2.4920248985290527
21	121.80138754844666	pulse	1	t		19.0	2.5	/experiments/knapen_AOT/AOT_stimuli/rescaled_final/1247_rv.mp4	0.0	137.74450278282166	
21	123.4017584323883	pulse	1	t		19.0	2.5	/experiments/knapen_AOT/AOT_stimuli/rescaled_final/1247_rv.mp4	0.0	139.3448736667633	
21	123.92665672302246	fix_post	2		12	19.0	2.5	/experiments/knapen_AOT/AOT_stimuli/rescaled_final/1247_rv.mp4	0.0	139.86977195739746	0.10002613067626953
22	124.02668285369873	fix_pre	0		118	20.0	2.5	blank	1.0	139.96979808807373	0.983457088470459
22	125.00203824043274	pulse	0	t		20.0	2.5	blank	1.0	140.94515347480774	
22	125.01013994216919	movie	1		301	20.0	2.5	blank	1.0	140.9532551765442	2.508718490600586
22	126.60226678848267	pulse	1	t		20.0	2.5	blank	1.0	142.54538202285767	
22	127.51885843276978	fix_post	2		12	20.0	2.5	blank	1.0	143.46197366714478	0.10003972053527832
23	127.61889815330505	fix_pre	0		120	21.0	2.5	/experiments/knapen_AOT/AOT_stimuli/rescaled_final/1487_fw.mp4	0.0	143.56201338768005	1.0085365772247314
23	128.20252799987793	pulse	0	t		21.0	2.5	/experiments/knapen_AOT/AOT_stimuli/rescaled_final/1487_fw.mp4	0.0	144.14564323425293	
23	128.62743473052979	movie	1		273	21.0	2.5	/experiments/knapen_AOT/AOT_stimuli/rescaled_final/1487_fw.mp4	0.0	144.57054996490479	2.491973876953125
23	129.80274605751038	pulse	1	t		21.0	2.5	/experiments/knapen_AOT/AOT_stimuli/rescaled_final/1487_fw.mp4	0.0	145.74586129188538	
23	131.1194086074829	fix_post	2		12	21.0	2.5	/experiments/knapen_AOT/AOT_stimuli/rescaled_final/1487_fw.mp4	0.0	147.0625238418579	0.10007309913635254
24	131.21948170661926	fix_pre	0		120	22.0	2.5	/experiments/knapen_AOT/AOT_stimuli/rescaled_final/0920_rv.mp4	0.0	147.16259694099426	1.0085530281066895
24	131.40330505371094	pulse	0	t		22.0	2.5	/experiments/knapen_AOT/AOT_stimuli/rescaled_final/0920_rv.mp4	0.0	147.34642028808594	
24	132.22803473472595	movie	1		269	22.0	2.5	/experiments/knapen_AOT/AOT_stimuli/rescaled_final/0920_rv.mp4	0.0	148.17114996910095	2.4918999671936035
24	133.00093483924866	pulse	1	t		22.0	2.5	/experiments/knapen_AOT/AOT_stimuli/rescaled_final/0920_rv.mp4	0.0	148.94405007362366	
24	134.6014280319214	pulse	1	t		22.0	2.5	/experiments/knapen_AOT/AOT_stimuli/rescaled_final/0920_rv.mp4	0.0	150.5445432662964	
24	134.71993470191956	fix_post	2		12	22.0	2.5	/experiments/knapen_AOT/AOT_stimuli/rescaled_final/0920_rv.mp4	0.0	150.66304993629456	0.10010480880737305
25	134.82003951072693	fix_pre	0		120	23.0	2.5	/experiments/knapen_AOT/AOT_stimuli/rescaled_final/0801_fw.mp4	0.0	150.76315474510193	1.0085043907165527
25	135.82854390144348	movie	1		269	23.0	2.5	/experiments/knapen_AOT/AOT_stimuli/rescaled_final/0801_fw.mp4	0.0	151.77165913581848	2.4919281005859375
25	136.2027621269226	pulse	1	t		23.0	2.5	/experiments/knapen_AOT/AOT_stimuli/rescaled_final/0801_fw.mp4	0.0	152.1458773612976	
25	137.80196166038513	pulse	1	t		23.0	2.5	/experiments/knapen_AOT/AOT_stimuli/rescaled_final/0801_fw.mp4	0.0	153.74507689476013	
25	138.32047200202942	fix_post	2		12	23.0	2.5	/experiments/knapen_AOT/AOT_stimuli/rescaled_final/0801_fw.mp4	0.0	154.26358723640442	0.10002303123474121
26	138.42049503326416	fix_pre	0		119	24.0	2.5	/experiments/knapen_AOT/AOT_stimuli/rescaled_final/1039_rv.mp4	0.0	154.36361026763916	1.0001614093780518
26	139.40419363975525	pulse	0	t		24.0	2.5	/experiments/knapen_AOT/AOT_stimuli/rescaled_final/1039_rv.mp4	0.0	155.34730887413025	
26	139.4206564426422	movie	1		272	24.0	2.5	/experiments/knapen_AOT/AOT_stimuli/rescaled_final/1039_rv.mp4	0.0	155.3637716770172	2.500396728515625
26	141.00267004966736	pulse	1	t		24.0	2.5	/experiments/knapen_AOT/AOT_stimuli/rescaled_final/1039_rv.mp4	0.0	156.94578528404236	
26	141.92105317115784	fix_post	2		12	24.0	2.5	/experiments/knapen_AOT/AOT_stimuli/rescaled_final/1039_rv.mp4	0.0	157.86416840553284	0.09998750686645508
27	142.0210406780243	fix_pre	0		120	25.0	2.5	/experiments/knapen_AOT/AOT_stimuli/rescaled_final/1902_fw.mp4	0.0	157.9641559123993	1.008509635925293
27	142.6047487258911	pulse	0	t		25.0	2.5	/experiments/knapen_AOT/AOT_stimuli/rescaled_final/1902_fw.mp4	0.0	158.5478639602661	
27	143.02955031394958	movie	1		259	25.0	2.5	/experiments/knapen_AOT/AOT_stimuli/rescaled_final/1902_fw.mp4	0.0	158.97266554832458	2.4920315742492676
27	144.20511031150818	pulse	1	t		25.0	2.5	/experiments/knapen_AOT/AOT_stimuli/rescaled_final/1902_fw.mp4	0.0	160.14822554588318	
27	145.52158188819885	fix_post	2		12	25.0	2.5	/experiments/knapen_AOT/AOT_stimuli/rescaled_final/1902_fw.mp4	0.0	161.46469712257385	0.10003042221069336
28	145.62161231040955	fix_pre	0		120	26.0	2.5	blank	1.0	161.56472754478455	1.0001139640808105
28	145.8051896095276	pulse	0	t		26.0	2.5	blank	1.0	161.7483048439026	
28	146.62172627449036	movie	1		300	26.0	2.5	blank	1.0	162.56484150886536	2.5003745555877686
28	147.40542268753052	pulse	1	t		26.0	2.5	blank	1.0	163.34853792190552	
28	149.00593662261963	pulse	1	t		26.0	2.5	blank	1.0	164.94905185699463	
28	149.12210083007812	fix_post	2		12	26.0	2.5	blank	1.0	165.06521606445312	0.09999775886535645
29	149.22209858894348	fix_pre	0		120	27.0	2.5	/experiments/knapen_AOT/AOT_stimuli/rescaled_final/1566_rv.mp4	0.0	165.16521382331848	1.0085620880126953
29	150.23066067695618	movie	1		269	27.0	2.5	/experiments/knapen_AOT/AOT_stimuli/rescaled_final/1566_rv.mp4	0.0	166.17377591133118	2.4919886589050293
29	150.60576748847961	pulse	1	t		27.0	2.5	/experiments/knapen_AOT/AOT_stimuli/rescaled_final/1566_rv.mp4	0.0	166.54888272285461	
29	152.20598816871643	pulse	1	t		27.0	2.5	/experiments/knapen_AOT/AOT_stimuli/rescaled_final/1566_rv.mp4	0.0	168.14910340309143	
29	152.7226493358612	fix_post	2		12	27.0	2.5	/experiments/knapen_AOT/AOT_stimuli/rescaled_final/1566_rv.mp4	0.0	168.6657645702362	0.10003995895385742
30	152.82268929481506	fix_pre	0		119	28.0	2.5	/experiments/knapen_AOT/AOT_stimuli/rescaled_final/1793_rv.mp4	0.0	168.76580452919006	1.0085265636444092
30	153.80636954307556	pulse	0	t		28.0	2.5	/experiments/knapen_AOT/AOT_stimuli/rescaled_final/1793_rv.mp4	0.0	169.74948477745056	
30	153.83121585845947	movie	1		274	28.0	2.5	/experiments/knapen_AOT/AOT_stimuli/rescaled_final/1793_rv.mp4	0.0	169.77433109283447	2.4919815063476562
30	155.40511012077332	pulse	1	t		28.0	2.5	/experiments/knapen_AOT/AOT_stimuli/rescaled_final/1793_rv.mp4	0.0	171.34822535514832	
30	156.32319736480713	fix_post	2		12	28.0	2.5	/experiments/knapen_AOT/AOT_stimuli/rescaled_final/1793_rv.mp4	0.0	172.26631259918213	0.1000211238861084
31	156.42321848869324	fix_pre	0		120	29.0	2.5	/experiments/knapen_AOT/AOT_stimuli/rescaled_final/1084_rv.mp4	0.0	172.36633372306824	1.0084972381591797
31	157.00682425498962	pulse	0	t		29.0	2.5	/experiments/knapen_AOT/AOT_stimuli/rescaled_final/1084_rv.mp4	0.0	172.94993948936462	
31	157.43171572685242	movie	1		274	29.0	2.5	/experiments/knapen_AOT/AOT_stimuli/rescaled_final/1084_rv.mp4	0.0	173.37483096122742	2.4920525550842285
31	158.60551834106445	pulse	1	t		29.0	2.5	/experiments/knapen_AOT/AOT_stimuli/rescaled_final/1084_rv.mp4	0.0	174.54863357543945	
31	159.92376828193665	fix_post	2		12	29.0	2.5	/experiments/knapen_AOT/AOT_stimuli/rescaled_final/1084_rv.mp4	0.0	175.86688351631165	0.10003137588500977
32	160.02379965782166	fix_pre	0		120	30.0	2.5	/experiments/knapen_AOT/AOT_stimuli/rescaled_final/0766_fw.mp4	0.0	175.96691489219666	1.0084352493286133
32	160.2072949409485	pulse	0	t		30.0	2.5	/experiments/knapen_AOT/AOT_stimuli/rescaled_final/0766_fw.mp4	0.0	176.1504101753235	
32	161.03223490715027	movie	1		279	30.0	2.5	/experiments/knapen_AOT/AOT_stimuli/rescaled_final/0766_fw.mp4	0.0	176.97535014152527	2.4921011924743652
32	161.80566811561584	pulse	1	t		30.0	2.5	/experiments/knapen_AOT/AOT_stimuli/rescaled_final/0766_fw.mp4	0.0	177.74878334999084	
32	163.40615344047546	pulse	1	t		30.0	2.5	/experiments/knapen_AOT/AOT_stimuli/rescaled_final/0766_fw.mp4	0.0	179.34926867485046	
32	163.52433609962463	fix_post	2		12	30.0	2.5	/experiments/knapen_AOT/AOT_stimuli/rescaled_final/0766_fw.mp4	0.0	179.46745133399963	0.09997391700744629
33	163.62431001663208	fix_pre	0		120	31.0	2.5	/experiments/knapen_AOT/AOT_stimuli/rescaled_final/0317_fw.mp4	0.0	179.56742525100708	1.0084798336029053
33	164.63278985023499	movie	1		276	31.0	2.5	/experiments/knapen_AOT/AOT_stimuli/rescaled_final/0317_fw.mp4	0.0	180.57590508460999	2.4920194149017334
33	165.0064287185669	pulse	1	t		31.0	2.5	/experiments/knapen_AOT/AOT_stimuli/rescaled_final/0317_fw.mp4	0.0	180.9495439529419	
33	166.60644578933716	pulse	1	t		31.0	2.5	/experiments/knapen_AOT/AOT_stimuli/rescaled_final/0317_fw.mp4	0.0	182.54956102371216	
33	167.12480926513672	fix_post	2		12	31.0	2.5	/experiments/knapen_AOT/AOT_stimuli/rescaled_final/0317_fw.mp4	0.0	183.06792449951172	0.10002660751342773
34	167.22483587265015	fix_pre	0		119	32.0	2.5	/experiments/knapen_AOT/AOT_stimuli/rescaled_final/1877_fw.mp4	0.0	183.16795110702515	1.0001254081726074
34	168.2085371017456	pulse	0	t		32.0	2.5	/experiments/knapen_AOT/AOT_stimuli/rescaled_final/1877_fw.mp4	0.0	184.1516523361206	
34	168.22496128082275	movie	1		281	32.0	2.5	/experiments/knapen_AOT/AOT_stimuli/rescaled_final/1877_fw.mp4	0.0	184.16807651519775	2.5004003047943115
34	169.80784058570862	pulse	1	t		32.0	2.5	/experiments/knapen_AOT/AOT_stimuli/rescaled_final/1877_fw.mp4	0.0	185.75095582008362	
34	170.72536158561707	fix_post	2		12	32.0	2.5	/experiments/knapen_AOT/AOT_stimuli/rescaled_final/1877_fw.mp4	0.0	186.66847681999207	0.10002946853637695
35	170.82539105415344	fix_pre	0		120	33.0	2.5	blank	1.0	186.76850628852844	1.0001404285430908
35	171.40157103538513	pulse	0	t		33.0	2.5	blank	1.0	187.34468626976013	
35	171.82553148269653	movie	1		300	33.0	2.5	blank	1.0	187.76864671707153	2.5003814697265625
35	173.00133442878723	pulse	1	t		33.0	2.5	blank	1.0	188.94444966316223	
35	174.3259129524231	fix_post	2		12	33.0	2.5	blank	1.0	190.2690281867981	0.10000753402709961
36	174.4259204864502	fix_pre	0		120	34.0	2.5	/experiments/knapen_AOT/AOT_stimuli/rescaled_final/0845_rv.mp4	0.0	190.3690357208252	1.0085117816925049
36	174.6013731956482	pulse	0	t		34.0	2.5	/experiments/knapen_AOT/AOT_stimuli/rescaled_final/0845_rv.mp4	0.0	190.5444884300232	
36	175.4344322681427	movie	1		283	34.0	2.5	/experiments/knapen_AOT/AOT_stimuli/rescaled_final/0845_rv.mp4	0.0	191.3775475025177	2.4920146465301514
36	176.2013714313507	pulse	1	t		34.0	2.5	/experiments/knapen_AOT/AOT_stimuli/rescaled_final/0845_rv.mp4	0.0	192.1444866657257	
36	177.8016607761383	pulse	1	t		34.0	2.5	/experiments/knapen_AOT/AOT_stimuli/rescaled_final/0845_rv.mp4	0.0	193.7447760105133	
36	177.92644691467285	fix_post	2		12	34.0	2.5	/experiments/knapen_AOT/AOT_stimuli/rescaled_final/0845_rv.mp4	0.0	193.86956214904785	0.10000729560852051
37	178.02645421028137	fix_pre	0		120	35.0	2.5	/experiments/knapen_AOT/AOT_stimuli/rescaled_final/1915_fw.mp4	0.0	193.96956944465637	1.0085222721099854
37	179.03497648239136	movie	1		287	35.0	2.5	/experiments/knapen_AOT/AOT_stimuli/rescaled_final/1915_fw.mp4	0.0	194.97809171676636	2.492004156112671
37	179.40143203735352	pulse	1	t		35.0	2.5	/experiments/knapen_AOT/AOT_stimuli/rescaled_final/1915_fw.mp4	0.0	195.34454727172852	
37	181.00210523605347	pulse	1	t		35.0	2.5	/experiments/knapen_AOT/AOT_stimuli/rescaled_final/1915_fw.mp4	0.0	196.94522047042847	
37	181.52698063850403	fix_post	2		12	35.0	2.5	/experiments/knapen_AOT/AOT_stimuli/rescaled_final/1915_fw.mp4	0.0	197.47009587287903	0.1000220775604248
38	181.62700271606445	fix_pre	0		118	36.0	2.5	/experiments/knapen_AOT/AOT_stimuli/rescaled_final/0926_fw.mp4	0.0	197.57011795043945	0.9918241500854492
38	182.60237741470337	pulse	0	t		36.0	2.5	/experiments/knapen_AOT/AOT_stimuli/rescaled_final/0926_fw.mp4	0.0	198.54549264907837	
38	182.6188268661499	movie	1		296	36.0	2.5	/experiments/knapen_AOT/AOT_stimuli/rescaled_final/0926_fw.mp4	0.0	198.5619421005249	2.500408172607422
38	184.2026286125183	pulse	1	t		36.0	2.5	/experiments/knapen_AOT/AOT_stimuli/rescaled_final/0926_fw.mp4	0.0	200.1457438468933	
38	185.11923503875732	fix_post	2		12	36.0	2.5	/experiments/knapen_AOT/AOT_stimuli/rescaled_final/0926_fw.mp4	0.0	201.06235027313232	0.0999901294708252
39	185.21922516822815	fix_pre	0		120	37.0	2.5	/experiments/knapen_AOT/AOT_stimuli/rescaled_final/0395_rv.mp4	0.0	201.16234040260315	1.0084748268127441
39	185.80285668373108	pulse	0	t		37.0	2.5	/experiments/knapen_AOT/AOT_stimuli/rescaled_final/0395_rv.mp4	0.0	201.74597191810608	
39	186.2276999950409	movie	1		278	37.0	2.5	/experiments/knapen_AOT/AOT_stimuli/rescaled_final/0395_rv.mp4	0.0	202.1708152294159	2.4920382499694824
39	187.40314054489136	pulse	1	t		37.0	2.5	/experiments/knapen_AOT/AOT_stimuli/rescaled_final/0395_rv.mp4	0.0	203.34625577926636	
39	188.71973824501038	fix_post	2		12	37.0	2.5	/experiments/knapen_AOT/AOT_stimuli/rescaled_final/0395_rv.mp4	0.0	204.66285347938538	0.10001492500305176
40	188.81975317001343	fix_pre	0		120	38.0	2.5	/experiments/knapen_AOT/AOT_stimuli/rescaled_final/0870_fw.mp4	0.0	204.76286840438843	1.0084829330444336
40	189.003315448761	pulse	0	t		38.0	2.5	/experiments/knapen_AOT/AOT_stimuli/rescaled_final/0870_fw.mp4	0.0	204.946430683136	
40	189.82823610305786	movie	1		267	38.0	2.5	/experiments/knapen_AOT/AOT_stimuli/rescaled_final/0870_fw.mp4	0.0	205.77135133743286	2.4920947551727295
40	190.60183882713318	pulse	1	t		38.0	2.5	/experiments/knapen_AOT/AOT_stimuli/rescaled_final/0870_fw.mp4	0.0	206.54495406150818	
40	192.20298099517822	pulse	1	t		38.0	2.5	/experiments/knapen_AOT/AOT_stimuli/rescaled_final/0870_fw.mp4	0.0	208.14609622955322	
40	192.3203308582306	fix_post	2		12	38.0	2.5	/experiments/knapen_AOT/AOT_stimuli/rescaled_final/0870_fw.mp4	0.0	208.2634460926056	0.0999915599822998
41	192.4203224182129	fix_pre	0		120	39.0	2.5	/experiments/knapen_AOT/AOT_stimuli/rescaled_final/0404_fw.mp4	0.0	208.3634376525879	1.0084710121154785
41	193.42879343032837	movie	1		259	39.0	2.5	/experiments/knapen_AOT/AOT_stimuli/rescaled_final/0404_fw.mp4	0.0	209.37190866470337	2.4920225143432617
41	193.80286741256714	pulse	1	t		39.0	2.5	/experiments/knapen_AOT/AOT_stimuli/rescaled_final/0404_fw.mp4	0.0	209.74598264694214	
41	195.4033281803131	pulse	1	t		39.0	2.5	/experiments/knapen_AOT/AOT_stimuli/rescaled_final/0404_fw.mp4	0.0	211.3464434146881	
41	195.92081594467163	fix_post	2		12	39.0	2.5	/experiments/knapen_AOT/AOT_stimuli/rescaled_final/0404_fw.mp4	0.0	211.86393117904663	0.10002326965332031
42	196.02083921432495	fix_pre	0		119	40.0	2.5	/experiments/knapen_AOT/AOT_stimuli/rescaled_final/0254_rv.mp4	0.0	211.96395444869995	1.0001411437988281
42	197.0045189857483	pulse	0	t		40.0	2.5	/experiments/knapen_AOT/AOT_stimuli/rescaled_final/0254_rv.mp4	0.0	212.9476342201233	
42	197.02098035812378	movie	1		284	40.0	2.5	/experiments/knapen_AOT/AOT_stimuli/rescaled_final/0254_rv.mp4	0.0	212.96409559249878	2.5004591941833496
42	198.603431224823	pulse	1	t		40.0	2.5	/experiments/knapen_AOT/AOT_stimuli/rescaled_final/0254_rv.mp4	0.0	214.546546459198	
42	199.52143955230713	fix_post	2		12	40.0	2.5	/experiments/knapen_AOT/AOT_stimuli/rescaled_final/0254_rv.mp4	0.0	215.46455478668213	0.09995222091674805
43	199.62139177322388	fix_pre	0		120	41.0	2.5	blank	1.0	215.56450700759888	1.0001640319824219
43	200.20498132705688	pulse	0	t		41.0	2.5	blank	1.0	216.14809656143188	
43	200.6215558052063	movie	1		300	41.0	2.5	blank	1.0	216.5646710395813	2.500335931777954
43	201.8052942752838	pulse	1	t		41.0	2.5	blank	1.0	217.7484095096588	
43	203.12189173698425	fix_post	2		12	41.0	2.5	blank	1.0	219.06500697135925	0.10003089904785156
44	203.2219226360321	fix_pre	0		120	42.0	2.5	/experiments/knapen_AOT/AOT_stimuli/rescaled_final/1509_fw.mp4	0.0	219.1650378704071	1.0085077285766602
44	203.40564489364624	pulse	0	t		42.0	2.5	/experiments/knapen_AOT/AOT_stimuli/rescaled_final/1509_fw.mp4	0.0	219.34876012802124	
44	204.23043036460876	movie	1		273	42.0	2.5	/experiments/knapen_AOT/AOT_stimuli/rescaled_final/1509_fw.mp4	0.0	220.17354559898376	2.4920103549957275
44	205.00376677513123	pulse	1	t		42.0	2.5	/experiments/knapen_AOT/AOT_stimuli/rescaled_final/1509_fw.mp4	0.0	220.94688200950623	
44	206.6048800945282	pulse	1	t		42.0	2.5	/experiments/knapen_AOT/AOT_stimuli/rescaled_final/1509_fw.mp4	0.0	222.5479953289032	
44	206.7224407196045	fix_post	2		12	42.0	2.5	/experiments/knapen_AOT/AOT_stimuli/rescaled_final/1509_fw.mp4	0.0	222.6655559539795	0.10006332397460938
45	206.8225040435791	fix_pre	0		120	43.0	2.5	/experiments/knapen_AOT/AOT_stimuli/rescaled_final/0430_fw.mp4	0.0	222.7656192779541	1.0084559917449951
45	207.8309600353241	movie	1		280	43.0	2.5	/experiments/knapen_AOT/AOT_stimuli/rescaled_final/0430_fw.mp4	0.0	223.7740752696991	2.4920308589935303
45	208.20511388778687	pulse	1	t		43.0	2.5	/experiments/knapen_AOT/AOT_stimuli/rescaled_final/0430_fw.mp4	0.0	224.14822912216187	
45	209.80410981178284	pulse	1	t		43.0	2.5	/experiments/knapen_AOT/AOT_stimuli/rescaled_final/0430_fw.mp4	0.0	225.74722504615784	
45	210.32299089431763	fix_post	2		12	43.0	2.5	/experiments/knapen_AOT/AOT_stimuli/rescaled_final/0430_fw.mp4	0.0	226.26610612869263	0.10000228881835938
46	210.422993183136	fix_pre	0		119	44.0	2.5	/experiments/knapen_AOT/AOT_stimuli/rescaled_final/2077_fw.mp4	0.0	226.366108417511	1.0002379417419434
46	211.40670108795166	pulse	0	t		44.0	2.5	/experiments/knapen_AOT/AOT_stimuli/rescaled_final/2077_fw.mp4	0.0	227.34981632232666	
46	211.42323112487793	movie	1		291	44.0	2.5	/experiments/knapen_AOT/AOT_stimuli/rescaled_final/2077_fw.mp4	0.0	227.36634635925293	2.500352382659912
46	213.00519371032715	pulse	1	t		44.0	2.5	/experiments/knapen_AOT/AOT_stimuli/rescaled_final/2077_fw.mp4	0.0	228.94830894470215	
46	213.92358350753784	fix_post	2		12	44.0	2.5	/experiments/knapen_AOT/AOT_stimuli/rescaled_final/2077_fw.mp4	0.0	229.86669874191284	0.09997940063476562
47	214.0235629081726	fix_pre	0		120	45.0	2.5	/experiments/knapen_AOT/AOT_stimuli/rescaled_final/0507_fw.mp4	0.0	229.9666781425476	1.0084803104400635
47	214.60717725753784	pulse	0	t		45.0	2.5	/experiments/knapen_AOT/AOT_stimuli/rescaled_final/0507_fw.mp4	0.0	230.55029249191284	
47	215.03204321861267	movie	1		280	45.0	2.5	/experiments/knapen_AOT/AOT_stimuli/rescaled_final/0507_fw.mp4	0.0	230.97515845298767	2.4920828342437744
47	216.20530891418457	pulse	1	t		45.0	2.5	/experiments/knapen_AOT/AOT_stimuli/rescaled_final/0507_fw.mp4	0.0	232.14842414855957	
47	217.52412605285645	fix_post	2		12	45.0	2.5	/experiments/knapen_AOT/AOT_stimuli/rescaled_final/0507_fw.mp4	0.0	233.46724128723145	0.09995198249816895
48	217.62407803535461	fix_pre	0		120	46.0	2.5	/experiments/knapen_AOT/AOT_stimuli/rescaled_final/0108_fw.mp4	0.0	233.56719326972961	1.0085198879241943
48	217.80763387680054	pulse	0	t		46.0	2.5	/experiments/knapen_AOT/AOT_stimuli/rescaled_final/0108_fw.mp4	0.0	233.75074911117554	
48	218.6325979232788	movie	1		266	46.0	2.5	/experiments/knapen_AOT/AOT_stimuli/rescaled_final/0108_fw.mp4	0.0	234.5757131576538	2.492013931274414
48	219.40608620643616	pulse	1	t		46.0	2.5	/experiments/knapen_AOT/AOT_stimuli/rescaled_final/0108_fw.mp4	0.0	235.34920144081116	
48	221.0063078403473	pulse	1	t		46.0	2.5	/experiments/knapen_AOT/AOT_stimuli/rescaled_final/0108_fw.mp4	0.0	236.9494230747223	
48	221.12461185455322	fix_post	2		12	46.0	2.5	/experiments/knapen_AOT/AOT_stimuli/rescaled_final/0108_fw.mp4	0.0	237.06772708892822	0.10016202926635742
49	221.22477388381958	fix_pre	0		104	47.0	2.5	/experiments/knapen_AOT/AOT_stimuli/rescaled_final/0690_fw.mp4	0.0	237.16788911819458	1.0083584785461426
49	222.23313236236572	movie	1		271	47.0	2.5	/experiments/knapen_AOT/AOT_stimuli/rescaled_final/0690_fw.mp4	0.0	238.17624759674072	2.492044448852539
49	222.6090443134308	pulse	1	t		47.0	2.5	/experiments/knapen_AOT/AOT_stimuli/rescaled_final/0690_fw.mp4	0.0	238.5521595478058	
49	224.20126485824585	pulse	1	t		47.0	2.5	/experiments/knapen_AOT/AOT_stimuli/rescaled_final/0690_fw.mp4	0.0	240.14438009262085	
49	224.72517681121826	fix_post	2		12	47.0	2.5	/experiments/knapen_AOT/AOT_stimuli/rescaled_final/0690_fw.mp4	0.0	240.66829204559326	0.1000058650970459
50	224.8251826763153	fix_pre	0		118	48.0	2.5	blank	1.0	240.7682979106903	0.9834198951721191
50	225.80075335502625	pulse	0	t		48.0	2.5	blank	1.0	241.74386858940125	
50	225.80860257148743	movie	1		301	48.0	2.5	blank	1.0	241.75171780586243	2.508780002593994
50	227.40117263793945	pulse	1	t		48.0	2.5	blank	1.0	243.34428787231445	
50	228.31738257408142	fix_post	2		12	48.0	2.5	blank	1.0	244.26049780845642	0.10003328323364258
51	228.41741585731506	fix_pre	0		120	49.0	2.5	/experiments/knapen_AOT/AOT_stimuli/rescaled_final/1862_rv.mp4	0.0	244.36053109169006	1.008434772491455
51	229.0010426044464	pulse	0	t		49.0	2.5	/experiments/knapen_AOT/AOT_stimuli/rescaled_final/1862_rv.mp4	0.0	244.9441578388214	
51	229.42585062980652	movie	1		286	49.0	2.5	/experiments/knapen_AOT/AOT_stimuli/rescaled_final/1862_rv.mp4	0.0	245.36896586418152	2.492072820663452
51	230.60147428512573	pulse	1	t		49.0	2.5	/experiments/knapen_AOT/AOT_stimuli/rescaled_final/1862_rv.mp4	0.0	246.54458951950073	
51	231.91792345046997	fix_post	2		12	49.0	2.5	/experiments/knapen_AOT/AOT_stimuli/rescaled_final/1862_rv.mp4	0.0	247.86103868484497	0.09999823570251465
52	232.01792168617249	fix_pre	0		120	50.0	2.5	/experiments/knapen_AOT/AOT_stimuli/rescaled_final/0766_rv.mp4	0.0	247.96103692054749	1.0084795951843262
52	232.20152473449707	pulse	0	t		50.0	2.5	/experiments/knapen_AOT/AOT_stimuli/rescaled_final/0766_rv.mp4	0.0	248.14463996887207	
52	233.0264012813568	movie	1		283	50.0	2.5	/experiments/knapen_AOT/AOT_stimuli/rescaled_final/0766_rv.mp4	0.0	248.9695165157318	2.4920310974121094
52	233.80178570747375	pulse	1	t		50.0	2.5	/experiments/knapen_AOT/AOT_stimuli/rescaled_final/0766_rv.mp4	0.0	249.74490094184875	
52	235.40194034576416	pulse	1	t		50.0	2.5	/experiments/knapen_AOT/AOT_stimuli/rescaled_final/0766_rv.mp4	0.0	251.34505558013916	
52	235.51843237876892	fix_post	2		12	50.0	2.5	/experiments/knapen_AOT/AOT_stimuli/rescaled_final/0766_rv.mp4	0.0	251.46154761314392	0.10004949569702148
53	235.61848187446594	fix_pre	0		120	51.0	2.5	/experiments/knapen_AOT/AOT_stimuli/rescaled_final/0801_rv.mp4	0.0	251.56159710884094	1.008451223373413
53	236.62693309783936	movie	1		272	51.0	2.5	/experiments/knapen_AOT/AOT_stimuli/rescaled_final/0801_rv.mp4	0.0	252.57004833221436	2.4921019077301025
53	237.0024642944336	pulse	1	t		51.0	2.5	/experiments/knapen_AOT/AOT_stimuli/rescaled_final/0801_rv.mp4	0.0	252.9455795288086	
53	238.60255002975464	pulse	1	t		51.0	2.5	/experiments/knapen_AOT/AOT_stimuli/rescaled_final/0801_rv.mp4	0.0	254.54566526412964	
53	239.11903500556946	fix_post	2		12	51.0	2.5	/experiments/knapen_AOT/AOT_stimuli/rescaled_final/0801_rv.mp4	0.0	255.06215023994446	0.09998679161071777
54	239.21902179718018	fix_pre	0		119	52.0	2.5	/experiments/knapen_AOT/AOT_stimuli/rescaled_final/0621_rv.mp4	0.0	255.16213703155518	1.000157356262207
54	240.2027564048767	pulse	0	t		52.0	2.5	/experiments/knapen_AOT/AOT_stimuli/rescaled_final/0621_rv.mp4	0.0	256.1458716392517	
54	240.21917915344238	movie	1		275	52.0	2.5	/experiments/knapen_AOT/AOT_stimuli/rescaled_final/0621_rv.mp4	0.0	256.1622943878174	2.5003368854522705
54	241.8019802570343	pulse	1	t		52.0	2.5	/experiments/knapen_AOT/AOT_stimuli/rescaled_final/0621_rv.mp4	0.0	257.7450954914093	
54	242.71951603889465	fix_post	2		12	52.0	2.5	/experiments/knapen_AOT/AOT_stimuli/rescaled_final/0621_rv.mp4	0.0	258.66263127326965	0.10010433197021484
55	242.81962037086487	fix_pre	0		120	53.0	2.5	/experiments/knapen_AOT/AOT_stimuli/rescaled_final/2061_rv.mp4	0.0	258.76273560523987	1.0084292888641357
55	243.40335297584534	pulse	0	t		53.0	2.5	/experiments/knapen_AOT/AOT_stimuli/rescaled_final/2061_rv.mp4	0.0	259.34646821022034	
55	243.828049659729	movie	1		277	53.0	2.5	/experiments/knapen_AOT/AOT_stimuli/rescaled_final/2061_rv.mp4	0.0	259.771164894104	2.5004289150238037
55	245.00249767303467	pulse	1	t		53.0	2.5	/experiments/knapen_AOT/AOT_stimuli/rescaled_final/2061_rv.mp4	0.0	260.94561290740967	
55	246.3284785747528	fix_post	2		11	53.0	2.5	/experiments/knapen_AOT/AOT_stimuli/rescaled_final/2061_rv.mp4	0.0	262.2715938091278	0.09161114692687988
56	246.4200897216797	fix_pre	0		120	54.0	2.5	/experiments/knapen_AOT/AOT_stimuli/rescaled_final/1371_rv.mp4	0.0	262.3632049560547	1.0085115432739258
56	246.60365319252014	pulse	0	t		54.0	2.5	/experiments/knapen_AOT/AOT_stimuli/rescaled_final/1371_rv.mp4	0.0	262.54676842689514	
56	247.4286012649536	movie	1		273	54.0	2.5	/experiments/knapen_AOT/AOT_stimuli/rescaled_final/1371_rv.mp4	0.0	263.3717164993286	2.491999626159668
56	248.20384454727173	pulse	1	t		54.0	2.5	/experiments/knapen_AOT/AOT_stimuli/rescaled_final/1371_rv.mp4	0.0	264.14695978164673	
56	249.80199122428894	pulse	1	t		54.0	2.5	/experiments/knapen_AOT/AOT_stimuli/rescaled_final/1371_rv.mp4	0.0	265.74510645866394	
56	249.92060089111328	fix_post	2		12	54.0	2.5	/experiments/knapen_AOT/AOT_stimuli/rescaled_final/1371_rv.mp4	0.0	265.8637161254883	0.1000373363494873
57	250.02063822746277	fix_pre	0		120	55.0	2.5	/experiments/knapen_AOT/AOT_stimuli/rescaled_final/2123_fw.mp4	0.0	265.96375346183777	1.0084681510925293
57	251.0291063785553	movie	1		277	55.0	2.5	/experiments/knapen_AOT/AOT_stimuli/rescaled_final/2123_fw.mp4	0.0	266.9722216129303	2.492109537124634
57	251.40383529663086	pulse	1	t		55.0	2.5	/experiments/knapen_AOT/AOT_stimuli/rescaled_final/2123_fw.mp4	0.0	267.34695053100586	
57	253.00271272659302	pulse	1	t		55.0	2.5	/experiments/knapen_AOT/AOT_stimuli/rescaled_final/2123_fw.mp4	0.0	268.945827960968	
57	253.52121591567993	fix_post	2		12	55.0	2.5	/experiments/knapen_AOT/AOT_stimuli/rescaled_final/2123_fw.mp4	0.0	269.46433115005493	0.0999612808227539
58	253.62117719650269	fix_pre	0		119	56.0	2.5	blank	1.0	269.5642924308777	0.991795539855957
58	254.6052210330963	pulse	0	t		56.0	2.5	blank	1.0	270.5483362674713	
58	254.61297273635864	movie	1		301	56.0	2.5	blank	1.0	270.55608797073364	2.5087099075317383
58	256.2050681114197	pulse	1	t		56.0	2.5	blank	1.0	272.1481833457947	
58	257.1216826438904	fix_post	2		12	56.0	2.5	blank	1.0	273.0647978782654	0.10003542900085449
59	257.22171807289124	fix_pre	0		120	57.0	2.5	/experiments/knapen_AOT/AOT_stimuli/rescaled_final/0367_fw.mp4	0.0	273.16483330726624	1.008479118347168
59	257.80526995658875	pulse	0	t		57.0	2.5	/experiments/knapen_AOT/AOT_stimuli/rescaled_final/0367_fw.mp4	0.0	273.74838519096375	
59	258.2301971912384	movie	1		274	57.0	2.5	/experiments/knapen_AOT/AOT_stimuli/rescaled_final/0367_fw.mp4	0.0	274.1733124256134	2.4921648502349854
59	259.4039590358734	pulse	1	t		57.0	2.5	/experiments/knapen_AOT/AOT_stimuli/rescaled_final/0367_fw.mp4	0.0	275.3470742702484	
59	260.7223620414734	fix_post	2		12	57.0	2.5	/experiments/knapen_AOT/AOT_stimuli/rescaled_final/0367_fw.mp4	0.0	276.6654772758484	0.0999135971069336
60	260.8222756385803	fix_pre	0		120	58.0	2.5	/experiments/knapen_AOT/AOT_stimuli/rescaled_final/0105_rv.mp4	0.0	276.7653908729553	1.0084989070892334
60	261.005841255188	pulse	0	t		58.0	2.5	/experiments/knapen_AOT/AOT_stimuli/rescaled_final/0105_rv.mp4	0.0	276.948956489563	
60	261.83077454566956	movie	1		265	58.0	2.5	/experiments/knapen_AOT/AOT_stimuli/rescaled_final/0105_rv.mp4	0.0	277.77388978004456	2.4919891357421875
60	262.60450196266174	pulse	1	t		58.0	2.5	/experiments/knapen_AOT/AOT_stimuli/rescaled_final/0105_rv.mp4	0.0	278.54761719703674	
60	264.2041389942169	pulse	1	t		58.0	2.5	/experiments/knapen_AOT/AOT_stimuli/rescaled_final/0105_rv.mp4	0.0	280.1472542285919	
60	264.32276368141174	fix_post	2		12	58.0	2.5	/experiments/knapen_AOT/AOT_stimuli/rescaled_final/0105_rv.mp4	0.0	280.26587891578674	0.1000206470489502
61	264.4227843284607	fix_pre	0		120	59.0	2.5	/experiments/knapen_AOT/AOT_stimuli/rescaled_final/2010_rv.mp4	0.0	280.3658995628357	1.0085077285766602
61	265.43129205703735	movie	1		275	59.0	2.5	/experiments/knapen_AOT/AOT_stimuli/rescaled_final/2010_rv.mp4	0.0	281.37440729141235	2.4920811653137207
61	265.8066568374634	pulse	1	t		59.0	2.5	/experiments/knapen_AOT/AOT_stimuli/rescaled_final/2010_rv.mp4	0.0	281.7497720718384	
61	267.40474343299866	pulse	1	t		59.0	2.5	/experiments/knapen_AOT/AOT_stimuli/rescaled_final/2010_rv.mp4	0.0	283.34785866737366	
61	267.9233732223511	fix_post	2		12	59.0	2.5	/experiments/knapen_AOT/AOT_stimuli/rescaled_final/2010_rv.mp4	0.0	283.8664884567261	0.10005497932434082
62	268.0234282016754	fix_pre	0		119	60.0	2.5	/experiments/knapen_AOT/AOT_stimuli/rescaled_final/0072_rv.mp4	0.0	283.9665434360504	1.0001468658447266
62	269.0070505142212	pulse	0	t		60.0	2.5	/experiments/knapen_AOT/AOT_stimuli/rescaled_final/0072_rv.mp4	0.0	284.9501657485962	
62	269.02357506752014	movie	1		280	60.0	2.5	/experiments/knapen_AOT/AOT_stimuli/rescaled_final/0072_rv.mp4	0.0	284.96669030189514	2.5002827644348145
62	270.6057403087616	pulse	1	t		60.0	2.5	/experiments/knapen_AOT/AOT_stimuli/rescaled_final/0072_rv.mp4	0.0	286.5488555431366	
62	271.52385783195496	fix_post	2		12	60.0	2.5	/experiments/knapen_AOT/AOT_stimuli/rescaled_final/0072_rv.mp4	0.0	287.46697306632996	0.10007834434509277
63	271.62393617630005	fix_pre	0		120	61.0	2.5	/experiments/knapen_AOT/AOT_stimuli/rescaled_final/0697_fw.mp4	0.0	287.56705141067505	1.008502721786499
63	272.2075560092926	pulse	0	t		61.0	2.5	/experiments/knapen_AOT/AOT_stimuli/rescaled_final/0697_fw.mp4	0.0	288.1506712436676	
63	272.63243889808655	movie	1		278	61.0	2.5	/experiments/knapen_AOT/AOT_stimuli/rescaled_final/0697_fw.mp4	0.0	288.57555413246155	2.4919960498809814
63	273.8062448501587	pulse	1	t		61.0	2.5	/experiments/knapen_AOT/AOT_stimuli/rescaled_final/0697_fw.mp4	0.0	289.7493600845337	
63	275.12443494796753	fix_post	2		12	61.0	2.5	/experiments/knapen_AOT/AOT_stimuli/rescaled_final/0697_fw.mp4	0.0	291.06755018234253	0.1000206470489502
64	275.2244555950165	fix_pre	0		120	62.0	2.5	blank	1.0	291.1675708293915	1.0001330375671387
64	275.40814113616943	pulse	0	t		62.0	2.5	blank	1.0	291.35125637054443	
64	276.2245886325836	movie	1		300	62.0	2.5	blank	1.0	292.1677038669586	2.500344753265381
64	277.0085458755493	pulse	1	t		62.0	2.5	blank	1.0	292.9516611099243	
64	278.60855293273926	pulse	1	t		62.0	2.5	blank	1.0	294.55166816711426	
64	278.724933385849	fix_post	2		12	62.0	2.5	blank	1.0	294.668048620224	0.10001611709594727
65	278.82494950294495	fix_pre	0		120	63.0	2.5	/experiments/knapen_AOT/AOT_stimuli/rescaled_final/0158_rv.mp4	0.0	294.76806473731995	1.008509874343872
65	279.8334593772888	movie	1		270	63.0	2.5	/experiments/knapen_AOT/AOT_stimuli/rescaled_final/0158_rv.mp4	0.0	295.7765746116638	2.492081642150879
65	280.2089319229126	pulse	1	t		63.0	2.5	/experiments/knapen_AOT/AOT_stimuli/rescaled_final/0158_rv.mp4	0.0	296.1520471572876	
65	281.80683398246765	pulse	1	t		63.0	2.5	/experiments/knapen_AOT/AOT_stimuli/rescaled_final/0158_rv.mp4	0.0	297.74994921684265	
65	282.3255410194397	fix_post	2		12	63.0	2.5	/experiments/knapen_AOT/AOT_stimuli/rescaled_final/0158_rv.mp4	0.0	298.2686562538147	0.09999227523803711
66	282.42553329467773	fix_pre	0		118	64.0	2.5	/experiments/knapen_AOT/AOT_stimuli/rescaled_final/1471_rv.mp4	0.0	298.36864852905273	0.991826057434082
66	283.40115451812744	pulse	0	t		64.0	2.5	/experiments/knapen_AOT/AOT_stimuli/rescaled_final/1471_rv.mp4	0.0	299.34426975250244	
66	283.4173593521118	movie	1		284	64.0	2.5	/experiments/knapen_AOT/AOT_stimuli/rescaled_final/1471_rv.mp4	0.0	299.3604745864868	2.500333070755005
66	285.0097062587738	pulse	1	t		64.0	2.5	/experiments/knapen_AOT/AOT_stimuli/rescaled_final/1471_rv.mp4	0.0	300.9528214931488	
66	285.9176924228668	fix_post	2		12	64.0	2.5	/experiments/knapen_AOT/AOT_stimuli/rescaled_final/1471_rv.mp4	0.0	301.8608076572418	0.10003161430358887
67	286.0177240371704	fix_pre	0		120	65.0	2.5	/experiments/knapen_AOT/AOT_stimuli/rescaled_final/1582_fw.mp4	0.0	301.9608392715454	1.0084691047668457
67	286.6014025211334	pulse	0	t		65.0	2.5	/experiments/knapen_AOT/AOT_stimuli/rescaled_final/1582_fw.mp4	0.0	302.5445177555084	
67	287.02619314193726	movie	1		284	65.0	2.5	/experiments/knapen_AOT/AOT_stimuli/rescaled_final/1582_fw.mp4	0.0	302.96930837631226	2.4920623302459717
67	288.2016336917877	pulse	1	t		65.0	2.5	/experiments/knapen_AOT/AOT_stimuli/rescaled_final/1582_fw.mp4	0.0	304.1447489261627	
67	289.5182554721832	fix_post	2		11	65.0	2.5	/experiments/knapen_AOT/AOT_stimuli/rescaled_final/1582_fw.mp4	0.0	305.4613707065582	0.10000300407409668
68	289.6182584762573	fix_pre	0		120	66.0	2.5	/experiments/knapen_AOT/AOT_stimuli/rescaled_final/0192_fw.mp4	0.0	305.5613737106323	1.0084786415100098
68	289.80189061164856	pulse	0	t		66.0	2.5	/experiments/knapen_AOT/AOT_stimuli/rescaled_final/0192_fw.mp4	0.0	305.74500584602356	
68	290.62673711776733	movie	1		280	66.0	2.5	/experiments/knapen_AOT/AOT_stimuli/rescaled_final/0192_fw.mp4	0.0	306.56985235214233	2.492039442062378
68	291.4022047519684	pulse	1	t		66.0	2.5	/experiments/knapen_AOT/AOT_stimuli/rescaled_final/0192_fw.mp4	0.0	307.3453199863434	
68	293.0022485256195	pulse	1	t		66.0	2.5	/experiments/knapen_AOT/AOT_stimuli/rescaled_final/0192_fw.mp4	0.0	308.9453637599945	
68	293.1187765598297	fix_post	2		12	66.0	2.5	/experiments/knapen_AOT/AOT_stimuli/rescaled_final/0192_fw.mp4	0.0	309.0618917942047	0.10001444816589355
69	293.2187910079956	fix_pre	0		120	67.0	2.5	/experiments/knapen_AOT/AOT_stimuli/rescaled_final/2067_rv.mp4	0.0	309.1619062423706	1.0084755420684814
69	294.2272665500641	movie	1		268	67.0	2.5	/experiments/knapen_AOT/AOT_stimuli/rescaled_final/2067_rv.mp4	0.0	310.1703817844391	2.4920523166656494
69	294.60291838645935	pulse	1	t		67.0	2.5	/experiments/knapen_AOT/AOT_stimuli/rescaled_final/2067_rv.mp4	0.0	310.54603362083435	
69	296.2027943134308	pulse	1	t		67.0	2.5	/experiments/knapen_AOT/AOT_stimuli/rescaled_final/2067_rv.mp4	0.0	312.1459095478058	
69	296.71931886672974	fix_post	2		12	67.0	2.5	/experiments/knapen_AOT/AOT_stimuli/rescaled_final/2067_rv.mp4	0.0	312.66243410110474	0.10003376007080078
70	296.81935262680054	fix_pre	0		119	68.0	2.5	blank	1.0	312.76246786117554	0.9917807579040527
70	297.8030626773834	pulse	0	t		68.0	2.5	blank	1.0	313.7461779117584	
70	297.8111333847046	movie	1		301	68.0	2.5	blank	1.0	313.7542486190796	2.508737564086914
70	299.40327405929565	pulse	1	t		68.0	2.5	blank	1.0	315.34638929367065	
70	300.3198709487915	fix_post	2		12	68.0	2.5	blank	1.0	316.2629861831665	0.10003137588500977
71	300.4199023246765	fix_pre	0		120	69.0	2.5	/experiments/knapen_AOT/AOT_stimuli/rescaled_final/1731_fw.mp4	0.0	316.3630175590515	1.0084517002105713
71	301.0035729408264	pulse	0	t		69.0	2.5	/experiments/knapen_AOT/AOT_stimuli/rescaled_final/1731_fw.mp4	0.0	316.9466881752014	
71	301.4283540248871	movie	1		277	69.0	2.5	/experiments/knapen_AOT/AOT_stimuli/rescaled_final/1731_fw.mp4	0.0	317.3714692592621	2.492074489593506
71	302.60167932510376	pulse	1	t		69.0	2.5	/experiments/knapen_AOT/AOT_stimuli/rescaled_final/1731_fw.mp4	0.0	318.54479455947876	
71	303.9204285144806	fix_post	2		12	69.0	2.5	/experiments/knapen_AOT/AOT_stimuli/rescaled_final/1731_fw.mp4	0.0	319.8635437488556	0.10003900527954102
72	304.02046751976013	fix_pre	0		120	70.0	2.5	/experiments/knapen_AOT/AOT_stimuli/rescaled_final/0164_rv.mp4	0.0	319.96358275413513	1.0084729194641113
72	304.20410442352295	pulse	0	t		70.0	2.5	/experiments/knapen_AOT/AOT_stimuli/rescaled_final/0164_rv.mp4	0.0	320.14721965789795	
72	305.02894043922424	movie	1		281	70.0	2.5	/experiments/knapen_AOT/AOT_stimuli/rescaled_final/0164_rv.mp4	0.0	320.97205567359924	2.4919967651367188
72	305.8038640022278	pulse	1	t		70.0	2.5	/experiments/knapen_AOT/AOT_stimuli/rescaled_final/0164_rv.mp4	0.0	321.7469792366028	
72	307.4023103713989	pulse	1	t		70.0	2.5	/experiments/knapen_AOT/AOT_stimuli/rescaled_final/0164_rv.mp4	0.0	323.3454256057739	
72	307.52093720436096	fix_post	2		12	70.0	2.5	/experiments/knapen_AOT/AOT_stimuli/rescaled_final/0164_rv.mp4	0.0	323.46405243873596	0.10002970695495605
73	307.6209669113159	fix_pre	0		120	71.0	2.5	/experiments/knapen_AOT/AOT_stimuli/rescaled_final/1116_rv.mp4	0.0	323.5640821456909	1.008500576019287
73	308.6294674873352	movie	1		268	71.0	2.5	/experiments/knapen_AOT/AOT_stimuli/rescaled_final/1116_rv.mp4	0.0	324.5725827217102	2.4920427799224854
73	309.00501918792725	pulse	1	t		71.0	2.5	/experiments/knapen_AOT/AOT_stimuli/rescaled_final/1116_rv.mp4	0.0	324.94813442230225	
73	310.6026289463043	pulse	1	t		71.0	2.5	/experiments/knapen_AOT/AOT_stimuli/rescaled_final/1116_rv.mp4	0.0	326.5457441806793	
73	311.1215102672577	fix_post	2		12	71.0	2.5	/experiments/knapen_AOT/AOT_stimuli/rescaled_final/1116_rv.mp4	0.0	327.0646255016327	0.10001611709594727
74	311.22152638435364	fix_pre	0		119	72.0	2.5	/experiments/knapen_AOT/AOT_stimuli/rescaled_final/1780_fw.mp4	0.0	327.16464161872864	1.0001227855682373
74	312.20519852638245	pulse	0	t		72.0	2.5	/experiments/knapen_AOT/AOT_stimuli/rescaled_final/1780_fw.mp4	0.0	328.14831376075745	
74	312.2216491699219	movie	1		272	72.0	2.5	/experiments/knapen_AOT/AOT_stimuli/rescaled_final/1780_fw.mp4	0.0	328.1647644042969	2.5003702640533447
74	313.8047547340393	pulse	1	t		72.0	2.5	/experiments/knapen_AOT/AOT_stimuli/rescaled_final/1780_fw.mp4	0.0	329.7478699684143	
74	314.7220194339752	fix_post	2		12	72.0	2.5	/experiments/knapen_AOT/AOT_stimuli/rescaled_final/1780_fw.mp4	0.0	330.6651346683502	0.10002493858337402
75	314.8220443725586	fix_pre	0		120	73.0	2.5	/experiments/knapen_AOT/AOT_stimuli/rescaled_final/0043_fw.mp4	0.0	330.7651596069336	1.0084965229034424
75	315.4056544303894	pulse	0	t		73.0	2.5	/experiments/knapen_AOT/AOT_stimuli/rescaled_final/0043_fw.mp4	0.0	331.3487696647644	
75	315.83054089546204	movie	1		284	73.0	2.5	/experiments/knapen_AOT/AOT_stimuli/rescaled_final/0043_fw.mp4	0.0	331.77365612983704	2.492021322250366
75	317.005006313324	pulse	1	t		73.0	2.5	/experiments/knapen_AOT/AOT_stimuli/rescaled_final/0043_fw.mp4	0.0	332.948121547699	
75	318.3225622177124	fix_post	2		12	73.0	2.5	/experiments/knapen_AOT/AOT_stimuli/rescaled_final/0043_fw.mp4	0.0	334.2656774520874	0.10003352165222168
76	318.4225957393646	fix_pre	0		120	74.0	2.5	/experiments/knapen_AOT/AOT_stimuli/rescaled_final/1751_fw.mp4	0.0	334.3657109737396	1.0084853172302246
76	318.6069140434265	pulse	0	t		74.0	2.5	/experiments/knapen_AOT/AOT_stimuli/rescaled_final/1751_fw.mp4	0.0	334.5500292778015	
76	319.43108105659485	movie	1		288	74.0	2.5	/experiments/knapen_AOT/AOT_stimuli/rescaled_final/1751_fw.mp4	0.0	335.37419629096985	2.4920754432678223
76	320.2042474746704	pulse	1	t		74.0	2.5	/experiments/knapen_AOT/AOT_stimuli/rescaled_final/1751_fw.mp4	0.0	336.1473627090454	
76	321.8046133518219	pulse	1	t		74.0	2.5	/experiments/knapen_AOT/AOT_stimuli/rescaled_final/1751_fw.mp4	0.0	337.7477285861969	
76	321.92315649986267	fix_post	2		12	74.0	2.5	/experiments/knapen_AOT/AOT_stimuli/rescaled_final/1751_fw.mp4	0.0	337.86627173423767	0.09995651245117188
77	322.02311301231384	fix_pre	0		120	75.0	2.5	/experiments/knapen_AOT/AOT_stimuli/rescaled_final/0275_fw.mp4	0.0	337.96622824668884	1.0085642337799072
77	323.03167724609375	movie	1		273	75.0	2.5	/experiments/knapen_AOT/AOT_stimuli/rescaled_final/0275_fw.mp4	0.0	338.97479248046875	2.491971731185913
77	323.4069941043854	pulse	1	t		75.0	2.5	/experiments/knapen_AOT/AOT_stimuli/rescaled_final/0275_fw.mp4	0.0	339.3501093387604	
77	325.00483083724976	pulse	1	t		75.0	2.5	/experiments/knapen_AOT/AOT_stimuli/rescaled_final/0275_fw.mp4	0.0	340.94794607162476	
77	325.52364897727966	fix_post	2		12	75.0	2.5	/experiments/knapen_AOT/AOT_stimuli/rescaled_final/0275_fw.mp4	0.0	341.46676421165466	0.1000216007232666
78	325.62367057800293	fix_pre	0		119	76.0	2.5	/experiments/knapen_AOT/AOT_stimuli/rescaled_final/0326_fw.mp4	0.0	341.56678581237793	1.0001919269561768
78	326.6073069572449	pulse	0	t		76.0	2.5	/experiments/knapen_AOT/AOT_stimuli/rescaled_final/0326_fw.mp4	0.0	342.5504221916199	
78	326.6238625049591	movie	1		276	76.0	2.5	/experiments/knapen_AOT/AOT_stimuli/rescaled_final/0326_fw.mp4	0.0	342.5669777393341	2.5004355907440186
78	328.2059316635132	pulse	1	t		76.0	2.5	/experiments/knapen_AOT/AOT_stimuli/rescaled_final/0326_fw.mp4	0.0	344.1490468978882	
78	329.1242980957031	fix_post	2		12	76.0	2.5	/experiments/knapen_AOT/AOT_stimuli/rescaled_final/0326_fw.mp4	0.0	345.0674133300781	0.09990167617797852
79	329.2241997718811	fix_pre	0		120	77.0	2.5	blank	1.0	345.1673150062561	1.000159502029419
79	329.8078496456146	pulse	0	t		77.0	2.5	blank	1.0	345.7509648799896	
79	330.2243592739105	movie	1		300	77.0	2.5	blank	1.0	346.1674745082855	2.500378131866455
79	331.4080021381378	pulse	1	t		77.0	2.5	blank	1.0	347.3511173725128	
79	332.724737405777	fix_post	2		12	77.0	2.5	blank	1.0	348.667852640152	0.10008120536804199
80	332.824818611145	fix_pre	0		120	78.0	2.5	/experiments/knapen_AOT/AOT_stimuli/rescaled_final/1721_fw.mp4	0.0	348.76793384552	1.0084202289581299
80	333.00832533836365	pulse	0	t		78.0	2.5	/experiments/knapen_AOT/AOT_stimuli/rescaled_final/1721_fw.mp4	0.0	348.95144057273865	
80	333.83323884010315	movie	1		275	78.0	2.5	/experiments/knapen_AOT/AOT_stimuli/rescaled_final/1721_fw.mp4	0.0	349.77635407447815	2.492029905319214
80	334.60633659362793	pulse	1	t		78.0	2.5	/experiments/knapen_AOT/AOT_stimuli/rescaled_final/1721_fw.mp4	0.0	350.54945182800293	
80	336.2067708969116	pulse	1	t		78.0	2.5	/experiments/knapen_AOT/AOT_stimuli/rescaled_final/1721_fw.mp4	0.0	352.1498861312866	
80	336.32526874542236	fix_post	2		12	78.0	2.5	/experiments/knapen_AOT/AOT_stimuli/rescaled_final/1721_fw.mp4	0.0	352.26838397979736	0.10003185272216797
81	336.42530059814453	fix_pre	0		120	79.0	2.5	/experiments/knapen_AOT/AOT_stimuli/rescaled_final/0821_fw.mp4	0.0	352.36841583251953	1.0084924697875977
81	337.43379306793213	movie	1		276	79.0	2.5	/experiments/knapen_AOT/AOT_stimuli/rescaled_final/0821_fw.mp4	0.0	353.37690830230713	2.4920477867126465
81	337.8075830936432	pulse	1	t		79.0	2.5	/experiments/knapen_AOT/AOT_stimuli/rescaled_final/0821_fw.mp4	0.0	353.7506983280182	
81	339.40697503089905	pulse	1	t		79.0	2.5	/experiments/knapen_AOT/AOT_stimuli/rescaled_final/0821_fw.mp4	0.0	355.35009026527405	
81	339.9258408546448	fix_post	2		12	79.0	2.5	/experiments/knapen_AOT/AOT_stimuli/rescaled_final/0821_fw.mp4	0.0	355.8689560890198	0.09999489784240723
82	340.0258357524872	fix_pre	0		118	80.0	2.5	/experiments/knapen_AOT/AOT_stimuli/rescaled_final/0716_fw.mp4	0.0	355.9689509868622	0.9918811321258545
82	341.00172901153564	pulse	0	t		80.0	2.5	/experiments/knapen_AOT/AOT_stimuli/rescaled_final/0716_fw.mp4	0.0	356.94484424591064	
82	341.01771688461304	movie	1		283	80.0	2.5	/experiments/knapen_AOT/AOT_stimuli/rescaled_final/0716_fw.mp4	0.0	356.96083211898804	2.5003111362457275
82	342.60155487060547	pulse	1	t		80.0	2.5	/experiments/knapen_AOT/AOT_stimuli/rescaled_final/0716_fw.mp4	0.0	358.54467010498047	
82	343.51802802085876	fix_post	2		12	80.0	2.5	/experiments/knapen_AOT/AOT_stimuli/rescaled_final/0716_fw.mp4	0.0	359.46114325523376	0.1000368595123291
83	343.6180648803711	fix_pre	0		120	81.0	2.5	/experiments/knapen_AOT/AOT_stimuli/rescaled_final/1188_rv.mp4	0.0	359.5611801147461	1.0085556507110596
83	344.20162081718445	pulse	0	t		81.0	2.5	/experiments/knapen_AOT/AOT_stimuli/rescaled_final/1188_rv.mp4	0.0	360.14473605155945	
83	344.62662053108215	movie	1		276	81.0	2.5	/experiments/knapen_AOT/AOT_stimuli/rescaled_final/1188_rv.mp4	0.0	360.56973576545715	2.4919891357421875
83	345.8020775318146	pulse	1	t		81.0	2.5	/experiments/knapen_AOT/AOT_stimuli/rescaled_final/1188_rv.mp4	0.0	361.7451927661896	
83	347.11860966682434	fix_post	2		12	81.0	2.5	/experiments/knapen_AOT/AOT_stimuli/rescaled_final/1188_rv.mp4	0.0	363.06172490119934	0.09999251365661621
84	347.21860218048096	fix_pre	0		120	82.0	2.5	/experiments/knapen_AOT/AOT_stimuli/rescaled_final/0178_fw.mp4	0.0	363.16171741485596	1.0084455013275146
84	347.4020915031433	pulse	0	t		82.0	2.5	/experiments/knapen_AOT/AOT_stimuli/rescaled_final/0178_fw.mp4	0.0	363.3452067375183	
84	348.2270476818085	movie	1		276	82.0	2.5	/experiments/knapen_AOT/AOT_stimuli/rescaled_final/0178_fw.mp4	0.0	364.1701629161835	2.492095947265625
84	349.00242710113525	pulse	1	t		82.0	2.5	/experiments/knapen_AOT/AOT_stimuli/rescaled_final/0178_fw.mp4	0.0	364.94554233551025	
84	350.6025800704956	pulse	1	t		82.0	2.5	/experiments/knapen_AOT/AOT_stimuli/rescaled_final/0178_fw.mp4	0.0	366.5456953048706	
84	350.7191436290741	fix_post	2		12	82.0	2.5	/experiments/knapen_AOT/AOT_stimuli/rescaled_final/0178_fw.mp4	0.0	366.6622588634491	0.09999752044677734
85	350.8191411495209	fix_pre	0		120	83.0	2.5	blank	1.0	366.7622563838959	1.0001516342163086
85	351.8192927837372	movie	1		300	83.0	2.5	blank	1.0	367.7624080181122	2.5003480911254883
85	352.2028257846832	pulse	1	t		83.0	2.5	blank	1.0	368.1459410190582	
85	353.80309224128723	pulse	1	t		83.0	2.5	blank	1.0	369.74620747566223	
85	354.31964087486267	fix_post	2		12	83.0	2.5	blank	1.0	370.26275610923767	0.10002422332763672
87	354.4196650981903	stim	0		1716					370.3627803325653	14.30215048789978
87	355.4034037590027	pulse	0	t						371.3465189933777	
87	357.0037443637848	pulse	0	t						372.9468595981598	
87	358.6037702560425	pulse	0	t						374.5468854904175	
87	360.20411801338196	pulse	0	t						376.14723324775696	
87	361.8042423725128	pulse	0	t						377.7473576068878	
87	363.40452671051025	pulse	0	t						379.34764194488525	
87	365.00472950935364	pulse	0	t						380.94784474372864	
87	366.6049563884735	pulse	0	t						382.5480716228485	
87	368.20519256591797	pulse	0	t						384.14830780029297	
