trial_nr	onset	event_type	phase	response	nr_frames	movie_index	movie_duration	movie_file	blank	onset_abs	duration
0	0.2166450023651123	stim	0		14					20.76981496810913	0.11658000946044922
0	0.32532310485839844	response	0	space						20.878493070602417	
1	0.3332250118255615	stim	0		4554					20.88639497756958	37.96773600578308
1	38.29055905342102	pulse	0	t						58.84372901916504	
1	38.30096101760864	stim	1		1717					58.85413098335266	14.306775093078613
1	39.88092517852783	pulse	1	t						60.43409514427185	
1	41.481346130371094	pulse	1	t						62.03451609611511	
1	43.081413984298706	pulse	1	t						63.634583950042725	
1	44.68173599243164	pulse	1	t						65.23490595817566	
1	46.281880140304565	pulse	1	t						66.83505010604858	
1	47.88214707374573	pulse	1	t						68.43531703948975	
1	49.48244905471802	pulse	1	t						70.03561902046204	
1	51.08268404006958	pulse	1	t						71.6358540058136	
2	52.607736110687256	fix_pre	0		10	0.0	2.5	/experiments/knapen_AOT/AOT_stimuli/rescaled_final/1046_fw.mp4	0.0	73.16090607643127	0.08338403701782227
2	52.68288016319275	pulse	0	t		0.0	2.5	/experiments/knapen_AOT/AOT_stimuli/rescaled_final/1046_fw.mp4	0.0	73.23605012893677	
2	52.69112014770508	movie	1		242	0.0	2.5	/experiments/knapen_AOT/AOT_stimuli/rescaled_final/1046_fw.mp4	0.0	73.2442901134491	2.5086400508880615
2	54.28366303443909	pulse	1	t		0.0	2.5	/experiments/knapen_AOT/AOT_stimuli/rescaled_final/1046_fw.mp4	0.0	74.8368330001831	
2	55.19976019859314	fix_post	2		12	0.0	2.5	/experiments/knapen_AOT/AOT_stimuli/rescaled_final/1046_fw.mp4	0.0	75.75293016433716	0.10000085830688477
3	55.299761056900024	fix_pre	0		120	1.0	2.5	/experiments/knapen_AOT/AOT_stimuli/rescaled_final/1696_rv.mp4	0.0	75.85293102264404	1.0001599788665771
3	55.88345503807068	pulse	0	t		1.0	2.5	/experiments/knapen_AOT/AOT_stimuli/rescaled_final/1696_rv.mp4	0.0	76.4366250038147	
3	56.2999210357666	movie	1		242	1.0	2.5	/experiments/knapen_AOT/AOT_stimuli/rescaled_final/1696_rv.mp4	0.0	76.85309100151062	2.5005409717559814
3	57.48376512527466	pulse	1	t		1.0	2.5	/experiments/knapen_AOT/AOT_stimuli/rescaled_final/1696_rv.mp4	0.0	78.03693509101868	
3	58.80046200752258	fix_post	2		12	1.0	2.5	/experiments/knapen_AOT/AOT_stimuli/rescaled_final/1696_rv.mp4	0.0	79.3536319732666	0.09988212585449219
4	58.900344133377075	fix_pre	0		120	2.0	2.5	/experiments/knapen_AOT/AOT_stimuli/rescaled_final/1234_fw.mp4	0.0	79.4535140991211	1.000169038772583
4	59.08384299278259	pulse	0	t		2.0	2.5	/experiments/knapen_AOT/AOT_stimuli/rescaled_final/1234_fw.mp4	0.0	79.63701295852661	
4	59.90051317214966	movie	1		242	2.0	2.5	/experiments/knapen_AOT/AOT_stimuli/rescaled_final/1234_fw.mp4	0.0	80.45368313789368	2.5003960132598877
4	60.68410301208496	pulse	1	t		2.0	2.5	/experiments/knapen_AOT/AOT_stimuli/rescaled_final/1234_fw.mp4	0.0	81.23727297782898	
4	62.2841911315918	pulse	1	t		2.0	2.5	/experiments/knapen_AOT/AOT_stimuli/rescaled_final/1234_fw.mp4	0.0	82.83736109733582	
4	62.400909185409546	fix_post	2		12	2.0	2.5	/experiments/knapen_AOT/AOT_stimuli/rescaled_final/1234_fw.mp4	0.0	82.95407915115356	0.10001087188720703
5	62.50092005729675	fix_pre	0		120	3.0	2.5	/experiments/knapen_AOT/AOT_stimuli/rescaled_final/1088_rv.mp4	0.0	83.05409002304077	1.0000591278076172
5	63.50097918510437	movie	1		243	3.0	2.5	/experiments/knapen_AOT/AOT_stimuli/rescaled_final/1088_rv.mp4	0.0	84.05414915084839	2.4920668601989746
5	63.888792991638184	pulse	1	t		3.0	2.5	/experiments/knapen_AOT/AOT_stimuli/rescaled_final/1088_rv.mp4	0.0	84.4419629573822	
5	65.48479199409485	pulse	1	t		3.0	2.5	/experiments/knapen_AOT/AOT_stimuli/rescaled_final/1088_rv.mp4	0.0	86.03796195983887	
5	65.99304604530334	fix_post	2		12	3.0	2.5	/experiments/knapen_AOT/AOT_stimuli/rescaled_final/1088_rv.mp4	0.0	86.54621601104736	0.10000395774841309
6	66.09305000305176	fix_pre	0		120	4.0	2.5	/experiments/knapen_AOT/AOT_stimuli/rescaled_final/0199_fw.mp4	0.0	86.64621996879578	1.0001931190490723
6	67.0850441455841	pulse	0	t		4.0	2.5	/experiments/knapen_AOT/AOT_stimuli/rescaled_final/0199_fw.mp4	0.0	87.63821411132812	
6	67.09324312210083	movie	1		245	4.0	2.5	/experiments/knapen_AOT/AOT_stimuli/rescaled_final/0199_fw.mp4	0.0	87.64641308784485	2.5086910724639893
6	68.68576121330261	pulse	1	t		4.0	2.5	/experiments/knapen_AOT/AOT_stimuli/rescaled_final/0199_fw.mp4	0.0	89.23893117904663	
6	69.60193419456482	fix_post	2		12	4.0	2.5	/experiments/knapen_AOT/AOT_stimuli/rescaled_final/0199_fw.mp4	0.0	90.15510416030884	0.10001301765441895
7	69.70194721221924	fix_pre	0		120	5.0	2.5	blank	1.0	90.25511717796326	1.0001168251037598
7	70.28554201126099	pulse	0	t		5.0	2.5	blank	1.0	90.838711977005	
7	70.702064037323	movie	1		300	5.0	2.5	blank	1.0	91.25523400306702	2.5003600120544434
7	71.88582015037537	pulse	1	t		5.0	2.5	blank	1.0	92.43899011611938	
7	73.20242404937744	fix_post	2		12	5.0	2.5	blank	1.0	93.75559401512146	0.10006904602050781
8	73.30249309539795	fix_pre	0		120	6.0	2.5	/experiments/knapen_AOT/AOT_stimuli/rescaled_final/1808_fw.mp4	0.0	93.85566306114197	1.0000970363616943
8	73.48605108261108	pulse	0	t		6.0	2.5	/experiments/knapen_AOT/AOT_stimuli/rescaled_final/1808_fw.mp4	0.0	94.0392210483551	
8	74.30259013175964	movie	1		242	6.0	2.5	/experiments/knapen_AOT/AOT_stimuli/rescaled_final/1808_fw.mp4	0.0	94.85576009750366	2.5004448890686035
8	75.0862340927124	pulse	1	t		6.0	2.5	/experiments/knapen_AOT/AOT_stimuli/rescaled_final/1808_fw.mp4	0.0	95.63940405845642	
8	76.68710517883301	pulse	1	t		6.0	2.5	/experiments/knapen_AOT/AOT_stimuli/rescaled_final/1808_fw.mp4	0.0	97.24027514457703	
8	76.80303502082825	fix_post	2		12	6.0	2.5	/experiments/knapen_AOT/AOT_stimuli/rescaled_final/1808_fw.mp4	0.0	97.35620498657227	0.1000511646270752
9	76.90308618545532	fix_pre	0		120	7.0	2.5	/experiments/knapen_AOT/AOT_stimuli/rescaled_final/1738_fw.mp4	0.0	97.45625615119934	1.0001168251037598
9	77.90320301055908	movie	1		241	7.0	2.5	/experiments/knapen_AOT/AOT_stimuli/rescaled_final/1738_fw.mp4	0.0	98.4563729763031	2.492051124572754
9	78.28727316856384	pulse	1	t		7.0	2.5	/experiments/knapen_AOT/AOT_stimuli/rescaled_final/1738_fw.mp4	0.0	98.84044313430786	
9	79.87969207763672	pulse	1	t		7.0	2.5	/experiments/knapen_AOT/AOT_stimuli/rescaled_final/1738_fw.mp4	0.0	100.43286204338074	
9	80.39525413513184	fix_post	2		12	7.0	2.5	/experiments/knapen_AOT/AOT_stimuli/rescaled_final/1738_fw.mp4	0.0	100.94842410087585	0.09993886947631836
10	80.49519300460815	fix_pre	0		120	8.0	2.5	/experiments/knapen_AOT/AOT_stimuli/rescaled_final/1140_fw.mp4	0.0	101.04836297035217	1.0001552104949951
10	81.47968912124634	pulse	0	t		8.0	2.5	/experiments/knapen_AOT/AOT_stimuli/rescaled_final/1140_fw.mp4	0.0	102.03285908699036	
10	81.49534821510315	movie	1		243	8.0	2.5	/experiments/knapen_AOT/AOT_stimuli/rescaled_final/1140_fw.mp4	0.0	102.04851818084717	2.508795976638794
10	83.08814716339111	pulse	1	t		8.0	2.5	/experiments/knapen_AOT/AOT_stimuli/rescaled_final/1140_fw.mp4	0.0	103.64131712913513	
10	84.00414419174194	fix_post	2		12	8.0	2.5	/experiments/knapen_AOT/AOT_stimuli/rescaled_final/1140_fw.mp4	0.0	104.55731415748596	0.09996986389160156
11	84.10411405563354	fix_pre	0		120	9.0	2.5	/experiments/knapen_AOT/AOT_stimuli/rescaled_final/0686_rv.mp4	0.0	104.65728402137756	1.0001029968261719
11	84.68015098571777	pulse	0	t		9.0	2.5	/experiments/knapen_AOT/AOT_stimuli/rescaled_final/0686_rv.mp4	0.0	105.23332095146179	
11	85.10421705245972	movie	1		242	9.0	2.5	/experiments/knapen_AOT/AOT_stimuli/rescaled_final/0686_rv.mp4	0.0	105.65738701820374	2.500370979309082
11	86.28038620948792	pulse	1	t		9.0	2.5	/experiments/knapen_AOT/AOT_stimuli/rescaled_final/0686_rv.mp4	0.0	106.83355617523193	
11	87.6045880317688	fix_post	2		12	9.0	2.5	/experiments/knapen_AOT/AOT_stimuli/rescaled_final/0686_rv.mp4	0.0	108.15775799751282	0.09999704360961914
12	87.70458507537842	fix_pre	0		120	10.0	2.5	/experiments/knapen_AOT/AOT_stimuli/rescaled_final/2126_rv.mp4	0.0	108.25775504112244	1.0001599788665771
12	87.87974905967712	pulse	0	t		10.0	2.5	/experiments/knapen_AOT/AOT_stimuli/rescaled_final/2126_rv.mp4	0.0	108.43291902542114	
12	88.704745054245	movie	1		242	10.0	2.5	/experiments/knapen_AOT/AOT_stimuli/rescaled_final/2126_rv.mp4	0.0	109.25791501998901	2.5005240440368652
12	89.48013710975647	pulse	1	t		10.0	2.5	/experiments/knapen_AOT/AOT_stimuli/rescaled_final/2126_rv.mp4	0.0	110.03330707550049	
12	91.08040714263916	pulse	1	t		10.0	2.5	/experiments/knapen_AOT/AOT_stimuli/rescaled_final/2126_rv.mp4	0.0	111.63357710838318	
12	91.20526909828186	fix_post	2		12	10.0	2.5	/experiments/knapen_AOT/AOT_stimuli/rescaled_final/2126_rv.mp4	0.0	111.75843906402588	0.09994888305664062
13	91.3052179813385	fix_pre	0		120	11.0	2.5	/experiments/knapen_AOT/AOT_stimuli/rescaled_final/0760_fw.mp4	0.0	111.85838794708252	1.000049114227295
13	92.3052670955658	movie	1		242	11.0	2.5	/experiments/knapen_AOT/AOT_stimuli/rescaled_final/0760_fw.mp4	0.0	112.85843706130981	2.492189884185791
13	92.68052101135254	pulse	1	t		11.0	2.5	/experiments/knapen_AOT/AOT_stimuli/rescaled_final/0760_fw.mp4	0.0	113.23369097709656	
13	94.28087306022644	pulse	1	t		11.0	2.5	/experiments/knapen_AOT/AOT_stimuli/rescaled_final/0760_fw.mp4	0.0	114.83404302597046	
13	94.79745697975159	fix_post	2		8	11.0	2.5	/experiments/knapen_AOT/AOT_stimuli/rescaled_final/0760_fw.mp4	0.0	115.3506269454956	0.09991216659545898
14	94.89736914634705	fix_pre	0		119	12.0	2.5	/experiments/knapen_AOT/AOT_stimuli/rescaled_final/0098_rv.mp4	0.0	115.45053911209106	0.9917709827423096
14	95.88094711303711	pulse	0	t		12.0	2.5	/experiments/knapen_AOT/AOT_stimuli/rescaled_final/0098_rv.mp4	0.0	116.43411707878113	
14	95.88914012908936	movie	1		244	12.0	2.5	/experiments/knapen_AOT/AOT_stimuli/rescaled_final/0098_rv.mp4	0.0	116.44231009483337	2.508836030960083
14	97.482017993927	pulse	1	t		12.0	2.5	/experiments/knapen_AOT/AOT_stimuli/rescaled_final/0098_rv.mp4	0.0	118.03518795967102	
14	98.39797616004944	fix_post	2		12	12.0	2.5	/experiments/knapen_AOT/AOT_stimuli/rescaled_final/0098_rv.mp4	0.0	118.95114612579346	0.09997892379760742
15	98.49795508384705	fix_pre	0		120	13.0	2.5	/experiments/knapen_AOT/AOT_stimuli/rescaled_final/1338_fw.mp4	0.0	119.05112504959106	1.0000851154327393
15	99.08150100708008	pulse	0	t		13.0	2.5	/experiments/knapen_AOT/AOT_stimuli/rescaled_final/1338_fw.mp4	0.0	119.6346709728241	
15	99.49804019927979	movie	1		242	13.0	2.5	/experiments/knapen_AOT/AOT_stimuli/rescaled_final/1338_fw.mp4	0.0	120.0512101650238	2.500422954559326
15	100.68174600601196	pulse	1	t		13.0	2.5	/experiments/knapen_AOT/AOT_stimuli/rescaled_final/1338_fw.mp4	0.0	121.23491597175598	
15	101.99846315383911	fix_post	2		12	13.0	2.5	/experiments/knapen_AOT/AOT_stimuli/rescaled_final/1338_fw.mp4	0.0	122.55163311958313	0.09998583793640137
16	102.09844899177551	fix_pre	0		120	14.0	2.5	blank	1.0	122.65161895751953	1.0001170635223389
16	102.28196907043457	pulse	0	t		14.0	2.5	blank	1.0	122.83513903617859	
16	103.09856605529785	movie	1		300	14.0	2.5	blank	1.0	123.65173602104187	2.5004360675811768
16	103.88230609893799	pulse	1	t		14.0	2.5	blank	1.0	124.435476064682	
16	105.4826090335846	pulse	1	t		14.0	2.5	blank	1.0	126.03577899932861	
16	105.59900212287903	fix_post	2		12	14.0	2.5	blank	1.0	126.15217208862305	0.10001301765441895
17	105.69901514053345	fix_pre	0		120	15.0	2.5	/experiments/knapen_AOT/AOT_stimuli/rescaled_final/0787_fw.mp4	0.0	126.25218510627747	1.0001718997955322
17	106.69918704032898	movie	1		243	15.0	2.5	/experiments/knapen_AOT/AOT_stimuli/rescaled_final/0787_fw.mp4	0.0	127.252357006073	2.492004156112671
17	107.08325600624084	pulse	1	t		15.0	2.5	/experiments/knapen_AOT/AOT_stimuli/rescaled_final/0787_fw.mp4	0.0	127.63642597198486	
17	108.6828830242157	pulse	1	t		15.0	2.5	/experiments/knapen_AOT/AOT_stimuli/rescaled_final/0787_fw.mp4	0.0	129.23605298995972	
17	109.19119119644165	fix_post	2		12	15.0	2.5	/experiments/knapen_AOT/AOT_stimuli/rescaled_final/0787_fw.mp4	0.0	129.74436116218567	0.10002493858337402
18	109.29121613502502	fix_pre	0		120	16.0	2.5	/experiments/knapen_AOT/AOT_stimuli/rescaled_final/1720_fw.mp4	0.0	129.84438610076904	1.0000669956207275
18	110.28325009346008	pulse	0	t		16.0	2.5	/experiments/knapen_AOT/AOT_stimuli/rescaled_final/1720_fw.mp4	0.0	130.8364200592041	
18	110.29128313064575	movie	1		243	16.0	2.5	/experiments/knapen_AOT/AOT_stimuli/rescaled_final/1720_fw.mp4	0.0	130.84445309638977	2.508769989013672
18	111.88453102111816	pulse	1	t		16.0	2.5	/experiments/knapen_AOT/AOT_stimuli/rescaled_final/1720_fw.mp4	0.0	132.43770098686218	
18	112.80005311965942	fix_post	2		12	16.0	2.5	/experiments/knapen_AOT/AOT_stimuli/rescaled_final/1720_fw.mp4	0.0	133.35322308540344	0.10000109672546387
19	112.90005421638489	fix_pre	0		120	17.0	2.5	/experiments/knapen_AOT/AOT_stimuli/rescaled_final/1338_rv.mp4	0.0	133.4532241821289	1.0002098083496094
19	113.48367500305176	pulse	0	t		17.0	2.5	/experiments/knapen_AOT/AOT_stimuli/rescaled_final/1338_rv.mp4	0.0	134.03684496879578	
19	113.9002640247345	movie	1		242	17.0	2.5	/experiments/knapen_AOT/AOT_stimuli/rescaled_final/1338_rv.mp4	0.0	134.45343399047852	2.5003650188446045
19	115.08391904830933	pulse	1	t		17.0	2.5	/experiments/knapen_AOT/AOT_stimuli/rescaled_final/1338_rv.mp4	0.0	135.63708901405334	
19	116.4006290435791	fix_post	2		12	17.0	2.5	/experiments/knapen_AOT/AOT_stimuli/rescaled_final/1338_rv.mp4	0.0	136.95379900932312	0.09996795654296875
20	116.50059700012207	fix_pre	0		120	18.0	2.5	/experiments/knapen_AOT/AOT_stimuli/rescaled_final/1659_rv.mp4	0.0	137.0537669658661	1.0001170635223389
20	116.68423318862915	pulse	0	t		18.0	2.5	/experiments/knapen_AOT/AOT_stimuli/rescaled_final/1659_rv.mp4	0.0	137.23740315437317	
20	117.50071406364441	movie	1		244	18.0	2.5	/experiments/knapen_AOT/AOT_stimuli/rescaled_final/1659_rv.mp4	0.0	138.05388402938843	2.5003840923309326
20	118.28447818756104	pulse	1	t		18.0	2.5	/experiments/knapen_AOT/AOT_stimuli/rescaled_final/1659_rv.mp4	0.0	138.83764815330505	
20	119.8847930431366	pulse	1	t		18.0	2.5	/experiments/knapen_AOT/AOT_stimuli/rescaled_final/1659_rv.mp4	0.0	140.43796300888062	
20	120.00109815597534	fix_post	2		12	18.0	2.5	/experiments/knapen_AOT/AOT_stimuli/rescaled_final/1659_rv.mp4	0.0	140.55426812171936	0.10004091262817383
21	120.10113906860352	fix_pre	0		120	19.0	2.5	/experiments/knapen_AOT/AOT_stimuli/rescaled_final/0831_fw.mp4	0.0	140.65430903434753	1.0001499652862549
21	121.10128903388977	movie	1		241	19.0	2.5	/experiments/knapen_AOT/AOT_stimuli/rescaled_final/0831_fw.mp4	0.0	141.6544589996338	2.49220609664917
21	121.48931312561035	pulse	1	t		19.0	2.5	/experiments/knapen_AOT/AOT_stimuli/rescaled_final/0831_fw.mp4	0.0	142.04248309135437	
21	123.08504319190979	pulse	1	t		19.0	2.5	/experiments/knapen_AOT/AOT_stimuli/rescaled_final/0831_fw.mp4	0.0	143.6382131576538	
21	123.59349513053894	fix_post	2		12	19.0	2.5	/experiments/knapen_AOT/AOT_stimuli/rescaled_final/0831_fw.mp4	0.0	144.14666509628296	0.09983086585998535
22	123.69332599639893	fix_pre	0		120	20.0	2.5	blank	1.0	144.24649596214294	1.0002532005310059
22	124.68539309501648	pulse	0	t		20.0	2.5	blank	1.0	145.2385630607605	
22	124.69357919692993	movie	1		301	20.0	2.5	blank	1.0	145.24674916267395	2.5085949897766113
22	126.2856981754303	pulse	1	t		20.0	2.5	blank	1.0	146.83886814117432	
22	127.20217418670654	fix_post	2		12	20.0	2.5	blank	1.0	147.75534415245056	0.09998703002929688
23	127.30216121673584	fix_pre	0		120	21.0	2.5	/experiments/knapen_AOT/AOT_stimuli/rescaled_final/1192_fw.mp4	0.0	147.85533118247986	1.000229835510254
23	127.88576221466064	pulse	0	t		21.0	2.5	/experiments/knapen_AOT/AOT_stimuli/rescaled_final/1192_fw.mp4	0.0	148.43893218040466	
23	128.3023910522461	movie	1		242	21.0	2.5	/experiments/knapen_AOT/AOT_stimuli/rescaled_final/1192_fw.mp4	0.0	148.8555610179901	2.5003299713134766
23	129.48609805107117	pulse	1	t		21.0	2.5	/experiments/knapen_AOT/AOT_stimuli/rescaled_final/1192_fw.mp4	0.0	150.03926801681519	
23	130.80272102355957	fix_post	2		12	21.0	2.5	/experiments/knapen_AOT/AOT_stimuli/rescaled_final/1192_fw.mp4	0.0	151.3558909893036	0.09997415542602539
24	130.9026951789856	fix_pre	0		120	22.0	2.5	/experiments/knapen_AOT/AOT_stimuli/rescaled_final/0192_fw.mp4	0.0	151.45586514472961	1.000154972076416
24	131.08632016181946	pulse	0	t		22.0	2.5	/experiments/knapen_AOT/AOT_stimuli/rescaled_final/0192_fw.mp4	0.0	151.63949012756348	
24	131.902850151062	movie	1		244	22.0	2.5	/experiments/knapen_AOT/AOT_stimuli/rescaled_final/0192_fw.mp4	0.0	152.45602011680603	2.500443935394287
24	132.6866250038147	pulse	1	t		22.0	2.5	/experiments/knapen_AOT/AOT_stimuli/rescaled_final/0192_fw.mp4	0.0	153.23979496955872	
24	134.28694319725037	pulse	1	t		22.0	2.5	/experiments/knapen_AOT/AOT_stimuli/rescaled_final/0192_fw.mp4	0.0	154.84011316299438	
24	134.4032940864563	fix_post	2		12	22.0	2.5	/experiments/knapen_AOT/AOT_stimuli/rescaled_final/0192_fw.mp4	0.0	154.95646405220032	0.10001993179321289
25	134.5033140182495	fix_pre	0		120	23.0	2.5	/experiments/knapen_AOT/AOT_stimuli/rescaled_final/0372_rv.mp4	0.0	155.05648398399353	1.0001001358032227
25	135.50341415405273	movie	1		243	23.0	2.5	/experiments/knapen_AOT/AOT_stimuli/rescaled_final/0372_rv.mp4	0.0	156.05658411979675	2.492097854614258
25	135.88833117485046	pulse	1	t		23.0	2.5	/experiments/knapen_AOT/AOT_stimuli/rescaled_final/0372_rv.mp4	0.0	156.44150114059448	
25	137.48731899261475	pulse	1	t		23.0	2.5	/experiments/knapen_AOT/AOT_stimuli/rescaled_final/0372_rv.mp4	0.0	158.04048895835876	
25	137.995512008667	fix_post	2		12	23.0	2.5	/experiments/knapen_AOT/AOT_stimuli/rescaled_final/0372_rv.mp4	0.0	158.548681974411	0.09997916221618652
26	138.09549117088318	fix_pre	0		120	24.0	2.5	/experiments/knapen_AOT/AOT_stimuli/rescaled_final/0222_fw.mp4	0.0	158.6486611366272	1.0000829696655273
26	139.08753609657288	pulse	0	t		24.0	2.5	/experiments/knapen_AOT/AOT_stimuli/rescaled_final/0222_fw.mp4	0.0	159.6407060623169	
26	139.0955741405487	movie	1		244	24.0	2.5	/experiments/knapen_AOT/AOT_stimuli/rescaled_final/0222_fw.mp4	0.0	159.64874410629272	2.508833885192871
26	140.68880414962769	pulse	1	t		24.0	2.5	/experiments/knapen_AOT/AOT_stimuli/rescaled_final/0222_fw.mp4	0.0	161.2419741153717	
26	141.60440802574158	fix_post	2		12	24.0	2.5	/experiments/knapen_AOT/AOT_stimuli/rescaled_final/0222_fw.mp4	0.0	162.1575779914856	0.09997010231018066
27	141.70437812805176	fix_pre	0		120	25.0	2.5	/experiments/knapen_AOT/AOT_stimuli/rescaled_final/1570_fw.mp4	0.0	162.25754809379578	1.00022292137146
27	142.28065419197083	pulse	0	t		25.0	2.5	/experiments/knapen_AOT/AOT_stimuli/rescaled_final/1570_fw.mp4	0.0	162.83382415771484	
27	142.70460104942322	movie	1		244	25.0	2.5	/experiments/knapen_AOT/AOT_stimuli/rescaled_final/1570_fw.mp4	0.0	163.25777101516724	2.5002291202545166
27	143.88065600395203	pulse	1	t		25.0	2.5	/experiments/knapen_AOT/AOT_stimuli/rescaled_final/1570_fw.mp4	0.0	164.43382596969604	
27	145.20483016967773	fix_post	2		12	25.0	2.5	/experiments/knapen_AOT/AOT_stimuli/rescaled_final/1570_fw.mp4	0.0	165.75800013542175	0.10007286071777344
28	145.3049030303955	fix_pre	0		120	26.0	2.5	blank	1.0	165.85807299613953	1.0000851154327393
28	145.4809181690216	pulse	0	t		26.0	2.5	blank	1.0	166.03408813476562	
28	146.30498814582825	movie	1		300	26.0	2.5	blank	1.0	166.85815811157227	2.5004489421844482
28	147.0803861618042	pulse	1	t		26.0	2.5	blank	1.0	167.63355612754822	
28	148.68051719665527	pulse	1	t		26.0	2.5	blank	1.0	169.2336871623993	
28	148.8054370880127	fix_post	2		12	26.0	2.5	blank	1.0	169.3586070537567	0.10000395774841309
29	148.9054410457611	fix_pre	0		120	27.0	2.5	/experiments/knapen_AOT/AOT_stimuli/rescaled_final/2126_fw.mp4	0.0	169.45861101150513	1.0001599788665771
29	149.90560102462769	movie	1		241	27.0	2.5	/experiments/knapen_AOT/AOT_stimuli/rescaled_final/2126_fw.mp4	0.0	170.4587709903717	2.492124080657959
29	150.280846118927	pulse	1	t		27.0	2.5	/experiments/knapen_AOT/AOT_stimuli/rescaled_final/2126_fw.mp4	0.0	170.83401608467102	
29	151.8810920715332	pulse	1	t		27.0	2.5	/experiments/knapen_AOT/AOT_stimuli/rescaled_final/2126_fw.mp4	0.0	172.43426203727722	
29	152.39772510528564	fix_post	2		12	27.0	2.5	/experiments/knapen_AOT/AOT_stimuli/rescaled_final/2126_fw.mp4	0.0	172.95089507102966	0.09987807273864746
30	152.4976031780243	fix_pre	0		119	28.0	2.5	/experiments/knapen_AOT/AOT_stimuli/rescaled_final/0292_rv.mp4	0.0	173.0507731437683	0.9918689727783203
30	153.4812731742859	pulse	0	t		28.0	2.5	/experiments/knapen_AOT/AOT_stimuli/rescaled_final/0292_rv.mp4	0.0	174.0344431400299	
30	153.4894721508026	movie	1		245	28.0	2.5	/experiments/knapen_AOT/AOT_stimuli/rescaled_final/0292_rv.mp4	0.0	174.04264211654663	2.5086779594421387
30	155.08197903633118	pulse	1	t		28.0	2.5	/experiments/knapen_AOT/AOT_stimuli/rescaled_final/0292_rv.mp4	0.0	175.6351490020752	
30	155.99815011024475	fix_post	2		12	28.0	2.5	/experiments/knapen_AOT/AOT_stimuli/rescaled_final/0292_rv.mp4	0.0	176.55132007598877	0.10001707077026367
31	156.09816718101501	fix_pre	0		115	29.0	2.5	/experiments/knapen_AOT/AOT_stimuli/rescaled_final/1316_rv.mp4	0.0	176.65133714675903	1.0001778602600098
31	156.68180108070374	pulse	0	t		29.0	2.5	/experiments/knapen_AOT/AOT_stimuli/rescaled_final/1316_rv.mp4	0.0	177.23497104644775	
31	157.09834504127502	movie	1		243	29.0	2.5	/experiments/knapen_AOT/AOT_stimuli/rescaled_final/1316_rv.mp4	0.0	177.65151500701904	2.5003139972686768
31	158.28206419944763	pulse	1	t		29.0	2.5	/experiments/knapen_AOT/AOT_stimuli/rescaled_final/1316_rv.mp4	0.0	178.83523416519165	
31	159.5986590385437	fix_post	2		12	29.0	2.5	/experiments/knapen_AOT/AOT_stimuli/rescaled_final/1316_rv.mp4	0.0	180.15182900428772	0.10005617141723633
32	159.69871520996094	fix_pre	0		120	30.0	2.5	/experiments/knapen_AOT/AOT_stimuli/rescaled_final/1038_fw.mp4	0.0	180.25188517570496	1.0001189708709717
32	159.88221502304077	pulse	0	t		30.0	2.5	/experiments/knapen_AOT/AOT_stimuli/rescaled_final/1038_fw.mp4	0.0	180.4353849887848	
32	160.6988341808319	movie	1		242	30.0	2.5	/experiments/knapen_AOT/AOT_stimuli/rescaled_final/1038_fw.mp4	0.0	181.25200414657593	2.500437021255493
32	161.48243498802185	pulse	1	t		30.0	2.5	/experiments/knapen_AOT/AOT_stimuli/rescaled_final/1038_fw.mp4	0.0	182.03560495376587	
32	163.08261013031006	pulse	1	t		30.0	2.5	/experiments/knapen_AOT/AOT_stimuli/rescaled_final/1038_fw.mp4	0.0	183.63578009605408	
32	163.1992712020874	fix_post	2		12	30.0	2.5	/experiments/knapen_AOT/AOT_stimuli/rescaled_final/1038_fw.mp4	0.0	183.75244116783142	0.09994983673095703
33	163.29922103881836	fix_pre	0		120	31.0	2.5	/experiments/knapen_AOT/AOT_stimuli/rescaled_final/1611_fw.mp4	0.0	183.85239100456238	1.0001730918884277
33	164.2993941307068	movie	1		241	31.0	2.5	/experiments/knapen_AOT/AOT_stimuli/rescaled_final/1611_fw.mp4	0.0	184.8525640964508	2.4921469688415527
33	164.68433499336243	pulse	1	t		31.0	2.5	/experiments/knapen_AOT/AOT_stimuli/rescaled_final/1611_fw.mp4	0.0	185.23750495910645	
33	166.28328204154968	pulse	1	t		31.0	2.5	/experiments/knapen_AOT/AOT_stimuli/rescaled_final/1611_fw.mp4	0.0	186.8364520072937	
33	166.79154109954834	fix_post	2		12	31.0	2.5	/experiments/knapen_AOT/AOT_stimuli/rescaled_final/1611_fw.mp4	0.0	187.34471106529236	0.09991288185119629
34	166.89145398139954	fix_pre	0		120	32.0	2.5	/experiments/knapen_AOT/AOT_stimuli/rescaled_final/0521_rv.mp4	0.0	187.44462394714355	1.0001301765441895
34	167.88340401649475	pulse	0	t		32.0	2.5	/experiments/knapen_AOT/AOT_stimuli/rescaled_final/0521_rv.mp4	0.0	188.43657398223877	
34	167.89158415794373	movie	1		244	32.0	2.5	/experiments/knapen_AOT/AOT_stimuli/rescaled_final/0521_rv.mp4	0.0	188.44475412368774	2.5087058544158936
34	169.48416900634766	pulse	1	t		32.0	2.5	/experiments/knapen_AOT/AOT_stimuli/rescaled_final/0521_rv.mp4	0.0	190.03733897209167	
34	170.40029001235962	fix_post	2		12	32.0	2.5	/experiments/knapen_AOT/AOT_stimuli/rescaled_final/0521_rv.mp4	0.0	190.95345997810364	0.10004305839538574
35	170.500333070755	fix_pre	0		120	33.0	2.5	blank	1.0	191.05350303649902	1.000154972076416
35	171.0838761329651	pulse	0	t		33.0	2.5	blank	1.0	191.6370460987091	
35	171.50048804283142	movie	1		300	33.0	2.5	blank	1.0	192.05365800857544	2.500331163406372
35	172.6842381954193	pulse	1	t		33.0	2.5	blank	1.0	193.23740816116333	
35	174.0008192062378	fix_post	2		12	33.0	2.5	blank	1.0	194.5539891719818	0.10009598731994629
36	174.10091519355774	fix_pre	0		120	34.0	2.5	/experiments/knapen_AOT/AOT_stimuli/rescaled_final/0187_fw.mp4	0.0	194.65408515930176	1.0001239776611328
36	174.28438711166382	pulse	0	t		34.0	2.5	/experiments/knapen_AOT/AOT_stimuli/rescaled_final/0187_fw.mp4	0.0	194.83755707740784	
36	175.10103917121887	movie	1		244	34.0	2.5	/experiments/knapen_AOT/AOT_stimuli/rescaled_final/0187_fw.mp4	0.0	195.6542091369629	2.500319004058838
36	175.88463521003723	pulse	1	t		34.0	2.5	/experiments/knapen_AOT/AOT_stimuli/rescaled_final/0187_fw.mp4	0.0	196.43780517578125	
36	177.48508715629578	pulse	1	t		34.0	2.5	/experiments/knapen_AOT/AOT_stimuli/rescaled_final/0187_fw.mp4	0.0	198.0382571220398	
36	177.6013581752777	fix_post	2		12	34.0	2.5	/experiments/knapen_AOT/AOT_stimuli/rescaled_final/0187_fw.mp4	0.0	198.15452814102173	0.10004091262817383
37	177.70139908790588	fix_pre	0		120	35.0	2.5	/experiments/knapen_AOT/AOT_stimuli/rescaled_final/1165_rv.mp4	0.0	198.2545690536499	1.0001239776611328
37	178.70152306556702	movie	1		242	35.0	2.5	/experiments/knapen_AOT/AOT_stimuli/rescaled_final/1165_rv.mp4	0.0	199.25469303131104	2.4921340942382812
37	179.08971500396729	pulse	1	t		35.0	2.5	/experiments/knapen_AOT/AOT_stimuli/rescaled_final/1165_rv.mp4	0.0	199.6428849697113	
37	180.6854441165924	pulse	1	t		35.0	2.5	/experiments/knapen_AOT/AOT_stimuli/rescaled_final/1165_rv.mp4	0.0	201.23861408233643	
37	181.1936571598053	fix_post	2		12	35.0	2.5	/experiments/knapen_AOT/AOT_stimuli/rescaled_final/1165_rv.mp4	0.0	201.74682712554932	0.09995388984680176
38	181.2936110496521	fix_pre	0		120	36.0	2.5	/experiments/knapen_AOT/AOT_stimuli/rescaled_final/0193_fw.mp4	0.0	201.84678101539612	1.0000779628753662
38	182.28554821014404	pulse	0	t		36.0	2.5	/experiments/knapen_AOT/AOT_stimuli/rescaled_final/0193_fw.mp4	0.0	202.83871817588806	
38	182.29368901252747	movie	1		244	36.0	2.5	/experiments/knapen_AOT/AOT_stimuli/rescaled_final/0193_fw.mp4	0.0	202.84685897827148	2.5087480545043945
38	183.8861951828003	pulse	1	t		36.0	2.5	/experiments/knapen_AOT/AOT_stimuli/rescaled_final/0193_fw.mp4	0.0	204.4393651485443	
38	184.80243706703186	fix_post	2		12	36.0	2.5	/experiments/knapen_AOT/AOT_stimuli/rescaled_final/0193_fw.mp4	0.0	205.35560703277588	0.10001397132873535
39	184.9024510383606	fix_pre	0		120	37.0	2.5	/experiments/knapen_AOT/AOT_stimuli/rescaled_final/0967_rv.mp4	0.0	205.45562100410461	1.0001220703125
39	185.48604106903076	pulse	0	t		37.0	2.5	/experiments/knapen_AOT/AOT_stimuli/rescaled_final/0967_rv.mp4	0.0	206.03921103477478	
39	185.9025731086731	movie	1		244	37.0	2.5	/experiments/knapen_AOT/AOT_stimuli/rescaled_final/0967_rv.mp4	0.0	206.45574307441711	2.5004189014434814
39	187.08636808395386	pulse	1	t		37.0	2.5	/experiments/knapen_AOT/AOT_stimuli/rescaled_final/0967_rv.mp4	0.0	207.63953804969788	
39	188.40299201011658	fix_post	2		12	37.0	2.5	/experiments/knapen_AOT/AOT_stimuli/rescaled_final/0967_rv.mp4	0.0	208.9561619758606	0.10005998611450195
40	188.50305199623108	fix_pre	0		120	38.0	2.5	/experiments/knapen_AOT/AOT_stimuli/rescaled_final/0837_rv.mp4	0.0	209.0562219619751	1.0001699924468994
40	188.6864721775055	pulse	0	t		38.0	2.5	/experiments/knapen_AOT/AOT_stimuli/rescaled_final/0837_rv.mp4	0.0	209.2396421432495	
40	189.50322198867798	movie	1		242	38.0	2.5	/experiments/knapen_AOT/AOT_stimuli/rescaled_final/0837_rv.mp4	0.0	210.056391954422	2.500397205352783
40	190.28671407699585	pulse	1	t		38.0	2.5	/experiments/knapen_AOT/AOT_stimuli/rescaled_final/0837_rv.mp4	0.0	210.83988404273987	
40	191.8867371082306	pulse	1	t		38.0	2.5	/experiments/knapen_AOT/AOT_stimuli/rescaled_final/0837_rv.mp4	0.0	212.4399070739746	
40	192.00361919403076	fix_post	2		12	38.0	2.5	/experiments/knapen_AOT/AOT_stimuli/rescaled_final/0837_rv.mp4	0.0	212.55678915977478	0.09992289543151855
41	192.10354208946228	fix_pre	0		120	39.0	2.5	/experiments/knapen_AOT/AOT_stimuli/rescaled_final/0645_rv.mp4	0.0	212.6567120552063	1.000128984451294
41	193.10367107391357	movie	1		242	39.0	2.5	/experiments/knapen_AOT/AOT_stimuli/rescaled_final/0645_rv.mp4	0.0	213.6568410396576	2.4920899868011475
41	193.4915111064911	pulse	1	t		39.0	2.5	/experiments/knapen_AOT/AOT_stimuli/rescaled_final/0645_rv.mp4	0.0	214.0446810722351	
41	195.08022713661194	pulse	1	t		39.0	2.5	/experiments/knapen_AOT/AOT_stimuli/rescaled_final/0645_rv.mp4	0.0	215.63339710235596	
41	195.59576106071472	fix_post	2		12	39.0	2.5	/experiments/knapen_AOT/AOT_stimuli/rescaled_final/0645_rv.mp4	0.0	216.14893102645874	0.09993910789489746
42	195.69570016860962	fix_pre	0		120	40.0	2.5	/experiments/knapen_AOT/AOT_stimuli/rescaled_final/1839_fw.mp4	0.0	216.24887013435364	1.0002269744873047
42	196.68034505844116	pulse	0	t		40.0	2.5	/experiments/knapen_AOT/AOT_stimuli/rescaled_final/1839_fw.mp4	0.0	217.23351502418518	
42	196.69592714309692	movie	1		243	40.0	2.5	/experiments/knapen_AOT/AOT_stimuli/rescaled_final/1839_fw.mp4	0.0	217.24909710884094	2.508643865585327
42	198.29243516921997	pulse	1	t		40.0	2.5	/experiments/knapen_AOT/AOT_stimuli/rescaled_final/1839_fw.mp4	0.0	218.845605134964	
42	199.20457100868225	fix_post	2		12	40.0	2.5	/experiments/knapen_AOT/AOT_stimuli/rescaled_final/1839_fw.mp4	0.0	219.75774097442627	0.1000051498413086
43	199.30457615852356	fix_pre	0		120	41.0	2.5	blank	1.0	219.85774612426758	1.0001718997955322
43	199.88057208061218	pulse	0	t		41.0	2.5	blank	1.0	220.4337420463562	
43	200.3047480583191	movie	1		300	41.0	2.5	blank	1.0	220.8579180240631	2.500411033630371
43	201.48008012771606	pulse	1	t		41.0	2.5	blank	1.0	222.03325009346008	
43	202.80515909194946	fix_post	2		12	41.0	2.5	blank	1.0	223.35832905769348	0.10001897811889648
44	202.90517807006836	fix_pre	0		120	42.0	2.5	/experiments/knapen_AOT/AOT_stimuli/rescaled_final/1611_fw.mp4	0.0	223.45834803581238	1.0002140998840332
44	203.08028316497803	pulse	0	t		42.0	2.5	/experiments/knapen_AOT/AOT_stimuli/rescaled_final/1611_fw.mp4	0.0	223.63345313072205	
44	203.9053921699524	movie	1		241	42.0	2.5	/experiments/knapen_AOT/AOT_stimuli/rescaled_final/1611_fw.mp4	0.0	224.4585621356964	2.4919238090515137
44	204.68065404891968	pulse	1	t		42.0	2.5	/experiments/knapen_AOT/AOT_stimuli/rescaled_final/1611_fw.mp4	0.0	225.2338240146637	
44	206.28077220916748	pulse	1	t		42.0	2.5	/experiments/knapen_AOT/AOT_stimuli/rescaled_final/1611_fw.mp4	0.0	226.8339421749115	
44	206.3973159790039	fix_post	2		12	42.0	2.5	/experiments/knapen_AOT/AOT_stimuli/rescaled_final/1611_fw.mp4	0.0	226.95048594474792	0.10005402565002441
45	206.49737000465393	fix_pre	0		120	43.0	2.5	/experiments/knapen_AOT/AOT_stimuli/rescaled_final/1102_rv.mp4	0.0	227.05053997039795	1.0001451969146729
45	207.4975152015686	movie	1		242	43.0	2.5	/experiments/knapen_AOT/AOT_stimuli/rescaled_final/1102_rv.mp4	0.0	228.05068516731262	2.5004630088806152
45	207.8814721107483	pulse	1	t		43.0	2.5	/experiments/knapen_AOT/AOT_stimuli/rescaled_final/1102_rv.mp4	0.0	228.4346420764923	
45	209.4813311100006	pulse	1	t		43.0	2.5	/experiments/knapen_AOT/AOT_stimuli/rescaled_final/1102_rv.mp4	0.0	230.03450107574463	
45	209.99797821044922	fix_post	2		12	43.0	2.5	/experiments/knapen_AOT/AOT_stimuli/rescaled_final/1102_rv.mp4	0.0	230.55114817619324	0.09986996650695801
46	210.09784817695618	fix_pre	0		119	44.0	2.5	/experiments/knapen_AOT/AOT_stimuli/rescaled_final/0841_fw.mp4	0.0	230.6510181427002	0.9918298721313477
46	211.08150506019592	pulse	0	t		44.0	2.5	/experiments/knapen_AOT/AOT_stimuli/rescaled_final/0841_fw.mp4	0.0	231.63467502593994	
46	211.08967804908752	movie	1		247	44.0	2.5	/experiments/knapen_AOT/AOT_stimuli/rescaled_final/0841_fw.mp4	0.0	231.64284801483154	2.5087649822235107
46	212.68290400505066	pulse	1	t		44.0	2.5	/experiments/knapen_AOT/AOT_stimuli/rescaled_final/0841_fw.mp4	0.0	233.23607397079468	
46	213.59844303131104	fix_post	2		12	44.0	2.5	/experiments/knapen_AOT/AOT_stimuli/rescaled_final/0841_fw.mp4	0.0	234.15161299705505	0.1000821590423584
47	213.6985251903534	fix_pre	0		120	45.0	2.5	/experiments/knapen_AOT/AOT_stimuli/rescaled_final/0714_rv.mp4	0.0	234.2516951560974	1.0000638961791992
47	214.2820451259613	pulse	0	t		45.0	2.5	/experiments/knapen_AOT/AOT_stimuli/rescaled_final/0714_rv.mp4	0.0	234.83521509170532	
47	214.6985890865326	movie	1		243	45.0	2.5	/experiments/knapen_AOT/AOT_stimuli/rescaled_final/0714_rv.mp4	0.0	235.2517590522766	2.5003468990325928
47	215.88240599632263	pulse	1	t		45.0	2.5	/experiments/knapen_AOT/AOT_stimuli/rescaled_final/0714_rv.mp4	0.0	236.43557596206665	
47	217.19893598556519	fix_post	2		12	45.0	2.5	/experiments/knapen_AOT/AOT_stimuli/rescaled_final/0714_rv.mp4	0.0	237.7521059513092	0.10001301765441895
48	217.2989490032196	fix_pre	0		118	46.0	2.5	/experiments/knapen_AOT/AOT_stimuli/rescaled_final/0595_rv.mp4	0.0	237.85211896896362	1.0001821517944336
48	217.48251509666443	pulse	0	t		46.0	2.5	/experiments/knapen_AOT/AOT_stimuli/rescaled_final/0595_rv.mp4	0.0	238.03568506240845	
48	218.29913115501404	movie	1		242	46.0	2.5	/experiments/knapen_AOT/AOT_stimuli/rescaled_final/0595_rv.mp4	0.0	238.85230112075806	2.5004138946533203
48	219.08274698257446	pulse	1	t		46.0	2.5	/experiments/knapen_AOT/AOT_stimuli/rescaled_final/0595_rv.mp4	0.0	239.63591694831848	
48	220.6828691959381	pulse	1	t		46.0	2.5	/experiments/knapen_AOT/AOT_stimuli/rescaled_final/0595_rv.mp4	0.0	241.23603916168213	
48	220.79954504966736	fix_post	2		12	46.0	2.5	/experiments/knapen_AOT/AOT_stimuli/rescaled_final/0595_rv.mp4	0.0	241.35271501541138	0.09999394416809082
49	220.89953899383545	fix_pre	0		119	47.0	2.5	blank	1.0	241.45270895957947	0.9917681217193604
49	221.8913071155548	movie	1		300	47.0	2.5	blank	1.0	242.44447708129883	2.5003418922424316
49	222.28332114219666	pulse	1	t		47.0	2.5	blank	1.0	242.83649110794067	
49	223.88357400894165	pulse	1	t		47.0	2.5	blank	1.0	244.43674397468567	
49	224.39164900779724	fix_post	2		12	47.0	2.5	blank	1.0	244.94481897354126	0.10001397132873535
50	224.49166297912598	fix_pre	0		120	48.0	2.5	/experiments/knapen_AOT/AOT_stimuli/rescaled_final/1556_rv.mp4	0.0	245.04483294487	1.000218152999878
50	225.48365306854248	pulse	0	t		48.0	2.5	/experiments/knapen_AOT/AOT_stimuli/rescaled_final/1556_rv.mp4	0.0	246.0368230342865	
50	225.49188113212585	movie	1		245	48.0	2.5	/experiments/knapen_AOT/AOT_stimuli/rescaled_final/1556_rv.mp4	0.0	246.04505109786987	2.5086870193481445
50	227.08545207977295	pulse	1	t		48.0	2.5	/experiments/knapen_AOT/AOT_stimuli/rescaled_final/1556_rv.mp4	0.0	247.63862204551697	
50	228.000568151474	fix_post	2		12	48.0	2.5	/experiments/knapen_AOT/AOT_stimuli/rescaled_final/1556_rv.mp4	0.0	248.55373811721802	0.10007405281066895
51	228.10064220428467	fix_pre	0		120	49.0	2.5	/experiments/knapen_AOT/AOT_stimuli/rescaled_final/1946_rv.mp4	0.0	248.6538121700287	1.000044822692871
51	228.68412399291992	pulse	0	t		49.0	2.5	/experiments/knapen_AOT/AOT_stimuli/rescaled_final/1946_rv.mp4	0.0	249.23729395866394	
51	229.10068702697754	movie	1		244	49.0	2.5	/experiments/knapen_AOT/AOT_stimuli/rescaled_final/1946_rv.mp4	0.0	249.65385699272156	2.5004210472106934
51	230.28057599067688	pulse	1	t		49.0	2.5	/experiments/knapen_AOT/AOT_stimuli/rescaled_final/1946_rv.mp4	0.0	250.8337459564209	
51	231.60110807418823	fix_post	2		12	49.0	2.5	/experiments/knapen_AOT/AOT_stimuli/rescaled_final/1946_rv.mp4	0.0	252.15427803993225	0.10000801086425781
52	231.7011160850525	fix_pre	0		120	50.0	2.5	/experiments/knapen_AOT/AOT_stimuli/rescaled_final/1737_fw.mp4	0.0	252.2542860507965	1.0001261234283447
52	231.88475513458252	pulse	0	t		50.0	2.5	/experiments/knapen_AOT/AOT_stimuli/rescaled_final/1737_fw.mp4	0.0	252.43792510032654	
52	232.70124220848083	movie	1		242	50.0	2.5	/experiments/knapen_AOT/AOT_stimuli/rescaled_final/1737_fw.mp4	0.0	253.25441217422485	2.5004398822784424
52	233.48486018180847	pulse	1	t		50.0	2.5	/experiments/knapen_AOT/AOT_stimuli/rescaled_final/1737_fw.mp4	0.0	254.0380301475525	
52	235.0855371952057	pulse	1	t		50.0	2.5	/experiments/knapen_AOT/AOT_stimuli/rescaled_final/1737_fw.mp4	0.0	255.6387071609497	
52	235.20168209075928	fix_post	2		12	50.0	2.5	/experiments/knapen_AOT/AOT_stimuli/rescaled_final/1737_fw.mp4	0.0	255.7548520565033	0.09996795654296875
53	235.30165004730225	fix_pre	0		119	51.0	2.5	/experiments/knapen_AOT/AOT_stimuli/rescaled_final/0719_fw.mp4	0.0	255.85482001304626	0.9918701648712158
53	236.29352021217346	movie	1		243	51.0	2.5	/experiments/knapen_AOT/AOT_stimuli/rescaled_final/0719_fw.mp4	0.0	256.8466901779175	2.5003678798675537
53	236.68545508384705	pulse	1	t		51.0	2.5	/experiments/knapen_AOT/AOT_stimuli/rescaled_final/0719_fw.mp4	0.0	257.23862504959106	
53	238.28577208518982	pulse	1	t		51.0	2.5	/experiments/knapen_AOT/AOT_stimuli/rescaled_final/0719_fw.mp4	0.0	258.83894205093384	
53	238.79388809204102	fix_post	2		12	51.0	2.5	/experiments/knapen_AOT/AOT_stimuli/rescaled_final/0719_fw.mp4	0.0	259.34705805778503	0.09999990463256836
54	238.89388799667358	fix_pre	0		120	52.0	2.5	/experiments/knapen_AOT/AOT_stimuli/rescaled_final/0192_fw.mp4	0.0	259.4470579624176	1.0000920295715332
54	239.88583397865295	pulse	0	t		52.0	2.5	/experiments/knapen_AOT/AOT_stimuli/rescaled_final/0192_fw.mp4	0.0	260.439003944397	
54	239.89398002624512	movie	1		245	52.0	2.5	/experiments/knapen_AOT/AOT_stimuli/rescaled_final/0192_fw.mp4	0.0	260.44714999198914	2.5087060928344727
54	241.48655700683594	pulse	1	t		52.0	2.5	/experiments/knapen_AOT/AOT_stimuli/rescaled_final/0192_fw.mp4	0.0	262.03972697257996	
54	242.4026861190796	fix_post	2		12	52.0	2.5	/experiments/knapen_AOT/AOT_stimuli/rescaled_final/0192_fw.mp4	0.0	262.9558560848236	0.10010004043579102
55	242.50278615951538	fix_pre	0		120	53.0	2.5	/experiments/knapen_AOT/AOT_stimuli/rescaled_final/0405_rv.mp4	0.0	263.0559561252594	1.0000638961791992
55	243.08634114265442	pulse	0	t		53.0	2.5	/experiments/knapen_AOT/AOT_stimuli/rescaled_final/0405_rv.mp4	0.0	263.63951110839844	
55	243.50285005569458	movie	1		242	53.0	2.5	/experiments/knapen_AOT/AOT_stimuli/rescaled_final/0405_rv.mp4	0.0	264.0560200214386	2.5005290508270264
55	244.67957401275635	pulse	1	t		53.0	2.5	/experiments/knapen_AOT/AOT_stimuli/rescaled_final/0405_rv.mp4	0.0	265.23274397850037	
55	246.0033791065216	fix_post	2		12	53.0	2.5	/experiments/knapen_AOT/AOT_stimuli/rescaled_final/0405_rv.mp4	0.0	266.5565490722656	0.09990501403808594
56	246.1032841205597	fix_pre	0		120	54.0	2.5	/experiments/knapen_AOT/AOT_stimuli/rescaled_final/0026_fw.mp4	0.0	266.6564540863037	1.0001389980316162
56	246.28682613372803	pulse	0	t		54.0	2.5	/experiments/knapen_AOT/AOT_stimuli/rescaled_final/0026_fw.mp4	0.0	266.83999609947205	
56	247.1034231185913	movie	1		243	54.0	2.5	/experiments/knapen_AOT/AOT_stimuli/rescaled_final/0026_fw.mp4	0.0	267.6565930843353	2.5003669261932373
56	247.8796730041504	pulse	1	t		54.0	2.5	/experiments/knapen_AOT/AOT_stimuli/rescaled_final/0026_fw.mp4	0.0	268.4328429698944	
56	249.4870581626892	pulse	1	t		54.0	2.5	/experiments/knapen_AOT/AOT_stimuli/rescaled_final/0026_fw.mp4	0.0	270.0402281284332	
56	249.60379004478455	fix_post	2		12	54.0	2.5	/experiments/knapen_AOT/AOT_stimuli/rescaled_final/0026_fw.mp4	0.0	270.15696001052856	0.0999901294708252
57	249.70378017425537	fix_pre	0		120	55.0	2.5	blank	1.0	270.2569501399994	1.0001659393310547
57	250.70394611358643	movie	1		299	55.0	2.5	blank	1.0	271.25711607933044	2.4920010566711426
57	251.0799901485443	pulse	1	t		55.0	2.5	blank	1.0	271.63316011428833	
57	252.68013715744019	pulse	1	t		55.0	2.5	blank	1.0	273.2333071231842	
57	253.19594717025757	fix_post	2		12	55.0	2.5	blank	1.0	273.7491171360016	0.10003781318664551
58	253.2959849834442	fix_pre	0		119	56.0	2.5	/experiments/knapen_AOT/AOT_stimuli/rescaled_final/1832_fw.mp4	0.0	273.84915494918823	0.9917941093444824
58	254.2797510623932	pulse	0	t		56.0	2.5	/experiments/knapen_AOT/AOT_stimuli/rescaled_final/1832_fw.mp4	0.0	274.8329210281372	
58	254.2877790927887	movie	1		244	56.0	2.5	/experiments/knapen_AOT/AOT_stimuli/rescaled_final/1832_fw.mp4	0.0	274.8409490585327	2.508723020553589
58	255.8811070919037	pulse	1	t		56.0	2.5	/experiments/knapen_AOT/AOT_stimuli/rescaled_final/1832_fw.mp4	0.0	276.4342770576477	
58	256.7965021133423	fix_post	2		12	56.0	2.5	/experiments/knapen_AOT/AOT_stimuli/rescaled_final/1832_fw.mp4	0.0	277.3496720790863	0.10009503364562988
59	256.8965971469879	fix_pre	0		120	57.0	2.5	/experiments/knapen_AOT/AOT_stimuli/rescaled_final/1528_fw.mp4	0.0	277.44976711273193	1.000128984451294
59	257.4800992012024	pulse	0	t		57.0	2.5	/experiments/knapen_AOT/AOT_stimuli/rescaled_final/1528_fw.mp4	0.0	278.0332691669464	
59	257.8967261314392	movie	1		246	57.0	2.5	/experiments/knapen_AOT/AOT_stimuli/rescaled_final/1528_fw.mp4	0.0	278.4498960971832	2.5003490447998047
59	259.0804400444031	pulse	1	t		57.0	2.5	/experiments/knapen_AOT/AOT_stimuli/rescaled_final/1528_fw.mp4	0.0	279.6336100101471	
59	260.397075176239	fix_post	2		12	57.0	2.5	/experiments/knapen_AOT/AOT_stimuli/rescaled_final/1528_fw.mp4	0.0	280.95024514198303	0.10001087188720703
60	260.4970860481262	fix_pre	0		120	58.0	2.5	/experiments/knapen_AOT/AOT_stimuli/rescaled_final/1966_fw.mp4	0.0	281.05025601387024	1.0001051425933838
60	260.6807050704956	pulse	0	t		58.0	2.5	/experiments/knapen_AOT/AOT_stimuli/rescaled_final/1966_fw.mp4	0.0	281.2338750362396	
60	261.4971911907196	movie	1		242	58.0	2.5	/experiments/knapen_AOT/AOT_stimuli/rescaled_final/1966_fw.mp4	0.0	282.0503611564636	2.500483989715576
60	262.2807970046997	pulse	1	t		58.0	2.5	/experiments/knapen_AOT/AOT_stimuli/rescaled_final/1966_fw.mp4	0.0	282.8339669704437	
60	263.88237500190735	pulse	1	t		58.0	2.5	/experiments/knapen_AOT/AOT_stimuli/rescaled_final/1966_fw.mp4	0.0	284.43554496765137	
60	263.9976751804352	fix_post	2		12	58.0	2.5	/experiments/knapen_AOT/AOT_stimuli/rescaled_final/1966_fw.mp4	0.0	284.5508451461792	0.0999000072479248
61	264.0975751876831	fix_pre	0		120	59.0	2.5	/experiments/knapen_AOT/AOT_stimuli/rescaled_final/0831_fw.mp4	0.0	284.6507451534271	1.0001978874206543
61	265.09777307510376	movie	1		241	59.0	2.5	/experiments/knapen_AOT/AOT_stimuli/rescaled_final/0831_fw.mp4	0.0	285.6509430408478	2.4920310974121094
61	265.48626708984375	pulse	1	t		59.0	2.5	/experiments/knapen_AOT/AOT_stimuli/rescaled_final/0831_fw.mp4	0.0	286.03943705558777	
61	267.0816102027893	pulse	1	t		59.0	2.5	/experiments/knapen_AOT/AOT_stimuli/rescaled_final/0831_fw.mp4	0.0	287.6347801685333	
61	267.58980417251587	fix_post	2		12	59.0	2.5	/experiments/knapen_AOT/AOT_stimuli/rescaled_final/0831_fw.mp4	0.0	288.1429741382599	0.10007596015930176
62	267.68988013267517	fix_pre	0		120	60.0	2.5	/experiments/knapen_AOT/AOT_stimuli/rescaled_final/0391_rv.mp4	0.0	288.2430500984192	1.0000569820404053
62	268.68177008628845	pulse	0	t		60.0	2.5	/experiments/knapen_AOT/AOT_stimuli/rescaled_final/0391_rv.mp4	0.0	289.23494005203247	
62	268.6899371147156	movie	1		244	60.0	2.5	/experiments/knapen_AOT/AOT_stimuli/rescaled_final/0391_rv.mp4	0.0	289.2431070804596	2.5087380409240723
62	270.28255319595337	pulse	1	t		60.0	2.5	/experiments/knapen_AOT/AOT_stimuli/rescaled_final/0391_rv.mp4	0.0	290.8357231616974	
62	271.19867515563965	fix_post	2		12	60.0	2.5	/experiments/knapen_AOT/AOT_stimuli/rescaled_final/0391_rv.mp4	0.0	291.75184512138367	0.09997701644897461
63	271.2986521720886	fix_pre	0		120	61.0	2.5	/experiments/knapen_AOT/AOT_stimuli/rescaled_final/0073_rv.mp4	0.0	291.85182213783264	1.0001778602600098
63	271.88241505622864	pulse	0	t		61.0	2.5	/experiments/knapen_AOT/AOT_stimuli/rescaled_final/0073_rv.mp4	0.0	292.43558502197266	
63	272.29883003234863	movie	1		242	61.0	2.5	/experiments/knapen_AOT/AOT_stimuli/rescaled_final/0073_rv.mp4	0.0	292.85199999809265	2.500533103942871
63	273.48253417015076	pulse	1	t		61.0	2.5	/experiments/knapen_AOT/AOT_stimuli/rescaled_final/0073_rv.mp4	0.0	294.0357041358948	
63	274.7993631362915	fix_post	2		12	61.0	2.5	/experiments/knapen_AOT/AOT_stimuli/rescaled_final/0073_rv.mp4	0.0	295.3525331020355	0.09986495971679688
64	274.8992280960083	fix_pre	0		120	62.0	2.5	/experiments/knapen_AOT/AOT_stimuli/rescaled_final/2013_fw.mp4	0.0	295.4523980617523	1.0001640319824219
64	275.08280205726624	pulse	0	t		62.0	2.5	/experiments/knapen_AOT/AOT_stimuli/rescaled_final/2013_fw.mp4	0.0	295.63597202301025	
64	275.8993921279907	movie	1		243	62.0	2.5	/experiments/knapen_AOT/AOT_stimuli/rescaled_final/2013_fw.mp4	0.0	296.45256209373474	2.5003650188446045
64	276.6829500198364	pulse	1	t		62.0	2.5	/experiments/knapen_AOT/AOT_stimuli/rescaled_final/2013_fw.mp4	0.0	297.23611998558044	
64	278.2830550670624	pulse	1	t		62.0	2.5	/experiments/knapen_AOT/AOT_stimuli/rescaled_final/2013_fw.mp4	0.0	298.8362250328064	
64	278.3997571468353	fix_post	2		12	62.0	2.5	/experiments/knapen_AOT/AOT_stimuli/rescaled_final/2013_fw.mp4	0.0	298.95292711257935	0.09996700286865234
65	278.499724149704	fix_pre	0		116	63.0	2.5	blank	1.0	299.052894115448	0.9918398857116699
65	279.49156403541565	movie	1		300	63.0	2.5	blank	1.0	300.04473400115967	2.5004680156707764
65	279.8834969997406	pulse	1	t		63.0	2.5	blank	1.0	300.4366669654846	
65	281.48365902900696	pulse	1	t		63.0	2.5	blank	1.0	302.036828994751	
65	281.9920320510864	fix_post	2		12	63.0	2.5	blank	1.0	302.54520201683044	0.09995293617248535
66	282.0919849872589	fix_pre	0		120	64.0	2.5	/experiments/knapen_AOT/AOT_stimuli/rescaled_final/1635_fw.mp4	0.0	302.64515495300293	1.0001411437988281
66	283.0840120315552	pulse	0	t		64.0	2.5	/experiments/knapen_AOT/AOT_stimuli/rescaled_final/1635_fw.mp4	0.0	303.6371819972992	
66	283.09212613105774	movie	1		244	64.0	2.5	/experiments/knapen_AOT/AOT_stimuli/rescaled_final/1635_fw.mp4	0.0	303.64529609680176	2.508746862411499
66	284.6849310398102	pulse	1	t		64.0	2.5	/experiments/knapen_AOT/AOT_stimuli/rescaled_final/1635_fw.mp4	0.0	305.2381010055542	
66	285.60087299346924	fix_post	2		12	64.0	2.5	/experiments/knapen_AOT/AOT_stimuli/rescaled_final/1635_fw.mp4	0.0	306.15404295921326	0.09992098808288574
67	285.7007939815521	fix_pre	0		120	65.0	2.5	/experiments/knapen_AOT/AOT_stimuli/rescaled_final/1102_fw.mp4	0.0	306.25396394729614	1.000176191329956
67	286.2845461368561	pulse	0	t		65.0	2.5	/experiments/knapen_AOT/AOT_stimuli/rescaled_final/1102_fw.mp4	0.0	306.8377161026001	
67	286.7009701728821	movie	1		243	65.0	2.5	/experiments/knapen_AOT/AOT_stimuli/rescaled_final/1102_fw.mp4	0.0	307.2541401386261	2.5003459453582764
67	287.8847072124481	pulse	1	t		65.0	2.5	/experiments/knapen_AOT/AOT_stimuli/rescaled_final/1102_fw.mp4	0.0	308.43787717819214	
67	289.20131611824036	fix_post	2		12	65.0	2.5	/experiments/knapen_AOT/AOT_stimuli/rescaled_final/1102_fw.mp4	0.0	309.7544860839844	0.10008597373962402
68	289.30140209198	fix_pre	0		120	66.0	2.5	/experiments/knapen_AOT/AOT_stimuli/rescaled_final/0719_rv.mp4	0.0	309.854572057724	1.000087022781372
68	289.48488306999207	pulse	0	t		66.0	2.5	/experiments/knapen_AOT/AOT_stimuli/rescaled_final/0719_rv.mp4	0.0	310.0380530357361	
68	290.30148911476135	movie	1		243	66.0	2.5	/experiments/knapen_AOT/AOT_stimuli/rescaled_final/0719_rv.mp4	0.0	310.85465908050537	2.500458002090454
68	291.0852611064911	pulse	1	t		66.0	2.5	/experiments/knapen_AOT/AOT_stimuli/rescaled_final/0719_rv.mp4	0.0	311.6384310722351	
68	292.68537998199463	pulse	1	t		66.0	2.5	/experiments/knapen_AOT/AOT_stimuli/rescaled_final/0719_rv.mp4	0.0	313.23854994773865	
68	292.8019471168518	fix_post	2		12	66.0	2.5	/experiments/knapen_AOT/AOT_stimuli/rescaled_final/0719_rv.mp4	0.0	313.3551170825958	0.09992599487304688
69	292.90187311172485	fix_pre	0		120	67.0	2.5	/experiments/knapen_AOT/AOT_stimuli/rescaled_final/0702_rv.mp4	0.0	313.4550430774689	1.0002059936523438
69	293.9020791053772	movie	1		241	67.0	2.5	/experiments/knapen_AOT/AOT_stimuli/rescaled_final/0702_rv.mp4	0.0	314.4552490711212	2.492233991622925
69	294.286071062088	pulse	1	t		67.0	2.5	/experiments/knapen_AOT/AOT_stimuli/rescaled_final/0702_rv.mp4	0.0	314.83924102783203	
69	295.8857982158661	pulse	1	t		67.0	2.5	/experiments/knapen_AOT/AOT_stimuli/rescaled_final/0702_rv.mp4	0.0	316.4389681816101	
69	296.3943130970001	fix_post	2		12	67.0	2.5	/experiments/knapen_AOT/AOT_stimuli/rescaled_final/0702_rv.mp4	0.0	316.94748306274414	0.09977197647094727
70	296.49408507347107	fix_pre	0		120	68.0	2.5	/experiments/knapen_AOT/AOT_stimuli/rescaled_final/0542_fw.mp4	0.0	317.0472550392151	1.0002069473266602
70	297.4860701560974	pulse	0	t		68.0	2.5	/experiments/knapen_AOT/AOT_stimuli/rescaled_final/0542_fw.mp4	0.0	318.03924012184143	
70	297.49429202079773	movie	1		246	68.0	2.5	/experiments/knapen_AOT/AOT_stimuli/rescaled_final/0542_fw.mp4	0.0	318.04746198654175	2.50874400138855
70	299.0870051383972	pulse	1	t		68.0	2.5	/experiments/knapen_AOT/AOT_stimuli/rescaled_final/0542_fw.mp4	0.0	319.64017510414124	
70	300.0030360221863	fix_post	2		12	68.0	2.5	/experiments/knapen_AOT/AOT_stimuli/rescaled_final/0542_fw.mp4	0.0	320.5562059879303	0.09992504119873047
71	300.102961063385	fix_pre	0		120	69.0	2.5	/experiments/knapen_AOT/AOT_stimuli/rescaled_final/0752_fw.mp4	0.0	320.656131029129	1.0002529621124268
71	300.6867220401764	pulse	0	t		69.0	2.5	/experiments/knapen_AOT/AOT_stimuli/rescaled_final/0752_fw.mp4	0.0	321.2398920059204	
71	301.10321402549744	movie	1		244	69.0	2.5	/experiments/knapen_AOT/AOT_stimuli/rescaled_final/0752_fw.mp4	0.0	321.65638399124146	2.5003321170806885
71	302.28688406944275	pulse	1	t		69.0	2.5	/experiments/knapen_AOT/AOT_stimuli/rescaled_final/0752_fw.mp4	0.0	322.84005403518677	
71	303.6035461425781	fix_post	2		12	69.0	2.5	/experiments/knapen_AOT/AOT_stimuli/rescaled_final/0752_fw.mp4	0.0	324.15671610832214	0.1000070571899414
72	303.70355319976807	fix_pre	0		120	70.0	2.5	blank	1.0	324.2567231655121	1.0001029968261719
72	303.8871030807495	pulse	0	t		70.0	2.5	blank	1.0	324.44027304649353	
72	304.70365619659424	movie	1		300	70.0	2.5	blank	1.0	325.25682616233826	2.500356912612915
72	305.48739409446716	pulse	1	t		70.0	2.5	blank	1.0	326.0405640602112	
72	307.0801420211792	pulse	1	t		70.0	2.5	blank	1.0	327.6333119869232	
72	307.20401310920715	fix_post	2		12	70.0	2.5	blank	1.0	327.7571830749512	0.10004091262817383
73	307.3040540218353	fix_pre	0		119	71.0	2.5	/experiments/knapen_AOT/AOT_stimuli/rescaled_final/0073_fw.mp4	0.0	327.85722398757935	0.99180006980896
73	308.2958540916443	movie	1		244	71.0	2.5	/experiments/knapen_AOT/AOT_stimuli/rescaled_final/0073_fw.mp4	0.0	328.8490240573883	2.5004260540008545
73	308.6807451248169	pulse	1	t		71.0	2.5	/experiments/knapen_AOT/AOT_stimuli/rescaled_final/0073_fw.mp4	0.0	329.2339150905609	
73	310.2806251049042	pulse	1	t		71.0	2.5	/experiments/knapen_AOT/AOT_stimuli/rescaled_final/0073_fw.mp4	0.0	330.8337950706482	
73	310.79628014564514	fix_post	2		12	71.0	2.5	/experiments/knapen_AOT/AOT_stimuli/rescaled_final/0073_fw.mp4	0.0	331.34945011138916	0.10001897811889648
74	310.89629912376404	fix_pre	0		120	72.0	2.5	/experiments/knapen_AOT/AOT_stimuli/rescaled_final/1581_fw.mp4	0.0	331.44946908950806	1.0001709461212158
74	311.8806641101837	pulse	0	t		72.0	2.5	/experiments/knapen_AOT/AOT_stimuli/rescaled_final/1581_fw.mp4	0.0	332.43383407592773	
74	311.89647006988525	movie	1		246	72.0	2.5	/experiments/knapen_AOT/AOT_stimuli/rescaled_final/1581_fw.mp4	0.0	332.4496400356293	2.5086801052093506
74	313.48955607414246	pulse	1	t		72.0	2.5	/experiments/knapen_AOT/AOT_stimuli/rescaled_final/1581_fw.mp4	0.0	334.0427260398865	
74	314.4051501750946	fix_post	2		12	72.0	2.5	/experiments/knapen_AOT/AOT_stimuli/rescaled_final/1581_fw.mp4	0.0	334.9583201408386	0.09993791580200195
75	314.5050880908966	fix_pre	0		120	73.0	2.5	/experiments/knapen_AOT/AOT_stimuli/rescaled_final/1994_rv.mp4	0.0	335.0582580566406	1.0002360343933105
75	315.08123302459717	pulse	0	t		73.0	2.5	/experiments/knapen_AOT/AOT_stimuli/rescaled_final/1994_rv.mp4	0.0	335.6344029903412	
75	315.5053241252899	movie	1		244	73.0	2.5	/experiments/knapen_AOT/AOT_stimuli/rescaled_final/1994_rv.mp4	0.0	336.05849409103394	2.500308036804199
75	316.68115520477295	pulse	1	t		73.0	2.5	/experiments/knapen_AOT/AOT_stimuli/rescaled_final/1994_rv.mp4	0.0	337.23432517051697	
75	318.0056321620941	fix_post	2		12	73.0	2.5	/experiments/knapen_AOT/AOT_stimuli/rescaled_final/1994_rv.mp4	0.0	338.55880212783813	0.09999799728393555
76	318.10563015937805	fix_pre	0		120	74.0	2.5	/experiments/knapen_AOT/AOT_stimuli/rescaled_final/1892_fw.mp4	0.0	338.65880012512207	1.000180959701538
76	318.2807891368866	pulse	0	t		74.0	2.5	/experiments/knapen_AOT/AOT_stimuli/rescaled_final/1892_fw.mp4	0.0	338.8339591026306	
76	319.1058111190796	movie	1		243	74.0	2.5	/experiments/knapen_AOT/AOT_stimuli/rescaled_final/1892_fw.mp4	0.0	339.6589810848236	2.500525951385498
76	319.88108015060425	pulse	1	t		74.0	2.5	/experiments/knapen_AOT/AOT_stimuli/rescaled_final/1892_fw.mp4	0.0	340.43425011634827	
76	321.4814920425415	pulse	1	t		74.0	2.5	/experiments/knapen_AOT/AOT_stimuli/rescaled_final/1892_fw.mp4	0.0	342.0346620082855	
76	321.6063370704651	fix_post	2		12	74.0	2.5	/experiments/knapen_AOT/AOT_stimuli/rescaled_final/1892_fw.mp4	0.0	342.1595070362091	0.09987211227416992
77	321.70620918273926	fix_pre	0		120	75.0	2.5	blank	1.0	342.2593791484833	1.000168800354004
77	322.70637798309326	movie	1		299	75.0	2.5	blank	1.0	343.2595479488373	2.4919919967651367
77	323.08169317245483	pulse	1	t		75.0	2.5	blank	1.0	343.63486313819885	
77	324.681823015213	pulse	1	t		75.0	2.5	blank	1.0	345.23499298095703	
77	325.1983699798584	fix_post	2		12	75.0	2.5	blank	1.0	345.7515399456024	0.0999901294708252
78	325.2983601093292	fix_pre	0		119	76.0	2.5	/experiments/knapen_AOT/AOT_stimuli/rescaled_final/0372_fw.mp4	0.0	345.85153007507324	0.9918880462646484
78	326.2819972038269	pulse	0	t		76.0	2.5	/experiments/knapen_AOT/AOT_stimuli/rescaled_final/0372_fw.mp4	0.0	346.8351671695709	
78	326.2902481555939	movie	1		245	76.0	2.5	/experiments/knapen_AOT/AOT_stimuli/rescaled_final/0372_fw.mp4	0.0	346.8434181213379	2.5087058544158936
78	327.8835461139679	pulse	1	t		76.0	2.5	/experiments/knapen_AOT/AOT_stimuli/rescaled_final/0372_fw.mp4	0.0	348.4367160797119	
78	328.79895401000977	fix_post	2		12	76.0	2.5	/experiments/knapen_AOT/AOT_stimuli/rescaled_final/0372_fw.mp4	0.0	349.3521239757538	0.10006904602050781
79	328.8990230560303	fix_pre	0		120	77.0	2.5	/experiments/knapen_AOT/AOT_stimuli/rescaled_final/1051_fw.mp4	0.0	349.4521930217743	1.0000741481781006
79	329.4826600551605	pulse	0	t		77.0	2.5	/experiments/knapen_AOT/AOT_stimuli/rescaled_final/1051_fw.mp4	0.0	350.03583002090454	
79	329.8990972042084	movie	1		243	77.0	2.5	/experiments/knapen_AOT/AOT_stimuli/rescaled_final/1051_fw.mp4	0.0	350.4522671699524	2.500351905822754
79	331.08298802375793	pulse	1	t		77.0	2.5	/experiments/knapen_AOT/AOT_stimuli/rescaled_final/1051_fw.mp4	0.0	351.63615798950195	
79	332.3994491100311	fix_post	2		12	77.0	2.5	/experiments/knapen_AOT/AOT_stimuli/rescaled_final/1051_fw.mp4	0.0	352.95261907577515	0.10007095336914062
80	332.49952006340027	fix_pre	0		120	78.0	2.5	/experiments/knapen_AOT/AOT_stimuli/rescaled_final/0978_fw.mp4	0.0	353.0526900291443	1.0000879764556885
80	332.6829950809479	pulse	0	t		78.0	2.5	/experiments/knapen_AOT/AOT_stimuli/rescaled_final/0978_fw.mp4	0.0	353.2361650466919	
80	333.49960803985596	movie	1		242	78.0	2.5	/experiments/knapen_AOT/AOT_stimuli/rescaled_final/0978_fw.mp4	0.0	354.0527780056	2.500441074371338
80	334.2832291126251	pulse	1	t		78.0	2.5	/experiments/knapen_AOT/AOT_stimuli/rescaled_final/0978_fw.mp4	0.0	354.83639907836914	
80	335.8835070133209	pulse	1	t		78.0	2.5	/experiments/knapen_AOT/AOT_stimuli/rescaled_final/0978_fw.mp4	0.0	356.43667697906494	
80	336.0000491142273	fix_post	2		12	78.0	2.5	/experiments/knapen_AOT/AOT_stimuli/rescaled_final/0978_fw.mp4	0.0	356.5532190799713	0.09993696212768555
81	336.099986076355	fix_pre	0		119	79.0	2.5	/experiments/knapen_AOT/AOT_stimuli/rescaled_final/0222_rv.mp4	0.0	356.653156042099	0.9918489456176758
81	337.09183502197266	movie	1		239	79.0	2.5	/experiments/knapen_AOT/AOT_stimuli/rescaled_final/0222_rv.mp4	0.0	357.6450049877167	2.5004451274871826
81	337.4801540374756	pulse	1	t		79.0	2.5	/experiments/knapen_AOT/AOT_stimuli/rescaled_final/0222_rv.mp4	0.0	358.0333240032196	
81	339.08402609825134	pulse	1	t		79.0	2.5	/experiments/knapen_AOT/AOT_stimuli/rescaled_final/0222_rv.mp4	0.0	359.63719606399536	
81	339.59228014945984	fix_post	2		12	79.0	2.5	/experiments/knapen_AOT/AOT_stimuli/rescaled_final/0222_rv.mp4	0.0	360.14545011520386	0.1000218391418457
82	339.6923019886017	fix_pre	0		120	80.0	2.5	/experiments/knapen_AOT/AOT_stimuli/rescaled_final/1482_rv.mp4	0.0	360.2454719543457	1.000028133392334
82	340.6841859817505	pulse	0	t		80.0	2.5	/experiments/knapen_AOT/AOT_stimuli/rescaled_final/1482_rv.mp4	0.0	361.2373559474945	
82	340.692330121994	movie	1		243	80.0	2.5	/experiments/knapen_AOT/AOT_stimuli/rescaled_final/1482_rv.mp4	0.0	361.24550008773804	2.50871205329895
82	342.2854800224304	pulse	1	t		80.0	2.5	/experiments/knapen_AOT/AOT_stimuli/rescaled_final/1482_rv.mp4	0.0	362.83864998817444	
82	343.20104217529297	fix_post	2		12	80.0	2.5	/experiments/knapen_AOT/AOT_stimuli/rescaled_final/1482_rv.mp4	0.0	363.754212141037	0.10006189346313477
83	343.3011040687561	fix_pre	0		120	81.0	2.5	/experiments/knapen_AOT/AOT_stimuli/rescaled_final/2058_rv.mp4	0.0	363.8542740345001	1.0001370906829834
83	343.88468408584595	pulse	0	t		81.0	2.5	/experiments/knapen_AOT/AOT_stimuli/rescaled_final/2058_rv.mp4	0.0	364.43785405158997	
83	344.3012411594391	movie	1		242	81.0	2.5	/experiments/knapen_AOT/AOT_stimuli/rescaled_final/2058_rv.mp4	0.0	364.8544111251831	2.500537872314453
83	345.48503518104553	pulse	1	t		81.0	2.5	/experiments/knapen_AOT/AOT_stimuli/rescaled_final/2058_rv.mp4	0.0	366.03820514678955	
83	346.80177903175354	fix_post	2		12	81.0	2.5	/experiments/knapen_AOT/AOT_stimuli/rescaled_final/2058_rv.mp4	0.0	367.35494899749756	0.0998389720916748
84	346.9016180038452	fix_pre	0		120	82.0	2.5	/experiments/knapen_AOT/AOT_stimuli/rescaled_final/1623_rv.mp4	0.0	367.45478796958923	1.0002031326293945
84	347.0852541923523	pulse	0	t		82.0	2.5	/experiments/knapen_AOT/AOT_stimuli/rescaled_final/1623_rv.mp4	0.0	367.6384241580963	
84	347.9018211364746	movie	1		243	82.0	2.5	/experiments/knapen_AOT/AOT_stimuli/rescaled_final/1623_rv.mp4	0.0	368.4549911022186	2.500377893447876
84	348.68533205986023	pulse	1	t		82.0	2.5	/experiments/knapen_AOT/AOT_stimuli/rescaled_final/1623_rv.mp4	0.0	369.23850202560425	
84	350.2857801914215	pulse	1	t		82.0	2.5	/experiments/knapen_AOT/AOT_stimuli/rescaled_final/1623_rv.mp4	0.0	370.8389501571655	
84	350.4021990299225	fix_post	2		12	82.0	2.5	/experiments/knapen_AOT/AOT_stimuli/rescaled_final/1623_rv.mp4	0.0	370.9553689956665	0.09998202323913574
85	350.5021810531616	fix_pre	0		120	83.0	2.5	blank	1.0	371.05535101890564	1.000108003616333
85	351.50228905677795	movie	1		299	83.0	2.5	blank	1.0	372.055459022522	2.4920639991760254
85	351.88588404655457	pulse	1	t		83.0	2.5	blank	1.0	372.4390540122986	
85	353.4862542152405	pulse	1	t		83.0	2.5	blank	1.0	374.0394241809845	
85	353.994353055954	fix_post	2		12	83.0	2.5	blank	1.0	374.547523021698	0.10003995895385742
87	354.09439301490784	stim	0		1716					374.64756298065186	14.302090167999268
87	355.0863950252533	pulse	0	t						375.6395649909973	
87	356.6865701675415	pulse	0	t						377.2397401332855	
87	358.28687810897827	pulse	0	t						378.8400480747223	
87	359.88711404800415	pulse	0	t						380.44028401374817	
87	361.48006200790405	pulse	0	t						382.03323197364807	
87	363.08038806915283	pulse	0	t						383.63355803489685	
87	364.6805021762848	pulse	0	t						385.2336721420288	
87	366.2805771827698	pulse	0	t						386.8337471485138	
87	367.8799149990082	pulse	0	t						388.4330849647522	
