trial_nr	onset	event_type	phase	response	nr_frames	movie_index	movie_duration	movie_file	blank	onset_abs	duration
0	0.21667218208312988	stim	0		1238					64.74535322189331	10.318043947219849
0	10.52649211883545	response	0	space						75.05517315864563	
1	10.534716129302979	stim	0		3720					75.06339716911316	31.01661205291748
1	41.53632998466492	pulse	0	t						106.0650110244751	
1	41.55132818222046	stim	1		1712					106.08000922203064	14.298536777496338
1	43.13139605522156	pulse	1	t						107.66007709503174	
1	44.731669187545776	pulse	1	t						109.26035022735596	
1	46.33186101913452	pulse	1	t						110.8605420589447	
1	47.93222117424011	pulse	1	t						112.4609022140503	
1	49.53238105773926	pulse	1	t						114.06106209754944	
1	51.13267517089844	pulse	1	t						115.66135621070862	
1	52.73292112350464	pulse	1	t						117.26160216331482	
1	54.33312702178955	pulse	1	t						118.86180806159973	
2	55.8498649597168	fix_pre	0		11	0.0	2.5	/experiments/knapen_AOT/AOT_stimuli/rescaled_final/1511_rv.mp4	0.0	120.37854599952698	0.10013604164123535
2	55.92583703994751	pulse	0	t		0.0	2.5	/experiments/knapen_AOT/AOT_stimuli/rescaled_final/1511_rv.mp4	0.0	120.45451807975769	
2	55.95000100135803	movie	1		242	0.0	2.5	/experiments/knapen_AOT/AOT_stimuli/rescaled_final/1511_rv.mp4	0.0	120.47868204116821	2.500262975692749
2	57.53419613838196	pulse	1	t		0.0	2.5	/experiments/knapen_AOT/AOT_stimuli/rescaled_final/1511_rv.mp4	0.0	122.06287717819214	
2	58.45026397705078	fix_post	2		12	0.0	2.5	/experiments/knapen_AOT/AOT_stimuli/rescaled_final/1511_rv.mp4	0.0	122.97894501686096	0.09995317459106445
3	58.550217151641846	fix_pre	0		120	1.0	2.5	/experiments/knapen_AOT/AOT_stimuli/rescaled_final/1857_fw.mp4	0.0	123.07889819145203	1.000169038772583
3	59.12628507614136	pulse	0	t		1.0	2.5	/experiments/knapen_AOT/AOT_stimuli/rescaled_final/1857_fw.mp4	0.0	123.65496611595154	
3	59.55038619041443	movie	1		244	1.0	2.5	/experiments/knapen_AOT/AOT_stimuli/rescaled_final/1857_fw.mp4	0.0	124.07906723022461	2.5004029273986816
3	60.72639298439026	pulse	1	t		1.0	2.5	/experiments/knapen_AOT/AOT_stimuli/rescaled_final/1857_fw.mp4	0.0	125.25507402420044	
3	62.05078911781311	fix_post	2		12	1.0	2.5	/experiments/knapen_AOT/AOT_stimuli/rescaled_final/1857_fw.mp4	0.0	126.57947015762329	0.0999760627746582
4	62.15076518058777	fix_pre	0		120	2.0	2.5	/experiments/knapen_AOT/AOT_stimuli/rescaled_final/1132_fw.mp4	0.0	126.67944622039795	1.0001599788665771
4	62.32613706588745	pulse	0	t		2.0	2.5	/experiments/knapen_AOT/AOT_stimuli/rescaled_final/1132_fw.mp4	0.0	126.85481810569763	
4	63.150925159454346	movie	1		244	2.0	2.5	/experiments/knapen_AOT/AOT_stimuli/rescaled_final/1132_fw.mp4	0.0	127.67960619926453	2.500386953353882
4	63.926194190979004	pulse	1	t		2.0	2.5	/experiments/knapen_AOT/AOT_stimuli/rescaled_final/1132_fw.mp4	0.0	128.45487523078918	
4	65.52645707130432	pulse	1	t		2.0	2.5	/experiments/knapen_AOT/AOT_stimuli/rescaled_final/1132_fw.mp4	0.0	130.0551381111145	
4	65.65131211280823	fix_post	2		12	2.0	2.5	/experiments/knapen_AOT/AOT_stimuli/rescaled_final/1132_fw.mp4	0.0	130.1799931526184	0.09998798370361328
5	65.75130009651184	fix_pre	0		119	3.0	2.5	/experiments/knapen_AOT/AOT_stimuli/rescaled_final/1207_fw.mp4	0.0	130.27998113632202	0.9918420314788818
5	66.74314212799072	movie	1		244	3.0	2.5	/experiments/knapen_AOT/AOT_stimuli/rescaled_final/1207_fw.mp4	0.0	131.2718231678009	2.5004849433898926
5	67.13139200210571	pulse	1	t		3.0	2.5	/experiments/knapen_AOT/AOT_stimuli/rescaled_final/1207_fw.mp4	0.0	131.6600730419159	
5	68.72704410552979	pulse	1	t		3.0	2.5	/experiments/knapen_AOT/AOT_stimuli/rescaled_final/1207_fw.mp4	0.0	133.25572514533997	
5	69.24362707138062	fix_post	2		12	3.0	2.5	/experiments/knapen_AOT/AOT_stimuli/rescaled_final/1207_fw.mp4	0.0	133.7723081111908	0.09986996650695801
6	69.34349703788757	fix_pre	0		119	4.0	2.5	/experiments/knapen_AOT/AOT_stimuli/rescaled_final/1183_fw.mp4	0.0	133.87217807769775	0.9918501377105713
6	70.32718110084534	pulse	0	t		4.0	2.5	/experiments/knapen_AOT/AOT_stimuli/rescaled_final/1183_fw.mp4	0.0	134.85586214065552	
6	70.33534717559814	movie	1		245	4.0	2.5	/experiments/knapen_AOT/AOT_stimuli/rescaled_final/1183_fw.mp4	0.0	134.86402821540833	2.5086758136749268
6	71.92802810668945	pulse	1	t		4.0	2.5	/experiments/knapen_AOT/AOT_stimuli/rescaled_final/1183_fw.mp4	0.0	136.45670914649963	
6	72.84402298927307	fix_post	2		12	4.0	2.5	/experiments/knapen_AOT/AOT_stimuli/rescaled_final/1183_fw.mp4	0.0	137.37270402908325	0.10010409355163574
7	72.9441270828247	fix_pre	0		120	5.0	2.5	/experiments/knapen_AOT/AOT_stimuli/rescaled_final/0637_fw.mp4	0.0	137.4728081226349	1.0000898838043213
7	73.52765011787415	pulse	0	t		5.0	2.5	/experiments/knapen_AOT/AOT_stimuli/rescaled_final/0637_fw.mp4	0.0	138.05633115768433	
7	73.94421696662903	movie	1		244	5.0	2.5	/experiments/knapen_AOT/AOT_stimuli/rescaled_final/0637_fw.mp4	0.0	138.4728980064392	2.5003881454467773
7	75.12800312042236	pulse	1	t		5.0	2.5	/experiments/knapen_AOT/AOT_stimuli/rescaled_final/0637_fw.mp4	0.0	139.65668416023254	
7	76.4446051120758	fix_post	2		12	5.0	2.5	/experiments/knapen_AOT/AOT_stimuli/rescaled_final/0637_fw.mp4	0.0	140.973286151886	0.1000070571899414
8	76.54461216926575	fix_pre	0		120	6.0	2.5	blank	1.0	141.07329320907593	1.0001649856567383
8	76.72818207740784	pulse	0	t		6.0	2.5	blank	1.0	141.25686311721802	
8	77.54477715492249	movie	1		300	6.0	2.5	blank	1.0	142.07345819473267	2.5003459453582764
8	78.32835006713867	pulse	1	t		6.0	2.5	blank	1.0	142.85703110694885	
8	79.92870807647705	pulse	1	t		6.0	2.5	blank	1.0	144.45738911628723	
8	80.04512310028076	fix_post	2		12	6.0	2.5	blank	1.0	144.57380414009094	0.10001206398010254
9	80.14513516426086	fix_pre	0		119	7.0	2.5	/experiments/knapen_AOT/AOT_stimuli/rescaled_final/0386_rv.mp4	0.0	144.67381620407104	0.9917988777160645
9	81.13693404197693	movie	1		245	7.0	2.5	/experiments/knapen_AOT/AOT_stimuli/rescaled_final/0386_rv.mp4	0.0	145.6656150817871	2.5003600120544434
9	81.52907109260559	pulse	1	t		7.0	2.5	/experiments/knapen_AOT/AOT_stimuli/rescaled_final/0386_rv.mp4	0.0	146.05775213241577	
9	83.12921810150146	pulse	1	t		7.0	2.5	/experiments/knapen_AOT/AOT_stimuli/rescaled_final/0386_rv.mp4	0.0	147.65789914131165	
9	83.63729405403137	fix_post	2		12	7.0	2.5	/experiments/knapen_AOT/AOT_stimuli/rescaled_final/0386_rv.mp4	0.0	148.16597509384155	0.10004401206970215
10	83.73733806610107	fix_pre	0		120	8.0	2.5	/experiments/knapen_AOT/AOT_stimuli/rescaled_final/2066_rv.mp4	0.0	148.26601910591125	1.000180959701538
10	84.72929501533508	pulse	0	t		8.0	2.5	/experiments/knapen_AOT/AOT_stimuli/rescaled_final/2066_rv.mp4	0.0	149.25797605514526	
10	84.73751902580261	movie	1		244	8.0	2.5	/experiments/knapen_AOT/AOT_stimuli/rescaled_final/2066_rv.mp4	0.0	149.2662000656128	2.508661985397339
10	86.33007502555847	pulse	1	t		8.0	2.5	/experiments/knapen_AOT/AOT_stimuli/rescaled_final/2066_rv.mp4	0.0	150.85875606536865	
10	87.24618101119995	fix_post	2		12	8.0	2.5	/experiments/knapen_AOT/AOT_stimuli/rescaled_final/2066_rv.mp4	0.0	151.77486205101013	0.10003900527954102
11	87.34622001647949	fix_pre	0		120	9.0	2.5	/experiments/knapen_AOT/AOT_stimuli/rescaled_final/1233_rv.mp4	0.0	151.87490105628967	1.0001320838928223
11	87.92989110946655	pulse	0	t		9.0	2.5	/experiments/knapen_AOT/AOT_stimuli/rescaled_final/1233_rv.mp4	0.0	152.45857214927673	
11	88.34635210037231	movie	1		244	9.0	2.5	/experiments/knapen_AOT/AOT_stimuli/rescaled_final/1233_rv.mp4	0.0	152.8750331401825	2.5004260540008545
11	89.53026914596558	pulse	1	t		9.0	2.5	/experiments/knapen_AOT/AOT_stimuli/rescaled_final/1233_rv.mp4	0.0	154.05895018577576	
11	90.84677815437317	fix_post	2		12	9.0	2.5	/experiments/knapen_AOT/AOT_stimuli/rescaled_final/1233_rv.mp4	0.0	155.37545919418335	0.0999598503112793
12	90.94673800468445	fix_pre	0		120	10.0	2.5	/experiments/knapen_AOT/AOT_stimuli/rescaled_final/2075_fw.mp4	0.0	155.47541904449463	1.0001790523529053
12	91.13028407096863	pulse	0	t		10.0	2.5	/experiments/knapen_AOT/AOT_stimuli/rescaled_final/2075_fw.mp4	0.0	155.6589651107788	
12	91.94691705703735	movie	1		244	10.0	2.5	/experiments/knapen_AOT/AOT_stimuli/rescaled_final/2075_fw.mp4	0.0	156.47559809684753	2.5003769397735596
12	92.73057818412781	pulse	1	t		10.0	2.5	/experiments/knapen_AOT/AOT_stimuli/rescaled_final/2075_fw.mp4	0.0	157.259259223938	
12	94.33082818984985	pulse	1	t		10.0	2.5	/experiments/knapen_AOT/AOT_stimuli/rescaled_final/2075_fw.mp4	0.0	158.85950922966003	
12	94.44729399681091	fix_post	2		12	10.0	2.5	/experiments/knapen_AOT/AOT_stimuli/rescaled_final/2075_fw.mp4	0.0	158.9759750366211	0.09998607635498047
13	94.5472800731659	fix_pre	0		120	11.0	2.5	/experiments/knapen_AOT/AOT_stimuli/rescaled_final/1658_fw.mp4	0.0	159.07596111297607	1.0001659393310547
13	95.54744601249695	movie	1		244	11.0	2.5	/experiments/knapen_AOT/AOT_stimuli/rescaled_final/1658_fw.mp4	0.0	160.07612705230713	2.492035150527954
13	95.93485307693481	pulse	1	t		11.0	2.5	/experiments/knapen_AOT/AOT_stimuli/rescaled_final/1658_fw.mp4	0.0	160.463534116745	
13	97.5312991142273	pulse	1	t		11.0	2.5	/experiments/knapen_AOT/AOT_stimuli/rescaled_final/1658_fw.mp4	0.0	162.05998015403748	
13	98.0394811630249	fix_post	2		12	11.0	2.5	/experiments/knapen_AOT/AOT_stimuli/rescaled_final/1658_fw.mp4	0.0	162.56816220283508	0.09998798370361328
14	98.13946914672852	fix_pre	0		120	12.0	2.5	/experiments/knapen_AOT/AOT_stimuli/rescaled_final/1933_fw.mp4	0.0	162.6681501865387	1.0002880096435547
14	99.13143610954285	pulse	0	t		12.0	2.5	/experiments/knapen_AOT/AOT_stimuli/rescaled_final/1933_fw.mp4	0.0	163.66011714935303	
14	99.13975715637207	movie	1		245	12.0	2.5	/experiments/knapen_AOT/AOT_stimuli/rescaled_final/1933_fw.mp4	0.0	163.66843819618225	2.508574962615967
14	100.73234415054321	pulse	1	t		12.0	2.5	/experiments/knapen_AOT/AOT_stimuli/rescaled_final/1933_fw.mp4	0.0	165.2610251903534	
14	101.64833211898804	fix_post	2		12	12.0	2.5	/experiments/knapen_AOT/AOT_stimuli/rescaled_final/1933_fw.mp4	0.0	166.17701315879822	0.10004901885986328
15	101.7483811378479	fix_pre	0		120	13.0	2.5	/experiments/knapen_AOT/AOT_stimuli/rescaled_final/1813_rv.mp4	0.0	166.27706217765808	1.0001778602600098
15	102.33206915855408	pulse	0	t		13.0	2.5	/experiments/knapen_AOT/AOT_stimuli/rescaled_final/1813_rv.mp4	0.0	166.86075019836426	
15	102.74855899810791	movie	1		244	13.0	2.5	/experiments/knapen_AOT/AOT_stimuli/rescaled_final/1813_rv.mp4	0.0	167.2772400379181	2.5002951622009277
15	103.9324221611023	pulse	1	t		13.0	2.5	/experiments/knapen_AOT/AOT_stimuli/rescaled_final/1813_rv.mp4	0.0	168.46110320091248	
15	105.24885416030884	fix_post	2		12	13.0	2.5	/experiments/knapen_AOT/AOT_stimuli/rescaled_final/1813_rv.mp4	0.0	169.77753520011902	0.10004687309265137
16	105.34890103340149	fix_pre	0		120	14.0	2.5	blank	1.0	169.87758207321167	1.0001630783081055
16	105.5324330329895	pulse	0	t		14.0	2.5	blank	1.0	170.06111407279968	
16	106.3490641117096	movie	1		300	14.0	2.5	blank	1.0	170.87774515151978	2.5003440380096436
16	107.13278007507324	pulse	1	t		14.0	2.5	blank	1.0	171.66146111488342	
16	108.72554206848145	pulse	1	t		14.0	2.5	blank	1.0	173.25422310829163	
16	108.84940814971924	fix_post	2		12	14.0	2.5	blank	1.0	173.37808918952942	0.10002589225769043
17	108.94943404197693	fix_pre	0		119	15.0	2.5	/experiments/knapen_AOT/AOT_stimuli/rescaled_final/1515_fw.mp4	0.0	173.4781150817871	0.9918160438537598
17	109.94125008583069	movie	1		243	15.0	2.5	/experiments/knapen_AOT/AOT_stimuli/rescaled_final/1515_fw.mp4	0.0	174.46993112564087	2.501044988632202
17	110.33325910568237	pulse	1	t		15.0	2.5	/experiments/knapen_AOT/AOT_stimuli/rescaled_final/1515_fw.mp4	0.0	174.86194014549255	
17	111.92597818374634	pulse	1	t		15.0	2.5	/experiments/knapen_AOT/AOT_stimuli/rescaled_final/1515_fw.mp4	0.0	176.45465922355652	
17	112.44229507446289	fix_post	2		10	15.0	2.5	/experiments/knapen_AOT/AOT_stimuli/rescaled_final/1515_fw.mp4	0.0	176.97097611427307	0.09941411018371582
18	112.5417091846466	fix_pre	0		120	16.0	2.5	/experiments/knapen_AOT/AOT_stimuli/rescaled_final/0885_fw.mp4	0.0	177.0703902244568	1.0001258850097656
18	113.52606701850891	pulse	0	t		16.0	2.5	/experiments/knapen_AOT/AOT_stimuli/rescaled_final/0885_fw.mp4	0.0	178.0547480583191	
18	113.54183506965637	movie	1		244	16.0	2.5	/experiments/knapen_AOT/AOT_stimuli/rescaled_final/0885_fw.mp4	0.0	178.07051610946655	2.5086679458618164
18	115.12560606002808	pulse	1	t		16.0	2.5	/experiments/knapen_AOT/AOT_stimuli/rescaled_final/0885_fw.mp4	0.0	179.65428709983826	
18	116.05050301551819	fix_post	2		12	16.0	2.5	/experiments/knapen_AOT/AOT_stimuli/rescaled_final/0885_fw.mp4	0.0	180.57918405532837	0.10012412071228027
19	116.15062713623047	fix_pre	0		120	17.0	2.5	/experiments/knapen_AOT/AOT_stimuli/rescaled_final/1522_fw.mp4	0.0	180.67930817604065	1.0000288486480713
19	116.72579503059387	pulse	0	t		17.0	2.5	/experiments/knapen_AOT/AOT_stimuli/rescaled_final/1522_fw.mp4	0.0	181.25447607040405	
19	117.15065598487854	movie	1		244	17.0	2.5	/experiments/knapen_AOT/AOT_stimuli/rescaled_final/1522_fw.mp4	0.0	181.67933702468872	2.500411033630371
19	118.33009004592896	pulse	1	t		17.0	2.5	/experiments/knapen_AOT/AOT_stimuli/rescaled_final/1522_fw.mp4	0.0	182.85877108573914	
19	119.65106701850891	fix_post	2		12	17.0	2.5	/experiments/knapen_AOT/AOT_stimuli/rescaled_final/1522_fw.mp4	0.0	184.1797480583191	0.09999203681945801
20	119.75105905532837	fix_pre	0		120	18.0	2.5	/experiments/knapen_AOT/AOT_stimuli/rescaled_final/0885_fw.mp4	0.0	184.27974009513855	1.0001330375671387
20	119.92630410194397	pulse	0	t		18.0	2.5	/experiments/knapen_AOT/AOT_stimuli/rescaled_final/0885_fw.mp4	0.0	184.45498514175415	
20	120.75119209289551	movie	1		242	18.0	2.5	/experiments/knapen_AOT/AOT_stimuli/rescaled_final/0885_fw.mp4	0.0	185.2798731327057	2.4920599460601807
20	121.52647614479065	pulse	1	t		18.0	2.5	/experiments/knapen_AOT/AOT_stimuli/rescaled_final/0885_fw.mp4	0.0	186.05515718460083	
20	123.1267580986023	pulse	1	t		18.0	2.5	/experiments/knapen_AOT/AOT_stimuli/rescaled_final/0885_fw.mp4	0.0	187.65543913841248	
20	123.24325203895569	fix_post	2		12	18.0	2.5	/experiments/knapen_AOT/AOT_stimuli/rescaled_final/0885_fw.mp4	0.0	187.77193307876587	0.10001802444458008
21	123.34327006340027	fix_pre	0		120	19.0	2.5	/experiments/knapen_AOT/AOT_stimuli/rescaled_final/1657_fw.mp4	0.0	187.87195110321045	1.0001370906829834
21	124.34340715408325	movie	1		243	19.0	2.5	/experiments/knapen_AOT/AOT_stimuli/rescaled_final/1657_fw.mp4	0.0	188.87208819389343	2.5003888607025146
21	124.73184108734131	pulse	1	t		19.0	2.5	/experiments/knapen_AOT/AOT_stimuli/rescaled_final/1657_fw.mp4	0.0	189.2605221271515	
21	126.3272590637207	pulse	1	t		19.0	2.5	/experiments/knapen_AOT/AOT_stimuli/rescaled_final/1657_fw.mp4	0.0	190.85594010353088	
21	126.84379601478577	fix_post	2		12	19.0	2.5	/experiments/knapen_AOT/AOT_stimuli/rescaled_final/1657_fw.mp4	0.0	191.37247705459595	0.10002517700195312
22	126.94382119178772	fix_pre	0		119	20.0	2.5	blank	1.0	191.4725022315979	0.9918348789215088
22	127.9274570941925	pulse	0	t		20.0	2.5	blank	1.0	192.45613813400269	
22	127.93565607070923	movie	1		301	20.0	2.5	blank	1.0	192.4643371105194	2.508683919906616
22	129.5277509689331	pulse	1	t		20.0	2.5	blank	1.0	194.0564320087433	
22	130.44433999061584	fix_post	2		12	20.0	2.5	blank	1.0	194.97302103042603	0.10001111030578613
23	130.54435110092163	fix_pre	0		120	21.0	2.5	/experiments/knapen_AOT/AOT_stimuli/rescaled_final/1590_fw.mp4	0.0	195.0730321407318	1.000148057937622
23	131.12800407409668	pulse	0	t		21.0	2.5	/experiments/knapen_AOT/AOT_stimuli/rescaled_final/1590_fw.mp4	0.0	195.65668511390686	
23	131.54449915885925	movie	1		244	21.0	2.5	/experiments/knapen_AOT/AOT_stimuli/rescaled_final/1590_fw.mp4	0.0	196.07318019866943	2.50036883354187
23	132.7282691001892	pulse	1	t		21.0	2.5	/experiments/knapen_AOT/AOT_stimuli/rescaled_final/1590_fw.mp4	0.0	197.2569501399994	
23	134.04486799240112	fix_post	2		12	21.0	2.5	/experiments/knapen_AOT/AOT_stimuli/rescaled_final/1590_fw.mp4	0.0	198.5735490322113	0.10002303123474121
24	134.14489102363586	fix_pre	0		120	22.0	2.5	/experiments/knapen_AOT/AOT_stimuli/rescaled_final/1770_fw.mp4	0.0	198.67357206344604	1.000201940536499
24	134.32855916023254	pulse	0	t		22.0	2.5	/experiments/knapen_AOT/AOT_stimuli/rescaled_final/1770_fw.mp4	0.0	198.85724020004272	
24	135.14509296417236	movie	1		243	22.0	2.5	/experiments/knapen_AOT/AOT_stimuli/rescaled_final/1770_fw.mp4	0.0	199.67377400398254	2.5003180503845215
24	135.92878317832947	pulse	1	t		22.0	2.5	/experiments/knapen_AOT/AOT_stimuli/rescaled_final/1770_fw.mp4	0.0	200.45746421813965	
24	137.52898001670837	pulse	1	t		22.0	2.5	/experiments/knapen_AOT/AOT_stimuli/rescaled_final/1770_fw.mp4	0.0	202.05766105651855	
24	137.64541101455688	fix_post	2		12	22.0	2.5	/experiments/knapen_AOT/AOT_stimuli/rescaled_final/1770_fw.mp4	0.0	202.17409205436707	0.09999203681945801
25	137.74540305137634	fix_pre	0		120	23.0	2.5	/experiments/knapen_AOT/AOT_stimuli/rescaled_final/1049_rv.mp4	0.0	202.27408409118652	1.0001769065856934
25	138.74557995796204	movie	1		242	23.0	2.5	/experiments/knapen_AOT/AOT_stimuli/rescaled_final/1049_rv.mp4	0.0	203.27426099777222	2.4920270442962646
25	139.12978100776672	pulse	1	t		23.0	2.5	/experiments/knapen_AOT/AOT_stimuli/rescaled_final/1049_rv.mp4	0.0	203.6584620475769	
25	140.7294101715088	pulse	1	t		23.0	2.5	/experiments/knapen_AOT/AOT_stimuli/rescaled_final/1049_rv.mp4	0.0	205.25809121131897	
25	141.2376070022583	fix_post	2		12	23.0	2.5	/experiments/knapen_AOT/AOT_stimuli/rescaled_final/1049_rv.mp4	0.0	205.76628804206848	0.10003495216369629
26	141.337641954422	fix_pre	0		120	24.0	2.5	/experiments/knapen_AOT/AOT_stimuli/rescaled_final/1515_fw.mp4	0.0	205.86632299423218	1.0001261234283447
26	142.32968711853027	pulse	0	t		24.0	2.5	/experiments/knapen_AOT/AOT_stimuli/rescaled_final/1515_fw.mp4	0.0	206.85836815834045	
26	142.33776807785034	movie	1		244	24.0	2.5	/experiments/knapen_AOT/AOT_stimuli/rescaled_final/1515_fw.mp4	0.0	206.86644911766052	2.508671998977661
26	143.93062901496887	pulse	1	t		24.0	2.5	/experiments/knapen_AOT/AOT_stimuli/rescaled_final/1515_fw.mp4	0.0	208.45931005477905	
26	144.846440076828	fix_post	2		12	24.0	2.5	/experiments/knapen_AOT/AOT_stimuli/rescaled_final/1515_fw.mp4	0.0	209.37512111663818	0.10020804405212402
27	144.94664812088013	fix_pre	0		120	25.0	2.5	/experiments/knapen_AOT/AOT_stimuli/rescaled_final/0252_fw.mp4	0.0	209.4753291606903	1.0000338554382324
27	145.53013515472412	pulse	0	t		25.0	2.5	/experiments/knapen_AOT/AOT_stimuli/rescaled_final/0252_fw.mp4	0.0	210.0588161945343	
27	145.94668197631836	movie	1		244	25.0	2.5	/experiments/knapen_AOT/AOT_stimuli/rescaled_final/0252_fw.mp4	0.0	210.47536301612854	2.5003280639648438
27	147.12678909301758	pulse	1	t		25.0	2.5	/experiments/knapen_AOT/AOT_stimuli/rescaled_final/0252_fw.mp4	0.0	211.65547013282776	
27	148.4470100402832	fix_post	2		12	25.0	2.5	/experiments/knapen_AOT/AOT_stimuli/rescaled_final/0252_fw.mp4	0.0	212.97569108009338	0.10001206398010254
28	148.5470221042633	fix_pre	0		120	26.0	2.5	/experiments/knapen_AOT/AOT_stimuli/rescaled_final/2075_fw.mp4	0.0	213.0757031440735	1.000175952911377
28	148.7306821346283	pulse	0	t		26.0	2.5	/experiments/knapen_AOT/AOT_stimuli/rescaled_final/2075_fw.mp4	0.0	213.25936317443848	
28	149.54719805717468	movie	1		244	26.0	2.5	/experiments/knapen_AOT/AOT_stimuli/rescaled_final/2075_fw.mp4	0.0	214.07587909698486	2.5003750324249268
28	150.33094716072083	pulse	1	t		26.0	2.5	/experiments/knapen_AOT/AOT_stimuli/rescaled_final/2075_fw.mp4	0.0	214.859628200531	
28	151.93151712417603	pulse	1	t		26.0	2.5	/experiments/knapen_AOT/AOT_stimuli/rescaled_final/2075_fw.mp4	0.0	216.4601981639862	
28	152.0475730895996	fix_post	2		12	26.0	2.5	/experiments/knapen_AOT/AOT_stimuli/rescaled_final/2075_fw.mp4	0.0	216.5762541294098	0.10008502006530762
29	152.14765810966492	fix_pre	0		120	27.0	2.5	blank	1.0	216.6763391494751	1.000058889389038
29	153.14771699905396	movie	1		299	27.0	2.5	blank	1.0	217.67639803886414	2.492048978805542
29	153.5312521457672	pulse	1	t		27.0	2.5	blank	1.0	218.0599331855774	
29	155.13153195381165	pulse	1	t		27.0	2.5	blank	1.0	219.66021299362183	
29	155.6397659778595	fix_post	2		12	27.0	2.5	blank	1.0	220.16844701766968	0.10004520416259766
30	155.7398111820221	fix_pre	0		120	28.0	2.5	/experiments/knapen_AOT/AOT_stimuli/rescaled_final/2011_fw.mp4	0.0	220.26849222183228	1.0001108646392822
30	156.73183703422546	pulse	0	t		28.0	2.5	/experiments/knapen_AOT/AOT_stimuli/rescaled_final/2011_fw.mp4	0.0	221.26051807403564	
30	156.73992204666138	movie	1		245	28.0	2.5	/experiments/knapen_AOT/AOT_stimuli/rescaled_final/2011_fw.mp4	0.0	221.26860308647156	2.508700132369995
30	158.3324179649353	pulse	1	t		28.0	2.5	/experiments/knapen_AOT/AOT_stimuli/rescaled_final/2011_fw.mp4	0.0	222.86109900474548	
30	159.24862217903137	fix_post	2		12	28.0	2.5	/experiments/knapen_AOT/AOT_stimuli/rescaled_final/2011_fw.mp4	0.0	223.77730321884155	0.09999585151672363
31	159.3486180305481	fix_pre	0		120	29.0	2.5	/experiments/knapen_AOT/AOT_stimuli/rescaled_final/1839_rv.mp4	0.0	223.87729907035828	1.0002081394195557
31	159.93226718902588	pulse	0	t		29.0	2.5	/experiments/knapen_AOT/AOT_stimuli/rescaled_final/1839_rv.mp4	0.0	224.46094822883606	
31	160.34882616996765	movie	1		243	29.0	2.5	/experiments/knapen_AOT/AOT_stimuli/rescaled_final/1839_rv.mp4	0.0	224.87750720977783	2.5003418922424316
31	161.53259897232056	pulse	1	t		29.0	2.5	/experiments/knapen_AOT/AOT_stimuli/rescaled_final/1839_rv.mp4	0.0	226.06128001213074	
31	162.84916806221008	fix_post	2		12	29.0	2.5	/experiments/knapen_AOT/AOT_stimuli/rescaled_final/1839_rv.mp4	0.0	227.37784910202026	0.10004806518554688
32	162.94921612739563	fix_pre	0		120	30.0	2.5	/experiments/knapen_AOT/AOT_stimuli/rescaled_final/1040_rv.mp4	0.0	227.4778971672058	1.0001599788665771
32	163.13283896446228	pulse	0	t		30.0	2.5	/experiments/knapen_AOT/AOT_stimuli/rescaled_final/1040_rv.mp4	0.0	227.66152000427246	
32	163.9493761062622	movie	1		243	30.0	2.5	/experiments/knapen_AOT/AOT_stimuli/rescaled_final/1040_rv.mp4	0.0	228.4780571460724	2.500464916229248
32	164.7330870628357	pulse	1	t		30.0	2.5	/experiments/knapen_AOT/AOT_stimuli/rescaled_final/1040_rv.mp4	0.0	229.26176810264587	
32	166.33323311805725	pulse	1	t		30.0	2.5	/experiments/knapen_AOT/AOT_stimuli/rescaled_final/1040_rv.mp4	0.0	230.86191415786743	
32	166.44984102249146	fix_post	2		12	30.0	2.5	/experiments/knapen_AOT/AOT_stimuli/rescaled_final/1040_rv.mp4	0.0	230.97852206230164	0.09989500045776367
33	166.54973602294922	fix_pre	0		120	31.0	2.5	/experiments/knapen_AOT/AOT_stimuli/rescaled_final/0558_fw.mp4	0.0	231.0784170627594	1.0001530647277832
33	167.549889087677	movie	1		243	31.0	2.5	/experiments/knapen_AOT/AOT_stimuli/rescaled_final/0558_fw.mp4	0.0	232.07857012748718	2.492058038711548
33	167.93404006958008	pulse	1	t		31.0	2.5	/experiments/knapen_AOT/AOT_stimuli/rescaled_final/0558_fw.mp4	0.0	232.46272110939026	
33	169.52640414237976	pulse	1	t		31.0	2.5	/experiments/knapen_AOT/AOT_stimuli/rescaled_final/0558_fw.mp4	0.0	234.05508518218994	
33	170.04194712638855	fix_post	2		12	31.0	2.5	/experiments/knapen_AOT/AOT_stimuli/rescaled_final/0558_fw.mp4	0.0	234.57062816619873	0.09998703002929688
34	170.14193415641785	fix_pre	0		120	32.0	2.5	/experiments/knapen_AOT/AOT_stimuli/rescaled_final/1470_rv.mp4	0.0	234.67061519622803	1.0001468658447266
34	171.1263620853424	pulse	0	t		32.0	2.5	/experiments/knapen_AOT/AOT_stimuli/rescaled_final/1470_rv.mp4	0.0	235.6550431251526	
34	171.14208102226257	movie	1		245	32.0	2.5	/experiments/knapen_AOT/AOT_stimuli/rescaled_final/1470_rv.mp4	0.0	235.67076206207275	2.5087380409240723
34	172.73464512825012	pulse	1	t		32.0	2.5	/experiments/knapen_AOT/AOT_stimuli/rescaled_final/1470_rv.mp4	0.0	237.2633261680603	
34	173.65081906318665	fix_post	2		12	32.0	2.5	/experiments/knapen_AOT/AOT_stimuli/rescaled_final/1470_rv.mp4	0.0	238.17950010299683	0.09999704360961914
35	173.75081610679626	fix_pre	0		120	33.0	2.5	blank	1.0	238.27949714660645	1.0001468658447266
35	174.32703113555908	pulse	0	t		33.0	2.5	blank	1.0	238.85571217536926	
35	174.750962972641	movie	1		297	33.0	2.5	blank	1.0	239.27964401245117	2.5003550052642822
35	175.92644000053406	pulse	1	t		33.0	2.5	blank	1.0	240.45512104034424	
35	177.25131797790527	fix_post	2		12	33.0	2.5	blank	1.0	241.77999901771545	0.09999608993530273
36	177.35131406784058	fix_pre	0		120	34.0	2.5	/experiments/knapen_AOT/AOT_stimuli/rescaled_final/1417_rv.mp4	0.0	241.87999510765076	1.0001630783081055
36	177.52652406692505	pulse	0	t		34.0	2.5	/experiments/knapen_AOT/AOT_stimuli/rescaled_final/1417_rv.mp4	0.0	242.05520510673523	
36	178.35147714614868	movie	1		244	34.0	2.5	/experiments/knapen_AOT/AOT_stimuli/rescaled_final/1417_rv.mp4	0.0	242.88015818595886	2.5004420280456543
36	179.1267111301422	pulse	1	t		34.0	2.5	/experiments/knapen_AOT/AOT_stimuli/rescaled_final/1417_rv.mp4	0.0	243.6553921699524	
36	180.72713899612427	pulse	1	t		34.0	2.5	/experiments/knapen_AOT/AOT_stimuli/rescaled_final/1417_rv.mp4	0.0	245.25582003593445	
36	180.85191917419434	fix_post	2		12	34.0	2.5	/experiments/knapen_AOT/AOT_stimuli/rescaled_final/1417_rv.mp4	0.0	245.38060021400452	0.09995484352111816
37	180.95187401771545	fix_pre	0		119	35.0	2.5	/experiments/knapen_AOT/AOT_stimuli/rescaled_final/1436_fw.mp4	0.0	245.48055505752563	0.99192214012146
37	181.9437961578369	movie	1		244	35.0	2.5	/experiments/knapen_AOT/AOT_stimuli/rescaled_final/1436_fw.mp4	0.0	246.4724771976471	2.5002620220184326
37	182.3279480934143	pulse	1	t		35.0	2.5	/experiments/knapen_AOT/AOT_stimuli/rescaled_final/1436_fw.mp4	0.0	246.8566291332245	
37	183.92755103111267	pulse	1	t		35.0	2.5	/experiments/knapen_AOT/AOT_stimuli/rescaled_final/1436_fw.mp4	0.0	248.45623207092285	
37	184.44405817985535	fix_post	2		12	35.0	2.5	/experiments/knapen_AOT/AOT_stimuli/rescaled_final/1436_fw.mp4	0.0	248.97273921966553	0.10000395774841309
38	184.54406213760376	fix_pre	0		119	36.0	2.5	/experiments/knapen_AOT/AOT_stimuli/rescaled_final/1360_rv.mp4	0.0	249.07274317741394	0.991926908493042
38	185.52784705162048	pulse	0	t		36.0	2.5	/experiments/knapen_AOT/AOT_stimuli/rescaled_final/1360_rv.mp4	0.0	250.05652809143066	
38	185.5359890460968	movie	1		245	36.0	2.5	/experiments/knapen_AOT/AOT_stimuli/rescaled_final/1360_rv.mp4	0.0	250.06467008590698	2.5086100101470947
38	187.12919402122498	pulse	1	t		36.0	2.5	/experiments/knapen_AOT/AOT_stimuli/rescaled_final/1360_rv.mp4	0.0	251.65787506103516	
38	188.0445990562439	fix_post	2		12	36.0	2.5	/experiments/knapen_AOT/AOT_stimuli/rescaled_final/1360_rv.mp4	0.0	252.57328009605408	0.1000509262084961
39	188.1446499824524	fix_pre	0		120	37.0	2.5	/experiments/knapen_AOT/AOT_stimuli/rescaled_final/1647_rv.mp4	0.0	252.67333102226257	1.0001330375671387
39	188.72827816009521	pulse	0	t		37.0	2.5	/experiments/knapen_AOT/AOT_stimuli/rescaled_final/1647_rv.mp4	0.0	253.2569591999054	
39	189.14478302001953	movie	1		244	37.0	2.5	/experiments/knapen_AOT/AOT_stimuli/rescaled_final/1647_rv.mp4	0.0	253.6734640598297	2.5003490447998047
39	190.32861018180847	pulse	1	t		37.0	2.5	/experiments/knapen_AOT/AOT_stimuli/rescaled_final/1647_rv.mp4	0.0	254.85729122161865	
39	191.64513206481934	fix_post	2		12	37.0	2.5	/experiments/knapen_AOT/AOT_stimuli/rescaled_final/1647_rv.mp4	0.0	256.1738131046295	0.09999990463256836
40	191.7451319694519	fix_pre	0		120	38.0	2.5	/experiments/knapen_AOT/AOT_stimuli/rescaled_final/1580_rv.mp4	0.0	256.2738130092621	1.0001740455627441
40	191.92870497703552	pulse	0	t		38.0	2.5	/experiments/knapen_AOT/AOT_stimuli/rescaled_final/1580_rv.mp4	0.0	256.4573860168457	
40	192.74530601501465	movie	1		244	38.0	2.5	/experiments/knapen_AOT/AOT_stimuli/rescaled_final/1580_rv.mp4	0.0	257.27398705482483	2.500373125076294
40	193.5290651321411	pulse	1	t		38.0	2.5	/experiments/knapen_AOT/AOT_stimuli/rescaled_final/1580_rv.mp4	0.0	258.0577461719513	
40	195.12921118736267	pulse	1	t		38.0	2.5	/experiments/knapen_AOT/AOT_stimuli/rescaled_final/1580_rv.mp4	0.0	259.65789222717285	
40	195.24567914009094	fix_post	2		12	38.0	2.5	/experiments/knapen_AOT/AOT_stimuli/rescaled_final/1580_rv.mp4	0.0	259.7743601799011	0.10002303123474121
41	195.34570217132568	fix_pre	0		120	39.0	2.5	/experiments/knapen_AOT/AOT_stimuli/rescaled_final/1004_rv.mp4	0.0	259.87438321113586	1.0001587867736816
41	196.34586095809937	movie	1		244	39.0	2.5	/experiments/knapen_AOT/AOT_stimuli/rescaled_final/1004_rv.mp4	0.0	260.87454199790955	2.4920082092285156
41	196.7308530807495	pulse	1	t		39.0	2.5	/experiments/knapen_AOT/AOT_stimuli/rescaled_final/1004_rv.mp4	0.0	261.2595341205597	
41	198.32976412773132	pulse	1	t		39.0	2.5	/experiments/knapen_AOT/AOT_stimuli/rescaled_final/1004_rv.mp4	0.0	262.8584451675415	
41	198.83786916732788	fix_post	2		12	39.0	2.5	/experiments/knapen_AOT/AOT_stimuli/rescaled_final/1004_rv.mp4	0.0	263.36655020713806	0.1000828742980957
42	198.93795204162598	fix_pre	0		120	40.0	2.5	/experiments/knapen_AOT/AOT_stimuli/rescaled_final/1962_fw.mp4	0.0	263.46663308143616	1.0001330375671387
42	199.93003106117249	pulse	0	t		40.0	2.5	/experiments/knapen_AOT/AOT_stimuli/rescaled_final/1962_fw.mp4	0.0	264.45871210098267	
42	199.93808507919312	movie	1		247	40.0	2.5	/experiments/knapen_AOT/AOT_stimuli/rescaled_final/1962_fw.mp4	0.0	264.4667661190033	2.5086770057678223
42	201.5305941104889	pulse	1	t		40.0	2.5	/experiments/knapen_AOT/AOT_stimuli/rescaled_final/1962_fw.mp4	0.0	266.0592751502991	
42	202.44676208496094	fix_post	2		12	40.0	2.5	/experiments/knapen_AOT/AOT_stimuli/rescaled_final/1962_fw.mp4	0.0	266.9754431247711	0.10005307197570801
43	202.54681515693665	fix_pre	0		120	41.0	2.5	blank	1.0	267.0754961967468	1.0000879764556885
43	203.13043212890625	pulse	0	t		41.0	2.5	blank	1.0	267.65911316871643	
43	203.54690313339233	movie	1		300	41.0	2.5	blank	1.0	268.0755841732025	2.5004069805145264
43	204.7306101322174	pulse	1	t		41.0	2.5	blank	1.0	269.2592911720276	
43	206.04731011390686	fix_post	2		12	41.0	2.5	blank	1.0	270.57599115371704	0.10000085830688477
44	206.14731097221375	fix_pre	0		120	42.0	2.5	/experiments/knapen_AOT/AOT_stimuli/rescaled_final/0252_rv.mp4	0.0	270.6759920120239	1.000169038772583
44	206.33097195625305	pulse	0	t		42.0	2.5	/experiments/knapen_AOT/AOT_stimuli/rescaled_final/0252_rv.mp4	0.0	270.85965299606323	
44	207.14748001098633	movie	1		245	42.0	2.5	/experiments/knapen_AOT/AOT_stimuli/rescaled_final/0252_rv.mp4	0.0	271.6761610507965	2.5003039836883545
44	207.9312641620636	pulse	1	t		42.0	2.5	/experiments/knapen_AOT/AOT_stimuli/rescaled_final/0252_rv.mp4	0.0	272.4599452018738	
44	209.52923703193665	pulse	1	t		42.0	2.5	/experiments/knapen_AOT/AOT_stimuli/rescaled_final/0252_rv.mp4	0.0	274.0579180717468	
44	209.64778399467468	fix_post	2		12	42.0	2.5	/experiments/knapen_AOT/AOT_stimuli/rescaled_final/0252_rv.mp4	0.0	274.17646503448486	0.10011410713195801
45	209.74789810180664	fix_pre	0		120	43.0	2.5	/experiments/knapen_AOT/AOT_stimuli/rescaled_final/0427_fw.mp4	0.0	274.2765791416168	1.0000879764556885
45	210.74798607826233	movie	1		243	43.0	2.5	/experiments/knapen_AOT/AOT_stimuli/rescaled_final/0427_fw.mp4	0.0	275.2766671180725	2.4920411109924316
45	211.1322910785675	pulse	1	t		43.0	2.5	/experiments/knapen_AOT/AOT_stimuli/rescaled_final/0427_fw.mp4	0.0	275.6609721183777	
45	212.73191499710083	pulse	1	t		43.0	2.5	/experiments/knapen_AOT/AOT_stimuli/rescaled_final/0427_fw.mp4	0.0	277.260596036911	
45	213.24002718925476	fix_post	2		12	43.0	2.5	/experiments/knapen_AOT/AOT_stimuli/rescaled_final/0427_fw.mp4	0.0	277.76870822906494	0.10003280639648438
46	213.34005999565125	fix_pre	0		120	44.0	2.5	/experiments/knapen_AOT/AOT_stimuli/rescaled_final/1457_rv.mp4	0.0	277.8687410354614	1.000128984451294
46	214.33215808868408	pulse	0	t		44.0	2.5	/experiments/knapen_AOT/AOT_stimuli/rescaled_final/1457_rv.mp4	0.0	278.86083912849426	
46	214.34018898010254	movie	1		245	44.0	2.5	/experiments/knapen_AOT/AOT_stimuli/rescaled_final/1457_rv.mp4	0.0	278.8688700199127	2.50871205329895
46	215.93309617042542	pulse	1	t		44.0	2.5	/experiments/knapen_AOT/AOT_stimuli/rescaled_final/1457_rv.mp4	0.0	280.4617772102356	
46	216.8489010334015	fix_post	2		12	44.0	2.5	/experiments/knapen_AOT/AOT_stimuli/rescaled_final/1457_rv.mp4	0.0	281.37758207321167	0.10003209114074707
47	216.94893312454224	fix_pre	0		120	45.0	2.5	/experiments/knapen_AOT/AOT_stimuli/rescaled_final/1308_rv.mp4	0.0	281.4776141643524	1.0001978874206543
47	217.53263401985168	pulse	0	t		45.0	2.5	/experiments/knapen_AOT/AOT_stimuli/rescaled_final/1308_rv.mp4	0.0	282.06131505966187	
47	217.9491310119629	movie	1		245	45.0	2.5	/experiments/knapen_AOT/AOT_stimuli/rescaled_final/1308_rv.mp4	0.0	282.47781205177307	2.500326156616211
47	219.13287210464478	pulse	1	t		45.0	2.5	/experiments/knapen_AOT/AOT_stimuli/rescaled_final/1308_rv.mp4	0.0	283.66155314445496	
47	220.4494571685791	fix_post	2		12	45.0	2.5	/experiments/knapen_AOT/AOT_stimuli/rescaled_final/1308_rv.mp4	0.0	284.9781382083893	0.10001301765441895
48	220.54947018623352	fix_pre	0		120	46.0	2.5	/experiments/knapen_AOT/AOT_stimuli/rescaled_final/0111_rv.mp4	0.0	285.0781512260437	1.0001587867736816
48	220.7330620288849	pulse	0	t		46.0	2.5	/experiments/knapen_AOT/AOT_stimuli/rescaled_final/0111_rv.mp4	0.0	285.26174306869507	
48	221.5496289730072	movie	1		244	46.0	2.5	/experiments/knapen_AOT/AOT_stimuli/rescaled_final/0111_rv.mp4	0.0	286.0783100128174	2.500352144241333
48	222.32580614089966	pulse	1	t		46.0	2.5	/experiments/knapen_AOT/AOT_stimuli/rescaled_final/0111_rv.mp4	0.0	286.85448718070984	
48	223.93339014053345	pulse	1	t		46.0	2.5	/experiments/knapen_AOT/AOT_stimuli/rescaled_final/0111_rv.mp4	0.0	288.4620711803436	
48	224.04998111724854	fix_post	2		12	46.0	2.5	/experiments/knapen_AOT/AOT_stimuli/rescaled_final/0111_rv.mp4	0.0	288.5786621570587	0.10001587867736816
49	224.1499969959259	fix_pre	0		120	47.0	2.5	blank	1.0	288.6786780357361	1.0001671314239502
49	225.15016412734985	movie	1		299	47.0	2.5	blank	1.0	289.67884516716003	2.4920248985290527
49	225.5261299610138	pulse	1	t		47.0	2.5	blank	1.0	290.054811000824	
49	227.12653803825378	pulse	1	t		47.0	2.5	blank	1.0	291.65521907806396	
49	227.6421890258789	fix_post	2		12	47.0	2.5	blank	1.0	292.1708700656891	0.10003113746643066
50	227.74222016334534	fix_pre	0		120	48.0	2.5	/experiments/knapen_AOT/AOT_stimuli/rescaled_final/0434_fw.mp4	0.0	292.2709012031555	1.0001499652862549
50	228.7266809940338	pulse	0	t		48.0	2.5	/experiments/knapen_AOT/AOT_stimuli/rescaled_final/0434_fw.mp4	0.0	293.255362033844	
50	228.7423701286316	movie	1		245	48.0	2.5	/experiments/knapen_AOT/AOT_stimuli/rescaled_final/0434_fw.mp4	0.0	293.2710511684418	2.508723020553589
50	230.32607316970825	pulse	1	t		48.0	2.5	/experiments/knapen_AOT/AOT_stimuli/rescaled_final/0434_fw.mp4	0.0	294.85475420951843	
50	231.25109314918518	fix_post	2		12	48.0	2.5	/experiments/knapen_AOT/AOT_stimuli/rescaled_final/0434_fw.mp4	0.0	295.77977418899536	0.09998488426208496
51	231.35107803344727	fix_pre	0		120	49.0	2.5	/experiments/knapen_AOT/AOT_stimuli/rescaled_final/1353_fw.mp4	0.0	295.87975907325745	1.0001609325408936
51	231.9262821674347	pulse	0	t		49.0	2.5	/experiments/knapen_AOT/AOT_stimuli/rescaled_final/1353_fw.mp4	0.0	296.4549632072449	
51	232.35123896598816	movie	1		241	49.0	2.5	/experiments/knapen_AOT/AOT_stimuli/rescaled_final/1353_fw.mp4	0.0	296.87992000579834	2.5003280639648438
51	233.52724313735962	pulse	1	t		49.0	2.5	/experiments/knapen_AOT/AOT_stimuli/rescaled_final/1353_fw.mp4	0.0	298.0559241771698	
51	234.851567029953	fix_post	2		12	49.0	2.5	/experiments/knapen_AOT/AOT_stimuli/rescaled_final/1353_fw.mp4	0.0	299.3802480697632	0.10010099411010742
52	234.9516680240631	fix_pre	0		120	50.0	2.5	/experiments/knapen_AOT/AOT_stimuli/rescaled_final/1747_rv.mp4	0.0	299.4803490638733	1.0000920295715332
52	235.12687015533447	pulse	0	t		50.0	2.5	/experiments/knapen_AOT/AOT_stimuli/rescaled_final/1747_rv.mp4	0.0	299.65555119514465	
52	235.95176005363464	movie	1		244	50.0	2.5	/experiments/knapen_AOT/AOT_stimuli/rescaled_final/1747_rv.mp4	0.0	300.4804410934448	2.500399112701416
52	236.7272400856018	pulse	1	t		50.0	2.5	/experiments/knapen_AOT/AOT_stimuli/rescaled_final/1747_rv.mp4	0.0	301.255921125412	
52	238.32730197906494	pulse	1	t		50.0	2.5	/experiments/knapen_AOT/AOT_stimuli/rescaled_final/1747_rv.mp4	0.0	302.8559830188751	
52	238.45215916633606	fix_post	2		11	50.0	2.5	/experiments/knapen_AOT/AOT_stimuli/rescaled_final/1747_rv.mp4	0.0	302.98084020614624	0.09166479110717773
53	238.54382395744324	fix_pre	0		120	51.0	2.5	/experiments/knapen_AOT/AOT_stimuli/rescaled_final/0345_fw.mp4	0.0	303.0725049972534	1.0001640319824219
53	239.54398798942566	movie	1		244	51.0	2.5	/experiments/knapen_AOT/AOT_stimuli/rescaled_final/0345_fw.mp4	0.0	304.07266902923584	2.500425100326538
53	239.9322521686554	pulse	1	t		51.0	2.5	/experiments/knapen_AOT/AOT_stimuli/rescaled_final/0345_fw.mp4	0.0	304.4609332084656	
53	241.52791213989258	pulse	1	t		51.0	2.5	/experiments/knapen_AOT/AOT_stimuli/rescaled_final/0345_fw.mp4	0.0	306.05659317970276	
53	242.0444130897522	fix_post	2		12	51.0	2.5	/experiments/knapen_AOT/AOT_stimuli/rescaled_final/0345_fw.mp4	0.0	306.5730941295624	0.0999610424041748
54	242.14437413215637	fix_pre	0		119	52.0	2.5	/experiments/knapen_AOT/AOT_stimuli/rescaled_final/1687_rv.mp4	0.0	306.67305517196655	0.9918298721313477
54	243.12809205055237	pulse	0	t		52.0	2.5	/experiments/knapen_AOT/AOT_stimuli/rescaled_final/1687_rv.mp4	0.0	307.65677309036255	
54	243.13620400428772	movie	1		246	52.0	2.5	/experiments/knapen_AOT/AOT_stimuli/rescaled_final/1687_rv.mp4	0.0	307.6648850440979	2.5087649822235107
54	244.73270106315613	pulse	1	t		52.0	2.5	/experiments/knapen_AOT/AOT_stimuli/rescaled_final/1687_rv.mp4	0.0	309.2613821029663	
54	245.64496898651123	fix_post	2		12	52.0	2.5	/experiments/knapen_AOT/AOT_stimuli/rescaled_final/1687_rv.mp4	0.0	310.1736500263214	0.09992718696594238
55	245.74489617347717	fix_pre	0		120	53.0	2.5	/experiments/knapen_AOT/AOT_stimuli/rescaled_final/0184_fw.mp4	0.0	310.27357721328735	1.0001578330993652
55	246.32853817939758	pulse	0	t		53.0	2.5	/experiments/knapen_AOT/AOT_stimuli/rescaled_final/0184_fw.mp4	0.0	310.85721921920776	
55	246.74505400657654	movie	1		245	53.0	2.5	/experiments/knapen_AOT/AOT_stimuli/rescaled_final/0184_fw.mp4	0.0	311.2737350463867	2.5003440380096436
55	247.92898201942444	pulse	1	t		53.0	2.5	/experiments/knapen_AOT/AOT_stimuli/rescaled_final/0184_fw.mp4	0.0	312.4576630592346	
55	249.24539804458618	fix_post	2		12	53.0	2.5	/experiments/knapen_AOT/AOT_stimuli/rescaled_final/0184_fw.mp4	0.0	313.77407908439636	0.10002899169921875
56	249.3454270362854	fix_pre	0		120	54.0	2.5	/experiments/knapen_AOT/AOT_stimuli/rescaled_final/1511_fw.mp4	0.0	313.8741080760956	1.0001771450042725
56	249.52910900115967	pulse	0	t		54.0	2.5	/experiments/knapen_AOT/AOT_stimuli/rescaled_final/1511_fw.mp4	0.0	314.05779004096985	
56	250.34560418128967	movie	1		244	54.0	2.5	/experiments/knapen_AOT/AOT_stimuli/rescaled_final/1511_fw.mp4	0.0	314.87428522109985	2.500382900238037
56	251.12919306755066	pulse	1	t		54.0	2.5	/experiments/knapen_AOT/AOT_stimuli/rescaled_final/1511_fw.mp4	0.0	315.65787410736084	
56	252.72946000099182	pulse	1	t		54.0	2.5	/experiments/knapen_AOT/AOT_stimuli/rescaled_final/1511_fw.mp4	0.0	317.258141040802	
56	252.8459870815277	fix_post	2		12	54.0	2.5	/experiments/knapen_AOT/AOT_stimuli/rescaled_final/1511_fw.mp4	0.0	317.3746681213379	0.10001397132873535
57	252.94600105285645	fix_pre	0		120	55.0	2.5	blank	1.0	317.4746820926666	1.0001709461212158
57	253.94617199897766	movie	1		299	55.0	2.5	blank	1.0	318.47485303878784	2.4919960498809814
57	254.32975101470947	pulse	1	t		55.0	2.5	blank	1.0	318.85843205451965	
57	255.93007016181946	pulse	1	t		55.0	2.5	blank	1.0	320.45875120162964	
57	256.43816804885864	fix_post	2		12	55.0	2.5	blank	1.0	320.9668490886688	0.10000109672546387
58	256.5381691455841	fix_pre	0		120	56.0	2.5	/experiments/knapen_AOT/AOT_stimuli/rescaled_final/0811_rv.mp4	0.0	321.0668501853943	1.0001380443572998
58	257.53021717071533	pulse	0	t		56.0	2.5	/experiments/knapen_AOT/AOT_stimuli/rescaled_final/0811_rv.mp4	0.0	322.0588982105255	
58	257.5383071899414	movie	1		246	56.0	2.5	/experiments/knapen_AOT/AOT_stimuli/rescaled_final/0811_rv.mp4	0.0	322.0669882297516	2.5087618827819824
58	259.1315801143646	pulse	1	t		56.0	2.5	/experiments/knapen_AOT/AOT_stimuli/rescaled_final/0811_rv.mp4	0.0	323.6602611541748	
58	260.0470690727234	fix_post	2		12	56.0	2.5	/experiments/knapen_AOT/AOT_stimuli/rescaled_final/0811_rv.mp4	0.0	324.57575011253357	0.09997296333312988
59	260.1470420360565	fix_pre	0		120	57.0	2.5	/experiments/knapen_AOT/AOT_stimuli/rescaled_final/1770_rv.mp4	0.0	324.6757230758667	1.0001440048217773
59	260.7307651042938	pulse	0	t		57.0	2.5	/experiments/knapen_AOT/AOT_stimuli/rescaled_final/1770_rv.mp4	0.0	325.259446144104	
59	261.1471860408783	movie	1		244	57.0	2.5	/experiments/knapen_AOT/AOT_stimuli/rescaled_final/1770_rv.mp4	0.0	325.6758670806885	2.5004711151123047
59	262.3310489654541	pulse	1	t		57.0	2.5	/experiments/knapen_AOT/AOT_stimuli/rescaled_final/1770_rv.mp4	0.0	326.8597300052643	
59	263.6476571559906	fix_post	2		12	57.0	2.5	/experiments/knapen_AOT/AOT_stimuli/rescaled_final/1770_rv.mp4	0.0	328.1763381958008	0.09998083114624023
60	263.74763798713684	fix_pre	0		120	58.0	2.5	/experiments/knapen_AOT/AOT_stimuli/rescaled_final/1222_rv.mp4	0.0	328.276319026947	1.0001020431518555
60	263.931214094162	pulse	0	t		58.0	2.5	/experiments/knapen_AOT/AOT_stimuli/rescaled_final/1222_rv.mp4	0.0	328.45989513397217	
60	264.7477400302887	movie	1		243	58.0	2.5	/experiments/knapen_AOT/AOT_stimuli/rescaled_final/1222_rv.mp4	0.0	329.2764210700989	2.500354051589966
60	265.53135108947754	pulse	1	t		58.0	2.5	/experiments/knapen_AOT/AOT_stimuli/rescaled_final/1222_rv.mp4	0.0	330.0600321292877	
60	267.13148403167725	pulse	1	t		58.0	2.5	/experiments/knapen_AOT/AOT_stimuli/rescaled_final/1222_rv.mp4	0.0	331.6601650714874	
60	267.24809408187866	fix_post	2		12	58.0	2.5	/experiments/knapen_AOT/AOT_stimuli/rescaled_final/1222_rv.mp4	0.0	331.77677512168884	0.10004091262817383
61	267.34813499450684	fix_pre	0		120	59.0	2.5	/experiments/knapen_AOT/AOT_stimuli/rescaled_final/0829_rv.mp4	0.0	331.876816034317	1.0001020431518555
61	268.3482370376587	movie	1		243	59.0	2.5	/experiments/knapen_AOT/AOT_stimuli/rescaled_final/0829_rv.mp4	0.0	332.8769180774689	2.4920530319213867
61	268.73241996765137	pulse	1	t		59.0	2.5	/experiments/knapen_AOT/AOT_stimuli/rescaled_final/0829_rv.mp4	0.0	333.26110100746155	
61	270.33220410346985	pulse	1	t		59.0	2.5	/experiments/knapen_AOT/AOT_stimuli/rescaled_final/0829_rv.mp4	0.0	334.86088514328003	
61	270.8402900695801	fix_post	2		12	59.0	2.5	/experiments/knapen_AOT/AOT_stimuli/rescaled_final/0829_rv.mp4	0.0	335.36897110939026	0.10002303123474121
62	270.9403131008148	fix_pre	0		120	60.0	2.5	/experiments/knapen_AOT/AOT_stimuli/rescaled_final/1658_rv.mp4	0.0	335.468994140625	1.000190019607544
62	271.932293176651	pulse	0	t		60.0	2.5	/experiments/knapen_AOT/AOT_stimuli/rescaled_final/1658_rv.mp4	0.0	336.4609742164612	
62	271.94050312042236	movie	1		248	60.0	2.5	/experiments/knapen_AOT/AOT_stimuli/rescaled_final/1658_rv.mp4	0.0	336.46918416023254	2.508643865585327
62	273.5329530239105	pulse	1	t		60.0	2.5	/experiments/knapen_AOT/AOT_stimuli/rescaled_final/1658_rv.mp4	0.0	338.0616340637207	
62	274.4491469860077	fix_post	2		12	60.0	2.5	/experiments/knapen_AOT/AOT_stimuli/rescaled_final/1658_rv.mp4	0.0	338.97782802581787	0.10004210472106934
63	274.54918909072876	fix_pre	0		120	61.0	2.5	blank	1.0	339.07787013053894	1.0001530647277832
63	275.13292503356934	pulse	0	t		61.0	2.5	blank	1.0	339.6616060733795	
63	275.54934215545654	movie	1		300	61.0	2.5	blank	1.0	340.0780231952667	2.5003879070281982
63	276.7331759929657	pulse	1	t		61.0	2.5	blank	1.0	341.2618570327759	
63	278.04973006248474	fix_post	2		12	61.0	2.5	blank	1.0	342.5784111022949	0.0999901294708252
64	278.14972019195557	fix_pre	0		120	62.0	2.5	/experiments/knapen_AOT/AOT_stimuli/rescaled_final/1776_rv.mp4	0.0	342.67840123176575	1.0002968311309814
64	278.3332550525665	pulse	0	t		62.0	2.5	/experiments/knapen_AOT/AOT_stimuli/rescaled_final/1776_rv.mp4	0.0	342.8619360923767	
64	279.15001702308655	movie	1		244	62.0	2.5	/experiments/knapen_AOT/AOT_stimuli/rescaled_final/1776_rv.mp4	0.0	343.67869806289673	2.5002241134643555
64	279.93348813056946	pulse	1	t		62.0	2.5	/experiments/knapen_AOT/AOT_stimuli/rescaled_final/1776_rv.mp4	0.0	344.46216917037964	
64	281.53381514549255	pulse	1	t		62.0	2.5	/experiments/knapen_AOT/AOT_stimuli/rescaled_final/1776_rv.mp4	0.0	346.06249618530273	
64	281.6502411365509	fix_post	2		12	62.0	2.5	/experiments/knapen_AOT/AOT_stimuli/rescaled_final/1776_rv.mp4	0.0	346.1789221763611	0.10003900527954102
65	281.75028014183044	fix_pre	0		119	63.0	2.5	/experiments/knapen_AOT/AOT_stimuli/rescaled_final/0432_fw.mp4	0.0	346.2789611816406	0.9918649196624756
65	282.7421450614929	movie	1		245	63.0	2.5	/experiments/knapen_AOT/AOT_stimuli/rescaled_final/0432_fw.mp4	0.0	347.2708261013031	2.5002870559692383
65	283.13421297073364	pulse	1	t		63.0	2.5	/experiments/knapen_AOT/AOT_stimuli/rescaled_final/0432_fw.mp4	0.0	347.6628940105438	
65	284.72584104537964	pulse	1	t		63.0	2.5	/experiments/knapen_AOT/AOT_stimuli/rescaled_final/0432_fw.mp4	0.0	349.2545220851898	
65	285.24243211746216	fix_post	2		12	63.0	2.5	/experiments/knapen_AOT/AOT_stimuli/rescaled_final/0432_fw.mp4	0.0	349.77111315727234	0.10008692741394043
66	285.3425190448761	fix_pre	0		119	64.0	2.5	/experiments/knapen_AOT/AOT_stimuli/rescaled_final/1362_fw.mp4	0.0	349.8712000846863	0.9917781352996826
66	286.32621717453003	pulse	0	t		64.0	2.5	/experiments/knapen_AOT/AOT_stimuli/rescaled_final/1362_fw.mp4	0.0	350.8548982143402	
66	286.3342971801758	movie	1		245	64.0	2.5	/experiments/knapen_AOT/AOT_stimuli/rescaled_final/1362_fw.mp4	0.0	350.86297821998596	2.508699893951416
66	287.9276521205902	pulse	1	t		64.0	2.5	/experiments/knapen_AOT/AOT_stimuli/rescaled_final/1362_fw.mp4	0.0	352.4563331604004	
66	288.8429970741272	fix_post	2		12	64.0	2.5	/experiments/knapen_AOT/AOT_stimuli/rescaled_final/1362_fw.mp4	0.0	353.3716781139374	0.10003495216369629
67	288.9430320262909	fix_pre	0		120	65.0	2.5	/experiments/knapen_AOT/AOT_stimuli/rescaled_final/0160_rv.mp4	0.0	353.4717130661011	1.0001330375671387
67	289.52658796310425	pulse	0	t		65.0	2.5	/experiments/knapen_AOT/AOT_stimuli/rescaled_final/0160_rv.mp4	0.0	354.05526900291443	
67	289.94316506385803	movie	1		244	65.0	2.5	/experiments/knapen_AOT/AOT_stimuli/rescaled_final/0160_rv.mp4	0.0	354.4718461036682	2.5008320808410645
67	291.1269881725311	pulse	1	t		65.0	2.5	/experiments/knapen_AOT/AOT_stimuli/rescaled_final/0160_rv.mp4	0.0	355.6556692123413	
67	292.4439971446991	fix_post	2		9	65.0	2.5	/experiments/knapen_AOT/AOT_stimuli/rescaled_final/0160_rv.mp4	0.0	356.9726781845093	0.09959197044372559
68	292.5435891151428	fix_pre	0		120	66.0	2.5	/experiments/knapen_AOT/AOT_stimuli/rescaled_final/0167_fw.mp4	0.0	357.072270154953	1.000105857849121
68	292.72709012031555	pulse	0	t		66.0	2.5	/experiments/knapen_AOT/AOT_stimuli/rescaled_final/0167_fw.mp4	0.0	357.25577116012573	
68	293.54369497299194	movie	1		243	66.0	2.5	/experiments/knapen_AOT/AOT_stimuli/rescaled_final/0167_fw.mp4	0.0	358.0723760128021	2.500418186187744
68	294.32732009887695	pulse	1	t		66.0	2.5	/experiments/knapen_AOT/AOT_stimuli/rescaled_final/0167_fw.mp4	0.0	358.85600113868713	
68	295.9275381565094	pulse	1	t		66.0	2.5	/experiments/knapen_AOT/AOT_stimuli/rescaled_final/0167_fw.mp4	0.0	360.4562191963196	
68	296.0441131591797	fix_post	2		12	66.0	2.5	/experiments/knapen_AOT/AOT_stimuli/rescaled_final/0167_fw.mp4	0.0	360.57279419898987	0.1000978946685791
69	296.14421105384827	fix_pre	0		120	67.0	2.5	/experiments/knapen_AOT/AOT_stimuli/rescaled_final/0373_rv.mp4	0.0	360.67289209365845	1.0000410079956055
69	297.1442520618439	movie	1		244	67.0	2.5	/experiments/knapen_AOT/AOT_stimuli/rescaled_final/0373_rv.mp4	0.0	361.67293310165405	2.492034912109375
69	297.52856612205505	pulse	1	t		67.0	2.5	/experiments/knapen_AOT/AOT_stimuli/rescaled_final/0373_rv.mp4	0.0	362.05724716186523	
69	299.12811517715454	pulse	1	t		67.0	2.5	/experiments/knapen_AOT/AOT_stimuli/rescaled_final/0373_rv.mp4	0.0	363.6567962169647	
69	299.63628697395325	fix_post	2		12	67.0	2.5	/experiments/knapen_AOT/AOT_stimuli/rescaled_final/0373_rv.mp4	0.0	364.1649680137634	0.10000300407409668
70	299.73628997802734	fix_pre	0		120	68.0	2.5	/experiments/knapen_AOT/AOT_stimuli/rescaled_final/0126_rv.mp4	0.0	364.2649710178375	1.0002121925354004
70	300.7283091545105	pulse	0	t		68.0	2.5	/experiments/knapen_AOT/AOT_stimuli/rescaled_final/0126_rv.mp4	0.0	365.2569901943207	
70	300.73650217056274	movie	1		245	68.0	2.5	/experiments/knapen_AOT/AOT_stimuli/rescaled_final/0126_rv.mp4	0.0	365.2651832103729	2.508626937866211
70	302.3293721675873	pulse	1	t		68.0	2.5	/experiments/knapen_AOT/AOT_stimuli/rescaled_final/0126_rv.mp4	0.0	366.85805320739746	
70	303.24512910842896	fix_post	2		12	68.0	2.5	/experiments/knapen_AOT/AOT_stimuli/rescaled_final/0126_rv.mp4	0.0	367.77381014823914	0.1000208854675293
71	303.3451499938965	fix_pre	0		120	69.0	2.5	blank	1.0	367.87383103370667	1.000162124633789
71	303.9288229942322	pulse	0	t		69.0	2.5	blank	1.0	368.45750403404236	
71	304.3453121185303	movie	1		300	69.0	2.5	blank	1.0	368.87399315834045	2.500377893447876
71	305.5290939807892	pulse	1	t		69.0	2.5	blank	1.0	370.05777502059937	
71	306.84569001197815	fix_post	2		12	69.0	2.5	blank	1.0	371.37437105178833	0.10002994537353516
72	306.9457199573517	fix_pre	0		120	70.0	2.5	/experiments/knapen_AOT/AOT_stimuli/rescaled_final/1912_fw.mp4	0.0	371.47440099716187	1.0001790523529053
72	307.12928318977356	pulse	0	t		70.0	2.5	/experiments/knapen_AOT/AOT_stimuli/rescaled_final/1912_fw.mp4	0.0	371.65796422958374	
72	307.9458990097046	movie	1		246	70.0	2.5	/experiments/knapen_AOT/AOT_stimuli/rescaled_final/1912_fw.mp4	0.0	372.47458004951477	2.5003039836883545
72	308.729562997818	pulse	1	t		70.0	2.5	/experiments/knapen_AOT/AOT_stimuli/rescaled_final/1912_fw.mp4	0.0	373.2582440376282	
72	310.3297669887543	pulse	1	t		70.0	2.5	/experiments/knapen_AOT/AOT_stimuli/rescaled_final/1912_fw.mp4	0.0	374.85844802856445	
72	310.44620299339294	fix_post	2		12	70.0	2.5	/experiments/knapen_AOT/AOT_stimuli/rescaled_final/1912_fw.mp4	0.0	374.9748840332031	0.10002303123474121
73	310.5462260246277	fix_pre	0		120	71.0	2.5	/experiments/knapen_AOT/AOT_stimuli/rescaled_final/1128_rv.mp4	0.0	375.07490706443787	1.000162124633789
73	311.5463881492615	movie	1		244	71.0	2.5	/experiments/knapen_AOT/AOT_stimuli/rescaled_final/1128_rv.mp4	0.0	376.07506918907166	2.4920170307159424
73	311.930340051651	pulse	1	t		71.0	2.5	/experiments/knapen_AOT/AOT_stimuli/rescaled_final/1128_rv.mp4	0.0	376.4590210914612	
73	313.5303039550781	pulse	1	t		71.0	2.5	/experiments/knapen_AOT/AOT_stimuli/rescaled_final/1128_rv.mp4	0.0	378.0589849948883	
73	314.0384051799774	fix_post	2		12	71.0	2.5	/experiments/knapen_AOT/AOT_stimuli/rescaled_final/1128_rv.mp4	0.0	378.5670862197876	0.10012388229370117
74	314.1385290622711	fix_pre	0		120	72.0	2.5	/experiments/knapen_AOT/AOT_stimuli/rescaled_final/1590_fw.mp4	0.0	378.6672101020813	1.0001049041748047
74	315.1304190158844	pulse	0	t		72.0	2.5	/experiments/knapen_AOT/AOT_stimuli/rescaled_final/1590_fw.mp4	0.0	379.6591000556946	
74	315.1386339664459	movie	1		246	72.0	2.5	/experiments/knapen_AOT/AOT_stimuli/rescaled_final/1590_fw.mp4	0.0	379.6673150062561	2.508702039718628
74	316.7311170101166	pulse	1	t		72.0	2.5	/experiments/knapen_AOT/AOT_stimuli/rescaled_final/1590_fw.mp4	0.0	381.25979804992676	
74	317.64733600616455	fix_post	2		12	72.0	2.5	/experiments/knapen_AOT/AOT_stimuli/rescaled_final/1590_fw.mp4	0.0	382.17601704597473	0.10002613067626953
75	317.7473621368408	fix_pre	0		120	73.0	2.5	/experiments/knapen_AOT/AOT_stimuli/rescaled_final/1829_rv.mp4	0.0	382.276043176651	1.0001459121704102
75	318.3309199810028	pulse	0	t		73.0	2.5	/experiments/knapen_AOT/AOT_stimuli/rescaled_final/1829_rv.mp4	0.0	382.859601020813	
75	318.74750804901123	movie	1		245	73.0	2.5	/experiments/knapen_AOT/AOT_stimuli/rescaled_final/1829_rv.mp4	0.0	383.2761890888214	2.5003459453582764
75	319.93132305145264	pulse	1	t		73.0	2.5	/experiments/knapen_AOT/AOT_stimuli/rescaled_final/1829_rv.mp4	0.0	384.4600040912628	
75	321.2478539943695	fix_post	2		12	73.0	2.5	/experiments/knapen_AOT/AOT_stimuli/rescaled_final/1829_rv.mp4	0.0	385.7765350341797	0.10009598731994629
76	321.34794998168945	fix_pre	0		120	74.0	2.5	/experiments/knapen_AOT/AOT_stimuli/rescaled_final/1590_rv.mp4	0.0	385.87663102149963	1.0000851154327393
76	321.5313789844513	pulse	0	t		74.0	2.5	/experiments/knapen_AOT/AOT_stimuli/rescaled_final/1590_rv.mp4	0.0	386.0600600242615	
76	322.3480350971222	movie	1		245	74.0	2.5	/experiments/knapen_AOT/AOT_stimuli/rescaled_final/1590_rv.mp4	0.0	386.8767161369324	2.5003139972686768
76	323.13176107406616	pulse	1	t		74.0	2.5	/experiments/knapen_AOT/AOT_stimuli/rescaled_final/1590_rv.mp4	0.0	387.66044211387634	
76	324.73191809654236	pulse	1	t		74.0	2.5	/experiments/knapen_AOT/AOT_stimuli/rescaled_final/1590_rv.mp4	0.0	389.26059913635254	
76	324.84834909439087	fix_post	2		12	74.0	2.5	/experiments/knapen_AOT/AOT_stimuli/rescaled_final/1590_rv.mp4	0.0	389.37703013420105	0.10006499290466309
77	324.94841408729553	fix_pre	0		120	75.0	2.5	blank	1.0	389.4770951271057	1.00016188621521
77	325.94857597351074	movie	1		299	75.0	2.5	blank	1.0	390.4772570133209	2.492056131362915
77	326.33211302757263	pulse	1	t		75.0	2.5	blank	1.0	390.8607940673828	
77	327.9323341846466	pulse	1	t		75.0	2.5	blank	1.0	392.4610152244568	
77	328.44063210487366	fix_post	2		12	75.0	2.5	blank	1.0	392.96931314468384	0.09996294975280762
78	328.54059505462646	fix_pre	0		120	76.0	2.5	/experiments/knapen_AOT/AOT_stimuli/rescaled_final/2066_rv.mp4	0.0	393.06927609443665	1.0001659393310547
78	329.5327241420746	pulse	0	t		76.0	2.5	/experiments/knapen_AOT/AOT_stimuli/rescaled_final/2066_rv.mp4	0.0	394.06140518188477	
78	329.5407609939575	movie	1		245	76.0	2.5	/experiments/knapen_AOT/AOT_stimuli/rescaled_final/2066_rv.mp4	0.0	394.0694420337677	2.5087311267852783
78	331.1335201263428	pulse	1	t		76.0	2.5	/experiments/knapen_AOT/AOT_stimuli/rescaled_final/2066_rv.mp4	0.0	395.66220116615295	
78	332.0494921207428	fix_post	2		12	76.0	2.5	/experiments/knapen_AOT/AOT_stimuli/rescaled_final/2066_rv.mp4	0.0	396.578173160553	0.1000518798828125
79	332.1495440006256	fix_pre	0		120	77.0	2.5	/experiments/knapen_AOT/AOT_stimuli/rescaled_final/1731_fw.mp4	0.0	396.6782250404358	1.0000910758972168
79	332.733118057251	pulse	0	t		77.0	2.5	/experiments/knapen_AOT/AOT_stimuli/rescaled_final/1731_fw.mp4	0.0	397.26179909706116	
79	333.1496350765228	movie	1		243	77.0	2.5	/experiments/knapen_AOT/AOT_stimuli/rescaled_final/1731_fw.mp4	0.0	397.678316116333	2.500386953353882
79	334.32922315597534	pulse	1	t		77.0	2.5	/experiments/knapen_AOT/AOT_stimuli/rescaled_final/1731_fw.mp4	0.0	398.8579041957855	
79	335.6500220298767	fix_post	2		12	77.0	2.5	/experiments/knapen_AOT/AOT_stimuli/rescaled_final/1731_fw.mp4	0.0	400.1787030696869	0.09999799728393555
80	335.75002002716064	fix_pre	0		120	78.0	2.5	/experiments/knapen_AOT/AOT_stimuli/rescaled_final/1091_rv.mp4	0.0	400.2787010669708	1.0001671314239502
80	335.9336211681366	pulse	0	t		78.0	2.5	/experiments/knapen_AOT/AOT_stimuli/rescaled_final/1091_rv.mp4	0.0	400.4623022079468	
80	336.7501871585846	movie	1		244	78.0	2.5	/experiments/knapen_AOT/AOT_stimuli/rescaled_final/1091_rv.mp4	0.0	401.2788681983948	2.50032901763916
80	337.5263681411743	pulse	1	t		78.0	2.5	/experiments/knapen_AOT/AOT_stimuli/rescaled_final/1091_rv.mp4	0.0	402.0550491809845	
80	339.13171911239624	pulse	1	t		78.0	2.5	/experiments/knapen_AOT/AOT_stimuli/rescaled_final/1091_rv.mp4	0.0	403.6604001522064	
80	339.25051617622375	fix_post	2		12	78.0	2.5	/experiments/knapen_AOT/AOT_stimuli/rescaled_final/1091_rv.mp4	0.0	403.77919721603394	0.10004281997680664
81	339.35055899620056	fix_pre	0		120	79.0	2.5	/experiments/knapen_AOT/AOT_stimuli/rescaled_final/0273_fw.mp4	0.0	403.87924003601074	1.0001120567321777
81	340.35067105293274	movie	1		243	79.0	2.5	/experiments/knapen_AOT/AOT_stimuli/rescaled_final/0273_fw.mp4	0.0	404.8793520927429	2.4920620918273926
81	340.73477816581726	pulse	1	t		79.0	2.5	/experiments/knapen_AOT/AOT_stimuli/rescaled_final/0273_fw.mp4	0.0	405.26345920562744	
81	342.3264670372009	pulse	1	t		79.0	2.5	/experiments/knapen_AOT/AOT_stimuli/rescaled_final/0273_fw.mp4	0.0	406.8551480770111	
81	342.84273314476013	fix_post	2		12	79.0	2.5	/experiments/knapen_AOT/AOT_stimuli/rescaled_final/0273_fw.mp4	0.0	407.3714141845703	0.10002493858337402
82	342.9427580833435	fix_pre	0		119	80.0	2.5	/experiments/knapen_AOT/AOT_stimuli/rescaled_final/1782_rv.mp4	0.0	407.4714391231537	0.9918060302734375
82	343.92649102211	pulse	0	t		80.0	2.5	/experiments/knapen_AOT/AOT_stimuli/rescaled_final/1782_rv.mp4	0.0	408.45517206192017	
82	343.93456411361694	movie	1		245	80.0	2.5	/experiments/knapen_AOT/AOT_stimuli/rescaled_final/1782_rv.mp4	0.0	408.4632451534271	2.508678913116455
82	345.52790904045105	pulse	1	t		80.0	2.5	/experiments/knapen_AOT/AOT_stimuli/rescaled_final/1782_rv.mp4	0.0	410.05659008026123	
82	346.4432430267334	fix_post	2		12	80.0	2.5	/experiments/knapen_AOT/AOT_stimuli/rescaled_final/1782_rv.mp4	0.0	410.9719240665436	0.10005593299865723
83	346.54329895973206	fix_pre	0		120	81.0	2.5	/experiments/knapen_AOT/AOT_stimuli/rescaled_final/1242_fw.mp4	0.0	411.07197999954224	1.0001702308654785
83	347.12702202796936	pulse	0	t		81.0	2.5	/experiments/knapen_AOT/AOT_stimuli/rescaled_final/1242_fw.mp4	0.0	411.65570306777954	
83	347.54346919059753	movie	1		245	81.0	2.5	/experiments/knapen_AOT/AOT_stimuli/rescaled_final/1242_fw.mp4	0.0	412.0721502304077	2.5004398822784424
83	348.72721219062805	pulse	1	t		81.0	2.5	/experiments/knapen_AOT/AOT_stimuli/rescaled_final/1242_fw.mp4	0.0	413.25589323043823	
83	350.043909072876	fix_post	2		12	81.0	2.5	/experiments/knapen_AOT/AOT_stimuli/rescaled_final/1242_fw.mp4	0.0	414.57259011268616	0.09997296333312988
84	350.1438820362091	fix_pre	0		120	82.0	2.5	/experiments/knapen_AOT/AOT_stimuli/rescaled_final/0810_fw.mp4	0.0	414.6725630760193	1.0001461505889893
84	350.3273801803589	pulse	0	t		82.0	2.5	/experiments/knapen_AOT/AOT_stimuli/rescaled_final/0810_fw.mp4	0.0	414.85606122016907	
84	351.1440281867981	movie	1		241	82.0	2.5	/experiments/knapen_AOT/AOT_stimuli/rescaled_final/0810_fw.mp4	0.0	415.6727092266083	2.500302791595459
84	351.92767810821533	pulse	1	t		82.0	2.5	/experiments/knapen_AOT/AOT_stimuli/rescaled_final/0810_fw.mp4	0.0	416.4563591480255	
84	353.52790999412537	pulse	1	t		82.0	2.5	/experiments/knapen_AOT/AOT_stimuli/rescaled_final/0810_fw.mp4	0.0	418.05659103393555	
84	353.64433097839355	fix_post	2		12	82.0	2.5	/experiments/knapen_AOT/AOT_stimuli/rescaled_final/0810_fw.mp4	0.0	418.17301201820374	0.10005307197570801
85	353.74438405036926	fix_pre	0		120	83.0	2.5	blank	1.0	418.27306509017944	1.0001070499420166
85	354.7444911003113	movie	1		299	83.0	2.5	blank	1.0	419.27317214012146	2.492090940475464
85	355.12821197509766	pulse	1	t		83.0	2.5	blank	1.0	419.65689301490784	
85	356.72831296920776	pulse	1	t		83.0	2.5	blank	1.0	421.25699400901794	
85	357.23658204078674	fix_post	2		12	83.0	2.5	blank	1.0	421.7652630805969	0.10000300407409668
87	357.33658504486084	stim	0		1716					421.865266084671	14.302314043045044
87	358.32866501808167	pulse	0	t						422.85734605789185	
87	359.92888712882996	pulse	0	t						424.45756816864014	
87	361.52914214134216	pulse	0	t						426.05782318115234	
87	363.1292941570282	pulse	0	t						427.6579751968384	
87	364.72953510284424	pulse	0	t						429.2582161426544	
87	366.329763174057	pulse	0	t						430.8584442138672	
87	367.93014311790466	pulse	0	t						432.45882415771484	
87	369.5303010940552	pulse	0	t						434.05898213386536	
87	371.1304421424866	pulse	0	t						435.65912318229675	
