trial_nr	onset	event_type	phase	response	nr_frames	movie_index	movie_duration	movie_file	blank	onset_abs	duration
0	0.1663358211517334	stim	0		1					41.132938385009766	0.008291959762573242
0	0.16832351684570312	response	0	space						41.134926080703735	
1	0.17462778091430664	stim	0		4609					41.14123034477234	38.42686414718628
1	38.58639454841614	pulse	0	t						79.55299711227417	
1	38.601491928100586	stim	1		1714					79.56809449195862	14.29768180847168
1	40.180760860443115	pulse	1	t						81.14736342430115	
1	41.78095865249634	pulse	1	t						82.74756121635437	
1	43.38136291503906	pulse	1	t						84.3479654788971	
1	44.981685638427734	pulse	1	t						85.94828820228577	
1	46.58192181587219	pulse	1	t						87.54852437973022	
1	48.18197822570801	pulse	1	t						89.14858078956604	
1	49.782214641571045	pulse	1	t						90.74881720542908	
1	51.38249588012695	pulse	1	t						92.34909844398499	
2	52.899173736572266	fix_pre	0		11	0.0	2.5	/experiments/Knapen_AOT/AOT_stimuli/rescaled_final/1404_fw.mp4	0.0	93.8657763004303	0.1083977222442627
2	52.97507190704346	pulse	0	t		0.0	2.5	/experiments/Knapen_AOT/AOT_stimuli/rescaled_final/1404_fw.mp4	0.0	93.94167447090149	
2	53.00757145881653	movie	1		282	0.0	2.5	/experiments/Knapen_AOT/AOT_stimuli/rescaled_final/1404_fw.mp4	0.0	93.97417402267456	2.491971492767334
2	54.58220863342285	pulse	1	t		0.0	2.5	/experiments/Knapen_AOT/AOT_stimuli/rescaled_final/1404_fw.mp4	0.0	95.54881119728088	
2	55.49954295158386	fix_post	2		12	0.0	2.5	/experiments/Knapen_AOT/AOT_stimuli/rescaled_final/1404_fw.mp4	0.0	96.4661455154419	0.1000204086303711
3	55.59956336021423	fix_pre	0		120	1.0	2.5	/experiments/Knapen_AOT/AOT_stimuli/rescaled_final/0320_rv.mp4	0.0	96.56616592407227	1.0085234642028809
3	56.17513585090637	pulse	0	t		1.0	2.5	/experiments/Knapen_AOT/AOT_stimuli/rescaled_final/0320_rv.mp4	0.0	97.1417384147644	
3	56.608086824417114	movie	1		287	1.0	2.5	/experiments/Knapen_AOT/AOT_stimuli/rescaled_final/0320_rv.mp4	0.0	97.57468938827515	2.492006301879883
3	57.77529811859131	pulse	1	t		1.0	2.5	/experiments/Knapen_AOT/AOT_stimuli/rescaled_final/0320_rv.mp4	0.0	98.74190068244934	
3	59.100093126297	fix_post	2		12	1.0	2.5	/experiments/Knapen_AOT/AOT_stimuli/rescaled_final/0320_rv.mp4	0.0	100.06669569015503	0.10002279281616211
4	59.20011591911316	fix_pre	0		120	2.0	2.5	/experiments/Knapen_AOT/AOT_stimuli/rescaled_final/0078_fw.mp4	0.0	100.16671848297119	1.0085055828094482
4	59.37557792663574	pulse	0	t		2.0	2.5	/experiments/Knapen_AOT/AOT_stimuli/rescaled_final/0078_fw.mp4	0.0	100.34218049049377	
4	60.20862150192261	movie	1		289	2.0	2.5	/experiments/Knapen_AOT/AOT_stimuli/rescaled_final/0078_fw.mp4	0.0	101.17522406578064	2.49200701713562
4	60.97562646865845	pulse	1	t		2.0	2.5	/experiments/Knapen_AOT/AOT_stimuli/rescaled_final/0078_fw.mp4	0.0	101.94222903251648	
4	62.575827836990356	pulse	1	t		2.0	2.5	/experiments/Knapen_AOT/AOT_stimuli/rescaled_final/0078_fw.mp4	0.0	103.54243040084839	
4	62.70062851905823	fix_post	2		12	2.0	2.5	/experiments/Knapen_AOT/AOT_stimuli/rescaled_final/0078_fw.mp4	0.0	103.66723108291626	0.10001945495605469
5	62.80064797401428	fix_pre	0		120	3.0	2.5	/experiments/Knapen_AOT/AOT_stimuli/rescaled_final/0612_fw.mp4	0.0	103.76725053787231	1.0085010528564453
5	63.80914902687073	movie	1		285	3.0	2.5	/experiments/Knapen_AOT/AOT_stimuli/rescaled_final/0612_fw.mp4	0.0	104.77575159072876	2.492058515548706
5	64.17508387565613	pulse	1	t		3.0	2.5	/experiments/Knapen_AOT/AOT_stimuli/rescaled_final/0612_fw.mp4	0.0	105.14168643951416	
5	65.77664732933044	pulse	1	t		3.0	2.5	/experiments/Knapen_AOT/AOT_stimuli/rescaled_final/0612_fw.mp4	0.0	106.74324989318848	
5	66.30120754241943	fix_post	2		12	3.0	2.5	/experiments/Knapen_AOT/AOT_stimuli/rescaled_final/0612_fw.mp4	0.0	107.26781010627747	0.10000038146972656
6	66.40120792388916	fix_pre	0		118	4.0	2.5	/experiments/Knapen_AOT/AOT_stimuli/rescaled_final/1844_fw.mp4	0.0	107.36781048774719	0.9918062686920166
6	67.37661004066467	pulse	0	t		4.0	2.5	/experiments/Knapen_AOT/AOT_stimuli/rescaled_final/1844_fw.mp4	0.0	108.3432126045227	
6	67.39301419258118	movie	1		291	4.0	2.5	/experiments/Knapen_AOT/AOT_stimuli/rescaled_final/1844_fw.mp4	0.0	108.35961675643921	2.5003812313079834
6	68.97519326210022	pulse	1	t		4.0	2.5	/experiments/Knapen_AOT/AOT_stimuli/rescaled_final/1844_fw.mp4	0.0	109.94179582595825	
6	69.89339542388916	fix_post	2		12	4.0	2.5	/experiments/Knapen_AOT/AOT_stimuli/rescaled_final/1844_fw.mp4	0.0	110.85999798774719	0.10003471374511719
7	69.99343013763428	fix_pre	0		120	5.0	2.5	blank	1.0	110.96003270149231	1.0001215934753418
7	70.57700061798096	pulse	0	t		5.0	2.5	blank	1.0	111.54360318183899	
7	70.99355173110962	movie	1		300	5.0	2.5	blank	1.0	111.96015429496765	2.5003674030303955
7	72.17724561691284	pulse	1	t		5.0	2.5	blank	1.0	113.14384818077087	
7	73.49391913414001	fix_post	2		12	5.0	2.5	blank	1.0	114.46052169799805	0.10005307197570801
8	73.59397220611572	fix_pre	0		120	6.0	2.5	/experiments/Knapen_AOT/AOT_stimuli/rescaled_final/1460_fw.mp4	0.0	114.56057476997375	1.0084850788116455
8	73.77745008468628	pulse	0	t		6.0	2.5	/experiments/Knapen_AOT/AOT_stimuli/rescaled_final/1460_fw.mp4	0.0	114.74405264854431	
8	74.60245728492737	movie	1		294	6.0	2.5	/experiments/Knapen_AOT/AOT_stimuli/rescaled_final/1460_fw.mp4	0.0	115.5690598487854	2.4919817447662354
8	75.37494921684265	pulse	1	t		6.0	2.5	/experiments/Knapen_AOT/AOT_stimuli/rescaled_final/1460_fw.mp4	0.0	116.34155178070068	
8	76.97532749176025	pulse	1	t		6.0	2.5	/experiments/Knapen_AOT/AOT_stimuli/rescaled_final/1460_fw.mp4	0.0	117.94193005561829	
8	77.0944390296936	fix_post	2		12	6.0	2.5	/experiments/Knapen_AOT/AOT_stimuli/rescaled_final/1460_fw.mp4	0.0	118.06104159355164	0.10013365745544434
9	77.19457268714905	fix_pre	0		120	7.0	2.5	/experiments/Knapen_AOT/AOT_stimuli/rescaled_final/0255_rv.mp4	0.0	118.16117525100708	1.008373737335205
9	78.20294642448425	movie	1		295	7.0	2.5	/experiments/Knapen_AOT/AOT_stimuli/rescaled_final/0255_rv.mp4	0.0	119.16954898834229	2.492041826248169
9	78.57817721366882	pulse	1	t		7.0	2.5	/experiments/Knapen_AOT/AOT_stimuli/rescaled_final/0255_rv.mp4	0.0	119.54477977752686	
9	80.17835474014282	pulse	1	t		7.0	2.5	/experiments/Knapen_AOT/AOT_stimuli/rescaled_final/0255_rv.mp4	0.0	121.14495730400085	
9	80.69498825073242	fix_post	2		12	7.0	2.5	/experiments/Knapen_AOT/AOT_stimuli/rescaled_final/0255_rv.mp4	0.0	121.66159081459045	0.10002732276916504
10	80.79501557350159	fix_pre	0		119	8.0	2.5	/experiments/Knapen_AOT/AOT_stimuli/rescaled_final/1309_rv.mp4	0.0	121.76161813735962	1.000243902206421
10	81.77867484092712	pulse	0	t		8.0	2.5	/experiments/Knapen_AOT/AOT_stimuli/rescaled_final/1309_rv.mp4	0.0	122.74527740478516	
10	81.79525947570801	movie	1		296	8.0	2.5	/experiments/Knapen_AOT/AOT_stimuli/rescaled_final/1309_rv.mp4	0.0	122.76186203956604	2.500260353088379
10	83.37683868408203	pulse	1	t		8.0	2.5	/experiments/Knapen_AOT/AOT_stimuli/rescaled_final/1309_rv.mp4	0.0	124.34344124794006	
10	84.29551982879639	fix_post	2		12	8.0	2.5	/experiments/Knapen_AOT/AOT_stimuli/rescaled_final/1309_rv.mp4	0.0	125.26212239265442	0.10016751289367676
11	84.39568734169006	fix_pre	0		120	9.0	2.5	/experiments/Knapen_AOT/AOT_stimuli/rescaled_final/1514_rv.mp4	0.0	125.3622899055481	1.000434160232544
11	84.97918319702148	pulse	0	t		9.0	2.5	/experiments/Knapen_AOT/AOT_stimuli/rescaled_final/1514_rv.mp4	0.0	125.94578576087952	
11	85.39612150192261	movie	1		298	9.0	2.5	/experiments/Knapen_AOT/AOT_stimuli/rescaled_final/1514_rv.mp4	0.0	126.36272406578064	2.4999425411224365
11	86.57933282852173	pulse	1	t		9.0	2.5	/experiments/Knapen_AOT/AOT_stimuli/rescaled_final/1514_rv.mp4	0.0	127.54593539237976	
11	87.89606404304504	fix_post	2		12	9.0	2.5	/experiments/Knapen_AOT/AOT_stimuli/rescaled_final/1514_rv.mp4	0.0	128.86266660690308	0.10001873970031738
12	87.99608278274536	fix_pre	0		120	10.0	2.5	/experiments/Knapen_AOT/AOT_stimuli/rescaled_final/0193_rv.mp4	0.0	128.9626853466034	1.0085296630859375
12	88.17959022521973	pulse	0	t		10.0	2.5	/experiments/Knapen_AOT/AOT_stimuli/rescaled_final/0193_rv.mp4	0.0	129.14619278907776	
12	89.0046124458313	movie	1		296	10.0	2.5	/experiments/Knapen_AOT/AOT_stimuli/rescaled_final/0193_rv.mp4	0.0	129.97121500968933	2.492121458053589
12	89.77545094490051	pulse	1	t		10.0	2.5	/experiments/Knapen_AOT/AOT_stimuli/rescaled_final/0193_rv.mp4	0.0	130.74205350875854	
12	91.37574911117554	pulse	1	t		10.0	2.5	/experiments/Knapen_AOT/AOT_stimuli/rescaled_final/0193_rv.mp4	0.0	132.34235167503357	
12	91.49673390388489	fix_post	2		12	10.0	2.5	/experiments/Knapen_AOT/AOT_stimuli/rescaled_final/0193_rv.mp4	0.0	132.46333646774292	0.09990096092224121
13	91.59663486480713	fix_pre	0		120	11.0	2.5	/experiments/Knapen_AOT/AOT_stimuli/rescaled_final/0280_fw.mp4	0.0	132.56323742866516	1.0084972381591797
13	92.60513210296631	movie	1		297	11.0	2.5	/experiments/Knapen_AOT/AOT_stimuli/rescaled_final/0280_fw.mp4	0.0	133.57173466682434	2.4920237064361572
13	92.97632670402527	pulse	1	t		11.0	2.5	/experiments/Knapen_AOT/AOT_stimuli/rescaled_final/0280_fw.mp4	0.0	133.9429292678833	
13	94.5761227607727	pulse	1	t		11.0	2.5	/experiments/Knapen_AOT/AOT_stimuli/rescaled_final/0280_fw.mp4	0.0	135.54272532463074	
13	95.09715580940247	fix_post	2		12	11.0	2.5	/experiments/Knapen_AOT/AOT_stimuli/rescaled_final/0280_fw.mp4	0.0	136.0637583732605	0.10001921653747559
14	95.19717502593994	fix_pre	0		119	12.0	2.5	blank	1.0	136.16377758979797	0.9918210506439209
14	96.1808750629425	pulse	0	t		12.0	2.5	blank	1.0	137.14747762680054	
14	96.18899607658386	movie	1		301	12.0	2.5	blank	1.0	137.1555986404419	2.508755683898926
14	97.78120994567871	pulse	1	t		12.0	2.5	blank	1.0	138.74781250953674	
14	98.69775176048279	fix_post	2		12	12.0	2.5	blank	1.0	139.66435432434082	0.09998416900634766
15	98.79773592948914	fix_pre	0		120	13.0	2.5	/experiments/Knapen_AOT/AOT_stimuli/rescaled_final/1309_fw.mp4	0.0	139.76433849334717	1.0084881782531738
15	99.38134002685547	pulse	0	t		13.0	2.5	/experiments/Knapen_AOT/AOT_stimuli/rescaled_final/1309_fw.mp4	0.0	140.3479425907135	
15	99.80622410774231	movie	1		297	13.0	2.5	/experiments/Knapen_AOT/AOT_stimuli/rescaled_final/1309_fw.mp4	0.0	140.77282667160034	2.492008924484253
15	100.97722434997559	pulse	1	t		13.0	2.5	/experiments/Knapen_AOT/AOT_stimuli/rescaled_final/1309_fw.mp4	0.0	141.94382691383362	
15	102.29823303222656	fix_post	2		12	13.0	2.5	/experiments/Knapen_AOT/AOT_stimuli/rescaled_final/1309_fw.mp4	0.0	143.2648355960846	0.1000216007232666
16	102.39825463294983	fix_pre	0		120	14.0	2.5	/experiments/Knapen_AOT/AOT_stimuli/rescaled_final/0095_rv.mp4	0.0	143.36485719680786	1.0001461505889893
16	102.58177709579468	pulse	0	t		14.0	2.5	/experiments/Knapen_AOT/AOT_stimuli/rescaled_final/0095_rv.mp4	0.0	143.5483796596527	
16	103.39840078353882	movie	1		298	14.0	2.5	/experiments/Knapen_AOT/AOT_stimuli/rescaled_final/0095_rv.mp4	0.0	144.36500334739685	2.5004096031188965
16	104.17751598358154	pulse	1	t		14.0	2.5	/experiments/Knapen_AOT/AOT_stimuli/rescaled_final/0095_rv.mp4	0.0	145.14411854743958	
16	105.77968072891235	pulse	1	t		14.0	2.5	/experiments/Knapen_AOT/AOT_stimuli/rescaled_final/0095_rv.mp4	0.0	146.74628329277039	
16	105.89881038665771	fix_post	2		12	14.0	2.5	/experiments/Knapen_AOT/AOT_stimuli/rescaled_final/0095_rv.mp4	0.0	146.86541295051575	0.09999752044677734
17	105.99880790710449	fix_pre	0		120	15.0	2.5	/experiments/Knapen_AOT/AOT_stimuli/rescaled_final/1227_fw.mp4	0.0	146.96541047096252	1.008481502532959
17	107.00728940963745	movie	1		296	15.0	2.5	/experiments/Knapen_AOT/AOT_stimuli/rescaled_final/1227_fw.mp4	0.0	147.97389197349548	2.4920308589935303
17	107.38009715080261	pulse	1	t		15.0	2.5	/experiments/Knapen_AOT/AOT_stimuli/rescaled_final/1227_fw.mp4	0.0	148.34669971466064	
17	108.97832345962524	pulse	1	t		15.0	2.5	/experiments/Knapen_AOT/AOT_stimuli/rescaled_final/1227_fw.mp4	0.0	149.94492602348328	
17	109.49932026863098	fix_post	2		12	15.0	2.5	/experiments/Knapen_AOT/AOT_stimuli/rescaled_final/1227_fw.mp4	0.0	150.465922832489	0.10001182556152344
18	109.5993320941925	fix_pre	0		119	16.0	2.5	/experiments/Knapen_AOT/AOT_stimuli/rescaled_final/1357_rv.mp4	0.0	150.56593465805054	1.0002236366271973
18	110.58309602737427	pulse	0	t		16.0	2.5	/experiments/Knapen_AOT/AOT_stimuli/rescaled_final/1357_rv.mp4	0.0	151.5496985912323	
18	110.5995557308197	movie	1		298	16.0	2.5	/experiments/Knapen_AOT/AOT_stimuli/rescaled_final/1357_rv.mp4	0.0	151.56615829467773	2.50034499168396
18	112.18103861808777	pulse	1	t		16.0	2.5	/experiments/Knapen_AOT/AOT_stimuli/rescaled_final/1357_rv.mp4	0.0	153.1476411819458	
18	113.09990072250366	fix_post	2		12	16.0	2.5	/experiments/Knapen_AOT/AOT_stimuli/rescaled_final/1357_rv.mp4	0.0	154.0665032863617	0.09997987747192383
19	113.19988059997559	fix_pre	0		120	17.0	2.5	/experiments/Knapen_AOT/AOT_stimuli/rescaled_final/0836_fw.mp4	0.0	154.16648316383362	1.0085217952728271
19	113.77554893493652	pulse	0	t		17.0	2.5	/experiments/Knapen_AOT/AOT_stimuli/rescaled_final/0836_fw.mp4	0.0	154.74215149879456	
19	114.20840239524841	movie	1		297	17.0	2.5	/experiments/Knapen_AOT/AOT_stimuli/rescaled_final/0836_fw.mp4	0.0	155.17500495910645	2.4920496940612793
19	115.37539577484131	pulse	1	t		17.0	2.5	/experiments/Knapen_AOT/AOT_stimuli/rescaled_final/0836_fw.mp4	0.0	156.34199833869934	
19	116.70045208930969	fix_post	2		12	17.0	2.5	/experiments/Knapen_AOT/AOT_stimuli/rescaled_final/0836_fw.mp4	0.0	157.66705465316772	0.09998011589050293
20	116.8004322052002	fix_pre	0		120	18.0	2.5	/experiments/Knapen_AOT/AOT_stimuli/rescaled_final/1296_fw.mp4	0.0	157.76703476905823	1.0085413455963135
20	116.97570395469666	pulse	0	t		18.0	2.5	/experiments/Knapen_AOT/AOT_stimuli/rescaled_final/1296_fw.mp4	0.0	157.9423065185547	
20	117.80897355079651	movie	1		286	18.0	2.5	/experiments/Knapen_AOT/AOT_stimuli/rescaled_final/1296_fw.mp4	0.0	158.77557611465454	2.4920055866241455
20	118.57592368125916	pulse	1	t		18.0	2.5	/experiments/Knapen_AOT/AOT_stimuli/rescaled_final/1296_fw.mp4	0.0	159.5425262451172	
20	120.17633056640625	pulse	1	t		18.0	2.5	/experiments/Knapen_AOT/AOT_stimuli/rescaled_final/1296_fw.mp4	0.0	161.14293313026428	
20	120.30097913742065	fix_post	2		12	18.0	2.5	/experiments/Knapen_AOT/AOT_stimuli/rescaled_final/1296_fw.mp4	0.0	161.2675817012787	0.10016989707946777
21	120.40114903450012	fix_pre	0		120	19.0	2.5	/experiments/Knapen_AOT/AOT_stimuli/rescaled_final/0077_fw.mp4	0.0	161.36775159835815	1.008378028869629
21	121.40952706336975	movie	1		271	19.0	2.5	/experiments/Knapen_AOT/AOT_stimuli/rescaled_final/0077_fw.mp4	0.0	162.37612962722778	2.491990804672241
21	121.77652549743652	pulse	1	t		19.0	2.5	/experiments/Knapen_AOT/AOT_stimuli/rescaled_final/0077_fw.mp4	0.0	162.74312806129456	
21	123.37669849395752	pulse	1	t		19.0	2.5	/experiments/Knapen_AOT/AOT_stimuli/rescaled_final/0077_fw.mp4	0.0	164.34330105781555	
21	123.90151786804199	fix_post	2		12	19.0	2.5	/experiments/Knapen_AOT/AOT_stimuli/rescaled_final/0077_fw.mp4	0.0	164.86812043190002	0.10007953643798828
22	124.00159740447998	fix_pre	0		118	20.0	2.5	blank	1.0	164.968199968338	0.9834880828857422
22	124.9769868850708	pulse	0	t		20.0	2.5	blank	1.0	165.94358944892883	
22	124.98508548736572	movie	1		301	20.0	2.5	blank	1.0	165.95168805122375	2.5086617469787598
22	126.57723188400269	pulse	1	t		20.0	2.5	blank	1.0	167.54383444786072	
22	127.49374723434448	fix_post	2		12	20.0	2.5	blank	1.0	168.46034979820251	0.09999680519104004
23	127.59374403953552	fix_pre	0		120	21.0	2.5	/experiments/Knapen_AOT/AOT_stimuli/rescaled_final/0813_fw.mp4	0.0	168.56034660339355	1.008514404296875
23	128.17737460136414	pulse	0	t		21.0	2.5	/experiments/Knapen_AOT/AOT_stimuli/rescaled_final/0813_fw.mp4	0.0	169.14397716522217	
23	128.6022584438324	movie	1		280	21.0	2.5	/experiments/Knapen_AOT/AOT_stimuli/rescaled_final/0813_fw.mp4	0.0	169.56886100769043	2.4921317100524902
23	129.77572202682495	pulse	1	t		21.0	2.5	/experiments/Knapen_AOT/AOT_stimuli/rescaled_final/0813_fw.mp4	0.0	170.74232459068298	
23	131.0943901538849	fix_post	2		12	21.0	2.5	/experiments/Knapen_AOT/AOT_stimuli/rescaled_final/0813_fw.mp4	0.0	172.06099271774292	0.0999455451965332
24	131.19433569908142	fix_pre	0		120	22.0	2.5	/experiments/Knapen_AOT/AOT_stimuli/rescaled_final/1950_fw.mp4	0.0	172.16093826293945	1.00846529006958
24	131.37784385681152	pulse	0	t		22.0	2.5	/experiments/Knapen_AOT/AOT_stimuli/rescaled_final/1950_fw.mp4	0.0	172.34444642066956	
24	132.202800989151	movie	1		279	22.0	2.5	/experiments/Knapen_AOT/AOT_stimuli/rescaled_final/1950_fw.mp4	0.0	173.16940355300903	2.492018461227417
24	132.97753715515137	pulse	1	t		22.0	2.5	/experiments/Knapen_AOT/AOT_stimuli/rescaled_final/1950_fw.mp4	0.0	173.9441397190094	
24	134.5775032043457	pulse	1	t		22.0	2.5	/experiments/Knapen_AOT/AOT_stimuli/rescaled_final/1950_fw.mp4	0.0	175.54410576820374	
24	134.69481945037842	fix_post	2		12	22.0	2.5	/experiments/Knapen_AOT/AOT_stimuli/rescaled_final/1950_fw.mp4	0.0	175.66142201423645	0.1000218391418457
25	134.79484128952026	fix_pre	0		120	23.0	2.5	/experiments/Knapen_AOT/AOT_stimuli/rescaled_final/0163_fw.mp4	0.0	175.7614438533783	1.0084929466247559
25	135.80333423614502	movie	1		290	23.0	2.5	/experiments/Knapen_AOT/AOT_stimuli/rescaled_final/0163_fw.mp4	0.0	176.76993680000305	2.4920475482940674
25	136.17698740959167	pulse	1	t		23.0	2.5	/experiments/Knapen_AOT/AOT_stimuli/rescaled_final/0163_fw.mp4	0.0	177.1435899734497	
25	137.77669501304626	pulse	1	t		23.0	2.5	/experiments/Knapen_AOT/AOT_stimuli/rescaled_final/0163_fw.mp4	0.0	178.7432975769043	
25	138.2953817844391	fix_post	2		12	23.0	2.5	/experiments/Knapen_AOT/AOT_stimuli/rescaled_final/0163_fw.mp4	0.0	179.26198434829712	0.10012507438659668
26	138.39550685882568	fix_pre	0		119	24.0	2.5	/experiments/Knapen_AOT/AOT_stimuli/rescaled_final/0377_rv.mp4	0.0	179.36210942268372	1.0001606941223145
26	139.37905764579773	pulse	0	t		24.0	2.5	/experiments/Knapen_AOT/AOT_stimuli/rescaled_final/0377_rv.mp4	0.0	180.34566020965576	
26	139.395667552948	movie	1		291	24.0	2.5	/experiments/Knapen_AOT/AOT_stimuli/rescaled_final/0377_rv.mp4	0.0	180.36227011680603	2.5002496242523193
26	140.97786164283752	pulse	1	t		24.0	2.5	/experiments/Knapen_AOT/AOT_stimuli/rescaled_final/0377_rv.mp4	0.0	181.94446420669556	
26	141.89591717720032	fix_post	2		12	24.0	2.5	/experiments/Knapen_AOT/AOT_stimuli/rescaled_final/0377_rv.mp4	0.0	182.86251974105835	0.10000419616699219
27	141.9959213733673	fix_pre	0		120	25.0	2.5	/experiments/Knapen_AOT/AOT_stimuli/rescaled_final/0501_fw.mp4	0.0	182.96252393722534	1.0085749626159668
27	142.5796241760254	pulse	0	t		25.0	2.5	/experiments/Knapen_AOT/AOT_stimuli/rescaled_final/0501_fw.mp4	0.0	183.54622673988342	
27	143.00449633598328	movie	1		286	25.0	2.5	/experiments/Knapen_AOT/AOT_stimuli/rescaled_final/0501_fw.mp4	0.0	183.9710988998413	2.492084264755249
27	144.1778838634491	pulse	1	t		25.0	2.5	/experiments/Knapen_AOT/AOT_stimuli/rescaled_final/0501_fw.mp4	0.0	185.14448642730713	
27	145.49658060073853	fix_post	2		12	25.0	2.5	/experiments/Knapen_AOT/AOT_stimuli/rescaled_final/0501_fw.mp4	0.0	186.46318316459656	0.09991669654846191
28	145.596497297287	fix_pre	0		120	26.0	2.5	/experiments/Knapen_AOT/AOT_stimuli/rescaled_final/0163_rv.mp4	0.0	186.56309986114502	1.0084798336029053
28	145.7800257205963	pulse	0	t		26.0	2.5	/experiments/Knapen_AOT/AOT_stimuli/rescaled_final/0163_rv.mp4	0.0	186.74662828445435	
28	146.6049771308899	movie	1		272	26.0	2.5	/experiments/Knapen_AOT/AOT_stimuli/rescaled_final/0163_rv.mp4	0.0	187.57157969474792	2.492025136947632
28	147.3786916732788	pulse	1	t		26.0	2.5	/experiments/Knapen_AOT/AOT_stimuli/rescaled_final/0163_rv.mp4	0.0	188.34529423713684	
28	148.98071360588074	pulse	1	t		26.0	2.5	/experiments/Knapen_AOT/AOT_stimuli/rescaled_final/0163_rv.mp4	0.0	189.94731616973877	
28	149.09700226783752	fix_post	2		12	26.0	2.5	/experiments/Knapen_AOT/AOT_stimuli/rescaled_final/0163_rv.mp4	0.0	190.06360483169556	0.10000467300415039
29	149.19700694084167	fix_pre	0		120	27.0	2.5	/experiments/Knapen_AOT/AOT_stimuli/rescaled_final/1198_rv.mp4	0.0	190.1636095046997	1.0085327625274658
29	150.20553970336914	movie	1		281	27.0	2.5	/experiments/Knapen_AOT/AOT_stimuli/rescaled_final/1198_rv.mp4	0.0	191.17214226722717	2.492091178894043
29	150.58084321022034	pulse	1	t		27.0	2.5	/experiments/Knapen_AOT/AOT_stimuli/rescaled_final/1198_rv.mp4	0.0	191.54744577407837	
29	152.17912244796753	pulse	1	t		27.0	2.5	/experiments/Knapen_AOT/AOT_stimuli/rescaled_final/1198_rv.mp4	0.0	193.14572501182556	
29	152.69763088226318	fix_post	2		12	27.0	2.5	/experiments/Knapen_AOT/AOT_stimuli/rescaled_final/1198_rv.mp4	0.0	193.66423344612122	0.09995341300964355
30	152.79758429527283	fix_pre	0		119	28.0	2.5	blank	1.0	193.76418685913086	0.991809606552124
30	153.78124594688416	pulse	0	t		28.0	2.5	blank	1.0	194.7478485107422	
30	153.78939390182495	movie	1		301	28.0	2.5	blank	1.0	194.75599646568298	2.5088281631469727
30	155.38180017471313	pulse	1	t		28.0	2.5	blank	1.0	196.34840273857117	
30	156.29822206497192	fix_post	2		12	28.0	2.5	blank	1.0	197.26482462882996	0.09992218017578125
31	156.3981442451477	fix_pre	0		120	29.0	2.5	/experiments/Knapen_AOT/AOT_stimuli/rescaled_final/0327_rv.mp4	0.0	197.36474680900574	1.008448600769043
31	156.9816837310791	pulse	0	t		29.0	2.5	/experiments/Knapen_AOT/AOT_stimuli/rescaled_final/0327_rv.mp4	0.0	197.94828629493713	
31	157.40659284591675	movie	1		283	29.0	2.5	/experiments/Knapen_AOT/AOT_stimuli/rescaled_final/0327_rv.mp4	0.0	198.37319540977478	2.4920713901519775
31	158.58049654960632	pulse	1	t		29.0	2.5	/experiments/Knapen_AOT/AOT_stimuli/rescaled_final/0327_rv.mp4	0.0	199.54709911346436	
31	159.89866423606873	fix_post	2		12	29.0	2.5	/experiments/Knapen_AOT/AOT_stimuli/rescaled_final/0327_rv.mp4	0.0	200.86526679992676	0.09999656677246094
32	159.9986608028412	fix_pre	0		120	30.0	2.5	/experiments/Knapen_AOT/AOT_stimuli/rescaled_final/2115_fw.mp4	0.0	200.96526336669922	1.0085513591766357
32	160.17575407028198	pulse	0	t		30.0	2.5	/experiments/Knapen_AOT/AOT_stimuli/rescaled_final/2115_fw.mp4	0.0	201.14235663414001	
32	161.00721216201782	movie	1		274	30.0	2.5	/experiments/Knapen_AOT/AOT_stimuli/rescaled_final/2115_fw.mp4	0.0	201.97381472587585	2.4919514656066895
32	161.78052353858948	pulse	1	t		30.0	2.5	/experiments/Knapen_AOT/AOT_stimuli/rescaled_final/2115_fw.mp4	0.0	202.7471261024475	
32	163.38067173957825	pulse	1	t		30.0	2.5	/experiments/Knapen_AOT/AOT_stimuli/rescaled_final/2115_fw.mp4	0.0	204.34727430343628	
32	163.4991636276245	fix_post	2		12	30.0	2.5	/experiments/Knapen_AOT/AOT_stimuli/rescaled_final/2115_fw.mp4	0.0	204.46576619148254	0.10000109672546387
33	163.59916472434998	fix_pre	0		120	31.0	2.5	/experiments/Knapen_AOT/AOT_stimuli/rescaled_final/1390_fw.mp4	0.0	204.565767288208	1.008512020111084
33	164.60767674446106	movie	1		285	31.0	2.5	/experiments/Knapen_AOT/AOT_stimuli/rescaled_final/1390_fw.mp4	0.0	205.5742793083191	2.4920527935028076
33	164.98123741149902	pulse	1	t		31.0	2.5	/experiments/Knapen_AOT/AOT_stimuli/rescaled_final/1390_fw.mp4	0.0	205.94783997535706	
33	166.58110356330872	pulse	1	t		31.0	2.5	/experiments/Knapen_AOT/AOT_stimuli/rescaled_final/1390_fw.mp4	0.0	207.54770612716675	
33	167.09972953796387	fix_post	2		12	31.0	2.5	/experiments/Knapen_AOT/AOT_stimuli/rescaled_final/1390_fw.mp4	0.0	208.0663321018219	0.10018539428710938
34	167.19991493225098	fix_pre	0		119	32.0	2.5	/experiments/Knapen_AOT/AOT_stimuli/rescaled_final/0371_fw.mp4	0.0	208.166517496109	0.9999732971191406
34	168.17609977722168	pulse	0	t		32.0	2.5	/experiments/Knapen_AOT/AOT_stimuli/rescaled_final/0371_fw.mp4	0.0	209.1427023410797	
34	168.19988822937012	movie	1		278	32.0	2.5	/experiments/Knapen_AOT/AOT_stimuli/rescaled_final/0371_fw.mp4	0.0	209.16649079322815	2.500342607498169
34	169.78392791748047	pulse	1	t		32.0	2.5	/experiments/Knapen_AOT/AOT_stimuli/rescaled_final/0371_fw.mp4	0.0	210.7505304813385	
34	170.7002308368683	fix_post	2		12	32.0	2.5	/experiments/Knapen_AOT/AOT_stimuli/rescaled_final/0371_fw.mp4	0.0	211.66683340072632	0.10002636909484863
35	170.80025720596313	fix_pre	0		120	33.0	2.5	/experiments/Knapen_AOT/AOT_stimuli/rescaled_final/0131_rv.mp4	0.0	211.76685976982117	1.008488416671753
35	171.37609601020813	pulse	0	t		33.0	2.5	/experiments/Knapen_AOT/AOT_stimuli/rescaled_final/0131_rv.mp4	0.0	212.34269857406616	
35	171.8087456226349	movie	1		286	33.0	2.5	/experiments/Knapen_AOT/AOT_stimuli/rescaled_final/0131_rv.mp4	0.0	212.77534818649292	2.5004184246063232
35	172.9764688014984	pulse	1	t		33.0	2.5	/experiments/Knapen_AOT/AOT_stimuli/rescaled_final/0131_rv.mp4	0.0	213.94307136535645	
35	174.3091640472412	fix_post	2		11	33.0	2.5	/experiments/Knapen_AOT/AOT_stimuli/rescaled_final/0131_rv.mp4	0.0	215.27576661109924	0.09168577194213867
36	174.40084981918335	fix_pre	0		120	34.0	2.5	blank	1.0	215.36745238304138	1.0001020431518555
36	174.57604789733887	pulse	0	t		34.0	2.5	blank	1.0	215.5426504611969	
36	175.4009518623352	movie	1		300	34.0	2.5	blank	1.0	216.36755442619324	2.500394821166992
36	176.17629146575928	pulse	1	t		34.0	2.5	blank	1.0	217.1428940296173	
36	177.77653622627258	pulse	1	t		34.0	2.5	blank	1.0	218.74313879013062	
36	177.9013466835022	fix_post	2		12	34.0	2.5	blank	1.0	218.86794924736023	0.10001182556152344
37	178.00135850906372	fix_pre	0		120	35.0	2.5	/experiments/Knapen_AOT/AOT_stimuli/rescaled_final/0670_fw.mp4	0.0	218.96796107292175	1.0085651874542236
37	179.00992369651794	movie	1		283	35.0	2.5	/experiments/Knapen_AOT/AOT_stimuli/rescaled_final/0670_fw.mp4	0.0	219.97652626037598	2.4920055866241455
37	179.37598967552185	pulse	1	t		35.0	2.5	/experiments/Knapen_AOT/AOT_stimuli/rescaled_final/0670_fw.mp4	0.0	220.34259223937988	
37	180.97716546058655	pulse	1	t		35.0	2.5	/experiments/Knapen_AOT/AOT_stimuli/rescaled_final/0670_fw.mp4	0.0	221.94376802444458	
37	181.5019292831421	fix_post	2		12	35.0	2.5	/experiments/Knapen_AOT/AOT_stimuli/rescaled_final/0670_fw.mp4	0.0	222.46853184700012	0.09995794296264648
38	181.60188722610474	fix_pre	0		118	36.0	2.5	/experiments/Knapen_AOT/AOT_stimuli/rescaled_final/1182_rv.mp4	0.0	222.56848978996277	0.9918301105499268
38	182.5772202014923	pulse	0	t		36.0	2.5	/experiments/Knapen_AOT/AOT_stimuli/rescaled_final/1182_rv.mp4	0.0	223.54382276535034	
38	182.59371733665466	movie	1		286	36.0	2.5	/experiments/Knapen_AOT/AOT_stimuli/rescaled_final/1182_rv.mp4	0.0	223.5603199005127	2.50036883354187
38	184.17601871490479	pulse	1	t		36.0	2.5	/experiments/Knapen_AOT/AOT_stimuli/rescaled_final/1182_rv.mp4	0.0	225.14262127876282	
38	185.09408617019653	fix_post	2		12	36.0	2.5	/experiments/Knapen_AOT/AOT_stimuli/rescaled_final/1182_rv.mp4	0.0	226.06068873405457	0.10000348091125488
39	185.1940896511078	fix_pre	0		120	37.0	2.5	/experiments/Knapen_AOT/AOT_stimuli/rescaled_final/0538_rv.mp4	0.0	226.16069221496582	1.0084905624389648
39	185.77776622772217	pulse	0	t		37.0	2.5	/experiments/Knapen_AOT/AOT_stimuli/rescaled_final/0538_rv.mp4	0.0	226.7443687915802	
39	186.20258021354675	movie	1		295	37.0	2.5	/experiments/Knapen_AOT/AOT_stimuli/rescaled_final/0538_rv.mp4	0.0	227.16918277740479	2.4920480251312256
39	187.3762857913971	pulse	1	t		37.0	2.5	/experiments/Knapen_AOT/AOT_stimuli/rescaled_final/0538_rv.mp4	0.0	228.34288835525513	
39	188.69462823867798	fix_post	2		12	37.0	2.5	/experiments/Knapen_AOT/AOT_stimuli/rescaled_final/0538_rv.mp4	0.0	229.661230802536	0.10008001327514648
40	188.79470825195312	fix_pre	0		120	38.0	2.5	/experiments/Knapen_AOT/AOT_stimuli/rescaled_final/1460_fw.mp4	0.0	229.76131081581116	1.0084254741668701
40	188.97825717926025	pulse	0	t		38.0	2.5	/experiments/Knapen_AOT/AOT_stimuli/rescaled_final/1460_fw.mp4	0.0	229.9448597431183	
40	189.80313372612	movie	1		288	38.0	2.5	/experiments/Knapen_AOT/AOT_stimuli/rescaled_final/1460_fw.mp4	0.0	230.76973628997803	2.4920365810394287
40	190.57657551765442	pulse	1	t		38.0	2.5	/experiments/Knapen_AOT/AOT_stimuli/rescaled_final/1460_fw.mp4	0.0	231.54317808151245	
40	192.17656064033508	pulse	1	t		38.0	2.5	/experiments/Knapen_AOT/AOT_stimuli/rescaled_final/1460_fw.mp4	0.0	233.14316320419312	
40	192.29517030715942	fix_post	2		12	38.0	2.5	/experiments/Knapen_AOT/AOT_stimuli/rescaled_final/1460_fw.mp4	0.0	233.26177287101746	0.10000753402709961
41	192.39517784118652	fix_pre	0		120	39.0	2.5	/experiments/Knapen_AOT/AOT_stimuli/rescaled_final/1473_rv.mp4	0.0	233.36178040504456	1.0085053443908691
41	193.4036831855774	movie	1		278	39.0	2.5	/experiments/Knapen_AOT/AOT_stimuli/rescaled_final/1473_rv.mp4	0.0	234.37028574943542	2.492034673690796
41	193.77808117866516	pulse	1	t		39.0	2.5	/experiments/Knapen_AOT/AOT_stimuli/rescaled_final/1473_rv.mp4	0.0	234.7446837425232	
41	195.37736701965332	pulse	1	t		39.0	2.5	/experiments/Knapen_AOT/AOT_stimuli/rescaled_final/1473_rv.mp4	0.0	236.34396958351135	
41	195.8957178592682	fix_post	2		12	39.0	2.5	/experiments/Knapen_AOT/AOT_stimuli/rescaled_final/1473_rv.mp4	0.0	236.86232042312622	0.10001206398010254
42	195.9957299232483	fix_pre	0		119	40.0	2.5	/experiments/Knapen_AOT/AOT_stimuli/rescaled_final/0174_rv.mp4	0.0	236.96233248710632	1.0001106262207031
42	196.97942090034485	pulse	0	t		40.0	2.5	/experiments/Knapen_AOT/AOT_stimuli/rescaled_final/0174_rv.mp4	0.0	237.94602346420288	
42	196.995840549469	movie	1		282	40.0	2.5	/experiments/Knapen_AOT/AOT_stimuli/rescaled_final/0174_rv.mp4	0.0	237.96244311332703	2.500411033630371
42	198.5782721042633	pulse	1	t		40.0	2.5	/experiments/Knapen_AOT/AOT_stimuli/rescaled_final/0174_rv.mp4	0.0	239.54487466812134	
42	199.49625158309937	fix_post	2		12	40.0	2.5	/experiments/Knapen_AOT/AOT_stimuli/rescaled_final/0174_rv.mp4	0.0	240.4628541469574	0.10000729560852051
43	199.59625887870789	fix_pre	0		120	41.0	2.5	/experiments/Knapen_AOT/AOT_stimuli/rescaled_final/0684_fw.mp4	0.0	240.56286144256592	1.0085160732269287
43	200.17990136146545	pulse	0	t		41.0	2.5	/experiments/Knapen_AOT/AOT_stimuli/rescaled_final/0684_fw.mp4	0.0	241.1465039253235	
43	200.60477495193481	movie	1		289	41.0	2.5	/experiments/Knapen_AOT/AOT_stimuli/rescaled_final/0684_fw.mp4	0.0	241.57137751579285	2.4920289516448975
43	201.77819538116455	pulse	1	t		41.0	2.5	/experiments/Knapen_AOT/AOT_stimuli/rescaled_final/0684_fw.mp4	0.0	242.74479794502258	
43	203.0968039035797	fix_post	2		12	41.0	2.5	/experiments/Knapen_AOT/AOT_stimuli/rescaled_final/0684_fw.mp4	0.0	244.06340646743774	0.10000443458557129
44	203.19680833816528	fix_pre	0		120	42.0	2.5	blank	1.0	244.16341090202332	1.0001485347747803
44	203.38070273399353	pulse	0	t		42.0	2.5	blank	1.0	244.34730529785156	
44	204.19695687294006	movie	1		300	42.0	2.5	blank	1.0	245.1635594367981	2.5004971027374268
44	204.9814112186432	pulse	1	t		42.0	2.5	blank	1.0	245.94801378250122	
44	206.58122372627258	pulse	1	t		42.0	2.5	blank	1.0	247.54782629013062	
44	206.6974539756775	fix_post	2		12	42.0	2.5	blank	1.0	247.66405653953552	0.09994363784790039
45	206.7973976135254	fix_pre	0		120	43.0	2.5	/experiments/Knapen_AOT/AOT_stimuli/rescaled_final/0686_fw.mp4	0.0	247.76400017738342	1.0084609985351562
45	207.80585861206055	movie	1		286	43.0	2.5	/experiments/Knapen_AOT/AOT_stimuli/rescaled_final/0686_fw.mp4	0.0	248.77246117591858	2.492067813873291
45	208.17960596084595	pulse	1	t		43.0	2.5	/experiments/Knapen_AOT/AOT_stimuli/rescaled_final/0686_fw.mp4	0.0	249.14620852470398	
45	209.77958297729492	pulse	1	t		43.0	2.5	/experiments/Knapen_AOT/AOT_stimuli/rescaled_final/0686_fw.mp4	0.0	250.74618554115295	
45	210.29792642593384	fix_post	2		12	43.0	2.5	/experiments/Knapen_AOT/AOT_stimuli/rescaled_final/0686_fw.mp4	0.0	251.26452898979187	0.1001424789428711
46	210.3980689048767	fix_pre	0		119	44.0	2.5	/experiments/Knapen_AOT/AOT_stimuli/rescaled_final/1961_fw.mp4	0.0	251.36467146873474	0.9999692440032959
46	211.3819761276245	pulse	0	t		44.0	2.5	/experiments/Knapen_AOT/AOT_stimuli/rescaled_final/1961_fw.mp4	0.0	252.34857869148254	
46	211.39803814888	movie	1		288	44.0	2.5	/experiments/Knapen_AOT/AOT_stimuli/rescaled_final/1961_fw.mp4	0.0	252.36464071273804	2.500398874282837
46	212.9803466796875	pulse	1	t		44.0	2.5	/experiments/Knapen_AOT/AOT_stimuli/rescaled_final/1961_fw.mp4	0.0	253.94694924354553	
46	213.89843702316284	fix_post	2		12	44.0	2.5	/experiments/Knapen_AOT/AOT_stimuli/rescaled_final/1961_fw.mp4	0.0	254.86503958702087	0.09999346733093262
47	213.99843049049377	fix_pre	0		120	45.0	2.5	/experiments/Knapen_AOT/AOT_stimuli/rescaled_final/1444_fw.mp4	0.0	254.9650330543518	1.008518934249878
47	214.58224153518677	pulse	0	t		45.0	2.5	/experiments/Knapen_AOT/AOT_stimuli/rescaled_final/1444_fw.mp4	0.0	255.5488440990448	
47	215.00694942474365	movie	1		262	45.0	2.5	/experiments/Knapen_AOT/AOT_stimuli/rescaled_final/1444_fw.mp4	0.0	255.97355198860168	2.4922194480895996
47	216.18133163452148	pulse	1	t		45.0	2.5	/experiments/Knapen_AOT/AOT_stimuli/rescaled_final/1444_fw.mp4	0.0	257.1479341983795	
47	217.49916887283325	fix_post	2		12	45.0	2.5	/experiments/Knapen_AOT/AOT_stimuli/rescaled_final/1444_fw.mp4	0.0	258.4657714366913	0.09981250762939453
48	217.59898138046265	fix_pre	0		120	46.0	2.5	/experiments/Knapen_AOT/AOT_stimuli/rescaled_final/1770_rv.mp4	0.0	258.5655839443207	1.0085361003875732
48	217.78260588645935	pulse	0	t		46.0	2.5	/experiments/Knapen_AOT/AOT_stimuli/rescaled_final/1770_rv.mp4	0.0	258.7492084503174	
48	218.60751748085022	movie	1		268	46.0	2.5	/experiments/Knapen_AOT/AOT_stimuli/rescaled_final/1770_rv.mp4	0.0	259.57412004470825	2.4920246601104736
48	219.38082718849182	pulse	1	t		46.0	2.5	/experiments/Knapen_AOT/AOT_stimuli/rescaled_final/1770_rv.mp4	0.0	260.34742975234985	
48	220.98156118392944	pulse	1	t		46.0	2.5	/experiments/Knapen_AOT/AOT_stimuli/rescaled_final/1770_rv.mp4	0.0	261.9481637477875	
48	221.0995421409607	fix_post	2		12	46.0	2.5	/experiments/Knapen_AOT/AOT_stimuli/rescaled_final/1770_rv.mp4	0.0	262.0661447048187	0.1000051498413086
49	221.199547290802	fix_pre	0		120	47.0	2.5	/experiments/Knapen_AOT/AOT_stimuli/rescaled_final/1040_rv.mp4	0.0	262.16614985466003	1.008479118347168
49	222.20802640914917	movie	1		279	47.0	2.5	/experiments/Knapen_AOT/AOT_stimuli/rescaled_final/1040_rv.mp4	0.0	263.1746289730072	2.492025375366211
49	222.5754108428955	pulse	1	t		47.0	2.5	/experiments/Knapen_AOT/AOT_stimuli/rescaled_final/1040_rv.mp4	0.0	263.54201340675354	
49	224.175395488739	pulse	1	t		47.0	2.5	/experiments/Knapen_AOT/AOT_stimuli/rescaled_final/1040_rv.mp4	0.0	265.14199805259705	
49	224.70005178451538	fix_post	2		12	47.0	2.5	/experiments/Knapen_AOT/AOT_stimuli/rescaled_final/1040_rv.mp4	0.0	265.6666543483734	0.10003209114074707
50	224.80008387565613	fix_pre	0		118	48.0	2.5	/experiments/Knapen_AOT/AOT_stimuli/rescaled_final/1739_rv.mp4	0.0	265.76668643951416	0.9918127059936523
50	225.7755515575409	pulse	0	t		48.0	2.5	/experiments/Knapen_AOT/AOT_stimuli/rescaled_final/1739_rv.mp4	0.0	266.7421541213989	
50	225.79189658164978	movie	1		271	48.0	2.5	/experiments/Knapen_AOT/AOT_stimuli/rescaled_final/1739_rv.mp4	0.0	266.7584991455078	2.5003738403320312
50	227.37580943107605	pulse	1	t		48.0	2.5	/experiments/Knapen_AOT/AOT_stimuli/rescaled_final/1739_rv.mp4	0.0	268.3424119949341	
50	228.2922704219818	fix_post	2		12	48.0	2.5	/experiments/Knapen_AOT/AOT_stimuli/rescaled_final/1739_rv.mp4	0.0	269.25887298583984	0.10005617141723633
51	228.39232659339905	fix_pre	0		120	49.0	2.5	blank	1.0	269.3589291572571	1.0001065731048584
51	228.9759931564331	pulse	0	t		49.0	2.5	blank	1.0	269.94259572029114	
51	229.3924331665039	movie	1		300	49.0	2.5	blank	1.0	270.35903573036194	2.500354528427124
51	230.5761685371399	pulse	1	t		49.0	2.5	blank	1.0	271.5427711009979	
51	231.89278769493103	fix_post	2		12	49.0	2.5	blank	1.0	272.85939025878906	0.1001744270324707
52	231.9929621219635	fix_pre	0		120	50.0	2.5	/experiments/Knapen_AOT/AOT_stimuli/rescaled_final/0131_rv.mp4	0.0	272.95956468582153	1.0083413124084473
52	232.17639255523682	pulse	0	t		50.0	2.5	/experiments/Knapen_AOT/AOT_stimuli/rescaled_final/0131_rv.mp4	0.0	273.14299511909485	
52	233.00130343437195	movie	1		281	50.0	2.5	/experiments/Knapen_AOT/AOT_stimuli/rescaled_final/0131_rv.mp4	0.0	273.96790599823	2.4921045303344727
52	233.77665328979492	pulse	1	t		50.0	2.5	/experiments/Knapen_AOT/AOT_stimuli/rescaled_final/0131_rv.mp4	0.0	274.74325585365295	
52	235.37750959396362	pulse	1	t		50.0	2.5	/experiments/Knapen_AOT/AOT_stimuli/rescaled_final/0131_rv.mp4	0.0	276.34411215782166	
52	235.49340796470642	fix_post	2		12	50.0	2.5	/experiments/Knapen_AOT/AOT_stimuli/rescaled_final/0131_rv.mp4	0.0	276.46001052856445	0.1000826358795166
53	235.59349060058594	fix_pre	0		120	51.0	2.5	/experiments/Knapen_AOT/AOT_stimuli/rescaled_final/0538_rv.mp4	0.0	276.56009316444397	1.008373737335205
53	236.60186433792114	movie	1		282	51.0	2.5	/experiments/Knapen_AOT/AOT_stimuli/rescaled_final/0538_rv.mp4	0.0	277.5684669017792	2.4922025203704834
53	236.9774522781372	pulse	1	t		51.0	2.5	/experiments/Knapen_AOT/AOT_stimuli/rescaled_final/0538_rv.mp4	0.0	277.94405484199524	
53	238.5773627758026	pulse	1	t		51.0	2.5	/experiments/Knapen_AOT/AOT_stimuli/rescaled_final/0538_rv.mp4	0.0	279.54396533966064	
53	239.09406685829163	fix_post	2		12	51.0	2.5	/experiments/Knapen_AOT/AOT_stimuli/rescaled_final/0538_rv.mp4	0.0	280.06066942214966	0.09982013702392578
54	239.19388699531555	fix_pre	0		119	52.0	2.5	/experiments/Knapen_AOT/AOT_stimuli/rescaled_final/0202_fw.mp4	0.0	280.1604895591736	1.0001606941223145
54	240.1776270866394	pulse	0	t		52.0	2.5	/experiments/Knapen_AOT/AOT_stimuli/rescaled_final/0202_fw.mp4	0.0	281.14422965049744	
54	240.19404768943787	movie	1		275	52.0	2.5	/experiments/Knapen_AOT/AOT_stimuli/rescaled_final/0202_fw.mp4	0.0	281.1606502532959	2.5003836154937744
54	241.7780864238739	pulse	1	t		52.0	2.5	/experiments/Knapen_AOT/AOT_stimuli/rescaled_final/0202_fw.mp4	0.0	282.74468898773193	
54	242.69443130493164	fix_post	2		12	52.0	2.5	/experiments/Knapen_AOT/AOT_stimuli/rescaled_final/0202_fw.mp4	0.0	283.6610338687897	0.10003042221069336
55	242.79446172714233	fix_pre	0		120	53.0	2.5	/experiments/Knapen_AOT/AOT_stimuli/rescaled_final/0836_fw.mp4	0.0	283.76106429100037	1.0084443092346191
55	243.3785102367401	pulse	0	t		53.0	2.5	/experiments/Knapen_AOT/AOT_stimuli/rescaled_final/0836_fw.mp4	0.0	284.34511280059814	
55	243.80290603637695	movie	1		278	53.0	2.5	/experiments/Knapen_AOT/AOT_stimuli/rescaled_final/0836_fw.mp4	0.0	284.769508600235	2.4920732975006104
55	244.97671794891357	pulse	1	t		53.0	2.5	/experiments/Knapen_AOT/AOT_stimuli/rescaled_final/0836_fw.mp4	0.0	285.9433205127716	
55	246.29497933387756	fix_post	2		12	53.0	2.5	/experiments/Knapen_AOT/AOT_stimuli/rescaled_final/0836_fw.mp4	0.0	287.2615818977356	0.10001516342163086
56	246.3949944972992	fix_pre	0		120	54.0	2.5	/experiments/Knapen_AOT/AOT_stimuli/rescaled_final/0424_fw.mp4	0.0	287.3615970611572	1.0085768699645996
56	246.57856583595276	pulse	0	t		54.0	2.5	/experiments/Knapen_AOT/AOT_stimuli/rescaled_final/0424_fw.mp4	0.0	287.5451683998108	
56	247.4035713672638	movie	1		285	54.0	2.5	/experiments/Knapen_AOT/AOT_stimuli/rescaled_final/0424_fw.mp4	0.0	288.3701739311218	2.4919586181640625
56	248.17693734169006	pulse	1	t		54.0	2.5	/experiments/Knapen_AOT/AOT_stimuli/rescaled_final/0424_fw.mp4	0.0	289.1435399055481	
56	249.77732038497925	pulse	1	t		54.0	2.5	/experiments/Knapen_AOT/AOT_stimuli/rescaled_final/0424_fw.mp4	0.0	290.7439229488373	
56	249.89552998542786	fix_post	2		12	54.0	2.5	/experiments/Knapen_AOT/AOT_stimuli/rescaled_final/0424_fw.mp4	0.0	290.8621325492859	0.1000206470489502
57	249.9955506324768	fix_pre	0		120	55.0	2.5	blank	1.0	290.96215319633484	1.0001575946807861
57	250.9957082271576	movie	1		300	55.0	2.5	blank	1.0	291.9623107910156	2.500338554382324
57	251.37926363945007	pulse	1	t		55.0	2.5	blank	1.0	292.3458662033081	
57	252.97950506210327	pulse	1	t		55.0	2.5	blank	1.0	293.9461076259613	
57	253.49604678153992	fix_post	2		12	55.0	2.5	blank	1.0	294.46264934539795	0.0999901294708252
58	253.59603691101074	fix_pre	0		119	56.0	2.5	/experiments/Knapen_AOT/AOT_stimuli/rescaled_final/0832_rv.mp4	0.0	294.5626394748688	1.008561372756958
58	254.57981085777283	pulse	0	t		56.0	2.5	/experiments/Knapen_AOT/AOT_stimuli/rescaled_final/0832_rv.mp4	0.0	295.54641342163086	
58	254.6045982837677	movie	1		266	56.0	2.5	/experiments/Knapen_AOT/AOT_stimuli/rescaled_final/0832_rv.mp4	0.0	295.57120084762573	2.491990089416504
58	256.1784451007843	pulse	1	t		56.0	2.5	/experiments/Knapen_AOT/AOT_stimuli/rescaled_final/0832_rv.mp4	0.0	297.14504766464233	
58	257.0965883731842	fix_post	2		12	56.0	2.5	/experiments/Knapen_AOT/AOT_stimuli/rescaled_final/0832_rv.mp4	0.0	298.06319093704224	0.10007858276367188
59	257.1966669559479	fix_pre	0		120	57.0	2.5	/experiments/Knapen_AOT/AOT_stimuli/rescaled_final/1844_fw.mp4	0.0	298.1632695198059	1.0084407329559326
59	257.7802412509918	pulse	0	t		57.0	2.5	/experiments/Knapen_AOT/AOT_stimuli/rescaled_final/1844_fw.mp4	0.0	298.74684381484985	
59	258.2051076889038	movie	1		290	57.0	2.5	/experiments/Knapen_AOT/AOT_stimuli/rescaled_final/1844_fw.mp4	0.0	299.17171025276184	2.49204683303833
59	259.37870955467224	pulse	1	t		57.0	2.5	/experiments/Knapen_AOT/AOT_stimuli/rescaled_final/1844_fw.mp4	0.0	300.3453121185303	
59	260.69715452194214	fix_post	2		12	57.0	2.5	/experiments/Knapen_AOT/AOT_stimuli/rescaled_final/1844_fw.mp4	0.0	301.66375708580017	0.09998893737792969
60	260.79714345932007	fix_pre	0		120	58.0	2.5	/experiments/Knapen_AOT/AOT_stimuli/rescaled_final/0086_rv.mp4	0.0	301.7637460231781	1.0085222721099854
60	260.9807050228119	pulse	0	t		58.0	2.5	/experiments/Knapen_AOT/AOT_stimuli/rescaled_final/0086_rv.mp4	0.0	301.9473075866699	
60	261.80566573143005	movie	1		284	58.0	2.5	/experiments/Knapen_AOT/AOT_stimuli/rescaled_final/0086_rv.mp4	0.0	302.7722682952881	2.492009401321411
60	262.57938408851624	pulse	1	t		58.0	2.5	/experiments/Knapen_AOT/AOT_stimuli/rescaled_final/0086_rv.mp4	0.0	303.54598665237427	
60	264.1795029640198	pulse	1	t		58.0	2.5	/experiments/Knapen_AOT/AOT_stimuli/rescaled_final/0086_rv.mp4	0.0	305.1461055278778	
60	264.29767513275146	fix_post	2		12	58.0	2.5	/experiments/Knapen_AOT/AOT_stimuli/rescaled_final/0086_rv.mp4	0.0	305.2642776966095	0.10002517700195312
61	264.3977003097534	fix_pre	0		120	59.0	2.5	/experiments/Knapen_AOT/AOT_stimuli/rescaled_final/0107_fw.mp4	0.0	305.36430287361145	1.0084919929504395
61	265.40619230270386	movie	1		285	59.0	2.5	/experiments/Knapen_AOT/AOT_stimuli/rescaled_final/0107_fw.mp4	0.0	306.3727948665619	2.4920127391815186
61	265.7805190086365	pulse	1	t		59.0	2.5	/experiments/Knapen_AOT/AOT_stimuli/rescaled_final/0107_fw.mp4	0.0	306.7471215724945	
61	267.3798871040344	pulse	1	t		59.0	2.5	/experiments/Knapen_AOT/AOT_stimuli/rescaled_final/0107_fw.mp4	0.0	308.34648966789246	
61	267.8982050418854	fix_post	2		12	59.0	2.5	/experiments/Knapen_AOT/AOT_stimuli/rescaled_final/0107_fw.mp4	0.0	308.8648076057434	0.10004591941833496
62	267.9982509613037	fix_pre	0		119	60.0	2.5	/experiments/Knapen_AOT/AOT_stimuli/rescaled_final/0341_fw.mp4	0.0	308.96485352516174	1.0001757144927979
62	268.9819827079773	pulse	0	t		60.0	2.5	/experiments/Knapen_AOT/AOT_stimuli/rescaled_final/0341_fw.mp4	0.0	309.9485852718353	
62	268.9984266757965	movie	1		279	60.0	2.5	/experiments/Knapen_AOT/AOT_stimuli/rescaled_final/0341_fw.mp4	0.0	309.96502923965454	2.5003578662872314
62	270.5817186832428	pulse	1	t		60.0	2.5	/experiments/Knapen_AOT/AOT_stimuli/rescaled_final/0341_fw.mp4	0.0	311.54832124710083	
62	271.49878454208374	fix_post	2		12	60.0	2.5	/experiments/Knapen_AOT/AOT_stimuli/rescaled_final/0341_fw.mp4	0.0	312.4653871059418	0.1000528335571289
63	271.59883737564087	fix_pre	0		120	61.0	2.5	/experiments/Knapen_AOT/AOT_stimuli/rescaled_final/1999_fw.mp4	0.0	312.5654399394989	1.0084929466247559
63	272.1825075149536	pulse	0	t		61.0	2.5	/experiments/Knapen_AOT/AOT_stimuli/rescaled_final/1999_fw.mp4	0.0	313.14911007881165	
63	272.6073303222656	movie	1		275	61.0	2.5	/experiments/Knapen_AOT/AOT_stimuli/rescaled_final/1999_fw.mp4	0.0	313.57393288612366	2.49202561378479
63	273.7809188365936	pulse	1	t		61.0	2.5	/experiments/Knapen_AOT/AOT_stimuli/rescaled_final/1999_fw.mp4	0.0	314.74752140045166	
63	275.0993559360504	fix_post	2		12	61.0	2.5	/experiments/Knapen_AOT/AOT_stimuli/rescaled_final/1999_fw.mp4	0.0	316.06595849990845	0.10000371932983398
64	275.19935965538025	fix_pre	0		120	62.0	2.5	/experiments/Knapen_AOT/AOT_stimuli/rescaled_final/1334_fw.mp4	0.0	316.1659622192383	1.0084967613220215
64	275.38314509391785	pulse	0	t		62.0	2.5	/experiments/Knapen_AOT/AOT_stimuli/rescaled_final/1334_fw.mp4	0.0	316.3497476577759	
64	276.20785641670227	movie	1		285	62.0	2.5	/experiments/Knapen_AOT/AOT_stimuli/rescaled_final/1334_fw.mp4	0.0	317.1744589805603	2.500321388244629
64	276.98084712028503	pulse	1	t		62.0	2.5	/experiments/Knapen_AOT/AOT_stimuli/rescaled_final/1334_fw.mp4	0.0	317.94744968414307	
64	278.5813522338867	pulse	1	t		62.0	2.5	/experiments/Knapen_AOT/AOT_stimuli/rescaled_final/1334_fw.mp4	0.0	319.54795479774475	
64	278.7081778049469	fix_post	2		11	62.0	2.5	/experiments/Knapen_AOT/AOT_stimuli/rescaled_final/1334_fw.mp4	0.0	319.67478036880493	0.09169459342956543
65	278.79987239837646	fix_pre	0		120	63.0	2.5	blank	1.0	319.7664749622345	1.0001378059387207
65	279.8000102043152	movie	1		300	63.0	2.5	blank	1.0	320.7666127681732	2.5004284381866455
65	280.1760165691376	pulse	1	t		63.0	2.5	blank	1.0	321.1426191329956	
65	281.77577090263367	pulse	1	t		63.0	2.5	blank	1.0	322.7423734664917	
65	282.30043864250183	fix_post	2		12	63.0	2.5	blank	1.0	323.26704120635986	0.09998035430908203
66	282.4004189968109	fix_pre	0		118	64.0	2.5	/experiments/Knapen_AOT/AOT_stimuli/rescaled_final/1798_fw.mp4	0.0	323.36702156066895	1.0002217292785645
66	283.3759469985962	pulse	0	t		64.0	2.5	/experiments/Knapen_AOT/AOT_stimuli/rescaled_final/1798_fw.mp4	0.0	324.3425495624542	
66	283.4006407260895	movie	1		280	64.0	2.5	/experiments/Knapen_AOT/AOT_stimuli/rescaled_final/1798_fw.mp4	0.0	324.3672432899475	2.491992950439453
66	284.9761869907379	pulse	1	t		64.0	2.5	/experiments/Knapen_AOT/AOT_stimuli/rescaled_final/1798_fw.mp4	0.0	325.94278955459595	
66	285.89263367652893	fix_post	2		12	64.0	2.5	/experiments/Knapen_AOT/AOT_stimuli/rescaled_final/1798_fw.mp4	0.0	326.85923624038696	0.10012102127075195
67	285.9927546977997	fix_pre	0		120	65.0	2.5	/experiments/Knapen_AOT/AOT_stimuli/rescaled_final/1473_fw.mp4	0.0	326.9593572616577	1.0083720684051514
67	286.57661175727844	pulse	0	t		65.0	2.5	/experiments/Knapen_AOT/AOT_stimuli/rescaled_final/1473_fw.mp4	0.0	327.5432143211365	
67	287.00112676620483	movie	1		274	65.0	2.5	/experiments/Knapen_AOT/AOT_stimuli/rescaled_final/1473_fw.mp4	0.0	327.96772933006287	2.4920265674591064
67	288.17653131484985	pulse	1	t		65.0	2.5	/experiments/Knapen_AOT/AOT_stimuli/rescaled_final/1473_fw.mp4	0.0	329.1431338787079	
67	289.49315333366394	fix_post	2		12	65.0	2.5	/experiments/Knapen_AOT/AOT_stimuli/rescaled_final/1473_fw.mp4	0.0	330.459755897522	0.10029029846191406
68	289.59344363212585	fix_pre	0		120	66.0	2.5	/experiments/Knapen_AOT/AOT_stimuli/rescaled_final/0204_rv.mp4	0.0	330.5600461959839	1.0082488059997559
68	289.7767653465271	pulse	0	t		66.0	2.5	/experiments/Knapen_AOT/AOT_stimuli/rescaled_final/0204_rv.mp4	0.0	330.74336791038513	
68	290.6016924381256	movie	1		286	66.0	2.5	/experiments/Knapen_AOT/AOT_stimuli/rescaled_final/0204_rv.mp4	0.0	331.56829500198364	2.491978645324707
68	291.37696719169617	pulse	1	t		66.0	2.5	/experiments/Knapen_AOT/AOT_stimuli/rescaled_final/0204_rv.mp4	0.0	332.3435697555542	
68	292.9773700237274	pulse	1	t		66.0	2.5	/experiments/Knapen_AOT/AOT_stimuli/rescaled_final/0204_rv.mp4	0.0	333.94397258758545	
68	293.0936710834503	fix_post	2		12	66.0	2.5	/experiments/Knapen_AOT/AOT_stimuli/rescaled_final/0204_rv.mp4	0.0	334.06027364730835	0.10004353523254395
69	293.19371461868286	fix_pre	0		120	67.0	2.5	/experiments/Knapen_AOT/AOT_stimuli/rescaled_final/0103_fw.mp4	0.0	334.1603171825409	1.0084702968597412
69	294.2021849155426	movie	1		281	67.0	2.5	/experiments/Knapen_AOT/AOT_stimuli/rescaled_final/0103_fw.mp4	0.0	335.16878747940063	2.4920504093170166
69	294.5763325691223	pulse	1	t		67.0	2.5	/experiments/Knapen_AOT/AOT_stimuli/rescaled_final/0103_fw.mp4	0.0	335.54293513298035	
69	296.17618441581726	pulse	1	t		67.0	2.5	/experiments/Knapen_AOT/AOT_stimuli/rescaled_final/0103_fw.mp4	0.0	337.1427869796753	
69	296.6942353248596	fix_post	2		12	67.0	2.5	/experiments/Knapen_AOT/AOT_stimuli/rescaled_final/0103_fw.mp4	0.0	337.66083788871765	0.10019040107727051
70	296.7944257259369	fix_pre	0		119	68.0	2.5	blank	1.0	337.7610282897949	0.9917030334472656
70	297.77798104286194	pulse	0	t		68.0	2.5	blank	1.0	338.74458360671997	
70	297.78612875938416	movie	1		301	68.0	2.5	blank	1.0	338.7527313232422	2.508660078048706
70	299.378201007843	pulse	1	t		68.0	2.5	blank	1.0	340.34480357170105	
70	300.29478883743286	fix_post	2		12	68.0	2.5	blank	1.0	341.2613914012909	0.10000085830688477
71	300.39478969573975	fix_pre	0		120	69.0	2.5	/experiments/Knapen_AOT/AOT_stimuli/rescaled_final/0985_rv.mp4	0.0	341.3613922595978	1.0168914794921875
71	300.97844672203064	pulse	0	t		69.0	2.5	/experiments/Knapen_AOT/AOT_stimuli/rescaled_final/0985_rv.mp4	0.0	341.9450492858887	
71	301.41168117523193	movie	1		277	69.0	2.5	/experiments/Knapen_AOT/AOT_stimuli/rescaled_final/0985_rv.mp4	0.0	342.37828373908997	2.483647346496582
71	302.5768117904663	pulse	1	t		69.0	2.5	/experiments/Knapen_AOT/AOT_stimuli/rescaled_final/0985_rv.mp4	0.0	343.54341435432434	
71	303.8953285217285	fix_post	2		12	69.0	2.5	/experiments/Knapen_AOT/AOT_stimuli/rescaled_final/0985_rv.mp4	0.0	344.86193108558655	0.10011053085327148
72	303.9954390525818	fix_pre	0		120	70.0	2.5	/experiments/Knapen_AOT/AOT_stimuli/rescaled_final/0327_fw.mp4	0.0	344.9620416164398	1.0083885192871094
72	304.1790235042572	pulse	0	t		70.0	2.5	/experiments/Knapen_AOT/AOT_stimuli/rescaled_final/0327_fw.mp4	0.0	345.14562606811523	
72	305.0038275718689	movie	1		261	70.0	2.5	/experiments/Knapen_AOT/AOT_stimuli/rescaled_final/0327_fw.mp4	0.0	345.97043013572693	2.492039680480957
72	305.77704334259033	pulse	1	t		70.0	2.5	/experiments/Knapen_AOT/AOT_stimuli/rescaled_final/0327_fw.mp4	0.0	346.74364590644836	
72	307.37957763671875	pulse	1	t		70.0	2.5	/experiments/Knapen_AOT/AOT_stimuli/rescaled_final/0327_fw.mp4	0.0	348.3461802005768	
72	307.49586725234985	fix_post	2		12	70.0	2.5	/experiments/Knapen_AOT/AOT_stimuli/rescaled_final/0327_fw.mp4	0.0	348.4624698162079	0.10000181198120117
73	307.59586906433105	fix_pre	0		120	71.0	2.5	/experiments/Knapen_AOT/AOT_stimuli/rescaled_final/0033_rv.mp4	0.0	348.5624716281891	1.0085718631744385
73	308.6044409275055	movie	1		276	71.0	2.5	/experiments/Knapen_AOT/AOT_stimuli/rescaled_final/0033_rv.mp4	0.0	349.5710434913635	2.4919729232788086
73	308.97835063934326	pulse	1	t		71.0	2.5	/experiments/Knapen_AOT/AOT_stimuli/rescaled_final/0033_rv.mp4	0.0	349.9449532032013	
73	310.57784056663513	pulse	1	t		71.0	2.5	/experiments/Knapen_AOT/AOT_stimuli/rescaled_final/0033_rv.mp4	0.0	351.54444313049316	
73	311.0964138507843	fix_post	2		12	71.0	2.5	/experiments/Knapen_AOT/AOT_stimuli/rescaled_final/0033_rv.mp4	0.0	352.06301641464233	0.10002517700195312
74	311.19643902778625	fix_pre	0		119	72.0	2.5	/experiments/Knapen_AOT/AOT_stimuli/rescaled_final/1509_fw.mp4	0.0	352.1630415916443	1.0086042881011963
74	312.18002796173096	pulse	0	t		72.0	2.5	/experiments/Knapen_AOT/AOT_stimuli/rescaled_final/1509_fw.mp4	0.0	353.146630525589	
74	312.20504331588745	movie	1		269	72.0	2.5	/experiments/Knapen_AOT/AOT_stimuli/rescaled_final/1509_fw.mp4	0.0	353.1716458797455	2.491905450820923
74	313.77922344207764	pulse	1	t		72.0	2.5	/experiments/Knapen_AOT/AOT_stimuli/rescaled_final/1509_fw.mp4	0.0	354.74582600593567	
74	314.6969487667084	fix_post	2		12	72.0	2.5	/experiments/Knapen_AOT/AOT_stimuli/rescaled_final/1509_fw.mp4	0.0	355.6635513305664	0.10003161430358887
75	314.79698038101196	fix_pre	0		120	73.0	2.5	/experiments/Knapen_AOT/AOT_stimuli/rescaled_final/0377_fw.mp4	0.0	355.76358294487	1.0084760189056396
75	315.38084959983826	pulse	0	t		73.0	2.5	/experiments/Knapen_AOT/AOT_stimuli/rescaled_final/0377_fw.mp4	0.0	356.3474521636963	
75	315.8054563999176	movie	1		290	73.0	2.5	/experiments/Knapen_AOT/AOT_stimuli/rescaled_final/0377_fw.mp4	0.0	356.77205896377563	2.492021322250366
75	316.97888445854187	pulse	1	t		73.0	2.5	/experiments/Knapen_AOT/AOT_stimuli/rescaled_final/0377_fw.mp4	0.0	357.9454870223999	
75	318.29747772216797	fix_post	2		12	73.0	2.5	/experiments/Knapen_AOT/AOT_stimuli/rescaled_final/0377_fw.mp4	0.0	359.264080286026	0.10005664825439453
76	318.39753437042236	fix_pre	0		119	74.0	2.5	/experiments/Knapen_AOT/AOT_stimuli/rescaled_final/1514_fw.mp4	0.0	359.3641369342804	1.0084831714630127
76	318.58161640167236	pulse	0	t		74.0	2.5	/experiments/Knapen_AOT/AOT_stimuli/rescaled_final/1514_fw.mp4	0.0	359.5482189655304	
76	319.4060175418854	movie	1		272	74.0	2.5	/experiments/Knapen_AOT/AOT_stimuli/rescaled_final/1514_fw.mp4	0.0	360.3726201057434	2.492014169692993
76	320.1801071166992	pulse	1	t		74.0	2.5	/experiments/Knapen_AOT/AOT_stimuli/rescaled_final/1514_fw.mp4	0.0	361.14670968055725	
76	321.78040862083435	pulse	1	t		74.0	2.5	/experiments/Knapen_AOT/AOT_stimuli/rescaled_final/1514_fw.mp4	0.0	362.7470111846924	
76	321.89803171157837	fix_post	2		12	74.0	2.5	/experiments/Knapen_AOT/AOT_stimuli/rescaled_final/1514_fw.mp4	0.0	362.8646342754364	0.1000206470489502
77	321.9980523586273	fix_pre	0		120	75.0	2.5	blank	1.0	362.96465492248535	1.0001411437988281
77	322.99819350242615	movie	1		300	75.0	2.5	blank	1.0	363.9647960662842	2.500373125076294
77	323.38191843032837	pulse	1	t		75.0	2.5	blank	1.0	364.3485209941864	
77	324.9820921421051	pulse	1	t		75.0	2.5	blank	1.0	365.94869470596313	
77	325.49856662750244	fix_post	2		12	75.0	2.5	blank	1.0	366.4651691913605	0.10005044937133789
78	325.5986170768738	fix_pre	0		119	76.0	2.5	/experiments/Knapen_AOT/AOT_stimuli/rescaled_final/0131_fw.mp4	0.0	366.5652196407318	1.00852370262146
78	326.5825092792511	pulse	0	t		76.0	2.5	/experiments/Knapen_AOT/AOT_stimuli/rescaled_final/0131_fw.mp4	0.0	367.54911184310913	
78	326.60714077949524	movie	1		266	76.0	2.5	/experiments/Knapen_AOT/AOT_stimuli/rescaled_final/0131_fw.mp4	0.0	367.57374334335327	2.491964340209961
78	328.1813163757324	pulse	1	t		76.0	2.5	/experiments/Knapen_AOT/AOT_stimuli/rescaled_final/0131_fw.mp4	0.0	369.14791893959045	
78	329.0991051197052	fix_post	2		12	76.0	2.5	/experiments/Knapen_AOT/AOT_stimuli/rescaled_final/0131_fw.mp4	0.0	370.06570768356323	0.1000676155090332
79	329.19917273521423	fix_pre	0		120	77.0	2.5	/experiments/Knapen_AOT/AOT_stimuli/rescaled_final/1586_rv.mp4	0.0	370.16577529907227	1.0084068775177002
79	329.7827641963959	pulse	0	t		77.0	2.5	/experiments/Knapen_AOT/AOT_stimuli/rescaled_final/1586_rv.mp4	0.0	370.7493667602539	
79	330.20757961273193	movie	1		250	77.0	2.5	/experiments/Knapen_AOT/AOT_stimuli/rescaled_final/1586_rv.mp4	0.0	371.17418217658997	2.492072820663452
79	331.383376121521	pulse	1	t		77.0	2.5	/experiments/Knapen_AOT/AOT_stimuli/rescaled_final/1586_rv.mp4	0.0	372.349978685379	
79	332.6996524333954	fix_post	2		12	77.0	2.5	/experiments/Knapen_AOT/AOT_stimuli/rescaled_final/1586_rv.mp4	0.0	373.6662549972534	0.10001778602600098
80	332.7996702194214	fix_pre	0		120	78.0	2.5	/experiments/Knapen_AOT/AOT_stimuli/rescaled_final/0594_rv.mp4	0.0	373.7662727832794	1.0085346698760986
80	332.9835777282715	pulse	0	t		78.0	2.5	/experiments/Knapen_AOT/AOT_stimuli/rescaled_final/0594_rv.mp4	0.0	373.9501802921295	
80	333.8082048892975	movie	1		266	78.0	2.5	/experiments/Knapen_AOT/AOT_stimuli/rescaled_final/0594_rv.mp4	0.0	374.7748074531555	2.4920401573181152
80	334.58147740364075	pulse	1	t		78.0	2.5	/experiments/Knapen_AOT/AOT_stimuli/rescaled_final/0594_rv.mp4	0.0	375.5480799674988	
80	336.18208384513855	pulse	1	t		78.0	2.5	/experiments/Knapen_AOT/AOT_stimuli/rescaled_final/0594_rv.mp4	0.0	377.1486864089966	
80	336.3002450466156	fix_post	2		12	78.0	2.5	/experiments/Knapen_AOT/AOT_stimuli/rescaled_final/0594_rv.mp4	0.0	377.26684761047363	0.0999901294708252
81	336.4002351760864	fix_pre	0		120	79.0	2.5	/experiments/Knapen_AOT/AOT_stimuli/rescaled_final/0065_rv.mp4	0.0	377.36683773994446	1.0086727142333984
81	337.4089078903198	movie	1		247	79.0	2.5	/experiments/Knapen_AOT/AOT_stimuli/rescaled_final/0065_rv.mp4	0.0	378.37551045417786	2.4918599128723145
81	337.7825427055359	pulse	1	t		79.0	2.5	/experiments/Knapen_AOT/AOT_stimuli/rescaled_final/0065_rv.mp4	0.0	378.7491452693939	
81	339.3762490749359	pulse	1	t		79.0	2.5	/experiments/Knapen_AOT/AOT_stimuli/rescaled_final/0065_rv.mp4	0.0	380.34285163879395	
81	339.90076780319214	fix_post	2		12	79.0	2.5	/experiments/Knapen_AOT/AOT_stimuli/rescaled_final/0065_rv.mp4	0.0	380.86737036705017	0.10003185272216797
82	340.0007996559143	fix_pre	0		118	80.0	2.5	/experiments/Knapen_AOT/AOT_stimuli/rescaled_final/0714_fw.mp4	0.0	380.96740221977234	0.9917445182800293
82	340.9762954711914	pulse	0	t		80.0	2.5	/experiments/Knapen_AOT/AOT_stimuli/rescaled_final/0714_fw.mp4	0.0	381.94289803504944	
82	340.99254417419434	movie	1		255	80.0	2.5	/experiments/Knapen_AOT/AOT_stimuli/rescaled_final/0714_fw.mp4	0.0	381.95914673805237	2.5004005432128906
82	342.57614755630493	pulse	1	t		80.0	2.5	/experiments/Knapen_AOT/AOT_stimuli/rescaled_final/0714_fw.mp4	0.0	383.54275012016296	
82	343.4929447174072	fix_post	2		12	80.0	2.5	/experiments/Knapen_AOT/AOT_stimuli/rescaled_final/0714_fw.mp4	0.0	384.45954728126526	0.10000896453857422
83	343.5929536819458	fix_pre	0		120	81.0	2.5	/experiments/Knapen_AOT/AOT_stimuli/rescaled_final/1059_fw.mp4	0.0	384.55955624580383	1.0084810256958008
83	344.17664337158203	pulse	0	t		81.0	2.5	/experiments/Knapen_AOT/AOT_stimuli/rescaled_final/1059_fw.mp4	0.0	385.14324593544006	
83	344.6014347076416	movie	1		262	81.0	2.5	/experiments/Knapen_AOT/AOT_stimuli/rescaled_final/1059_fw.mp4	0.0	385.56803727149963	2.492035388946533
83	345.7769088745117	pulse	1	t		81.0	2.5	/experiments/Knapen_AOT/AOT_stimuli/rescaled_final/1059_fw.mp4	0.0	386.74351143836975	
83	347.09347009658813	fix_post	2		12	81.0	2.5	/experiments/Knapen_AOT/AOT_stimuli/rescaled_final/1059_fw.mp4	0.0	388.06007266044617	0.10002374649047852
84	347.1934938430786	fix_pre	0		120	82.0	2.5	blank	1.0	388.16009640693665	1.0001778602600098
84	347.37715315818787	pulse	0	t		82.0	2.5	blank	1.0	388.3437557220459	
84	348.1936717033386	movie	1		300	82.0	2.5	blank	1.0	389.16027426719666	2.5003774166107178
84	348.97748589515686	pulse	1	t		82.0	2.5	blank	1.0	389.9440884590149	
84	350.57782435417175	pulse	1	t		82.0	2.5	blank	1.0	391.5444269180298	
84	350.69404911994934	fix_post	2		12	82.0	2.5	blank	1.0	391.6606516838074	0.10016059875488281
85	350.7942097187042	fix_pre	0		120	83.0	2.5	/experiments/Knapen_AOT/AOT_stimuli/rescaled_final/0263_fw.mp4	0.0	391.76081228256226	1.0083401203155518
85	351.8025498390198	movie	1		266	83.0	2.5	/experiments/Knapen_AOT/AOT_stimuli/rescaled_final/0263_fw.mp4	0.0	392.7691524028778	2.4920406341552734
85	352.17798924446106	pulse	1	t		83.0	2.5	/experiments/Knapen_AOT/AOT_stimuli/rescaled_final/0263_fw.mp4	0.0	393.1445918083191	
85	353.7785141468048	pulse	1	t		83.0	2.5	/experiments/Knapen_AOT/AOT_stimuli/rescaled_final/0263_fw.mp4	0.0	394.74511671066284	
85	354.29459047317505	fix_post	2		12	83.0	2.5	/experiments/Knapen_AOT/AOT_stimuli/rescaled_final/0263_fw.mp4	0.0	395.2611930370331	0.12500214576721191
87	354.41959261894226	stim	0		1712					395.3861951828003	14.268903017044067
87	355.3783333301544	pulse	0	t						396.34493589401245	
87	356.97864413261414	pulse	0	t						397.94524669647217	
87	358.5788691043854	pulse	0	t						399.5454716682434	
87	360.17915415763855	pulse	0	t						401.1457567214966	
87	361.77934527397156	pulse	0	t						402.7459478378296	
87	363.3794984817505	pulse	0	t						404.3461010456085	
87	364.97979044914246	pulse	0	t						405.9463930130005	
87	366.57995557785034	pulse	0	t						407.5465581417084	
87	368.1805737018585	pulse	0	t						409.14717626571655	
