trial_nr	onset	event_type	phase	response	nr_frames	movie_index	movie_duration	movie_file	blank	onset_abs	duration
0	0.15831995010375977	stim	0		111					31.80635380744934	0.9249141216278076
0	1.0752520561218262	response	0	space						32.72328591346741	
1	1.0832340717315674	stim	0		14415					32.73126792907715	120.1244649887085
1	121.19984292984009	pulse	0	t						152.84787678718567	
1	121.20769906044006	stim	1		1717					152.85573291778564	14.30817198753357
1	122.79909801483154	pulse	1	t						154.44713187217712	
1	124.39962410926819	pulse	1	t						156.04765796661377	
1	125.99950098991394	pulse	1	t						157.64753484725952	
1	127.59952902793884	pulse	1	t						159.24756288528442	
1	129.19951701164246	pulse	1	t						160.84755086898804	
1	130.79934000968933	pulse	1	t						162.4473738670349	
1	132.39942002296448	pulse	1	t						164.04745388031006	
1	133.99940609931946	pulse	1	t						165.64743995666504	
2	135.51587104797363	fix_pre	0		11	0.0	2.5	/experiments/AOT/AOT_stimuli/rescaled_final/0690_fw.mp4	0.0	167.1639049053192	0.09959602355957031
2	135.5994279384613	pulse	0	t		0.0	2.5	/experiments/AOT/AOT_stimuli/rescaled_final/0690_fw.mp4	0.0	167.24746179580688	
2	135.6154670715332	movie	1		241	0.0	2.5	/experiments/AOT/AOT_stimuli/rescaled_final/0690_fw.mp4	0.0	167.26350092887878	2.5004239082336426
2	137.20048999786377	pulse	1	t		0.0	2.5	/experiments/AOT/AOT_stimuli/rescaled_final/0690_fw.mp4	0.0	168.84852385520935	
2	138.11589097976685	fix_post	2		12	0.0	2.5	/experiments/AOT/AOT_stimuli/rescaled_final/0690_fw.mp4	0.0	169.76392483711243	0.10001301765441895
3	138.21590399742126	fix_pre	0		120	1.0	2.5	/experiments/AOT/AOT_stimuli/rescaled_final/1016_rv.mp4	0.0	169.86393785476685	1.0000269412994385
3	138.79936909675598	pulse	0	t		1.0	2.5	/experiments/AOT/AOT_stimuli/rescaled_final/1016_rv.mp4	0.0	170.44740295410156	
3	139.2159309387207	movie	1		243	1.0	2.5	/experiments/AOT/AOT_stimuli/rescaled_final/1016_rv.mp4	0.0	170.86396479606628	2.500014066696167
3	140.3994460105896	pulse	1	t		1.0	2.5	/experiments/AOT/AOT_stimuli/rescaled_final/1016_rv.mp4	0.0	172.04747986793518	
3	141.71594500541687	fix_post	2		12	1.0	2.5	/experiments/AOT/AOT_stimuli/rescaled_final/1016_rv.mp4	0.0	173.36397886276245	0.09997010231018066
4	141.81591510772705	fix_pre	0		120	2.0	2.5	/experiments/AOT/AOT_stimuli/rescaled_final/0354_fw.mp4	0.0	173.46394896507263	0.9999809265136719
4	141.99941897392273	pulse	0	t		2.0	2.5	/experiments/AOT/AOT_stimuli/rescaled_final/0354_fw.mp4	0.0	173.6474528312683	
4	142.81589603424072	movie	1		244	2.0	2.5	/experiments/AOT/AOT_stimuli/rescaled_final/0354_fw.mp4	0.0	174.4639298915863	2.4999539852142334
4	143.5993549823761	pulse	1	t		2.0	2.5	/experiments/AOT/AOT_stimuli/rescaled_final/0354_fw.mp4	0.0	175.24738883972168	
4	145.1981749534607	pulse	1	t		2.0	2.5	/experiments/AOT/AOT_stimuli/rescaled_final/0354_fw.mp4	0.0	176.84620881080627	
4	145.31585001945496	fix_post	2		12	2.0	2.5	/experiments/AOT/AOT_stimuli/rescaled_final/0354_fw.mp4	0.0	176.96388387680054	0.1000211238861084
5	145.41587114334106	fix_pre	0		120	3.0	2.5	/experiments/AOT/AOT_stimuli/rescaled_final/1180_fw.mp4	0.0	177.06390500068665	0.9999799728393555
5	146.41585111618042	movie	1		243	3.0	2.5	/experiments/AOT/AOT_stimuli/rescaled_final/1180_fw.mp4	0.0	178.063884973526	2.4999630451202393
5	146.79889798164368	pulse	1	t		3.0	2.5	/experiments/AOT/AOT_stimuli/rescaled_final/1180_fw.mp4	0.0	178.44693183898926	
5	148.39936113357544	pulse	1	t		3.0	2.5	/experiments/AOT/AOT_stimuli/rescaled_final/1180_fw.mp4	0.0	180.04739499092102	
5	148.91581416130066	fix_post	2		12	3.0	2.5	/experiments/AOT/AOT_stimuli/rescaled_final/1180_fw.mp4	0.0	180.56384801864624	0.09994196891784668
6	149.0157561302185	fix_pre	0		119	4.0	2.5	/experiments/AOT/AOT_stimuli/rescaled_final/1821_fw.mp4	0.0	180.6637899875641	0.9917209148406982
6	149.99939894676208	pulse	0	t		4.0	2.5	/experiments/AOT/AOT_stimuli/rescaled_final/1821_fw.mp4	0.0	181.64743280410767	
6	150.0074770450592	movie	1		249	4.0	2.5	/experiments/AOT/AOT_stimuli/rescaled_final/1821_fw.mp4	0.0	181.65551090240479	2.5083789825439453
6	151.59955501556396	pulse	1	t		4.0	2.5	/experiments/AOT/AOT_stimuli/rescaled_final/1821_fw.mp4	0.0	183.24758887290955	
6	152.51585602760315	fix_post	2		12	4.0	2.5	/experiments/AOT/AOT_stimuli/rescaled_final/1821_fw.mp4	0.0	184.16388988494873	0.10001802444458008
7	152.61587405204773	fix_pre	0		120	5.0	2.5	/experiments/AOT/AOT_stimuli/rescaled_final/0370_fw.mp4	0.0	184.2639079093933	0.9999160766601562
7	153.19941806793213	pulse	0	t		5.0	2.5	/experiments/AOT/AOT_stimuli/rescaled_final/0370_fw.mp4	0.0	184.8474519252777	
7	153.61579012870789	movie	1		246	5.0	2.5	/experiments/AOT/AOT_stimuli/rescaled_final/0370_fw.mp4	0.0	185.26382398605347	2.4999589920043945
7	154.79948115348816	pulse	1	t		5.0	2.5	/experiments/AOT/AOT_stimuli/rescaled_final/0370_fw.mp4	0.0	186.44751501083374	
7	156.11574912071228	fix_post	2		12	5.0	2.5	/experiments/AOT/AOT_stimuli/rescaled_final/0370_fw.mp4	0.0	187.76378297805786	0.10009193420410156
8	156.21584105491638	fix_pre	0		120	6.0	2.5	blank	1.0	187.86387491226196	0.9999499320983887
8	156.39930701255798	pulse	0	t		6.0	2.5	blank	1.0	188.04734086990356	
8	157.21579098701477	movie	1		300	6.0	2.5	blank	1.0	188.86382484436035	2.500059127807617
8	157.99933695793152	pulse	1	t		6.0	2.5	blank	1.0	189.6473708152771	
8	159.5992829799652	pulse	1	t		6.0	2.5	blank	1.0	191.2473168373108	
8	159.7158501148224	fix_post	2		12	6.0	2.5	blank	1.0	191.36388397216797	0.09997892379760742
9	159.81582903862	fix_pre	0		120	7.0	2.5	/experiments/AOT/AOT_stimuli/rescaled_final/0715_rv.mp4	0.0	191.46386289596558	0.9999120235443115
9	160.8157410621643	movie	1		243	7.0	2.5	/experiments/AOT/AOT_stimuli/rescaled_final/0715_rv.mp4	0.0	192.4637749195099	2.5002129077911377
9	161.19905710220337	pulse	1	t		7.0	2.5	/experiments/AOT/AOT_stimuli/rescaled_final/0715_rv.mp4	0.0	192.84709095954895	
9	162.79929113388062	pulse	1	t		7.0	2.5	/experiments/AOT/AOT_stimuli/rescaled_final/0715_rv.mp4	0.0	194.4473249912262	
9	163.31595396995544	fix_post	2		12	7.0	2.5	/experiments/AOT/AOT_stimuli/rescaled_final/0715_rv.mp4	0.0	194.96398782730103	0.09988617897033691
10	163.41584014892578	fix_pre	0		119	8.0	2.5	/experiments/AOT/AOT_stimuli/rescaled_final/1309_rv.mp4	0.0	195.06387400627136	0.9915130138397217
10	164.39929604530334	pulse	0	t		8.0	2.5	/experiments/AOT/AOT_stimuli/rescaled_final/1309_rv.mp4	0.0	196.04732990264893	
10	164.4073531627655	movie	1		245	8.0	2.5	/experiments/AOT/AOT_stimuli/rescaled_final/1309_rv.mp4	0.0	196.05538702011108	2.5084309577941895
10	165.99877214431763	pulse	1	t		8.0	2.5	/experiments/AOT/AOT_stimuli/rescaled_final/1309_rv.mp4	0.0	197.6468060016632	
10	166.9157841205597	fix_post	2		12	8.0	2.5	/experiments/AOT/AOT_stimuli/rescaled_final/1309_rv.mp4	0.0	198.56381797790527	0.0999460220336914
11	167.01573014259338	fix_pre	0		120	9.0	2.5	/experiments/AOT/AOT_stimuli/rescaled_final/1421_rv.mp4	0.0	198.66376399993896	1.0000739097595215
11	167.5992021560669	pulse	0	t		9.0	2.5	/experiments/AOT/AOT_stimuli/rescaled_final/1421_rv.mp4	0.0	199.24723601341248	
11	168.0158040523529	movie	1		242	9.0	2.5	/experiments/AOT/AOT_stimuli/rescaled_final/1421_rv.mp4	0.0	199.6638379096985	2.4999759197235107
11	169.1993260383606	pulse	1	t		9.0	2.5	/experiments/AOT/AOT_stimuli/rescaled_final/1421_rv.mp4	0.0	200.84735989570618	
11	170.51577997207642	fix_post	2		12	9.0	2.5	/experiments/AOT/AOT_stimuli/rescaled_final/1421_rv.mp4	0.0	202.163813829422	0.10003519058227539
12	170.6158151626587	fix_pre	0		120	10.0	2.5	/experiments/AOT/AOT_stimuli/rescaled_final/0993_fw.mp4	0.0	202.26384902000427	0.9999368190765381
12	170.79927515983582	pulse	0	t		10.0	2.5	/experiments/AOT/AOT_stimuli/rescaled_final/0993_fw.mp4	0.0	202.4473090171814	
12	171.61575198173523	movie	1		243	10.0	2.5	/experiments/AOT/AOT_stimuli/rescaled_final/0993_fw.mp4	0.0	203.2637858390808	2.5000171661376953
12	172.39926195144653	pulse	1	t		10.0	2.5	/experiments/AOT/AOT_stimuli/rescaled_final/0993_fw.mp4	0.0	204.04729580879211	
12	173.99749612808228	pulse	1	t		10.0	2.5	/experiments/AOT/AOT_stimuli/rescaled_final/0993_fw.mp4	0.0	205.64552998542786	
12	174.11576914787292	fix_post	2		12	10.0	2.5	/experiments/AOT/AOT_stimuli/rescaled_final/0993_fw.mp4	0.0	205.7638030052185	0.0999917984008789
13	174.2157609462738	fix_pre	0		120	11.0	2.5	/experiments/AOT/AOT_stimuli/rescaled_final/0693_fw.mp4	0.0	205.86379480361938	1.0000731945037842
13	175.2158341407776	movie	1		243	11.0	2.5	/experiments/AOT/AOT_stimuli/rescaled_final/0693_fw.mp4	0.0	206.86386799812317	2.4999568462371826
13	175.59914898872375	pulse	1	t		11.0	2.5	/experiments/AOT/AOT_stimuli/rescaled_final/0693_fw.mp4	0.0	207.24718284606934	
13	177.19915413856506	pulse	1	t		11.0	2.5	/experiments/AOT/AOT_stimuli/rescaled_final/0693_fw.mp4	0.0	208.84718799591064	
13	177.71579098701477	fix_post	2		12	11.0	2.5	/experiments/AOT/AOT_stimuli/rescaled_final/0693_fw.mp4	0.0	209.36382484436035	0.0995030403137207
14	177.8152940273285	fix_pre	0		119	12.0	2.5	/experiments/AOT/AOT_stimuli/rescaled_final/1705_rv.mp4	0.0	209.46332788467407	0.9921269416809082
14	178.79880809783936	pulse	0	t		12.0	2.5	/experiments/AOT/AOT_stimuli/rescaled_final/1705_rv.mp4	0.0	210.44684195518494	
14	178.8074209690094	movie	1		246	12.0	2.5	/experiments/AOT/AOT_stimuli/rescaled_final/1705_rv.mp4	0.0	210.45545482635498	2.508229970932007
14	180.39876008033752	pulse	1	t		12.0	2.5	/experiments/AOT/AOT_stimuli/rescaled_final/1705_rv.mp4	0.0	212.0467939376831	
14	181.3156509399414	fix_post	2		12	12.0	2.5	/experiments/AOT/AOT_stimuli/rescaled_final/1705_rv.mp4	0.0	212.963684797287	0.10000014305114746
15	181.41565108299255	fix_pre	0		120	13.0	2.5	blank	1.0	213.06368494033813	1.0001049041748047
15	181.99921298027039	pulse	0	t		13.0	2.5	blank	1.0	213.64724683761597	
15	182.41575598716736	movie	1		300	13.0	2.5	blank	1.0	214.06378984451294	2.4999799728393555
15	183.59921407699585	pulse	1	t		13.0	2.5	blank	1.0	215.24724793434143	
15	184.9157359600067	fix_post	2		12	13.0	2.5	blank	1.0	216.5637698173523	0.09997415542602539
16	185.01571011543274	fix_pre	0		120	14.0	2.5	/experiments/AOT/AOT_stimuli/rescaled_final/2149_fw.mp4	0.0	216.66374397277832	0.9999279975891113
16	185.1992130279541	pulse	0	t		14.0	2.5	/experiments/AOT/AOT_stimuli/rescaled_final/2149_fw.mp4	0.0	216.84724688529968	
16	186.01563811302185	movie	1		243	14.0	2.5	/experiments/AOT/AOT_stimuli/rescaled_final/2149_fw.mp4	0.0	217.66367197036743	2.5000438690185547
16	186.79909110069275	pulse	1	t		14.0	2.5	/experiments/AOT/AOT_stimuli/rescaled_final/2149_fw.mp4	0.0	218.44712495803833	
16	188.39743208885193	pulse	1	t		14.0	2.5	/experiments/AOT/AOT_stimuli/rescaled_final/2149_fw.mp4	0.0	220.0454659461975	
16	188.5156819820404	fix_post	2		12	14.0	2.5	/experiments/AOT/AOT_stimuli/rescaled_final/2149_fw.mp4	0.0	220.163715839386	0.10001111030578613
17	188.6156930923462	fix_pre	0		120	15.0	2.5	/experiments/AOT/AOT_stimuli/rescaled_final/0014_rv.mp4	0.0	220.26372694969177	0.9998829364776611
17	189.61557602882385	movie	1		243	15.0	2.5	/experiments/AOT/AOT_stimuli/rescaled_final/0014_rv.mp4	0.0	221.26360988616943	2.4996531009674072
17	189.99866700172424	pulse	1	t		15.0	2.5	/experiments/AOT/AOT_stimuli/rescaled_final/0014_rv.mp4	0.0	221.64670085906982	
17	191.5990309715271	pulse	1	t		15.0	2.5	/experiments/AOT/AOT_stimuli/rescaled_final/0014_rv.mp4	0.0	223.24706482887268	
17	192.11522912979126	fix_post	2		12	15.0	2.5	/experiments/AOT/AOT_stimuli/rescaled_final/0014_rv.mp4	0.0	223.76326298713684	0.1003580093383789
18	192.21558713912964	fix_pre	0		119	16.0	2.5	/experiments/AOT/AOT_stimuli/rescaled_final/1592_fw.mp4	0.0	223.86362099647522	0.9917209148406982
18	193.19913411140442	pulse	0	t		16.0	2.5	/experiments/AOT/AOT_stimuli/rescaled_final/1592_fw.mp4	0.0	224.84716796875	
18	193.20730805397034	movie	1		248	16.0	2.5	/experiments/AOT/AOT_stimuli/rescaled_final/1592_fw.mp4	0.0	224.85534191131592	2.5083649158477783
18	194.79877495765686	pulse	1	t		16.0	2.5	/experiments/AOT/AOT_stimuli/rescaled_final/1592_fw.mp4	0.0	226.44680881500244	
18	195.71567296981812	fix_post	2		12	16.0	2.5	/experiments/AOT/AOT_stimuli/rescaled_final/1592_fw.mp4	0.0	227.3637068271637	0.09993815422058105
19	195.8156111240387	fix_pre	0		120	17.0	2.5	/experiments/AOT/AOT_stimuli/rescaled_final/1002_rv.mp4	0.0	227.46364498138428	0.9999969005584717
19	196.3990740776062	pulse	0	t		17.0	2.5	/experiments/AOT/AOT_stimuli/rescaled_final/1002_rv.mp4	0.0	228.04710793495178	
19	196.81560802459717	movie	1		246	17.0	2.5	/experiments/AOT/AOT_stimuli/rescaled_final/1002_rv.mp4	0.0	228.46364188194275	2.4995651245117188
19	197.99914407730103	pulse	1	t		17.0	2.5	/experiments/AOT/AOT_stimuli/rescaled_final/1002_rv.mp4	0.0	229.6471779346466	
19	199.3151731491089	fix_post	2		12	17.0	2.5	/experiments/AOT/AOT_stimuli/rescaled_final/1002_rv.mp4	0.0	230.96320700645447	0.10041284561157227
20	199.41558599472046	fix_pre	0		120	18.0	2.5	/experiments/AOT/AOT_stimuli/rescaled_final/0800_fw.mp4	0.0	231.06361985206604	0.9999949932098389
20	199.59908199310303	pulse	0	t		18.0	2.5	/experiments/AOT/AOT_stimuli/rescaled_final/0800_fw.mp4	0.0	231.2471158504486	
20	200.4155809879303	movie	1		246	18.0	2.5	/experiments/AOT/AOT_stimuli/rescaled_final/0800_fw.mp4	0.0	232.06361484527588	2.4999899864196777
20	201.19911098480225	pulse	1	t		18.0	2.5	/experiments/AOT/AOT_stimuli/rescaled_final/0800_fw.mp4	0.0	232.84714484214783	
20	202.7976701259613	pulse	1	t		18.0	2.5	/experiments/AOT/AOT_stimuli/rescaled_final/0800_fw.mp4	0.0	234.44570398330688	
20	202.91557097434998	fix_post	2		12	18.0	2.5	/experiments/AOT/AOT_stimuli/rescaled_final/0800_fw.mp4	0.0	234.56360483169556	0.10001206398010254
21	203.01558303833008	fix_pre	0		120	19.0	2.5	/experiments/AOT/AOT_stimuli/rescaled_final/1520_rv.mp4	0.0	234.66361689567566	1.0000030994415283
21	204.0155861377716	movie	1		244	19.0	2.5	/experiments/AOT/AOT_stimuli/rescaled_final/1520_rv.mp4	0.0	235.6636199951172	2.5000128746032715
21	204.39864301681519	pulse	1	t		19.0	2.5	/experiments/AOT/AOT_stimuli/rescaled_final/1520_rv.mp4	0.0	236.04667687416077	
21	205.99899911880493	pulse	1	t		19.0	2.5	/experiments/AOT/AOT_stimuli/rescaled_final/1520_rv.mp4	0.0	237.6470329761505	
21	206.51559901237488	fix_post	2		12	19.0	2.5	/experiments/AOT/AOT_stimuli/rescaled_final/1520_rv.mp4	0.0	238.16363286972046	0.09994697570800781
22	206.61554598808289	fix_pre	0		119	20.0	2.5	blank	1.0	238.26357984542847	0.9915981292724609
22	207.59907793998718	pulse	0	t		20.0	2.5	blank	1.0	239.24711179733276	
22	207.60714411735535	movie	1		301	20.0	2.5	blank	1.0	239.25517797470093	2.508409023284912
22	209.19906497001648	pulse	1	t		20.0	2.5	blank	1.0	240.84709882736206	
22	210.11555314064026	fix_post	2		12	20.0	2.5	blank	1.0	241.76358699798584	0.09995889663696289
23	210.21551203727722	fix_pre	0		120	21.0	2.5	/experiments/AOT/AOT_stimuli/rescaled_final/0704_rv.mp4	0.0	241.8635458946228	1.0000510215759277
23	210.79900908470154	pulse	0	t		21.0	2.5	/experiments/AOT/AOT_stimuli/rescaled_final/0704_rv.mp4	0.0	242.44704294204712	
23	211.21556305885315	movie	1		244	21.0	2.5	/experiments/AOT/AOT_stimuli/rescaled_final/0704_rv.mp4	0.0	242.86359691619873	2.5000600814819336
23	212.39910316467285	pulse	1	t		21.0	2.5	/experiments/AOT/AOT_stimuli/rescaled_final/0704_rv.mp4	0.0	244.04713702201843	
23	213.71562314033508	fix_post	2		12	21.0	2.5	/experiments/AOT/AOT_stimuli/rescaled_final/0704_rv.mp4	0.0	245.36365699768066	0.09994292259216309
24	213.81556606292725	fix_pre	0		120	22.0	2.5	/experiments/AOT/AOT_stimuli/rescaled_final/1720_fw.mp4	0.0	245.46359992027283	0.999971866607666
24	213.99916100502014	pulse	0	t		22.0	2.5	/experiments/AOT/AOT_stimuli/rescaled_final/1720_fw.mp4	0.0	245.64719486236572	
24	214.8155379295349	movie	1		243	22.0	2.5	/experiments/AOT/AOT_stimuli/rescaled_final/1720_fw.mp4	0.0	246.4635717868805	2.500009059906006
24	215.598974943161	pulse	1	t		22.0	2.5	/experiments/AOT/AOT_stimuli/rescaled_final/1720_fw.mp4	0.0	247.2470088005066	
24	217.19752097129822	pulse	1	t		22.0	2.5	/experiments/AOT/AOT_stimuli/rescaled_final/1720_fw.mp4	0.0	248.8455548286438	
24	217.31554698944092	fix_post	2		12	22.0	2.5	/experiments/AOT/AOT_stimuli/rescaled_final/1720_fw.mp4	0.0	248.9635808467865	0.0999140739440918
25	217.415461063385	fix_pre	0		120	23.0	2.5	/experiments/AOT/AOT_stimuli/rescaled_final/0191_fw.mp4	0.0	249.0634949207306	1.0002069473266602
25	218.41566801071167	movie	1		247	23.0	2.5	/experiments/AOT/AOT_stimuli/rescaled_final/0191_fw.mp4	0.0	250.06370186805725	2.499850034713745
25	218.799987077713	pulse	1	t		23.0	2.5	/experiments/AOT/AOT_stimuli/rescaled_final/0191_fw.mp4	0.0	250.4480209350586	
25	220.39911007881165	pulse	1	t		23.0	2.5	/experiments/AOT/AOT_stimuli/rescaled_final/0191_fw.mp4	0.0	252.04714393615723	
25	220.91551804542542	fix_post	2		12	23.0	2.5	/experiments/AOT/AOT_stimuli/rescaled_final/0191_fw.mp4	0.0	252.563551902771	0.1000521183013916
26	221.0155701637268	fix_pre	0		119	24.0	2.5	/experiments/AOT/AOT_stimuli/rescaled_final/0961_fw.mp4	0.0	252.6636040210724	0.9916558265686035
26	221.99900007247925	pulse	0	t		24.0	2.5	/experiments/AOT/AOT_stimuli/rescaled_final/0961_fw.mp4	0.0	253.64703392982483	
26	222.0072259902954	movie	1		245	24.0	2.5	/experiments/AOT/AOT_stimuli/rescaled_final/0961_fw.mp4	0.0	253.655259847641	2.5082790851593018
26	223.5989100933075	pulse	1	t		24.0	2.5	/experiments/AOT/AOT_stimuli/rescaled_final/0961_fw.mp4	0.0	255.24694395065308	
26	224.5155050754547	fix_post	2		12	24.0	2.5	/experiments/AOT/AOT_stimuli/rescaled_final/0961_fw.mp4	0.0	256.1635389328003	0.10000395774841309
27	224.61550903320312	fix_pre	0		120	25.0	2.5	/experiments/AOT/AOT_stimuli/rescaled_final/0733_fw.mp4	0.0	256.2635428905487	1.0000369548797607
27	225.19901394844055	pulse	0	t		25.0	2.5	/experiments/AOT/AOT_stimuli/rescaled_final/0733_fw.mp4	0.0	256.84704780578613	
27	225.61554598808289	movie	1		246	25.0	2.5	/experiments/AOT/AOT_stimuli/rescaled_final/0733_fw.mp4	0.0	257.26357984542847	2.5000150203704834
27	226.79901003837585	pulse	1	t		25.0	2.5	/experiments/AOT/AOT_stimuli/rescaled_final/0733_fw.mp4	0.0	258.44704389572144	
27	228.11556100845337	fix_post	2		12	25.0	2.5	/experiments/AOT/AOT_stimuli/rescaled_final/0733_fw.mp4	0.0	259.76359486579895	0.09999513626098633
28	228.21555614471436	fix_pre	0		120	26.0	2.5	/experiments/AOT/AOT_stimuli/rescaled_final/1921_fw.mp4	0.0	259.86359000205994	0.999931812286377
28	228.39901304244995	pulse	0	t		26.0	2.5	/experiments/AOT/AOT_stimuli/rescaled_final/1921_fw.mp4	0.0	260.04704689979553	
28	229.21548795700073	movie	1		243	26.0	2.5	/experiments/AOT/AOT_stimuli/rescaled_final/1921_fw.mp4	0.0	260.8635218143463	2.500063180923462
28	229.99895215034485	pulse	1	t		26.0	2.5	/experiments/AOT/AOT_stimuli/rescaled_final/1921_fw.mp4	0.0	261.64698600769043	
28	231.59733605384827	pulse	1	t		26.0	2.5	/experiments/AOT/AOT_stimuli/rescaled_final/1921_fw.mp4	0.0	263.24536991119385	
28	231.7155511379242	fix_post	2		12	26.0	2.5	/experiments/AOT/AOT_stimuli/rescaled_final/1921_fw.mp4	0.0	263.3635849952698	0.09996700286865234
29	231.81551814079285	fix_pre	0		120	27.0	2.5	/experiments/AOT/AOT_stimuli/rescaled_final/0296_fw.mp4	0.0	263.4635519981384	1.000006914138794
29	232.81552505493164	movie	1		245	27.0	2.5	/experiments/AOT/AOT_stimuli/rescaled_final/0296_fw.mp4	0.0	264.4635589122772	2.499708890914917
29	233.19849705696106	pulse	1	t		27.0	2.5	/experiments/AOT/AOT_stimuli/rescaled_final/0296_fw.mp4	0.0	264.84653091430664	
29	234.79856705665588	pulse	1	t		27.0	2.5	/experiments/AOT/AOT_stimuli/rescaled_final/0296_fw.mp4	0.0	266.44660091400146	
29	235.31523394584656	fix_post	2		12	27.0	2.5	/experiments/AOT/AOT_stimuli/rescaled_final/0296_fw.mp4	0.0	266.96326780319214	0.0999600887298584
30	235.41519403457642	fix_pre	0		119	28.0	2.5	blank	1.0	267.063227891922	0.9921441078186035
30	236.3987340927124	pulse	0	t		28.0	2.5	blank	1.0	268.046767950058	
30	236.40733814239502	movie	1		301	28.0	2.5	blank	1.0	268.0553719997406	2.5081279277801514
30	237.99897599220276	pulse	1	t		28.0	2.5	blank	1.0	269.64700984954834	
30	238.91546607017517	fix_post	2		12	28.0	2.5	blank	1.0	270.56349992752075	0.09997391700744629
31	239.01543998718262	fix_pre	0		120	29.0	2.5	/experiments/AOT/AOT_stimuli/rescaled_final/0996_fw.mp4	0.0	270.6634738445282	1.000101089477539
31	239.59897804260254	pulse	0	t		29.0	2.5	/experiments/AOT/AOT_stimuli/rescaled_final/0996_fw.mp4	0.0	271.2470118999481	
31	240.01554107666016	movie	1		246	29.0	2.5	/experiments/AOT/AOT_stimuli/rescaled_final/0996_fw.mp4	0.0	271.66357493400574	2.4997899532318115
31	241.19901514053345	pulse	1	t		29.0	2.5	/experiments/AOT/AOT_stimuli/rescaled_final/0996_fw.mp4	0.0	272.847048997879	
31	242.51533102989197	fix_post	2		12	29.0	2.5	/experiments/AOT/AOT_stimuli/rescaled_final/0996_fw.mp4	0.0	274.16336488723755	0.10008692741394043
32	242.6154179573059	fix_pre	0		120	30.0	2.5	/experiments/AOT/AOT_stimuli/rescaled_final/0365_rv.mp4	0.0	274.2634518146515	0.999561071395874
32	242.7988531589508	pulse	0	t		30.0	2.5	/experiments/AOT/AOT_stimuli/rescaled_final/0365_rv.mp4	0.0	274.4468870162964	
32	243.61497902870178	movie	1		247	30.0	2.5	/experiments/AOT/AOT_stimuli/rescaled_final/0365_rv.mp4	0.0	275.26301288604736	2.5004401206970215
32	244.39889311790466	pulse	1	t		30.0	2.5	/experiments/AOT/AOT_stimuli/rescaled_final/0365_rv.mp4	0.0	276.04692697525024	
32	245.99503898620605	pulse	1	t		30.0	2.5	/experiments/AOT/AOT_stimuli/rescaled_final/0365_rv.mp4	0.0	277.64307284355164	
32	246.1154191493988	fix_post	2		12	30.0	2.5	/experiments/AOT/AOT_stimuli/rescaled_final/0365_rv.mp4	0.0	277.7634530067444	0.09992790222167969
33	246.21534705162048	fix_pre	0		120	31.0	2.5	/experiments/AOT/AOT_stimuli/rescaled_final/0961_fw.mp4	0.0	277.86338090896606	1.0001161098480225
33	247.2154631614685	movie	1		244	31.0	2.5	/experiments/AOT/AOT_stimuli/rescaled_final/0961_fw.mp4	0.0	278.8634970188141	2.4998719692230225
33	247.59849214553833	pulse	1	t		31.0	2.5	/experiments/AOT/AOT_stimuli/rescaled_final/0961_fw.mp4	0.0	279.2465260028839	
33	249.19881010055542	pulse	1	t		31.0	2.5	/experiments/AOT/AOT_stimuli/rescaled_final/0961_fw.mp4	0.0	280.846843957901	
33	249.71533513069153	fix_post	2		12	31.0	2.5	/experiments/AOT/AOT_stimuli/rescaled_final/0961_fw.mp4	0.0	281.3633689880371	0.0999917984008789
34	249.8153269290924	fix_pre	0		119	32.0	2.5	/experiments/AOT/AOT_stimuli/rescaled_final/1712_fw.mp4	0.0	281.463360786438	0.9916532039642334
34	250.79885005950928	pulse	0	t		32.0	2.5	/experiments/AOT/AOT_stimuli/rescaled_final/1712_fw.mp4	0.0	282.44688391685486	
34	250.80698013305664	movie	1		245	32.0	2.5	/experiments/AOT/AOT_stimuli/rescaled_final/1712_fw.mp4	0.0	282.4550139904022	2.508405923843384
34	252.39847207069397	pulse	1	t		32.0	2.5	/experiments/AOT/AOT_stimuli/rescaled_final/1712_fw.mp4	0.0	284.04650592803955	
34	253.31538605690002	fix_post	2		12	32.0	2.5	/experiments/AOT/AOT_stimuli/rescaled_final/1712_fw.mp4	0.0	284.9634199142456	0.09994888305664062
35	253.41533493995667	fix_pre	0		120	33.0	2.5	blank	1.0	285.06336879730225	1.0000410079956055
35	253.99882102012634	pulse	0	t		33.0	2.5	blank	1.0	285.6468548774719	
35	254.41537594795227	movie	1		300	33.0	2.5	blank	1.0	286.06340980529785	2.4999561309814453
35	255.59885716438293	pulse	1	t		33.0	2.5	blank	1.0	287.2468910217285	
35	256.9153320789337	fix_post	2		12	33.0	2.5	blank	1.0	288.5633659362793	0.09994101524353027
36	257.01527309417725	fix_pre	0		120	34.0	2.5	/experiments/AOT/AOT_stimuli/rescaled_final/1175_fw.mp4	0.0	288.6633069515228	1.0000529289245605
36	257.19886898994446	pulse	0	t		34.0	2.5	/experiments/AOT/AOT_stimuli/rescaled_final/1175_fw.mp4	0.0	288.84690284729004	
36	258.0153260231018	movie	1		246	34.0	2.5	/experiments/AOT/AOT_stimuli/rescaled_final/1175_fw.mp4	0.0	289.6633598804474	2.4995620250701904
36	258.7988440990448	pulse	1	t		34.0	2.5	/experiments/AOT/AOT_stimuli/rescaled_final/1175_fw.mp4	0.0	290.4468779563904	
36	260.3975329399109	pulse	1	t		34.0	2.5	/experiments/AOT/AOT_stimuli/rescaled_final/1175_fw.mp4	0.0	292.04556679725647	
36	260.514888048172	fix_post	2		12	34.0	2.5	/experiments/AOT/AOT_stimuli/rescaled_final/1175_fw.mp4	0.0	292.1629219055176	0.09996390342712402
37	260.6148519515991	fix_pre	0		120	35.0	2.5	/experiments/AOT/AOT_stimuli/rescaled_final/1252_fw.mp4	0.0	292.2628858089447	1.0005431175231934
37	261.6153950691223	movie	1		244	35.0	2.5	/experiments/AOT/AOT_stimuli/rescaled_final/1252_fw.mp4	0.0	293.2634289264679	2.4995830059051514
37	261.9984440803528	pulse	1	t		35.0	2.5	/experiments/AOT/AOT_stimuli/rescaled_final/1252_fw.mp4	0.0	293.64647793769836	
37	263.5987651348114	pulse	1	t		35.0	2.5	/experiments/AOT/AOT_stimuli/rescaled_final/1252_fw.mp4	0.0	295.246798992157	
37	264.11497807502747	fix_post	2		12	35.0	2.5	/experiments/AOT/AOT_stimuli/rescaled_final/1252_fw.mp4	0.0	295.76301193237305	0.10036706924438477
38	264.21534514427185	fix_pre	0		119	36.0	2.5	/experiments/AOT/AOT_stimuli/rescaled_final/1525_rv.mp4	0.0	295.86337900161743	0.9915947914123535
38	265.1987581253052	pulse	0	t		36.0	2.5	/experiments/AOT/AOT_stimuli/rescaled_final/1525_rv.mp4	0.0	296.84679198265076	
38	265.2069399356842	movie	1		248	36.0	2.5	/experiments/AOT/AOT_stimuli/rescaled_final/1525_rv.mp4	0.0	296.8549737930298	2.50829815864563
38	266.79886198043823	pulse	1	t		36.0	2.5	/experiments/AOT/AOT_stimuli/rescaled_final/1525_rv.mp4	0.0	298.4468958377838	
38	267.71523809432983	fix_post	2		12	36.0	2.5	/experiments/AOT/AOT_stimuli/rescaled_final/1525_rv.mp4	0.0	299.3632719516754	0.10011100769042969
39	267.81534910202026	fix_pre	0		120	37.0	2.5	/experiments/AOT/AOT_stimuli/rescaled_final/1671_fw.mp4	0.0	299.46338295936584	0.9998600482940674
39	268.3999979496002	pulse	0	t		37.0	2.5	/experiments/AOT/AOT_stimuli/rescaled_final/1671_fw.mp4	0.0	300.0480318069458	
39	268.81520915031433	movie	1		244	37.0	2.5	/experiments/AOT/AOT_stimuli/rescaled_final/1671_fw.mp4	0.0	300.4632430076599	2.500175952911377
39	269.9988510608673	pulse	1	t		37.0	2.5	/experiments/AOT/AOT_stimuli/rescaled_final/1671_fw.mp4	0.0	301.6468849182129	
39	271.3153851032257	fix_post	2		12	37.0	2.5	/experiments/AOT/AOT_stimuli/rescaled_final/1671_fw.mp4	0.0	302.9634189605713	0.09990882873535156
40	271.41529393196106	fix_pre	0		120	38.0	2.5	/experiments/AOT/AOT_stimuli/rescaled_final/1946_rv.mp4	0.0	303.06332778930664	0.9999592304229736
40	271.5987069606781	pulse	0	t		38.0	2.5	/experiments/AOT/AOT_stimuli/rescaled_final/1946_rv.mp4	0.0	303.2467408180237	
40	272.41525316238403	movie	1		245	38.0	2.5	/experiments/AOT/AOT_stimuli/rescaled_final/1946_rv.mp4	0.0	304.0632870197296	2.4999709129333496
40	273.1986999511719	pulse	1	t		38.0	2.5	/experiments/AOT/AOT_stimuli/rescaled_final/1946_rv.mp4	0.0	304.84673380851746	
40	274.794851064682	pulse	1	t		38.0	2.5	/experiments/AOT/AOT_stimuli/rescaled_final/1946_rv.mp4	0.0	306.4428849220276	
40	274.9152240753174	fix_post	2		12	38.0	2.5	/experiments/AOT/AOT_stimuli/rescaled_final/1946_rv.mp4	0.0	306.56325793266296	0.10005593299865723
41	275.01528000831604	fix_pre	0		120	39.0	2.5	/experiments/AOT/AOT_stimuli/rescaled_final/0662_fw.mp4	0.0	306.6633138656616	0.9999589920043945
41	276.01523900032043	movie	1		242	39.0	2.5	/experiments/AOT/AOT_stimuli/rescaled_final/0662_fw.mp4	0.0	307.663272857666	2.500030994415283
41	276.39834213256836	pulse	1	t		39.0	2.5	/experiments/AOT/AOT_stimuli/rescaled_final/0662_fw.mp4	0.0	308.04637598991394	
41	277.998752117157	pulse	1	t		39.0	2.5	/experiments/AOT/AOT_stimuli/rescaled_final/0662_fw.mp4	0.0	309.64678597450256	
41	278.5152699947357	fix_post	2		12	39.0	2.5	/experiments/AOT/AOT_stimuli/rescaled_final/0662_fw.mp4	0.0	310.1633038520813	0.09993910789489746
42	278.6152091026306	fix_pre	0		119	40.0	2.5	blank	1.0	310.2632429599762	0.9916510581970215
42	279.59872794151306	pulse	0	t		40.0	2.5	blank	1.0	311.24676179885864	
42	279.60686016082764	movie	1		301	40.0	2.5	blank	1.0	311.2548940181732	2.508384943008423
42	281.19871497154236	pulse	1	t		40.0	2.5	blank	1.0	312.84674882888794	
42	282.11524510383606	fix_post	2		12	40.0	2.5	blank	1.0	313.76327896118164	0.09996199607849121
43	282.21520709991455	fix_pre	0		120	41.0	2.5	/experiments/AOT/AOT_stimuli/rescaled_final/0781_fw.mp4	0.0	313.86324095726013	0.9999740123748779
43	282.7987549304962	pulse	0	t		41.0	2.5	/experiments/AOT/AOT_stimuli/rescaled_final/0781_fw.mp4	0.0	314.4467887878418	
43	283.21518111228943	movie	1		245	41.0	2.5	/experiments/AOT/AOT_stimuli/rescaled_final/0781_fw.mp4	0.0	314.863214969635	2.499971866607666
43	284.3987829685211	pulse	1	t		41.0	2.5	/experiments/AOT/AOT_stimuli/rescaled_final/0781_fw.mp4	0.0	316.0468168258667	
43	285.7151529788971	fix_post	2		12	41.0	2.5	/experiments/AOT/AOT_stimuli/rescaled_final/0781_fw.mp4	0.0	317.3631868362427	0.10010910034179688
44	285.8152620792389	fix_pre	0		120	42.0	2.5	/experiments/AOT/AOT_stimuli/rescaled_final/1300_rv.mp4	0.0	317.4632959365845	1.0000109672546387
44	285.99881505966187	pulse	0	t		42.0	2.5	/experiments/AOT/AOT_stimuli/rescaled_final/1300_rv.mp4	0.0	317.64684891700745	
44	286.81527304649353	movie	1		246	42.0	2.5	/experiments/AOT/AOT_stimuli/rescaled_final/1300_rv.mp4	0.0	318.4633069038391	2.4998888969421387
44	287.5986759662628	pulse	1	t		42.0	2.5	/experiments/AOT/AOT_stimuli/rescaled_final/1300_rv.mp4	0.0	319.2467098236084	
44	289.1982641220093	pulse	1	t		42.0	2.5	/experiments/AOT/AOT_stimuli/rescaled_final/1300_rv.mp4	0.0	320.84629797935486	
44	289.31516194343567	fix_post	2		12	42.0	2.5	/experiments/AOT/AOT_stimuli/rescaled_final/1300_rv.mp4	0.0	320.96319580078125	0.09998822212219238
45	289.41515016555786	fix_pre	0		120	43.0	2.5	/experiments/AOT/AOT_stimuli/rescaled_final/0816_fw.mp4	0.0	321.06318402290344	0.9996809959411621
45	290.414831161499	movie	1		244	43.0	2.5	/experiments/AOT/AOT_stimuli/rescaled_final/0816_fw.mp4	0.0	322.0628650188446	2.500316858291626
45	290.79802203178406	pulse	1	t		43.0	2.5	/experiments/AOT/AOT_stimuli/rescaled_final/0816_fw.mp4	0.0	322.44605588912964	
45	292.39901995658875	pulse	1	t		43.0	2.5	/experiments/AOT/AOT_stimuli/rescaled_final/0816_fw.mp4	0.0	324.0470538139343	
45	292.91514801979065	fix_post	2		12	43.0	2.5	/experiments/AOT/AOT_stimuli/rescaled_final/0816_fw.mp4	0.0	324.56318187713623	0.10007214546203613
46	293.0152201652527	fix_pre	0		119	44.0	2.5	/experiments/AOT/AOT_stimuli/rescaled_final/1389_rv.mp4	0.0	324.66325402259827	0.9915769100189209
46	293.99865198135376	pulse	0	t		44.0	2.5	/experiments/AOT/AOT_stimuli/rescaled_final/1389_rv.mp4	0.0	325.64668583869934	
46	294.0067970752716	movie	1		246	44.0	2.5	/experiments/AOT/AOT_stimuli/rescaled_final/1389_rv.mp4	0.0	325.6548309326172	2.5084080696105957
46	295.59841299057007	pulse	1	t		44.0	2.5	/experiments/AOT/AOT_stimuli/rescaled_final/1389_rv.mp4	0.0	327.24644684791565	
46	296.5152051448822	fix_post	2		12	44.0	2.5	/experiments/AOT/AOT_stimuli/rescaled_final/1389_rv.mp4	0.0	328.1632390022278	0.09993290901184082
47	296.61513805389404	fix_pre	0		120	45.0	2.5	/experiments/AOT/AOT_stimuli/rescaled_final/0999_rv.mp4	0.0	328.2631719112396	0.9999198913574219
47	297.19866394996643	pulse	0	t		45.0	2.5	/experiments/AOT/AOT_stimuli/rescaled_final/0999_rv.mp4	0.0	328.846697807312	
47	297.61505794525146	movie	1		245	45.0	2.5	/experiments/AOT/AOT_stimuli/rescaled_final/0999_rv.mp4	0.0	329.26309180259705	2.499721050262451
47	298.79857110977173	pulse	1	t		45.0	2.5	/experiments/AOT/AOT_stimuli/rescaled_final/0999_rv.mp4	0.0	330.4466049671173	
47	300.1147789955139	fix_post	2		12	45.0	2.5	/experiments/AOT/AOT_stimuli/rescaled_final/0999_rv.mp4	0.0	331.7628128528595	0.10033202171325684
48	300.2151110172272	fix_pre	0		120	46.0	2.5	/experiments/AOT/AOT_stimuli/rescaled_final/0993_fw.mp4	0.0	331.86314487457275	0.9999759197235107
48	300.39856815338135	pulse	0	t		46.0	2.5	/experiments/AOT/AOT_stimuli/rescaled_final/0993_fw.mp4	0.0	332.04660201072693	
48	301.2150869369507	movie	1		244	46.0	2.5	/experiments/AOT/AOT_stimuli/rescaled_final/0993_fw.mp4	0.0	332.86312079429626	2.49996018409729
48	301.998526096344	pulse	1	t		46.0	2.5	/experiments/AOT/AOT_stimuli/rescaled_final/0993_fw.mp4	0.0	333.6465599536896	
48	303.5971131324768	pulse	1	t		46.0	2.5	/experiments/AOT/AOT_stimuli/rescaled_final/0993_fw.mp4	0.0	335.2451469898224	
48	303.715047121048	fix_post	2		12	46.0	2.5	/experiments/AOT/AOT_stimuli/rescaled_final/0993_fw.mp4	0.0	335.36308097839355	0.10003781318664551
49	303.8150849342346	fix_pre	0		120	47.0	2.5	/experiments/AOT/AOT_stimuli/rescaled_final/0608_rv.mp4	0.0	335.4631187915802	0.9999630451202393
49	304.81504797935486	movie	1		243	47.0	2.5	/experiments/AOT/AOT_stimuli/rescaled_final/0608_rv.mp4	0.0	336.46308183670044	2.5000059604644775
49	305.19813299179077	pulse	1	t		47.0	2.5	/experiments/AOT/AOT_stimuli/rescaled_final/0608_rv.mp4	0.0	336.84616684913635	
49	306.7984881401062	pulse	1	t		47.0	2.5	/experiments/AOT/AOT_stimuli/rescaled_final/0608_rv.mp4	0.0	338.4465219974518	
49	307.31505393981934	fix_post	2		12	47.0	2.5	/experiments/AOT/AOT_stimuli/rescaled_final/0608_rv.mp4	0.0	338.9630877971649	0.09995603561401367
50	307.41500997543335	fix_pre	0		119	48.0	2.5	blank	1.0	339.06304383277893	0.9917910099029541
50	308.39868116378784	pulse	0	t		48.0	2.5	blank	1.0	340.0467150211334	
50	308.4068009853363	movie	1		301	48.0	2.5	blank	1.0	340.0548348426819	2.5082061290740967
50	309.9985251426697	pulse	1	t		48.0	2.5	blank	1.0	341.64655900001526	
50	310.9150071144104	fix_post	2		12	48.0	2.5	blank	1.0	342.563040971756	0.10004591941833496
51	311.01505303382874	fix_pre	0		120	49.0	2.5	/experiments/AOT/AOT_stimuli/rescaled_final/1223_fw.mp4	0.0	342.6630868911743	0.9999780654907227
51	311.59841895103455	pulse	0	t		49.0	2.5	/experiments/AOT/AOT_stimuli/rescaled_final/1223_fw.mp4	0.0	343.2464528083801	
51	312.01503109931946	movie	1		244	49.0	2.5	/experiments/AOT/AOT_stimuli/rescaled_final/1223_fw.mp4	0.0	343.66306495666504	2.4999959468841553
51	313.1985499858856	pulse	1	t		49.0	2.5	/experiments/AOT/AOT_stimuli/rescaled_final/1223_fw.mp4	0.0	344.8465838432312	
51	314.5150270462036	fix_post	2		12	49.0	2.5	/experiments/AOT/AOT_stimuli/rescaled_final/1223_fw.mp4	0.0	346.1630609035492	0.09996509552001953
52	314.61499214172363	fix_pre	0		120	50.0	2.5	/experiments/AOT/AOT_stimuli/rescaled_final/1720_rv.mp4	0.0	346.2630259990692	1.0000360012054443
52	314.7984640598297	pulse	0	t		50.0	2.5	/experiments/AOT/AOT_stimuli/rescaled_final/1720_rv.mp4	0.0	346.4464979171753	
52	315.6150281429291	movie	1		243	50.0	2.5	/experiments/AOT/AOT_stimuli/rescaled_final/1720_rv.mp4	0.0	347.26306200027466	2.499969005584717
52	316.39852595329285	pulse	1	t		50.0	2.5	/experiments/AOT/AOT_stimuli/rescaled_final/1720_rv.mp4	0.0	348.0465598106384	
52	317.99696111679077	pulse	1	t		50.0	2.5	/experiments/AOT/AOT_stimuli/rescaled_final/1720_rv.mp4	0.0	349.64499497413635	
52	318.1149971485138	fix_post	2		12	50.0	2.5	/experiments/AOT/AOT_stimuli/rescaled_final/1720_rv.mp4	0.0	349.7630310058594	0.10002589225769043
53	318.2150230407715	fix_pre	0		120	51.0	2.5	/experiments/AOT/AOT_stimuli/rescaled_final/1539_fw.mp4	0.0	349.86305689811707	1.0001060962677002
53	319.2151291370392	movie	1		244	51.0	2.5	/experiments/AOT/AOT_stimuli/rescaled_final/1539_fw.mp4	0.0	350.86316299438477	2.4998979568481445
53	319.59806513786316	pulse	1	t		51.0	2.5	/experiments/AOT/AOT_stimuli/rescaled_final/1539_fw.mp4	0.0	351.24609899520874	
53	321.19843912124634	pulse	1	t		51.0	2.5	/experiments/AOT/AOT_stimuli/rescaled_final/1539_fw.mp4	0.0	352.8464729785919	
53	321.71502709388733	fix_post	2		12	51.0	2.5	/experiments/AOT/AOT_stimuli/rescaled_final/1539_fw.mp4	0.0	353.3630609512329	0.10003399848937988
54	321.8150610923767	fix_pre	0		119	52.0	2.5	/experiments/AOT/AOT_stimuli/rescaled_final/0284_rv.mp4	0.0	353.4630949497223	0.9916238784790039
54	322.7985129356384	pulse	0	t		52.0	2.5	/experiments/AOT/AOT_stimuli/rescaled_final/0284_rv.mp4	0.0	354.446546792984	
54	322.8066849708557	movie	1		244	52.0	2.5	/experiments/AOT/AOT_stimuli/rescaled_final/0284_rv.mp4	0.0	354.4547188282013	2.508303165435791
54	324.39836406707764	pulse	1	t		52.0	2.5	/experiments/AOT/AOT_stimuli/rescaled_final/0284_rv.mp4	0.0	356.0463979244232	
54	325.3149881362915	fix_post	2		12	52.0	2.5	/experiments/AOT/AOT_stimuli/rescaled_final/0284_rv.mp4	0.0	356.9630219936371	0.09991192817687988
55	325.4149000644684	fix_pre	0		120	53.0	2.5	/experiments/AOT/AOT_stimuli/rescaled_final/0373_fw.mp4	0.0	357.06293392181396	1.000072956085205
55	325.99842405319214	pulse	0	t		53.0	2.5	/experiments/AOT/AOT_stimuli/rescaled_final/0373_fw.mp4	0.0	357.6464579105377	
55	326.4149730205536	movie	1		244	53.0	2.5	/experiments/AOT/AOT_stimuli/rescaled_final/0373_fw.mp4	0.0	358.06300687789917	2.499985933303833
55	327.5985040664673	pulse	1	t		53.0	2.5	/experiments/AOT/AOT_stimuli/rescaled_final/0373_fw.mp4	0.0	359.24653792381287	
55	328.9149589538574	fix_post	2		12	53.0	2.5	/experiments/AOT/AOT_stimuli/rescaled_final/0373_fw.mp4	0.0	360.562992811203	0.10003519058227539
56	329.0149941444397	fix_pre	0		120	54.0	2.5	blank	1.0	360.6630280017853	0.9999690055847168
56	329.19843792915344	pulse	0	t		54.0	2.5	blank	1.0	360.846471786499	
56	330.0149631500244	movie	1		300	54.0	2.5	blank	1.0	361.66299700737	2.5
56	330.7986099720001	pulse	1	t		54.0	2.5	blank	1.0	362.4466438293457	
56	332.398313999176	pulse	1	t		54.0	2.5	blank	1.0	364.0463478565216	
56	332.5149631500244	fix_post	2		12	54.0	2.5	blank	1.0	364.16299700737	0.1000368595123291
57	332.61500000953674	fix_pre	0		120	55.0	2.5	/experiments/AOT/AOT_stimuli/rescaled_final/1095_rv.mp4	0.0	364.2630338668823	0.9999809265136719
57	333.6149809360504	movie	1		245	55.0	2.5	/experiments/AOT/AOT_stimuli/rescaled_final/1095_rv.mp4	0.0	365.263014793396	2.499969005584717
57	333.99887204170227	pulse	1	t		55.0	2.5	/experiments/AOT/AOT_stimuli/rescaled_final/1095_rv.mp4	0.0	365.64690589904785	
57	335.59839510917664	pulse	1	t		55.0	2.5	/experiments/AOT/AOT_stimuli/rescaled_final/1095_rv.mp4	0.0	367.2464289665222	
57	336.11494994163513	fix_post	2		12	55.0	2.5	/experiments/AOT/AOT_stimuli/rescaled_final/1095_rv.mp4	0.0	367.7629837989807	0.09991717338562012
58	336.21486711502075	fix_pre	0		119	56.0	2.5	/experiments/AOT/AOT_stimuli/rescaled_final/0280_fw.mp4	0.0	367.86290097236633	0.991710901260376
58	337.1984519958496	pulse	0	t		56.0	2.5	/experiments/AOT/AOT_stimuli/rescaled_final/0280_fw.mp4	0.0	368.8464858531952	
58	337.2065780162811	movie	1		245	56.0	2.5	/experiments/AOT/AOT_stimuli/rescaled_final/0280_fw.mp4	0.0	368.8546118736267	2.5083529949188232
58	338.7981309890747	pulse	1	t		56.0	2.5	/experiments/AOT/AOT_stimuli/rescaled_final/0280_fw.mp4	0.0	370.4461648464203	
58	339.71493101119995	fix_post	2		12	56.0	2.5	/experiments/AOT/AOT_stimuli/rescaled_final/0280_fw.mp4	0.0	371.36296486854553	0.0999751091003418
59	339.8149061203003	fix_pre	0		120	57.0	2.5	/experiments/AOT/AOT_stimuli/rescaled_final/1161_rv.mp4	0.0	371.4629399776459	1.0000178813934326
59	340.3984010219574	pulse	0	t		57.0	2.5	/experiments/AOT/AOT_stimuli/rescaled_final/1161_rv.mp4	0.0	372.046434879303	
59	340.8149240016937	movie	1		243	57.0	2.5	/experiments/AOT/AOT_stimuli/rescaled_final/1161_rv.mp4	0.0	372.4629578590393	2.5000250339508057
59	341.99857997894287	pulse	1	t		57.0	2.5	/experiments/AOT/AOT_stimuli/rescaled_final/1161_rv.mp4	0.0	373.64661383628845	
59	343.31494903564453	fix_post	2		12	57.0	2.5	/experiments/AOT/AOT_stimuli/rescaled_final/1161_rv.mp4	0.0	374.9629828929901	0.099945068359375
60	343.4148941040039	fix_pre	0		120	58.0	2.5	/experiments/AOT/AOT_stimuli/rescaled_final/0101_rv.mp4	0.0	375.0629279613495	1.0000369548797607
60	343.59833812713623	pulse	0	t		58.0	2.5	/experiments/AOT/AOT_stimuli/rescaled_final/0101_rv.mp4	0.0	375.2463719844818	
60	344.41493105888367	movie	1		246	58.0	2.5	/experiments/AOT/AOT_stimuli/rescaled_final/0101_rv.mp4	0.0	376.06296491622925	2.500032901763916
60	345.1978621482849	pulse	1	t		58.0	2.5	/experiments/AOT/AOT_stimuli/rescaled_final/0101_rv.mp4	0.0	376.8458960056305	
60	346.7961540222168	pulse	1	t		58.0	2.5	/experiments/AOT/AOT_stimuli/rescaled_final/0101_rv.mp4	0.0	378.4441878795624	
60	346.9149639606476	fix_post	2		12	58.0	2.5	/experiments/AOT/AOT_stimuli/rescaled_final/0101_rv.mp4	0.0	378.56299781799316	0.09967803955078125
61	347.01464200019836	fix_pre	0		120	59.0	2.5	/experiments/AOT/AOT_stimuli/rescaled_final/1539_fw.mp4	0.0	378.66267585754395	1.000072956085205
61	348.01471495628357	movie	1		243	59.0	2.5	/experiments/AOT/AOT_stimuli/rescaled_final/1539_fw.mp4	0.0	379.66274881362915	2.5001959800720215
61	348.397824048996	pulse	1	t		59.0	2.5	/experiments/AOT/AOT_stimuli/rescaled_final/1539_fw.mp4	0.0	380.04585790634155	
61	349.998281955719	pulse	1	t		59.0	2.5	/experiments/AOT/AOT_stimuli/rescaled_final/1539_fw.mp4	0.0	381.6463158130646	
61	350.5149109363556	fix_post	2		12	59.0	2.5	/experiments/AOT/AOT_stimuli/rescaled_final/1539_fw.mp4	0.0	382.1629447937012	0.09997010231018066
62	350.61488103866577	fix_pre	0		119	60.0	2.5	/experiments/AOT/AOT_stimuli/rescaled_final/1287_fw.mp4	0.0	382.26291489601135	0.9916229248046875
62	351.59839510917664	pulse	0	t		60.0	2.5	/experiments/AOT/AOT_stimuli/rescaled_final/1287_fw.mp4	0.0	383.2464289665222	
62	351.60650396347046	movie	1		247	60.0	2.5	/experiments/AOT/AOT_stimuli/rescaled_final/1287_fw.mp4	0.0	383.25453782081604	2.5084049701690674
62	353.1978180408478	pulse	1	t		60.0	2.5	/experiments/AOT/AOT_stimuli/rescaled_final/1287_fw.mp4	0.0	384.84585189819336	
62	354.1149089336395	fix_post	2		12	60.0	2.5	/experiments/AOT/AOT_stimuli/rescaled_final/1287_fw.mp4	0.0	385.7629427909851	0.09992599487304688
63	354.2148349285126	fix_pre	0		120	61.0	2.5	/experiments/AOT/AOT_stimuli/rescaled_final/1150_rv.mp4	0.0	385.86286878585815	1.0000500679016113
63	354.7982590198517	pulse	0	t		61.0	2.5	/experiments/AOT/AOT_stimuli/rescaled_final/1150_rv.mp4	0.0	386.44629287719727	
63	355.2148849964142	movie	1		246	61.0	2.5	/experiments/AOT/AOT_stimuli/rescaled_final/1150_rv.mp4	0.0	386.86291885375977	2.499979019165039
63	356.3983681201935	pulse	1	t		61.0	2.5	/experiments/AOT/AOT_stimuli/rescaled_final/1150_rv.mp4	0.0	388.04640197753906	
63	357.7148640155792	fix_post	2		12	61.0	2.5	/experiments/AOT/AOT_stimuli/rescaled_final/1150_rv.mp4	0.0	389.3628978729248	0.09998297691345215
64	357.8148469924927	fix_pre	0		120	62.0	2.5	/experiments/AOT/AOT_stimuli/rescaled_final/1421_fw.mp4	0.0	389.46288084983826	0.9999489784240723
64	357.99831199645996	pulse	0	t		62.0	2.5	/experiments/AOT/AOT_stimuli/rescaled_final/1421_fw.mp4	0.0	389.64634585380554	
64	358.81479597091675	movie	1		245	62.0	2.5	/experiments/AOT/AOT_stimuli/rescaled_final/1421_fw.mp4	0.0	390.46282982826233	2.500056028366089
64	359.59823513031006	pulse	1	t		62.0	2.5	/experiments/AOT/AOT_stimuli/rescaled_final/1421_fw.mp4	0.0	391.24626898765564	
64	361.19673705101013	pulse	1	t		62.0	2.5	/experiments/AOT/AOT_stimuli/rescaled_final/1421_fw.mp4	0.0	392.8447709083557	
64	361.31485199928284	fix_post	2		12	62.0	2.5	/experiments/AOT/AOT_stimuli/rescaled_final/1421_fw.mp4	0.0	392.9628858566284	0.099945068359375
65	361.4147970676422	fix_pre	0		120	63.0	2.5	blank	1.0	393.0628309249878	1.0000419616699219
65	362.41483902931213	movie	1		300	63.0	2.5	blank	1.0	394.0628728866577	2.4999730587005615
65	362.79828214645386	pulse	1	t		63.0	2.5	blank	1.0	394.44631600379944	
65	364.3982951641083	pulse	1	t		63.0	2.5	blank	1.0	396.04632902145386	
65	364.9148120880127	fix_post	2		12	63.0	2.5	blank	1.0	396.5628459453583	0.0996098518371582
66	365.01442193984985	fix_pre	0		119	64.0	2.5	/experiments/AOT/AOT_stimuli/rescaled_final/0003_fw.mp4	0.0	396.66245579719543	0.9919571876525879
66	365.9982991218567	pulse	0	t		64.0	2.5	/experiments/AOT/AOT_stimuli/rescaled_final/0003_fw.mp4	0.0	397.64633297920227	
66	366.00637912750244	movie	1		245	64.0	2.5	/experiments/AOT/AOT_stimuli/rescaled_final/0003_fw.mp4	0.0	397.654412984848	2.508462905883789
66	367.59815096855164	pulse	1	t		64.0	2.5	/experiments/AOT/AOT_stimuli/rescaled_final/0003_fw.mp4	0.0	399.2461848258972	
66	368.51484203338623	fix_post	2		12	64.0	2.5	/experiments/AOT/AOT_stimuli/rescaled_final/0003_fw.mp4	0.0	400.1628758907318	0.0998830795288086
67	368.61472511291504	fix_pre	0		120	65.0	2.5	/experiments/AOT/AOT_stimuli/rescaled_final/0744_fw.mp4	0.0	400.2627589702606	1.0000829696655273
67	369.1981780529022	pulse	0	t		65.0	2.5	/experiments/AOT/AOT_stimuli/rescaled_final/0744_fw.mp4	0.0	400.8462119102478	
67	369.61480808258057	movie	1		243	65.0	2.5	/experiments/AOT/AOT_stimuli/rescaled_final/0744_fw.mp4	0.0	401.26284193992615	2.4999959468841553
67	370.7982759475708	pulse	1	t		65.0	2.5	/experiments/AOT/AOT_stimuli/rescaled_final/0744_fw.mp4	0.0	402.4463098049164	
67	372.1148040294647	fix_post	2		12	65.0	2.5	/experiments/AOT/AOT_stimuli/rescaled_final/0744_fw.mp4	0.0	403.7628378868103	0.09995698928833008
68	372.21476101875305	fix_pre	0		120	66.0	2.5	/experiments/AOT/AOT_stimuli/rescaled_final/0191_fw.mp4	0.0	403.86279487609863	1.0000839233398438
68	372.39823508262634	pulse	0	t		66.0	2.5	/experiments/AOT/AOT_stimuli/rescaled_final/0191_fw.mp4	0.0	404.0462689399719	
68	373.2148449420929	movie	1		247	66.0	2.5	/experiments/AOT/AOT_stimuli/rescaled_final/0191_fw.mp4	0.0	404.8628787994385	2.499460220336914
68	373.9982340335846	pulse	1	t		66.0	2.5	/experiments/AOT/AOT_stimuli/rescaled_final/0191_fw.mp4	0.0	405.6462678909302	
68	375.5981800556183	pulse	1	t		66.0	2.5	/experiments/AOT/AOT_stimuli/rescaled_final/0191_fw.mp4	0.0	407.24621391296387	
68	375.7143051624298	fix_post	2		12	66.0	2.5	/experiments/AOT/AOT_stimuli/rescaled_final/0191_fw.mp4	0.0	407.3623390197754	0.10038280487060547
69	375.8146879673004	fix_pre	0		120	67.0	2.5	/experiments/AOT/AOT_stimuli/rescaled_final/0609_fw.mp4	0.0	407.462721824646	0.9997501373291016
69	376.8144381046295	movie	1		247	67.0	2.5	/experiments/AOT/AOT_stimuli/rescaled_final/0609_fw.mp4	0.0	408.4624719619751	2.500269889831543
69	377.19819593429565	pulse	1	t		67.0	2.5	/experiments/AOT/AOT_stimuli/rescaled_final/0609_fw.mp4	0.0	408.84622979164124	
69	378.7982289791107	pulse	1	t		67.0	2.5	/experiments/AOT/AOT_stimuli/rescaled_final/0609_fw.mp4	0.0	410.4462628364563	
69	379.31470799446106	fix_post	2		12	67.0	2.5	/experiments/AOT/AOT_stimuli/rescaled_final/0609_fw.mp4	0.0	410.96274185180664	0.09992098808288574
70	379.41462898254395	fix_pre	0		119	68.0	2.5	blank	1.0	411.0626628398895	0.9917869567871094
70	380.3983750343323	pulse	0	t		68.0	2.5	blank	1.0	412.04640889167786	
70	380.40641593933105	movie	1		301	68.0	2.5	blank	1.0	412.05444979667664	2.508254051208496
70	381.9981701374054	pulse	1	t		68.0	2.5	blank	1.0	413.646203994751	
70	382.91466999053955	fix_post	2		12	68.0	2.5	blank	1.0	414.56270384788513	0.10003399848937988
71	383.01470398902893	fix_pre	0		120	69.0	2.5	/experiments/AOT/AOT_stimuli/rescaled_final/1821_rv.mp4	0.0	414.6627378463745	0.999549150466919
71	383.5981900691986	pulse	0	t		69.0	2.5	/experiments/AOT/AOT_stimuli/rescaled_final/1821_rv.mp4	0.0	415.2462239265442	
71	384.01425313949585	movie	1		246	69.0	2.5	/experiments/AOT/AOT_stimuli/rescaled_final/1821_rv.mp4	0.0	415.66228699684143	2.500438928604126
71	385.19827008247375	pulse	1	t		69.0	2.5	/experiments/AOT/AOT_stimuli/rescaled_final/1821_rv.mp4	0.0	416.84630393981934	
71	386.5146920681	fix_post	2		12	69.0	2.5	/experiments/AOT/AOT_stimuli/rescaled_final/1821_rv.mp4	0.0	418.16272592544556	0.10009503364562988
72	386.6147871017456	fix_pre	0		120	70.0	2.5	/experiments/AOT/AOT_stimuli/rescaled_final/2098_fw.mp4	0.0	418.2628209590912	0.9999759197235107
72	386.7981929779053	pulse	0	t		70.0	2.5	/experiments/AOT/AOT_stimuli/rescaled_final/2098_fw.mp4	0.0	418.44622683525085	
72	387.6147630214691	movie	1		246	70.0	2.5	/experiments/AOT/AOT_stimuli/rescaled_final/2098_fw.mp4	0.0	419.2627968788147	2.4999430179595947
72	388.3981120586395	pulse	1	t		70.0	2.5	/experiments/AOT/AOT_stimuli/rescaled_final/2098_fw.mp4	0.0	420.0461459159851	
72	389.99814105033875	pulse	1	t		70.0	2.5	/experiments/AOT/AOT_stimuli/rescaled_final/2098_fw.mp4	0.0	421.6461749076843	
72	390.1147060394287	fix_post	2		12	70.0	2.5	/experiments/AOT/AOT_stimuli/rescaled_final/2098_fw.mp4	0.0	421.7627398967743	0.09995007514953613
73	390.21465611457825	fix_pre	0		120	71.0	2.5	/experiments/AOT/AOT_stimuli/rescaled_final/0594_fw.mp4	0.0	421.8626899719238	1.0001029968261719
73	391.2147591114044	movie	1		242	71.0	2.5	/experiments/AOT/AOT_stimuli/rescaled_final/0594_fw.mp4	0.0	422.86279296875	2.4999358654022217
73	391.59774708747864	pulse	1	t		71.0	2.5	/experiments/AOT/AOT_stimuli/rescaled_final/0594_fw.mp4	0.0	423.2457809448242	
73	393.1981689929962	pulse	1	t		71.0	2.5	/experiments/AOT/AOT_stimuli/rescaled_final/0594_fw.mp4	0.0	424.8462028503418	
73	393.71469497680664	fix_post	2		12	71.0	2.5	/experiments/AOT/AOT_stimuli/rescaled_final/0594_fw.mp4	0.0	425.3627288341522	0.09998607635498047
74	393.8146810531616	fix_pre	0		119	72.0	2.5	/experiments/AOT/AOT_stimuli/rescaled_final/1755_fw.mp4	0.0	425.4627149105072	0.9916400909423828
74	394.79820704460144	pulse	0	t		72.0	2.5	/experiments/AOT/AOT_stimuli/rescaled_final/1755_fw.mp4	0.0	426.446240901947	
74	394.806321144104	movie	1		244	72.0	2.5	/experiments/AOT/AOT_stimuli/rescaled_final/1755_fw.mp4	0.0	426.4543550014496	2.508370876312256
74	396.3980550765991	pulse	1	t		72.0	2.5	/experiments/AOT/AOT_stimuli/rescaled_final/1755_fw.mp4	0.0	428.0460889339447	
74	397.31469202041626	fix_post	2		12	72.0	2.5	/experiments/AOT/AOT_stimuli/rescaled_final/1755_fw.mp4	0.0	428.96272587776184	0.1000211238861084
75	397.41471314430237	fix_pre	0		120	73.0	2.5	/experiments/AOT/AOT_stimuli/rescaled_final/1538_fw.mp4	0.0	429.06274700164795	0.9999639987945557
75	397.998074054718	pulse	0	t		73.0	2.5	/experiments/AOT/AOT_stimuli/rescaled_final/1538_fw.mp4	0.0	429.6461079120636	
75	398.4146771430969	movie	1		244	73.0	2.5	/experiments/AOT/AOT_stimuli/rescaled_final/1538_fw.mp4	0.0	430.0627110004425	2.499567985534668
75	399.5980820655823	pulse	1	t		73.0	2.5	/experiments/AOT/AOT_stimuli/rescaled_final/1538_fw.mp4	0.0	431.24611592292786	
75	400.9142451286316	fix_post	2		12	73.0	2.5	/experiments/AOT/AOT_stimuli/rescaled_final/1538_fw.mp4	0.0	432.5622789859772	0.10042285919189453
76	401.0146679878235	fix_pre	0		120	74.0	2.5	/experiments/AOT/AOT_stimuli/rescaled_final/1537_rv.mp4	0.0	432.66270184516907	0.9995319843292236
76	401.19807600975037	pulse	0	t		74.0	2.5	/experiments/AOT/AOT_stimuli/rescaled_final/1537_rv.mp4	0.0	432.84610986709595	
76	402.0141999721527	movie	1		244	74.0	2.5	/experiments/AOT/AOT_stimuli/rescaled_final/1537_rv.mp4	0.0	433.6622338294983	2.5003859996795654
76	402.79770612716675	pulse	1	t		74.0	2.5	/experiments/AOT/AOT_stimuli/rescaled_final/1537_rv.mp4	0.0	434.44573998451233	
76	404.39628314971924	pulse	1	t		74.0	2.5	/experiments/AOT/AOT_stimuli/rescaled_final/1537_rv.mp4	0.0	436.0443170070648	
76	404.5145859718323	fix_post	2		12	74.0	2.5	/experiments/AOT/AOT_stimuli/rescaled_final/1537_rv.mp4	0.0	436.16261982917786	0.10037398338317871
77	404.61495995521545	fix_pre	0		120	75.0	2.5	/experiments/AOT/AOT_stimuli/rescaled_final/0611_rv.mp4	0.0	436.26299381256104	0.9997820854187012
77	405.61474204063416	movie	1		244	75.0	2.5	/experiments/AOT/AOT_stimuli/rescaled_final/0611_rv.mp4	0.0	437.26277589797974	2.499795913696289
77	405.99748516082764	pulse	1	t		75.0	2.5	/experiments/AOT/AOT_stimuli/rescaled_final/0611_rv.mp4	0.0	437.6455190181732	
77	407.598051071167	pulse	1	t		75.0	2.5	/experiments/AOT/AOT_stimuli/rescaled_final/0611_rv.mp4	0.0	439.2460849285126	
77	408.11453795433044	fix_post	2		12	75.0	2.5	/experiments/AOT/AOT_stimuli/rescaled_final/0611_rv.mp4	0.0	439.762571811676	0.10007500648498535
78	408.21461296081543	fix_pre	0		119	76.0	2.5	blank	1.0	439.862646818161	0.9917399883270264
78	409.1981110572815	pulse	0	t		76.0	2.5	blank	1.0	440.8461449146271	
78	409.20635294914246	movie	1		301	76.0	2.5	blank	1.0	440.85438680648804	2.5082590579986572
78	410.79807305336	pulse	1	t		76.0	2.5	blank	1.0	442.44610691070557	
78	411.7146120071411	fix_post	2		12	76.0	2.5	blank	1.0	443.3626458644867	0.09994006156921387
79	411.8145520687103	fix_pre	0		120	77.0	2.5	/experiments/AOT/AOT_stimuli/rescaled_final/0058_fw.mp4	0.0	443.4625859260559	1.000108003616333
79	412.3980360031128	pulse	0	t		77.0	2.5	/experiments/AOT/AOT_stimuli/rescaled_final/0058_fw.mp4	0.0	444.0460698604584	
79	412.81466007232666	movie	1		246	77.0	2.5	/experiments/AOT/AOT_stimuli/rescaled_final/0058_fw.mp4	0.0	444.46269392967224	2.4999148845672607
79	413.99809408187866	pulse	1	t		77.0	2.5	/experiments/AOT/AOT_stimuli/rescaled_final/0058_fw.mp4	0.0	445.64612793922424	
79	415.3145749568939	fix_post	2		12	77.0	2.5	/experiments/AOT/AOT_stimuli/rescaled_final/0058_fw.mp4	0.0	446.9626088142395	0.09998917579650879
80	415.41456413269043	fix_pre	0		120	78.0	2.5	/experiments/AOT/AOT_stimuli/rescaled_final/0794_fw.mp4	0.0	447.062597990036	1.0001018047332764
80	415.59799003601074	pulse	0	t		78.0	2.5	/experiments/AOT/AOT_stimuli/rescaled_final/0794_fw.mp4	0.0	447.2460238933563	
80	416.4146659374237	movie	1		248	78.0	2.5	/experiments/AOT/AOT_stimuli/rescaled_final/0794_fw.mp4	0.0	448.0626997947693	2.4995009899139404
80	417.1979911327362	pulse	1	t		78.0	2.5	/experiments/AOT/AOT_stimuli/rescaled_final/0794_fw.mp4	0.0	448.8460249900818	
80	418.79402804374695	pulse	1	t		78.0	2.5	/experiments/AOT/AOT_stimuli/rescaled_final/0794_fw.mp4	0.0	450.44206190109253	
80	418.91416692733765	fix_post	2		12	78.0	2.5	/experiments/AOT/AOT_stimuli/rescaled_final/0794_fw.mp4	0.0	450.5622007846832	0.1004021167755127
81	419.01456904411316	fix_pre	0		120	79.0	2.5	/experiments/AOT/AOT_stimuli/rescaled_final/1211_fw.mp4	0.0	450.66260290145874	1.0000240802764893
81	420.01459312438965	movie	1		246	79.0	2.5	/experiments/AOT/AOT_stimuli/rescaled_final/1211_fw.mp4	0.0	451.66262698173523	2.5000228881835938
81	420.39758706092834	pulse	1	t		79.0	2.5	/experiments/AOT/AOT_stimuli/rescaled_final/1211_fw.mp4	0.0	452.0456209182739	
81	421.99798703193665	pulse	1	t		79.0	2.5	/experiments/AOT/AOT_stimuli/rescaled_final/1211_fw.mp4	0.0	453.6460208892822	
81	422.51461601257324	fix_post	2		12	79.0	2.5	/experiments/AOT/AOT_stimuli/rescaled_final/1211_fw.mp4	0.0	454.1626498699188	0.09986400604248047
82	422.6144800186157	fix_pre	0		119	80.0	2.5	/experiments/AOT/AOT_stimuli/rescaled_final/0681_fw.mp4	0.0	454.2625138759613	0.9916589260101318
82	423.598021030426	pulse	0	t		80.0	2.5	/experiments/AOT/AOT_stimuli/rescaled_final/0681_fw.mp4	0.0	455.2460548877716	
82	423.60613894462585	movie	1		246	80.0	2.5	/experiments/AOT/AOT_stimuli/rescaled_final/0681_fw.mp4	0.0	455.25417280197144	2.507984161376953
82	425.19780015945435	pulse	1	t		80.0	2.5	/experiments/AOT/AOT_stimuli/rescaled_final/0681_fw.mp4	0.0	456.8458340167999	
82	426.1141231060028	fix_post	2		12	80.0	2.5	/experiments/AOT/AOT_stimuli/rescaled_final/0681_fw.mp4	0.0	457.7621569633484	0.10045504570007324
83	426.2145781517029	fix_pre	0		120	81.0	2.5	/experiments/AOT/AOT_stimuli/rescaled_final/0532_fw.mp4	0.0	457.86261200904846	0.9999499320983887
83	426.7979769706726	pulse	0	t		81.0	2.5	/experiments/AOT/AOT_stimuli/rescaled_final/0532_fw.mp4	0.0	458.4460108280182	
83	427.21452808380127	movie	1		246	81.0	2.5	/experiments/AOT/AOT_stimuli/rescaled_final/0532_fw.mp4	0.0	458.86256194114685	2.499953031539917
83	428.3980770111084	pulse	1	t		81.0	2.5	/experiments/AOT/AOT_stimuli/rescaled_final/0532_fw.mp4	0.0	460.046110868454	
83	429.7144811153412	fix_post	2		12	81.0	2.5	/experiments/AOT/AOT_stimuli/rescaled_final/0532_fw.mp4	0.0	461.36251497268677	0.1000058650970459
84	429.81448698043823	fix_pre	0		120	82.0	2.5	/experiments/AOT/AOT_stimuli/rescaled_final/0284_rv.mp4	0.0	461.4625208377838	1.0000040531158447
84	429.9980671405792	pulse	0	t		82.0	2.5	/experiments/AOT/AOT_stimuli/rescaled_final/0284_rv.mp4	0.0	461.6461009979248	
84	430.8144910335541	movie	1		243	82.0	2.5	/experiments/AOT/AOT_stimuli/rescaled_final/0284_rv.mp4	0.0	462.46252489089966	2.4999730587005615
84	431.59792304039	pulse	1	t		82.0	2.5	/experiments/AOT/AOT_stimuli/rescaled_final/0284_rv.mp4	0.0	463.2459568977356	
84	433.19655895233154	pulse	1	t		82.0	2.5	/experiments/AOT/AOT_stimuli/rescaled_final/0284_rv.mp4	0.0	464.8445928096771	
84	433.31446409225464	fix_post	2		12	82.0	2.5	/experiments/AOT/AOT_stimuli/rescaled_final/0284_rv.mp4	0.0	464.9624979496002	0.10002803802490234
85	433.41449213027954	fix_pre	0		120	83.0	2.5	blank	1.0	465.0625259876251	1.0001919269561768
85	434.4146840572357	movie	1		300	83.0	2.5	blank	1.0	466.0627179145813	2.4997589588165283
85	434.79795813560486	pulse	1	t		83.0	2.5	blank	1.0	466.44599199295044	
85	436.3979060649872	pulse	1	t		83.0	2.5	blank	1.0	468.04593992233276	
85	436.91444301605225	fix_post	2		12	83.0	2.5	blank	1.0	468.5624768733978	0.10000109672546387
87	437.0144441127777	stim	0		1716					468.6624779701233	14.300035953521729
87	437.99793004989624	pulse	0	t						469.6459639072418	
87	439.59791898727417	pulse	0	t						471.24595284461975	
87	441.19790601730347	pulse	0	t						472.84593987464905	
87	442.79805397987366	pulse	0	t						474.44608783721924	
87	444.3978371620178	pulse	0	t						476.0458710193634	
87	445.9978361129761	pulse	0	t						477.64586997032166	
87	447.5979290008545	pulse	0	t						479.2459628582001	
87	449.19783306121826	pulse	0	t						480.84586691856384	
87	450.7978711128235	pulse	0	t						482.44590497016907	
