trial_nr	onset	event_type	phase	response	nr_frames	movie_index	movie_duration	movie_file	blank	onset_abs	duration
0	0.16665315628051758	stim	0		1					17.04482364654541	0.008226633071899414
0	0.12678790092468262	response	0	space						17.004958391189575	
1	0.174879789352417	stim	0		4734					17.05305027961731	39.46648550033569
1	39.631956815719604	pulse	0	t						56.5101273059845	
1	39.64136528968811	stim	1		1716					56.519535779953	14.308250665664673
1	41.2154757976532	pulse	1	t						58.09364628791809	
1	42.81527805328369	pulse	1	t						59.693448543548584	
1	44.4151554107666	pulse	1	t						61.293325901031494	
1	46.015390157699585	pulse	1	t						62.89356064796448	
1	47.61566114425659	pulse	1	t						64.49383163452148	
1	49.21576285362244	pulse	1	t						66.09393334388733	
1	50.816112756729126	pulse	1	t						67.69428324699402	
1	52.416362285614014	pulse	1	t						69.2945327758789	
2	53.94961595535278	fix_pre	0		9	0.0	2.5	/experiments/Knapen_AOT/AOT_stimuli/rescaled_final/0307_rv.mp4	0.0	70.82778644561768	0.09172391891479492
2	54.01651048660278	pulse	0	t		0.0	2.5	/experiments/Knapen_AOT/AOT_stimuli/rescaled_final/0307_rv.mp4	0.0	70.89468097686768	
2	54.04133987426758	movie	1		278	0.0	2.5	/experiments/Knapen_AOT/AOT_stimuli/rescaled_final/0307_rv.mp4	0.0	70.91951036453247	2.4920055866241455
2	55.61573529243469	pulse	1	t		0.0	2.5	/experiments/Knapen_AOT/AOT_stimuli/rescaled_final/0307_rv.mp4	0.0	72.49390578269958	
2	56.533345460891724	fix_post	2		12	0.0	2.5	/experiments/Knapen_AOT/AOT_stimuli/rescaled_final/0307_rv.mp4	0.0	73.41151595115662	0.10001277923583984
3	56.63335824012756	fix_pre	0		120	1.0	2.5	/experiments/Knapen_AOT/AOT_stimuli/rescaled_final/0184_fw.mp4	0.0	73.51152873039246	1.0085399150848389
3	57.217013359069824	pulse	0	t		1.0	2.5	/experiments/Knapen_AOT/AOT_stimuli/rescaled_final/0184_fw.mp4	0.0	74.09518384933472	
3	57.6418981552124	movie	1		282	1.0	2.5	/experiments/Knapen_AOT/AOT_stimuli/rescaled_final/0184_fw.mp4	0.0	74.5200686454773	2.4919862747192383
3	58.81553864479065	pulse	1	t		1.0	2.5	/experiments/Knapen_AOT/AOT_stimuli/rescaled_final/0184_fw.mp4	0.0	75.69370913505554	
3	60.13388442993164	fix_post	2		12	1.0	2.5	/experiments/Knapen_AOT/AOT_stimuli/rescaled_final/0184_fw.mp4	0.0	77.01205492019653	0.10009908676147461
4	60.233983516693115	fix_pre	0		120	2.0	2.5	/experiments/Knapen_AOT/AOT_stimuli/rescaled_final/1528_rv.mp4	0.0	77.11215400695801	1.0084295272827148
4	60.41753554344177	pulse	0	t		2.0	2.5	/experiments/Knapen_AOT/AOT_stimuli/rescaled_final/1528_rv.mp4	0.0	77.29570603370667	
4	61.24241304397583	movie	1		283	2.0	2.5	/experiments/Knapen_AOT/AOT_stimuli/rescaled_final/1528_rv.mp4	0.0	78.12058353424072	2.4920570850372314
4	62.01552772521973	pulse	1	t		2.0	2.5	/experiments/Knapen_AOT/AOT_stimuli/rescaled_final/1528_rv.mp4	0.0	78.89369821548462	
4	63.61630320549011	pulse	1	t		2.0	2.5	/experiments/Knapen_AOT/AOT_stimuli/rescaled_final/1528_rv.mp4	0.0	80.494473695755	
4	63.73447012901306	fix_post	2		12	2.0	2.5	/experiments/Knapen_AOT/AOT_stimuli/rescaled_final/1528_rv.mp4	0.0	80.61264061927795	0.10000061988830566
5	63.83447074890137	fix_pre	0		120	3.0	2.5	/experiments/Knapen_AOT/AOT_stimuli/rescaled_final/0983_rv.mp4	0.0	80.71264123916626	1.0086324214935303
5	64.8431031703949	movie	1		290	3.0	2.5	/experiments/Knapen_AOT/AOT_stimuli/rescaled_final/0983_rv.mp4	0.0	81.72127366065979	2.491867780685425
5	65.2169976234436	pulse	1	t		3.0	2.5	/experiments/Knapen_AOT/AOT_stimuli/rescaled_final/0983_rv.mp4	0.0	82.0951681137085	
5	66.81642198562622	pulse	1	t		3.0	2.5	/experiments/Knapen_AOT/AOT_stimuli/rescaled_final/0983_rv.mp4	0.0	83.69459247589111	
5	67.33497095108032	fix_post	2		12	3.0	2.5	/experiments/Knapen_AOT/AOT_stimuli/rescaled_final/0983_rv.mp4	0.0	84.21314144134521	0.10002017021179199
6	67.43499112129211	fix_pre	0		119	4.0	2.5	/experiments/Knapen_AOT/AOT_stimuli/rescaled_final/1260_fw.mp4	0.0	84.313161611557	1.0001347064971924
6	68.41865658760071	pulse	0	t		4.0	2.5	/experiments/Knapen_AOT/AOT_stimuli/rescaled_final/1260_fw.mp4	0.0	85.2968270778656	
6	68.4351258277893	movie	1		284	4.0	2.5	/experiments/Knapen_AOT/AOT_stimuli/rescaled_final/1260_fw.mp4	0.0	85.3132963180542	2.5087339878082275
6	70.01894235610962	pulse	1	t		4.0	2.5	/experiments/Knapen_AOT/AOT_stimuli/rescaled_final/1260_fw.mp4	0.0	86.89711284637451	
6	70.94385981559753	fix_post	2		11	4.0	2.5	/experiments/Knapen_AOT/AOT_stimuli/rescaled_final/1260_fw.mp4	0.0	87.82203030586243	0.0916910171508789
7	71.03555083274841	fix_pre	0		120	5.0	2.5	/experiments/Knapen_AOT/AOT_stimuli/rescaled_final/0947_fw.mp4	0.0	87.9137213230133	1.008528232574463
7	71.61917638778687	pulse	0	t		5.0	2.5	/experiments/Knapen_AOT/AOT_stimuli/rescaled_final/0947_fw.mp4	0.0	88.49734687805176	
7	72.04407906532288	movie	1		274	5.0	2.5	/experiments/Knapen_AOT/AOT_stimuli/rescaled_final/0947_fw.mp4	0.0	88.92224955558777	2.4919986724853516
7	73.21947574615479	pulse	1	t		5.0	2.5	/experiments/Knapen_AOT/AOT_stimuli/rescaled_final/0947_fw.mp4	0.0	90.09764623641968	
7	74.53607773780823	fix_post	2		12	5.0	2.5	/experiments/Knapen_AOT/AOT_stimuli/rescaled_final/0947_fw.mp4	0.0	91.41424822807312	0.10000729560852051
8	74.63608503341675	fix_pre	0		120	6.0	2.5	blank	1.0	91.51425552368164	1.0001225471496582
8	74.81962132453918	pulse	0	t		6.0	2.5	blank	1.0	91.69779181480408	
8	75.6362075805664	movie	1		300	6.0	2.5	blank	1.0	92.5143780708313	2.500399589538574
8	76.41990780830383	pulse	1	t		6.0	2.5	blank	1.0	93.29807829856873	
8	78.02007961273193	pulse	1	t		6.0	2.5	blank	1.0	94.89825010299683	
8	78.13660717010498	fix_post	2		12	6.0	2.5	blank	1.0	95.01477766036987	0.09999775886535645
9	78.23660492897034	fix_pre	0		120	7.0	2.5	/experiments/Knapen_AOT/AOT_stimuli/rescaled_final/0789_rv.mp4	0.0	95.11477541923523	1.008516788482666
9	79.245121717453	movie	1		289	7.0	2.5	/experiments/Knapen_AOT/AOT_stimuli/rescaled_final/0789_rv.mp4	0.0	96.1232922077179	2.49218487739563
9	79.61864256858826	pulse	1	t		7.0	2.5	/experiments/Knapen_AOT/AOT_stimuli/rescaled_final/0789_rv.mp4	0.0	96.49681305885315	
9	81.21838474273682	pulse	1	t		7.0	2.5	/experiments/Knapen_AOT/AOT_stimuli/rescaled_final/0789_rv.mp4	0.0	98.09655523300171	
9	81.73730659484863	fix_post	2		12	7.0	2.5	/experiments/Knapen_AOT/AOT_stimuli/rescaled_final/0789_rv.mp4	0.0	98.61547708511353	0.0998375415802002
10	81.83714413642883	fix_pre	0		119	8.0	2.5	/experiments/Knapen_AOT/AOT_stimuli/rescaled_final/1369_rv.mp4	0.0	98.71531462669373	1.0001487731933594
10	82.8208258152008	pulse	0	t		8.0	2.5	/experiments/Knapen_AOT/AOT_stimuli/rescaled_final/1369_rv.mp4	0.0	99.6989963054657	
10	82.83729290962219	movie	1		283	8.0	2.5	/experiments/Knapen_AOT/AOT_stimuli/rescaled_final/1369_rv.mp4	0.0	99.71546339988708	2.5004568099975586
10	84.42079710960388	pulse	1	t		8.0	2.5	/experiments/Knapen_AOT/AOT_stimuli/rescaled_final/1369_rv.mp4	0.0	101.29896759986877	
10	85.33774971961975	fix_post	2		12	8.0	2.5	/experiments/Knapen_AOT/AOT_stimuli/rescaled_final/1369_rv.mp4	0.0	102.21592020988464	0.0999605655670166
11	85.43771028518677	fix_pre	0		120	9.0	2.5	/experiments/Knapen_AOT/AOT_stimuli/rescaled_final/1578_fw.mp4	0.0	102.31588077545166	1.0084705352783203
11	86.02173519134521	pulse	0	t		9.0	2.5	/experiments/Knapen_AOT/AOT_stimuli/rescaled_final/1578_fw.mp4	0.0	102.89990568161011	
11	86.44618082046509	movie	1		291	9.0	2.5	/experiments/Knapen_AOT/AOT_stimuli/rescaled_final/1578_fw.mp4	0.0	103.32435131072998	2.492086172103882
11	87.61950135231018	pulse	1	t		9.0	2.5	/experiments/Knapen_AOT/AOT_stimuli/rescaled_final/1578_fw.mp4	0.0	104.49767184257507	
11	88.93826699256897	fix_post	2		12	9.0	2.5	/experiments/Knapen_AOT/AOT_stimuli/rescaled_final/1578_fw.mp4	0.0	105.81643748283386	0.10002350807189941
12	89.03829050064087	fix_pre	0		120	10.0	2.5	/experiments/Knapen_AOT/AOT_stimuli/rescaled_final/1667_fw.mp4	0.0	105.91646099090576	1.0084378719329834
12	89.22173404693604	pulse	0	t		10.0	2.5	/experiments/Knapen_AOT/AOT_stimuli/rescaled_final/1667_fw.mp4	0.0	106.09990453720093	
12	90.04672837257385	movie	1		276	10.0	2.5	/experiments/Knapen_AOT/AOT_stimuli/rescaled_final/1667_fw.mp4	0.0	106.92489886283875	2.4921374320983887
12	90.82211780548096	pulse	1	t		10.0	2.5	/experiments/Knapen_AOT/AOT_stimuli/rescaled_final/1667_fw.mp4	0.0	107.70028829574585	
12	92.42069435119629	pulse	1	t		10.0	2.5	/experiments/Knapen_AOT/AOT_stimuli/rescaled_final/1667_fw.mp4	0.0	109.29886484146118	
12	92.53886580467224	fix_post	2		12	10.0	2.5	/experiments/Knapen_AOT/AOT_stimuli/rescaled_final/1667_fw.mp4	0.0	109.41703629493713	0.09990596771240234
13	92.63877177238464	fix_pre	0		120	11.0	2.5	/experiments/Knapen_AOT/AOT_stimuli/rescaled_final/1989_fw.mp4	0.0	109.51694226264954	1.0085318088531494
13	93.6473035812378	movie	1		286	11.0	2.5	/experiments/Knapen_AOT/AOT_stimuli/rescaled_final/1989_fw.mp4	0.0	110.52547407150269	2.492063045501709
13	94.02111101150513	pulse	1	t		11.0	2.5	/experiments/Knapen_AOT/AOT_stimuli/rescaled_final/1989_fw.mp4	0.0	110.89928150177002	
13	95.62118101119995	pulse	1	t		11.0	2.5	/experiments/Knapen_AOT/AOT_stimuli/rescaled_final/1989_fw.mp4	0.0	112.49935150146484	
13	96.1393666267395	fix_post	2		12	11.0	2.5	/experiments/Knapen_AOT/AOT_stimuli/rescaled_final/1989_fw.mp4	0.0	113.0175371170044	0.09996414184570312
14	96.2393307685852	fix_pre	0		119	12.0	2.5	/experiments/Knapen_AOT/AOT_stimuli/rescaled_final/0300_rv.mp4	0.0	113.1175012588501	1.0001745223999023
14	97.21533226966858	pulse	0	t		12.0	2.5	/experiments/Knapen_AOT/AOT_stimuli/rescaled_final/0300_rv.mp4	0.0	114.09350275993347	
14	97.23950529098511	movie	1		272	12.0	2.5	/experiments/Knapen_AOT/AOT_stimuli/rescaled_final/0300_rv.mp4	0.0	114.11767578125	2.5003695487976074
14	98.82163834571838	pulse	1	t		12.0	2.5	/experiments/Knapen_AOT/AOT_stimuli/rescaled_final/0300_rv.mp4	0.0	115.69980883598328	
14	99.73987483978271	fix_post	2		12	12.0	2.5	/experiments/Knapen_AOT/AOT_stimuli/rescaled_final/0300_rv.mp4	0.0	116.61804533004761	0.09998035430908203
15	99.8398551940918	fix_pre	0		120	13.0	2.5	/experiments/Knapen_AOT/AOT_stimuli/rescaled_final/1547_rv.mp4	0.0	116.71802568435669	1.008619785308838
15	100.41544699668884	pulse	0	t		13.0	2.5	/experiments/Knapen_AOT/AOT_stimuli/rescaled_final/1547_rv.mp4	0.0	117.29361748695374	
15	100.84847497940063	movie	1		272	13.0	2.5	/experiments/Knapen_AOT/AOT_stimuli/rescaled_final/1547_rv.mp4	0.0	117.72664546966553	2.491943359375
15	102.01551294326782	pulse	1	t		13.0	2.5	/experiments/Knapen_AOT/AOT_stimuli/rescaled_final/1547_rv.mp4	0.0	118.89368343353271	
15	103.34041833877563	fix_post	2		12	13.0	2.5	/experiments/Knapen_AOT/AOT_stimuli/rescaled_final/1547_rv.mp4	0.0	120.21858882904053	0.09997963905334473
16	103.44039797782898	fix_pre	0		120	14.0	2.5	blank	1.0	120.31856846809387	1.0001335144042969
16	103.61570167541504	pulse	0	t		14.0	2.5	blank	1.0	120.49387216567993	
16	104.44053149223328	movie	1		300	14.0	2.5	blank	1.0	121.31870198249817	2.5004100799560547
16	105.21586632728577	pulse	1	t		14.0	2.5	blank	1.0	122.09403681755066	
16	106.81615805625916	pulse	1	t		14.0	2.5	blank	1.0	123.69432854652405	
16	106.94094157218933	fix_post	2		12	14.0	2.5	blank	1.0	123.81911206245422	0.1000065803527832
17	107.04094815254211	fix_pre	0		120	15.0	2.5	/experiments/Knapen_AOT/AOT_stimuli/rescaled_final/0075_rv.mp4	0.0	123.919118642807	1.008540153503418
17	108.04948830604553	movie	1		276	15.0	2.5	/experiments/Knapen_AOT/AOT_stimuli/rescaled_final/0075_rv.mp4	0.0	124.92765879631042	2.4920308589935303
17	108.4163646697998	pulse	1	t		15.0	2.5	/experiments/Knapen_AOT/AOT_stimuli/rescaled_final/0075_rv.mp4	0.0	125.2945351600647	
17	110.01693201065063	pulse	1	t		15.0	2.5	/experiments/Knapen_AOT/AOT_stimuli/rescaled_final/0075_rv.mp4	0.0	126.89510250091553	
17	110.54151916503906	fix_post	2		12	15.0	2.5	/experiments/Knapen_AOT/AOT_stimuli/rescaled_final/0075_rv.mp4	0.0	127.41968965530396	0.10005998611450195
18	110.64157915115356	fix_pre	0		118	16.0	2.5	/experiments/Knapen_AOT/AOT_stimuli/rescaled_final/0357_rv.mp4	0.0	127.51974964141846	0.9917309284210205
18	111.61684536933899	pulse	0	t		16.0	2.5	/experiments/Knapen_AOT/AOT_stimuli/rescaled_final/0357_rv.mp4	0.0	128.49501585960388	
18	111.63331007957458	movie	1		275	16.0	2.5	/experiments/Knapen_AOT/AOT_stimuli/rescaled_final/0357_rv.mp4	0.0	128.51148056983948	2.500357151031494
18	113.21721196174622	pulse	1	t		16.0	2.5	/experiments/Knapen_AOT/AOT_stimuli/rescaled_final/0357_rv.mp4	0.0	130.0953824520111	
18	114.13366723060608	fix_post	2		12	16.0	2.5	/experiments/Knapen_AOT/AOT_stimuli/rescaled_final/0357_rv.mp4	0.0	131.01183772087097	0.10016584396362305
19	114.2338330745697	fix_pre	0		120	17.0	2.5	/experiments/Knapen_AOT/AOT_stimuli/rescaled_final/1394_fw.mp4	0.0	131.1120035648346	1.0083670616149902
19	114.8174057006836	pulse	0	t		17.0	2.5	/experiments/Knapen_AOT/AOT_stimuli/rescaled_final/1394_fw.mp4	0.0	131.6955761909485	
19	115.24220013618469	movie	1		279	17.0	2.5	/experiments/Knapen_AOT/AOT_stimuli/rescaled_final/1394_fw.mp4	0.0	132.12037062644958	2.4920477867126465
19	116.41547799110413	pulse	1	t		17.0	2.5	/experiments/Knapen_AOT/AOT_stimuli/rescaled_final/1394_fw.mp4	0.0	133.29364848136902	
19	117.73424792289734	fix_post	2		12	17.0	2.5	/experiments/Knapen_AOT/AOT_stimuli/rescaled_final/1394_fw.mp4	0.0	134.61241841316223	0.10014033317565918
20	117.834388256073	fix_pre	0		120	18.0	2.5	/experiments/Knapen_AOT/AOT_stimuli/rescaled_final/0617_fw.mp4	0.0	134.7125587463379	1.0083510875701904
20	118.01780581474304	pulse	0	t		18.0	2.5	/experiments/Knapen_AOT/AOT_stimuli/rescaled_final/0617_fw.mp4	0.0	134.89597630500793	
20	118.84273934364319	movie	1		283	18.0	2.5	/experiments/Knapen_AOT/AOT_stimuli/rescaled_final/0617_fw.mp4	0.0	135.72090983390808	2.4920153617858887
20	119.61628770828247	pulse	1	t		18.0	2.5	/experiments/Knapen_AOT/AOT_stimuli/rescaled_final/0617_fw.mp4	0.0	136.49445819854736	
20	121.21620106697083	pulse	1	t		18.0	2.5	/experiments/Knapen_AOT/AOT_stimuli/rescaled_final/0617_fw.mp4	0.0	138.09437155723572	
20	121.33475470542908	fix_post	2		12	18.0	2.5	/experiments/Knapen_AOT/AOT_stimuli/rescaled_final/0617_fw.mp4	0.0	138.21292519569397	0.10004210472106934
21	121.43479681015015	fix_pre	0		120	19.0	2.5	/experiments/Knapen_AOT/AOT_stimuli/rescaled_final/1445_rv.mp4	0.0	138.31296730041504	1.008448600769043
21	122.44324541091919	movie	1		286	19.0	2.5	/experiments/Knapen_AOT/AOT_stimuli/rescaled_final/1445_rv.mp4	0.0	139.32141590118408	2.492086410522461
21	122.8170211315155	pulse	1	t		19.0	2.5	/experiments/Knapen_AOT/AOT_stimuli/rescaled_final/1445_rv.mp4	0.0	139.6951916217804	
21	124.41701436042786	pulse	1	t		19.0	2.5	/experiments/Knapen_AOT/AOT_stimuli/rescaled_final/1445_rv.mp4	0.0	141.29518485069275	
21	124.93533182144165	fix_post	2		12	19.0	2.5	/experiments/Knapen_AOT/AOT_stimuli/rescaled_final/1445_rv.mp4	0.0	141.81350231170654	0.0999910831451416
22	125.03532290458679	fix_pre	0		119	20.0	2.5	blank	1.0	141.91349339485168	0.99184250831604
22	126.01903176307678	pulse	0	t		20.0	2.5	blank	1.0	142.89720225334167	
22	126.02716541290283	movie	1		301	20.0	2.5	blank	1.0	142.90533590316772	2.50866961479187
22	127.61925029754639	pulse	1	t		20.0	2.5	blank	1.0	144.49742078781128	
22	128.5358350276947	fix_post	2		12	20.0	2.5	blank	1.0	145.4140055179596	0.10003232955932617
23	128.63586735725403	fix_pre	0		120	21.0	2.5	/experiments/Knapen_AOT/AOT_stimuli/rescaled_final/0420_fw.mp4	0.0	145.51403784751892	1.0085186958312988
23	129.21954107284546	pulse	0	t		21.0	2.5	/experiments/Knapen_AOT/AOT_stimuli/rescaled_final/0420_fw.mp4	0.0	146.09771156311035	
23	129.64438605308533	movie	1		284	21.0	2.5	/experiments/Knapen_AOT/AOT_stimuli/rescaled_final/0420_fw.mp4	0.0	146.52255654335022	2.49198842048645
23	130.81809830665588	pulse	1	t		21.0	2.5	/experiments/Knapen_AOT/AOT_stimuli/rescaled_final/0420_fw.mp4	0.0	147.69626879692078	
23	132.13637447357178	fix_post	2		12	21.0	2.5	/experiments/Knapen_AOT/AOT_stimuli/rescaled_final/0420_fw.mp4	0.0	149.01454496383667	0.10002994537353516
24	132.2364044189453	fix_pre	0		120	22.0	2.5	/experiments/Knapen_AOT/AOT_stimuli/rescaled_final/1343_rv.mp4	0.0	149.1145749092102	1.0084965229034424
24	132.4199492931366	pulse	0	t		22.0	2.5	/experiments/Knapen_AOT/AOT_stimuli/rescaled_final/1343_rv.mp4	0.0	149.2981197834015	
24	133.24490094184875	movie	1		276	22.0	2.5	/experiments/Knapen_AOT/AOT_stimuli/rescaled_final/1343_rv.mp4	0.0	150.12307143211365	2.4920217990875244
24	134.01954412460327	pulse	1	t		22.0	2.5	/experiments/Knapen_AOT/AOT_stimuli/rescaled_final/1343_rv.mp4	0.0	150.89771461486816	
24	135.61835479736328	pulse	1	t		22.0	2.5	/experiments/Knapen_AOT/AOT_stimuli/rescaled_final/1343_rv.mp4	0.0	152.49652528762817	
24	135.73692274093628	fix_post	2		12	22.0	2.5	/experiments/Knapen_AOT/AOT_stimuli/rescaled_final/1343_rv.mp4	0.0	152.61509323120117	0.10001468658447266
25	135.83693742752075	fix_pre	0		120	23.0	2.5	/experiments/Knapen_AOT/AOT_stimuli/rescaled_final/2113_rv.mp4	0.0	152.71510791778564	1.0085430145263672
25	136.84548044204712	movie	1		284	23.0	2.5	/experiments/Knapen_AOT/AOT_stimuli/rescaled_final/2113_rv.mp4	0.0	153.723650932312	2.4919958114624023
25	137.21890711784363	pulse	1	t		23.0	2.5	/experiments/Knapen_AOT/AOT_stimuli/rescaled_final/2113_rv.mp4	0.0	154.09707760810852	
25	138.81940388679504	pulse	1	t		23.0	2.5	/experiments/Knapen_AOT/AOT_stimuli/rescaled_final/2113_rv.mp4	0.0	155.69757437705994	
25	139.33747625350952	fix_post	2		12	23.0	2.5	/experiments/Knapen_AOT/AOT_stimuli/rescaled_final/2113_rv.mp4	0.0	156.2156467437744	0.1000223159790039
26	139.43749856948853	fix_pre	0		119	24.0	2.5	/experiments/Knapen_AOT/AOT_stimuli/rescaled_final/1147_fw.mp4	0.0	156.31566905975342	1.0001623630523682
26	140.4212203025818	pulse	0	t		24.0	2.5	/experiments/Knapen_AOT/AOT_stimuli/rescaled_final/1147_fw.mp4	0.0	157.29939079284668	
26	140.4376609325409	movie	1		274	24.0	2.5	/experiments/Knapen_AOT/AOT_stimuli/rescaled_final/1147_fw.mp4	0.0	157.3158314228058	2.500361919403076
26	142.02098488807678	pulse	1	t		24.0	2.5	/experiments/Knapen_AOT/AOT_stimuli/rescaled_final/1147_fw.mp4	0.0	158.89915537834167	
26	142.93802285194397	fix_post	2		12	24.0	2.5	/experiments/Knapen_AOT/AOT_stimuli/rescaled_final/1147_fw.mp4	0.0	159.81619334220886	0.10006999969482422
27	143.0380928516388	fix_pre	0		120	25.0	2.5	/experiments/Knapen_AOT/AOT_stimuli/rescaled_final/2042_rv.mp4	0.0	159.9162633419037	1.0084547996520996
27	143.62163591384888	pulse	0	t		25.0	2.5	/experiments/Knapen_AOT/AOT_stimuli/rescaled_final/2042_rv.mp4	0.0	160.49980640411377	
27	144.0465476512909	movie	1		279	25.0	2.5	/experiments/Knapen_AOT/AOT_stimuli/rescaled_final/2042_rv.mp4	0.0	160.9247181415558	2.492147207260132
27	145.2208068370819	pulse	1	t		25.0	2.5	/experiments/Knapen_AOT/AOT_stimuli/rescaled_final/2042_rv.mp4	0.0	162.0989773273468	
27	146.53869485855103	fix_post	2		12	25.0	2.5	/experiments/Knapen_AOT/AOT_stimuli/rescaled_final/2042_rv.mp4	0.0	163.41686534881592	0.09987235069274902
28	146.63856720924377	fix_pre	0		120	26.0	2.5	/experiments/Knapen_AOT/AOT_stimuli/rescaled_final/1394_fw.mp4	0.0	163.51673769950867	1.0084962844848633
28	146.82223463058472	pulse	0	t		26.0	2.5	/experiments/Knapen_AOT/AOT_stimuli/rescaled_final/1394_fw.mp4	0.0	163.7004051208496	
28	147.64706349372864	movie	1		286	26.0	2.5	/experiments/Knapen_AOT/AOT_stimuli/rescaled_final/1394_fw.mp4	0.0	164.52523398399353	2.492037296295166
28	148.42072463035583	pulse	1	t		26.0	2.5	/experiments/Knapen_AOT/AOT_stimuli/rescaled_final/1394_fw.mp4	0.0	165.29889512062073	
28	150.0204975605011	pulse	1	t		26.0	2.5	/experiments/Knapen_AOT/AOT_stimuli/rescaled_final/1394_fw.mp4	0.0	166.898668050766	
28	150.1391007900238	fix_post	2		12	26.0	2.5	/experiments/Knapen_AOT/AOT_stimuli/rescaled_final/1394_fw.mp4	0.0	167.0172712802887	0.100006103515625
29	150.23910689353943	fix_pre	0		120	27.0	2.5	/experiments/Knapen_AOT/AOT_stimuli/rescaled_final/1714_rv.mp4	0.0	167.11727738380432	1.0085539817810059
29	151.24766087532043	movie	1		282	27.0	2.5	/experiments/Knapen_AOT/AOT_stimuli/rescaled_final/1714_rv.mp4	0.0	168.12583136558533	2.491976022720337
29	151.62300777435303	pulse	1	t		27.0	2.5	/experiments/Knapen_AOT/AOT_stimuli/rescaled_final/1714_rv.mp4	0.0	168.50117826461792	
29	153.22095131874084	pulse	1	t		27.0	2.5	/experiments/Knapen_AOT/AOT_stimuli/rescaled_final/1714_rv.mp4	0.0	170.09912180900574	
29	153.73963689804077	fix_post	2		12	27.0	2.5	/experiments/Knapen_AOT/AOT_stimuli/rescaled_final/1714_rv.mp4	0.0	170.61780738830566	0.10017752647399902
30	153.83981442451477	fix_pre	0		119	28.0	2.5	blank	1.0	170.71798491477966	0.9916579723358154
30	154.82340741157532	pulse	0	t		28.0	2.5	blank	1.0	171.7015779018402	
30	154.8314723968506	movie	1		301	28.0	2.5	blank	1.0	171.70964288711548	2.5087077617645264
30	156.41591000556946	pulse	1	t		28.0	2.5	blank	1.0	173.29408049583435	
30	157.3401801586151	fix_post	2		12	28.0	2.5	blank	1.0	174.21835064888	0.10001540184020996
31	157.44019556045532	fix_pre	0		120	29.0	2.5	/experiments/Knapen_AOT/AOT_stimuli/rescaled_final/2042_rv.mp4	0.0	174.31836605072021	1.0085744857788086
31	158.01582431793213	pulse	0	t		29.0	2.5	/experiments/Knapen_AOT/AOT_stimuli/rescaled_final/2042_rv.mp4	0.0	174.89399480819702	
31	158.44877004623413	movie	1		290	29.0	2.5	/experiments/Knapen_AOT/AOT_stimuli/rescaled_final/2042_rv.mp4	0.0	175.32694053649902	2.491987466812134
31	159.61586904525757	pulse	1	t		29.0	2.5	/experiments/Knapen_AOT/AOT_stimuli/rescaled_final/2042_rv.mp4	0.0	176.49403953552246	
31	160.94075751304626	fix_post	2		12	29.0	2.5	/experiments/Knapen_AOT/AOT_stimuli/rescaled_final/2042_rv.mp4	0.0	177.81892800331116	0.10010099411010742
32	161.04085850715637	fix_pre	0		120	30.0	2.5	/experiments/Knapen_AOT/AOT_stimuli/rescaled_final/0922_fw.mp4	0.0	177.91902899742126	1.008378267288208
32	161.21643376350403	pulse	0	t		30.0	2.5	/experiments/Knapen_AOT/AOT_stimuli/rescaled_final/0922_fw.mp4	0.0	178.09460425376892	
32	162.04923677444458	movie	1		273	30.0	2.5	/experiments/Knapen_AOT/AOT_stimuli/rescaled_final/0922_fw.mp4	0.0	178.92740726470947	2.49200439453125
32	162.81642317771912	pulse	1	t		30.0	2.5	/experiments/Knapen_AOT/AOT_stimuli/rescaled_final/0922_fw.mp4	0.0	179.694593667984	
32	164.41644382476807	pulse	1	t		30.0	2.5	/experiments/Knapen_AOT/AOT_stimuli/rescaled_final/0922_fw.mp4	0.0	181.29461431503296	
32	164.54124116897583	fix_post	2		12	30.0	2.5	/experiments/Knapen_AOT/AOT_stimuli/rescaled_final/0922_fw.mp4	0.0	181.41941165924072	0.10009193420410156
33	164.64133310317993	fix_pre	0		120	31.0	2.5	/experiments/Knapen_AOT/AOT_stimuli/rescaled_final/1490_rv.mp4	0.0	181.51950359344482	1.0084693431854248
33	165.64980244636536	movie	1		292	31.0	2.5	/experiments/Knapen_AOT/AOT_stimuli/rescaled_final/1490_rv.mp4	0.0	182.52797293663025	2.4920401573181152
33	166.01669764518738	pulse	1	t		31.0	2.5	/experiments/Knapen_AOT/AOT_stimuli/rescaled_final/1490_rv.mp4	0.0	182.89486813545227	
33	167.6169126033783	pulse	1	t		31.0	2.5	/experiments/Knapen_AOT/AOT_stimuli/rescaled_final/1490_rv.mp4	0.0	184.4950830936432	
33	168.14184260368347	fix_post	2		12	31.0	2.5	/experiments/Knapen_AOT/AOT_stimuli/rescaled_final/1490_rv.mp4	0.0	185.02001309394836	0.10005688667297363
34	168.24189949035645	fix_pre	0		118	32.0	2.5	/experiments/Knapen_AOT/AOT_stimuli/rescaled_final/1272_fw.mp4	0.0	185.12006998062134	0.9918391704559326
34	169.2174322605133	pulse	0	t		32.0	2.5	/experiments/Knapen_AOT/AOT_stimuli/rescaled_final/1272_fw.mp4	0.0	186.0956027507782	
34	169.23373866081238	movie	1		293	32.0	2.5	/experiments/Knapen_AOT/AOT_stimuli/rescaled_final/1272_fw.mp4	0.0	186.11190915107727	2.5002686977386475
34	170.81728792190552	pulse	1	t		32.0	2.5	/experiments/Knapen_AOT/AOT_stimuli/rescaled_final/1272_fw.mp4	0.0	187.6954584121704	
34	171.73400735855103	fix_post	2		12	32.0	2.5	/experiments/Knapen_AOT/AOT_stimuli/rescaled_final/1272_fw.mp4	0.0	188.61217784881592	0.1000514030456543
35	171.83405876159668	fix_pre	0		120	33.0	2.5	blank	1.0	188.71222925186157	1.0001018047332764
35	172.41768145561218	pulse	0	t		33.0	2.5	blank	1.0	189.29585194587708	
35	172.83416056632996	movie	1		300	33.0	2.5	blank	1.0	189.71233105659485	2.5004067420959473
35	174.01788449287415	pulse	1	t		33.0	2.5	blank	1.0	190.89605498313904	
35	175.3345673084259	fix_post	2		12	33.0	2.5	blank	1.0	192.2127377986908	0.10000157356262207
36	175.43456888198853	fix_pre	0		120	34.0	2.5	/experiments/Knapen_AOT/AOT_stimuli/rescaled_final/0967_rv.mp4	0.0	192.31273937225342	1.0084974765777588
36	175.61829328536987	pulse	0	t		34.0	2.5	/experiments/Knapen_AOT/AOT_stimuli/rescaled_final/0967_rv.mp4	0.0	192.49646377563477	
36	176.44306635856628	movie	1		283	34.0	2.5	/experiments/Knapen_AOT/AOT_stimuli/rescaled_final/0967_rv.mp4	0.0	193.32123684883118	2.4920859336853027
36	177.216162443161	pulse	1	t		34.0	2.5	/experiments/Knapen_AOT/AOT_stimuli/rescaled_final/0967_rv.mp4	0.0	194.0943329334259	
36	178.81652903556824	pulse	1	t		34.0	2.5	/experiments/Knapen_AOT/AOT_stimuli/rescaled_final/0967_rv.mp4	0.0	195.69469952583313	
36	178.9351522922516	fix_post	2		12	34.0	2.5	/experiments/Knapen_AOT/AOT_stimuli/rescaled_final/0967_rv.mp4	0.0	195.81332278251648	0.10010671615600586
37	179.0352590084076	fix_pre	0		120	35.0	2.5	/experiments/Knapen_AOT/AOT_stimuli/rescaled_final/0201_rv.mp4	0.0	195.91342949867249	1.0083653926849365
37	180.04362440109253	movie	1		283	35.0	2.5	/experiments/Knapen_AOT/AOT_stimuli/rescaled_final/0201_rv.mp4	0.0	196.92179489135742	2.492007255554199
37	180.41911220550537	pulse	1	t		35.0	2.5	/experiments/Knapen_AOT/AOT_stimuli/rescaled_final/0201_rv.mp4	0.0	197.29728269577026	
37	182.01776885986328	pulse	1	t		35.0	2.5	/experiments/Knapen_AOT/AOT_stimuli/rescaled_final/0201_rv.mp4	0.0	198.89593935012817	
37	182.53563165664673	fix_post	2		12	35.0	2.5	/experiments/Knapen_AOT/AOT_stimuli/rescaled_final/0201_rv.mp4	0.0	199.41380214691162	0.10004115104675293
38	182.63567280769348	fix_pre	0		119	36.0	2.5	/experiments/Knapen_AOT/AOT_stimuli/rescaled_final/1804_rv.mp4	0.0	199.51384329795837	1.0002479553222656
38	183.61947655677795	pulse	0	t		36.0	2.5	/experiments/Knapen_AOT/AOT_stimuli/rescaled_final/1804_rv.mp4	0.0	200.49764704704285	
38	183.63592076301575	movie	1		285	36.0	2.5	/experiments/Knapen_AOT/AOT_stimuli/rescaled_final/1804_rv.mp4	0.0	200.51409125328064	2.5002644062042236
38	185.2189371585846	pulse	1	t		36.0	2.5	/experiments/Knapen_AOT/AOT_stimuli/rescaled_final/1804_rv.mp4	0.0	202.0971076488495	
38	186.13618516921997	fix_post	2		12	36.0	2.5	/experiments/Knapen_AOT/AOT_stimuli/rescaled_final/1804_rv.mp4	0.0	203.01435565948486	0.10001039505004883
39	186.23619556427002	fix_pre	0		120	37.0	2.5	/experiments/Knapen_AOT/AOT_stimuli/rescaled_final/0300_fw.mp4	0.0	203.1143660545349	1.008481502532959
39	186.81981253623962	pulse	0	t		37.0	2.5	/experiments/Knapen_AOT/AOT_stimuli/rescaled_final/0300_fw.mp4	0.0	203.69798302650452	
39	187.24467706680298	movie	1		279	37.0	2.5	/experiments/Knapen_AOT/AOT_stimuli/rescaled_final/0300_fw.mp4	0.0	204.12284755706787	2.4920473098754883
39	188.41837096214294	pulse	1	t		37.0	2.5	/experiments/Knapen_AOT/AOT_stimuli/rescaled_final/0300_fw.mp4	0.0	205.29654145240784	
39	189.73672437667847	fix_post	2		12	37.0	2.5	/experiments/Knapen_AOT/AOT_stimuli/rescaled_final/0300_fw.mp4	0.0	206.61489486694336	0.10003042221069336
40	189.83675479888916	fix_pre	0		119	38.0	2.5	/experiments/Knapen_AOT/AOT_stimuli/rescaled_final/0974_fw.mp4	0.0	206.71492528915405	1.0084810256958008
40	190.0203959941864	pulse	0	t		38.0	2.5	/experiments/Knapen_AOT/AOT_stimuli/rescaled_final/0974_fw.mp4	0.0	206.8985664844513	
40	190.84523582458496	movie	1		295	38.0	2.5	/experiments/Knapen_AOT/AOT_stimuli/rescaled_final/0974_fw.mp4	0.0	207.72340631484985	2.4920387268066406
40	191.6185998916626	pulse	1	t		38.0	2.5	/experiments/Knapen_AOT/AOT_stimuli/rescaled_final/0974_fw.mp4	0.0	208.4967703819275	
40	193.2187578678131	pulse	1	t		38.0	2.5	/experiments/Knapen_AOT/AOT_stimuli/rescaled_final/0974_fw.mp4	0.0	210.096928358078	
40	193.3372745513916	fix_post	2		12	38.0	2.5	/experiments/Knapen_AOT/AOT_stimuli/rescaled_final/0974_fw.mp4	0.0	210.2154450416565	0.09999513626098633
41	193.4372696876526	fix_pre	0		120	39.0	2.5	/experiments/Knapen_AOT/AOT_stimuli/rescaled_final/1332_rv.mp4	0.0	210.31544017791748	1.008554458618164
41	194.44582414627075	movie	1		271	39.0	2.5	/experiments/Knapen_AOT/AOT_stimuli/rescaled_final/1332_rv.mp4	0.0	211.32399463653564	2.492011547088623
41	194.82004070281982	pulse	1	t		39.0	2.5	/experiments/Knapen_AOT/AOT_stimuli/rescaled_final/1332_rv.mp4	0.0	211.69821119308472	
41	196.4196138381958	pulse	1	t		39.0	2.5	/experiments/Knapen_AOT/AOT_stimuli/rescaled_final/1332_rv.mp4	0.0	213.2977843284607	
41	196.93783569335938	fix_post	2		12	39.0	2.5	/experiments/Knapen_AOT/AOT_stimuli/rescaled_final/1332_rv.mp4	0.0	213.81600618362427	0.09997820854187012
42	197.03781390190125	fix_pre	0		119	40.0	2.5	/experiments/Knapen_AOT/AOT_stimuli/rescaled_final/0806_fw.mp4	0.0	213.91598439216614	1.0003983974456787
42	198.0216782093048	pulse	0	t		40.0	2.5	/experiments/Knapen_AOT/AOT_stimuli/rescaled_final/0806_fw.mp4	0.0	214.8998486995697	
42	198.03821229934692	movie	1		283	40.0	2.5	/experiments/Knapen_AOT/AOT_stimuli/rescaled_final/0806_fw.mp4	0.0	214.91638278961182	2.5001327991485596
42	199.61999320983887	pulse	1	t		40.0	2.5	/experiments/Knapen_AOT/AOT_stimuli/rescaled_final/0806_fw.mp4	0.0	216.49816370010376	
42	200.53834509849548	fix_post	2		12	40.0	2.5	/experiments/Knapen_AOT/AOT_stimuli/rescaled_final/0806_fw.mp4	0.0	217.41651558876038	0.10004830360412598
43	200.6383934020996	fix_pre	0		120	41.0	2.5	/experiments/Knapen_AOT/AOT_stimuli/rescaled_final/1804_rv.mp4	0.0	217.5165638923645	1.0084559917449951
43	201.22196054458618	pulse	0	t		41.0	2.5	/experiments/Knapen_AOT/AOT_stimuli/rescaled_final/1804_rv.mp4	0.0	218.10013103485107	
43	201.6468493938446	movie	1		285	41.0	2.5	/experiments/Knapen_AOT/AOT_stimuli/rescaled_final/1804_rv.mp4	0.0	218.5250198841095	2.4920103549957275
43	202.82073187828064	pulse	1	t		41.0	2.5	/experiments/Knapen_AOT/AOT_stimuli/rescaled_final/1804_rv.mp4	0.0	219.69890236854553	
43	204.13885974884033	fix_post	2		12	41.0	2.5	/experiments/Knapen_AOT/AOT_stimuli/rescaled_final/1804_rv.mp4	0.0	221.01703023910522	0.10003447532653809
44	204.23889422416687	fix_pre	0		120	42.0	2.5	blank	1.0	221.11706471443176	1.0001623630523682
44	204.42247533798218	pulse	0	t		42.0	2.5	blank	1.0	221.30064582824707	
44	205.23905658721924	movie	1		300	42.0	2.5	blank	1.0	222.11722707748413	2.500364065170288
44	206.02288699150085	pulse	1	t		42.0	2.5	blank	1.0	222.90105748176575	
44	207.62292289733887	pulse	1	t		42.0	2.5	blank	1.0	224.50109338760376	
44	207.73942065238953	fix_post	2		12	42.0	2.5	blank	1.0	224.61759114265442	0.10002946853637695
45	207.8394501209259	fix_pre	0		120	43.0	2.5	/experiments/Knapen_AOT/AOT_stimuli/rescaled_final/0173_fw.mp4	0.0	224.7176206111908	1.0084600448608398
45	208.84791016578674	movie	1		274	43.0	2.5	/experiments/Knapen_AOT/AOT_stimuli/rescaled_final/0173_fw.mp4	0.0	225.72608065605164	2.492055892944336
45	209.22292375564575	pulse	1	t		43.0	2.5	/experiments/Knapen_AOT/AOT_stimuli/rescaled_final/0173_fw.mp4	0.0	226.10109424591064	
45	210.81554007530212	pulse	1	t		43.0	2.5	/experiments/Knapen_AOT/AOT_stimuli/rescaled_final/0173_fw.mp4	0.0	227.69371056556702	
45	211.33996605873108	fix_post	2		12	43.0	2.5	/experiments/Knapen_AOT/AOT_stimuli/rescaled_final/0173_fw.mp4	0.0	228.21813654899597	0.10018157958984375
46	211.44014763832092	fix_pre	0		118	44.0	2.5	/experiments/Knapen_AOT/AOT_stimuli/rescaled_final/0199_fw.mp4	0.0	228.31831812858582	0.9916689395904541
46	212.41532111167908	pulse	0	t		44.0	2.5	/experiments/Knapen_AOT/AOT_stimuli/rescaled_final/0199_fw.mp4	0.0	229.29349160194397	
46	212.43181657791138	movie	1		273	44.0	2.5	/experiments/Knapen_AOT/AOT_stimuli/rescaled_final/0199_fw.mp4	0.0	229.30998706817627	2.500394105911255
46	214.01564812660217	pulse	1	t		44.0	2.5	/experiments/Knapen_AOT/AOT_stimuli/rescaled_final/0199_fw.mp4	0.0	230.89381861686707	
46	214.93221068382263	fix_post	2		12	44.0	2.5	/experiments/Knapen_AOT/AOT_stimuli/rescaled_final/0199_fw.mp4	0.0	231.81038117408752	0.0999915599822998
47	215.03220224380493	fix_pre	0		120	45.0	2.5	/experiments/Knapen_AOT/AOT_stimuli/rescaled_final/2106_rv.mp4	0.0	231.91037273406982	1.00850510597229
47	215.61590051651	pulse	0	t		45.0	2.5	/experiments/Knapen_AOT/AOT_stimuli/rescaled_final/2106_rv.mp4	0.0	232.4940710067749	
47	216.04070734977722	movie	1		273	45.0	2.5	/experiments/Knapen_AOT/AOT_stimuli/rescaled_final/2106_rv.mp4	0.0	232.91887784004211	2.4920105934143066
47	217.21601462364197	pulse	1	t		45.0	2.5	/experiments/Knapen_AOT/AOT_stimuli/rescaled_final/2106_rv.mp4	0.0	234.09418511390686	
47	218.53271794319153	fix_post	2		12	45.0	2.5	/experiments/Knapen_AOT/AOT_stimuli/rescaled_final/2106_rv.mp4	0.0	235.41088843345642	0.10000467300415039
48	218.63272261619568	fix_pre	0		120	46.0	2.5	/experiments/Knapen_AOT/AOT_stimuli/rescaled_final/1753_fw.mp4	0.0	235.51089310646057	1.0085673332214355
48	218.8163185119629	pulse	0	t		46.0	2.5	/experiments/Knapen_AOT/AOT_stimuli/rescaled_final/1753_fw.mp4	0.0	235.69448900222778	
48	219.64128994941711	movie	1		283	46.0	2.5	/experiments/Knapen_AOT/AOT_stimuli/rescaled_final/1753_fw.mp4	0.0	236.519460439682	2.491938352584839
48	220.41654586791992	pulse	1	t		46.0	2.5	/experiments/Knapen_AOT/AOT_stimuli/rescaled_final/1753_fw.mp4	0.0	237.29471635818481	
48	222.01531672477722	pulse	1	t		46.0	2.5	/experiments/Knapen_AOT/AOT_stimuli/rescaled_final/1753_fw.mp4	0.0	238.89348721504211	
48	222.13322830200195	fix_post	2		12	46.0	2.5	/experiments/Knapen_AOT/AOT_stimuli/rescaled_final/1753_fw.mp4	0.0	239.01139879226685	0.10004544258117676
49	222.23327374458313	fix_pre	0		120	47.0	2.5	/experiments/Knapen_AOT/AOT_stimuli/rescaled_final/1012_fw.mp4	0.0	239.11144423484802	1.0085067749023438
49	223.24178051948547	movie	1		286	47.0	2.5	/experiments/Knapen_AOT/AOT_stimuli/rescaled_final/1012_fw.mp4	0.0	240.11995100975037	2.492032289505005
49	223.61589884757996	pulse	1	t		47.0	2.5	/experiments/Knapen_AOT/AOT_stimuli/rescaled_final/1012_fw.mp4	0.0	240.49406933784485	
49	225.2157301902771	pulse	1	t		47.0	2.5	/experiments/Knapen_AOT/AOT_stimuli/rescaled_final/1012_fw.mp4	0.0	242.093900680542	
49	225.73381280899048	fix_post	2		12	47.0	2.5	/experiments/Knapen_AOT/AOT_stimuli/rescaled_final/1012_fw.mp4	0.0	242.61198329925537	0.10001182556152344
50	225.833824634552	fix_pre	0		119	48.0	2.5	/experiments/Knapen_AOT/AOT_stimuli/rescaled_final/0726_rv.mp4	0.0	242.7119951248169	1.0001389980316162
50	226.817528963089	pulse	0	t		48.0	2.5	/experiments/Knapen_AOT/AOT_stimuli/rescaled_final/0726_rv.mp4	0.0	243.69569945335388	
50	226.83396363258362	movie	1		278	48.0	2.5	/experiments/Knapen_AOT/AOT_stimuli/rescaled_final/0726_rv.mp4	0.0	243.7121341228485	2.5003719329833984
50	228.41676354408264	pulse	1	t		48.0	2.5	/experiments/Knapen_AOT/AOT_stimuli/rescaled_final/0726_rv.mp4	0.0	245.29493403434753	
50	229.33433556556702	fix_post	2		12	48.0	2.5	/experiments/Knapen_AOT/AOT_stimuli/rescaled_final/0726_rv.mp4	0.0	246.2125060558319	0.10003304481506348
51	229.43436861038208	fix_pre	0		120	49.0	2.5	blank	1.0	246.31253910064697	1.0001330375671387
51	230.01815223693848	pulse	0	t		49.0	2.5	blank	1.0	246.89632272720337	
51	230.43450164794922	movie	1		300	49.0	2.5	blank	1.0	247.3126721382141	2.5004220008850098
51	231.61819458007812	pulse	1	t		49.0	2.5	blank	1.0	248.49636507034302	
51	232.93492364883423	fix_post	2		12	49.0	2.5	blank	1.0	249.81309413909912	0.10002684593200684
52	233.03495049476624	fix_pre	0		120	50.0	2.5	/experiments/Knapen_AOT/AOT_stimuli/rescaled_final/1217_fw.mp4	0.0	249.91312098503113	1.0084161758422852
52	233.21846342086792	pulse	0	t		50.0	2.5	/experiments/Knapen_AOT/AOT_stimuli/rescaled_final/1217_fw.mp4	0.0	250.0966339111328	
52	234.04336667060852	movie	1		279	50.0	2.5	/experiments/Knapen_AOT/AOT_stimuli/rescaled_final/1217_fw.mp4	0.0	250.9215371608734	2.49228572845459
52	234.81691074371338	pulse	1	t		50.0	2.5	/experiments/Knapen_AOT/AOT_stimuli/rescaled_final/1217_fw.mp4	0.0	251.69508123397827	
52	236.41697716712952	pulse	1	t		50.0	2.5	/experiments/Knapen_AOT/AOT_stimuli/rescaled_final/1217_fw.mp4	0.0	253.2951476573944	
52	236.5356523990631	fix_post	2		12	50.0	2.5	/experiments/Knapen_AOT/AOT_stimuli/rescaled_final/1217_fw.mp4	0.0	253.413822889328	0.09979438781738281
53	236.6354467868805	fix_pre	0		120	51.0	2.5	/experiments/Knapen_AOT/AOT_stimuli/rescaled_final/1589_fw.mp4	0.0	253.51361727714539	1.0084803104400635
53	237.64392709732056	movie	1		286	51.0	2.5	/experiments/Knapen_AOT/AOT_stimuli/rescaled_final/1589_fw.mp4	0.0	254.52209758758545	2.492032289505005
53	238.01798224449158	pulse	1	t		51.0	2.5	/experiments/Knapen_AOT/AOT_stimuli/rescaled_final/1589_fw.mp4	0.0	254.89615273475647	
53	239.6172993183136	pulse	1	t		51.0	2.5	/experiments/Knapen_AOT/AOT_stimuli/rescaled_final/1589_fw.mp4	0.0	256.4954698085785	
53	240.13595938682556	fix_post	2		12	51.0	2.5	/experiments/Knapen_AOT/AOT_stimuli/rescaled_final/1589_fw.mp4	0.0	257.01412987709045	0.10009026527404785
54	240.2360496520996	fix_pre	0		119	52.0	2.5	/experiments/Knapen_AOT/AOT_stimuli/rescaled_final/0197_fw.mp4	0.0	257.1142201423645	1.000063419342041
54	241.2197802066803	pulse	0	t		52.0	2.5	/experiments/Knapen_AOT/AOT_stimuli/rescaled_final/0197_fw.mp4	0.0	258.0979506969452	
54	241.23611307144165	movie	1		274	52.0	2.5	/experiments/Knapen_AOT/AOT_stimuli/rescaled_final/0197_fw.mp4	0.0	258.11428356170654	2.5004119873046875
54	242.81836581230164	pulse	1	t		52.0	2.5	/experiments/Knapen_AOT/AOT_stimuli/rescaled_final/0197_fw.mp4	0.0	259.6965363025665	
54	243.73652505874634	fix_post	2		12	52.0	2.5	/experiments/Knapen_AOT/AOT_stimuli/rescaled_final/0197_fw.mp4	0.0	260.61469554901123	0.100006103515625
55	243.83653116226196	fix_pre	0		120	53.0	2.5	/experiments/Knapen_AOT/AOT_stimuli/rescaled_final/1236_fw.mp4	0.0	260.71470165252686	1.0085034370422363
55	244.42017483711243	pulse	0	t		53.0	2.5	/experiments/Knapen_AOT/AOT_stimuli/rescaled_final/1236_fw.mp4	0.0	261.2983453273773	
55	244.8450345993042	movie	1		280	53.0	2.5	/experiments/Knapen_AOT/AOT_stimuli/rescaled_final/1236_fw.mp4	0.0	261.7232050895691	2.4920170307159424
55	246.019029378891	pulse	1	t		53.0	2.5	/experiments/Knapen_AOT/AOT_stimuli/rescaled_final/1236_fw.mp4	0.0	262.8971998691559	
55	247.33705163002014	fix_post	2		12	53.0	2.5	/experiments/Knapen_AOT/AOT_stimuli/rescaled_final/1236_fw.mp4	0.0	264.21522212028503	0.10009980201721191
56	247.43715143203735	fix_pre	0		120	54.0	2.5	/experiments/Knapen_AOT/AOT_stimuli/rescaled_final/1445_rv.mp4	0.0	264.31532192230225	1.0084545612335205
56	247.6206920146942	pulse	0	t		54.0	2.5	/experiments/Knapen_AOT/AOT_stimuli/rescaled_final/1445_rv.mp4	0.0	264.4988625049591	
56	248.44560599327087	movie	1		279	54.0	2.5	/experiments/Knapen_AOT/AOT_stimuli/rescaled_final/1445_rv.mp4	0.0	265.32377648353577	2.491976022720337
56	249.21944403648376	pulse	1	t		54.0	2.5	/experiments/Knapen_AOT/AOT_stimuli/rescaled_final/1445_rv.mp4	0.0	266.09761452674866	
56	250.8198640346527	pulse	1	t		54.0	2.5	/experiments/Knapen_AOT/AOT_stimuli/rescaled_final/1445_rv.mp4	0.0	267.6980345249176	
56	250.9375820159912	fix_post	2		12	54.0	2.5	/experiments/Knapen_AOT/AOT_stimuli/rescaled_final/1445_rv.mp4	0.0	267.8157525062561	0.1000373363494873
57	251.0376193523407	fix_pre	0		120	55.0	2.5	/experiments/Knapen_AOT/AOT_stimuli/rescaled_final/1259_fw.mp4	0.0	267.9157898426056	1.0084929466247559
57	252.04611229896545	movie	1		270	55.0	2.5	/experiments/Knapen_AOT/AOT_stimuli/rescaled_final/1259_fw.mp4	0.0	268.92428278923035	2.4920289516448975
57	252.41996788978577	pulse	1	t		55.0	2.5	/experiments/Knapen_AOT/AOT_stimuli/rescaled_final/1259_fw.mp4	0.0	269.29813838005066	
57	254.021625995636	pulse	1	t		55.0	2.5	/experiments/Knapen_AOT/AOT_stimuli/rescaled_final/1259_fw.mp4	0.0	270.8997964859009	
57	254.53814125061035	fix_post	2		12	55.0	2.5	/experiments/Knapen_AOT/AOT_stimuli/rescaled_final/1259_fw.mp4	0.0	271.41631174087524	0.10007095336914062
58	254.6382122039795	fix_pre	0		119	56.0	2.5	blank	1.0	271.5163826942444	0.9917130470275879
58	255.6218922138214	pulse	0	t		56.0	2.5	blank	1.0	272.5000627040863	
58	255.62992525100708	movie	1		301	56.0	2.5	blank	1.0	272.508095741272	2.5089049339294434
58	257.22211265563965	pulse	1	t		56.0	2.5	blank	1.0	274.10028314590454	
58	258.1388301849365	fix_post	2		12	56.0	2.5	blank	1.0	275.0170006752014	0.09988999366760254
59	258.2387201786041	fix_pre	0		120	57.0	2.5	/experiments/Knapen_AOT/AOT_stimuli/rescaled_final/0201_rv.mp4	0.0	275.116890668869	1.0084974765777588
59	258.8225944042206	pulse	0	t		57.0	2.5	/experiments/Knapen_AOT/AOT_stimuli/rescaled_final/0201_rv.mp4	0.0	275.7007648944855	
59	259.2472176551819	movie	1		281	57.0	2.5	/experiments/Knapen_AOT/AOT_stimuli/rescaled_final/0201_rv.mp4	0.0	276.1253881454468	2.4919991493225098
59	260.42086839675903	pulse	1	t		57.0	2.5	/experiments/Knapen_AOT/AOT_stimuli/rescaled_final/0201_rv.mp4	0.0	277.2990388870239	
59	261.7392168045044	fix_post	2		12	57.0	2.5	/experiments/Knapen_AOT/AOT_stimuli/rescaled_final/0201_rv.mp4	0.0	278.6173872947693	0.10008907318115234
60	261.83930587768555	fix_pre	0		120	58.0	2.5	/experiments/Knapen_AOT/AOT_stimuli/rescaled_final/1664_fw.mp4	0.0	278.71747636795044	1.0084455013275146
60	262.0229685306549	pulse	0	t		58.0	2.5	/experiments/Knapen_AOT/AOT_stimuli/rescaled_final/1664_fw.mp4	0.0	278.9011390209198	
60	262.84775137901306	movie	1		287	58.0	2.5	/experiments/Knapen_AOT/AOT_stimuli/rescaled_final/1664_fw.mp4	0.0	279.72592186927795	2.4920718669891357
60	263.6210217475891	pulse	1	t		58.0	2.5	/experiments/Knapen_AOT/AOT_stimuli/rescaled_final/1664_fw.mp4	0.0	280.499192237854	
60	265.22173023223877	pulse	1	t		58.0	2.5	/experiments/Knapen_AOT/AOT_stimuli/rescaled_final/1664_fw.mp4	0.0	282.09990072250366	
60	265.3398232460022	fix_post	2		12	58.0	2.5	/experiments/Knapen_AOT/AOT_stimuli/rescaled_final/1664_fw.mp4	0.0	282.2179937362671	0.09995031356811523
61	265.4397735595703	fix_pre	0		120	59.0	2.5	/experiments/Knapen_AOT/AOT_stimuli/rescaled_final/1597_rv.mp4	0.0	282.3179440498352	1.0084705352783203
61	266.44824409484863	movie	1		280	59.0	2.5	/experiments/Knapen_AOT/AOT_stimuli/rescaled_final/1597_rv.mp4	0.0	283.3264145851135	2.4920482635498047
61	266.82377195358276	pulse	1	t		59.0	2.5	/experiments/Knapen_AOT/AOT_stimuli/rescaled_final/1597_rv.mp4	0.0	283.70194244384766	
61	268.41577219963074	pulse	1	t		59.0	2.5	/experiments/Knapen_AOT/AOT_stimuli/rescaled_final/1597_rv.mp4	0.0	285.29394268989563	
61	268.94029235839844	fix_post	2		12	59.0	2.5	/experiments/Knapen_AOT/AOT_stimuli/rescaled_final/1597_rv.mp4	0.0	285.81846284866333	0.10003495216369629
62	269.04032731056213	fix_pre	0		118	60.0	2.5	/experiments/Knapen_AOT/AOT_stimuli/rescaled_final/1012_rv.mp4	0.0	285.918497800827	0.9918370246887207
62	270.0157539844513	pulse	0	t		60.0	2.5	/experiments/Knapen_AOT/AOT_stimuli/rescaled_final/1012_rv.mp4	0.0	286.8939244747162	
62	270.03216433525085	movie	1		291	60.0	2.5	/experiments/Knapen_AOT/AOT_stimuli/rescaled_final/1012_rv.mp4	0.0	286.91033482551575	2.5003581047058105
62	271.6160132884979	pulse	1	t		60.0	2.5	/experiments/Knapen_AOT/AOT_stimuli/rescaled_final/1012_rv.mp4	0.0	288.4941837787628	
62	272.53252243995667	fix_post	2		12	60.0	2.5	/experiments/Knapen_AOT/AOT_stimuli/rescaled_final/1012_rv.mp4	0.0	289.41069293022156	0.10004949569702148
63	272.6325719356537	fix_pre	0		120	61.0	2.5	/experiments/Knapen_AOT/AOT_stimuli/rescaled_final/1897_fw.mp4	0.0	289.5107424259186	1.0084435939788818
63	273.2162570953369	pulse	0	t		61.0	2.5	/experiments/Knapen_AOT/AOT_stimuli/rescaled_final/1897_fw.mp4	0.0	290.0944275856018	
63	273.64101552963257	movie	1		288	61.0	2.5	/experiments/Knapen_AOT/AOT_stimuli/rescaled_final/1897_fw.mp4	0.0	290.51918601989746	2.492035388946533
63	274.81660056114197	pulse	1	t		61.0	2.5	/experiments/Knapen_AOT/AOT_stimuli/rescaled_final/1897_fw.mp4	0.0	291.69477105140686	
63	276.1330509185791	fix_post	2		12	61.0	2.5	/experiments/Knapen_AOT/AOT_stimuli/rescaled_final/1897_fw.mp4	0.0	293.011221408844	0.10002326965332031
64	276.2330741882324	fix_pre	0		120	62.0	2.5	blank	1.0	293.1112446784973	1.0001530647277832
64	276.41671419143677	pulse	0	t		62.0	2.5	blank	1.0	293.29488468170166	
64	277.2332272529602	movie	1		300	62.0	2.5	blank	1.0	294.1113977432251	2.500349998474121
64	278.0168766975403	pulse	1	t		62.0	2.5	blank	1.0	294.8950471878052	
64	279.61742544174194	pulse	1	t		62.0	2.5	blank	1.0	296.49559593200684	
64	279.7335772514343	fix_post	2		12	62.0	2.5	blank	1.0	296.6117477416992	0.10023021697998047
65	279.8338074684143	fix_pre	0		120	63.0	2.5	/experiments/Knapen_AOT/AOT_stimuli/rescaled_final/0909_rv.mp4	0.0	296.7119779586792	1.0083215236663818
65	280.8421289920807	movie	1		280	63.0	2.5	/experiments/Knapen_AOT/AOT_stimuli/rescaled_final/0909_rv.mp4	0.0	297.7202994823456	2.4919991493225098
65	281.216028213501	pulse	1	t		63.0	2.5	/experiments/Knapen_AOT/AOT_stimuli/rescaled_final/0909_rv.mp4	0.0	298.09419870376587	
65	282.81584906578064	pulse	1	t		63.0	2.5	/experiments/Knapen_AOT/AOT_stimuli/rescaled_final/0909_rv.mp4	0.0	299.69401955604553	
65	283.3341281414032	fix_post	2		12	63.0	2.5	/experiments/Knapen_AOT/AOT_stimuli/rescaled_final/0909_rv.mp4	0.0	300.2122986316681	0.09996795654296875
66	283.43409609794617	fix_pre	0		119	64.0	2.5	/experiments/Knapen_AOT/AOT_stimuli/rescaled_final/1914_rv.mp4	0.0	300.31226658821106	1.0086383819580078
66	284.41784596443176	pulse	0	t		64.0	2.5	/experiments/Knapen_AOT/AOT_stimuli/rescaled_final/1914_rv.mp4	0.0	301.29601645469666	
66	284.4427344799042	movie	1		281	64.0	2.5	/experiments/Knapen_AOT/AOT_stimuli/rescaled_final/1914_rv.mp4	0.0	301.32090497016907	2.491931676864624
66	286.0181829929352	pulse	1	t		64.0	2.5	/experiments/Knapen_AOT/AOT_stimuli/rescaled_final/1914_rv.mp4	0.0	302.8963534832001	
66	286.9346661567688	fix_post	2		12	64.0	2.5	/experiments/Knapen_AOT/AOT_stimuli/rescaled_final/1914_rv.mp4	0.0	303.8128366470337	0.10001254081726074
67	287.03467869758606	fix_pre	0		120	65.0	2.5	/experiments/Knapen_AOT/AOT_stimuli/rescaled_final/0326_rv.mp4	0.0	303.91284918785095	1.008591890335083
67	287.6183943748474	pulse	0	t		65.0	2.5	/experiments/Knapen_AOT/AOT_stimuli/rescaled_final/0326_rv.mp4	0.0	304.4965648651123	
67	288.04327058792114	movie	1		287	65.0	2.5	/experiments/Knapen_AOT/AOT_stimuli/rescaled_final/0326_rv.mp4	0.0	304.92144107818604	2.4919703006744385
67	289.217157125473	pulse	1	t		65.0	2.5	/experiments/Knapen_AOT/AOT_stimuli/rescaled_final/0326_rv.mp4	0.0	306.0953276157379	
67	290.5352408885956	fix_post	2		12	65.0	2.5	/experiments/Knapen_AOT/AOT_stimuli/rescaled_final/0326_rv.mp4	0.0	307.4134113788605	0.10002422332763672
68	290.6352651119232	fix_pre	0		120	66.0	2.5	/experiments/Knapen_AOT/AOT_stimuli/rescaled_final/1291_fw.mp4	0.0	307.5134356021881	1.0084774494171143
68	290.81887769699097	pulse	0	t		66.0	2.5	/experiments/Knapen_AOT/AOT_stimuli/rescaled_final/1291_fw.mp4	0.0	307.69704818725586	
68	291.64374256134033	movie	1		283	66.0	2.5	/experiments/Knapen_AOT/AOT_stimuli/rescaled_final/1291_fw.mp4	0.0	308.5219130516052	2.492004156112671
68	292.41737389564514	pulse	1	t		66.0	2.5	/experiments/Knapen_AOT/AOT_stimuli/rescaled_final/1291_fw.mp4	0.0	309.29554438591003	
68	294.0171549320221	pulse	1	t		66.0	2.5	/experiments/Knapen_AOT/AOT_stimuli/rescaled_final/1291_fw.mp4	0.0	310.895325422287	
68	294.135746717453	fix_post	2		12	66.0	2.5	/experiments/Knapen_AOT/AOT_stimuli/rescaled_final/1291_fw.mp4	0.0	311.0139172077179	0.10003137588500977
69	294.235778093338	fix_pre	0		120	67.0	2.5	/experiments/Knapen_AOT/AOT_stimuli/rescaled_final/0935_rv.mp4	0.0	311.1139485836029	1.0084834098815918
69	295.2442615032196	movie	1		277	67.0	2.5	/experiments/Knapen_AOT/AOT_stimuli/rescaled_final/0935_rv.mp4	0.0	312.1224319934845	2.492037296295166
69	295.618501663208	pulse	1	t		67.0	2.5	/experiments/Knapen_AOT/AOT_stimuli/rescaled_final/0935_rv.mp4	0.0	312.4966721534729	
69	297.21831583976746	pulse	1	t		67.0	2.5	/experiments/Knapen_AOT/AOT_stimuli/rescaled_final/0935_rv.mp4	0.0	314.09648633003235	
69	297.73629879951477	fix_post	2		12	67.0	2.5	/experiments/Knapen_AOT/AOT_stimuli/rescaled_final/0935_rv.mp4	0.0	314.61446928977966	0.10001587867736816
70	297.83631467819214	fix_pre	0		119	68.0	2.5	blank	1.0	314.71448516845703	0.9917795658111572
70	298.8200161457062	pulse	0	t		68.0	2.5	blank	1.0	315.69818663597107	
70	298.8280942440033	movie	1		301	68.0	2.5	blank	1.0	315.7062647342682	2.5087523460388184
70	300.42049503326416	pulse	1	t		68.0	2.5	blank	1.0	317.29866552352905	
70	301.3368465900421	fix_post	2		12	68.0	2.5	blank	1.0	318.215017080307	0.10009002685546875
71	301.4369366168976	fix_pre	0		120	69.0	2.5	/experiments/Knapen_AOT/AOT_stimuli/rescaled_final/1074_fw.mp4	0.0	318.3151071071625	1.0083975791931152
71	302.0207221508026	pulse	0	t		69.0	2.5	/experiments/Knapen_AOT/AOT_stimuli/rescaled_final/1074_fw.mp4	0.0	318.8988926410675	
71	302.4453341960907	movie	1		286	69.0	2.5	/experiments/Knapen_AOT/AOT_stimuli/rescaled_final/1074_fw.mp4	0.0	319.3235046863556	2.4921882152557373
71	303.61970496177673	pulse	1	t		69.0	2.5	/experiments/Knapen_AOT/AOT_stimuli/rescaled_final/1074_fw.mp4	0.0	320.4978754520416	
71	304.93752241134644	fix_post	2		12	69.0	2.5	/experiments/Knapen_AOT/AOT_stimuli/rescaled_final/1074_fw.mp4	0.0	321.8156929016113	0.09987163543701172
72	305.03739404678345	fix_pre	0		120	70.0	2.5	/experiments/Knapen_AOT/AOT_stimuli/rescaled_final/0481_fw.mp4	0.0	321.91556453704834	1.0085391998291016
72	305.2211580276489	pulse	0	t		70.0	2.5	/experiments/Knapen_AOT/AOT_stimuli/rescaled_final/0481_fw.mp4	0.0	322.0993285179138	
72	306.04593324661255	movie	1		270	70.0	2.5	/experiments/Knapen_AOT/AOT_stimuli/rescaled_final/0481_fw.mp4	0.0	322.92410373687744	2.492128849029541
72	306.8189742565155	pulse	1	t		70.0	2.5	/experiments/Knapen_AOT/AOT_stimuli/rescaled_final/0481_fw.mp4	0.0	323.6971447467804	
72	308.4214885234833	pulse	1	t		70.0	2.5	/experiments/Knapen_AOT/AOT_stimuli/rescaled_final/0481_fw.mp4	0.0	325.29965901374817	
72	308.5380620956421	fix_post	2		12	70.0	2.5	/experiments/Knapen_AOT/AOT_stimuli/rescaled_final/0481_fw.mp4	0.0	325.416232585907	0.09988188743591309
73	308.637943983078	fix_pre	0		120	71.0	2.5	/experiments/Knapen_AOT/AOT_stimuli/rescaled_final/1707_rv.mp4	0.0	325.5161144733429	1.008495569229126
73	309.64643955230713	movie	1		287	71.0	2.5	/experiments/Knapen_AOT/AOT_stimuli/rescaled_final/1707_rv.mp4	0.0	326.524610042572	2.4921011924743652
73	310.0201766490936	pulse	1	t		71.0	2.5	/experiments/Knapen_AOT/AOT_stimuli/rescaled_final/1707_rv.mp4	0.0	326.8983471393585	
73	311.62042474746704	pulse	1	t		71.0	2.5	/experiments/Knapen_AOT/AOT_stimuli/rescaled_final/1707_rv.mp4	0.0	328.49859523773193	
73	312.1385407447815	fix_post	2		12	71.0	2.5	/experiments/Knapen_AOT/AOT_stimuli/rescaled_final/1707_rv.mp4	0.0	329.0167112350464	0.09995222091674805
74	312.23849296569824	fix_pre	0		119	72.0	2.5	/experiments/Knapen_AOT/AOT_stimuli/rescaled_final/2179_rv.mp4	0.0	329.11666345596313	1.000140905380249
74	313.22230792045593	pulse	0	t		72.0	2.5	/experiments/Knapen_AOT/AOT_stimuli/rescaled_final/2179_rv.mp4	0.0	330.1004784107208	
74	313.2386338710785	movie	1		281	72.0	2.5	/experiments/Knapen_AOT/AOT_stimuli/rescaled_final/2179_rv.mp4	0.0	330.1168043613434	2.5003650188446045
74	314.82104444503784	pulse	1	t		72.0	2.5	/experiments/Knapen_AOT/AOT_stimuli/rescaled_final/2179_rv.mp4	0.0	331.69921493530273	
74	315.7389988899231	fix_post	2		12	72.0	2.5	/experiments/Knapen_AOT/AOT_stimuli/rescaled_final/2179_rv.mp4	0.0	332.617169380188	0.10002970695495605
75	315.83902859687805	fix_pre	0		120	73.0	2.5	/experiments/Knapen_AOT/AOT_stimuli/rescaled_final/1448_fw.mp4	0.0	332.71719908714294	1.0085155963897705
75	316.4226541519165	pulse	0	t		73.0	2.5	/experiments/Knapen_AOT/AOT_stimuli/rescaled_final/1448_fw.mp4	0.0	333.3008246421814	
75	316.8475441932678	movie	1		282	73.0	2.5	/experiments/Knapen_AOT/AOT_stimuli/rescaled_final/1448_fw.mp4	0.0	333.7257146835327	2.4919865131378174
75	318.02081060409546	pulse	1	t		73.0	2.5	/experiments/Knapen_AOT/AOT_stimuli/rescaled_final/1448_fw.mp4	0.0	334.89898109436035	
75	319.33953070640564	fix_post	2		12	73.0	2.5	/experiments/Knapen_AOT/AOT_stimuli/rescaled_final/1448_fw.mp4	0.0	336.21770119667053	0.10005998611450195
76	319.43959069252014	fix_pre	0		120	74.0	2.5	/experiments/Knapen_AOT/AOT_stimuli/rescaled_final/1973_rv.mp4	0.0	336.31776118278503	1.008483648300171
76	319.62314677238464	pulse	0	t		74.0	2.5	/experiments/Knapen_AOT/AOT_stimuli/rescaled_final/1973_rv.mp4	0.0	336.50131726264954	
76	320.4480743408203	movie	1		275	74.0	2.5	/experiments/Knapen_AOT/AOT_stimuli/rescaled_final/1973_rv.mp4	0.0	337.3262448310852	2.4921679496765137
76	321.2219626903534	pulse	1	t		74.0	2.5	/experiments/Knapen_AOT/AOT_stimuli/rescaled_final/1973_rv.mp4	0.0	338.1001331806183	
76	322.82158374786377	pulse	1	t		74.0	2.5	/experiments/Knapen_AOT/AOT_stimuli/rescaled_final/1973_rv.mp4	0.0	339.69975423812866	
76	322.9402422904968	fix_post	2		12	74.0	2.5	/experiments/Knapen_AOT/AOT_stimuli/rescaled_final/1973_rv.mp4	0.0	339.8184127807617	0.0998837947845459
77	323.0401260852814	fix_pre	0		120	75.0	2.5	blank	1.0	339.91829657554626	1.0002236366271973
77	324.04034972190857	movie	1		300	75.0	2.5	blank	1.0	340.91852021217346	2.500311851501465
77	324.4170951843262	pulse	1	t		75.0	2.5	blank	1.0	341.29526567459106	
77	326.0161988735199	pulse	1	t		75.0	2.5	blank	1.0	342.8943693637848	
77	326.54066157341003	fix_post	2		12	75.0	2.5	blank	1.0	343.4188320636749	0.10000181198120117
78	326.64066338539124	fix_pre	0		118	76.0	2.5	/experiments/Knapen_AOT/AOT_stimuli/rescaled_final/1400_rv.mp4	0.0	343.5188338756561	0.9919207096099854
78	327.6161735057831	pulse	0	t		76.0	2.5	/experiments/Knapen_AOT/AOT_stimuli/rescaled_final/1400_rv.mp4	0.0	344.494343996048	
78	327.6325840950012	movie	1		265	76.0	2.5	/experiments/Knapen_AOT/AOT_stimuli/rescaled_final/1400_rv.mp4	0.0	344.5107545852661	2.5003323554992676
78	329.21619868278503	pulse	1	t		76.0	2.5	/experiments/Knapen_AOT/AOT_stimuli/rescaled_final/1400_rv.mp4	0.0	346.0943691730499	
78	330.1329164505005	fix_post	2		12	76.0	2.5	/experiments/Knapen_AOT/AOT_stimuli/rescaled_final/1400_rv.mp4	0.0	347.0110869407654	0.10012173652648926
79	330.233038187027	fix_pre	0		120	77.0	2.5	/experiments/Knapen_AOT/AOT_stimuli/rescaled_final/0041_rv.mp4	0.0	347.11120867729187	1.0084350109100342
79	330.81670784950256	pulse	0	t		77.0	2.5	/experiments/Knapen_AOT/AOT_stimuli/rescaled_final/0041_rv.mp4	0.0	347.69487833976746	
79	331.241473197937	movie	1		275	77.0	2.5	/experiments/Knapen_AOT/AOT_stimuli/rescaled_final/0041_rv.mp4	0.0	348.1196436882019	2.4918882846832275
79	332.416796207428	pulse	1	t		77.0	2.5	/experiments/Knapen_AOT/AOT_stimuli/rescaled_final/0041_rv.mp4	0.0	349.29496669769287	
79	333.73336148262024	fix_post	2		12	77.0	2.5	/experiments/Knapen_AOT/AOT_stimuli/rescaled_final/0041_rv.mp4	0.0	350.61153197288513	0.10004711151123047
80	333.83340859413147	fix_pre	0		120	78.0	2.5	/experiments/Knapen_AOT/AOT_stimuli/rescaled_final/1780_fw.mp4	0.0	350.71157908439636	1.0084192752838135
80	334.0170238018036	pulse	0	t		78.0	2.5	/experiments/Knapen_AOT/AOT_stimuli/rescaled_final/1780_fw.mp4	0.0	350.8951942920685	
80	334.8418278694153	movie	1		283	78.0	2.5	/experiments/Knapen_AOT/AOT_stimuli/rescaled_final/1780_fw.mp4	0.0	351.7199983596802	2.4921014308929443
80	335.61610889434814	pulse	1	t		78.0	2.5	/experiments/Knapen_AOT/AOT_stimuli/rescaled_final/1780_fw.mp4	0.0	352.49427938461304	
80	337.21758580207825	pulse	1	t		78.0	2.5	/experiments/Knapen_AOT/AOT_stimuli/rescaled_final/1780_fw.mp4	0.0	354.09575629234314	
80	337.3339293003082	fix_post	2		12	78.0	2.5	/experiments/Knapen_AOT/AOT_stimuli/rescaled_final/1780_fw.mp4	0.0	354.2120997905731	0.10011410713195801
81	337.4340434074402	fix_pre	0		120	79.0	2.5	/experiments/Knapen_AOT/AOT_stimuli/rescaled_final/2094_fw.mp4	0.0	354.3122138977051	1.0083935260772705
81	338.44243693351746	movie	1		274	79.0	2.5	/experiments/Knapen_AOT/AOT_stimuli/rescaled_final/2094_fw.mp4	0.0	355.32060742378235	2.4920413494110107
81	338.8160648345947	pulse	1	t		79.0	2.5	/experiments/Knapen_AOT/AOT_stimuli/rescaled_final/2094_fw.mp4	0.0	355.6942353248596	
81	340.4180643558502	pulse	1	t		79.0	2.5	/experiments/Knapen_AOT/AOT_stimuli/rescaled_final/2094_fw.mp4	0.0	357.2962348461151	
81	340.93447828292847	fix_post	2		12	79.0	2.5	/experiments/Knapen_AOT/AOT_stimuli/rescaled_final/2094_fw.mp4	0.0	357.81264877319336	0.10001015663146973
82	341.03448843955994	fix_pre	0		119	80.0	2.5	/experiments/Knapen_AOT/AOT_stimuli/rescaled_final/1470_fw.mp4	0.0	357.91265892982483	1.0001792907714844
82	342.0182137489319	pulse	0	t		80.0	2.5	/experiments/Knapen_AOT/AOT_stimuli/rescaled_final/1470_fw.mp4	0.0	358.8963842391968	
82	342.0346677303314	movie	1		277	80.0	2.5	/experiments/Knapen_AOT/AOT_stimuli/rescaled_final/1470_fw.mp4	0.0	358.9128382205963	2.500328302383423
82	343.6172299385071	pulse	1	t		80.0	2.5	/experiments/Knapen_AOT/AOT_stimuli/rescaled_final/1470_fw.mp4	0.0	360.495400428772	
82	344.53499603271484	fix_post	2		12	80.0	2.5	/experiments/Knapen_AOT/AOT_stimuli/rescaled_final/1470_fw.mp4	0.0	361.41316652297974	0.10004448890686035
83	344.6350405216217	fix_pre	0		120	81.0	2.5	/experiments/Knapen_AOT/AOT_stimuli/rescaled_final/1667_rv.mp4	0.0	361.5132110118866	1.0086064338684082
83	345.21872568130493	pulse	0	t		81.0	2.5	/experiments/Knapen_AOT/AOT_stimuli/rescaled_final/1667_rv.mp4	0.0	362.0968961715698	
83	345.6436469554901	movie	1		274	81.0	2.5	/experiments/Knapen_AOT/AOT_stimuli/rescaled_final/1667_rv.mp4	0.0	362.521817445755	2.491893768310547
83	346.8170442581177	pulse	1	t		81.0	2.5	/experiments/Knapen_AOT/AOT_stimuli/rescaled_final/1667_rv.mp4	0.0	363.69521474838257	
83	348.13554072380066	fix_post	2		12	81.0	2.5	/experiments/Knapen_AOT/AOT_stimuli/rescaled_final/1667_rv.mp4	0.0	365.01371121406555	0.10002422332763672
84	348.2355649471283	fix_pre	0		120	82.0	2.5	/experiments/Knapen_AOT/AOT_stimuli/rescaled_final/0365_fw.mp4	0.0	365.1137354373932	1.0084941387176514
84	348.4191703796387	pulse	0	t		82.0	2.5	/experiments/Knapen_AOT/AOT_stimuli/rescaled_final/0365_fw.mp4	0.0	365.29734086990356	
84	349.24405908584595	movie	1		255	82.0	2.5	/experiments/Knapen_AOT/AOT_stimuli/rescaled_final/0365_fw.mp4	0.0	366.12222957611084	2.4922568798065186
84	350.0177900791168	pulse	1	t		82.0	2.5	/experiments/Knapen_AOT/AOT_stimuli/rescaled_final/0365_fw.mp4	0.0	366.8959605693817	
84	351.617977142334	pulse	1	t		82.0	2.5	/experiments/Knapen_AOT/AOT_stimuli/rescaled_final/0365_fw.mp4	0.0	368.4961476325989	
84	351.73631596565247	fix_post	2		12	82.0	2.5	/experiments/Knapen_AOT/AOT_stimuli/rescaled_final/0365_fw.mp4	0.0	368.61448645591736	0.09984135627746582
85	351.83615732192993	fix_pre	0		120	83.0	2.5	blank	1.0	368.7143278121948	1.0000901222229004
85	352.83624744415283	movie	1		300	83.0	2.5	blank	1.0	369.7144179344177	2.5003557205200195
85	353.21988248825073	pulse	1	t		83.0	2.5	blank	1.0	370.0980529785156	
85	354.8201389312744	pulse	1	t		83.0	2.5	blank	1.0	371.6983094215393	
85	355.33660316467285	fix_post	2		12	83.0	2.5	blank	1.0	372.21477365493774	0.10000991821289062
87	355.43661308288574	stim	0		1716					372.31478357315063	14.302184820175171
87	356.42035961151123	pulse	0	t						373.2985301017761	
87	358.0207016468048	pulse	0	t						374.8988721370697	
87	359.62091588974	pulse	0	t						376.4990863800049	
87	361.2211682796478	pulse	0	t						378.0993387699127	
87	362.8213257789612	pulse	0	t						379.6994962692261	
87	364.42162704467773	pulse	0	t						381.2997975349426	
87	366.0217945575714	pulse	0	t						382.8999650478363	
87	367.6222496032715	pulse	0	t						384.5004200935364	
87	369.22225046157837	pulse	0	t						386.10042095184326	
