trial_nr	onset	event_type	phase	response	nr_frames	movie_index	movie_duration	movie_file	blank	onset_abs	duration
0	0.20835614204406738	stim	0		37					22.219205141067505	0.3082878589630127
0	0.5087940692901611	response	0	space						22.5196430683136	
1	0.5166440010070801	stim	0		4774					22.527493000030518	39.798885107040405
1	40.30596709251404	pulse	0	t						62.316816091537476	
1	40.315529108047485	stim	1		1716					62.32637810707092	14.300852060317993
1	41.89800500869751	pulse	1	t						63.90885400772095	
1	43.49829316139221	pulse	1	t						65.50914216041565	
1	45.09846019744873	pulse	1	t						67.10930919647217	
1	46.698782205581665	pulse	1	t						68.7096312046051	
1	48.29896306991577	pulse	1	t						70.30981206893921	
1	49.89915204048157	pulse	1	t						71.910001039505	
1	51.49934506416321	pulse	1	t						73.51019406318665	
1	53.09970498085022	pulse	1	t						75.11055397987366	
2	54.61638116836548	fix_pre	0		11	0.0	2.5	/experiments/knapen_AOT/AOT_stimuli/rescaled_final/1310_rv.mp4	0.0	76.62723016738892	0.09163784980773926
2	54.700056076049805	pulse	0	t		0.0	2.5	/experiments/knapen_AOT/AOT_stimuli/rescaled_final/1310_rv.mp4	0.0	76.71090507507324	
2	54.70801901817322	movie	1		244	0.0	2.5	/experiments/knapen_AOT/AOT_stimuli/rescaled_final/1310_rv.mp4	0.0	76.71886801719666	2.508737087249756
2	56.30130314826965	pulse	1	t		0.0	2.5	/experiments/knapen_AOT/AOT_stimuli/rescaled_final/1310_rv.mp4	0.0	78.31215214729309	
2	57.216756105422974	fix_post	2		12	0.0	2.5	/experiments/knapen_AOT/AOT_stimuli/rescaled_final/1310_rv.mp4	0.0	79.22760510444641	0.10007810592651367
3	57.31683421134949	fix_pre	0		120	1.0	2.5	/experiments/knapen_AOT/AOT_stimuli/rescaled_final/0219_fw.mp4	0.0	79.32768321037292	1.0000648498535156
3	57.900408029556274	pulse	0	t		1.0	2.5	/experiments/knapen_AOT/AOT_stimuli/rescaled_final/0219_fw.mp4	0.0	79.91125702857971	
3	58.316899061203	movie	1		244	1.0	2.5	/experiments/knapen_AOT/AOT_stimuli/rescaled_final/0219_fw.mp4	0.0	80.32774806022644	2.500368118286133
3	59.50074100494385	pulse	1	t		1.0	2.5	/experiments/knapen_AOT/AOT_stimuli/rescaled_final/0219_fw.mp4	0.0	81.51159000396729	
3	60.817267179489136	fix_post	2		12	1.0	2.5	/experiments/knapen_AOT/AOT_stimuli/rescaled_final/0219_fw.mp4	0.0	82.82811617851257	0.09999990463256836
4	60.917267084121704	fix_pre	0		120	2.0	2.5	/experiments/knapen_AOT/AOT_stimuli/rescaled_final/1586_fw.mp4	0.0	82.92811608314514	1.00018310546875
4	61.100975036621094	pulse	0	t		2.0	2.5	/experiments/knapen_AOT/AOT_stimuli/rescaled_final/1586_fw.mp4	0.0	83.11182403564453	
4	61.917450189590454	movie	1		243	2.0	2.5	/experiments/knapen_AOT/AOT_stimuli/rescaled_final/1586_fw.mp4	0.0	83.92829918861389	2.5003488063812256
4	62.70113515853882	pulse	1	t		2.0	2.5	/experiments/knapen_AOT/AOT_stimuli/rescaled_final/1586_fw.mp4	0.0	84.71198415756226	
4	64.30135416984558	pulse	1	t		2.0	2.5	/experiments/knapen_AOT/AOT_stimuli/rescaled_final/1586_fw.mp4	0.0	86.31220316886902	
4	64.41779899597168	fix_post	2		12	2.0	2.5	/experiments/knapen_AOT/AOT_stimuli/rescaled_final/1586_fw.mp4	0.0	86.42864799499512	0.10005521774291992
5	64.5178542137146	fix_pre	0		120	3.0	2.5	/experiments/knapen_AOT/AOT_stimuli/rescaled_final/0078_fw.mp4	0.0	86.52870321273804	1.000108003616333
5	65.51796221733093	movie	1		244	3.0	2.5	/experiments/knapen_AOT/AOT_stimuli/rescaled_final/0078_fw.mp4	0.0	87.52881121635437	2.4920198917388916
5	65.90214014053345	pulse	1	t		3.0	2.5	/experiments/knapen_AOT/AOT_stimuli/rescaled_final/0078_fw.mp4	0.0	87.91298913955688	
5	67.49453115463257	pulse	1	t		3.0	2.5	/experiments/knapen_AOT/AOT_stimuli/rescaled_final/0078_fw.mp4	0.0	89.505380153656	
5	68.00998210906982	fix_post	2		12	3.0	2.5	/experiments/knapen_AOT/AOT_stimuli/rescaled_final/0078_fw.mp4	0.0	90.02083110809326	0.10005903244018555
6	68.11004114151001	fix_pre	0		120	4.0	2.5	/experiments/knapen_AOT/AOT_stimuli/rescaled_final/0191_fw.mp4	0.0	90.12089014053345	1.0001399517059326
6	69.09455513954163	pulse	0	t		4.0	2.5	/experiments/knapen_AOT/AOT_stimuli/rescaled_final/0191_fw.mp4	0.0	91.10540413856506	
6	69.11018109321594	movie	1		246	4.0	2.5	/experiments/knapen_AOT/AOT_stimuli/rescaled_final/0191_fw.mp4	0.0	91.12103009223938	2.5086779594421387
6	70.70270204544067	pulse	1	t		4.0	2.5	/experiments/knapen_AOT/AOT_stimuli/rescaled_final/0191_fw.mp4	0.0	92.71355104446411	
6	71.61885905265808	fix_post	2		12	4.0	2.5	/experiments/knapen_AOT/AOT_stimuli/rescaled_final/0191_fw.mp4	0.0	93.62970805168152	0.10008502006530762
7	71.71894407272339	fix_pre	0		120	5.0	2.5	/experiments/knapen_AOT/AOT_stimuli/rescaled_final/1767_fw.mp4	0.0	93.72979307174683	1.0001001358032227
7	72.29501605033875	pulse	0	t		5.0	2.5	/experiments/knapen_AOT/AOT_stimuli/rescaled_final/1767_fw.mp4	0.0	94.30586504936218	
7	72.71904420852661	movie	1		244	5.0	2.5	/experiments/knapen_AOT/AOT_stimuli/rescaled_final/1767_fw.mp4	0.0	94.72989320755005	2.5003409385681152
7	73.89502120018005	pulse	1	t		5.0	2.5	/experiments/knapen_AOT/AOT_stimuli/rescaled_final/1767_fw.mp4	0.0	95.90587019920349	
7	75.21938514709473	fix_post	2		12	5.0	2.5	/experiments/knapen_AOT/AOT_stimuli/rescaled_final/1767_fw.mp4	0.0	97.23023414611816	0.1000678539276123
8	75.31945300102234	fix_pre	0		120	6.0	2.5	blank	1.0	97.33030200004578	1.0001330375671387
8	75.49476718902588	pulse	0	t		6.0	2.5	blank	1.0	97.50561618804932	
8	76.31958603858948	movie	1		300	6.0	2.5	blank	1.0	98.33043503761292	2.5003910064697266
8	77.09495115280151	pulse	1	t		6.0	2.5	blank	1.0	99.10580015182495	
8	78.69503617286682	pulse	1	t		6.0	2.5	blank	1.0	100.70588517189026	
8	78.8199770450592	fix_post	2		12	6.0	2.5	blank	1.0	100.83082604408264	0.09999513626098633
9	78.91997218132019	fix_pre	0		119	7.0	2.5	/experiments/knapen_AOT/AOT_stimuli/rescaled_final/1365_fw.mp4	0.0	100.93082118034363	0.9918138980865479
9	79.91178607940674	movie	1		244	7.0	2.5	/experiments/knapen_AOT/AOT_stimuli/rescaled_final/1365_fw.mp4	0.0	101.92263507843018	2.500382900238037
9	80.29610514640808	pulse	1	t		7.0	2.5	/experiments/knapen_AOT/AOT_stimuli/rescaled_final/1365_fw.mp4	0.0	102.30695414543152	
9	81.89573407173157	pulse	1	t		7.0	2.5	/experiments/knapen_AOT/AOT_stimuli/rescaled_final/1365_fw.mp4	0.0	103.906583070755	
9	82.41216897964478	fix_post	2		12	7.0	2.5	/experiments/knapen_AOT/AOT_stimuli/rescaled_final/1365_fw.mp4	0.0	104.42301797866821	0.10000920295715332
10	82.51217818260193	fix_pre	0		119	8.0	2.5	/experiments/knapen_AOT/AOT_stimuli/rescaled_final/0087_rv.mp4	0.0	104.52302718162537	0.9918198585510254
10	83.49584317207336	pulse	0	t		8.0	2.5	/experiments/knapen_AOT/AOT_stimuli/rescaled_final/0087_rv.mp4	0.0	105.5066921710968	
10	83.50399804115295	movie	1		245	8.0	2.5	/experiments/knapen_AOT/AOT_stimuli/rescaled_final/0087_rv.mp4	0.0	105.51484704017639	2.5086729526519775
10	85.09749507904053	pulse	1	t		8.0	2.5	/experiments/knapen_AOT/AOT_stimuli/rescaled_final/0087_rv.mp4	0.0	107.10834407806396	
10	86.01267099380493	fix_post	2		12	8.0	2.5	/experiments/knapen_AOT/AOT_stimuli/rescaled_final/0087_rv.mp4	0.0	108.02351999282837	0.10005402565002441
11	86.11272501945496	fix_pre	0		120	9.0	2.5	/experiments/knapen_AOT/AOT_stimuli/rescaled_final/0124_fw.mp4	0.0	108.1235740184784	1.0001330375671387
11	86.69629311561584	pulse	0	t		9.0	2.5	/experiments/knapen_AOT/AOT_stimuli/rescaled_final/0124_fw.mp4	0.0	108.70714211463928	
11	87.1128580570221	movie	1		243	9.0	2.5	/experiments/knapen_AOT/AOT_stimuli/rescaled_final/0124_fw.mp4	0.0	109.12370705604553	2.5003719329833984
11	88.2967619895935	pulse	1	t		9.0	2.5	/experiments/knapen_AOT/AOT_stimuli/rescaled_final/0124_fw.mp4	0.0	110.30761098861694	
11	89.6132299900055	fix_post	2		12	9.0	2.5	/experiments/knapen_AOT/AOT_stimuli/rescaled_final/0124_fw.mp4	0.0	111.62407898902893	0.09999299049377441
12	89.71322298049927	fix_pre	0		120	10.0	2.5	/experiments/knapen_AOT/AOT_stimuli/rescaled_final/1069_fw.mp4	0.0	111.7240719795227	1.0001850128173828
12	89.89679718017578	pulse	0	t		10.0	2.5	/experiments/knapen_AOT/AOT_stimuli/rescaled_final/1069_fw.mp4	0.0	111.90764617919922	
12	90.71340799331665	movie	1		243	10.0	2.5	/experiments/knapen_AOT/AOT_stimuli/rescaled_final/1069_fw.mp4	0.0	112.72425699234009	2.5003340244293213
12	91.49705004692078	pulse	1	t		10.0	2.5	/experiments/knapen_AOT/AOT_stimuli/rescaled_final/1069_fw.mp4	0.0	113.50789904594421	
12	93.09749698638916	pulse	1	t		10.0	2.5	/experiments/knapen_AOT/AOT_stimuli/rescaled_final/1069_fw.mp4	0.0	115.1083459854126	
12	93.21374201774597	fix_post	2		12	10.0	2.5	/experiments/knapen_AOT/AOT_stimuli/rescaled_final/1069_fw.mp4	0.0	115.22459101676941	0.10008907318115234
13	93.31383109092712	fix_pre	0		120	11.0	2.5	/experiments/knapen_AOT/AOT_stimuli/rescaled_final/1112_rv.mp4	0.0	115.32468008995056	1.0000779628753662
13	94.31390905380249	movie	1		242	11.0	2.5	/experiments/knapen_AOT/AOT_stimuli/rescaled_final/1112_rv.mp4	0.0	116.32475805282593	2.492077112197876
13	94.69898915290833	pulse	1	t		11.0	2.5	/experiments/knapen_AOT/AOT_stimuli/rescaled_final/1112_rv.mp4	0.0	116.70983815193176	
13	96.29786920547485	pulse	1	t		11.0	2.5	/experiments/knapen_AOT/AOT_stimuli/rescaled_final/1112_rv.mp4	0.0	118.30871820449829	
13	96.80598616600037	fix_post	2		12	11.0	2.5	/experiments/knapen_AOT/AOT_stimuli/rescaled_final/1112_rv.mp4	0.0	118.8168351650238	0.10001587867736816
14	96.90600204467773	fix_pre	0		118	12.0	2.5	/experiments/knapen_AOT/AOT_stimuli/rescaled_final/1503_fw.mp4	0.0	118.91685104370117	1.0001499652862549
14	97.8981020450592	pulse	0	t		12.0	2.5	/experiments/knapen_AOT/AOT_stimuli/rescaled_final/1503_fw.mp4	0.0	119.90895104408264	
14	97.90615200996399	movie	1		245	12.0	2.5	/experiments/knapen_AOT/AOT_stimuli/rescaled_final/1503_fw.mp4	0.0	119.91700100898743	2.508665084838867
14	99.4989960193634	pulse	1	t		12.0	2.5	/experiments/knapen_AOT/AOT_stimuli/rescaled_final/1503_fw.mp4	0.0	121.50984501838684	
14	100.41481709480286	fix_post	2		12	12.0	2.5	/experiments/knapen_AOT/AOT_stimuli/rescaled_final/1503_fw.mp4	0.0	122.4256660938263	0.10004091262817383
15	100.51485800743103	fix_pre	0		120	13.0	2.5	/experiments/knapen_AOT/AOT_stimuli/rescaled_final/1346_fw.mp4	0.0	122.52570700645447	1.0001389980316162
15	101.09845399856567	pulse	0	t		13.0	2.5	/experiments/knapen_AOT/AOT_stimuli/rescaled_final/1346_fw.mp4	0.0	123.10930299758911	
15	101.51499700546265	movie	1		243	13.0	2.5	/experiments/knapen_AOT/AOT_stimuli/rescaled_final/1346_fw.mp4	0.0	123.52584600448608	2.500357151031494
15	102.69891619682312	pulse	1	t		13.0	2.5	/experiments/knapen_AOT/AOT_stimuli/rescaled_final/1346_fw.mp4	0.0	124.70976519584656	
15	104.01535415649414	fix_post	2		12	13.0	2.5	/experiments/knapen_AOT/AOT_stimuli/rescaled_final/1346_fw.mp4	0.0	126.02620315551758	0.10001587867736816
16	104.11537003517151	fix_pre	0		120	14.0	2.5	blank	1.0	126.12621903419495	1.000204086303711
16	104.29901218414307	pulse	0	t		14.0	2.5	blank	1.0	126.3098611831665	
16	105.11557412147522	movie	1		300	14.0	2.5	blank	1.0	127.12642312049866	2.5003480911254883
16	105.89915299415588	pulse	1	t		14.0	2.5	blank	1.0	127.91000199317932	
16	107.49951601028442	pulse	1	t		14.0	2.5	blank	1.0	129.51036500930786	
16	107.61592221260071	fix_post	2		12	14.0	2.5	blank	1.0	129.62677121162415	0.1000058650970459
17	107.71592807769775	fix_pre	0		120	15.0	2.5	/experiments/knapen_AOT/AOT_stimuli/rescaled_final/2119_rv.mp4	0.0	129.7267770767212	1.0001940727233887
17	108.71612215042114	movie	1		248	15.0	2.5	/experiments/knapen_AOT/AOT_stimuli/rescaled_final/2119_rv.mp4	0.0	130.72697114944458	2.492003917694092
17	109.10008907318115	pulse	1	t		15.0	2.5	/experiments/knapen_AOT/AOT_stimuli/rescaled_final/2119_rv.mp4	0.0	131.1109380722046	
17	110.69987511634827	pulse	1	t		15.0	2.5	/experiments/knapen_AOT/AOT_stimuli/rescaled_final/2119_rv.mp4	0.0	132.7107241153717	
17	111.20812606811523	fix_post	2		12	15.0	2.5	/experiments/knapen_AOT/AOT_stimuli/rescaled_final/2119_rv.mp4	0.0	133.21897506713867	0.10000205039978027
18	111.30812811851501	fix_pre	0		120	16.0	2.5	/experiments/knapen_AOT/AOT_stimuli/rescaled_final/1354_rv.mp4	0.0	133.31897711753845	1.000154972076416
18	112.30017518997192	pulse	0	t		16.0	2.5	/experiments/knapen_AOT/AOT_stimuli/rescaled_final/1354_rv.mp4	0.0	134.31102418899536	
18	112.30828309059143	movie	1		244	16.0	2.5	/experiments/knapen_AOT/AOT_stimuli/rescaled_final/1354_rv.mp4	0.0	134.31913208961487	2.5088539123535156
18	113.9016740322113	pulse	1	t		16.0	2.5	/experiments/knapen_AOT/AOT_stimuli/rescaled_final/1354_rv.mp4	0.0	135.91252303123474	
18	114.81713700294495	fix_post	2		12	16.0	2.5	/experiments/knapen_AOT/AOT_stimuli/rescaled_final/1354_rv.mp4	0.0	136.82798600196838	0.09987401962280273
19	114.91701102256775	fix_pre	0		120	17.0	2.5	/experiments/knapen_AOT/AOT_stimuli/rescaled_final/1315_rv.mp4	0.0	136.9278600215912	1.0001561641693115
19	115.50076699256897	pulse	0	t		17.0	2.5	/experiments/knapen_AOT/AOT_stimuli/rescaled_final/1315_rv.mp4	0.0	137.5116159915924	
19	115.91716718673706	movie	1		244	17.0	2.5	/experiments/knapen_AOT/AOT_stimuli/rescaled_final/1315_rv.mp4	0.0	137.9280161857605	2.5003468990325928
19	117.10106611251831	pulse	1	t		17.0	2.5	/experiments/knapen_AOT/AOT_stimuli/rescaled_final/1315_rv.mp4	0.0	139.11191511154175	
19	118.41751408576965	fix_post	2		12	17.0	2.5	/experiments/knapen_AOT/AOT_stimuli/rescaled_final/1315_rv.mp4	0.0	140.4283630847931	0.10002899169921875
20	118.51754307746887	fix_pre	0		120	18.0	2.5	/experiments/knapen_AOT/AOT_stimuli/rescaled_final/1096_rv.mp4	0.0	140.5283920764923	1.0001769065856934
20	118.70111012458801	pulse	0	t		18.0	2.5	/experiments/knapen_AOT/AOT_stimuli/rescaled_final/1096_rv.mp4	0.0	140.71195912361145	
20	119.51771998405457	movie	1		244	18.0	2.5	/experiments/knapen_AOT/AOT_stimuli/rescaled_final/1096_rv.mp4	0.0	141.528568983078	2.5003111362457275
20	120.3013710975647	pulse	1	t		18.0	2.5	/experiments/knapen_AOT/AOT_stimuli/rescaled_final/1096_rv.mp4	0.0	142.31222009658813	
20	121.90149712562561	pulse	1	t		18.0	2.5	/experiments/knapen_AOT/AOT_stimuli/rescaled_final/1096_rv.mp4	0.0	143.91234612464905	
20	122.0180311203003	fix_post	2		12	18.0	2.5	/experiments/knapen_AOT/AOT_stimuli/rescaled_final/1096_rv.mp4	0.0	144.02888011932373	0.10002899169921875
21	122.11806011199951	fix_pre	0		120	19.0	2.5	blank	1.0	144.12890911102295	1.0001518726348877
21	123.1182119846344	movie	1		299	19.0	2.5	blank	1.0	145.12906098365784	2.492098093032837
21	123.50194907188416	pulse	1	t		19.0	2.5	blank	1.0	145.5127980709076	
21	125.1020860671997	pulse	1	t		19.0	2.5	blank	1.0	147.11293506622314	
21	125.61031007766724	fix_post	2		12	19.0	2.5	blank	1.0	147.62115907669067	0.10013890266418457
22	125.71044898033142	fix_pre	0		120	20.0	2.5	/experiments/knapen_AOT/AOT_stimuli/rescaled_final/1541_rv.mp4	0.0	147.72129797935486	1.0000290870666504
22	126.70223212242126	pulse	0	t		20.0	2.5	/experiments/knapen_AOT/AOT_stimuli/rescaled_final/1541_rv.mp4	0.0	148.7130811214447	
22	126.71047806739807	movie	1		245	20.0	2.5	/experiments/knapen_AOT/AOT_stimuli/rescaled_final/1541_rv.mp4	0.0	148.7213270664215	2.5086429119110107
22	128.30287718772888	pulse	1	t		20.0	2.5	/experiments/knapen_AOT/AOT_stimuli/rescaled_final/1541_rv.mp4	0.0	150.31372618675232	
22	129.21912097930908	fix_post	2		12	20.0	2.5	/experiments/knapen_AOT/AOT_stimuli/rescaled_final/1541_rv.mp4	0.0	151.22996997833252	0.10001516342163086
23	129.3191361427307	fix_pre	0		120	21.0	2.5	/experiments/knapen_AOT/AOT_stimuli/rescaled_final/0863_rv.mp4	0.0	151.32998514175415	1.0001978874206543
23	129.9028902053833	pulse	0	t		21.0	2.5	/experiments/knapen_AOT/AOT_stimuli/rescaled_final/0863_rv.mp4	0.0	151.91373920440674	
23	130.31933403015137	movie	1		243	21.0	2.5	/experiments/knapen_AOT/AOT_stimuli/rescaled_final/0863_rv.mp4	0.0	152.3301830291748	2.5003249645233154
23	131.4959101676941	pulse	1	t		21.0	2.5	/experiments/knapen_AOT/AOT_stimuli/rescaled_final/0863_rv.mp4	0.0	153.50675916671753	
23	132.81965899467468	fix_post	2		12	21.0	2.5	/experiments/knapen_AOT/AOT_stimuli/rescaled_final/0863_rv.mp4	0.0	154.83050799369812	0.10004520416259766
24	132.91970419883728	fix_pre	0		120	22.0	2.5	/experiments/knapen_AOT/AOT_stimuli/rescaled_final/1167_fw.mp4	0.0	154.93055319786072	1.0001587867736816
24	133.09585213661194	pulse	0	t		22.0	2.5	/experiments/knapen_AOT/AOT_stimuli/rescaled_final/1167_fw.mp4	0.0	155.10670113563538	
24	133.91986298561096	movie	1		244	22.0	2.5	/experiments/knapen_AOT/AOT_stimuli/rescaled_final/1167_fw.mp4	0.0	155.9307119846344	2.500319004058838
24	134.6961350440979	pulse	1	t		22.0	2.5	/experiments/knapen_AOT/AOT_stimuli/rescaled_final/1167_fw.mp4	0.0	156.70698404312134	
24	136.2955629825592	pulse	1	t		22.0	2.5	/experiments/knapen_AOT/AOT_stimuli/rescaled_final/1167_fw.mp4	0.0	158.30641198158264	
24	136.4201819896698	fix_post	2		12	22.0	2.5	/experiments/knapen_AOT/AOT_stimuli/rescaled_final/1167_fw.mp4	0.0	158.43103098869324	0.10007619857788086
25	136.52025818824768	fix_pre	0		120	23.0	2.5	/experiments/knapen_AOT/AOT_stimuli/rescaled_final/1586_fw.mp4	0.0	158.53110718727112	1.00010085105896
25	137.52035903930664	movie	1		242	23.0	2.5	/experiments/knapen_AOT/AOT_stimuli/rescaled_final/1586_fw.mp4	0.0	159.53120803833008	2.4920670986175537
25	137.89558100700378	pulse	1	t		23.0	2.5	/experiments/knapen_AOT/AOT_stimuli/rescaled_final/1586_fw.mp4	0.0	159.90643000602722	
25	139.49593305587769	pulse	1	t		23.0	2.5	/experiments/knapen_AOT/AOT_stimuli/rescaled_final/1586_fw.mp4	0.0	161.50678205490112	
25	140.0124261379242	fix_post	2		12	23.0	2.5	/experiments/knapen_AOT/AOT_stimuli/rescaled_final/1586_fw.mp4	0.0	162.02327513694763	0.10003495216369629
26	140.1124610900879	fix_pre	0		119	24.0	2.5	/experiments/knapen_AOT/AOT_stimuli/rescaled_final/0632_fw.mp4	0.0	162.12331008911133	0.9917829036712646
26	141.09617114067078	pulse	0	t		24.0	2.5	/experiments/knapen_AOT/AOT_stimuli/rescaled_final/0632_fw.mp4	0.0	163.1070201396942	
26	141.10424399375916	movie	1		245	24.0	2.5	/experiments/knapen_AOT/AOT_stimuli/rescaled_final/0632_fw.mp4	0.0	163.1150929927826	2.5086941719055176
26	142.69769501686096	pulse	1	t		24.0	2.5	/experiments/knapen_AOT/AOT_stimuli/rescaled_final/0632_fw.mp4	0.0	164.7085440158844	
26	143.61293816566467	fix_post	2		12	24.0	2.5	/experiments/knapen_AOT/AOT_stimuli/rescaled_final/0632_fw.mp4	0.0	165.6237871646881	0.10008597373962402
27	143.7130241394043	fix_pre	0		120	25.0	2.5	/experiments/knapen_AOT/AOT_stimuli/rescaled_final/1011_rv.mp4	0.0	165.72387313842773	1.0000929832458496
27	144.29668807983398	pulse	0	t		25.0	2.5	/experiments/knapen_AOT/AOT_stimuli/rescaled_final/1011_rv.mp4	0.0	166.30753707885742	
27	144.71311712265015	movie	1		244	25.0	2.5	/experiments/knapen_AOT/AOT_stimuli/rescaled_final/1011_rv.mp4	0.0	166.72396612167358	2.500382900238037
27	145.8969759941101	pulse	1	t		25.0	2.5	/experiments/knapen_AOT/AOT_stimuli/rescaled_final/1011_rv.mp4	0.0	167.90782499313354	
27	147.21350002288818	fix_post	2		12	25.0	2.5	/experiments/knapen_AOT/AOT_stimuli/rescaled_final/1011_rv.mp4	0.0	169.22434902191162	0.10001206398010254
28	147.3135120868683	fix_pre	0		120	26.0	2.5	/experiments/knapen_AOT/AOT_stimuli/rescaled_final/0709_rv.mp4	0.0	169.32436108589172	1.0001599788665771
28	147.49706506729126	pulse	0	t		26.0	2.5	/experiments/knapen_AOT/AOT_stimuli/rescaled_final/0709_rv.mp4	0.0	169.5079140663147	
28	148.31367206573486	movie	1		244	26.0	2.5	/experiments/knapen_AOT/AOT_stimuli/rescaled_final/0709_rv.mp4	0.0	170.3245210647583	2.500322103500366
28	149.09728908538818	pulse	1	t		26.0	2.5	/experiments/knapen_AOT/AOT_stimuli/rescaled_final/0709_rv.mp4	0.0	171.10813808441162	
28	150.7002010345459	pulse	1	t		26.0	2.5	/experiments/knapen_AOT/AOT_stimuli/rescaled_final/0709_rv.mp4	0.0	172.71105003356934	
28	150.81399416923523	fix_post	2		12	26.0	2.5	/experiments/knapen_AOT/AOT_stimuli/rescaled_final/0709_rv.mp4	0.0	172.82484316825867	0.10004687309265137
29	150.91404104232788	fix_pre	0		120	27.0	2.5	blank	1.0	172.92489004135132	1.0001499652862549
29	151.91419100761414	movie	1		299	27.0	2.5	blank	1.0	173.92504000663757	2.4920201301574707
29	152.2979040145874	pulse	1	t		27.0	2.5	blank	1.0	174.30875301361084	
29	153.89810299873352	pulse	1	t		27.0	2.5	blank	1.0	175.90895199775696	
29	154.4062111377716	fix_post	2		12	27.0	2.5	blank	1.0	176.41706013679504	0.10001897811889648
30	154.5062301158905	fix_pre	0		120	28.0	2.5	/experiments/knapen_AOT/AOT_stimuli/rescaled_final/2119_fw.mp4	0.0	176.51707911491394	1.0001580715179443
30	155.49831414222717	pulse	0	t		28.0	2.5	/experiments/knapen_AOT/AOT_stimuli/rescaled_final/2119_fw.mp4	0.0	177.5091631412506	
30	155.50638818740845	movie	1		250	28.0	2.5	/experiments/knapen_AOT/AOT_stimuli/rescaled_final/2119_fw.mp4	0.0	177.51723718643188	2.5086898803710938
30	157.09960317611694	pulse	1	t		28.0	2.5	/experiments/knapen_AOT/AOT_stimuli/rescaled_final/2119_fw.mp4	0.0	179.11045217514038	
30	158.01507806777954	fix_post	2		9	28.0	2.5	/experiments/knapen_AOT/AOT_stimuli/rescaled_final/2119_fw.mp4	0.0	180.02592706680298	0.10008001327514648
31	158.1151580810547	fix_pre	0		120	29.0	2.5	/experiments/knapen_AOT/AOT_stimuli/rescaled_final/0699_fw.mp4	0.0	180.12600708007812	1.000108003616333
31	158.69878315925598	pulse	0	t		29.0	2.5	/experiments/knapen_AOT/AOT_stimuli/rescaled_final/0699_fw.mp4	0.0	180.70963215827942	
31	159.11526608467102	movie	1		244	29.0	2.5	/experiments/knapen_AOT/AOT_stimuli/rescaled_final/0699_fw.mp4	0.0	181.12611508369446	2.500338077545166
31	160.29915714263916	pulse	1	t		29.0	2.5	/experiments/knapen_AOT/AOT_stimuli/rescaled_final/0699_fw.mp4	0.0	182.3100061416626	
31	161.6156041622162	fix_post	2		12	29.0	2.5	/experiments/knapen_AOT/AOT_stimuli/rescaled_final/0699_fw.mp4	0.0	183.62645316123962	0.1000819206237793
32	161.71568608283997	fix_pre	0		120	30.0	2.5	/experiments/knapen_AOT/AOT_stimuli/rescaled_final/2091_fw.mp4	0.0	183.7265350818634	1.0001311302185059
32	161.89921712875366	pulse	0	t		30.0	2.5	/experiments/knapen_AOT/AOT_stimuli/rescaled_final/2091_fw.mp4	0.0	183.9100661277771	
32	162.71581721305847	movie	1		244	30.0	2.5	/experiments/knapen_AOT/AOT_stimuli/rescaled_final/2091_fw.mp4	0.0	184.7266662120819	2.5003278255462646
32	163.49942302703857	pulse	1	t		30.0	2.5	/experiments/knapen_AOT/AOT_stimuli/rescaled_final/2091_fw.mp4	0.0	185.510272026062	
32	165.10152912139893	pulse	1	t		30.0	2.5	/experiments/knapen_AOT/AOT_stimuli/rescaled_final/2091_fw.mp4	0.0	187.11237812042236	
32	165.21614503860474	fix_post	2		12	30.0	2.5	/experiments/knapen_AOT/AOT_stimuli/rescaled_final/2091_fw.mp4	0.0	187.22699403762817	0.10004115104675293
33	165.3161861896515	fix_pre	0		120	31.0	2.5	/experiments/knapen_AOT/AOT_stimuli/rescaled_final/1372_fw.mp4	0.0	187.32703518867493	1.0001609325408936
33	166.31634712219238	movie	1		242	31.0	2.5	/experiments/knapen_AOT/AOT_stimuli/rescaled_final/1372_fw.mp4	0.0	188.32719612121582	2.4919910430908203
33	166.70053815841675	pulse	1	t		31.0	2.5	/experiments/knapen_AOT/AOT_stimuli/rescaled_final/1372_fw.mp4	0.0	188.71138715744019	
33	168.3001790046692	pulse	1	t		31.0	2.5	/experiments/knapen_AOT/AOT_stimuli/rescaled_final/1372_fw.mp4	0.0	190.31102800369263	
33	168.8083381652832	fix_post	2		12	31.0	2.5	/experiments/knapen_AOT/AOT_stimuli/rescaled_final/1372_fw.mp4	0.0	190.81918716430664	0.1000509262084961
34	168.9083890914917	fix_pre	0		120	32.0	2.5	/experiments/knapen_AOT/AOT_stimuli/rescaled_final/0900_rv.mp4	0.0	190.91923809051514	1.000180959701538
34	169.90042114257812	pulse	0	t		32.0	2.5	/experiments/knapen_AOT/AOT_stimuli/rescaled_final/0900_rv.mp4	0.0	191.91127014160156	
34	169.90857005119324	movie	1		247	32.0	2.5	/experiments/knapen_AOT/AOT_stimuli/rescaled_final/0900_rv.mp4	0.0	191.91941905021667	2.5086400508880615
34	171.50538420677185	pulse	1	t		32.0	2.5	/experiments/knapen_AOT/AOT_stimuli/rescaled_final/0900_rv.mp4	0.0	193.5162332057953	
34	172.4172101020813	fix_post	2		12	32.0	2.5	/experiments/knapen_AOT/AOT_stimuli/rescaled_final/0900_rv.mp4	0.0	194.42805910110474	0.09999608993530273
35	172.5172061920166	fix_pre	0		120	33.0	2.5	/experiments/knapen_AOT/AOT_stimuli/rescaled_final/1845_rv.mp4	0.0	194.52805519104004	1.000187873840332
35	173.10088419914246	pulse	0	t		33.0	2.5	/experiments/knapen_AOT/AOT_stimuli/rescaled_final/1845_rv.mp4	0.0	195.1117331981659	
35	173.51739406585693	movie	1		243	33.0	2.5	/experiments/knapen_AOT/AOT_stimuli/rescaled_final/1845_rv.mp4	0.0	195.52824306488037	2.5003559589385986
35	174.70135307312012	pulse	1	t		33.0	2.5	/experiments/knapen_AOT/AOT_stimuli/rescaled_final/1845_rv.mp4	0.0	196.71220207214355	
35	176.01775002479553	fix_post	2		12	33.0	2.5	/experiments/knapen_AOT/AOT_stimuli/rescaled_final/1845_rv.mp4	0.0	198.02859902381897	0.10003304481506348
36	176.1177830696106	fix_pre	0		120	34.0	2.5	blank	1.0	198.12863206863403	1.00018310546875
36	176.301420211792	pulse	0	t		34.0	2.5	blank	1.0	198.31226921081543	
36	177.11796617507935	movie	1		300	34.0	2.5	blank	1.0	199.12881517410278	2.500363826751709
36	177.90166115760803	pulse	1	t		34.0	2.5	blank	1.0	199.91251015663147	
36	179.5018219947815	pulse	1	t		34.0	2.5	blank	1.0	201.51267099380493	
36	179.61833000183105	fix_post	2		12	34.0	2.5	blank	1.0	201.6291790008545	0.09998798370361328
37	179.71831798553467	fix_pre	0		120	35.0	2.5	/experiments/knapen_AOT/AOT_stimuli/rescaled_final/1131_rv.mp4	0.0	201.7291669845581	1.0001912117004395
37	180.7185091972351	movie	1		243	35.0	2.5	/experiments/knapen_AOT/AOT_stimuli/rescaled_final/1131_rv.mp4	0.0	202.72935819625854	2.492137908935547
37	181.1026861667633	pulse	1	t		35.0	2.5	/experiments/knapen_AOT/AOT_stimuli/rescaled_final/1131_rv.mp4	0.0	203.11353516578674	
37	182.694993019104	pulse	1	t		35.0	2.5	/experiments/knapen_AOT/AOT_stimuli/rescaled_final/1131_rv.mp4	0.0	204.70584201812744	
37	183.21064710617065	fix_post	2		12	35.0	2.5	/experiments/knapen_AOT/AOT_stimuli/rescaled_final/1131_rv.mp4	0.0	205.2214961051941	0.09987902641296387
38	183.31052613258362	fix_pre	0		120	36.0	2.5	/experiments/knapen_AOT/AOT_stimuli/rescaled_final/0632_rv.mp4	0.0	205.32137513160706	1.0001640319824219
38	184.29502606391907	pulse	0	t		36.0	2.5	/experiments/knapen_AOT/AOT_stimuli/rescaled_final/0632_rv.mp4	0.0	206.3058750629425	
38	184.31069016456604	movie	1		245	36.0	2.5	/experiments/knapen_AOT/AOT_stimuli/rescaled_final/0632_rv.mp4	0.0	206.32153916358948	2.5087239742279053
38	185.90345215797424	pulse	1	t		36.0	2.5	/experiments/knapen_AOT/AOT_stimuli/rescaled_final/0632_rv.mp4	0.0	207.91430115699768	
38	186.81941413879395	fix_post	2		12	36.0	2.5	/experiments/knapen_AOT/AOT_stimuli/rescaled_final/0632_rv.mp4	0.0	208.83026313781738	0.0999288558959961
39	186.91934299468994	fix_pre	0		120	37.0	2.5	/experiments/knapen_AOT/AOT_stimuli/rescaled_final/1072_rv.mp4	0.0	208.93019199371338	1.0001940727233887
39	187.49553513526917	pulse	0	t		37.0	2.5	/experiments/knapen_AOT/AOT_stimuli/rescaled_final/1072_rv.mp4	0.0	209.5063841342926	
39	187.91953706741333	movie	1		243	37.0	2.5	/experiments/knapen_AOT/AOT_stimuli/rescaled_final/1072_rv.mp4	0.0	209.93038606643677	2.500361919403076
39	189.09893417358398	pulse	1	t		37.0	2.5	/experiments/knapen_AOT/AOT_stimuli/rescaled_final/1072_rv.mp4	0.0	211.10978317260742	
39	190.4198989868164	fix_post	2		12	37.0	2.5	/experiments/knapen_AOT/AOT_stimuli/rescaled_final/1072_rv.mp4	0.0	212.43074798583984	0.1000370979309082
40	190.51993608474731	fix_pre	0		120	38.0	2.5	/experiments/knapen_AOT/AOT_stimuli/rescaled_final/2080_rv.mp4	0.0	212.53078508377075	1.0001459121704102
40	190.69516515731812	pulse	0	t		38.0	2.5	/experiments/knapen_AOT/AOT_stimuli/rescaled_final/2080_rv.mp4	0.0	212.70601415634155	
40	191.52008199691772	movie	1		244	38.0	2.5	/experiments/knapen_AOT/AOT_stimuli/rescaled_final/2080_rv.mp4	0.0	213.53093099594116	2.5004401206970215
40	192.29537510871887	pulse	1	t		38.0	2.5	/experiments/knapen_AOT/AOT_stimuli/rescaled_final/2080_rv.mp4	0.0	214.3062241077423	
40	193.89562010765076	pulse	1	t		38.0	2.5	/experiments/knapen_AOT/AOT_stimuli/rescaled_final/2080_rv.mp4	0.0	215.9064691066742	
40	194.02052211761475	fix_post	2		12	38.0	2.5	/experiments/knapen_AOT/AOT_stimuli/rescaled_final/2080_rv.mp4	0.0	216.03137111663818	0.09993100166320801
41	194.12045311927795	fix_pre	0		120	39.0	2.5	/experiments/knapen_AOT/AOT_stimuli/rescaled_final/1853_rv.mp4	0.0	216.1313021183014	1.0001459121704102
41	195.12059903144836	movie	1		242	39.0	2.5	/experiments/knapen_AOT/AOT_stimuli/rescaled_final/1853_rv.mp4	0.0	217.1314480304718	2.4920551776885986
41	195.49590611457825	pulse	1	t		39.0	2.5	/experiments/knapen_AOT/AOT_stimuli/rescaled_final/1853_rv.mp4	0.0	217.50675511360168	
41	197.0962471961975	pulse	1	t		39.0	2.5	/experiments/knapen_AOT/AOT_stimuli/rescaled_final/1853_rv.mp4	0.0	219.10709619522095	
41	197.61265420913696	fix_post	2		12	39.0	2.5	/experiments/knapen_AOT/AOT_stimuli/rescaled_final/1853_rv.mp4	0.0	219.6235032081604	0.09998893737792969
42	197.7126431465149	fix_pre	0		119	40.0	2.5	blank	1.0	219.72349214553833	0.9918990135192871
42	198.69634103775024	pulse	0	t		40.0	2.5	blank	1.0	220.70719003677368	
42	198.70454216003418	movie	1		301	40.0	2.5	blank	1.0	220.71539115905762	2.5086638927459717
42	200.296569108963	pulse	1	t		40.0	2.5	blank	1.0	222.30741810798645	
42	201.21320605278015	fix_post	2		12	40.0	2.5	blank	1.0	223.2240550518036	0.10001897811889648
43	201.31322503089905	fix_pre	0		120	41.0	2.5	/experiments/knapen_AOT/AOT_stimuli/rescaled_final/1112_fw.mp4	0.0	223.32407402992249	1.0001590251922607
43	201.89682507514954	pulse	0	t		41.0	2.5	/experiments/knapen_AOT/AOT_stimuli/rescaled_final/1112_fw.mp4	0.0	223.90767407417297	
43	202.3133840560913	movie	1		243	41.0	2.5	/experiments/knapen_AOT/AOT_stimuli/rescaled_final/1112_fw.mp4	0.0	224.32423305511475	2.500324010848999
43	203.4971420764923	pulse	1	t		41.0	2.5	/experiments/knapen_AOT/AOT_stimuli/rescaled_final/1112_fw.mp4	0.0	225.50799107551575	
43	204.8137080669403	fix_post	2		12	41.0	2.5	/experiments/knapen_AOT/AOT_stimuli/rescaled_final/1112_fw.mp4	0.0	226.82455706596375	0.10005402565002441
44	204.91376209259033	fix_pre	0		120	42.0	2.5	/experiments/knapen_AOT/AOT_stimuli/rescaled_final/1613_fw.mp4	0.0	226.92461109161377	1.0001649856567383
44	205.0973060131073	pulse	0	t		42.0	2.5	/experiments/knapen_AOT/AOT_stimuli/rescaled_final/1613_fw.mp4	0.0	227.10815501213074	
44	205.91392707824707	movie	1		245	42.0	2.5	/experiments/knapen_AOT/AOT_stimuli/rescaled_final/1613_fw.mp4	0.0	227.9247760772705	2.5003089904785156
44	206.6976661682129	pulse	1	t		42.0	2.5	/experiments/knapen_AOT/AOT_stimuli/rescaled_final/1613_fw.mp4	0.0	228.70851516723633	
44	208.29591917991638	pulse	1	t		42.0	2.5	/experiments/knapen_AOT/AOT_stimuli/rescaled_final/1613_fw.mp4	0.0	230.30676817893982	
44	208.4142360687256	fix_post	2		12	42.0	2.5	/experiments/knapen_AOT/AOT_stimuli/rescaled_final/1613_fw.mp4	0.0	230.42508506774902	0.10003900527954102
45	208.51427507400513	fix_pre	0		120	43.0	2.5	/experiments/knapen_AOT/AOT_stimuli/rescaled_final/1374_fw.mp4	0.0	230.52512407302856	1.0001399517059326
45	209.51441502571106	movie	1		242	43.0	2.5	/experiments/knapen_AOT/AOT_stimuli/rescaled_final/1374_fw.mp4	0.0	231.5252640247345	2.4920711517333984
45	209.89866518974304	pulse	1	t		43.0	2.5	/experiments/knapen_AOT/AOT_stimuli/rescaled_final/1374_fw.mp4	0.0	231.90951418876648	
45	211.49830317497253	pulse	1	t		43.0	2.5	/experiments/knapen_AOT/AOT_stimuli/rescaled_final/1374_fw.mp4	0.0	233.50915217399597	
45	212.00648617744446	fix_post	2		12	43.0	2.5	/experiments/knapen_AOT/AOT_stimuli/rescaled_final/1374_fw.mp4	0.0	234.0173351764679	0.09998893737792969
46	212.1064751148224	fix_pre	0		120	44.0	2.5	/experiments/knapen_AOT/AOT_stimuli/rescaled_final/0251_rv.mp4	0.0	234.11732411384583	1.0001659393310547
46	213.09851002693176	pulse	0	t		44.0	2.5	/experiments/knapen_AOT/AOT_stimuli/rescaled_final/0251_rv.mp4	0.0	235.1093590259552	
46	213.10664105415344	movie	1		245	44.0	2.5	/experiments/knapen_AOT/AOT_stimuli/rescaled_final/0251_rv.mp4	0.0	235.11749005317688	2.5087010860443115
46	214.6993441581726	pulse	1	t		44.0	2.5	/experiments/knapen_AOT/AOT_stimuli/rescaled_final/0251_rv.mp4	0.0	236.71019315719604	
46	215.61534214019775	fix_post	2		12	44.0	2.5	/experiments/knapen_AOT/AOT_stimuli/rescaled_final/0251_rv.mp4	0.0	237.6261911392212	0.10004687309265137
47	215.7153890132904	fix_pre	0		120	45.0	2.5	/experiments/knapen_AOT/AOT_stimuli/rescaled_final/0699_fw.mp4	0.0	237.72623801231384	1.0001680850982666
47	216.29905605316162	pulse	0	t		45.0	2.5	/experiments/knapen_AOT/AOT_stimuli/rescaled_final/0699_fw.mp4	0.0	238.30990505218506	
47	216.71555709838867	movie	1		244	45.0	2.5	/experiments/knapen_AOT/AOT_stimuli/rescaled_final/0699_fw.mp4	0.0	238.7264060974121	2.5004100799560547
47	217.89929509162903	pulse	1	t		45.0	2.5	/experiments/knapen_AOT/AOT_stimuli/rescaled_final/0699_fw.mp4	0.0	239.91014409065247	
47	219.21596717834473	fix_post	2		9	45.0	2.5	/experiments/knapen_AOT/AOT_stimuli/rescaled_final/0699_fw.mp4	0.0	241.22681617736816	0.09997701644897461
48	219.3159441947937	fix_pre	0		120	46.0	2.5	/experiments/knapen_AOT/AOT_stimuli/rescaled_final/0126_rv.mp4	0.0	241.32679319381714	1.0000898838043213
48	219.49947118759155	pulse	0	t		46.0	2.5	/experiments/knapen_AOT/AOT_stimuli/rescaled_final/0126_rv.mp4	0.0	241.510320186615	
48	220.31603407859802	movie	1		243	46.0	2.5	/experiments/knapen_AOT/AOT_stimuli/rescaled_final/0126_rv.mp4	0.0	242.32688307762146	2.500351905822754
48	221.0997760295868	pulse	1	t		46.0	2.5	/experiments/knapen_AOT/AOT_stimuli/rescaled_final/0126_rv.mp4	0.0	243.11062502861023	
48	222.69987320899963	pulse	1	t		46.0	2.5	/experiments/knapen_AOT/AOT_stimuli/rescaled_final/0126_rv.mp4	0.0	244.71072220802307	
48	222.81638598442078	fix_post	2		12	46.0	2.5	/experiments/knapen_AOT/AOT_stimuli/rescaled_final/0126_rv.mp4	0.0	244.8272349834442	0.10007309913635254
49	222.91645908355713	fix_pre	0		120	47.0	2.5	/experiments/knapen_AOT/AOT_stimuli/rescaled_final/1433_fw.mp4	0.0	244.92730808258057	1.0001749992370605
49	223.9166340827942	movie	1		242	47.0	2.5	/experiments/knapen_AOT/AOT_stimuli/rescaled_final/1433_fw.mp4	0.0	245.92748308181763	2.4919610023498535
49	224.30071806907654	pulse	1	t		47.0	2.5	/experiments/knapen_AOT/AOT_stimuli/rescaled_final/1433_fw.mp4	0.0	246.31156706809998	
49	225.90038204193115	pulse	1	t		47.0	2.5	/experiments/knapen_AOT/AOT_stimuli/rescaled_final/1433_fw.mp4	0.0	247.9112310409546	
49	226.40859508514404	fix_post	2		12	47.0	2.5	/experiments/knapen_AOT/AOT_stimuli/rescaled_final/1433_fw.mp4	0.0	248.41944408416748	0.10006093978881836
50	226.50865602493286	fix_pre	0		120	48.0	2.5	blank	1.0	248.5195050239563	1.0001599788665771
50	227.50076603889465	pulse	0	t		48.0	2.5	blank	1.0	249.5116150379181	
50	227.50881600379944	movie	1		301	48.0	2.5	blank	1.0	249.51966500282288	2.5087180137634277
50	229.10097217559814	pulse	1	t		48.0	2.5	blank	1.0	251.11182117462158	
50	230.01753401756287	fix_post	2		12	48.0	2.5	blank	1.0	252.0283830165863	0.10000801086425781
51	230.11754202842712	fix_pre	0		120	49.0	2.5	/experiments/knapen_AOT/AOT_stimuli/rescaled_final/0304_rv.mp4	0.0	252.12839102745056	1.0001201629638672
51	230.7011091709137	pulse	0	t		49.0	2.5	/experiments/knapen_AOT/AOT_stimuli/rescaled_final/0304_rv.mp4	0.0	252.71195816993713	
51	231.117662191391	movie	1		244	49.0	2.5	/experiments/knapen_AOT/AOT_stimuli/rescaled_final/0304_rv.mp4	0.0	253.12851119041443	2.5003318786621094
51	232.30146408081055	pulse	1	t		49.0	2.5	/experiments/knapen_AOT/AOT_stimuli/rescaled_final/0304_rv.mp4	0.0	254.31231307983398	
51	233.6179940700531	fix_post	2		12	49.0	2.5	/experiments/knapen_AOT/AOT_stimuli/rescaled_final/0304_rv.mp4	0.0	255.62884306907654	0.10003995895385742
52	233.71803402900696	fix_pre	0		120	50.0	2.5	/experiments/knapen_AOT/AOT_stimuli/rescaled_final/0946_rv.mp4	0.0	255.7288830280304	1.0001561641693115
52	233.90164709091187	pulse	0	t		50.0	2.5	/experiments/knapen_AOT/AOT_stimuli/rescaled_final/0946_rv.mp4	0.0	255.9124960899353	
52	234.71819019317627	movie	1		243	50.0	2.5	/experiments/knapen_AOT/AOT_stimuli/rescaled_final/0946_rv.mp4	0.0	256.7290391921997	2.5003409385681152
52	235.50190210342407	pulse	1	t		50.0	2.5	/experiments/knapen_AOT/AOT_stimuli/rescaled_final/0946_rv.mp4	0.0	257.5127511024475	
52	237.10196805000305	pulse	1	t		50.0	2.5	/experiments/knapen_AOT/AOT_stimuli/rescaled_final/0946_rv.mp4	0.0	259.1128170490265	
52	237.21853113174438	fix_post	2		12	50.0	2.5	/experiments/knapen_AOT/AOT_stimuli/rescaled_final/0946_rv.mp4	0.0	259.2293801307678	0.10004997253417969
53	237.31858110427856	fix_pre	0		120	51.0	2.5	/experiments/knapen_AOT/AOT_stimuli/rescaled_final/2144_fw.mp4	0.0	259.329430103302	1.0001659393310547
53	238.31874704360962	movie	1		244	51.0	2.5	/experiments/knapen_AOT/AOT_stimuli/rescaled_final/2144_fw.mp4	0.0	260.32959604263306	2.4920220375061035
53	238.70364499092102	pulse	1	t		51.0	2.5	/experiments/knapen_AOT/AOT_stimuli/rescaled_final/2144_fw.mp4	0.0	260.71449398994446	
53	240.30260920524597	pulse	1	t		51.0	2.5	/experiments/knapen_AOT/AOT_stimuli/rescaled_final/2144_fw.mp4	0.0	262.3134582042694	
53	240.81076908111572	fix_post	2		12	51.0	2.5	/experiments/knapen_AOT/AOT_stimuli/rescaled_final/2144_fw.mp4	0.0	262.82161808013916	0.10002493858337402
54	240.9107940196991	fix_pre	0		120	52.0	2.5	/experiments/knapen_AOT/AOT_stimuli/rescaled_final/1031_fw.mp4	0.0	262.92164301872253	1.0001671314239502
54	241.89521408081055	pulse	0	t		52.0	2.5	/experiments/knapen_AOT/AOT_stimuli/rescaled_final/1031_fw.mp4	0.0	263.906063079834	
54	241.91096115112305	movie	1		245	52.0	2.5	/experiments/knapen_AOT/AOT_stimuli/rescaled_final/1031_fw.mp4	0.0	263.9218101501465	2.5086309909820557
54	243.49490809440613	pulse	1	t		52.0	2.5	/experiments/knapen_AOT/AOT_stimuli/rescaled_final/1031_fw.mp4	0.0	265.50575709342957	
54	244.4195921421051	fix_post	2		12	52.0	2.5	/experiments/knapen_AOT/AOT_stimuli/rescaled_final/1031_fw.mp4	0.0	266.43044114112854	0.10008502006530762
55	244.5196771621704	fix_pre	0		120	53.0	2.5	/experiments/knapen_AOT/AOT_stimuli/rescaled_final/2091_fw.mp4	0.0	266.53052616119385	1.0001459121704102
55	245.09489107131958	pulse	0	t		53.0	2.5	/experiments/knapen_AOT/AOT_stimuli/rescaled_final/2091_fw.mp4	0.0	267.105740070343	
55	245.51982307434082	movie	1		244	53.0	2.5	/experiments/knapen_AOT/AOT_stimuli/rescaled_final/2091_fw.mp4	0.0	267.53067207336426	2.5003440380096436
55	246.69574308395386	pulse	1	t		53.0	2.5	/experiments/knapen_AOT/AOT_stimuli/rescaled_final/2091_fw.mp4	0.0	268.7065920829773	
55	248.02016711235046	fix_post	2		12	53.0	2.5	/experiments/knapen_AOT/AOT_stimuli/rescaled_final/2091_fw.mp4	0.0	270.0310161113739	0.10003089904785156
56	248.12019801139832	fix_pre	0		120	54.0	2.5	blank	1.0	270.13104701042175	1.000133991241455
56	248.29541110992432	pulse	0	t		54.0	2.5	blank	1.0	270.30626010894775	
56	249.12033200263977	movie	1		300	54.0	2.5	blank	1.0	271.1311810016632	2.50039005279541
56	249.89565420150757	pulse	1	t		54.0	2.5	blank	1.0	271.906503200531	
56	251.49596118927002	pulse	1	t		54.0	2.5	blank	1.0	273.50681018829346	
56	251.62072205543518	fix_post	2		12	54.0	2.5	blank	1.0	273.6315710544586	0.10004615783691406
57	251.7207682132721	fix_pre	0		120	55.0	2.5	/experiments/knapen_AOT/AOT_stimuli/rescaled_final/0900_fw.mp4	0.0	273.73161721229553	1.000121831893921
57	252.72089004516602	movie	1		245	55.0	2.5	/experiments/knapen_AOT/AOT_stimuli/rescaled_final/0900_fw.mp4	0.0	274.73173904418945	2.492002010345459
57	253.09617400169373	pulse	1	t		55.0	2.5	/experiments/knapen_AOT/AOT_stimuli/rescaled_final/0900_fw.mp4	0.0	275.10702300071716	
57	254.6964430809021	pulse	1	t		55.0	2.5	/experiments/knapen_AOT/AOT_stimuli/rescaled_final/0900_fw.mp4	0.0	276.70729207992554	
57	255.21289205551147	fix_post	2		12	55.0	2.5	/experiments/knapen_AOT/AOT_stimuli/rescaled_final/0900_fw.mp4	0.0	277.2237410545349	0.10005807876586914
58	255.31295013427734	fix_pre	0		119	56.0	2.5	/experiments/knapen_AOT/AOT_stimuli/rescaled_final/1509_fw.mp4	0.0	277.3237991333008	0.9917960166931152
58	256.2966251373291	pulse	0	t		56.0	2.5	/experiments/knapen_AOT/AOT_stimuli/rescaled_final/1509_fw.mp4	0.0	278.30747413635254	
58	256.30474615097046	movie	1		247	56.0	2.5	/experiments/knapen_AOT/AOT_stimuli/rescaled_final/1509_fw.mp4	0.0	278.3155951499939	2.508661985397339
58	257.8982491493225	pulse	1	t		56.0	2.5	/experiments/knapen_AOT/AOT_stimuli/rescaled_final/1509_fw.mp4	0.0	279.90909814834595	
58	258.8134081363678	fix_post	2		12	56.0	2.5	/experiments/knapen_AOT/AOT_stimuli/rescaled_final/1509_fw.mp4	0.0	280.82425713539124	0.10010194778442383
59	258.9135100841522	fix_pre	0		120	57.0	2.5	/experiments/knapen_AOT/AOT_stimuli/rescaled_final/0779_rv.mp4	0.0	280.92435908317566	1.0001060962677002
59	259.4971420764923	pulse	0	t		57.0	2.5	/experiments/knapen_AOT/AOT_stimuli/rescaled_final/0779_rv.mp4	0.0	281.50799107551575	
59	259.9136161804199	movie	1		245	57.0	2.5	/experiments/knapen_AOT/AOT_stimuli/rescaled_final/0779_rv.mp4	0.0	281.92446517944336	2.5003910064697266
59	261.0975441932678	pulse	1	t		57.0	2.5	/experiments/knapen_AOT/AOT_stimuli/rescaled_final/0779_rv.mp4	0.0	283.10839319229126	
59	262.41400718688965	fix_post	2		12	57.0	2.5	/experiments/knapen_AOT/AOT_stimuli/rescaled_final/0779_rv.mp4	0.0	284.4248561859131	0.10007786750793457
60	262.5140850543976	fix_pre	0		120	58.0	2.5	/experiments/knapen_AOT/AOT_stimuli/rescaled_final/1190_rv.mp4	0.0	284.524934053421	1.0000791549682617
60	262.6976761817932	pulse	0	t		58.0	2.5	/experiments/knapen_AOT/AOT_stimuli/rescaled_final/1190_rv.mp4	0.0	284.70852518081665	
60	263.51416420936584	movie	1		244	58.0	2.5	/experiments/knapen_AOT/AOT_stimuli/rescaled_final/1190_rv.mp4	0.0	285.5250132083893	2.5004448890686035
60	264.29778599739075	pulse	1	t		58.0	2.5	/experiments/knapen_AOT/AOT_stimuli/rescaled_final/1190_rv.mp4	0.0	286.3086349964142	
60	265.8982000350952	pulse	1	t		58.0	2.5	/experiments/knapen_AOT/AOT_stimuli/rescaled_final/1190_rv.mp4	0.0	287.90904903411865	
60	266.01460909843445	fix_post	2		12	58.0	2.5	/experiments/knapen_AOT/AOT_stimuli/rescaled_final/1190_rv.mp4	0.0	288.0254580974579	0.09993791580200195
61	266.11454701423645	fix_pre	0		120	59.0	2.5	/experiments/knapen_AOT/AOT_stimuli/rescaled_final/1190_fw.mp4	0.0	288.1253960132599	1.0001530647277832
61	267.11470007896423	movie	1		242	59.0	2.5	/experiments/knapen_AOT/AOT_stimuli/rescaled_final/1190_fw.mp4	0.0	289.12554907798767	2.4920029640197754
61	267.49885606765747	pulse	1	t		59.0	2.5	/experiments/knapen_AOT/AOT_stimuli/rescaled_final/1190_fw.mp4	0.0	289.5097050666809	
61	269.09862899780273	pulse	1	t		59.0	2.5	/experiments/knapen_AOT/AOT_stimuli/rescaled_final/1190_fw.mp4	0.0	291.1094779968262	
61	269.606703042984	fix_post	2		12	59.0	2.5	/experiments/knapen_AOT/AOT_stimuli/rescaled_final/1190_fw.mp4	0.0	291.61755204200745	0.10003399848937988
62	269.7067370414734	fix_pre	0		120	60.0	2.5	/experiments/knapen_AOT/AOT_stimuli/rescaled_final/0142_fw.mp4	0.0	291.7175860404968	1.0001599788665771
62	270.69870615005493	pulse	0	t		60.0	2.5	/experiments/knapen_AOT/AOT_stimuli/rescaled_final/0142_fw.mp4	0.0	292.70955514907837	
62	270.70689702033997	movie	1		246	60.0	2.5	/experiments/knapen_AOT/AOT_stimuli/rescaled_final/0142_fw.mp4	0.0	292.7177460193634	2.5087311267852783
62	272.30348801612854	pulse	1	t		60.0	2.5	/experiments/knapen_AOT/AOT_stimuli/rescaled_final/0142_fw.mp4	0.0	294.314337015152	
62	273.21562814712524	fix_post	2		12	60.0	2.5	/experiments/knapen_AOT/AOT_stimuli/rescaled_final/0142_fw.mp4	0.0	295.2264771461487	0.09996700286865234
63	273.3155951499939	fix_pre	0		120	61.0	2.5	/experiments/knapen_AOT/AOT_stimuli/rescaled_final/1996_fw.mp4	0.0	295.32644414901733	1.0001678466796875
63	273.8992190361023	pulse	0	t		61.0	2.5	/experiments/knapen_AOT/AOT_stimuli/rescaled_final/1996_fw.mp4	0.0	295.91006803512573	
63	274.3157629966736	movie	1		243	61.0	2.5	/experiments/knapen_AOT/AOT_stimuli/rescaled_final/1996_fw.mp4	0.0	296.326611995697	2.500352144241333
63	275.49966311454773	pulse	1	t		61.0	2.5	/experiments/knapen_AOT/AOT_stimuli/rescaled_final/1996_fw.mp4	0.0	297.51051211357117	
63	276.8161151409149	fix_post	2		12	61.0	2.5	/experiments/knapen_AOT/AOT_stimuli/rescaled_final/1996_fw.mp4	0.0	298.82696413993835	0.10001993179321289
64	276.91613507270813	fix_pre	0		120	62.0	2.5	/experiments/knapen_AOT/AOT_stimuli/rescaled_final/0056_rv.mp4	0.0	298.92698407173157	1.0005171298980713
64	277.0997631549835	pulse	0	t		62.0	2.5	/experiments/knapen_AOT/AOT_stimuli/rescaled_final/0056_rv.mp4	0.0	299.11061215400696	
64	277.9166522026062	movie	1		243	62.0	2.5	/experiments/knapen_AOT/AOT_stimuli/rescaled_final/0056_rv.mp4	0.0	299.92750120162964	2.500001907348633
64	278.70010805130005	pulse	1	t		62.0	2.5	/experiments/knapen_AOT/AOT_stimuli/rescaled_final/0056_rv.mp4	0.0	300.7109570503235	
64	280.3001751899719	pulse	1	t		62.0	2.5	/experiments/knapen_AOT/AOT_stimuli/rescaled_final/0056_rv.mp4	0.0	302.31102418899536	
64	280.41665410995483	fix_post	2		12	62.0	2.5	/experiments/knapen_AOT/AOT_stimuli/rescaled_final/0056_rv.mp4	0.0	302.42750310897827	0.10002303123474121
65	280.5166771411896	fix_pre	0		120	63.0	2.5	blank	1.0	302.527526140213	1.000187873840332
65	281.5168650150299	movie	1		299	63.0	2.5	blank	1.0	303.52771401405334	2.492051124572754
65	281.90044617652893	pulse	1	t		63.0	2.5	blank	1.0	303.91129517555237	
65	283.5007441043854	pulse	1	t		63.0	2.5	blank	1.0	305.5115931034088	
65	284.00891613960266	fix_post	2		12	63.0	2.5	blank	1.0	306.0197651386261	0.09996891021728516
66	284.10888504981995	fix_pre	0		120	64.0	2.5	/experiments/knapen_AOT/AOT_stimuli/rescaled_final/2148_fw.mp4	0.0	306.1197340488434	1.0001640319824219
66	285.10094118118286	pulse	0	t		64.0	2.5	/experiments/knapen_AOT/AOT_stimuli/rescaled_final/2148_fw.mp4	0.0	307.1117901802063	
66	285.10904908180237	movie	1		244	64.0	2.5	/experiments/knapen_AOT/AOT_stimuli/rescaled_final/2148_fw.mp4	0.0	307.1198980808258	2.5086700916290283
66	286.70174503326416	pulse	1	t		64.0	2.5	/experiments/knapen_AOT/AOT_stimuli/rescaled_final/2148_fw.mp4	0.0	308.7125940322876	
66	287.6177191734314	fix_post	2		12	64.0	2.5	/experiments/knapen_AOT/AOT_stimuli/rescaled_final/2148_fw.mp4	0.0	309.62856817245483	0.10002684593200684
67	287.7177460193634	fix_pre	0		120	65.0	2.5	/experiments/knapen_AOT/AOT_stimuli/rescaled_final/0056_fw.mp4	0.0	309.72859501838684	1.000162124633789
67	288.301390171051	pulse	0	t		65.0	2.5	/experiments/knapen_AOT/AOT_stimuli/rescaled_final/0056_fw.mp4	0.0	310.31223917007446	
67	288.7179081439972	movie	1		246	65.0	2.5	/experiments/knapen_AOT/AOT_stimuli/rescaled_final/0056_fw.mp4	0.0	310.72875714302063	2.5003418922424316
67	289.90175199508667	pulse	1	t		65.0	2.5	/experiments/knapen_AOT/AOT_stimuli/rescaled_final/0056_fw.mp4	0.0	311.9126009941101	
67	291.2182500362396	fix_post	2		12	65.0	2.5	/experiments/knapen_AOT/AOT_stimuli/rescaled_final/0056_fw.mp4	0.0	313.22909903526306	0.10002613067626953
68	291.3182761669159	fix_pre	0		120	66.0	2.5	/experiments/knapen_AOT/AOT_stimuli/rescaled_final/0174_fw.mp4	0.0	313.32912516593933	1.0001938343048096
68	291.5019340515137	pulse	0	t		66.0	2.5	/experiments/knapen_AOT/AOT_stimuli/rescaled_final/0174_fw.mp4	0.0	313.5127830505371	
68	292.3184700012207	movie	1		245	66.0	2.5	/experiments/knapen_AOT/AOT_stimuli/rescaled_final/0174_fw.mp4	0.0	314.32931900024414	2.50030517578125
68	293.10224199295044	pulse	1	t		66.0	2.5	/experiments/knapen_AOT/AOT_stimuli/rescaled_final/0174_fw.mp4	0.0	315.1130909919739	
68	294.69998502731323	pulse	1	t		66.0	2.5	/experiments/knapen_AOT/AOT_stimuli/rescaled_final/0174_fw.mp4	0.0	316.71083402633667	
68	294.81877517700195	fix_post	2		12	66.0	2.5	/experiments/knapen_AOT/AOT_stimuli/rescaled_final/0174_fw.mp4	0.0	316.8296241760254	0.10006880760192871
69	294.9188439846039	fix_pre	0		120	67.0	2.5	/experiments/knapen_AOT/AOT_stimuli/rescaled_final/0078_fw.mp4	0.0	316.9296929836273	1.0001401901245117
69	295.9189841747284	movie	1		244	67.0	2.5	/experiments/knapen_AOT/AOT_stimuli/rescaled_final/0078_fw.mp4	0.0	317.92983317375183	2.4920408725738525
69	296.3065001964569	pulse	1	t		67.0	2.5	/experiments/knapen_AOT/AOT_stimuli/rescaled_final/0078_fw.mp4	0.0	318.31734919548035	
69	297.89549112319946	pulse	1	t		67.0	2.5	/experiments/knapen_AOT/AOT_stimuli/rescaled_final/0078_fw.mp4	0.0	319.9063401222229	
69	298.41102504730225	fix_post	2		12	67.0	2.5	/experiments/knapen_AOT/AOT_stimuli/rescaled_final/0078_fw.mp4	0.0	320.4218740463257	0.1000051498413086
70	298.51103019714355	fix_pre	0		120	68.0	2.5	/experiments/knapen_AOT/AOT_stimuli/rescaled_final/0429_fw.mp4	0.0	320.521879196167	1.000140905380249
70	299.49561309814453	pulse	0	t		68.0	2.5	/experiments/knapen_AOT/AOT_stimuli/rescaled_final/0429_fw.mp4	0.0	321.50646209716797	
70	299.5111711025238	movie	1		244	68.0	2.5	/experiments/knapen_AOT/AOT_stimuli/rescaled_final/0429_fw.mp4	0.0	321.52202010154724	2.508763074874878
70	301.10390615463257	pulse	1	t		68.0	2.5	/experiments/knapen_AOT/AOT_stimuli/rescaled_final/0429_fw.mp4	0.0	323.114755153656	
70	302.0199341773987	fix_post	2		12	68.0	2.5	/experiments/knapen_AOT/AOT_stimuli/rescaled_final/0429_fw.mp4	0.0	324.0307831764221	0.0999758243560791
71	302.11991000175476	fix_pre	0		120	69.0	2.5	blank	1.0	324.1307590007782	1.0001380443572998
71	302.6960291862488	pulse	0	t		69.0	2.5	blank	1.0	324.7068781852722	
71	303.12004804611206	movie	1		300	69.0	2.5	blank	1.0	325.1308970451355	2.500473976135254
71	304.2956290245056	pulse	1	t		69.0	2.5	blank	1.0	326.30647802352905	
71	305.6205220222473	fix_post	2		12	69.0	2.5	blank	1.0	327.63137102127075	0.09992218017578125
72	305.7204442024231	fix_pre	0		120	70.0	2.5	/experiments/knapen_AOT/AOT_stimuli/rescaled_final/1292_rv.mp4	0.0	327.73129320144653	1.0001428127288818
72	305.89558601379395	pulse	0	t		70.0	2.5	/experiments/knapen_AOT/AOT_stimuli/rescaled_final/1292_rv.mp4	0.0	327.9064350128174	
72	306.720587015152	movie	1		243	70.0	2.5	/experiments/knapen_AOT/AOT_stimuli/rescaled_final/1292_rv.mp4	0.0	328.7314360141754	2.492030143737793
72	307.49593210220337	pulse	1	t		70.0	2.5	/experiments/knapen_AOT/AOT_stimuli/rescaled_final/1292_rv.mp4	0.0	329.5067811012268	
72	309.0961630344391	pulse	1	t		70.0	2.5	/experiments/knapen_AOT/AOT_stimuli/rescaled_final/1292_rv.mp4	0.0	331.1070120334625	
72	309.21261715888977	fix_post	2		13	70.0	2.5	/experiments/knapen_AOT/AOT_stimuli/rescaled_final/1292_rv.mp4	0.0	331.2234661579132	0.10841989517211914
73	309.3210370540619	fix_pre	0		119	71.0	2.5	/experiments/knapen_AOT/AOT_stimuli/rescaled_final/1160_fw.mp4	0.0	331.3318860530853	0.991724967956543
73	310.31276202201843	movie	1		244	71.0	2.5	/experiments/knapen_AOT/AOT_stimuli/rescaled_final/1160_fw.mp4	0.0	332.32361102104187	2.500530958175659
73	310.697035074234	pulse	1	t		71.0	2.5	/experiments/knapen_AOT/AOT_stimuli/rescaled_final/1160_fw.mp4	0.0	332.70788407325745	
73	312.29669404029846	pulse	1	t		71.0	2.5	/experiments/knapen_AOT/AOT_stimuli/rescaled_final/1160_fw.mp4	0.0	334.3075430393219	
73	312.8132929801941	fix_post	2		12	71.0	2.5	/experiments/knapen_AOT/AOT_stimuli/rescaled_final/1160_fw.mp4	0.0	334.82414197921753	0.09982419013977051
74	312.91311717033386	fix_pre	0		119	72.0	2.5	/experiments/knapen_AOT/AOT_stimuli/rescaled_final/1625_rv.mp4	0.0	334.9239661693573	0.9918739795684814
74	313.8969271183014	pulse	0	t		72.0	2.5	/experiments/knapen_AOT/AOT_stimuli/rescaled_final/1625_rv.mp4	0.0	335.90777611732483	
74	313.90499114990234	movie	1		245	72.0	2.5	/experiments/knapen_AOT/AOT_stimuli/rescaled_final/1625_rv.mp4	0.0	335.9158401489258	2.508746862411499
74	315.49838399887085	pulse	1	t		72.0	2.5	/experiments/knapen_AOT/AOT_stimuli/rescaled_final/1625_rv.mp4	0.0	337.5092329978943	
74	316.41373801231384	fix_post	2		12	72.0	2.5	/experiments/knapen_AOT/AOT_stimuli/rescaled_final/1625_rv.mp4	0.0	338.4245870113373	0.10000300407409668
75	316.51374101638794	fix_pre	0		120	73.0	2.5	/experiments/knapen_AOT/AOT_stimuli/rescaled_final/0937_rv.mp4	0.0	338.5245900154114	1.0001330375671387
75	317.09732818603516	pulse	0	t		73.0	2.5	/experiments/knapen_AOT/AOT_stimuli/rescaled_final/0937_rv.mp4	0.0	339.1081771850586	
75	317.5138740539551	movie	1		243	73.0	2.5	/experiments/knapen_AOT/AOT_stimuli/rescaled_final/0937_rv.mp4	0.0	339.5247230529785	2.500447988510132
75	318.6977241039276	pulse	1	t		73.0	2.5	/experiments/knapen_AOT/AOT_stimuli/rescaled_final/0937_rv.mp4	0.0	340.70857310295105	
75	320.0143220424652	fix_post	2		12	73.0	2.5	/experiments/knapen_AOT/AOT_stimuli/rescaled_final/0937_rv.mp4	0.0	342.02517104148865	0.0999600887298584
76	320.11428213119507	fix_pre	0		120	74.0	2.5	/experiments/knapen_AOT/AOT_stimuli/rescaled_final/1040_rv.mp4	0.0	342.1251311302185	1.0001270771026611
76	320.29795813560486	pulse	0	t		74.0	2.5	/experiments/knapen_AOT/AOT_stimuli/rescaled_final/1040_rv.mp4	0.0	342.3088071346283	
76	321.11440920829773	movie	1		244	74.0	2.5	/experiments/knapen_AOT/AOT_stimuli/rescaled_final/1040_rv.mp4	0.0	343.12525820732117	2.500342845916748
76	321.89813208580017	pulse	1	t		74.0	2.5	/experiments/knapen_AOT/AOT_stimuli/rescaled_final/1040_rv.mp4	0.0	343.9089810848236	
76	323.49840116500854	pulse	1	t		74.0	2.5	/experiments/knapen_AOT/AOT_stimuli/rescaled_final/1040_rv.mp4	0.0	345.509250164032	
76	323.6147520542145	fix_post	2		12	74.0	2.5	/experiments/knapen_AOT/AOT_stimuli/rescaled_final/1040_rv.mp4	0.0	345.6256010532379	0.10002803802490234
77	323.7147800922394	fix_pre	0		120	75.0	2.5	/experiments/knapen_AOT/AOT_stimuli/rescaled_final/1535_rv.mp4	0.0	345.7256290912628	1.0001330375671387
77	324.7149131298065	movie	1		242	75.0	2.5	/experiments/knapen_AOT/AOT_stimuli/rescaled_final/1535_rv.mp4	0.0	346.72576212882996	2.492097854614258
77	325.0991270542145	pulse	1	t		75.0	2.5	/experiments/knapen_AOT/AOT_stimuli/rescaled_final/1535_rv.mp4	0.0	347.1099760532379	
77	326.69885420799255	pulse	1	t		75.0	2.5	/experiments/knapen_AOT/AOT_stimuli/rescaled_final/1535_rv.mp4	0.0	348.709703207016	
77	327.2070109844208	fix_post	2		12	75.0	2.5	/experiments/knapen_AOT/AOT_stimuli/rescaled_final/1535_rv.mp4	0.0	349.2178599834442	0.10000300407409668
78	327.3070139884949	fix_pre	0		120	76.0	2.5	/experiments/knapen_AOT/AOT_stimuli/rescaled_final/1099_fw.mp4	0.0	349.3178629875183	1.0001180171966553
78	328.29914021492004	pulse	0	t		76.0	2.5	/experiments/knapen_AOT/AOT_stimuli/rescaled_final/1099_fw.mp4	0.0	350.3099892139435	
78	328.3071320056915	movie	1		245	76.0	2.5	/experiments/knapen_AOT/AOT_stimuli/rescaled_final/1099_fw.mp4	0.0	350.31798100471497	2.5087621212005615
78	329.8998210430145	pulse	1	t		76.0	2.5	/experiments/knapen_AOT/AOT_stimuli/rescaled_final/1099_fw.mp4	0.0	351.91067004203796	
78	330.8158941268921	fix_post	2		12	76.0	2.5	/experiments/knapen_AOT/AOT_stimuli/rescaled_final/1099_fw.mp4	0.0	352.8267431259155	0.09998488426208496
79	330.9158790111542	fix_pre	0		120	77.0	2.5	blank	1.0	352.9267280101776	1.0001211166381836
79	331.4994580745697	pulse	0	t		77.0	2.5	blank	1.0	353.51030707359314	
79	331.91600012779236	movie	1		300	77.0	2.5	blank	1.0	353.9268491268158	2.5004639625549316
79	333.09976410865784	pulse	1	t		77.0	2.5	blank	1.0	355.1106131076813	
79	334.4164640903473	fix_post	2		12	77.0	2.5	blank	1.0	356.4273130893707	0.09994196891784668
80	334.51640605926514	fix_pre	0		120	78.0	2.5	/experiments/knapen_AOT/AOT_stimuli/rescaled_final/0286_fw.mp4	0.0	356.5272550582886	1.000115156173706
80	334.7000081539154	pulse	0	t		78.0	2.5	/experiments/knapen_AOT/AOT_stimuli/rescaled_final/0286_fw.mp4	0.0	356.71085715293884	
80	335.51652121543884	movie	1		244	78.0	2.5	/experiments/knapen_AOT/AOT_stimuli/rescaled_final/0286_fw.mp4	0.0	357.5273702144623	2.500447988510132
80	336.300252199173	pulse	1	t		78.0	2.5	/experiments/knapen_AOT/AOT_stimuli/rescaled_final/0286_fw.mp4	0.0	358.3111011981964	
80	337.90052819252014	pulse	1	t		78.0	2.5	/experiments/knapen_AOT/AOT_stimuli/rescaled_final/0286_fw.mp4	0.0	359.9113771915436	
80	338.016969203949	fix_post	2		12	78.0	2.5	/experiments/knapen_AOT/AOT_stimuli/rescaled_final/0286_fw.mp4	0.0	360.0278182029724	0.09997797012329102
81	338.11694717407227	fix_pre	0		120	79.0	2.5	/experiments/knapen_AOT/AOT_stimuli/rescaled_final/0707_rv.mp4	0.0	360.1277961730957	1.0009770393371582
81	339.1179242134094	movie	1		241	79.0	2.5	/experiments/knapen_AOT/AOT_stimuli/rescaled_final/0707_rv.mp4	0.0	361.12877321243286	2.4911789894104004
81	339.5019311904907	pulse	1	t		79.0	2.5	/experiments/knapen_AOT/AOT_stimuli/rescaled_final/0707_rv.mp4	0.0	361.51278018951416	
81	341.10102009773254	pulse	1	t		79.0	2.5	/experiments/knapen_AOT/AOT_stimuli/rescaled_final/0707_rv.mp4	0.0	363.111869096756	
81	341.6091032028198	fix_post	2		12	79.0	2.5	/experiments/knapen_AOT/AOT_stimuli/rescaled_final/0707_rv.mp4	0.0	363.61995220184326	0.10000085830688477
82	341.7091040611267	fix_pre	0		120	80.0	2.5	/experiments/knapen_AOT/AOT_stimuli/rescaled_final/0764_rv.mp4	0.0	363.71995306015015	1.0001981258392334
82	342.7012372016907	pulse	0	t		80.0	2.5	/experiments/knapen_AOT/AOT_stimuli/rescaled_final/0764_rv.mp4	0.0	364.7120862007141	
82	342.70930218696594	movie	1		247	80.0	2.5	/experiments/knapen_AOT/AOT_stimuli/rescaled_final/0764_rv.mp4	0.0	364.7201511859894	2.5086560249328613
82	344.3029260635376	pulse	1	t		80.0	2.5	/experiments/knapen_AOT/AOT_stimuli/rescaled_final/0764_rv.mp4	0.0	366.31377506256104	
82	345.2179582118988	fix_post	2		12	80.0	2.5	/experiments/knapen_AOT/AOT_stimuli/rescaled_final/0764_rv.mp4	0.0	367.22880721092224	0.10004782676696777
83	345.31800603866577	fix_pre	0		120	81.0	2.5	/experiments/knapen_AOT/AOT_stimuli/rescaled_final/0886_fw.mp4	0.0	367.3288550376892	1.0001671314239502
83	345.9016351699829	pulse	0	t		81.0	2.5	/experiments/knapen_AOT/AOT_stimuli/rescaled_final/0886_fw.mp4	0.0	367.91248416900635	
83	346.3181731700897	movie	1		244	81.0	2.5	/experiments/knapen_AOT/AOT_stimuli/rescaled_final/0886_fw.mp4	0.0	368.32902216911316	2.5003550052642822
83	347.49822902679443	pulse	1	t		81.0	2.5	/experiments/knapen_AOT/AOT_stimuli/rescaled_final/0886_fw.mp4	0.0	369.50907802581787	
83	348.818528175354	fix_post	2		12	81.0	2.5	/experiments/knapen_AOT/AOT_stimuli/rescaled_final/0886_fw.mp4	0.0	370.82937717437744	0.10001492500305176
84	348.91854310035706	fix_pre	0		120	82.0	2.5	/experiments/knapen_AOT/AOT_stimuli/rescaled_final/0254_fw.mp4	0.0	370.9293920993805	1.0001530647277832
84	349.1021640300751	pulse	0	t		82.0	2.5	/experiments/knapen_AOT/AOT_stimuli/rescaled_final/0254_fw.mp4	0.0	371.1130130290985	
84	349.91869616508484	movie	1		244	82.0	2.5	/experiments/knapen_AOT/AOT_stimuli/rescaled_final/0254_fw.mp4	0.0	371.9295451641083	2.5003368854522705
84	350.70230412483215	pulse	1	t		82.0	2.5	/experiments/knapen_AOT/AOT_stimuli/rescaled_final/0254_fw.mp4	0.0	372.7131531238556	
84	352.3003740310669	pulse	1	t		82.0	2.5	/experiments/knapen_AOT/AOT_stimuli/rescaled_final/0254_fw.mp4	0.0	374.31122303009033	
84	352.4190330505371	fix_post	2		12	82.0	2.5	/experiments/knapen_AOT/AOT_stimuli/rescaled_final/0254_fw.mp4	0.0	374.42988204956055	0.1000361442565918
85	352.5190691947937	fix_pre	0		120	83.0	2.5	blank	1.0	374.52991819381714	1.0001490116119385
85	353.51921820640564	movie	1		299	83.0	2.5	blank	1.0	375.5300672054291	2.49204683303833
85	353.8955020904541	pulse	1	t		83.0	2.5	blank	1.0	375.90635108947754	
85	355.49556708335876	pulse	1	t		83.0	2.5	blank	1.0	377.5064160823822	
85	356.01126503944397	fix_post	2		12	83.0	2.5	blank	1.0	378.0221140384674	0.10004997253417969
87	356.11131501197815	stim	0		1716					378.1221640110016	14.302240133285522
87	357.09601521492004	pulse	0	t						379.1068642139435	
87	358.6950900554657	pulse	0	t						380.70593905448914	
87	360.2955720424652	pulse	0	t						382.30642104148865	
87	361.89564204216003	pulse	0	t						383.9064910411835	
87	363.4959239959717	pulse	0	t						385.5067729949951	
87	365.09604120254517	pulse	0	t						387.1068902015686	
87	366.69631719589233	pulse	0	t						388.70716619491577	
87	368.2966380119324	pulse	0	t						390.3074870109558	
87	369.8968141078949	pulse	0	t						391.90766310691833	
