trial_nr	onset	event_type	phase	response	nr_frames	movie_index	movie_duration	movie_file	blank	onset_abs	duration
0	0.16660332679748535	stim	0		8					20.55307149887085	0.06653499603271484
0	0.2250986099243164	response	0	space						20.61156678199768	
1	0.2331383228302002	stim	0		4348					20.619606494903564	36.24899911880493
1	36.47232127189636	pulse	0	t						56.85878944396973	
1	36.48213744163513	stim	1		1714					56.868605613708496	14.300290584564209
1	38.064372539520264	pulse	1	t						58.45084071159363	
1	39.664456605911255	pulse	1	t						60.05092477798462	
1	41.26457715034485	pulse	1	t						61.65104532241821	
1	42.86476922035217	pulse	1	t						63.25123739242554	
1	44.46505546569824	pulse	1	t						64.8515236377716	
1	46.065237045288086	pulse	1	t						66.45170521736145	
1	47.66566467285156	pulse	1	t						68.05213284492493	
1	49.265666007995605	pulse	1	t						69.65213418006897	
2	50.78242802619934	fix_pre	0		11	0.0	2.5	/experiments/Knapen_AOT/AOT_stimuli/rescaled_final/1418_rv.mp4	0.0	71.1688961982727	0.10836362838745117
2	50.866044759750366	pulse	0	t		0.0	2.5	/experiments/Knapen_AOT/AOT_stimuli/rescaled_final/1418_rv.mp4	0.0	71.25251293182373	
2	50.89079165458679	movie	1		278	0.0	2.5	/experiments/Knapen_AOT/AOT_stimuli/rescaled_final/1418_rv.mp4	0.0	71.27725982666016	2.4920029640197754
2	52.46442127227783	pulse	1	t		0.0	2.5	/experiments/Knapen_AOT/AOT_stimuli/rescaled_final/1418_rv.mp4	0.0	72.8508894443512	
2	53.38279461860657	fix_post	2		12	0.0	2.5	/experiments/Knapen_AOT/AOT_stimuli/rescaled_final/1418_rv.mp4	0.0	73.76926279067993	0.10001945495605469
3	53.48281407356262	fix_pre	0		120	1.0	2.5	/experiments/Knapen_AOT/AOT_stimuli/rescaled_final/2086_rv.mp4	0.0	73.86928224563599	1.0085163116455078
3	54.06652545928955	pulse	0	t		1.0	2.5	/experiments/Knapen_AOT/AOT_stimuli/rescaled_final/2086_rv.mp4	0.0	74.45299363136292	
3	54.49133038520813	movie	1		289	1.0	2.5	/experiments/Knapen_AOT/AOT_stimuli/rescaled_final/2086_rv.mp4	0.0	74.8777985572815	2.4919850826263428
3	55.664979696273804	pulse	1	t		1.0	2.5	/experiments/Knapen_AOT/AOT_stimuli/rescaled_final/2086_rv.mp4	0.0	76.05144786834717	
3	56.98331546783447	fix_post	2		12	1.0	2.5	/experiments/Knapen_AOT/AOT_stimuli/rescaled_final/2086_rv.mp4	0.0	77.36978363990784	0.1000676155090332
4	57.083383083343506	fix_pre	0		120	2.0	2.5	/experiments/Knapen_AOT/AOT_stimuli/rescaled_final/0396_rv.mp4	0.0	77.46985125541687	1.0084834098815918
4	57.26741862297058	pulse	0	t		2.0	2.5	/experiments/Knapen_AOT/AOT_stimuli/rescaled_final/0396_rv.mp4	0.0	77.65388679504395	
4	58.0918664932251	movie	1		278	2.0	2.5	/experiments/Knapen_AOT/AOT_stimuli/rescaled_final/0396_rv.mp4	0.0	78.47833466529846	2.492011785507202
4	58.86525273323059	pulse	1	t		2.0	2.5	/experiments/Knapen_AOT/AOT_stimuli/rescaled_final/0396_rv.mp4	0.0	79.25172090530396	
4	60.465269327163696	pulse	1	t		2.0	2.5	/experiments/Knapen_AOT/AOT_stimuli/rescaled_final/0396_rv.mp4	0.0	80.85173749923706	
4	60.5838782787323	fix_post	2		12	2.0	2.5	/experiments/Knapen_AOT/AOT_stimuli/rescaled_final/0396_rv.mp4	0.0	80.97034645080566	0.10002565383911133
5	60.68390393257141	fix_pre	0		120	3.0	2.5	/experiments/Knapen_AOT/AOT_stimuli/rescaled_final/0188_fw.mp4	0.0	81.07037210464478	1.0085084438323975
5	61.69241237640381	movie	1		284	3.0	2.5	/experiments/Knapen_AOT/AOT_stimuli/rescaled_final/0188_fw.mp4	0.0	82.07888054847717	2.4920156002044678
5	62.06562352180481	pulse	1	t		3.0	2.5	/experiments/Knapen_AOT/AOT_stimuli/rescaled_final/0188_fw.mp4	0.0	82.45209169387817	
5	63.66552376747131	pulse	1	t		3.0	2.5	/experiments/Knapen_AOT/AOT_stimuli/rescaled_final/0188_fw.mp4	0.0	84.05199193954468	
5	64.18442797660828	fix_post	2		12	3.0	2.5	/experiments/Knapen_AOT/AOT_stimuli/rescaled_final/0188_fw.mp4	0.0	84.57089614868164	0.10001897811889648
6	64.28444695472717	fix_pre	0		119	4.0	2.5	/experiments/Knapen_AOT/AOT_stimuli/rescaled_final/1495_fw.mp4	0.0	84.67091512680054	1.000145435333252
6	65.26813006401062	pulse	0	t		4.0	2.5	/experiments/Knapen_AOT/AOT_stimuli/rescaled_final/1495_fw.mp4	0.0	85.65459823608398	
6	65.28459239006042	movie	1		279	4.0	2.5	/experiments/Knapen_AOT/AOT_stimuli/rescaled_final/1495_fw.mp4	0.0	85.67106056213379	2.500396251678467
6	66.86690402030945	pulse	1	t		4.0	2.5	/experiments/Knapen_AOT/AOT_stimuli/rescaled_final/1495_fw.mp4	0.0	87.25337219238281	
6	67.78498864173889	fix_post	2		12	4.0	2.5	/experiments/Knapen_AOT/AOT_stimuli/rescaled_final/1495_fw.mp4	0.0	88.17145681381226	0.10000753402709961
7	67.88499617576599	fix_pre	0		120	5.0	2.5	/experiments/Knapen_AOT/AOT_stimuli/rescaled_final/1377_fw.mp4	0.0	88.27146434783936	1.0084781646728516
7	68.46891236305237	pulse	0	t		5.0	2.5	/experiments/Knapen_AOT/AOT_stimuli/rescaled_final/1377_fw.mp4	0.0	88.85538053512573	
7	68.89347434043884	movie	1		281	5.0	2.5	/experiments/Knapen_AOT/AOT_stimuli/rescaled_final/1377_fw.mp4	0.0	89.2799425125122	2.4920225143432617
7	70.0668876171112	pulse	1	t		5.0	2.5	/experiments/Knapen_AOT/AOT_stimuli/rescaled_final/1377_fw.mp4	0.0	90.45335578918457	
7	71.3854968547821	fix_post	2		12	5.0	2.5	/experiments/Knapen_AOT/AOT_stimuli/rescaled_final/1377_fw.mp4	0.0	91.77196502685547	0.10003995895385742
8	71.48553681373596	fix_pre	0		120	6.0	2.5	/experiments/Knapen_AOT/AOT_stimuli/rescaled_final/0246_rv.mp4	0.0	91.87200498580933	1.0084857940673828
8	71.66907739639282	pulse	0	t		6.0	2.5	/experiments/Knapen_AOT/AOT_stimuli/rescaled_final/0246_rv.mp4	0.0	92.05554556846619	
8	72.49402260780334	movie	1		289	6.0	2.5	/experiments/Knapen_AOT/AOT_stimuli/rescaled_final/0246_rv.mp4	0.0	92.88049077987671	2.4920835494995117
8	73.26717448234558	pulse	1	t		6.0	2.5	/experiments/Knapen_AOT/AOT_stimuli/rescaled_final/0246_rv.mp4	0.0	93.65364265441895	
8	74.8674521446228	pulse	1	t		6.0	2.5	/experiments/Knapen_AOT/AOT_stimuli/rescaled_final/0246_rv.mp4	0.0	95.25392031669617	
8	74.98610615730286	fix_post	2		12	6.0	2.5	/experiments/Knapen_AOT/AOT_stimuli/rescaled_final/0246_rv.mp4	0.0	95.37257432937622	0.09995484352111816
9	75.08606100082397	fix_pre	0		120	7.0	2.5	blank	1.0	95.47252917289734	1.0001401901245117
9	76.08620119094849	movie	1		300	7.0	2.5	blank	1.0	96.47266936302185	2.500389814376831
9	76.4621696472168	pulse	1	t		7.0	2.5	blank	1.0	96.84863781929016	
9	78.06205034255981	pulse	1	t		7.0	2.5	blank	1.0	98.44851851463318	
9	78.58659100532532	fix_post	2		12	7.0	2.5	blank	1.0	98.97305917739868	0.10004997253417969
10	78.6866409778595	fix_pre	0		118	8.0	2.5	/experiments/Knapen_AOT/AOT_stimuli/rescaled_final/0239_rv.mp4	0.0	99.07310914993286	0.9918041229248047
10	79.66210508346558	pulse	0	t		8.0	2.5	/experiments/Knapen_AOT/AOT_stimuli/rescaled_final/0239_rv.mp4	0.0	100.04857325553894	
10	79.6784451007843	movie	1		278	8.0	2.5	/experiments/Knapen_AOT/AOT_stimuli/rescaled_final/0239_rv.mp4	0.0	100.06491327285767	2.5003654956817627
10	81.2626850605011	pulse	1	t		8.0	2.5	/experiments/Knapen_AOT/AOT_stimuli/rescaled_final/0239_rv.mp4	0.0	101.64915323257446	
10	82.17881059646606	fix_post	2		12	8.0	2.5	/experiments/Knapen_AOT/AOT_stimuli/rescaled_final/0239_rv.mp4	0.0	102.56527876853943	0.09999608993530273
11	82.27880668640137	fix_pre	0		120	9.0	2.5	/experiments/Knapen_AOT/AOT_stimuli/rescaled_final/1993_rv.mp4	0.0	102.66527485847473	1.0085105895996094
11	82.86259841918945	pulse	0	t		9.0	2.5	/experiments/Knapen_AOT/AOT_stimuli/rescaled_final/1993_rv.mp4	0.0	103.24906659126282	
11	83.28731727600098	movie	1		288	9.0	2.5	/experiments/Knapen_AOT/AOT_stimuli/rescaled_final/1993_rv.mp4	0.0	103.67378544807434	2.4920241832733154
11	84.46269154548645	pulse	1	t		9.0	2.5	/experiments/Knapen_AOT/AOT_stimuli/rescaled_final/1993_rv.mp4	0.0	104.84915971755981	
11	85.77934145927429	fix_post	2		12	9.0	2.5	/experiments/Knapen_AOT/AOT_stimuli/rescaled_final/1993_rv.mp4	0.0	106.16580963134766	0.1000218391418457
12	85.87936329841614	fix_pre	0		120	10.0	2.5	/experiments/Knapen_AOT/AOT_stimuli/rescaled_final/1901_rv.mp4	0.0	106.2658314704895	1.0084996223449707
12	86.06292533874512	pulse	0	t		10.0	2.5	/experiments/Knapen_AOT/AOT_stimuli/rescaled_final/1901_rv.mp4	0.0	106.44939351081848	
12	86.88786292076111	movie	1		282	10.0	2.5	/experiments/Knapen_AOT/AOT_stimuli/rescaled_final/1901_rv.mp4	0.0	107.27433109283447	2.492014169692993
12	87.66323566436768	pulse	1	t		10.0	2.5	/experiments/Knapen_AOT/AOT_stimuli/rescaled_final/1901_rv.mp4	0.0	108.04970383644104	
12	89.26352000236511	pulse	1	t		10.0	2.5	/experiments/Knapen_AOT/AOT_stimuli/rescaled_final/1901_rv.mp4	0.0	109.64998817443848	
12	89.3798770904541	fix_post	2		12	10.0	2.5	/experiments/Knapen_AOT/AOT_stimuli/rescaled_final/1901_rv.mp4	0.0	109.76634526252747	0.1000216007232666
13	89.47989869117737	fix_pre	0		120	11.0	2.5	/experiments/Knapen_AOT/AOT_stimuli/rescaled_final/0552_fw.mp4	0.0	109.86636686325073	1.0085039138793945
13	90.48840260505676	movie	1		279	11.0	2.5	/experiments/Knapen_AOT/AOT_stimuli/rescaled_final/0552_fw.mp4	0.0	110.87487077713013	2.4920177459716797
13	90.86223411560059	pulse	1	t		11.0	2.5	/experiments/Knapen_AOT/AOT_stimuli/rescaled_final/0552_fw.mp4	0.0	111.24870228767395	
13	92.46396350860596	pulse	1	t		11.0	2.5	/experiments/Knapen_AOT/AOT_stimuli/rescaled_final/0552_fw.mp4	0.0	112.85043168067932	
13	92.98042035102844	fix_post	2		12	11.0	2.5	/experiments/Knapen_AOT/AOT_stimuli/rescaled_final/0552_fw.mp4	0.0	113.3668885231018	0.10001754760742188
14	93.08043789863586	fix_pre	0		119	12.0	2.5	blank	1.0	113.46690607070923	0.9918265342712402
14	94.06414484977722	pulse	0	t		12.0	2.5	blank	1.0	114.45061302185059	
14	94.0722644329071	movie	1		301	12.0	2.5	blank	1.0	114.45873260498047	2.5087473392486572
14	95.66461968421936	pulse	1	t		12.0	2.5	blank	1.0	116.05108785629272	
14	96.58101177215576	fix_post	2		12	12.0	2.5	blank	1.0	116.96747994422913	0.10010743141174316
15	96.6811192035675	fix_pre	0		120	13.0	2.5	/experiments/Knapen_AOT/AOT_stimuli/rescaled_final/1171_fw.mp4	0.0	117.06758737564087	1.0084261894226074
15	97.26463651657104	pulse	0	t		13.0	2.5	/experiments/Knapen_AOT/AOT_stimuli/rescaled_final/1171_fw.mp4	0.0	117.65110468864441	
15	97.68954539299011	movie	1		288	13.0	2.5	/experiments/Knapen_AOT/AOT_stimuli/rescaled_final/1171_fw.mp4	0.0	118.07601356506348	2.4919979572296143
15	98.86288380622864	pulse	1	t		13.0	2.5	/experiments/Knapen_AOT/AOT_stimuli/rescaled_final/1171_fw.mp4	0.0	119.249351978302	
15	100.18154335021973	fix_post	2		12	13.0	2.5	/experiments/Knapen_AOT/AOT_stimuli/rescaled_final/1171_fw.mp4	0.0	120.56801152229309	0.09996604919433594
16	100.28150939941406	fix_pre	0		120	14.0	2.5	/experiments/Knapen_AOT/AOT_stimuli/rescaled_final/1366_fw.mp4	0.0	120.66797757148743	1.0085017681121826
16	100.46508479118347	pulse	0	t		14.0	2.5	/experiments/Knapen_AOT/AOT_stimuli/rescaled_final/1366_fw.mp4	0.0	120.85155296325684	
16	101.29001116752625	movie	1		280	14.0	2.5	/experiments/Knapen_AOT/AOT_stimuli/rescaled_final/1366_fw.mp4	0.0	121.67647933959961	2.49208664894104
16	102.06359624862671	pulse	1	t		14.0	2.5	/experiments/Knapen_AOT/AOT_stimuli/rescaled_final/1366_fw.mp4	0.0	122.45006442070007	
16	103.6634578704834	pulse	1	t		14.0	2.5	/experiments/Knapen_AOT/AOT_stimuli/rescaled_final/1366_fw.mp4	0.0	124.04992604255676	
16	103.78209781646729	fix_post	2		12	14.0	2.5	/experiments/Knapen_AOT/AOT_stimuli/rescaled_final/1366_fw.mp4	0.0	124.16856598854065	0.09996318817138672
17	103.88206100463867	fix_pre	0		120	15.0	2.5	/experiments/Knapen_AOT/AOT_stimuli/rescaled_final/0171_rv.mp4	0.0	124.26852917671204	1.0085666179656982
17	104.89062762260437	movie	1		282	15.0	2.5	/experiments/Knapen_AOT/AOT_stimuli/rescaled_final/0171_rv.mp4	0.0	125.27709579467773	2.4919588565826416
17	105.26406812667847	pulse	1	t		15.0	2.5	/experiments/Knapen_AOT/AOT_stimuli/rescaled_final/0171_rv.mp4	0.0	125.65053629875183	
17	106.86410307884216	pulse	1	t		15.0	2.5	/experiments/Knapen_AOT/AOT_stimuli/rescaled_final/0171_rv.mp4	0.0	127.25057125091553	
17	107.38258647918701	fix_post	2		12	15.0	2.5	/experiments/Knapen_AOT/AOT_stimuli/rescaled_final/0171_rv.mp4	0.0	127.76905465126038	0.1000220775604248
18	107.48260855674744	fix_pre	0		119	16.0	2.5	/experiments/Knapen_AOT/AOT_stimuli/rescaled_final/1336_fw.mp4	0.0	127.8690767288208	1.0002212524414062
18	108.46628332138062	pulse	0	t		16.0	2.5	/experiments/Knapen_AOT/AOT_stimuli/rescaled_final/1336_fw.mp4	0.0	128.85275149345398	
18	108.48282980918884	movie	1		281	16.0	2.5	/experiments/Knapen_AOT/AOT_stimuli/rescaled_final/1336_fw.mp4	0.0	128.8692979812622	2.50032377243042
18	110.06514501571655	pulse	1	t		16.0	2.5	/experiments/Knapen_AOT/AOT_stimuli/rescaled_final/1336_fw.mp4	0.0	130.45161318778992	
18	110.98315358161926	fix_post	2		12	16.0	2.5	/experiments/Knapen_AOT/AOT_stimuli/rescaled_final/1336_fw.mp4	0.0	131.36962175369263	0.10000872611999512
19	111.08316230773926	fix_pre	0		120	17.0	2.5	/experiments/Knapen_AOT/AOT_stimuli/rescaled_final/1801_fw.mp4	0.0	131.46963047981262	1.0084953308105469
19	111.66688394546509	pulse	0	t		17.0	2.5	/experiments/Knapen_AOT/AOT_stimuli/rescaled_final/1801_fw.mp4	0.0	132.05335211753845	
19	112.0916576385498	movie	1		281	17.0	2.5	/experiments/Knapen_AOT/AOT_stimuli/rescaled_final/1801_fw.mp4	0.0	132.47812581062317	2.4921746253967285
19	113.2652997970581	pulse	1	t		17.0	2.5	/experiments/Knapen_AOT/AOT_stimuli/rescaled_final/1801_fw.mp4	0.0	133.65176796913147	
19	114.58383226394653	fix_post	2		12	17.0	2.5	/experiments/Knapen_AOT/AOT_stimuli/rescaled_final/1801_fw.mp4	0.0	134.9703004360199	0.09985160827636719
20	114.6836838722229	fix_pre	0		120	18.0	2.5	/experiments/Knapen_AOT/AOT_stimuli/rescaled_final/0927_rv.mp4	0.0	135.07015204429626	1.0085158348083496
20	114.86727404594421	pulse	0	t		18.0	2.5	/experiments/Knapen_AOT/AOT_stimuli/rescaled_final/0927_rv.mp4	0.0	135.25374221801758	
20	115.69219970703125	movie	1		282	18.0	2.5	/experiments/Knapen_AOT/AOT_stimuli/rescaled_final/0927_rv.mp4	0.0	136.07866787910461	2.4920120239257812
20	116.46539449691772	pulse	1	t		18.0	2.5	/experiments/Knapen_AOT/AOT_stimuli/rescaled_final/0927_rv.mp4	0.0	136.8518626689911	
20	118.06586003303528	pulse	1	t		18.0	2.5	/experiments/Knapen_AOT/AOT_stimuli/rescaled_final/0927_rv.mp4	0.0	138.45232820510864	
20	118.18421173095703	fix_post	2		12	18.0	2.5	/experiments/Knapen_AOT/AOT_stimuli/rescaled_final/0927_rv.mp4	0.0	138.5706799030304	0.1000051498413086
21	118.28421688079834	fix_pre	0		120	19.0	2.5	blank	1.0	138.6706850528717	1.0001533031463623
21	119.2843701839447	movie	1		300	19.0	2.5	blank	1.0	139.67083835601807	2.5003721714019775
21	119.663339138031	pulse	1	t		19.0	2.5	blank	1.0	140.04980731010437	
21	121.26831841468811	pulse	1	t		19.0	2.5	blank	1.0	141.65478658676147	
21	121.78474235534668	fix_post	2		12	19.0	2.5	blank	1.0	142.17121052742004	0.10001540184020996
22	121.88475775718689	fix_pre	0		119	20.0	2.5	/experiments/Knapen_AOT/AOT_stimuli/rescaled_final/1481_fw.mp4	0.0	142.27122592926025	1.0085499286651611
22	122.86851954460144	pulse	0	t		20.0	2.5	/experiments/Knapen_AOT/AOT_stimuli/rescaled_final/1481_fw.mp4	0.0	143.2549877166748	
22	122.89330768585205	movie	1		291	20.0	2.5	/experiments/Knapen_AOT/AOT_stimuli/rescaled_final/1481_fw.mp4	0.0	143.27977585792542	2.4919939041137695
22	124.46726202964783	pulse	1	t		20.0	2.5	/experiments/Knapen_AOT/AOT_stimuli/rescaled_final/1481_fw.mp4	0.0	144.8537302017212	
22	125.38530158996582	fix_post	2		12	20.0	2.5	/experiments/Knapen_AOT/AOT_stimuli/rescaled_final/1481_fw.mp4	0.0	145.77176976203918	0.10001516342163086
23	125.48531675338745	fix_pre	0		120	21.0	2.5	/experiments/Knapen_AOT/AOT_stimuli/rescaled_final/0537_fw.mp4	0.0	145.87178492546082	1.0085225105285645
23	126.069326877594	pulse	0	t		21.0	2.5	/experiments/Knapen_AOT/AOT_stimuli/rescaled_final/0537_fw.mp4	0.0	146.45579504966736	
23	126.49383926391602	movie	1		284	21.0	2.5	/experiments/Knapen_AOT/AOT_stimuli/rescaled_final/0537_fw.mp4	0.0	146.88030743598938	2.4920554161071777
23	127.66737270355225	pulse	1	t		21.0	2.5	/experiments/Knapen_AOT/AOT_stimuli/rescaled_final/0537_fw.mp4	0.0	148.0538408756256	
23	128.9858946800232	fix_post	2		12	21.0	2.5	/experiments/Knapen_AOT/AOT_stimuli/rescaled_final/0537_fw.mp4	0.0	149.37236285209656	0.09997415542602539
24	129.08586883544922	fix_pre	0		120	22.0	2.5	/experiments/Knapen_AOT/AOT_stimuli/rescaled_final/0548_rv.mp4	0.0	149.47233700752258	1.0084922313690186
24	129.26970219612122	pulse	0	t		22.0	2.5	/experiments/Knapen_AOT/AOT_stimuli/rescaled_final/0548_rv.mp4	0.0	149.65617036819458	
24	130.09436106681824	movie	1		276	22.0	2.5	/experiments/Knapen_AOT/AOT_stimuli/rescaled_final/0548_rv.mp4	0.0	150.4808292388916	2.492018699645996
24	130.86753153800964	pulse	1	t		22.0	2.5	/experiments/Knapen_AOT/AOT_stimuli/rescaled_final/0548_rv.mp4	0.0	151.253999710083	
24	132.4676866531372	pulse	1	t		22.0	2.5	/experiments/Knapen_AOT/AOT_stimuli/rescaled_final/0548_rv.mp4	0.0	152.85415482521057	
24	132.58637976646423	fix_post	2		12	22.0	2.5	/experiments/Knapen_AOT/AOT_stimuli/rescaled_final/0548_rv.mp4	0.0	152.9728479385376	0.10002636909484863
25	132.68640613555908	fix_pre	0		120	23.0	2.5	/experiments/Knapen_AOT/AOT_stimuli/rescaled_final/2016_rv.mp4	0.0	153.07287430763245	1.0084853172302246
25	133.6948914527893	movie	1		273	23.0	2.5	/experiments/Knapen_AOT/AOT_stimuli/rescaled_final/2016_rv.mp4	0.0	154.08135962486267	2.4920871257781982
25	134.06871914863586	pulse	1	t		23.0	2.5	/experiments/Knapen_AOT/AOT_stimuli/rescaled_final/2016_rv.mp4	0.0	154.45518732070923	
25	135.67046546936035	pulse	1	t		23.0	2.5	/experiments/Knapen_AOT/AOT_stimuli/rescaled_final/2016_rv.mp4	0.0	156.05693364143372	
25	136.1869785785675	fix_post	2		12	23.0	2.5	/experiments/Knapen_AOT/AOT_stimuli/rescaled_final/2016_rv.mp4	0.0	156.57344675064087	0.09996485710144043
26	136.28694343566895	fix_pre	0		118	24.0	2.5	/experiments/Knapen_AOT/AOT_stimuli/rescaled_final/0259_fw.mp4	0.0	156.6734116077423	0.9917941093444824
26	137.2626872062683	pulse	0	t		24.0	2.5	/experiments/Knapen_AOT/AOT_stimuli/rescaled_final/0259_fw.mp4	0.0	157.64915537834167	
26	137.27873754501343	movie	1		283	24.0	2.5	/experiments/Knapen_AOT/AOT_stimuli/rescaled_final/0259_fw.mp4	0.0	157.6652057170868	2.500398635864258
26	138.8711075782776	pulse	1	t		24.0	2.5	/experiments/Knapen_AOT/AOT_stimuli/rescaled_final/0259_fw.mp4	0.0	159.25757575035095	
26	139.77913618087769	fix_post	2		12	24.0	2.5	/experiments/Knapen_AOT/AOT_stimuli/rescaled_final/0259_fw.mp4	0.0	160.16560435295105	0.10015654563903809
27	139.87929272651672	fix_pre	0		120	25.0	2.5	/experiments/Knapen_AOT/AOT_stimuli/rescaled_final/1110_fw.mp4	0.0	160.2657608985901	1.0083885192871094
27	140.46280908584595	pulse	0	t		25.0	2.5	/experiments/Knapen_AOT/AOT_stimuli/rescaled_final/1110_fw.mp4	0.0	160.8492772579193	
27	140.88768124580383	movie	1		279	25.0	2.5	/experiments/Knapen_AOT/AOT_stimuli/rescaled_final/1110_fw.mp4	0.0	161.2741494178772	2.4921886920928955
27	142.06303644180298	pulse	1	t		25.0	2.5	/experiments/Knapen_AOT/AOT_stimuli/rescaled_final/1110_fw.mp4	0.0	162.44950461387634	
27	143.37986993789673	fix_post	2		12	25.0	2.5	/experiments/Knapen_AOT/AOT_stimuli/rescaled_final/1110_fw.mp4	0.0	163.7663381099701	0.09983682632446289
28	143.4797067642212	fix_pre	0		120	26.0	2.5	/experiments/Knapen_AOT/AOT_stimuli/rescaled_final/1411_fw.mp4	0.0	163.86617493629456	1.0084772109985352
28	143.66353368759155	pulse	0	t		26.0	2.5	/experiments/Knapen_AOT/AOT_stimuli/rescaled_final/1411_fw.mp4	0.0	164.05000185966492	
28	144.48818397521973	movie	1		266	26.0	2.5	/experiments/Knapen_AOT/AOT_stimuli/rescaled_final/1411_fw.mp4	0.0	164.8746521472931	2.4920387268066406
28	145.26251792907715	pulse	1	t		26.0	2.5	/experiments/Knapen_AOT/AOT_stimuli/rescaled_final/1411_fw.mp4	0.0	165.6489861011505	
28	146.8640410900116	pulse	1	t		26.0	2.5	/experiments/Knapen_AOT/AOT_stimuli/rescaled_final/1411_fw.mp4	0.0	167.25050926208496	
28	146.98022270202637	fix_post	2		12	26.0	2.5	/experiments/Knapen_AOT/AOT_stimuli/rescaled_final/1411_fw.mp4	0.0	167.36669087409973	0.10003137588500977
29	147.08025407791138	fix_pre	0		120	27.0	2.5	blank	1.0	167.46672224998474	1.000124454498291
29	148.08037853240967	movie	1		300	27.0	2.5	blank	1.0	168.46684670448303	2.5003774166107178
29	148.46398162841797	pulse	1	t		27.0	2.5	blank	1.0	168.85044980049133	
29	150.06424808502197	pulse	1	t		27.0	2.5	blank	1.0	170.45071625709534	
29	150.58075594902039	fix_post	2		12	27.0	2.5	blank	1.0	170.96722412109375	0.1000525951385498
30	150.68080854415894	fix_pre	0		119	28.0	2.5	/experiments/Knapen_AOT/AOT_stimuli/rescaled_final/0891_rv.mp4	0.0	171.0672767162323	1.0001592636108398
30	151.66448211669922	pulse	0	t		28.0	2.5	/experiments/Knapen_AOT/AOT_stimuli/rescaled_final/0891_rv.mp4	0.0	172.05095028877258	
30	151.68096780776978	movie	1		283	28.0	2.5	/experiments/Knapen_AOT/AOT_stimuli/rescaled_final/0891_rv.mp4	0.0	172.06743597984314	2.500337600708008
30	153.26395845413208	pulse	1	t		28.0	2.5	/experiments/Knapen_AOT/AOT_stimuli/rescaled_final/0891_rv.mp4	0.0	173.65042662620544	
30	154.18130540847778	fix_post	2		12	28.0	2.5	/experiments/Knapen_AOT/AOT_stimuli/rescaled_final/0891_rv.mp4	0.0	174.56777358055115	0.09998178482055664
31	154.28128719329834	fix_pre	0		120	29.0	2.5	/experiments/Knapen_AOT/AOT_stimuli/rescaled_final/1959_rv.mp4	0.0	174.6677553653717	1.0085344314575195
31	154.86507749557495	pulse	0	t		29.0	2.5	/experiments/Knapen_AOT/AOT_stimuli/rescaled_final/1959_rv.mp4	0.0	175.25154566764832	
31	155.28982162475586	movie	1		287	29.0	2.5	/experiments/Knapen_AOT/AOT_stimuli/rescaled_final/1959_rv.mp4	0.0	175.67628979682922	2.492025852203369
31	156.4631745815277	pulse	1	t		29.0	2.5	/experiments/Knapen_AOT/AOT_stimuli/rescaled_final/1959_rv.mp4	0.0	176.84964275360107	
31	157.78184747695923	fix_post	2		12	29.0	2.5	/experiments/Knapen_AOT/AOT_stimuli/rescaled_final/1959_rv.mp4	0.0	178.1683156490326	0.10002946853637695
32	157.8818769454956	fix_pre	0		120	30.0	2.5	/experiments/Knapen_AOT/AOT_stimuli/rescaled_final/0027_fw.mp4	0.0	178.26834511756897	1.0084989070892334
32	158.06551909446716	pulse	0	t		30.0	2.5	/experiments/Knapen_AOT/AOT_stimuli/rescaled_final/0027_fw.mp4	0.0	178.45198726654053	
32	158.89037585258484	movie	1		275	30.0	2.5	/experiments/Knapen_AOT/AOT_stimuli/rescaled_final/0027_fw.mp4	0.0	179.2768440246582	2.492020606994629
32	159.66433215141296	pulse	1	t		30.0	2.5	/experiments/Knapen_AOT/AOT_stimuli/rescaled_final/0027_fw.mp4	0.0	180.05080032348633	
32	161.26381015777588	pulse	1	t		30.0	2.5	/experiments/Knapen_AOT/AOT_stimuli/rescaled_final/0027_fw.mp4	0.0	181.65027832984924	
32	161.38239645957947	fix_post	2		12	30.0	2.5	/experiments/Knapen_AOT/AOT_stimuli/rescaled_final/0027_fw.mp4	0.0	181.76886463165283	0.09997296333312988
33	161.4823694229126	fix_pre	0		120	31.0	2.5	/experiments/Knapen_AOT/AOT_stimuli/rescaled_final/2028_rv.mp4	0.0	181.86883759498596	1.0085299015045166
33	162.49089932441711	movie	1		281	31.0	2.5	/experiments/Knapen_AOT/AOT_stimuli/rescaled_final/2028_rv.mp4	0.0	182.87736749649048	2.4919817447662354
33	162.8642611503601	pulse	1	t		31.0	2.5	/experiments/Knapen_AOT/AOT_stimuli/rescaled_final/2028_rv.mp4	0.0	183.25072932243347	
33	164.46454215049744	pulse	1	t		31.0	2.5	/experiments/Knapen_AOT/AOT_stimuli/rescaled_final/2028_rv.mp4	0.0	184.8510103225708	
33	164.98288106918335	fix_post	2		12	31.0	2.5	/experiments/Knapen_AOT/AOT_stimuli/rescaled_final/2028_rv.mp4	0.0	185.3693492412567	0.10010623931884766
34	165.0829873085022	fix_pre	0		119	32.0	2.5	/experiments/Knapen_AOT/AOT_stimuli/rescaled_final/0744_rv.mp4	0.0	185.46945548057556	1.0002479553222656
34	166.0667371749878	pulse	0	t		32.0	2.5	/experiments/Knapen_AOT/AOT_stimuli/rescaled_final/0744_rv.mp4	0.0	186.45320534706116	
34	166.08323526382446	movie	1		281	32.0	2.5	/experiments/Knapen_AOT/AOT_stimuli/rescaled_final/0744_rv.mp4	0.0	186.46970343589783	2.50026798248291
34	167.66510915756226	pulse	1	t		32.0	2.5	/experiments/Knapen_AOT/AOT_stimuli/rescaled_final/0744_rv.mp4	0.0	188.05157732963562	
34	168.58350324630737	fix_post	2		12	32.0	2.5	/experiments/Knapen_AOT/AOT_stimuli/rescaled_final/0744_rv.mp4	0.0	188.96997141838074	0.1000523567199707
35	168.68355560302734	fix_pre	0		120	33.0	2.5	/experiments/Knapen_AOT/AOT_stimuli/rescaled_final/1874_fw.mp4	0.0	189.0700237751007	1.0084125995635986
35	169.2671411037445	pulse	0	t		33.0	2.5	/experiments/Knapen_AOT/AOT_stimuli/rescaled_final/1874_fw.mp4	0.0	189.65360927581787	
35	169.69196820259094	movie	1		287	33.0	2.5	/experiments/Knapen_AOT/AOT_stimuli/rescaled_final/1874_fw.mp4	0.0	190.0784363746643	2.492025852203369
35	170.865496635437	pulse	1	t		33.0	2.5	/experiments/Knapen_AOT/AOT_stimuli/rescaled_final/1874_fw.mp4	0.0	191.25196480751038	
35	172.1839940547943	fix_post	2		12	33.0	2.5	/experiments/Knapen_AOT/AOT_stimuli/rescaled_final/1874_fw.mp4	0.0	192.57046222686768	0.10001754760742188
36	172.28401160240173	fix_pre	0		120	34.0	2.5	/experiments/Knapen_AOT/AOT_stimuli/rescaled_final/1982_rv.mp4	0.0	192.6704797744751	1.0085160732269287
36	172.46756625175476	pulse	0	t		34.0	2.5	/experiments/Knapen_AOT/AOT_stimuli/rescaled_final/1982_rv.mp4	0.0	192.85403442382812	
36	173.29252767562866	movie	1		279	34.0	2.5	/experiments/Knapen_AOT/AOT_stimuli/rescaled_final/1982_rv.mp4	0.0	193.67899584770203	2.492017984390259
36	174.06602334976196	pulse	1	t		34.0	2.5	/experiments/Knapen_AOT/AOT_stimuli/rescaled_final/1982_rv.mp4	0.0	194.45249152183533	
36	175.66592288017273	pulse	1	t		34.0	2.5	/experiments/Knapen_AOT/AOT_stimuli/rescaled_final/1982_rv.mp4	0.0	196.0523910522461	
36	175.78454566001892	fix_post	2		12	34.0	2.5	/experiments/Knapen_AOT/AOT_stimuli/rescaled_final/1982_rv.mp4	0.0	196.17101383209229	0.10000944137573242
37	175.88455510139465	fix_pre	0		120	35.0	2.5	blank	1.0	196.27102327346802	1.0001335144042969
37	176.88468861579895	movie	1		300	35.0	2.5	blank	1.0	197.27115678787231	2.5004117488861084
37	177.26845860481262	pulse	1	t		35.0	2.5	blank	1.0	197.654926776886	
37	178.86853885650635	pulse	1	t		35.0	2.5	blank	1.0	199.2550070285797	
37	179.38510036468506	fix_post	2		12	35.0	2.5	blank	1.0	199.77156853675842	0.1000218391418457
38	179.4851222038269	fix_pre	0		119	36.0	2.5	/experiments/Knapen_AOT/AOT_stimuli/rescaled_final/2169_rv.mp4	0.0	199.87159037590027	1.0001780986785889
38	180.46888256072998	pulse	0	t		36.0	2.5	/experiments/Knapen_AOT/AOT_stimuli/rescaled_final/2169_rv.mp4	0.0	200.85535073280334	
38	180.4853003025055	movie	1		289	36.0	2.5	/experiments/Knapen_AOT/AOT_stimuli/rescaled_final/2169_rv.mp4	0.0	200.87176847457886	2.500356435775757
38	182.0676519870758	pulse	1	t		36.0	2.5	/experiments/Knapen_AOT/AOT_stimuli/rescaled_final/2169_rv.mp4	0.0	202.45412015914917	
38	182.98565673828125	fix_post	2		12	36.0	2.5	/experiments/Knapen_AOT/AOT_stimuli/rescaled_final/2169_rv.mp4	0.0	203.37212491035461	0.10001611709594727
39	183.0856728553772	fix_pre	0		120	37.0	2.5	/experiments/Knapen_AOT/AOT_stimuli/rescaled_final/1559_fw.mp4	0.0	203.47214102745056	1.0084865093231201
39	183.66934990882874	pulse	0	t		37.0	2.5	/experiments/Knapen_AOT/AOT_stimuli/rescaled_final/1559_fw.mp4	0.0	204.0558180809021	
39	184.09415936470032	movie	1		287	37.0	2.5	/experiments/Knapen_AOT/AOT_stimuli/rescaled_final/1559_fw.mp4	0.0	204.48062753677368	2.492014169692993
39	185.2673978805542	pulse	1	t		37.0	2.5	/experiments/Knapen_AOT/AOT_stimuli/rescaled_final/1559_fw.mp4	0.0	205.65386605262756	
39	186.5861735343933	fix_post	2		12	37.0	2.5	/experiments/Knapen_AOT/AOT_stimuli/rescaled_final/1559_fw.mp4	0.0	206.97264170646667	0.10004305839538574
40	186.6862165927887	fix_pre	0		120	38.0	2.5	/experiments/Knapen_AOT/AOT_stimuli/rescaled_final/0764_fw.mp4	0.0	207.07268476486206	1.0084969997406006
40	186.86975979804993	pulse	0	t		38.0	2.5	/experiments/Knapen_AOT/AOT_stimuli/rescaled_final/0764_fw.mp4	0.0	207.2562279701233	
40	187.6947135925293	movie	1		284	38.0	2.5	/experiments/Knapen_AOT/AOT_stimuli/rescaled_final/0764_fw.mp4	0.0	208.08118176460266	2.49200701713562
40	188.46989727020264	pulse	1	t		38.0	2.5	/experiments/Knapen_AOT/AOT_stimuli/rescaled_final/0764_fw.mp4	0.0	208.856365442276	
40	190.06189489364624	pulse	1	t		38.0	2.5	/experiments/Knapen_AOT/AOT_stimuli/rescaled_final/0764_fw.mp4	0.0	210.4483630657196	
40	190.18672060966492	fix_post	2		12	38.0	2.5	/experiments/Knapen_AOT/AOT_stimuli/rescaled_final/0764_fw.mp4	0.0	210.57318878173828	0.10001349449157715
41	190.2867341041565	fix_pre	0		120	39.0	2.5	/experiments/Knapen_AOT/AOT_stimuli/rescaled_final/0302_fw.mp4	0.0	210.67320227622986	1.0085196495056152
41	191.2952537536621	movie	1		276	39.0	2.5	/experiments/Knapen_AOT/AOT_stimuli/rescaled_final/0302_fw.mp4	0.0	211.68172192573547	2.4920098781585693
41	191.66222429275513	pulse	1	t		39.0	2.5	/experiments/Knapen_AOT/AOT_stimuli/rescaled_final/0302_fw.mp4	0.0	212.0486924648285	
41	193.26872277259827	pulse	1	t		39.0	2.5	/experiments/Knapen_AOT/AOT_stimuli/rescaled_final/0302_fw.mp4	0.0	213.65519094467163	
41	193.78726363182068	fix_post	2		12	39.0	2.5	/experiments/Knapen_AOT/AOT_stimuli/rescaled_final/0302_fw.mp4	0.0	214.17373180389404	0.09996986389160156
42	193.88723349571228	fix_pre	0		118	40.0	2.5	blank	1.0	214.27370166778564	0.9835333824157715
42	194.8626675605774	pulse	0	t		40.0	2.5	blank	1.0	215.24913573265076	
42	194.87076687812805	movie	1		301	40.0	2.5	blank	1.0	215.25723505020142	2.5086841583251953
42	196.46305656433105	pulse	1	t		40.0	2.5	blank	1.0	216.84952473640442	
42	197.37945103645325	fix_post	2		12	40.0	2.5	blank	1.0	217.7659192085266	0.10003209114074707
43	197.479483127594	fix_pre	0		120	41.0	2.5	/experiments/Knapen_AOT/AOT_stimuli/rescaled_final/1335_rv.mp4	0.0	217.86595129966736	1.0085184574127197
43	198.06319451332092	pulse	0	t		41.0	2.5	/experiments/Knapen_AOT/AOT_stimuli/rescaled_final/1335_rv.mp4	0.0	218.4496626853943	
43	198.4880015850067	movie	1		275	41.0	2.5	/experiments/Knapen_AOT/AOT_stimuli/rescaled_final/1335_rv.mp4	0.0	218.87446975708008	2.492131471633911
43	199.66340684890747	pulse	1	t		41.0	2.5	/experiments/Knapen_AOT/AOT_stimuli/rescaled_final/1335_rv.mp4	0.0	220.04987502098083	
43	200.98013305664062	fix_post	2		12	41.0	2.5	/experiments/Knapen_AOT/AOT_stimuli/rescaled_final/1335_rv.mp4	0.0	221.366601228714	0.09990310668945312
44	201.08003616333008	fix_pre	0		120	42.0	2.5	/experiments/Knapen_AOT/AOT_stimuli/rescaled_final/2081_fw.mp4	0.0	221.46650433540344	1.008495807647705
44	201.26360177993774	pulse	0	t		42.0	2.5	/experiments/Knapen_AOT/AOT_stimuli/rescaled_final/2081_fw.mp4	0.0	221.6500699520111	
44	202.08853197097778	movie	1		270	42.0	2.5	/experiments/Knapen_AOT/AOT_stimuli/rescaled_final/2081_fw.mp4	0.0	222.47500014305115	2.4920296669006348
44	202.8632731437683	pulse	1	t		42.0	2.5	/experiments/Knapen_AOT/AOT_stimuli/rescaled_final/2081_fw.mp4	0.0	223.24974131584167	
44	204.46227407455444	pulse	1	t		42.0	2.5	/experiments/Knapen_AOT/AOT_stimuli/rescaled_final/2081_fw.mp4	0.0	224.8487422466278	
44	204.58056163787842	fix_post	2		12	42.0	2.5	/experiments/Knapen_AOT/AOT_stimuli/rescaled_final/2081_fw.mp4	0.0	224.96702980995178	0.10004639625549316
45	204.6806080341339	fix_pre	0		120	43.0	2.5	/experiments/Knapen_AOT/AOT_stimuli/rescaled_final/2127_rv.mp4	0.0	225.06707620620728	1.0084657669067383
45	205.68907380104065	movie	1		273	43.0	2.5	/experiments/Knapen_AOT/AOT_stimuli/rescaled_final/2127_rv.mp4	0.0	226.075541973114	2.492058038711548
45	206.06446886062622	pulse	1	t		43.0	2.5	/experiments/Knapen_AOT/AOT_stimuli/rescaled_final/2127_rv.mp4	0.0	226.45093703269958	
45	207.66274905204773	pulse	1	t		43.0	2.5	/experiments/Knapen_AOT/AOT_stimuli/rescaled_final/2127_rv.mp4	0.0	228.0492172241211	
45	208.1811318397522	fix_post	2		12	43.0	2.5	/experiments/Knapen_AOT/AOT_stimuli/rescaled_final/2127_rv.mp4	0.0	228.56760001182556	0.09998393058776855
46	208.28111577033997	fix_pre	0		119	44.0	2.5	/experiments/Knapen_AOT/AOT_stimuli/rescaled_final/1900_rv.mp4	0.0	228.66758394241333	1.0001914501190186
46	209.26503324508667	pulse	0	t		44.0	2.5	/experiments/Knapen_AOT/AOT_stimuli/rescaled_final/1900_rv.mp4	0.0	229.65150141716003	
46	209.28130722045898	movie	1		279	44.0	2.5	/experiments/Knapen_AOT/AOT_stimuli/rescaled_final/1900_rv.mp4	0.0	229.66777539253235	2.5003244876861572
46	210.86367797851562	pulse	1	t		44.0	2.5	/experiments/Knapen_AOT/AOT_stimuli/rescaled_final/1900_rv.mp4	0.0	231.250146150589	
46	211.78163170814514	fix_post	2		12	44.0	2.5	/experiments/Knapen_AOT/AOT_stimuli/rescaled_final/1900_rv.mp4	0.0	232.1680998802185	0.1000218391418457
47	211.881653547287	fix_pre	0		120	45.0	2.5	/experiments/Knapen_AOT/AOT_stimuli/rescaled_final/0669_fw.mp4	0.0	232.26812171936035	1.008514642715454
47	212.46529746055603	pulse	0	t		45.0	2.5	/experiments/Knapen_AOT/AOT_stimuli/rescaled_final/0669_fw.mp4	0.0	232.8517656326294	
47	212.89016819000244	movie	1		289	45.0	2.5	/experiments/Knapen_AOT/AOT_stimuli/rescaled_final/0669_fw.mp4	0.0	233.2766363620758	2.4919886589050293
47	214.06385111808777	pulse	1	t		45.0	2.5	/experiments/Knapen_AOT/AOT_stimuli/rescaled_final/0669_fw.mp4	0.0	234.45031929016113	
47	215.38215684890747	fix_post	2		12	45.0	2.5	/experiments/Knapen_AOT/AOT_stimuli/rescaled_final/0669_fw.mp4	0.0	235.76862502098083	0.10003423690795898
48	215.48219108581543	fix_pre	0		120	46.0	2.5	/experiments/Knapen_AOT/AOT_stimuli/rescaled_final/0860_fw.mp4	0.0	235.8686592578888	1.008467674255371
48	215.6658329963684	pulse	0	t		46.0	2.5	/experiments/Knapen_AOT/AOT_stimuli/rescaled_final/0860_fw.mp4	0.0	236.05230116844177	
48	216.4906587600708	movie	1		268	46.0	2.5	/experiments/Knapen_AOT/AOT_stimuli/rescaled_final/0860_fw.mp4	0.0	236.87712693214417	2.4921460151672363
48	217.26381850242615	pulse	1	t		46.0	2.5	/experiments/Knapen_AOT/AOT_stimuli/rescaled_final/0860_fw.mp4	0.0	237.6502866744995	
48	218.86408805847168	pulse	1	t		46.0	2.5	/experiments/Knapen_AOT/AOT_stimuli/rescaled_final/0860_fw.mp4	0.0	239.25055623054504	
48	218.98280477523804	fix_post	2		12	46.0	2.5	/experiments/Knapen_AOT/AOT_stimuli/rescaled_final/0860_fw.mp4	0.0	239.3692729473114	0.09991264343261719
49	219.08271741867065	fix_pre	0		120	47.0	2.5	/experiments/Knapen_AOT/AOT_stimuli/rescaled_final/0891_fw.mp4	0.0	239.46918559074402	1.008519172668457
49	220.0912365913391	movie	1		292	47.0	2.5	/experiments/Knapen_AOT/AOT_stimuli/rescaled_final/0891_fw.mp4	0.0	240.47770476341248	2.492011308670044
49	220.46509313583374	pulse	1	t		47.0	2.5	/experiments/Knapen_AOT/AOT_stimuli/rescaled_final/0891_fw.mp4	0.0	240.8515613079071	
49	222.0648250579834	pulse	1	t		47.0	2.5	/experiments/Knapen_AOT/AOT_stimuli/rescaled_final/0891_fw.mp4	0.0	242.45129323005676	
49	222.58324790000916	fix_post	2		12	47.0	2.5	/experiments/Knapen_AOT/AOT_stimuli/rescaled_final/0891_fw.mp4	0.0	242.96971607208252	0.10005593299865723
50	222.6833038330078	fix_pre	0		119	48.0	2.5	/experiments/Knapen_AOT/AOT_stimuli/rescaled_final/0949_rv.mp4	0.0	243.06977200508118	1.0001494884490967
50	223.66711473464966	pulse	0	t		48.0	2.5	/experiments/Knapen_AOT/AOT_stimuli/rescaled_final/0949_rv.mp4	0.0	244.05358290672302	
50	223.6834533214569	movie	1		270	48.0	2.5	/experiments/Knapen_AOT/AOT_stimuli/rescaled_final/0949_rv.mp4	0.0	244.06992149353027	2.5003323554992676
50	225.26541662216187	pulse	1	t		48.0	2.5	/experiments/Knapen_AOT/AOT_stimuli/rescaled_final/0949_rv.mp4	0.0	245.65188479423523	
50	226.18378567695618	fix_post	2		12	48.0	2.5	/experiments/Knapen_AOT/AOT_stimuli/rescaled_final/0949_rv.mp4	0.0	246.57025384902954	0.1000826358795166
51	226.2838683128357	fix_pre	0		120	49.0	2.5	blank	1.0	246.67033648490906	1.0000801086425781
51	226.86744618415833	pulse	0	t		49.0	2.5	blank	1.0	247.2539143562317	
51	227.28394842147827	movie	1		300	49.0	2.5	blank	1.0	247.67041659355164	2.500403642654419
51	228.46781873703003	pulse	1	t		49.0	2.5	blank	1.0	248.8542869091034	
51	229.7843520641327	fix_post	2		12	49.0	2.5	blank	1.0	250.17082023620605	0.09999918937683105
52	229.88435125350952	fix_pre	0		120	50.0	2.5	/experiments/Knapen_AOT/AOT_stimuli/rescaled_final/1016_fw.mp4	0.0	250.27081942558289	1.0084943771362305
52	230.06794023513794	pulse	0	t		50.0	2.5	/experiments/Knapen_AOT/AOT_stimuli/rescaled_final/1016_fw.mp4	0.0	250.4544084072113	
52	230.89284563064575	movie	1		271	50.0	2.5	/experiments/Knapen_AOT/AOT_stimuli/rescaled_final/1016_fw.mp4	0.0	251.27931380271912	2.492015838623047
52	231.6663646697998	pulse	1	t		50.0	2.5	/experiments/Knapen_AOT/AOT_stimuli/rescaled_final/1016_fw.mp4	0.0	252.05283284187317	
52	233.2668697834015	pulse	1	t		50.0	2.5	/experiments/Knapen_AOT/AOT_stimuli/rescaled_final/1016_fw.mp4	0.0	253.65333795547485	
52	233.3848614692688	fix_post	2		12	50.0	2.5	/experiments/Knapen_AOT/AOT_stimuli/rescaled_final/1016_fw.mp4	0.0	253.77132964134216	0.10002923011779785
53	233.4848906993866	fix_pre	0		120	51.0	2.5	/experiments/Knapen_AOT/AOT_stimuli/rescaled_final/1431_fw.mp4	0.0	253.87135887145996	1.0085175037384033
53	234.493408203125	movie	1		280	51.0	2.5	/experiments/Knapen_AOT/AOT_stimuli/rescaled_final/1431_fw.mp4	0.0	254.87987637519836	2.4919991493225098
53	234.86695528030396	pulse	1	t		51.0	2.5	/experiments/Knapen_AOT/AOT_stimuli/rescaled_final/1431_fw.mp4	0.0	255.25342345237732	
53	236.4680507183075	pulse	1	t		51.0	2.5	/experiments/Knapen_AOT/AOT_stimuli/rescaled_final/1431_fw.mp4	0.0	256.85451889038086	
53	236.9854073524475	fix_post	2		12	51.0	2.5	/experiments/Knapen_AOT/AOT_stimuli/rescaled_final/1431_fw.mp4	0.0	257.3718755245209	0.10003161430358887
54	237.0854389667511	fix_pre	0		119	52.0	2.5	/experiments/Knapen_AOT/AOT_stimuli/rescaled_final/1319_fw.mp4	0.0	257.47190713882446	1.0001637935638428
54	238.06911706924438	pulse	0	t		52.0	2.5	/experiments/Knapen_AOT/AOT_stimuli/rescaled_final/1319_fw.mp4	0.0	258.45558524131775	
54	238.08560276031494	movie	1		275	52.0	2.5	/experiments/Knapen_AOT/AOT_stimuli/rescaled_final/1319_fw.mp4	0.0	258.4720709323883	2.5003788471221924
54	239.66836428642273	pulse	1	t		52.0	2.5	/experiments/Knapen_AOT/AOT_stimuli/rescaled_final/1319_fw.mp4	0.0	260.0548324584961	
54	240.58598160743713	fix_post	2		12	52.0	2.5	/experiments/Knapen_AOT/AOT_stimuli/rescaled_final/1319_fw.mp4	0.0	260.9724497795105	0.10000228881835938
55	240.6859838962555	fix_pre	0		120	53.0	2.5	/experiments/Knapen_AOT/AOT_stimuli/rescaled_final/0105_rv.mp4	0.0	261.07245206832886	1.0085227489471436
55	241.26953673362732	pulse	0	t		53.0	2.5	/experiments/Knapen_AOT/AOT_stimuli/rescaled_final/0105_rv.mp4	0.0	261.6560049057007	
55	241.69450664520264	movie	1		262	53.0	2.5	/experiments/Knapen_AOT/AOT_stimuli/rescaled_final/0105_rv.mp4	0.0	262.080974817276	2.4920766353607178
55	242.86839270591736	pulse	1	t		53.0	2.5	/experiments/Knapen_AOT/AOT_stimuli/rescaled_final/0105_rv.mp4	0.0	263.2548608779907	
55	244.18658328056335	fix_post	2		12	53.0	2.5	/experiments/Knapen_AOT/AOT_stimuli/rescaled_final/0105_rv.mp4	0.0	264.5730514526367	0.09994387626647949
56	244.28652715682983	fix_pre	0		120	54.0	2.5	/experiments/Knapen_AOT/AOT_stimuli/rescaled_final/0704_rv.mp4	0.0	264.6729953289032	1.0084559917449951
56	244.46214628219604	pulse	0	t		54.0	2.5	/experiments/Knapen_AOT/AOT_stimuli/rescaled_final/0704_rv.mp4	0.0	264.8486144542694	
56	245.29498314857483	movie	1		284	54.0	2.5	/experiments/Knapen_AOT/AOT_stimuli/rescaled_final/0704_rv.mp4	0.0	265.6814513206482	2.492076873779297
56	246.06238865852356	pulse	1	t		54.0	2.5	/experiments/Knapen_AOT/AOT_stimuli/rescaled_final/0704_rv.mp4	0.0	266.4488568305969	
56	247.66242170333862	pulse	1	t		54.0	2.5	/experiments/Knapen_AOT/AOT_stimuli/rescaled_final/0704_rv.mp4	0.0	268.048889875412	
56	247.78706002235413	fix_post	2		12	54.0	2.5	/experiments/Knapen_AOT/AOT_stimuli/rescaled_final/0704_rv.mp4	0.0	268.1735281944275	0.10007977485656738
57	247.8871397972107	fix_pre	0		120	55.0	2.5	blank	1.0	268.27360796928406	1.0001318454742432
57	248.88727164268494	movie	1		300	55.0	2.5	blank	1.0	269.2737398147583	2.5003013610839844
57	249.2624909877777	pulse	1	t		55.0	2.5	blank	1.0	269.6489591598511	
57	250.8627645969391	pulse	1	t		55.0	2.5	blank	1.0	271.24923276901245	
57	251.38757300376892	fix_post	2		12	55.0	2.5	blank	1.0	271.7740411758423	0.1000370979309082
58	251.48761010169983	fix_pre	0		118	56.0	2.5	/experiments/Knapen_AOT/AOT_stimuli/rescaled_final/1016_rv.mp4	0.0	271.8740782737732	0.9918301105499268
58	252.46298265457153	pulse	0	t		56.0	2.5	/experiments/Knapen_AOT/AOT_stimuli/rescaled_final/1016_rv.mp4	0.0	272.8494508266449	
58	252.47944021224976	movie	1		282	56.0	2.5	/experiments/Knapen_AOT/AOT_stimuli/rescaled_final/1016_rv.mp4	0.0	272.8659083843231	2.500432014465332
58	254.06232976913452	pulse	1	t		56.0	2.5	/experiments/Knapen_AOT/AOT_stimuli/rescaled_final/1016_rv.mp4	0.0	274.4487979412079	
58	254.9798722267151	fix_post	2		12	56.0	2.5	/experiments/Knapen_AOT/AOT_stimuli/rescaled_final/1016_rv.mp4	0.0	275.36634039878845	0.09994316101074219
59	255.07981538772583	fix_pre	0		120	57.0	2.5	/experiments/Knapen_AOT/AOT_stimuli/rescaled_final/0239_fw.mp4	0.0	275.4662835597992	1.0084896087646484
59	255.66352772712708	pulse	0	t		57.0	2.5	/experiments/Knapen_AOT/AOT_stimuli/rescaled_final/0239_fw.mp4	0.0	276.04999589920044	
59	256.0883049964905	movie	1		274	57.0	2.5	/experiments/Knapen_AOT/AOT_stimuli/rescaled_final/0239_fw.mp4	0.0	276.47477316856384	2.4920454025268555
59	257.2624707221985	pulse	1	t		57.0	2.5	/experiments/Knapen_AOT/AOT_stimuli/rescaled_final/0239_fw.mp4	0.0	277.64893889427185	
59	258.58035039901733	fix_post	2		12	57.0	2.5	/experiments/Knapen_AOT/AOT_stimuli/rescaled_final/0239_fw.mp4	0.0	278.9668185710907	0.10002541542053223
60	258.68037581443787	fix_pre	0		120	58.0	2.5	/experiments/Knapen_AOT/AOT_stimuli/rescaled_final/0815_rv.mp4	0.0	279.06684398651123	1.008500576019287
60	258.8639268875122	pulse	0	t		58.0	2.5	/experiments/Knapen_AOT/AOT_stimuli/rescaled_final/0815_rv.mp4	0.0	279.25039505958557	
60	259.68887639045715	movie	1		284	58.0	2.5	/experiments/Knapen_AOT/AOT_stimuli/rescaled_final/0815_rv.mp4	0.0	280.0753445625305	2.4920170307159424
60	260.4643454551697	pulse	1	t		58.0	2.5	/experiments/Knapen_AOT/AOT_stimuli/rescaled_final/0815_rv.mp4	0.0	280.85081362724304	
60	262.0625915527344	pulse	1	t		58.0	2.5	/experiments/Knapen_AOT/AOT_stimuli/rescaled_final/0815_rv.mp4	0.0	282.44905972480774	
60	262.1808934211731	fix_post	2		12	58.0	2.5	/experiments/Knapen_AOT/AOT_stimuli/rescaled_final/0815_rv.mp4	0.0	282.56736159324646	0.10003662109375
61	262.28093004226685	fix_pre	0		120	59.0	2.5	/experiments/Knapen_AOT/AOT_stimuli/rescaled_final/1495_rv.mp4	0.0	282.6673982143402	1.008458137512207
61	263.28938817977905	movie	1		279	59.0	2.5	/experiments/Knapen_AOT/AOT_stimuli/rescaled_final/1495_rv.mp4	0.0	283.6758563518524	2.4921090602874756
61	263.66380882263184	pulse	1	t		59.0	2.5	/experiments/Knapen_AOT/AOT_stimuli/rescaled_final/1495_rv.mp4	0.0	284.0502769947052	
61	265.2627818584442	pulse	1	t		59.0	2.5	/experiments/Knapen_AOT/AOT_stimuli/rescaled_final/1495_rv.mp4	0.0	285.6492500305176	
61	265.7814972400665	fix_post	2		12	59.0	2.5	/experiments/Knapen_AOT/AOT_stimuli/rescaled_final/1495_rv.mp4	0.0	286.1679654121399	0.09997439384460449
62	265.88147163391113	fix_pre	0		119	60.0	2.5	/experiments/Knapen_AOT/AOT_stimuli/rescaled_final/0207_rv.mp4	0.0	286.2679398059845	1.0001466274261475
62	266.86536979675293	pulse	0	t		60.0	2.5	/experiments/Knapen_AOT/AOT_stimuli/rescaled_final/0207_rv.mp4	0.0	287.2518379688263	
62	266.8816182613373	movie	1		280	60.0	2.5	/experiments/Knapen_AOT/AOT_stimuli/rescaled_final/0207_rv.mp4	0.0	287.26808643341064	2.5003716945648193
62	268.4639723300934	pulse	1	t		60.0	2.5	/experiments/Knapen_AOT/AOT_stimuli/rescaled_final/0207_rv.mp4	0.0	288.85044050216675	
62	269.3819899559021	fix_post	2		12	60.0	2.5	/experiments/Knapen_AOT/AOT_stimuli/rescaled_final/0207_rv.mp4	0.0	289.76845812797546	0.09999299049377441
63	269.4819829463959	fix_pre	0		120	61.0	2.5	/experiments/Knapen_AOT/AOT_stimuli/rescaled_final/1401_rv.mp4	0.0	289.86845111846924	1.0085399150848389
63	270.0656797885895	pulse	0	t		61.0	2.5	/experiments/Knapen_AOT/AOT_stimuli/rescaled_final/1401_rv.mp4	0.0	290.45214796066284	
63	270.4905228614807	movie	1		257	61.0	2.5	/experiments/Knapen_AOT/AOT_stimuli/rescaled_final/1401_rv.mp4	0.0	290.8769910335541	2.4920077323913574
63	271.66571855545044	pulse	1	t		61.0	2.5	/experiments/Knapen_AOT/AOT_stimuli/rescaled_final/1401_rv.mp4	0.0	292.0521867275238	
63	272.98253059387207	fix_post	2		12	61.0	2.5	/experiments/Knapen_AOT/AOT_stimuli/rescaled_final/1401_rv.mp4	0.0	293.36899876594543	0.1000065803527832
64	273.08253717422485	fix_pre	0		120	62.0	2.5	blank	1.0	293.4690053462982	1.0001440048217773
64	273.26619124412537	pulse	0	t		62.0	2.5	blank	1.0	293.65265941619873	
64	274.08268117904663	movie	1		300	62.0	2.5	blank	1.0	294.46914935112	2.500361204147339
64	274.86638259887695	pulse	1	t		62.0	2.5	blank	1.0	295.2528507709503	
64	276.4665424823761	pulse	1	t		62.0	2.5	blank	1.0	296.85301065444946	
64	276.58304238319397	fix_post	2		12	62.0	2.5	blank	1.0	296.96951055526733	0.10001683235168457
65	276.68305921554565	fix_pre	0		120	63.0	2.5	/experiments/Knapen_AOT/AOT_stimuli/rescaled_final/1646_rv.mp4	0.0	297.069527387619	1.0085194110870361
65	277.6915786266327	movie	1		270	63.0	2.5	/experiments/Knapen_AOT/AOT_stimuli/rescaled_final/1646_rv.mp4	0.0	298.07804679870605	2.4920129776000977
65	278.0654582977295	pulse	1	t		63.0	2.5	/experiments/Knapen_AOT/AOT_stimuli/rescaled_final/1646_rv.mp4	0.0	298.45192646980286	
65	279.6652593612671	pulse	1	t		63.0	2.5	/experiments/Knapen_AOT/AOT_stimuli/rescaled_final/1646_rv.mp4	0.0	300.05172753334045	
65	280.1835916042328	fix_post	2		12	63.0	2.5	/experiments/Knapen_AOT/AOT_stimuli/rescaled_final/1646_rv.mp4	0.0	300.57005977630615	0.10000181198120117
66	280.283593416214	fix_pre	0		119	64.0	2.5	/experiments/Knapen_AOT/AOT_stimuli/rescaled_final/1817_rv.mp4	0.0	300.67006158828735	1.0085735321044922
66	281.2674856185913	pulse	0	t		64.0	2.5	/experiments/Knapen_AOT/AOT_stimuli/rescaled_final/1817_rv.mp4	0.0	301.6539537906647	
66	281.2921669483185	movie	1		279	64.0	2.5	/experiments/Knapen_AOT/AOT_stimuli/rescaled_final/1817_rv.mp4	0.0	301.67863512039185	2.491971254348755
66	282.866108417511	pulse	1	t		64.0	2.5	/experiments/Knapen_AOT/AOT_stimuli/rescaled_final/1817_rv.mp4	0.0	303.25257658958435	
66	283.78413820266724	fix_post	2		12	64.0	2.5	/experiments/Knapen_AOT/AOT_stimuli/rescaled_final/1817_rv.mp4	0.0	304.1706063747406	0.10001873970031738
67	283.88415694236755	fix_pre	0		120	65.0	2.5	/experiments/Knapen_AOT/AOT_stimuli/rescaled_final/0279_fw.mp4	0.0	304.2706251144409	1.0084936618804932
67	284.46779108047485	pulse	0	t		65.0	2.5	/experiments/Knapen_AOT/AOT_stimuli/rescaled_final/0279_fw.mp4	0.0	304.8542592525482	
67	284.89265060424805	movie	1		281	65.0	2.5	/experiments/Knapen_AOT/AOT_stimuli/rescaled_final/0279_fw.mp4	0.0	305.2791187763214	2.4919931888580322
67	286.066303730011	pulse	1	t		65.0	2.5	/experiments/Knapen_AOT/AOT_stimuli/rescaled_final/0279_fw.mp4	0.0	306.45277190208435	
67	287.3846437931061	fix_post	2		12	65.0	2.5	/experiments/Knapen_AOT/AOT_stimuli/rescaled_final/0279_fw.mp4	0.0	307.77111196517944	0.10003376007080078
68	287.4846775531769	fix_pre	0		120	66.0	2.5	/experiments/Knapen_AOT/AOT_stimuli/rescaled_final/0730_rv.mp4	0.0	307.87114572525024	1.0169503688812256
68	287.66829538345337	pulse	0	t		66.0	2.5	/experiments/Knapen_AOT/AOT_stimuli/rescaled_final/0730_rv.mp4	0.0	308.05476355552673	
68	288.5016279220581	movie	1		283	66.0	2.5	/experiments/Knapen_AOT/AOT_stimuli/rescaled_final/0730_rv.mp4	0.0	308.88809609413147	2.4835708141326904
68	289.2669222354889	pulse	1	t		66.0	2.5	/experiments/Knapen_AOT/AOT_stimuli/rescaled_final/0730_rv.mp4	0.0	309.65339040756226	
68	290.8670380115509	pulse	1	t		66.0	2.5	/experiments/Knapen_AOT/AOT_stimuli/rescaled_final/0730_rv.mp4	0.0	311.25350618362427	
68	290.9851987361908	fix_post	2		12	66.0	2.5	/experiments/Knapen_AOT/AOT_stimuli/rescaled_final/0730_rv.mp4	0.0	311.37166690826416	0.1000206470489502
69	291.08521938323975	fix_pre	0		120	67.0	2.5	/experiments/Knapen_AOT/AOT_stimuli/rescaled_final/0459_fw.mp4	0.0	311.4716875553131	1.0085370540618896
69	292.09375643730164	movie	1		276	67.0	2.5	/experiments/Knapen_AOT/AOT_stimuli/rescaled_final/0459_fw.mp4	0.0	312.480224609375	2.491989850997925
69	292.4674952030182	pulse	1	t		67.0	2.5	/experiments/Knapen_AOT/AOT_stimuli/rescaled_final/0459_fw.mp4	0.0	312.85396337509155	
69	294.06810426712036	pulse	1	t		67.0	2.5	/experiments/Knapen_AOT/AOT_stimuli/rescaled_final/0459_fw.mp4	0.0	314.4545724391937	
69	294.58574628829956	fix_post	2		12	67.0	2.5	/experiments/Knapen_AOT/AOT_stimuli/rescaled_final/0459_fw.mp4	0.0	314.9722144603729	0.10006117820739746
70	294.68580746650696	fix_pre	0		119	68.0	2.5	/experiments/Knapen_AOT/AOT_stimuli/rescaled_final/0993_rv.mp4	0.0	315.0722756385803	1.000105381011963
70	295.6630029678345	pulse	0	t		68.0	2.5	/experiments/Knapen_AOT/AOT_stimuli/rescaled_final/0993_rv.mp4	0.0	316.04947113990784	
70	295.6859128475189	movie	1		279	68.0	2.5	/experiments/Knapen_AOT/AOT_stimuli/rescaled_final/0993_rv.mp4	0.0	316.0723810195923	2.500373125076294
70	297.2695643901825	pulse	1	t		68.0	2.5	/experiments/Knapen_AOT/AOT_stimuli/rescaled_final/0993_rv.mp4	0.0	317.65603256225586	
70	298.1862859725952	fix_post	2		12	68.0	2.5	/experiments/Knapen_AOT/AOT_stimuli/rescaled_final/0993_rv.mp4	0.0	318.5727541446686	0.10001564025878906
71	298.286301612854	fix_pre	0		120	69.0	2.5	blank	1.0	318.67276978492737	1.0002031326293945
71	298.87014532089233	pulse	0	t		69.0	2.5	blank	1.0	319.2566134929657	
71	299.2865047454834	movie	1		300	69.0	2.5	blank	1.0	319.67297291755676	2.500328302383423
71	300.470356464386	pulse	1	t		69.0	2.5	blank	1.0	320.85682463645935	
71	301.7868330478668	fix_post	2		12	69.0	2.5	blank	1.0	322.1733012199402	0.10002994537353516
72	301.88686299324036	fix_pre	0		120	70.0	2.5	/experiments/Knapen_AOT/AOT_stimuli/rescaled_final/1132_fw.mp4	0.0	322.2733311653137	1.0085134506225586
72	302.0635862350464	pulse	0	t		70.0	2.5	/experiments/Knapen_AOT/AOT_stimuli/rescaled_final/1132_fw.mp4	0.0	322.45005440711975	
72	302.8953764438629	movie	1		267	70.0	2.5	/experiments/Knapen_AOT/AOT_stimuli/rescaled_final/1132_fw.mp4	0.0	323.2818446159363	2.4920005798339844
72	303.6704752445221	pulse	1	t		70.0	2.5	/experiments/Knapen_AOT/AOT_stimuli/rescaled_final/1132_fw.mp4	0.0	324.05694341659546	
72	305.26279640197754	pulse	1	t		70.0	2.5	/experiments/Knapen_AOT/AOT_stimuli/rescaled_final/1132_fw.mp4	0.0	325.6492645740509	
72	305.3873770236969	fix_post	2		12	70.0	2.5	/experiments/Knapen_AOT/AOT_stimuli/rescaled_final/1132_fw.mp4	0.0	325.77384519577026	0.10012173652648926
73	305.4874987602234	fix_pre	0		120	71.0	2.5	/experiments/Knapen_AOT/AOT_stimuli/rescaled_final/0246_rv.mp4	0.0	325.87396693229675	1.0083866119384766
73	306.49588537216187	movie	1		272	71.0	2.5	/experiments/Knapen_AOT/AOT_stimuli/rescaled_final/0246_rv.mp4	0.0	326.88235354423523	2.4920454025268555
73	306.8630838394165	pulse	1	t		71.0	2.5	/experiments/Knapen_AOT/AOT_stimuli/rescaled_final/0246_rv.mp4	0.0	327.24955201148987	
73	308.46304535865784	pulse	1	t		71.0	2.5	/experiments/Knapen_AOT/AOT_stimuli/rescaled_final/0246_rv.mp4	0.0	328.8495135307312	
73	308.9879307746887	fix_post	2		12	71.0	2.5	/experiments/Knapen_AOT/AOT_stimuli/rescaled_final/0246_rv.mp4	0.0	329.3743989467621	0.10002636909484863
74	309.08795714378357	fix_pre	0		118	72.0	2.5	/experiments/Knapen_AOT/AOT_stimuli/rescaled_final/1669_rv.mp4	0.0	329.47442531585693	1.0002174377441406
74	310.0633490085602	pulse	0	t		72.0	2.5	/experiments/Knapen_AOT/AOT_stimuli/rescaled_final/1669_rv.mp4	0.0	330.44981718063354	
74	310.0881745815277	movie	1		271	72.0	2.5	/experiments/Knapen_AOT/AOT_stimuli/rescaled_final/1669_rv.mp4	0.0	330.4746427536011	2.491992950439453
74	311.6636161804199	pulse	1	t		72.0	2.5	/experiments/Knapen_AOT/AOT_stimuli/rescaled_final/1669_rv.mp4	0.0	332.0500843524933	
74	312.58016753196716	fix_post	2		12	72.0	2.5	/experiments/Knapen_AOT/AOT_stimuli/rescaled_final/1669_rv.mp4	0.0	332.9666357040405	0.09999489784240723
75	312.68016242980957	fix_pre	0		120	73.0	2.5	/experiments/Knapen_AOT/AOT_stimuli/rescaled_final/1210_fw.mp4	0.0	333.06663060188293	1.008481740951538
75	313.2638409137726	pulse	0	t		73.0	2.5	/experiments/Knapen_AOT/AOT_stimuli/rescaled_final/1210_fw.mp4	0.0	333.65030908584595	
75	313.6886441707611	movie	1		279	73.0	2.5	/experiments/Knapen_AOT/AOT_stimuli/rescaled_final/1210_fw.mp4	0.0	334.0751123428345	2.4920308589935303
75	314.86340141296387	pulse	1	t		73.0	2.5	/experiments/Knapen_AOT/AOT_stimuli/rescaled_final/1210_fw.mp4	0.0	335.24986958503723	
75	316.18067502975464	fix_post	2		12	73.0	2.5	/experiments/Knapen_AOT/AOT_stimuli/rescaled_final/1210_fw.mp4	0.0	336.567143201828	0.1000204086303711
76	316.280695438385	fix_pre	0		120	74.0	2.5	/experiments/Knapen_AOT/AOT_stimuli/rescaled_final/1141_rv.mp4	0.0	336.6671636104584	1.0084972381591797
76	316.46431398391724	pulse	0	t		74.0	2.5	/experiments/Knapen_AOT/AOT_stimuli/rescaled_final/1141_rv.mp4	0.0	336.8507821559906	
76	317.2891926765442	movie	1		275	74.0	2.5	/experiments/Knapen_AOT/AOT_stimuli/rescaled_final/1141_rv.mp4	0.0	337.67566084861755	2.492037534713745
76	318.0626902580261	pulse	1	t		74.0	2.5	/experiments/Knapen_AOT/AOT_stimuli/rescaled_final/1141_rv.mp4	0.0	338.4491584300995	
76	319.66293931007385	pulse	1	t		74.0	2.5	/experiments/Knapen_AOT/AOT_stimuli/rescaled_final/1141_rv.mp4	0.0	340.0494074821472	
76	319.78123021125793	fix_post	2		12	74.0	2.5	/experiments/Knapen_AOT/AOT_stimuli/rescaled_final/1141_rv.mp4	0.0	340.1676983833313	0.10000300407409668
77	319.88123321533203	fix_pre	0		120	75.0	2.5	/experiments/Knapen_AOT/AOT_stimuli/rescaled_final/0002_fw.mp4	0.0	340.2677013874054	1.0085492134094238
77	320.88978242874146	movie	1		279	75.0	2.5	/experiments/Knapen_AOT/AOT_stimuli/rescaled_final/0002_fw.mp4	0.0	341.2762506008148	2.491959810256958
77	321.2654252052307	pulse	1	t		75.0	2.5	/experiments/Knapen_AOT/AOT_stimuli/rescaled_final/0002_fw.mp4	0.0	341.6518933773041	
77	322.8651556968689	pulse	1	t		75.0	2.5	/experiments/Knapen_AOT/AOT_stimuli/rescaled_final/0002_fw.mp4	0.0	343.25162386894226	
77	323.3817422389984	fix_post	2		12	75.0	2.5	/experiments/Knapen_AOT/AOT_stimuli/rescaled_final/0002_fw.mp4	0.0	343.7682104110718	0.10003018379211426
78	323.4817724227905	fix_pre	0		119	76.0	2.5	/experiments/Knapen_AOT/AOT_stimuli/rescaled_final/0949_fw.mp4	0.0	343.8682405948639	1.0001647472381592
78	324.46548986434937	pulse	0	t		76.0	2.5	/experiments/Knapen_AOT/AOT_stimuli/rescaled_final/0949_fw.mp4	0.0	344.85195803642273	
78	324.4819371700287	movie	1		270	76.0	2.5	/experiments/Knapen_AOT/AOT_stimuli/rescaled_final/0949_fw.mp4	0.0	344.86840534210205	2.5005033016204834
78	326.06474471092224	pulse	1	t		76.0	2.5	/experiments/Knapen_AOT/AOT_stimuli/rescaled_final/0949_fw.mp4	0.0	346.4512128829956	
78	326.98244047164917	fix_post	2		12	76.0	2.5	/experiments/Knapen_AOT/AOT_stimuli/rescaled_final/0949_fw.mp4	0.0	347.36890864372253	0.0999147891998291
79	327.082355260849	fix_pre	0		120	77.0	2.5	blank	1.0	347.46882343292236	1.0001044273376465
79	327.6659827232361	pulse	0	t		77.0	2.5	blank	1.0	348.05245089530945	
79	328.08245968818665	movie	1		300	77.0	2.5	blank	1.0	348.46892786026	2.5004348754882812
79	329.26628851890564	pulse	1	t		77.0	2.5	blank	1.0	349.652756690979	
79	330.5828945636749	fix_post	2		12	77.0	2.5	blank	1.0	350.9693627357483	0.10004997253417969
80	330.6829445362091	fix_pre	0		120	78.0	2.5	/experiments/Knapen_AOT/AOT_stimuli/rescaled_final/1958_fw.mp4	0.0	351.06941270828247	1.0084564685821533
80	330.86641812324524	pulse	0	t		78.0	2.5	/experiments/Knapen_AOT/AOT_stimuli/rescaled_final/1958_fw.mp4	0.0	351.2528862953186	
80	331.69140100479126	movie	1		267	78.0	2.5	/experiments/Knapen_AOT/AOT_stimuli/rescaled_final/1958_fw.mp4	0.0	352.0778691768646	2.4919931888580322
80	332.46475553512573	pulse	1	t		78.0	2.5	/experiments/Knapen_AOT/AOT_stimuli/rescaled_final/1958_fw.mp4	0.0	352.8512237071991	
80	334.0648868083954	pulse	1	t		78.0	2.5	/experiments/Knapen_AOT/AOT_stimuli/rescaled_final/1958_fw.mp4	0.0	354.45135498046875	
80	334.1833941936493	fix_post	2		12	78.0	2.5	/experiments/Knapen_AOT/AOT_stimuli/rescaled_final/1958_fw.mp4	0.0	354.56986236572266	0.09998822212219238
81	334.2833824157715	fix_pre	0		120	79.0	2.5	/experiments/Knapen_AOT/AOT_stimuli/rescaled_final/0144_fw.mp4	0.0	354.66985058784485	1.0085313320159912
81	335.2919137477875	movie	1		262	79.0	2.5	/experiments/Knapen_AOT/AOT_stimuli/rescaled_final/0144_fw.mp4	0.0	355.67838191986084	2.4920272827148438
81	335.6664671897888	pulse	1	t		79.0	2.5	/experiments/Knapen_AOT/AOT_stimuli/rescaled_final/0144_fw.mp4	0.0	356.0529353618622	
81	337.2658212184906	pulse	1	t		79.0	2.5	/experiments/Knapen_AOT/AOT_stimuli/rescaled_final/0144_fw.mp4	0.0	357.65228939056396	
81	337.7839410305023	fix_post	2		12	79.0	2.5	/experiments/Knapen_AOT/AOT_stimuli/rescaled_final/0144_fw.mp4	0.0	358.1704092025757	0.10005426406860352
82	337.8839952945709	fix_pre	0		119	80.0	2.5	/experiments/Knapen_AOT/AOT_stimuli/rescaled_final/2062_rv.mp4	0.0	358.2704634666443	1.0003304481506348
82	338.8676424026489	pulse	0	t		80.0	2.5	/experiments/Knapen_AOT/AOT_stimuli/rescaled_final/2062_rv.mp4	0.0	359.2541105747223	
82	338.88432574272156	movie	1		274	80.0	2.5	/experiments/Knapen_AOT/AOT_stimuli/rescaled_final/2062_rv.mp4	0.0	359.2707939147949	2.5001213550567627
82	340.467919588089	pulse	1	t		80.0	2.5	/experiments/Knapen_AOT/AOT_stimuli/rescaled_final/2062_rv.mp4	0.0	360.85438776016235	
82	341.3844470977783	fix_post	2		12	80.0	2.5	/experiments/Knapen_AOT/AOT_stimuli/rescaled_final/2062_rv.mp4	0.0	361.7709152698517	0.10003471374511719
83	341.48448181152344	fix_pre	0		120	81.0	2.5	/experiments/Knapen_AOT/AOT_stimuli/rescaled_final/1785_fw.mp4	0.0	361.8709499835968	1.0085132122039795
83	342.0681233406067	pulse	0	t		81.0	2.5	/experiments/Knapen_AOT/AOT_stimuli/rescaled_final/1785_fw.mp4	0.0	362.45459151268005	
83	342.4929950237274	movie	1		267	81.0	2.5	/experiments/Knapen_AOT/AOT_stimuli/rescaled_final/1785_fw.mp4	0.0	362.8794631958008	2.492159843444824
83	343.66726660728455	pulse	1	t		81.0	2.5	/experiments/Knapen_AOT/AOT_stimuli/rescaled_final/1785_fw.mp4	0.0	364.0537347793579	
83	344.98515486717224	fix_post	2		12	81.0	2.5	/experiments/Knapen_AOT/AOT_stimuli/rescaled_final/1785_fw.mp4	0.0	365.3716230392456	0.10006308555603027
84	345.08521795272827	fix_pre	0		120	82.0	2.5	blank	1.0	365.47168612480164	0.9999895095825195
84	345.26854038238525	pulse	0	t		82.0	2.5	blank	1.0	365.6550085544586	
84	346.0852074623108	movie	1		300	82.0	2.5	blank	1.0	366.47167563438416	2.5003411769866943
84	346.86879801750183	pulse	1	t		82.0	2.5	blank	1.0	367.2552661895752	
84	348.46898317337036	pulse	1	t		82.0	2.5	blank	1.0	368.8554513454437	
84	348.5855486392975	fix_post	2		12	82.0	2.5	blank	1.0	368.97201681137085	0.09999585151672363
85	348.6855444908142	fix_pre	0		120	83.0	2.5	/experiments/Knapen_AOT/AOT_stimuli/rescaled_final/0927_fw.mp4	0.0	369.0720126628876	1.0085194110870361
85	349.69406390190125	movie	1		264	83.0	2.5	/experiments/Knapen_AOT/AOT_stimuli/rescaled_final/0927_fw.mp4	0.0	370.0805320739746	2.4922091960906982
85	350.0675003528595	pulse	1	t		83.0	2.5	/experiments/Knapen_AOT/AOT_stimuli/rescaled_final/0927_fw.mp4	0.0	370.45396852493286	
85	351.6678671836853	pulse	1	t		83.0	2.5	/experiments/Knapen_AOT/AOT_stimuli/rescaled_final/0927_fw.mp4	0.0	372.05433535575867	
85	352.18627309799194	fix_post	2		12	83.0	2.5	/experiments/Knapen_AOT/AOT_stimuli/rescaled_final/0927_fw.mp4	0.0	372.5727412700653	0.09981703758239746
87	352.28609013557434	stim	0		1715					372.6725583076477	14.293824434280396
87	353.26980090141296	pulse	0	t						373.6562690734863	
87	354.8699460029602	pulse	0	t						375.25641417503357	
87	356.4702136516571	pulse	0	t						376.85668182373047	
87	358.06220960617065	pulse	0	t						378.448677778244	
87	359.6630492210388	pulse	0	t						380.0495173931122	
87	361.2626142501831	pulse	0	t						381.64908242225647	
87	362.8629307746887	pulse	0	t						383.2493989467621	
87	364.4631886482239	pulse	0	t						384.84965682029724	
87	366.0634045600891	pulse	0	t						386.4498727321625	
