trial_nr	onset	event_type	phase	response	nr_frames	movie_index	movie_duration	movie_file	blank	onset_abs	duration
0	0.166609525680542	stim	0		77					16.76257872581482	0.6416778564453125
0	0.8002326488494873	response	0	space						17.396201848983765	
1	0.8082873821258545	stim	0		4520					17.404256582260132	37.68199801445007
1	38.4804527759552	pulse	0	t						55.07642197608948	
1	38.49028539657593	stim	1		1715					55.086254596710205	14.300777912139893
1	40.07271146774292	pulse	1	t						56.6686806678772	
1	41.673131227493286	pulse	1	t						58.26910042762756	
1	43.273202657699585	pulse	1	t						59.86917185783386	
1	44.87340760231018	pulse	1	t						61.46937680244446	
1	46.47366142272949	pulse	1	t						63.06963062286377	
1	48.07395958900452	pulse	1	t						64.6699287891388	
1	49.67425775527954	pulse	1	t						66.27022695541382	
1	51.274450063705444	pulse	1	t						67.87041926383972	
2	52.79106330871582	fix_pre	0		11	0.0	2.5	/experiments/Knapen_AOT/AOT_stimuli/rescaled_final/0571_rv.mp4	0.0	69.3870325088501	0.1085062026977539
2	52.87495827674866	pulse	0	t		0.0	2.5	/experiments/Knapen_AOT/AOT_stimuli/rescaled_final/0571_rv.mp4	0.0	69.47092747688293	
2	52.899569511413574	movie	1		278	0.0	2.5	/experiments/Knapen_AOT/AOT_stimuli/rescaled_final/0571_rv.mp4	0.0	69.49553871154785	2.491886615753174
2	54.473352670669556	pulse	1	t		0.0	2.5	/experiments/Knapen_AOT/AOT_stimuli/rescaled_final/0571_rv.mp4	0.0	71.06932187080383	
2	55.39145612716675	fix_post	2		12	0.0	2.5	/experiments/Knapen_AOT/AOT_stimuli/rescaled_final/0571_rv.mp4	0.0	71.98742532730103	0.10004949569702148
3	55.49150562286377	fix_pre	0		120	1.0	2.5	/experiments/Knapen_AOT/AOT_stimuli/rescaled_final/1342_rv.mp4	0.0	72.08747482299805	1.0084984302520752
3	56.0750687122345	pulse	0	t		1.0	2.5	/experiments/Knapen_AOT/AOT_stimuli/rescaled_final/1342_rv.mp4	0.0	72.67103791236877	
3	56.500004053115845	movie	1		275	1.0	2.5	/experiments/Knapen_AOT/AOT_stimuli/rescaled_final/1342_rv.mp4	0.0	73.09597325325012	2.491983652114868
3	57.6733603477478	pulse	1	t		1.0	2.5	/experiments/Knapen_AOT/AOT_stimuli/rescaled_final/1342_rv.mp4	0.0	74.26932954788208	
3	58.99198770523071	fix_post	2		12	1.0	2.5	/experiments/Knapen_AOT/AOT_stimuli/rescaled_final/1342_rv.mp4	0.0	75.58795690536499	0.10005950927734375
4	59.09204721450806	fix_pre	0		120	2.0	2.5	/experiments/Knapen_AOT/AOT_stimuli/rescaled_final/1018_rv.mp4	0.0	75.68801641464233	1.0084888935089111
4	59.275771141052246	pulse	0	t		2.0	2.5	/experiments/Knapen_AOT/AOT_stimuli/rescaled_final/1018_rv.mp4	0.0	75.87174034118652	
4	60.10053610801697	movie	1		283	2.0	2.5	/experiments/Knapen_AOT/AOT_stimuli/rescaled_final/1018_rv.mp4	0.0	76.69650530815125	2.4921393394470215
4	60.8765869140625	pulse	1	t		2.0	2.5	/experiments/Knapen_AOT/AOT_stimuli/rescaled_final/1018_rv.mp4	0.0	77.47255611419678	
4	62.47387742996216	pulse	1	t		2.0	2.5	/experiments/Knapen_AOT/AOT_stimuli/rescaled_final/1018_rv.mp4	0.0	79.06984663009644	
4	62.59267544746399	fix_post	2		12	2.0	2.5	/experiments/Knapen_AOT/AOT_stimuli/rescaled_final/1018_rv.mp4	0.0	79.18864464759827	0.09995913505554199
5	62.69263458251953	fix_pre	0		120	3.0	2.5	/experiments/Knapen_AOT/AOT_stimuli/rescaled_final/1477_rv.mp4	0.0	79.28860378265381	1.0085456371307373
5	63.70118021965027	movie	1		278	3.0	2.5	/experiments/Knapen_AOT/AOT_stimuli/rescaled_final/1477_rv.mp4	0.0	80.29714941978455	2.491900682449341
5	64.07652997970581	pulse	1	t		3.0	2.5	/experiments/Knapen_AOT/AOT_stimuli/rescaled_final/1477_rv.mp4	0.0	80.67249917984009	
5	65.67663621902466	pulse	1	t		3.0	2.5	/experiments/Knapen_AOT/AOT_stimuli/rescaled_final/1477_rv.mp4	0.0	82.27260541915894	
5	66.19308090209961	fix_post	2		12	3.0	2.5	/experiments/Knapen_AOT/AOT_stimuli/rescaled_final/1477_rv.mp4	0.0	82.78905010223389	0.09999561309814453
6	66.29307651519775	fix_pre	0		119	4.0	2.5	/experiments/Knapen_AOT/AOT_stimuli/rescaled_final/0302_rv.mp4	0.0	82.88904571533203	1.0001869201660156
6	67.27677655220032	pulse	0	t		4.0	2.5	/experiments/Knapen_AOT/AOT_stimuli/rescaled_final/0302_rv.mp4	0.0	83.8727457523346	
6	67.29326343536377	movie	1		284	4.0	2.5	/experiments/Knapen_AOT/AOT_stimuli/rescaled_final/0302_rv.mp4	0.0	83.88923263549805	2.5003769397735596
6	68.87520813941956	pulse	1	t		4.0	2.5	/experiments/Knapen_AOT/AOT_stimuli/rescaled_final/0302_rv.mp4	0.0	85.47117733955383	
6	69.79364037513733	fix_post	2		12	4.0	2.5	/experiments/Knapen_AOT/AOT_stimuli/rescaled_final/0302_rv.mp4	0.0	86.3896095752716	0.10003042221069336
7	69.89367079734802	fix_pre	0		120	5.0	2.5	/experiments/Knapen_AOT/AOT_stimuli/rescaled_final/1430_fw.mp4	0.0	86.4896399974823	1.008453607559204
7	70.47745156288147	pulse	0	t		5.0	2.5	/experiments/Knapen_AOT/AOT_stimuli/rescaled_final/1430_fw.mp4	0.0	87.07342076301575	
7	70.90212440490723	movie	1		286	5.0	2.5	/experiments/Knapen_AOT/AOT_stimuli/rescaled_final/1430_fw.mp4	0.0	87.4980936050415	2.492079496383667
7	72.0756721496582	pulse	1	t		5.0	2.5	/experiments/Knapen_AOT/AOT_stimuli/rescaled_final/1430_fw.mp4	0.0	88.67164134979248	
7	73.3942039012909	fix_post	2		12	5.0	2.5	/experiments/Knapen_AOT/AOT_stimuli/rescaled_final/1430_fw.mp4	0.0	89.99017310142517	0.09997749328613281
8	73.49418139457703	fix_pre	0		120	6.0	2.5	/experiments/Knapen_AOT/AOT_stimuli/rescaled_final/0823_fw.mp4	0.0	90.0901505947113	1.0084857940673828
8	73.67772436141968	pulse	0	t		6.0	2.5	/experiments/Knapen_AOT/AOT_stimuli/rescaled_final/0823_fw.mp4	0.0	90.27369356155396	
8	74.50266718864441	movie	1		284	6.0	2.5	/experiments/Knapen_AOT/AOT_stimuli/rescaled_final/0823_fw.mp4	0.0	91.09863638877869	2.4920268058776855
8	75.27679514884949	pulse	1	t		6.0	2.5	/experiments/Knapen_AOT/AOT_stimuli/rescaled_final/0823_fw.mp4	0.0	91.87276434898376	
8	76.87601804733276	pulse	1	t		6.0	2.5	/experiments/Knapen_AOT/AOT_stimuli/rescaled_final/0823_fw.mp4	0.0	93.47198724746704	
8	76.9946939945221	fix_post	2		12	6.0	2.5	/experiments/Knapen_AOT/AOT_stimuli/rescaled_final/0823_fw.mp4	0.0	93.59066319465637	0.10008978843688965
9	77.09478378295898	fix_pre	0		120	7.0	2.5	blank	1.0	93.69075298309326	1.000098466873169
9	78.09488224983215	movie	1		300	7.0	2.5	blank	1.0	94.69085144996643	2.500361680984497
9	78.47043371200562	pulse	1	t		7.0	2.5	blank	1.0	95.06640291213989	
9	80.07050561904907	pulse	1	t		7.0	2.5	blank	1.0	96.66647481918335	
9	80.59524393081665	fix_post	2		12	7.0	2.5	blank	1.0	97.19121313095093	0.10001850128173828
10	80.69526243209839	fix_pre	0		118	8.0	2.5	/experiments/Knapen_AOT/AOT_stimuli/rescaled_final/0644_fw.mp4	0.0	97.29123163223267	0.9918208122253418
10	81.67066788673401	pulse	0	t		8.0	2.5	/experiments/Knapen_AOT/AOT_stimuli/rescaled_final/0644_fw.mp4	0.0	98.26663708686829	
10	81.68708324432373	movie	1		284	8.0	2.5	/experiments/Knapen_AOT/AOT_stimuli/rescaled_final/0644_fw.mp4	0.0	98.28305244445801	2.5004143714904785
10	83.27105069160461	pulse	1	t		8.0	2.5	/experiments/Knapen_AOT/AOT_stimuli/rescaled_final/0644_fw.mp4	0.0	99.86701989173889	
10	84.18749761581421	fix_post	2		12	8.0	2.5	/experiments/Knapen_AOT/AOT_stimuli/rescaled_final/0644_fw.mp4	0.0	100.78346681594849	0.1000516414642334
11	84.28754925727844	fix_pre	0		120	9.0	2.5	/experiments/Knapen_AOT/AOT_stimuli/rescaled_final/1987_rv.mp4	0.0	100.88351845741272	1.0084478855133057
11	84.87124681472778	pulse	0	t		9.0	2.5	/experiments/Knapen_AOT/AOT_stimuli/rescaled_final/1987_rv.mp4	0.0	101.46721601486206	
11	85.29599714279175	movie	1		283	9.0	2.5	/experiments/Knapen_AOT/AOT_stimuli/rescaled_final/1987_rv.mp4	0.0	101.89196634292603	2.4919965267181396
11	86.47137880325317	pulse	1	t		9.0	2.5	/experiments/Knapen_AOT/AOT_stimuli/rescaled_final/1987_rv.mp4	0.0	103.06734800338745	
11	87.78799366950989	fix_post	2		12	9.0	2.5	/experiments/Knapen_AOT/AOT_stimuli/rescaled_final/1987_rv.mp4	0.0	104.38396286964417	0.10001540184020996
12	87.8880090713501	fix_pre	0		120	10.0	2.5	/experiments/Knapen_AOT/AOT_stimuli/rescaled_final/1976_fw.mp4	0.0	104.48397827148438	1.008526086807251
12	88.07161116600037	pulse	0	t		10.0	2.5	/experiments/Knapen_AOT/AOT_stimuli/rescaled_final/1976_fw.mp4	0.0	104.66758036613464	
12	88.89653515815735	movie	1		275	10.0	2.5	/experiments/Knapen_AOT/AOT_stimuli/rescaled_final/1976_fw.mp4	0.0	105.49250435829163	2.492042303085327
12	89.67221641540527	pulse	1	t		10.0	2.5	/experiments/Knapen_AOT/AOT_stimuli/rescaled_final/1976_fw.mp4	0.0	106.26818561553955	
12	91.27206754684448	pulse	1	t		10.0	2.5	/experiments/Knapen_AOT/AOT_stimuli/rescaled_final/1976_fw.mp4	0.0	107.86803674697876	
12	91.38857746124268	fix_post	2		12	10.0	2.5	/experiments/Knapen_AOT/AOT_stimuli/rescaled_final/1976_fw.mp4	0.0	107.98454666137695	0.09997320175170898
13	91.48855066299438	fix_pre	0		120	11.0	2.5	/experiments/Knapen_AOT/AOT_stimuli/rescaled_final/1086_rv.mp4	0.0	108.08451986312866	1.008547067642212
13	92.4970977306366	movie	1		277	11.0	2.5	/experiments/Knapen_AOT/AOT_stimuli/rescaled_final/1086_rv.mp4	0.0	109.09306693077087	2.492006301879883
13	92.87063074111938	pulse	1	t		11.0	2.5	/experiments/Knapen_AOT/AOT_stimuli/rescaled_final/1086_rv.mp4	0.0	109.46659994125366	
13	94.47279620170593	pulse	1	t		11.0	2.5	/experiments/Knapen_AOT/AOT_stimuli/rescaled_final/1086_rv.mp4	0.0	111.06876540184021	
13	94.98910403251648	fix_post	2		12	11.0	2.5	/experiments/Knapen_AOT/AOT_stimuli/rescaled_final/1086_rv.mp4	0.0	111.58507323265076	0.09997797012329102
14	95.08908200263977	fix_pre	0		119	12.0	2.5	/experiments/Knapen_AOT/AOT_stimuli/rescaled_final/1473_rv.mp4	0.0	111.68505120277405	1.0085859298706055
14	96.07300543785095	pulse	0	t		12.0	2.5	/experiments/Knapen_AOT/AOT_stimuli/rescaled_final/1473_rv.mp4	0.0	112.66897463798523	
14	96.09766793251038	movie	1		285	12.0	2.5	/experiments/Knapen_AOT/AOT_stimuli/rescaled_final/1473_rv.mp4	0.0	112.69363713264465	2.4919657707214355
14	97.67127966880798	pulse	1	t		12.0	2.5	/experiments/Knapen_AOT/AOT_stimuli/rescaled_final/1473_rv.mp4	0.0	114.26724886894226	
14	98.58963370323181	fix_post	2		12	12.0	2.5	/experiments/Knapen_AOT/AOT_stimuli/rescaled_final/1473_rv.mp4	0.0	115.18560290336609	0.10000395774841309
15	98.68963766098022	fix_pre	0		120	13.0	2.5	/experiments/Knapen_AOT/AOT_stimuli/rescaled_final/1782_fw.mp4	0.0	115.2856068611145	1.0085060596466064
15	99.27326703071594	pulse	0	t		13.0	2.5	/experiments/Knapen_AOT/AOT_stimuli/rescaled_final/1782_fw.mp4	0.0	115.86923623085022	
15	99.69814372062683	movie	1		275	13.0	2.5	/experiments/Knapen_AOT/AOT_stimuli/rescaled_final/1782_fw.mp4	0.0	116.29411292076111	2.492016077041626
15	100.87166714668274	pulse	1	t		13.0	2.5	/experiments/Knapen_AOT/AOT_stimuli/rescaled_final/1782_fw.mp4	0.0	117.46763634681702	
15	102.19015979766846	fix_post	2		12	13.0	2.5	/experiments/Knapen_AOT/AOT_stimuli/rescaled_final/1782_fw.mp4	0.0	118.78612899780273	0.10002708435058594
16	102.29018688201904	fix_pre	0		120	14.0	2.5	blank	1.0	118.88615608215332	1.0001170635223389
16	102.47395968437195	pulse	0	t		14.0	2.5	blank	1.0	119.06992888450623	
16	103.29030394554138	movie	1		300	14.0	2.5	blank	1.0	119.88627314567566	2.5003836154937744
16	104.07397627830505	pulse	1	t		14.0	2.5	blank	1.0	120.66994547843933	
16	105.67422032356262	pulse	1	t		14.0	2.5	blank	1.0	122.2701895236969	
16	105.79068756103516	fix_post	2		12	14.0	2.5	blank	1.0	122.38665676116943	0.10007524490356445
17	105.89076280593872	fix_pre	0		120	15.0	2.5	/experiments/Knapen_AOT/AOT_stimuli/rescaled_final/1074_fw.mp4	0.0	122.486732006073	1.0084507465362549
17	106.89921355247498	movie	1		277	15.0	2.5	/experiments/Knapen_AOT/AOT_stimuli/rescaled_final/1074_fw.mp4	0.0	123.49518275260925	2.49202561378479
17	107.27296590805054	pulse	1	t		15.0	2.5	/experiments/Knapen_AOT/AOT_stimuli/rescaled_final/1074_fw.mp4	0.0	123.86893510818481	
17	108.87244844436646	pulse	1	t		15.0	2.5	/experiments/Knapen_AOT/AOT_stimuli/rescaled_final/1074_fw.mp4	0.0	125.46841764450073	
17	109.39123916625977	fix_post	2		12	15.0	2.5	/experiments/Knapen_AOT/AOT_stimuli/rescaled_final/1074_fw.mp4	0.0	125.98720836639404	0.10002660751342773
18	109.4912657737732	fix_pre	0		119	16.0	2.5	/experiments/Knapen_AOT/AOT_stimuli/rescaled_final/2174_rv.mp4	0.0	126.08723497390747	1.0002524852752686
18	110.4749367237091	pulse	0	t		16.0	2.5	/experiments/Knapen_AOT/AOT_stimuli/rescaled_final/2174_rv.mp4	0.0	127.07090592384338	
18	110.49151825904846	movie	1		279	16.0	2.5	/experiments/Knapen_AOT/AOT_stimuli/rescaled_final/2174_rv.mp4	0.0	127.08748745918274	2.5002732276916504
18	112.07375526428223	pulse	1	t		16.0	2.5	/experiments/Knapen_AOT/AOT_stimuli/rescaled_final/2174_rv.mp4	0.0	128.6697244644165	
18	112.99179148674011	fix_post	2		12	16.0	2.5	/experiments/Knapen_AOT/AOT_stimuli/rescaled_final/2174_rv.mp4	0.0	129.5877606868744	0.10007905960083008
19	113.09187054634094	fix_pre	0		120	17.0	2.5	/experiments/Knapen_AOT/AOT_stimuli/rescaled_final/0217_fw.mp4	0.0	129.68783974647522	1.00846529006958
19	113.67550611495972	pulse	0	t		17.0	2.5	/experiments/Knapen_AOT/AOT_stimuli/rescaled_final/0217_fw.mp4	0.0	130.271475315094	
19	114.10033583641052	movie	1		284	17.0	2.5	/experiments/Knapen_AOT/AOT_stimuli/rescaled_final/0217_fw.mp4	0.0	130.6963050365448	2.491992235183716
19	115.27414131164551	pulse	1	t		17.0	2.5	/experiments/Knapen_AOT/AOT_stimuli/rescaled_final/0217_fw.mp4	0.0	131.87011051177979	
19	116.59232807159424	fix_post	2		12	17.0	2.5	/experiments/Knapen_AOT/AOT_stimuli/rescaled_final/0217_fw.mp4	0.0	133.18829727172852	0.10002589225769043
20	116.69235396385193	fix_pre	0		120	18.0	2.5	/experiments/Knapen_AOT/AOT_stimuli/rescaled_final/1830_fw.mp4	0.0	133.2883231639862	1.0085041522979736
20	116.87595105171204	pulse	0	t		18.0	2.5	/experiments/Knapen_AOT/AOT_stimuli/rescaled_final/1830_fw.mp4	0.0	133.4719202518463	
20	117.7008581161499	movie	1		280	18.0	2.5	/experiments/Knapen_AOT/AOT_stimuli/rescaled_final/1830_fw.mp4	0.0	134.29682731628418	2.492016315460205
20	118.47418928146362	pulse	1	t		18.0	2.5	/experiments/Knapen_AOT/AOT_stimuli/rescaled_final/1830_fw.mp4	0.0	135.0701584815979	
20	120.07424068450928	pulse	1	t		18.0	2.5	/experiments/Knapen_AOT/AOT_stimuli/rescaled_final/1830_fw.mp4	0.0	136.67020988464355	
20	120.19287443161011	fix_post	2		12	18.0	2.5	/experiments/Knapen_AOT/AOT_stimuli/rescaled_final/1830_fw.mp4	0.0	136.78884363174438	0.1000218391418457
21	120.29289627075195	fix_pre	0		120	19.0	2.5	/experiments/Knapen_AOT/AOT_stimuli/rescaled_final/2130_rv.mp4	0.0	136.88886547088623	1.0085031986236572
21	121.30139946937561	movie	1		283	19.0	2.5	/experiments/Knapen_AOT/AOT_stimuli/rescaled_final/2130_rv.mp4	0.0	137.8973686695099	2.4920709133148193
21	121.67538642883301	pulse	1	t		19.0	2.5	/experiments/Knapen_AOT/AOT_stimuli/rescaled_final/2130_rv.mp4	0.0	138.27135562896729	
21	123.27466130256653	pulse	1	t		19.0	2.5	/experiments/Knapen_AOT/AOT_stimuli/rescaled_final/2130_rv.mp4	0.0	139.8706305027008	
21	123.79347038269043	fix_post	2		12	19.0	2.5	/experiments/Knapen_AOT/AOT_stimuli/rescaled_final/2130_rv.mp4	0.0	140.3894395828247	0.10001397132873535
22	123.89348435401917	fix_pre	0		119	20.0	2.5	/experiments/Knapen_AOT/AOT_stimuli/rescaled_final/0691_rv.mp4	0.0	140.48945355415344	1.0000841617584229
22	124.87734389305115	pulse	0	t		20.0	2.5	/experiments/Knapen_AOT/AOT_stimuli/rescaled_final/0691_rv.mp4	0.0	141.47331309318542	
22	124.89356851577759	movie	1		279	20.0	2.5	/experiments/Knapen_AOT/AOT_stimuli/rescaled_final/0691_rv.mp4	0.0	141.48953771591187	2.500370979309082
22	126.47595882415771	pulse	1	t		20.0	2.5	/experiments/Knapen_AOT/AOT_stimuli/rescaled_final/0691_rv.mp4	0.0	143.071928024292	
22	127.39393949508667	fix_post	2		12	20.0	2.5	/experiments/Knapen_AOT/AOT_stimuli/rescaled_final/0691_rv.mp4	0.0	143.98990869522095	0.10002732276916504
23	127.49396681785583	fix_pre	0		120	21.0	2.5	blank	1.0	144.0899360179901	1.0001564025878906
23	128.07754516601562	pulse	0	t		21.0	2.5	blank	1.0	144.6735143661499	
23	128.49412322044373	movie	1		300	21.0	2.5	blank	1.0	145.090092420578	2.500406503677368
23	129.67784523963928	pulse	1	t		21.0	2.5	blank	1.0	146.27381443977356	
23	130.9945297241211	fix_post	2		12	21.0	2.5	blank	1.0	147.59049892425537	0.10005068778991699
24	131.094580411911	fix_pre	0		120	22.0	2.5	/experiments/Knapen_AOT/AOT_stimuli/rescaled_final/1004_fw.mp4	0.0	147.6905496120453	1.0084078311920166
24	131.27805423736572	pulse	0	t		22.0	2.5	/experiments/Knapen_AOT/AOT_stimuli/rescaled_final/1004_fw.mp4	0.0	147.8740234375	
24	132.10298824310303	movie	1		272	22.0	2.5	/experiments/Knapen_AOT/AOT_stimuli/rescaled_final/1004_fw.mp4	0.0	148.6989574432373	2.4920449256896973
24	132.87652564048767	pulse	1	t		22.0	2.5	/experiments/Knapen_AOT/AOT_stimuli/rescaled_final/1004_fw.mp4	0.0	149.47249484062195	
24	134.4767563343048	pulse	1	t		22.0	2.5	/experiments/Knapen_AOT/AOT_stimuli/rescaled_final/1004_fw.mp4	0.0	151.0727255344391	
24	134.59503316879272	fix_post	2		12	22.0	2.5	/experiments/Knapen_AOT/AOT_stimuli/rescaled_final/1004_fw.mp4	0.0	151.191002368927	0.10000824928283691
25	134.69504141807556	fix_pre	0		120	23.0	2.5	/experiments/Knapen_AOT/AOT_stimuli/rescaled_final/1024_rv.mp4	0.0	151.29101061820984	1.0085346698760986
25	135.70357608795166	movie	1		285	23.0	2.5	/experiments/Knapen_AOT/AOT_stimuli/rescaled_final/1024_rv.mp4	0.0	152.29954528808594	2.4920766353607178
25	136.07751202583313	pulse	1	t		23.0	2.5	/experiments/Knapen_AOT/AOT_stimuli/rescaled_final/1024_rv.mp4	0.0	152.6734812259674	
25	137.6708950996399	pulse	1	t		23.0	2.5	/experiments/Knapen_AOT/AOT_stimuli/rescaled_final/1024_rv.mp4	0.0	154.26686429977417	
25	138.19565272331238	fix_post	2		12	23.0	2.5	/experiments/Knapen_AOT/AOT_stimuli/rescaled_final/1024_rv.mp4	0.0	154.79162192344666	0.09994292259216309
26	138.29559564590454	fix_pre	0		118	24.0	2.5	/experiments/Knapen_AOT/AOT_stimuli/rescaled_final/0352_fw.mp4	0.0	154.89156484603882	0.9918155670166016
26	139.2709584236145	pulse	0	t		24.0	2.5	/experiments/Knapen_AOT/AOT_stimuli/rescaled_final/0352_fw.mp4	0.0	155.86692762374878	
26	139.28741121292114	movie	1		287	24.0	2.5	/experiments/Knapen_AOT/AOT_stimuli/rescaled_final/0352_fw.mp4	0.0	155.88338041305542	2.5003821849823
26	140.8712763786316	pulse	1	t		24.0	2.5	/experiments/Knapen_AOT/AOT_stimuli/rescaled_final/0352_fw.mp4	0.0	157.46724557876587	
26	141.78779339790344	fix_post	2		12	24.0	2.5	/experiments/Knapen_AOT/AOT_stimuli/rescaled_final/0352_fw.mp4	0.0	158.38376259803772	0.09999728202819824
27	141.88779067993164	fix_pre	0		120	25.0	2.5	/experiments/Knapen_AOT/AOT_stimuli/rescaled_final/1232_fw.mp4	0.0	158.48375988006592	1.0085067749023438
27	142.4715166091919	pulse	0	t		25.0	2.5	/experiments/Knapen_AOT/AOT_stimuli/rescaled_final/1232_fw.mp4	0.0	159.06748580932617	
27	142.89629745483398	movie	1		287	25.0	2.5	/experiments/Knapen_AOT/AOT_stimuli/rescaled_final/1232_fw.mp4	0.0	159.49226665496826	2.492011785507202
27	144.07169222831726	pulse	1	t		25.0	2.5	/experiments/Knapen_AOT/AOT_stimuli/rescaled_final/1232_fw.mp4	0.0	160.66766142845154	
27	145.3883092403412	fix_post	2		12	25.0	2.5	/experiments/Knapen_AOT/AOT_stimuli/rescaled_final/1232_fw.mp4	0.0	161.98427844047546	0.10001969337463379
28	145.48832893371582	fix_pre	0		120	26.0	2.5	/experiments/Knapen_AOT/AOT_stimuli/rescaled_final/2170_fw.mp4	0.0	162.0842981338501	1.0085468292236328
28	145.67191553115845	pulse	0	t		26.0	2.5	/experiments/Knapen_AOT/AOT_stimuli/rescaled_final/2170_fw.mp4	0.0	162.26788473129272	
28	146.49687576293945	movie	1		285	26.0	2.5	/experiments/Knapen_AOT/AOT_stimuli/rescaled_final/2170_fw.mp4	0.0	163.09284496307373	2.49198842048645
28	147.27245211601257	pulse	1	t		26.0	2.5	/experiments/Knapen_AOT/AOT_stimuli/rescaled_final/2170_fw.mp4	0.0	163.86842131614685	
28	148.87246465682983	pulse	1	t		26.0	2.5	/experiments/Knapen_AOT/AOT_stimuli/rescaled_final/2170_fw.mp4	0.0	165.4684338569641	
28	148.9888641834259	fix_post	2		12	26.0	2.5	/experiments/Knapen_AOT/AOT_stimuli/rescaled_final/2170_fw.mp4	0.0	165.58483338356018	0.1000375747680664
29	149.08890175819397	fix_pre	0		120	27.0	2.5	blank	1.0	165.68487095832825	1.0002648830413818
29	150.08916664123535	movie	1		300	27.0	2.5	blank	1.0	166.68513584136963	2.5003767013549805
29	150.47263407707214	pulse	1	t		27.0	2.5	blank	1.0	167.06860327720642	
29	152.0728349685669	pulse	1	t		27.0	2.5	blank	1.0	168.66880416870117	
29	152.58954334259033	fix_post	2		12	27.0	2.5	blank	1.0	169.1855125427246	0.09987878799438477
30	152.68942213058472	fix_pre	0		119	28.0	2.5	/experiments/Knapen_AOT/AOT_stimuli/rescaled_final/1127_rv.mp4	0.0	169.285391330719	1.0001482963562012
30	153.67311215400696	pulse	0	t		28.0	2.5	/experiments/Knapen_AOT/AOT_stimuli/rescaled_final/1127_rv.mp4	0.0	170.26908135414124	
30	153.68957042694092	movie	1		286	28.0	2.5	/experiments/Knapen_AOT/AOT_stimuli/rescaled_final/1127_rv.mp4	0.0	170.2855396270752	2.5003738403320312
30	155.2717010974884	pulse	1	t		28.0	2.5	/experiments/Knapen_AOT/AOT_stimuli/rescaled_final/1127_rv.mp4	0.0	171.86767029762268	
30	156.18994426727295	fix_post	2		12	28.0	2.5	/experiments/Knapen_AOT/AOT_stimuli/rescaled_final/1127_rv.mp4	0.0	172.78591346740723	0.10001659393310547
31	156.28996086120605	fix_pre	0		120	29.0	2.5	/experiments/Knapen_AOT/AOT_stimuli/rescaled_final/0774_rv.mp4	0.0	172.88593006134033	1.0085110664367676
31	156.87366127967834	pulse	0	t		29.0	2.5	/experiments/Knapen_AOT/AOT_stimuli/rescaled_final/0774_rv.mp4	0.0	173.46963047981262	
31	157.29847192764282	movie	1		285	29.0	2.5	/experiments/Knapen_AOT/AOT_stimuli/rescaled_final/0774_rv.mp4	0.0	173.8944411277771	2.4920425415039062
31	158.4718954563141	pulse	1	t		29.0	2.5	/experiments/Knapen_AOT/AOT_stimuli/rescaled_final/0774_rv.mp4	0.0	175.06786465644836	
31	159.79051446914673	fix_post	2		12	29.0	2.5	/experiments/Knapen_AOT/AOT_stimuli/rescaled_final/0774_rv.mp4	0.0	176.386483669281	0.10004997253417969
32	159.8905644416809	fix_pre	0		120	30.0	2.5	/experiments/Knapen_AOT/AOT_stimuli/rescaled_final/1769_fw.mp4	0.0	176.48653364181519	1.0084245204925537
32	160.0744800567627	pulse	0	t		30.0	2.5	/experiments/Knapen_AOT/AOT_stimuli/rescaled_final/1769_fw.mp4	0.0	176.67044925689697	
32	160.89898896217346	movie	1		284	30.0	2.5	/experiments/Knapen_AOT/AOT_stimuli/rescaled_final/1769_fw.mp4	0.0	177.49495816230774	2.4920952320098877
32	161.67252111434937	pulse	1	t		30.0	2.5	/experiments/Knapen_AOT/AOT_stimuli/rescaled_final/1769_fw.mp4	0.0	178.26849031448364	
32	163.27287554740906	pulse	1	t		30.0	2.5	/experiments/Knapen_AOT/AOT_stimuli/rescaled_final/1769_fw.mp4	0.0	179.86884474754333	
32	163.39108419418335	fix_post	2		12	30.0	2.5	/experiments/Knapen_AOT/AOT_stimuli/rescaled_final/1769_fw.mp4	0.0	179.98705339431763	0.09995055198669434
33	163.49103474617004	fix_pre	0		120	31.0	2.5	/experiments/Knapen_AOT/AOT_stimuli/rescaled_final/2146_rv.mp4	0.0	180.08700394630432	1.008565902709961
33	164.49960064888	movie	1		281	31.0	2.5	/experiments/Knapen_AOT/AOT_stimuli/rescaled_final/2146_rv.mp4	0.0	181.09556984901428	2.491976499557495
33	164.8730502128601	pulse	1	t		31.0	2.5	/experiments/Knapen_AOT/AOT_stimuli/rescaled_final/2146_rv.mp4	0.0	181.46901941299438	
33	166.47268438339233	pulse	1	t		31.0	2.5	/experiments/Knapen_AOT/AOT_stimuli/rescaled_final/2146_rv.mp4	0.0	183.0686535835266	
33	166.9915771484375	fix_post	2		12	31.0	2.5	/experiments/Knapen_AOT/AOT_stimuli/rescaled_final/2146_rv.mp4	0.0	183.58754634857178	0.10003924369812012
34	167.09161639213562	fix_pre	0		119	32.0	2.5	/experiments/Knapen_AOT/AOT_stimuli/rescaled_final/0762_fw.mp4	0.0	183.6875855922699	1.0001673698425293
34	168.0755045413971	pulse	0	t		32.0	2.5	/experiments/Knapen_AOT/AOT_stimuli/rescaled_final/0762_fw.mp4	0.0	184.67147374153137	
34	168.09178376197815	movie	1		279	32.0	2.5	/experiments/Knapen_AOT/AOT_stimuli/rescaled_final/0762_fw.mp4	0.0	184.68775296211243	2.500322103500366
34	169.67394995689392	pulse	1	t		32.0	2.5	/experiments/Knapen_AOT/AOT_stimuli/rescaled_final/0762_fw.mp4	0.0	186.2699191570282	
34	170.59210586547852	fix_post	2		12	32.0	2.5	/experiments/Knapen_AOT/AOT_stimuli/rescaled_final/0762_fw.mp4	0.0	187.1880750656128	0.10010099411010742
35	170.69220685958862	fix_pre	0		120	33.0	2.5	/experiments/Knapen_AOT/AOT_stimuli/rescaled_final/0436_rv.mp4	0.0	187.2881760597229	1.0084710121154785
35	171.27578258514404	pulse	0	t		33.0	2.5	/experiments/Knapen_AOT/AOT_stimuli/rescaled_final/0436_rv.mp4	0.0	187.87175178527832	
35	171.7006778717041	movie	1		278	33.0	2.5	/experiments/Knapen_AOT/AOT_stimuli/rescaled_final/0436_rv.mp4	0.0	188.29664707183838	2.4919662475585938
35	172.8746259212494	pulse	1	t		33.0	2.5	/experiments/Knapen_AOT/AOT_stimuli/rescaled_final/0436_rv.mp4	0.0	189.47059512138367	
35	174.1926441192627	fix_post	2		12	33.0	2.5	/experiments/Knapen_AOT/AOT_stimuli/rescaled_final/0436_rv.mp4	0.0	190.78861331939697	0.10002422332763672
36	174.29266834259033	fix_pre	0		120	34.0	2.5	/experiments/Knapen_AOT/AOT_stimuli/rescaled_final/0216_fw.mp4	0.0	190.8886375427246	1.0085315704345703
36	174.47621512413025	pulse	0	t		34.0	2.5	/experiments/Knapen_AOT/AOT_stimuli/rescaled_final/0216_fw.mp4	0.0	191.07218432426453	
36	175.3011999130249	movie	1		279	34.0	2.5	/experiments/Knapen_AOT/AOT_stimuli/rescaled_final/0216_fw.mp4	0.0	191.89716911315918	2.4919652938842773
36	176.07457327842712	pulse	1	t		34.0	2.5	/experiments/Knapen_AOT/AOT_stimuli/rescaled_final/0216_fw.mp4	0.0	192.6705424785614	
36	177.67478680610657	pulse	1	t		34.0	2.5	/experiments/Knapen_AOT/AOT_stimuli/rescaled_final/0216_fw.mp4	0.0	194.27075600624084	
36	177.79316520690918	fix_post	2		12	34.0	2.5	/experiments/Knapen_AOT/AOT_stimuli/rescaled_final/0216_fw.mp4	0.0	194.38913440704346	0.10007047653198242
37	177.89323568344116	fix_pre	0		120	35.0	2.5	blank	1.0	194.48920488357544	1.0001177787780762
37	178.89335346221924	movie	1		300	35.0	2.5	blank	1.0	195.48932266235352	2.5004372596740723
37	179.2769603729248	pulse	1	t		35.0	2.5	blank	1.0	195.87292957305908	
37	180.8771777153015	pulse	1	t		35.0	2.5	blank	1.0	197.4731469154358	
37	181.3937907218933	fix_post	2		12	35.0	2.5	blank	1.0	197.9897599220276	0.09997010231018066
38	181.4937608242035	fix_pre	0		119	36.0	2.5	/experiments/Knapen_AOT/AOT_stimuli/rescaled_final/1480_fw.mp4	0.0	198.08973002433777	1.0085949897766113
38	182.47763013839722	pulse	0	t		36.0	2.5	/experiments/Knapen_AOT/AOT_stimuli/rescaled_final/1480_fw.mp4	0.0	199.0735993385315	
38	182.5023558139801	movie	1		285	36.0	2.5	/experiments/Knapen_AOT/AOT_stimuli/rescaled_final/1480_fw.mp4	0.0	199.09832501411438	2.4919557571411133
38	184.07627749443054	pulse	1	t		36.0	2.5	/experiments/Knapen_AOT/AOT_stimuli/rescaled_final/1480_fw.mp4	0.0	200.67224669456482	
38	184.99431157112122	fix_post	2		12	36.0	2.5	/experiments/Knapen_AOT/AOT_stimuli/rescaled_final/1480_fw.mp4	0.0	201.5902807712555	0.09998679161071777
39	185.09429836273193	fix_pre	0		120	37.0	2.5	/experiments/Knapen_AOT/AOT_stimuli/rescaled_final/1488_fw.mp4	0.0	201.6902675628662	1.0085833072662354
39	185.6779763698578	pulse	0	t		37.0	2.5	/experiments/Knapen_AOT/AOT_stimuli/rescaled_final/1488_fw.mp4	0.0	202.27394556999207	
39	186.10288166999817	movie	1		273	37.0	2.5	/experiments/Knapen_AOT/AOT_stimuli/rescaled_final/1488_fw.mp4	0.0	202.69885087013245	2.491961717605591
39	187.27614283561707	pulse	1	t		37.0	2.5	/experiments/Knapen_AOT/AOT_stimuli/rescaled_final/1488_fw.mp4	0.0	203.87211203575134	
39	188.59484338760376	fix_post	2		12	37.0	2.5	/experiments/Knapen_AOT/AOT_stimuli/rescaled_final/1488_fw.mp4	0.0	205.19081258773804	0.1000065803527832
40	188.69484996795654	fix_pre	0		120	38.0	2.5	/experiments/Knapen_AOT/AOT_stimuli/rescaled_final/1173_fw.mp4	0.0	205.29081916809082	1.0085089206695557
40	188.87020325660706	pulse	0	t		38.0	2.5	/experiments/Knapen_AOT/AOT_stimuli/rescaled_final/1173_fw.mp4	0.0	205.46617245674133	
40	189.7033588886261	movie	1		276	38.0	2.5	/experiments/Knapen_AOT/AOT_stimuli/rescaled_final/1173_fw.mp4	0.0	206.29932808876038	2.492001533508301
40	190.47027373313904	pulse	1	t		38.0	2.5	/experiments/Knapen_AOT/AOT_stimuli/rescaled_final/1173_fw.mp4	0.0	207.06624293327332	
40	192.07054829597473	pulse	1	t		38.0	2.5	/experiments/Knapen_AOT/AOT_stimuli/rescaled_final/1173_fw.mp4	0.0	208.666517496109	
40	192.1953604221344	fix_post	2		12	38.0	2.5	/experiments/Knapen_AOT/AOT_stimuli/rescaled_final/1173_fw.mp4	0.0	208.79132962226868	0.10000944137573242
41	192.29536986351013	fix_pre	0		120	39.0	2.5	/experiments/Knapen_AOT/AOT_stimuli/rescaled_final/1795_rv.mp4	0.0	208.8913390636444	1.0085422992706299
41	193.30391216278076	movie	1		284	39.0	2.5	/experiments/Knapen_AOT/AOT_stimuli/rescaled_final/1795_rv.mp4	0.0	209.89988136291504	2.4919750690460205
41	193.6776647567749	pulse	1	t		39.0	2.5	/experiments/Knapen_AOT/AOT_stimuli/rescaled_final/1795_rv.mp4	0.0	210.27363395690918	
41	195.27109909057617	pulse	1	t		39.0	2.5	/experiments/Knapen_AOT/AOT_stimuli/rescaled_final/1795_rv.mp4	0.0	211.86706829071045	
41	195.79588723182678	fix_post	2		12	39.0	2.5	/experiments/Knapen_AOT/AOT_stimuli/rescaled_final/1795_rv.mp4	0.0	212.39185643196106	0.1000216007232666
42	195.89590883255005	fix_pre	0		118	40.0	2.5	/experiments/Knapen_AOT/AOT_stimuli/rescaled_final/1176_fw.mp4	0.0	212.49187803268433	0.9918265342712402
42	196.87128591537476	pulse	0	t		40.0	2.5	/experiments/Knapen_AOT/AOT_stimuli/rescaled_final/1176_fw.mp4	0.0	213.46725511550903	
42	196.8877353668213	movie	1		285	40.0	2.5	/experiments/Knapen_AOT/AOT_stimuli/rescaled_final/1176_fw.mp4	0.0	213.48370456695557	2.5003700256347656
42	198.47016668319702	pulse	1	t		40.0	2.5	/experiments/Knapen_AOT/AOT_stimuli/rescaled_final/1176_fw.mp4	0.0	215.0661358833313	
42	199.38810539245605	fix_post	2		12	40.0	2.5	/experiments/Knapen_AOT/AOT_stimuli/rescaled_final/1176_fw.mp4	0.0	215.98407459259033	0.1000223159790039
43	199.48812770843506	fix_pre	0		120	41.0	2.5	blank	1.0	216.08409690856934	1.000178337097168
43	200.0718183517456	pulse	0	t		41.0	2.5	blank	1.0	216.66778755187988	
43	200.48830604553223	movie	1		300	41.0	2.5	blank	1.0	217.0842752456665	2.5003581047058105
43	201.67207312583923	pulse	1	t		41.0	2.5	blank	1.0	218.2680423259735	
43	202.98866415023804	fix_post	2		12	41.0	2.5	blank	1.0	219.58463335037231	0.10002398490905762
44	203.0886881351471	fix_pre	0		120	42.0	2.5	/experiments/Knapen_AOT/AOT_stimuli/rescaled_final/0644_rv.mp4	0.0	219.68465733528137	1.0085337162017822
44	203.27222895622253	pulse	0	t		42.0	2.5	/experiments/Knapen_AOT/AOT_stimuli/rescaled_final/0644_rv.mp4	0.0	219.8681981563568	
44	204.09722185134888	movie	1		277	42.0	2.5	/experiments/Knapen_AOT/AOT_stimuli/rescaled_final/0644_rv.mp4	0.0	220.69319105148315	2.49202036857605
44	204.8707046508789	pulse	1	t		42.0	2.5	/experiments/Knapen_AOT/AOT_stimuli/rescaled_final/0644_rv.mp4	0.0	221.46667385101318	
44	206.47101497650146	pulse	1	t		42.0	2.5	/experiments/Knapen_AOT/AOT_stimuli/rescaled_final/0644_rv.mp4	0.0	223.06698417663574	
44	206.58924221992493	fix_post	2		12	42.0	2.5	/experiments/Knapen_AOT/AOT_stimuli/rescaled_final/0644_rv.mp4	0.0	223.1852114200592	0.09995794296264648
45	206.68920016288757	fix_pre	0		120	43.0	2.5	/experiments/Knapen_AOT/AOT_stimuli/rescaled_final/1907_rv.mp4	0.0	223.28516936302185	1.0085110664367676
45	207.69771122932434	movie	1		269	43.0	2.5	/experiments/Knapen_AOT/AOT_stimuli/rescaled_final/1907_rv.mp4	0.0	224.29368042945862	2.492004871368408
45	208.07148003578186	pulse	1	t		43.0	2.5	/experiments/Knapen_AOT/AOT_stimuli/rescaled_final/1907_rv.mp4	0.0	224.66744923591614	
45	209.67114639282227	pulse	1	t		43.0	2.5	/experiments/Knapen_AOT/AOT_stimuli/rescaled_final/1907_rv.mp4	0.0	226.26711559295654	
45	210.18971610069275	fix_post	2		12	43.0	2.5	/experiments/Knapen_AOT/AOT_stimuli/rescaled_final/1907_rv.mp4	0.0	226.78568530082703	0.10002732276916504
46	210.2897434234619	fix_pre	0		119	44.0	2.5	/experiments/Knapen_AOT/AOT_stimuli/rescaled_final/0141_fw.mp4	0.0	226.8857126235962	1.000196933746338
46	211.2734363079071	pulse	0	t		44.0	2.5	/experiments/Knapen_AOT/AOT_stimuli/rescaled_final/0141_fw.mp4	0.0	227.86940550804138	
46	211.28994035720825	movie	1		280	44.0	2.5	/experiments/Knapen_AOT/AOT_stimuli/rescaled_final/0141_fw.mp4	0.0	227.88590955734253	2.5003254413604736
46	212.87220191955566	pulse	1	t		44.0	2.5	/experiments/Knapen_AOT/AOT_stimuli/rescaled_final/0141_fw.mp4	0.0	229.46817111968994	
46	213.79026579856873	fix_post	2		12	44.0	2.5	/experiments/Knapen_AOT/AOT_stimuli/rescaled_final/0141_fw.mp4	0.0	230.386234998703	0.10001611709594727
47	213.89028191566467	fix_pre	0		120	45.0	2.5	/experiments/Knapen_AOT/AOT_stimuli/rescaled_final/0467_fw.mp4	0.0	230.48625111579895	1.0085015296936035
47	214.473938703537	pulse	0	t		45.0	2.5	/experiments/Knapen_AOT/AOT_stimuli/rescaled_final/0467_fw.mp4	0.0	231.06990790367126	
47	214.89878344535828	movie	1		284	45.0	2.5	/experiments/Knapen_AOT/AOT_stimuli/rescaled_final/0467_fw.mp4	0.0	231.49475264549255	2.492053508758545
47	216.07220792770386	pulse	1	t		45.0	2.5	/experiments/Knapen_AOT/AOT_stimuli/rescaled_final/0467_fw.mp4	0.0	232.66817712783813	
47	217.39083695411682	fix_post	2		12	45.0	2.5	/experiments/Knapen_AOT/AOT_stimuli/rescaled_final/0467_fw.mp4	0.0	233.9868061542511	0.10001111030578613
48	217.4908480644226	fix_pre	0		120	46.0	2.5	/experiments/Knapen_AOT/AOT_stimuli/rescaled_final/1987_fw.mp4	0.0	234.08681726455688	1.0085203647613525
48	217.6743884086609	pulse	0	t		46.0	2.5	/experiments/Knapen_AOT/AOT_stimuli/rescaled_final/1987_fw.mp4	0.0	234.27035760879517	
48	218.49936842918396	movie	1		261	46.0	2.5	/experiments/Knapen_AOT/AOT_stimuli/rescaled_final/1987_fw.mp4	0.0	235.09533762931824	2.500349283218384
48	219.27247881889343	pulse	1	t		46.0	2.5	/experiments/Knapen_AOT/AOT_stimuli/rescaled_final/1987_fw.mp4	0.0	235.8684480190277	
48	220.8728199005127	pulse	1	t		46.0	2.5	/experiments/Knapen_AOT/AOT_stimuli/rescaled_final/1987_fw.mp4	0.0	237.46878910064697	
48	220.99971771240234	fix_post	2		11	46.0	2.5	/experiments/Knapen_AOT/AOT_stimuli/rescaled_final/1987_fw.mp4	0.0	237.59568691253662	0.09168148040771484
49	221.09139919281006	fix_pre	0		120	47.0	2.5	/experiments/Knapen_AOT/AOT_stimuli/rescaled_final/1718_fw.mp4	0.0	237.68736839294434	1.0084636211395264
49	222.09986281394958	movie	1		275	47.0	2.5	/experiments/Knapen_AOT/AOT_stimuli/rescaled_final/1718_fw.mp4	0.0	238.69583201408386	2.49204421043396
49	222.4732916355133	pulse	1	t		47.0	2.5	/experiments/Knapen_AOT/AOT_stimuli/rescaled_final/1718_fw.mp4	0.0	239.06926083564758	
49	224.07342743873596	pulse	1	t		47.0	2.5	/experiments/Knapen_AOT/AOT_stimuli/rescaled_final/1718_fw.mp4	0.0	240.66939663887024	
49	224.59190702438354	fix_post	2		12	47.0	2.5	/experiments/Knapen_AOT/AOT_stimuli/rescaled_final/1718_fw.mp4	0.0	241.18787622451782	0.09998035430908203
50	224.69188737869263	fix_pre	0		119	48.0	2.5	/experiments/Knapen_AOT/AOT_stimuli/rescaled_final/1357_rv.mp4	0.0	241.2878565788269	1.000150203704834
50	225.67564868927002	pulse	0	t		48.0	2.5	/experiments/Knapen_AOT/AOT_stimuli/rescaled_final/1357_rv.mp4	0.0	242.2716178894043	
50	225.69203758239746	movie	1		288	48.0	2.5	/experiments/Knapen_AOT/AOT_stimuli/rescaled_final/1357_rv.mp4	0.0	242.28800678253174	2.50042986869812
50	227.27413630485535	pulse	1	t		48.0	2.5	/experiments/Knapen_AOT/AOT_stimuli/rescaled_final/1357_rv.mp4	0.0	243.87010550498962	
50	228.19246745109558	fix_post	2		12	48.0	2.5	/experiments/Knapen_AOT/AOT_stimuli/rescaled_final/1357_rv.mp4	0.0	244.78843665122986	0.10004448890686035
51	228.29251194000244	fix_pre	0		120	49.0	2.5	blank	1.0	244.88848114013672	1.0000927448272705
51	228.87611055374146	pulse	0	t		49.0	2.5	blank	1.0	245.47207975387573	
51	229.2926046848297	movie	1		300	49.0	2.5	blank	1.0	245.888573884964	2.500380754470825
51	230.4763798713684	pulse	1	t		49.0	2.5	blank	1.0	247.07234907150269	
51	231.79298543930054	fix_post	2		12	49.0	2.5	blank	1.0	248.38895463943481	0.10001969337463379
52	231.89300513267517	fix_pre	0		120	50.0	2.5	/experiments/Knapen_AOT/AOT_stimuli/rescaled_final/0583_rv.mp4	0.0	248.48897433280945	1.0085763931274414
52	232.07656073570251	pulse	0	t		50.0	2.5	/experiments/Knapen_AOT/AOT_stimuli/rescaled_final/0583_rv.mp4	0.0	248.6725299358368	
52	232.9015815258026	movie	1		278	50.0	2.5	/experiments/Knapen_AOT/AOT_stimuli/rescaled_final/0583_rv.mp4	0.0	249.4975507259369	2.4921886920928955
52	233.67686533927917	pulse	1	t		50.0	2.5	/experiments/Knapen_AOT/AOT_stimuli/rescaled_final/0583_rv.mp4	0.0	250.27283453941345	
52	235.27501559257507	pulse	1	t		50.0	2.5	/experiments/Knapen_AOT/AOT_stimuli/rescaled_final/0583_rv.mp4	0.0	251.87098479270935	
52	235.3937702178955	fix_post	2		12	50.0	2.5	/experiments/Knapen_AOT/AOT_stimuli/rescaled_final/0583_rv.mp4	0.0	251.98973941802979	0.0997917652130127
53	235.49356198310852	fix_pre	0		120	51.0	2.5	/experiments/Knapen_AOT/AOT_stimuli/rescaled_final/1732_rv.mp4	0.0	252.0895311832428	1.008436918258667
53	236.5019989013672	movie	1		278	51.0	2.5	/experiments/Knapen_AOT/AOT_stimuli/rescaled_final/1732_rv.mp4	0.0	253.09796810150146	2.4920547008514404
53	236.87564325332642	pulse	1	t		51.0	2.5	/experiments/Knapen_AOT/AOT_stimuli/rescaled_final/1732_rv.mp4	0.0	253.4716124534607	
53	238.47547388076782	pulse	1	t		51.0	2.5	/experiments/Knapen_AOT/AOT_stimuli/rescaled_final/1732_rv.mp4	0.0	255.0714430809021	
53	238.99405360221863	fix_post	2		12	51.0	2.5	/experiments/Knapen_AOT/AOT_stimuli/rescaled_final/1732_rv.mp4	0.0	255.5900228023529	0.100006103515625
54	239.09405970573425	fix_pre	0		119	52.0	2.5	/experiments/Knapen_AOT/AOT_stimuli/rescaled_final/0250_rv.mp4	0.0	255.69002890586853	1.0001907348632812
54	240.07794618606567	pulse	0	t		52.0	2.5	/experiments/Knapen_AOT/AOT_stimuli/rescaled_final/0250_rv.mp4	0.0	256.67391538619995	
54	240.09425044059753	movie	1		281	52.0	2.5	/experiments/Knapen_AOT/AOT_stimuli/rescaled_final/0250_rv.mp4	0.0	256.6902196407318	2.5003502368927
54	241.6768238544464	pulse	1	t		52.0	2.5	/experiments/Knapen_AOT/AOT_stimuli/rescaled_final/0250_rv.mp4	0.0	258.2727930545807	
54	242.59460067749023	fix_post	2		12	52.0	2.5	/experiments/Knapen_AOT/AOT_stimuli/rescaled_final/0250_rv.mp4	0.0	259.1905698776245	0.10000824928283691
55	242.69460892677307	fix_pre	0		120	53.0	2.5	/experiments/Knapen_AOT/AOT_stimuli/rescaled_final/0677_rv.mp4	0.0	259.29057812690735	1.0084960460662842
55	243.2782108783722	pulse	0	t		53.0	2.5	/experiments/Knapen_AOT/AOT_stimuli/rescaled_final/0677_rv.mp4	0.0	259.87418007850647	
55	243.70310497283936	movie	1		279	53.0	2.5	/experiments/Knapen_AOT/AOT_stimuli/rescaled_final/0677_rv.mp4	0.0	260.29907417297363	2.4921207427978516
55	244.87658667564392	pulse	1	t		53.0	2.5	/experiments/Knapen_AOT/AOT_stimuli/rescaled_final/0677_rv.mp4	0.0	261.4725558757782	
55	246.1952257156372	fix_post	2		12	53.0	2.5	/experiments/Knapen_AOT/AOT_stimuli/rescaled_final/0677_rv.mp4	0.0	262.7911949157715	0.09992504119873047
56	246.29515075683594	fix_pre	0		120	54.0	2.5	/experiments/Knapen_AOT/AOT_stimuli/rescaled_final/0870_fw.mp4	0.0	262.8911199569702	1.0085031986236572
56	246.47087144851685	pulse	0	t		54.0	2.5	/experiments/Knapen_AOT/AOT_stimuli/rescaled_final/0870_fw.mp4	0.0	263.0668406486511	
56	247.3036539554596	movie	1		279	54.0	2.5	/experiments/Knapen_AOT/AOT_stimuli/rescaled_final/0870_fw.mp4	0.0	263.8996231555939	2.4920194149017334
56	248.07085847854614	pulse	1	t		54.0	2.5	/experiments/Knapen_AOT/AOT_stimuli/rescaled_final/0870_fw.mp4	0.0	264.6668276786804	
56	249.67106938362122	pulse	1	t		54.0	2.5	/experiments/Knapen_AOT/AOT_stimuli/rescaled_final/0870_fw.mp4	0.0	266.2670385837555	
56	249.79567337036133	fix_post	2		12	54.0	2.5	/experiments/Knapen_AOT/AOT_stimuli/rescaled_final/0870_fw.mp4	0.0	266.3916425704956	0.10005331039428711
57	249.89572668075562	fix_pre	0		120	55.0	2.5	blank	1.0	266.4916958808899	1.000124454498291
57	250.8958511352539	movie	1		300	55.0	2.5	blank	1.0	267.4918203353882	2.5003550052642822
57	251.27113246917725	pulse	1	t		55.0	2.5	blank	1.0	267.8671016693115	
57	252.87140703201294	pulse	1	t		55.0	2.5	blank	1.0	269.4673762321472	
57	253.3962061405182	fix_post	2		12	55.0	2.5	blank	1.0	269.99217534065247	0.09998822212219238
58	253.49619436264038	fix_pre	0		118	56.0	2.5	/experiments/Knapen_AOT/AOT_stimuli/rescaled_final/0477_rv.mp4	0.0	270.09216356277466	0.9918379783630371
58	254.4716076850891	pulse	0	t		56.0	2.5	/experiments/Knapen_AOT/AOT_stimuli/rescaled_final/0477_rv.mp4	0.0	271.0675768852234	
58	254.48803234100342	movie	1		281	56.0	2.5	/experiments/Knapen_AOT/AOT_stimuli/rescaled_final/0477_rv.mp4	0.0	271.0840015411377	2.5004055500030518
58	256.0708975791931	pulse	1	t		56.0	2.5	/experiments/Knapen_AOT/AOT_stimuli/rescaled_final/0477_rv.mp4	0.0	272.6668667793274	
58	256.98843789100647	fix_post	2		12	56.0	2.5	/experiments/Knapen_AOT/AOT_stimuli/rescaled_final/0477_rv.mp4	0.0	273.58440709114075	0.10004472732543945
59	257.0884826183319	fix_pre	0		120	57.0	2.5	/experiments/Knapen_AOT/AOT_stimuli/rescaled_final/0216_fw.mp4	0.0	273.6844518184662	1.0084848403930664
59	257.6720550060272	pulse	0	t		57.0	2.5	/experiments/Knapen_AOT/AOT_stimuli/rescaled_final/0216_fw.mp4	0.0	274.2680242061615	
59	258.096967458725	movie	1		283	57.0	2.5	/experiments/Knapen_AOT/AOT_stimuli/rescaled_final/0216_fw.mp4	0.0	274.69293665885925	2.492051839828491
59	259.2723548412323	pulse	1	t		57.0	2.5	/experiments/Knapen_AOT/AOT_stimuli/rescaled_final/0216_fw.mp4	0.0	275.8683240413666	
59	260.58901929855347	fix_post	2		12	57.0	2.5	/experiments/Knapen_AOT/AOT_stimuli/rescaled_final/0216_fw.mp4	0.0	277.18498849868774	0.09996724128723145
60	260.6889865398407	fix_pre	0		120	58.0	2.5	/experiments/Knapen_AOT/AOT_stimuli/rescaled_final/1463_fw.mp4	0.0	277.284955739975	1.0085196495056152
60	260.87256598472595	pulse	0	t		58.0	2.5	/experiments/Knapen_AOT/AOT_stimuli/rescaled_final/1463_fw.mp4	0.0	277.46853518486023	
60	261.6975061893463	movie	1		285	58.0	2.5	/experiments/Knapen_AOT/AOT_stimuli/rescaled_final/1463_fw.mp4	0.0	278.2934753894806	2.4920332431793213
60	262.47088170051575	pulse	1	t		58.0	2.5	/experiments/Knapen_AOT/AOT_stimuli/rescaled_final/1463_fw.mp4	0.0	279.06685090065	
60	264.0708255767822	pulse	1	t		58.0	2.5	/experiments/Knapen_AOT/AOT_stimuli/rescaled_final/1463_fw.mp4	0.0	280.6667947769165	
60	264.18953943252563	fix_post	2		12	58.0	2.5	/experiments/Knapen_AOT/AOT_stimuli/rescaled_final/1463_fw.mp4	0.0	280.7855086326599	0.10005521774291992
61	264.28959465026855	fix_pre	0		120	59.0	2.5	/experiments/Knapen_AOT/AOT_stimuli/rescaled_final/1907_rv.mp4	0.0	280.88556385040283	1.0084054470062256
61	265.2980000972748	movie	1		279	59.0	2.5	/experiments/Knapen_AOT/AOT_stimuli/rescaled_final/1907_rv.mp4	0.0	281.89396929740906	2.4920599460601807
61	265.67330408096313	pulse	1	t		59.0	2.5	/experiments/Knapen_AOT/AOT_stimuli/rescaled_final/1907_rv.mp4	0.0	282.2692732810974	
61	267.2720549106598	pulse	1	t		59.0	2.5	/experiments/Knapen_AOT/AOT_stimuli/rescaled_final/1907_rv.mp4	0.0	283.86802411079407	
61	267.79006004333496	fix_post	2		12	59.0	2.5	/experiments/Knapen_AOT/AOT_stimuli/rescaled_final/1907_rv.mp4	0.0	284.38602924346924	0.10001873970031738
62	267.8900787830353	fix_pre	0		119	60.0	2.5	/experiments/Knapen_AOT/AOT_stimuli/rescaled_final/0634_fw.mp4	0.0	284.48604798316956	1.008549451828003
62	268.8737750053406	pulse	0	t		60.0	2.5	/experiments/Knapen_AOT/AOT_stimuli/rescaled_final/0634_fw.mp4	0.0	285.46974420547485	
62	268.8986282348633	movie	1		285	60.0	2.5	/experiments/Knapen_AOT/AOT_stimuli/rescaled_final/0634_fw.mp4	0.0	285.49459743499756	2.492006301879883
62	270.4723365306854	pulse	1	t		60.0	2.5	/experiments/Knapen_AOT/AOT_stimuli/rescaled_final/0634_fw.mp4	0.0	287.0683057308197	
62	271.39063453674316	fix_post	2		12	60.0	2.5	/experiments/Knapen_AOT/AOT_stimuli/rescaled_final/0634_fw.mp4	0.0	287.98660373687744	0.09996771812438965
63	271.49060225486755	fix_pre	0		120	61.0	2.5	/experiments/Knapen_AOT/AOT_stimuli/rescaled_final/1363_fw.mp4	0.0	288.08657145500183	1.0085151195526123
63	272.07423639297485	pulse	0	t		61.0	2.5	/experiments/Knapen_AOT/AOT_stimuli/rescaled_final/1363_fw.mp4	0.0	288.67020559310913	
63	272.49911737442017	movie	1		267	61.0	2.5	/experiments/Knapen_AOT/AOT_stimuli/rescaled_final/1363_fw.mp4	0.0	289.09508657455444	2.4920170307159424
63	273.6737325191498	pulse	1	t		61.0	2.5	/experiments/Knapen_AOT/AOT_stimuli/rescaled_final/1363_fw.mp4	0.0	290.26970171928406	
63	274.9911344051361	fix_post	2		12	61.0	2.5	/experiments/Knapen_AOT/AOT_stimuli/rescaled_final/1363_fw.mp4	0.0	291.5871036052704	0.10022115707397461
64	275.0913555622101	fix_pre	0		120	62.0	2.5	blank	1.0	291.68732476234436	1.00001859664917
64	275.27477407455444	pulse	0	t		62.0	2.5	blank	1.0	291.8707432746887	
64	276.09137415885925	movie	1		300	62.0	2.5	blank	1.0	292.68734335899353	2.5003550052642822
64	276.875027179718	pulse	1	t		62.0	2.5	blank	1.0	293.4709963798523	
64	278.4752733707428	pulse	1	t		62.0	2.5	blank	1.0	295.0712425708771	
64	278.59172916412354	fix_post	2		12	62.0	2.5	blank	1.0	295.1876983642578	0.0999746322631836
65	278.6917037963867	fix_pre	0		120	63.0	2.5	/experiments/Knapen_AOT/AOT_stimuli/rescaled_final/1359_fw.mp4	0.0	295.287672996521	1.0084712505340576
65	279.7001750469208	movie	1		270	63.0	2.5	/experiments/Knapen_AOT/AOT_stimuli/rescaled_final/1359_fw.mp4	0.0	296.29614424705505	2.492037296295166
65	280.0740394592285	pulse	1	t		63.0	2.5	/experiments/Knapen_AOT/AOT_stimuli/rescaled_final/1359_fw.mp4	0.0	296.6700086593628	
65	281.6736192703247	pulse	1	t		63.0	2.5	/experiments/Knapen_AOT/AOT_stimuli/rescaled_final/1359_fw.mp4	0.0	298.269588470459	
65	282.19221234321594	fix_post	2		12	63.0	2.5	/experiments/Knapen_AOT/AOT_stimuli/rescaled_final/1359_fw.mp4	0.0	298.7881815433502	0.1000213623046875
66	282.29223370552063	fix_pre	0		119	64.0	2.5	/experiments/Knapen_AOT/AOT_stimuli/rescaled_final/2146_rv.mp4	0.0	298.8882029056549	1.0085194110870361
66	283.27618622779846	pulse	0	t		64.0	2.5	/experiments/Knapen_AOT/AOT_stimuli/rescaled_final/2146_rv.mp4	0.0	299.87215542793274	
66	283.30075311660767	movie	1		270	64.0	2.5	/experiments/Knapen_AOT/AOT_stimuli/rescaled_final/2146_rv.mp4	0.0	299.89672231674194	2.492109537124634
66	284.87559938430786	pulse	1	t		64.0	2.5	/experiments/Knapen_AOT/AOT_stimuli/rescaled_final/2146_rv.mp4	0.0	301.47156858444214	
66	285.7928626537323	fix_post	2		12	64.0	2.5	/experiments/Knapen_AOT/AOT_stimuli/rescaled_final/2146_rv.mp4	0.0	302.3888318538666	0.09991025924682617
67	285.8927729129791	fix_pre	0		120	65.0	2.5	/experiments/Knapen_AOT/AOT_stimuli/rescaled_final/1760_rv.mp4	0.0	302.4887421131134	1.0084965229034424
67	286.4763834476471	pulse	0	t		65.0	2.5	/experiments/Knapen_AOT/AOT_stimuli/rescaled_final/1760_rv.mp4	0.0	303.0723526477814	
67	286.90126943588257	movie	1		284	65.0	2.5	/experiments/Knapen_AOT/AOT_stimuli/rescaled_final/1760_rv.mp4	0.0	303.49723863601685	2.4920332431793213
67	288.07469296455383	pulse	1	t		65.0	2.5	/experiments/Knapen_AOT/AOT_stimuli/rescaled_final/1760_rv.mp4	0.0	304.6706621646881	
67	289.3933026790619	fix_post	2		12	65.0	2.5	/experiments/Knapen_AOT/AOT_stimuli/rescaled_final/1760_rv.mp4	0.0	305.98927187919617	0.10001993179321289
68	289.4933226108551	fix_pre	0		120	66.0	2.5	/experiments/Knapen_AOT/AOT_stimuli/rescaled_final/0067_rv.mp4	0.0	306.0892918109894	1.0085039138793945
68	289.6770815849304	pulse	0	t		66.0	2.5	/experiments/Knapen_AOT/AOT_stimuli/rescaled_final/0067_rv.mp4	0.0	306.2730507850647	
68	290.5018265247345	movie	1		264	66.0	2.5	/experiments/Knapen_AOT/AOT_stimuli/rescaled_final/0067_rv.mp4	0.0	307.0977957248688	2.492023229598999
68	291.2761743068695	pulse	1	t		66.0	2.5	/experiments/Knapen_AOT/AOT_stimuli/rescaled_final/0067_rv.mp4	0.0	307.8721435070038	
68	292.8754382133484	pulse	1	t		66.0	2.5	/experiments/Knapen_AOT/AOT_stimuli/rescaled_final/0067_rv.mp4	0.0	309.47140741348267	
68	292.9938497543335	fix_post	2		12	66.0	2.5	/experiments/Knapen_AOT/AOT_stimuli/rescaled_final/0067_rv.mp4	0.0	309.5898189544678	0.10007214546203613
69	293.09392189979553	fix_pre	0		120	67.0	2.5	/experiments/Knapen_AOT/AOT_stimuli/rescaled_final/1676_fw.mp4	0.0	309.6898910999298	1.0084025859832764
69	294.1023244857788	movie	1		268	67.0	2.5	/experiments/Knapen_AOT/AOT_stimuli/rescaled_final/1676_fw.mp4	0.0	310.6982936859131	2.4920780658721924
69	294.4764196872711	pulse	1	t		67.0	2.5	/experiments/Knapen_AOT/AOT_stimuli/rescaled_final/1676_fw.mp4	0.0	311.0723888874054	
69	296.07788920402527	pulse	1	t		67.0	2.5	/experiments/Knapen_AOT/AOT_stimuli/rescaled_final/1676_fw.mp4	0.0	312.67385840415955	
69	296.594402551651	fix_post	2		12	67.0	2.5	/experiments/Knapen_AOT/AOT_stimuli/rescaled_final/1676_fw.mp4	0.0	313.1903717517853	0.10000324249267578
70	296.6944057941437	fix_pre	0		119	68.0	2.5	/experiments/Knapen_AOT/AOT_stimuli/rescaled_final/1477_rv.mp4	0.0	313.29037499427795	1.0001647472381592
70	297.6781930923462	pulse	0	t		68.0	2.5	/experiments/Knapen_AOT/AOT_stimuli/rescaled_final/1477_rv.mp4	0.0	314.27416229248047	
70	297.69457054138184	movie	1		277	68.0	2.5	/experiments/Knapen_AOT/AOT_stimuli/rescaled_final/1477_rv.mp4	0.0	314.2905397415161	2.5003445148468018
70	299.2768726348877	pulse	1	t		68.0	2.5	/experiments/Knapen_AOT/AOT_stimuli/rescaled_final/1477_rv.mp4	0.0	315.872841835022	
70	300.19491505622864	fix_post	2		12	68.0	2.5	/experiments/Knapen_AOT/AOT_stimuli/rescaled_final/1477_rv.mp4	0.0	316.7908842563629	0.10005736351013184
71	300.29497241973877	fix_pre	0		120	69.0	2.5	blank	1.0	316.89094161987305	1.0001368522644043
71	300.87860560417175	pulse	0	t		69.0	2.5	blank	1.0	317.47457480430603	
71	301.2951092720032	movie	1		300	69.0	2.5	blank	1.0	317.89107847213745	2.50036883354187
71	302.47142004966736	pulse	1	t		69.0	2.5	blank	1.0	319.06738924980164	
71	303.79547810554504	fix_post	2		12	69.0	2.5	blank	1.0	320.3914473056793	0.10011005401611328
72	303.89558815956116	fix_pre	0		120	70.0	2.5	/experiments/Knapen_AOT/AOT_stimuli/rescaled_final/0343_rv.mp4	0.0	320.49155735969543	1.0084011554718018
72	304.0712971687317	pulse	0	t		70.0	2.5	/experiments/Knapen_AOT/AOT_stimuli/rescaled_final/0343_rv.mp4	0.0	320.66726636886597	
72	304.90398931503296	movie	1		281	70.0	2.5	/experiments/Knapen_AOT/AOT_stimuli/rescaled_final/0343_rv.mp4	0.0	321.49995851516724	2.492037296295166
72	305.67105650901794	pulse	1	t		70.0	2.5	/experiments/Knapen_AOT/AOT_stimuli/rescaled_final/0343_rv.mp4	0.0	322.2670257091522	
72	307.27121138572693	pulse	1	t		70.0	2.5	/experiments/Knapen_AOT/AOT_stimuli/rescaled_final/0343_rv.mp4	0.0	323.8671805858612	
72	307.3960266113281	fix_post	2		12	70.0	2.5	/experiments/Knapen_AOT/AOT_stimuli/rescaled_final/0343_rv.mp4	0.0	323.9919958114624	0.09998130798339844
73	307.4960079193115	fix_pre	0		120	71.0	2.5	/experiments/Knapen_AOT/AOT_stimuli/rescaled_final/0641_fw.mp4	0.0	324.0919771194458	1.0085482597351074
73	308.50455617904663	movie	1		269	71.0	2.5	/experiments/Knapen_AOT/AOT_stimuli/rescaled_final/0641_fw.mp4	0.0	325.1005253791809	2.491994857788086
73	308.8712010383606	pulse	1	t		71.0	2.5	/experiments/Knapen_AOT/AOT_stimuli/rescaled_final/0641_fw.mp4	0.0	325.4671702384949	
73	310.4717583656311	pulse	1	t		71.0	2.5	/experiments/Knapen_AOT/AOT_stimuli/rescaled_final/0641_fw.mp4	0.0	327.0677275657654	
73	310.9965510368347	fix_post	2		12	71.0	2.5	/experiments/Knapen_AOT/AOT_stimuli/rescaled_final/0641_fw.mp4	0.0	327.592520236969	0.10004639625549316
74	311.0965974330902	fix_pre	0		118	72.0	2.5	/experiments/Knapen_AOT/AOT_stimuli/rescaled_final/0111_rv.mp4	0.0	327.6925666332245	1.0003702640533447
74	312.0721697807312	pulse	0	t		72.0	2.5	/experiments/Knapen_AOT/AOT_stimuli/rescaled_final/0111_rv.mp4	0.0	328.6681389808655	
74	312.09696769714355	movie	1		277	72.0	2.5	/experiments/Knapen_AOT/AOT_stimuli/rescaled_final/0111_rv.mp4	0.0	328.69293689727783	2.491854190826416
74	313.672194480896	pulse	1	t		72.0	2.5	/experiments/Knapen_AOT/AOT_stimuli/rescaled_final/0111_rv.mp4	0.0	330.2681636810303	
74	314.58882188796997	fix_post	2		12	72.0	2.5	/experiments/Knapen_AOT/AOT_stimuli/rescaled_final/0111_rv.mp4	0.0	331.18479108810425	0.09997963905334473
75	314.6888015270233	fix_pre	0		120	73.0	2.5	/experiments/Knapen_AOT/AOT_stimuli/rescaled_final/0272_rv.mp4	0.0	331.2847707271576	1.0084731578826904
75	315.27242159843445	pulse	0	t		73.0	2.5	/experiments/Knapen_AOT/AOT_stimuli/rescaled_final/0272_rv.mp4	0.0	331.8683907985687	
75	315.697274684906	movie	1		274	73.0	2.5	/experiments/Knapen_AOT/AOT_stimuli/rescaled_final/0272_rv.mp4	0.0	332.2932438850403	2.492011308670044
75	316.87274861335754	pulse	1	t		73.0	2.5	/experiments/Knapen_AOT/AOT_stimuli/rescaled_final/0272_rv.mp4	0.0	333.4687178134918	
75	318.18928599357605	fix_post	2		12	73.0	2.5	/experiments/Knapen_AOT/AOT_stimuli/rescaled_final/0272_rv.mp4	0.0	334.7852551937103	0.10001015663146973
76	318.2892961502075	fix_pre	0		120	74.0	2.5	/experiments/Knapen_AOT/AOT_stimuli/rescaled_final/0461_fw.mp4	0.0	334.8852653503418	1.008523941040039
76	318.4728932380676	pulse	0	t		74.0	2.5	/experiments/Knapen_AOT/AOT_stimuli/rescaled_final/0461_fw.mp4	0.0	335.0688624382019	
76	319.29782009124756	movie	1		277	74.0	2.5	/experiments/Knapen_AOT/AOT_stimuli/rescaled_final/0461_fw.mp4	0.0	335.89378929138184	2.492006301879883
76	320.0718789100647	pulse	1	t		74.0	2.5	/experiments/Knapen_AOT/AOT_stimuli/rescaled_final/0461_fw.mp4	0.0	336.667848110199	
76	321.6718153953552	pulse	1	t		74.0	2.5	/experiments/Knapen_AOT/AOT_stimuli/rescaled_final/0461_fw.mp4	0.0	338.2677845954895	
76	321.78982639312744	fix_post	2		12	74.0	2.5	/experiments/Knapen_AOT/AOT_stimuli/rescaled_final/0461_fw.mp4	0.0	338.3857955932617	0.10013127326965332
77	321.8899576663971	fix_pre	0		120	75.0	2.5	blank	1.0	338.4859268665314	1.0000219345092773
77	322.8899796009064	movie	1		300	75.0	2.5	blank	1.0	339.48594880104065	2.500384569168091
77	323.2737982273102	pulse	1	t		75.0	2.5	blank	1.0	339.86976742744446	
77	324.87386322021484	pulse	1	t		75.0	2.5	blank	1.0	341.4698324203491	
77	325.39036417007446	fix_post	2		12	75.0	2.5	blank	1.0	341.98633337020874	0.1000368595123291
78	325.4904010295868	fix_pre	0		119	76.0	2.5	/experiments/Knapen_AOT/AOT_stimuli/rescaled_final/0812_fw.mp4	0.0	342.08637022972107	1.0086560249328613
78	326.4743757247925	pulse	0	t		76.0	2.5	/experiments/Knapen_AOT/AOT_stimuli/rescaled_final/0812_fw.mp4	0.0	343.07034492492676	
78	326.49905705451965	movie	1		275	76.0	2.5	/experiments/Knapen_AOT/AOT_stimuli/rescaled_final/0812_fw.mp4	0.0	343.09502625465393	2.4919166564941406
78	328.0730872154236	pulse	1	t		76.0	2.5	/experiments/Knapen_AOT/AOT_stimuli/rescaled_final/0812_fw.mp4	0.0	344.66905641555786	
78	328.9909737110138	fix_post	2		12	76.0	2.5	/experiments/Knapen_AOT/AOT_stimuli/rescaled_final/0812_fw.mp4	0.0	345.58694291114807	0.10002303123474121
79	329.09099674224854	fix_pre	0		120	77.0	2.5	/experiments/Knapen_AOT/AOT_stimuli/rescaled_final/2129_fw.mp4	0.0	345.6869659423828	1.0084569454193115
79	329.67468333244324	pulse	0	t		77.0	2.5	/experiments/Knapen_AOT/AOT_stimuli/rescaled_final/2129_fw.mp4	0.0	346.2706525325775	
79	330.09945368766785	movie	1		266	77.0	2.5	/experiments/Knapen_AOT/AOT_stimuli/rescaled_final/2129_fw.mp4	0.0	346.6954228878021	2.4920032024383545
79	331.27334213256836	pulse	1	t		77.0	2.5	/experiments/Knapen_AOT/AOT_stimuli/rescaled_final/2129_fw.mp4	0.0	347.86931133270264	
79	332.5914568901062	fix_post	2		12	77.0	2.5	/experiments/Knapen_AOT/AOT_stimuli/rescaled_final/2129_fw.mp4	0.0	349.1874260902405	0.10001635551452637
80	332.6914732456207	fix_pre	0		120	78.0	2.5	/experiments/Knapen_AOT/AOT_stimuli/rescaled_final/0583_rv.mp4	0.0	349.287442445755	1.0084888935089111
80	332.87501096725464	pulse	0	t		78.0	2.5	/experiments/Knapen_AOT/AOT_stimuli/rescaled_final/0583_rv.mp4	0.0	349.4709801673889	
80	333.69996213912964	movie	1		272	78.0	2.5	/experiments/Knapen_AOT/AOT_stimuli/rescaled_final/0583_rv.mp4	0.0	350.2959313392639	2.492037534713745
80	334.4738075733185	pulse	1	t		78.0	2.5	/experiments/Knapen_AOT/AOT_stimuli/rescaled_final/0583_rv.mp4	0.0	351.06977677345276	
80	336.0736835002899	pulse	1	t		78.0	2.5	/experiments/Knapen_AOT/AOT_stimuli/rescaled_final/0583_rv.mp4	0.0	352.6696527004242	
80	336.1919996738434	fix_post	2		12	78.0	2.5	/experiments/Knapen_AOT/AOT_stimuli/rescaled_final/0583_rv.mp4	0.0	352.78796887397766	0.10000967979431152
81	336.2920093536377	fix_pre	0		120	79.0	2.5	/experiments/Knapen_AOT/AOT_stimuli/rescaled_final/1127_rv.mp4	0.0	352.887978553772	1.008547067642212
81	337.3005564212799	movie	1		268	79.0	2.5	/experiments/Knapen_AOT/AOT_stimuli/rescaled_final/1127_rv.mp4	0.0	353.8965256214142	2.4920148849487305
81	337.6745412349701	pulse	1	t		79.0	2.5	/experiments/Knapen_AOT/AOT_stimuli/rescaled_final/1127_rv.mp4	0.0	354.27051043510437	
81	339.2739026546478	pulse	1	t		79.0	2.5	/experiments/Knapen_AOT/AOT_stimuli/rescaled_final/1127_rv.mp4	0.0	355.8698718547821	
81	339.79257130622864	fix_post	2		12	79.0	2.5	/experiments/Knapen_AOT/AOT_stimuli/rescaled_final/1127_rv.mp4	0.0	356.3885405063629	0.10010695457458496
82	339.8926782608032	fix_pre	0		119	80.0	2.5	/experiments/Knapen_AOT/AOT_stimuli/rescaled_final/1663_fw.mp4	0.0	356.4886474609375	1.000040054321289
82	340.8762547969818	pulse	0	t		80.0	2.5	/experiments/Knapen_AOT/AOT_stimuli/rescaled_final/1663_fw.mp4	0.0	357.4722239971161	
82	340.8927183151245	movie	1		269	80.0	2.5	/experiments/Knapen_AOT/AOT_stimuli/rescaled_final/1663_fw.mp4	0.0	357.4886875152588	2.500408411026001
82	342.47534227371216	pulse	1	t		80.0	2.5	/experiments/Knapen_AOT/AOT_stimuli/rescaled_final/1663_fw.mp4	0.0	359.07131147384644	
82	343.3931267261505	fix_post	2		11	80.0	2.5	/experiments/Knapen_AOT/AOT_stimuli/rescaled_final/1663_fw.mp4	0.0	359.9890959262848	0.10012102127075195
83	343.49324774742126	fix_pre	0		120	81.0	2.5	/experiments/Knapen_AOT/AOT_stimuli/rescaled_final/1676_rv.mp4	0.0	360.08921694755554	1.008333683013916
83	344.0768849849701	pulse	0	t		81.0	2.5	/experiments/Knapen_AOT/AOT_stimuli/rescaled_final/1676_rv.mp4	0.0	360.67285418510437	
83	344.5015814304352	movie	1		276	81.0	2.5	/experiments/Knapen_AOT/AOT_stimuli/rescaled_final/1676_rv.mp4	0.0	361.09755063056946	2.492034673690796
83	345.67521262168884	pulse	1	t		81.0	2.5	/experiments/Knapen_AOT/AOT_stimuli/rescaled_final/1676_rv.mp4	0.0	362.2711818218231	
83	346.993616104126	fix_post	2		12	81.0	2.5	/experiments/Knapen_AOT/AOT_stimuli/rescaled_final/1676_rv.mp4	0.0	363.58958530426025	0.10004568099975586
84	347.09366178512573	fix_pre	0		120	82.0	2.5	/experiments/Knapen_AOT/AOT_stimuli/rescaled_final/0185_rv.mp4	0.0	363.68963098526	1.0085945129394531
84	347.27721881866455	pulse	0	t		82.0	2.5	/experiments/Knapen_AOT/AOT_stimuli/rescaled_final/0185_rv.mp4	0.0	363.8731880187988	
84	348.1022562980652	movie	1		277	82.0	2.5	/experiments/Knapen_AOT/AOT_stimuli/rescaled_final/0185_rv.mp4	0.0	364.69822549819946	2.491982936859131
84	348.87577772140503	pulse	1	t		82.0	2.5	/experiments/Knapen_AOT/AOT_stimuli/rescaled_final/0185_rv.mp4	0.0	365.4717469215393	
84	350.4760320186615	pulse	1	t		82.0	2.5	/experiments/Knapen_AOT/AOT_stimuli/rescaled_final/0185_rv.mp4	0.0	367.0720012187958	
84	350.5942392349243	fix_post	2		12	82.0	2.5	/experiments/Knapen_AOT/AOT_stimuli/rescaled_final/0185_rv.mp4	0.0	367.1902084350586	0.09998750686645508
85	350.69422674179077	fix_pre	0		120	83.0	2.5	blank	1.0	367.29019594192505	1.0001051425933838
85	351.69433188438416	movie	1		300	83.0	2.5	blank	1.0	368.29030108451843	2.500379800796509
85	352.07793283462524	pulse	1	t		83.0	2.5	blank	1.0	368.6739020347595	
85	353.6710042953491	pulse	1	t		83.0	2.5	blank	1.0	370.2669734954834	
85	354.19471168518066	fix_post	2		12	83.0	2.5	blank	1.0	370.79068088531494	0.10001063346862793
87	354.2947223186493	stim	0		1716					370.89069151878357	14.302133798599243
87	355.2719097137451	pulse	0	t						371.8678789138794	
87	356.8704459667206	pulse	0	t						373.46641516685486	
87	358.47053360939026	pulse	0	t						375.06650280952454	
87	360.0709180831909	pulse	0	t						376.6668872833252	
87	361.67107939720154	pulse	0	t						378.2670485973358	
87	363.2715804576874	pulse	0	t						379.86754965782166	
87	364.87151288986206	pulse	0	t						381.46748208999634	
87	366.4717948436737	pulse	0	t						383.067764043808	
87	368.07196521759033	pulse	0	t						384.6679344177246	
