trial_nr	onset	event_type	phase	response	nr_frames	movie_index	movie_duration	movie_file	blank	onset_abs	duration
0	0.20815610885620117	stim	0		42					24.672380208969116	0.35004186630249023
0	0.5502409934997559	response	0	space						25.01446509361267	
1	0.5581979751586914	stim	0		4710					25.022422075271606	39.275365114212036
1	39.803648948669434	pulse	0	t						64.26787304878235	
1	39.83356308937073	stim	1		1716					64.29778718948364	14.299318075180054
1	41.39787411689758	pulse	1	t						65.8620982170105	
1	42.99812197685242	pulse	1	t						67.46234607696533	
1	44.59823417663574	pulse	1	t						69.06245827674866	
1	46.198538064956665	pulse	1	t						70.66276216506958	
1	47.79883313179016	pulse	1	t						72.26305723190308	
1	49.39894199371338	pulse	1	t						73.8631660938263	
1	50.99920296669006	pulse	1	t						75.46342706680298	
1	52.59942603111267	pulse	1	t						77.06365013122559	
2	54.13288116455078	fix_pre	0		9	0.0	2.5	/experiments/knapen_AOT/AOT_stimuli/rescaled_final/1564_rv.mp4	0.0	78.5971052646637	0.07497882843017578
2	54.19979500770569	pulse	0	t		0.0	2.5	/experiments/knapen_AOT/AOT_stimuli/rescaled_final/1564_rv.mp4	0.0	78.6640191078186	
2	54.20785999298096	movie	1		244	0.0	2.5	/experiments/knapen_AOT/AOT_stimuli/rescaled_final/1564_rv.mp4	0.0	78.67208409309387	2.508721113204956
2	55.80119800567627	pulse	1	t		0.0	2.5	/experiments/knapen_AOT/AOT_stimuli/rescaled_final/1564_rv.mp4	0.0	80.26542210578918	
2	56.71658110618591	fix_post	2		12	0.0	2.5	/experiments/knapen_AOT/AOT_stimuli/rescaled_final/1564_rv.mp4	0.0	81.18080520629883	0.10000300407409668
3	56.81658411026001	fix_pre	0		120	1.0	2.5	/experiments/knapen_AOT/AOT_stimuli/rescaled_final/0096_fw.mp4	0.0	81.28080821037292	1.000154972076416
3	57.400217056274414	pulse	0	t		1.0	2.5	/experiments/knapen_AOT/AOT_stimuli/rescaled_final/0096_fw.mp4	0.0	81.86444115638733	
3	57.816739082336426	movie	1		244	1.0	2.5	/experiments/knapen_AOT/AOT_stimuli/rescaled_final/0096_fw.mp4	0.0	82.28096318244934	2.50034499168396
3	59.000503063201904	pulse	1	t		1.0	2.5	/experiments/knapen_AOT/AOT_stimuli/rescaled_final/0096_fw.mp4	0.0	83.46472716331482	
3	60.317084074020386	fix_post	2		12	1.0	2.5	/experiments/knapen_AOT/AOT_stimuli/rescaled_final/0096_fw.mp4	0.0	84.7813081741333	0.10005807876586914
4	60.417142152786255	fix_pre	0		120	2.0	2.5	/experiments/knapen_AOT/AOT_stimuli/rescaled_final/1087_rv.mp4	0.0	84.88136625289917	1.000121831893921
4	60.60067701339722	pulse	0	t		2.0	2.5	/experiments/knapen_AOT/AOT_stimuli/rescaled_final/1087_rv.mp4	0.0	85.06490111351013	
4	61.417263984680176	movie	1		244	2.0	2.5	/experiments/knapen_AOT/AOT_stimuli/rescaled_final/1087_rv.mp4	0.0	85.88148808479309	2.5003960132598877
4	62.200977087020874	pulse	1	t		2.0	2.5	/experiments/knapen_AOT/AOT_stimuli/rescaled_final/1087_rv.mp4	0.0	86.66520118713379	
4	63.801202058792114	pulse	1	t		2.0	2.5	/experiments/knapen_AOT/AOT_stimuli/rescaled_final/1087_rv.mp4	0.0	88.26542615890503	
4	63.91765999794006	fix_post	2		12	2.0	2.5	/experiments/knapen_AOT/AOT_stimuli/rescaled_final/1087_rv.mp4	0.0	88.38188409805298	0.100006103515625
5	64.01766610145569	fix_pre	0		120	3.0	2.5	/experiments/knapen_AOT/AOT_stimuli/rescaled_final/0225_rv.mp4	0.0	88.4818902015686	1.0001709461212158
5	65.0178370475769	movie	1		242	3.0	2.5	/experiments/knapen_AOT/AOT_stimuli/rescaled_final/0225_rv.mp4	0.0	89.48206114768982	2.492089033126831
5	65.40196800231934	pulse	1	t		3.0	2.5	/experiments/knapen_AOT/AOT_stimuli/rescaled_final/0225_rv.mp4	0.0	89.86619210243225	
5	67.00164008140564	pulse	1	t		3.0	2.5	/experiments/knapen_AOT/AOT_stimuli/rescaled_final/0225_rv.mp4	0.0	91.46586418151855	
5	67.50992608070374	fix_post	2		12	3.0	2.5	/experiments/knapen_AOT/AOT_stimuli/rescaled_final/0225_rv.mp4	0.0	91.97415018081665	0.09994006156921387
6	67.60986614227295	fix_pre	0		120	4.0	2.5	/experiments/knapen_AOT/AOT_stimuli/rescaled_final/1080_fw.mp4	0.0	92.07409024238586	1.0001590251922607
6	68.60193300247192	pulse	0	t		4.0	2.5	/experiments/knapen_AOT/AOT_stimuli/rescaled_final/1080_fw.mp4	0.0	93.06615710258484	
6	68.61002516746521	movie	1		245	4.0	2.5	/experiments/knapen_AOT/AOT_stimuli/rescaled_final/1080_fw.mp4	0.0	93.07424926757812	2.508708953857422
6	70.20276308059692	pulse	1	t		4.0	2.5	/experiments/knapen_AOT/AOT_stimuli/rescaled_final/1080_fw.mp4	0.0	94.66698718070984	
6	71.11873412132263	fix_post	2		12	4.0	2.5	/experiments/knapen_AOT/AOT_stimuli/rescaled_final/1080_fw.mp4	0.0	95.58295822143555	0.10001087188720703
7	71.21874499320984	fix_pre	0		120	5.0	2.5	/experiments/knapen_AOT/AOT_stimuli/rescaled_final/0088_rv.mp4	0.0	95.68296909332275	1.0002310276031494
7	71.80244207382202	pulse	0	t		5.0	2.5	/experiments/knapen_AOT/AOT_stimuli/rescaled_final/0088_rv.mp4	0.0	96.26666617393494	
7	72.21897602081299	movie	1		244	5.0	2.5	/experiments/knapen_AOT/AOT_stimuli/rescaled_final/0088_rv.mp4	0.0	96.6832001209259	2.5003421306610107
7	73.40274405479431	pulse	1	t		5.0	2.5	/experiments/knapen_AOT/AOT_stimuli/rescaled_final/0088_rv.mp4	0.0	97.86696815490723	
7	74.719318151474	fix_post	2		12	5.0	2.5	/experiments/knapen_AOT/AOT_stimuli/rescaled_final/0088_rv.mp4	0.0	99.18354225158691	0.09994101524353027
8	74.81925916671753	fix_pre	0		120	6.0	2.5	/experiments/knapen_AOT/AOT_stimuli/rescaled_final/1665_rv.mp4	0.0	99.28348326683044	1.0001678466796875
8	75.00288510322571	pulse	0	t		6.0	2.5	/experiments/knapen_AOT/AOT_stimuli/rescaled_final/1665_rv.mp4	0.0	99.46710920333862	
8	75.81942701339722	movie	1		243	6.0	2.5	/experiments/knapen_AOT/AOT_stimuli/rescaled_final/1665_rv.mp4	0.0	100.28365111351013	2.500338077545166
8	76.60312914848328	pulse	1	t		6.0	2.5	/experiments/knapen_AOT/AOT_stimuli/rescaled_final/1665_rv.mp4	0.0	101.06735324859619	
8	78.20317506790161	pulse	1	t		6.0	2.5	/experiments/knapen_AOT/AOT_stimuli/rescaled_final/1665_rv.mp4	0.0	102.66739916801453	
8	78.31976509094238	fix_post	2		12	6.0	2.5	/experiments/knapen_AOT/AOT_stimuli/rescaled_final/1665_rv.mp4	0.0	102.7839891910553	0.10003304481506348
9	78.41979813575745	fix_pre	0		120	7.0	2.5	blank	1.0	102.88402223587036	1.00022292137146
9	79.4200210571289	movie	1		299	7.0	2.5	blank	1.0	103.88424515724182	2.4919919967651367
9	79.80363607406616	pulse	1	t		7.0	2.5	blank	1.0	104.26786017417908	
9	81.40380311012268	pulse	1	t		7.0	2.5	blank	1.0	105.8680272102356	
9	81.91201305389404	fix_post	2		12	7.0	2.5	blank	1.0	106.37623715400696	0.09999608993530273
10	82.01200914382935	fix_pre	0		120	8.0	2.5	/experiments/knapen_AOT/AOT_stimuli/rescaled_final/2144_rv.mp4	0.0	106.47623324394226	1.000166893005371
10	83.0040431022644	pulse	0	t		8.0	2.5	/experiments/knapen_AOT/AOT_stimuli/rescaled_final/2144_rv.mp4	0.0	107.46826720237732	
10	83.01217603683472	movie	1		245	8.0	2.5	/experiments/knapen_AOT/AOT_stimuli/rescaled_final/2144_rv.mp4	0.0	107.47640013694763	2.508769989013672
10	84.60490798950195	pulse	1	t		8.0	2.5	/experiments/knapen_AOT/AOT_stimuli/rescaled_final/2144_rv.mp4	0.0	109.06913208961487	
10	85.52094602584839	fix_post	2		12	8.0	2.5	/experiments/knapen_AOT/AOT_stimuli/rescaled_final/2144_rv.mp4	0.0	109.9851701259613	0.09995603561401367
11	85.6209020614624	fix_pre	0		120	9.0	2.5	/experiments/knapen_AOT/AOT_stimuli/rescaled_final/1472_fw.mp4	0.0	110.08512616157532	1.0001490116119385
11	86.20460510253906	pulse	0	t		9.0	2.5	/experiments/knapen_AOT/AOT_stimuli/rescaled_final/1472_fw.mp4	0.0	110.66882920265198	
11	86.62105107307434	movie	1		244	9.0	2.5	/experiments/knapen_AOT/AOT_stimuli/rescaled_final/1472_fw.mp4	0.0	111.08527517318726	2.500391960144043
11	87.80488705635071	pulse	1	t		9.0	2.5	/experiments/knapen_AOT/AOT_stimuli/rescaled_final/1472_fw.mp4	0.0	112.26911115646362	
11	89.12144303321838	fix_post	2		12	9.0	2.5	/experiments/knapen_AOT/AOT_stimuli/rescaled_final/1472_fw.mp4	0.0	113.5856671333313	0.09998106956481934
12	89.2214241027832	fix_pre	0		120	10.0	2.5	/experiments/knapen_AOT/AOT_stimuli/rescaled_final/0576_fw.mp4	0.0	113.68564820289612	1.0001940727233887
12	89.39743995666504	pulse	0	t		10.0	2.5	/experiments/knapen_AOT/AOT_stimuli/rescaled_final/0576_fw.mp4	0.0	113.86166405677795	
12	90.22161817550659	movie	1		241	10.0	2.5	/experiments/knapen_AOT/AOT_stimuli/rescaled_final/0576_fw.mp4	0.0	114.6858422756195	2.5003509521484375
12	90.99791812896729	pulse	1	t		10.0	2.5	/experiments/knapen_AOT/AOT_stimuli/rescaled_final/0576_fw.mp4	0.0	115.4621422290802	
12	92.60311508178711	pulse	1	t		10.0	2.5	/experiments/knapen_AOT/AOT_stimuli/rescaled_final/0576_fw.mp4	0.0	117.06733918190002	
12	92.72196912765503	fix_post	2		12	10.0	2.5	/experiments/knapen_AOT/AOT_stimuli/rescaled_final/0576_fw.mp4	0.0	117.18619322776794	0.10000085830688477
13	92.82196998596191	fix_pre	0		119	11.0	2.5	/experiments/knapen_AOT/AOT_stimuli/rescaled_final/1075_rv.mp4	0.0	117.28619408607483	0.9918661117553711
13	93.81383609771729	movie	1		243	11.0	2.5	/experiments/knapen_AOT/AOT_stimuli/rescaled_final/1075_rv.mp4	0.0	118.2780601978302	2.500338077545166
13	94.197918176651	pulse	1	t		11.0	2.5	/experiments/knapen_AOT/AOT_stimuli/rescaled_final/1075_rv.mp4	0.0	118.66214227676392	
13	95.79754209518433	pulse	1	t		11.0	2.5	/experiments/knapen_AOT/AOT_stimuli/rescaled_final/1075_rv.mp4	0.0	120.26176619529724	
13	96.31417417526245	fix_post	2		12	11.0	2.5	/experiments/knapen_AOT/AOT_stimuli/rescaled_final/1075_rv.mp4	0.0	120.77839827537537	0.10000395774841309
14	96.41417813301086	fix_pre	0		119	12.0	2.5	blank	1.0	120.87840223312378	0.9918220043182373
14	97.39789605140686	pulse	0	t		12.0	2.5	blank	1.0	121.86212015151978	
14	97.4060001373291	movie	1		301	12.0	2.5	blank	1.0	121.87022423744202	2.5086889266967773
14	98.99806594848633	pulse	1	t		12.0	2.5	blank	1.0	123.46229004859924	
14	99.91468906402588	fix_post	2		12	12.0	2.5	blank	1.0	124.3789131641388	0.10002493858337402
15	100.01471400260925	fix_pre	0		120	13.0	2.5	/experiments/knapen_AOT/AOT_stimuli/rescaled_final/0890_rv.mp4	0.0	124.47893810272217	1.0001411437988281
15	100.59828400611877	pulse	0	t		13.0	2.5	/experiments/knapen_AOT/AOT_stimuli/rescaled_final/0890_rv.mp4	0.0	125.06250810623169	
15	101.01485514640808	movie	1		244	13.0	2.5	/experiments/knapen_AOT/AOT_stimuli/rescaled_final/0890_rv.mp4	0.0	125.479079246521	2.5003747940063477
15	102.19865894317627	pulse	1	t		13.0	2.5	/experiments/knapen_AOT/AOT_stimuli/rescaled_final/0890_rv.mp4	0.0	126.66288304328918	
15	103.51522994041443	fix_post	2		12	13.0	2.5	/experiments/knapen_AOT/AOT_stimuli/rescaled_final/0890_rv.mp4	0.0	127.97945404052734	0.09996819496154785
16	103.61519813537598	fix_pre	0		120	14.0	2.5	/experiments/knapen_AOT/AOT_stimuli/rescaled_final/1910_fw.mp4	0.0	128.0794222354889	1.0001599788665771
16	103.79882311820984	pulse	0	t		14.0	2.5	/experiments/knapen_AOT/AOT_stimuli/rescaled_final/1910_fw.mp4	0.0	128.26304721832275	
16	104.61535811424255	movie	1		245	14.0	2.5	/experiments/knapen_AOT/AOT_stimuli/rescaled_final/1910_fw.mp4	0.0	129.07958221435547	2.5004489421844482
16	105.39907813072205	pulse	1	t		14.0	2.5	/experiments/knapen_AOT/AOT_stimuli/rescaled_final/1910_fw.mp4	0.0	129.86330223083496	
16	106.99931406974792	pulse	1	t		14.0	2.5	/experiments/knapen_AOT/AOT_stimuli/rescaled_final/1910_fw.mp4	0.0	131.46353816986084	
16	107.115807056427	fix_post	2		12	14.0	2.5	/experiments/knapen_AOT/AOT_stimuli/rescaled_final/1910_fw.mp4	0.0	131.58003115653992	0.0999610424041748
17	107.21576809883118	fix_pre	0		120	15.0	2.5	/experiments/knapen_AOT/AOT_stimuli/rescaled_final/1464_rv.mp4	0.0	131.6799921989441	1.0001490116119385
17	108.21591711044312	movie	1		244	15.0	2.5	/experiments/knapen_AOT/AOT_stimuli/rescaled_final/1464_rv.mp4	0.0	132.68014121055603	2.4920759201049805
17	108.60011696815491	pulse	1	t		15.0	2.5	/experiments/knapen_AOT/AOT_stimuli/rescaled_final/1464_rv.mp4	0.0	133.06434106826782	
17	110.19974994659424	pulse	1	t		15.0	2.5	/experiments/knapen_AOT/AOT_stimuli/rescaled_final/1464_rv.mp4	0.0	134.66397404670715	
17	110.7079930305481	fix_post	2		12	15.0	2.5	/experiments/knapen_AOT/AOT_stimuli/rescaled_final/1464_rv.mp4	0.0	135.172217130661	0.09998011589050293
18	110.8079731464386	fix_pre	0		120	16.0	2.5	/experiments/knapen_AOT/AOT_stimuli/rescaled_final/0363_rv.mp4	0.0	135.2721972465515	1.0002129077911377
18	111.8000020980835	pulse	0	t		16.0	2.5	/experiments/knapen_AOT/AOT_stimuli/rescaled_final/0363_rv.mp4	0.0	136.2642261981964	
18	111.80818605422974	movie	1		246	16.0	2.5	/experiments/knapen_AOT/AOT_stimuli/rescaled_final/0363_rv.mp4	0.0	136.27241015434265	2.508711099624634
18	113.40089797973633	pulse	1	t		16.0	2.5	/experiments/knapen_AOT/AOT_stimuli/rescaled_final/0363_rv.mp4	0.0	137.86512207984924	
18	114.31689715385437	fix_post	2		12	16.0	2.5	/experiments/knapen_AOT/AOT_stimuli/rescaled_final/0363_rv.mp4	0.0	138.78112125396729	0.0999288558959961
19	114.41682600975037	fix_pre	0		120	17.0	2.5	/experiments/knapen_AOT/AOT_stimuli/rescaled_final/1800_rv.mp4	0.0	138.88105010986328	1.0002281665802002
19	115.00053906440735	pulse	0	t		17.0	2.5	/experiments/knapen_AOT/AOT_stimuli/rescaled_final/1800_rv.mp4	0.0	139.46476316452026	
19	115.41705417633057	movie	1		244	17.0	2.5	/experiments/knapen_AOT/AOT_stimuli/rescaled_final/1800_rv.mp4	0.0	139.88127827644348	2.5003578662872314
19	116.60090208053589	pulse	1	t		17.0	2.5	/experiments/knapen_AOT/AOT_stimuli/rescaled_final/1800_rv.mp4	0.0	141.0651261806488	
19	117.9174120426178	fix_post	2		12	17.0	2.5	/experiments/knapen_AOT/AOT_stimuli/rescaled_final/1800_rv.mp4	0.0	142.3816361427307	0.09995603561401367
20	118.01736807823181	fix_pre	0		120	18.0	2.5	/experiments/knapen_AOT/AOT_stimuli/rescaled_final/2055_rv.mp4	0.0	142.48159217834473	1.0001769065856934
20	118.20097494125366	pulse	0	t		18.0	2.5	/experiments/knapen_AOT/AOT_stimuli/rescaled_final/2055_rv.mp4	0.0	142.66519904136658	
20	119.0175449848175	movie	1		244	18.0	2.5	/experiments/knapen_AOT/AOT_stimuli/rescaled_final/2055_rv.mp4	0.0	143.48176908493042	2.500391960144043
20	119.80131006240845	pulse	1	t		18.0	2.5	/experiments/knapen_AOT/AOT_stimuli/rescaled_final/2055_rv.mp4	0.0	144.26553416252136	
20	121.40168309211731	pulse	1	t		18.0	2.5	/experiments/knapen_AOT/AOT_stimuli/rescaled_final/2055_rv.mp4	0.0	145.86590719223022	
20	121.51793694496155	fix_post	2		12	18.0	2.5	/experiments/knapen_AOT/AOT_stimuli/rescaled_final/2055_rv.mp4	0.0	145.98216104507446	0.10001015663146973
21	121.61794710159302	fix_pre	0		120	19.0	2.5	blank	1.0	146.08217120170593	1.0000948905944824
21	122.6180419921875	movie	1		299	19.0	2.5	blank	1.0	147.08226609230042	2.4920711517333984
21	123.00176000595093	pulse	1	t		19.0	2.5	blank	1.0	147.46598410606384	
21	124.60198998451233	pulse	1	t		19.0	2.5	blank	1.0	149.06621408462524	
21	125.1101131439209	fix_post	2		12	19.0	2.5	blank	1.0	149.5743372440338	0.10003185272216797
22	125.21014499664307	fix_pre	0		120	20.0	2.5	/experiments/knapen_AOT/AOT_stimuli/rescaled_final/2170_rv.mp4	0.0	149.67436909675598	1.0001301765441895
22	126.20222210884094	pulse	0	t		20.0	2.5	/experiments/knapen_AOT/AOT_stimuli/rescaled_final/2170_rv.mp4	0.0	150.66644620895386	
22	126.21027517318726	movie	1		245	20.0	2.5	/experiments/knapen_AOT/AOT_stimuli/rescaled_final/2170_rv.mp4	0.0	150.67449927330017	2.5086679458618164
22	127.8037121295929	pulse	1	t		20.0	2.5	/experiments/knapen_AOT/AOT_stimuli/rescaled_final/2170_rv.mp4	0.0	152.2679362297058	
22	128.71894311904907	fix_post	2		12	20.0	2.5	/experiments/knapen_AOT/AOT_stimuli/rescaled_final/2170_rv.mp4	0.0	153.183167219162	0.10005593299865723
23	128.81899905204773	fix_pre	0		120	21.0	2.5	/experiments/knapen_AOT/AOT_stimuli/rescaled_final/0112_fw.mp4	0.0	153.28322315216064	1.000128984451294
23	129.40268802642822	pulse	0	t		21.0	2.5	/experiments/knapen_AOT/AOT_stimuli/rescaled_final/0112_fw.mp4	0.0	153.86691212654114	
23	129.81912803649902	movie	1		244	21.0	2.5	/experiments/knapen_AOT/AOT_stimuli/rescaled_final/0112_fw.mp4	0.0	154.28335213661194	2.5004160404205322
23	130.999125957489	pulse	1	t		21.0	2.5	/experiments/knapen_AOT/AOT_stimuli/rescaled_final/0112_fw.mp4	0.0	155.46335005760193	
23	132.31954407691956	fix_post	2		12	21.0	2.5	/experiments/knapen_AOT/AOT_stimuli/rescaled_final/0112_fw.mp4	0.0	156.78376817703247	0.1000370979309082
24	132.41958117485046	fix_pre	0		120	22.0	2.5	/experiments/knapen_AOT/AOT_stimuli/rescaled_final/0962_rv.mp4	0.0	156.88380527496338	1.000107765197754
24	132.60319900512695	pulse	0	t		22.0	2.5	/experiments/knapen_AOT/AOT_stimuli/rescaled_final/0962_rv.mp4	0.0	157.06742310523987	
24	133.41968894004822	movie	1		246	22.0	2.5	/experiments/knapen_AOT/AOT_stimuli/rescaled_final/0962_rv.mp4	0.0	157.88391304016113	2.5004220008850098
24	134.20353507995605	pulse	1	t		22.0	2.5	/experiments/knapen_AOT/AOT_stimuli/rescaled_final/0962_rv.mp4	0.0	158.66775918006897	
24	135.8036069869995	pulse	1	t		22.0	2.5	/experiments/knapen_AOT/AOT_stimuli/rescaled_final/0962_rv.mp4	0.0	160.26783108711243	
24	135.92011094093323	fix_post	2		12	22.0	2.5	/experiments/knapen_AOT/AOT_stimuli/rescaled_final/0962_rv.mp4	0.0	160.38433504104614	0.09997105598449707
25	136.02008199691772	fix_pre	0		120	23.0	2.5	/experiments/knapen_AOT/AOT_stimuli/rescaled_final/1466_fw.mp4	0.0	160.48430609703064	1.0001490116119385
25	137.02023100852966	movie	1		242	23.0	2.5	/experiments/knapen_AOT/AOT_stimuli/rescaled_final/1466_fw.mp4	0.0	161.48445510864258	2.4920589923858643
25	137.40428805351257	pulse	1	t		23.0	2.5	/experiments/knapen_AOT/AOT_stimuli/rescaled_final/1466_fw.mp4	0.0	161.8685121536255	
25	139.0041480064392	pulse	1	t		23.0	2.5	/experiments/knapen_AOT/AOT_stimuli/rescaled_final/1466_fw.mp4	0.0	163.46837210655212	
25	139.51229000091553	fix_post	2		12	23.0	2.5	/experiments/knapen_AOT/AOT_stimuli/rescaled_final/1466_fw.mp4	0.0	163.97651410102844	0.0999600887298584
26	139.61225008964539	fix_pre	0		120	24.0	2.5	/experiments/knapen_AOT/AOT_stimuli/rescaled_final/0998_rv.mp4	0.0	164.0764741897583	1.0002179145812988
26	140.60431814193726	pulse	0	t		24.0	2.5	/experiments/knapen_AOT/AOT_stimuli/rescaled_final/0998_rv.mp4	0.0	165.06854224205017	
26	140.61246800422668	movie	1		246	24.0	2.5	/experiments/knapen_AOT/AOT_stimuli/rescaled_final/0998_rv.mp4	0.0	165.0766921043396	2.5086891651153564
26	142.2052640914917	pulse	1	t		24.0	2.5	/experiments/knapen_AOT/AOT_stimuli/rescaled_final/0998_rv.mp4	0.0	166.66948819160461	
26	143.12115716934204	fix_post	2		12	24.0	2.5	/experiments/knapen_AOT/AOT_stimuli/rescaled_final/0998_rv.mp4	0.0	167.58538126945496	0.09999299049377441
27	143.22115015983582	fix_pre	0		120	25.0	2.5	/experiments/knapen_AOT/AOT_stimuli/rescaled_final/0202_rv.mp4	0.0	167.68537425994873	1.0001130104064941
27	143.80475997924805	pulse	0	t		25.0	2.5	/experiments/knapen_AOT/AOT_stimuli/rescaled_final/0202_rv.mp4	0.0	168.26898407936096	
27	144.2212631702423	movie	1		244	25.0	2.5	/experiments/knapen_AOT/AOT_stimuli/rescaled_final/0202_rv.mp4	0.0	168.68548727035522	2.5004429817199707
27	145.4051079750061	pulse	1	t		25.0	2.5	/experiments/knapen_AOT/AOT_stimuli/rescaled_final/0202_rv.mp4	0.0	169.86933207511902	
27	146.72170615196228	fix_post	2		12	25.0	2.5	/experiments/knapen_AOT/AOT_stimuli/rescaled_final/0202_rv.mp4	0.0	171.1859302520752	0.09999585151672363
28	146.821702003479	fix_pre	0		120	26.0	2.5	/experiments/knapen_AOT/AOT_stimuli/rescaled_final/1970_fw.mp4	0.0	171.28592610359192	1.000148057937622
28	147.00524306297302	pulse	0	t		26.0	2.5	/experiments/knapen_AOT/AOT_stimuli/rescaled_final/1970_fw.mp4	0.0	171.46946716308594	
28	147.82185006141663	movie	1		244	26.0	2.5	/experiments/knapen_AOT/AOT_stimuli/rescaled_final/1970_fw.mp4	0.0	172.28607416152954	2.5003409385681152
28	148.59816217422485	pulse	1	t		26.0	2.5	/experiments/knapen_AOT/AOT_stimuli/rescaled_final/1970_fw.mp4	0.0	173.06238627433777	
28	150.20335412025452	pulse	1	t		26.0	2.5	/experiments/knapen_AOT/AOT_stimuli/rescaled_final/1970_fw.mp4	0.0	174.66757822036743	
28	150.32219099998474	fix_post	2		9	26.0	2.5	/experiments/knapen_AOT/AOT_stimuli/rescaled_final/1970_fw.mp4	0.0	174.78641510009766	0.10005402565002441
29	150.42224502563477	fix_pre	0		120	27.0	2.5	/experiments/knapen_AOT/AOT_stimuli/rescaled_final/1334_rv.mp4	0.0	174.88646912574768	1.000136137008667
29	151.42238116264343	movie	1		242	27.0	2.5	/experiments/knapen_AOT/AOT_stimuli/rescaled_final/1334_rv.mp4	0.0	175.88660526275635	2.4920718669891357
29	151.80650997161865	pulse	1	t		27.0	2.5	/experiments/knapen_AOT/AOT_stimuli/rescaled_final/1334_rv.mp4	0.0	176.27073407173157	
29	153.39881014823914	pulse	1	t		27.0	2.5	/experiments/knapen_AOT/AOT_stimuli/rescaled_final/1334_rv.mp4	0.0	177.86303424835205	
29	153.91445302963257	fix_post	2		12	27.0	2.5	/experiments/knapen_AOT/AOT_stimuli/rescaled_final/1334_rv.mp4	0.0	178.37867712974548	0.09998011589050293
30	154.01443314552307	fix_pre	0		119	28.0	2.5	blank	1.0	178.478657245636	0.9918138980865479
30	154.99814701080322	pulse	0	t		28.0	2.5	blank	1.0	179.46237111091614	
30	155.00624704360962	movie	1		301	28.0	2.5	blank	1.0	179.47047114372253	2.5087289810180664
30	156.59830117225647	pulse	1	t		28.0	2.5	blank	1.0	181.06252527236938	
30	157.51497602462769	fix_post	2		12	28.0	2.5	blank	1.0	181.9792001247406	0.09995913505554199
31	157.61493515968323	fix_pre	0		120	29.0	2.5	/experiments/knapen_AOT/AOT_stimuli/rescaled_final/1001_fw.mp4	0.0	182.07915925979614	1.0001628398895264
31	158.19860410690308	pulse	0	t		29.0	2.5	/experiments/knapen_AOT/AOT_stimuli/rescaled_final/1001_fw.mp4	0.0	182.662828207016	
31	158.61509799957275	movie	1		244	29.0	2.5	/experiments/knapen_AOT/AOT_stimuli/rescaled_final/1001_fw.mp4	0.0	183.07932209968567	2.500430107116699
31	159.79891204833984	pulse	1	t		29.0	2.5	/experiments/knapen_AOT/AOT_stimuli/rescaled_final/1001_fw.mp4	0.0	184.26313614845276	
31	161.11552810668945	fix_post	2		12	29.0	2.5	/experiments/knapen_AOT/AOT_stimuli/rescaled_final/1001_fw.mp4	0.0	185.57975220680237	0.09993600845336914
32	161.21546411514282	fix_pre	0		120	30.0	2.5	/experiments/knapen_AOT/AOT_stimuli/rescaled_final/0065_fw.mp4	0.0	185.67968821525574	1.0002248287200928
32	161.39906811714172	pulse	0	t		30.0	2.5	/experiments/knapen_AOT/AOT_stimuli/rescaled_final/0065_fw.mp4	0.0	185.86329221725464	
32	162.21568894386292	movie	1		244	30.0	2.5	/experiments/knapen_AOT/AOT_stimuli/rescaled_final/0065_fw.mp4	0.0	186.67991304397583	2.5003621578216553
32	162.9992561340332	pulse	1	t		30.0	2.5	/experiments/knapen_AOT/AOT_stimuli/rescaled_final/0065_fw.mp4	0.0	187.46348023414612	
32	164.59961104393005	pulse	1	t		30.0	2.5	/experiments/knapen_AOT/AOT_stimuli/rescaled_final/0065_fw.mp4	0.0	189.06383514404297	
32	164.71605110168457	fix_post	2		12	30.0	2.5	/experiments/knapen_AOT/AOT_stimuli/rescaled_final/0065_fw.mp4	0.0	189.18027520179749	0.09997200965881348
33	164.81602311134338	fix_pre	0		120	31.0	2.5	/experiments/knapen_AOT/AOT_stimuli/rescaled_final/0700_fw.mp4	0.0	189.2802472114563	1.0001728534698486
33	165.81619596481323	movie	1		243	31.0	2.5	/experiments/knapen_AOT/AOT_stimuli/rescaled_final/0700_fw.mp4	0.0	190.28042006492615	2.4919841289520264
33	166.2004041671753	pulse	1	t		31.0	2.5	/experiments/knapen_AOT/AOT_stimuli/rescaled_final/0700_fw.mp4	0.0	190.6646282672882	
33	167.80004501342773	pulse	1	t		31.0	2.5	/experiments/knapen_AOT/AOT_stimuli/rescaled_final/0700_fw.mp4	0.0	192.26426911354065	
33	168.30818009376526	fix_post	2		12	31.0	2.5	/experiments/knapen_AOT/AOT_stimuli/rescaled_final/0700_fw.mp4	0.0	192.77240419387817	0.10004806518554688
34	168.4082281589508	fix_pre	0		120	32.0	2.5	/experiments/knapen_AOT/AOT_stimuli/rescaled_final/1733_rv.mp4	0.0	192.87245225906372	1.0001659393310547
34	169.40026712417603	pulse	0	t		32.0	2.5	/experiments/knapen_AOT/AOT_stimuli/rescaled_final/1733_rv.mp4	0.0	193.86449122428894	
34	169.40839409828186	movie	1		244	32.0	2.5	/experiments/knapen_AOT/AOT_stimuli/rescaled_final/1733_rv.mp4	0.0	193.87261819839478	2.5087358951568604
34	171.00089502334595	pulse	1	t		32.0	2.5	/experiments/knapen_AOT/AOT_stimuli/rescaled_final/1733_rv.mp4	0.0	195.46511912345886	
34	171.91712999343872	fix_post	2		12	32.0	2.5	/experiments/knapen_AOT/AOT_stimuli/rescaled_final/1733_rv.mp4	0.0	196.38135409355164	0.09995818138122559
35	172.01708817481995	fix_pre	0		120	33.0	2.5	/experiments/knapen_AOT/AOT_stimuli/rescaled_final/0225_rv.mp4	0.0	196.48131227493286	1.000154972076416
35	172.60071897506714	pulse	0	t		33.0	2.5	/experiments/knapen_AOT/AOT_stimuli/rescaled_final/0225_rv.mp4	0.0	197.06494307518005	
35	173.01724314689636	movie	1		243	33.0	2.5	/experiments/knapen_AOT/AOT_stimuli/rescaled_final/0225_rv.mp4	0.0	197.48146724700928	2.5004208087921143
35	174.20109915733337	pulse	1	t		33.0	2.5	/experiments/knapen_AOT/AOT_stimuli/rescaled_final/0225_rv.mp4	0.0	198.6653232574463	
35	175.51766395568848	fix_post	2		12	33.0	2.5	/experiments/knapen_AOT/AOT_stimuli/rescaled_final/0225_rv.mp4	0.0	199.9818880558014	0.0999910831451416
36	175.61765503883362	fix_pre	0		120	34.0	2.5	blank	1.0	200.08187913894653	1.0001640319824219
36	175.80121517181396	pulse	0	t		34.0	2.5	blank	1.0	200.26543927192688	
36	176.61781907081604	movie	1		300	34.0	2.5	blank	1.0	201.08204317092896	2.5003628730773926
36	177.40143203735352	pulse	1	t		34.0	2.5	blank	1.0	201.86565613746643	
36	179.00169396400452	pulse	1	t		34.0	2.5	blank	1.0	203.46591806411743	
36	179.11818194389343	fix_post	2		12	34.0	2.5	blank	1.0	203.58240604400635	0.0999910831451416
37	179.21817302703857	fix_pre	0		120	35.0	2.5	/experiments/knapen_AOT/AOT_stimuli/rescaled_final/1840_fw.mp4	0.0	203.6823971271515	1.000244140625
37	180.21841716766357	movie	1		242	35.0	2.5	/experiments/knapen_AOT/AOT_stimuli/rescaled_final/1840_fw.mp4	0.0	204.6826412677765	2.491989850997925
37	180.60331106185913	pulse	1	t		35.0	2.5	/experiments/knapen_AOT/AOT_stimuli/rescaled_final/1840_fw.mp4	0.0	205.06753516197205	
37	182.20215606689453	pulse	1	t		35.0	2.5	/experiments/knapen_AOT/AOT_stimuli/rescaled_final/1840_fw.mp4	0.0	206.66638016700745	
37	182.7104070186615	fix_post	2		12	35.0	2.5	/experiments/knapen_AOT/AOT_stimuli/rescaled_final/1840_fw.mp4	0.0	207.1746311187744	0.09998393058776855
38	182.81039094924927	fix_pre	0		120	36.0	2.5	/experiments/knapen_AOT/AOT_stimuli/rescaled_final/0287_fw.mp4	0.0	207.27461504936218	1.000176191329956
38	183.8023660182953	pulse	0	t		36.0	2.5	/experiments/knapen_AOT/AOT_stimuli/rescaled_final/0287_fw.mp4	0.0	208.2665901184082	
38	183.81056714057922	movie	1		244	36.0	2.5	/experiments/knapen_AOT/AOT_stimuli/rescaled_final/0287_fw.mp4	0.0	208.27479124069214	2.508711814880371
38	185.40299201011658	pulse	1	t		36.0	2.5	/experiments/knapen_AOT/AOT_stimuli/rescaled_final/0287_fw.mp4	0.0	209.8672161102295	
38	186.3192789554596	fix_post	2		12	36.0	2.5	/experiments/knapen_AOT/AOT_stimuli/rescaled_final/0287_fw.mp4	0.0	210.7835030555725	0.09996914863586426
39	186.41924810409546	fix_pre	0		120	37.0	2.5	/experiments/knapen_AOT/AOT_stimuli/rescaled_final/0974_rv.mp4	0.0	210.88347220420837	1.0001580715179443
39	187.0028841495514	pulse	0	t		37.0	2.5	/experiments/knapen_AOT/AOT_stimuli/rescaled_final/0974_rv.mp4	0.0	211.4671082496643	
39	187.4194061756134	movie	1		243	37.0	2.5	/experiments/knapen_AOT/AOT_stimuli/rescaled_final/0974_rv.mp4	0.0	211.88363027572632	2.5004048347473145
39	188.6032691001892	pulse	1	t		37.0	2.5	/experiments/knapen_AOT/AOT_stimuli/rescaled_final/0974_rv.mp4	0.0	213.06749320030212	
39	189.91981101036072	fix_post	2		12	37.0	2.5	/experiments/knapen_AOT/AOT_stimuli/rescaled_final/0974_rv.mp4	0.0	214.38403511047363	0.09998798370361328
40	190.01979899406433	fix_pre	0		120	38.0	2.5	/experiments/knapen_AOT/AOT_stimuli/rescaled_final/0516_rv.mp4	0.0	214.48402309417725	1.000169038772583
40	190.20328307151794	pulse	0	t		38.0	2.5	/experiments/knapen_AOT/AOT_stimuli/rescaled_final/0516_rv.mp4	0.0	214.66750717163086	
40	191.0199680328369	movie	1		244	38.0	2.5	/experiments/knapen_AOT/AOT_stimuli/rescaled_final/0516_rv.mp4	0.0	215.48419213294983	2.500368118286133
40	191.8036811351776	pulse	1	t		38.0	2.5	/experiments/knapen_AOT/AOT_stimuli/rescaled_final/0516_rv.mp4	0.0	216.26790523529053	
40	193.4039340019226	pulse	1	t		38.0	2.5	/experiments/knapen_AOT/AOT_stimuli/rescaled_final/0516_rv.mp4	0.0	217.86815810203552	
40	193.52033615112305	fix_post	2		12	38.0	2.5	/experiments/knapen_AOT/AOT_stimuli/rescaled_final/0516_rv.mp4	0.0	217.98456025123596	0.10004591941833496
41	193.62038207054138	fix_pre	0		119	39.0	2.5	/experiments/knapen_AOT/AOT_stimuli/rescaled_final/2017_rv.mp4	0.0	218.0846061706543	0.9917469024658203
41	194.6121289730072	movie	1		245	39.0	2.5	/experiments/knapen_AOT/AOT_stimuli/rescaled_final/2017_rv.mp4	0.0	219.07635307312012	2.5003650188446045
41	195.0041151046753	pulse	1	t		39.0	2.5	/experiments/knapen_AOT/AOT_stimuli/rescaled_final/2017_rv.mp4	0.0	219.4683392047882	
41	196.60428595542908	pulse	1	t		39.0	2.5	/experiments/knapen_AOT/AOT_stimuli/rescaled_final/2017_rv.mp4	0.0	221.068510055542	
41	197.1124939918518	fix_post	2		12	39.0	2.5	/experiments/knapen_AOT/AOT_stimuli/rescaled_final/2017_rv.mp4	0.0	221.57671809196472	0.1000220775604248
42	197.21251606941223	fix_pre	0		120	40.0	2.5	blank	1.0	221.67674016952515	1.000195026397705
42	198.204607963562	pulse	0	t		40.0	2.5	blank	1.0	222.66883206367493	
42	198.21271109580994	movie	1		301	40.0	2.5	blank	1.0	222.67693519592285	2.50871205329895
42	199.8048141002655	pulse	1	t		40.0	2.5	blank	1.0	224.26903820037842	
42	200.7214231491089	fix_post	2		12	40.0	2.5	blank	1.0	225.1856472492218	0.1000359058380127
43	200.8214590549469	fix_pre	0		120	41.0	2.5	/experiments/knapen_AOT/AOT_stimuli/rescaled_final/1787_fw.mp4	0.0	225.28568315505981	1.0001039505004883
43	201.3975419998169	pulse	0	t		41.0	2.5	/experiments/knapen_AOT/AOT_stimuli/rescaled_final/1787_fw.mp4	0.0	225.8617660999298	
43	201.8215630054474	movie	1		243	41.0	2.5	/experiments/knapen_AOT/AOT_stimuli/rescaled_final/1787_fw.mp4	0.0	226.2857871055603	2.500404119491577
43	203.00531601905823	pulse	1	t		41.0	2.5	/experiments/knapen_AOT/AOT_stimuli/rescaled_final/1787_fw.mp4	0.0	227.46954011917114	
43	204.32196712493896	fix_post	2		12	41.0	2.5	/experiments/knapen_AOT/AOT_stimuli/rescaled_final/1787_fw.mp4	0.0	228.78619122505188	0.0999598503112793
44	204.42192697525024	fix_pre	0		120	42.0	2.5	/experiments/knapen_AOT/AOT_stimuli/rescaled_final/0397_rv.mp4	0.0	228.88615107536316	1.0001749992370605
44	204.59800004959106	pulse	0	t		42.0	2.5	/experiments/knapen_AOT/AOT_stimuli/rescaled_final/0397_rv.mp4	0.0	229.06222414970398	
44	205.4221019744873	movie	1		241	42.0	2.5	/experiments/knapen_AOT/AOT_stimuli/rescaled_final/0397_rv.mp4	0.0	229.88632607460022	2.500378131866455
44	206.19821095466614	pulse	1	t		42.0	2.5	/experiments/knapen_AOT/AOT_stimuli/rescaled_final/0397_rv.mp4	0.0	230.66243505477905	
44	207.79782104492188	pulse	1	t		42.0	2.5	/experiments/knapen_AOT/AOT_stimuli/rescaled_final/0397_rv.mp4	0.0	232.2620451450348	
44	207.92248010635376	fix_post	2		12	42.0	2.5	/experiments/knapen_AOT/AOT_stimuli/rescaled_final/0397_rv.mp4	0.0	232.38670420646667	0.0999908447265625
45	208.02247095108032	fix_pre	0		120	43.0	2.5	/experiments/knapen_AOT/AOT_stimuli/rescaled_final/1938_fw.mp4	0.0	232.48669505119324	1.0001420974731445
45	209.02261304855347	movie	1		243	43.0	2.5	/experiments/knapen_AOT/AOT_stimuli/rescaled_final/1938_fw.mp4	0.0	233.48683714866638	2.492074966430664
45	209.39780616760254	pulse	1	t		43.0	2.5	/experiments/knapen_AOT/AOT_stimuli/rescaled_final/1938_fw.mp4	0.0	233.86203026771545	
45	210.99810099601746	pulse	1	t		43.0	2.5	/experiments/knapen_AOT/AOT_stimuli/rescaled_final/1938_fw.mp4	0.0	235.46232509613037	
45	211.51468801498413	fix_post	2		12	43.0	2.5	/experiments/knapen_AOT/AOT_stimuli/rescaled_final/1938_fw.mp4	0.0	235.97891211509705	0.10001897811889648
46	211.61470699310303	fix_pre	0		119	44.0	2.5	/experiments/knapen_AOT/AOT_stimuli/rescaled_final/0514_fw.mp4	0.0	236.07893109321594	0.9918200969696045
46	212.59840607643127	pulse	0	t		44.0	2.5	/experiments/knapen_AOT/AOT_stimuli/rescaled_final/0514_fw.mp4	0.0	237.0626301765442	
46	212.60652709007263	movie	1		245	44.0	2.5	/experiments/knapen_AOT/AOT_stimuli/rescaled_final/0514_fw.mp4	0.0	237.07075119018555	2.508650064468384
46	214.19930815696716	pulse	1	t		44.0	2.5	/experiments/knapen_AOT/AOT_stimuli/rescaled_final/0514_fw.mp4	0.0	238.66353225708008	
46	215.11517715454102	fix_post	2		12	44.0	2.5	/experiments/knapen_AOT/AOT_stimuli/rescaled_final/0514_fw.mp4	0.0	239.57940125465393	0.10007190704345703
47	215.21524906158447	fix_pre	0		120	45.0	2.5	/experiments/knapen_AOT/AOT_stimuli/rescaled_final/1817_fw.mp4	0.0	239.6794731616974	1.0000979900360107
47	215.79888105392456	pulse	0	t		45.0	2.5	/experiments/knapen_AOT/AOT_stimuli/rescaled_final/1817_fw.mp4	0.0	240.26310515403748	
47	216.21534705162048	movie	1		245	45.0	2.5	/experiments/knapen_AOT/AOT_stimuli/rescaled_final/1817_fw.mp4	0.0	240.6795711517334	2.5004279613494873
47	217.39916706085205	pulse	1	t		45.0	2.5	/experiments/knapen_AOT/AOT_stimuli/rescaled_final/1817_fw.mp4	0.0	241.86339116096497	
47	218.71577501296997	fix_post	2		12	45.0	2.5	/experiments/knapen_AOT/AOT_stimuli/rescaled_final/1817_fw.mp4	0.0	243.17999911308289	0.09999895095825195
48	218.81577396392822	fix_pre	0		120	46.0	2.5	/experiments/knapen_AOT/AOT_stimuli/rescaled_final/0520_rv.mp4	0.0	243.27999806404114	1.0001561641693115
48	218.9992959499359	pulse	0	t		46.0	2.5	/experiments/knapen_AOT/AOT_stimuli/rescaled_final/0520_rv.mp4	0.0	243.46352005004883	
48	219.81593012809753	movie	1		244	46.0	2.5	/experiments/knapen_AOT/AOT_stimuli/rescaled_final/0520_rv.mp4	0.0	244.28015422821045	2.500361919403076
48	220.59963297843933	pulse	1	t		46.0	2.5	/experiments/knapen_AOT/AOT_stimuli/rescaled_final/0520_rv.mp4	0.0	245.06385707855225	
48	222.1995930671692	pulse	1	t		46.0	2.5	/experiments/knapen_AOT/AOT_stimuli/rescaled_final/0520_rv.mp4	0.0	246.6638171672821	
48	222.3162920475006	fix_post	2		12	46.0	2.5	/experiments/knapen_AOT/AOT_stimuli/rescaled_final/0520_rv.mp4	0.0	246.78051614761353	0.100006103515625
49	222.41629815101624	fix_pre	0		120	47.0	2.5	/experiments/knapen_AOT/AOT_stimuli/rescaled_final/1938_fw.mp4	0.0	246.88052225112915	1.0001499652862549
49	223.4164481163025	movie	1		243	47.0	2.5	/experiments/knapen_AOT/AOT_stimuli/rescaled_final/1938_fw.mp4	0.0	247.8806722164154	2.4920969009399414
49	223.80446600914001	pulse	1	t		47.0	2.5	/experiments/knapen_AOT/AOT_stimuli/rescaled_final/1938_fw.mp4	0.0	248.26869010925293	
49	225.4002170562744	pulse	1	t		47.0	2.5	/experiments/knapen_AOT/AOT_stimuli/rescaled_final/1938_fw.mp4	0.0	249.86444115638733	
49	225.90854501724243	fix_post	2		12	47.0	2.5	/experiments/knapen_AOT/AOT_stimuli/rescaled_final/1938_fw.mp4	0.0	250.37276911735535	0.09995007514953613
50	226.00849509239197	fix_pre	0		120	48.0	2.5	/experiments/knapen_AOT/AOT_stimuli/rescaled_final/0789_rv.mp4	0.0	250.47271919250488	1.0001699924468994
50	227.00041913986206	pulse	0	t		48.0	2.5	/experiments/knapen_AOT/AOT_stimuli/rescaled_final/0789_rv.mp4	0.0	251.46464323997498	
50	227.00866508483887	movie	1		245	48.0	2.5	/experiments/knapen_AOT/AOT_stimuli/rescaled_final/0789_rv.mp4	0.0	251.47288918495178	2.508704900741577
50	228.60123705863953	pulse	1	t		48.0	2.5	/experiments/knapen_AOT/AOT_stimuli/rescaled_final/0789_rv.mp4	0.0	253.06546115875244	
50	229.51736998558044	fix_post	2		12	48.0	2.5	/experiments/knapen_AOT/AOT_stimuli/rescaled_final/0789_rv.mp4	0.0	253.98159408569336	0.09998202323913574
51	229.61735200881958	fix_pre	0		120	49.0	2.5	blank	1.0	254.0815761089325	1.0002131462097168
51	230.20097303390503	pulse	0	t		49.0	2.5	blank	1.0	254.66519713401794	
51	230.6175651550293	movie	1		300	49.0	2.5	blank	1.0	255.0817892551422	2.5003669261932373
51	231.80125904083252	pulse	1	t		49.0	2.5	blank	1.0	256.26548314094543	
51	233.11793208122253	fix_post	2		12	49.0	2.5	blank	1.0	257.58215618133545	0.09998393058776855
52	233.2179160118103	fix_pre	0		120	50.0	2.5	/experiments/knapen_AOT/AOT_stimuli/rescaled_final/2172_rv.mp4	0.0	257.6821401119232	1.0001349449157715
52	233.40146613121033	pulse	0	t		50.0	2.5	/experiments/knapen_AOT/AOT_stimuli/rescaled_final/2172_rv.mp4	0.0	257.86569023132324	
52	234.21805095672607	movie	1		245	50.0	2.5	/experiments/knapen_AOT/AOT_stimuli/rescaled_final/2172_rv.mp4	0.0	258.682275056839	2.5003650188446045
52	235.00170516967773	pulse	1	t		50.0	2.5	/experiments/knapen_AOT/AOT_stimuli/rescaled_final/2172_rv.mp4	0.0	259.46592926979065	
52	236.59953498840332	pulse	1	t		50.0	2.5	/experiments/knapen_AOT/AOT_stimuli/rescaled_final/2172_rv.mp4	0.0	261.06375908851624	
52	236.71841597557068	fix_post	2		12	50.0	2.5	/experiments/knapen_AOT/AOT_stimuli/rescaled_final/2172_rv.mp4	0.0	261.1826400756836	0.10003113746643066
53	236.8184471130371	fix_pre	0		119	51.0	2.5	/experiments/knapen_AOT/AOT_stimuli/rescaled_final/1280_rv.mp4	0.0	261.28267121315	0.9917769432067871
53	237.8102240562439	movie	1		244	51.0	2.5	/experiments/knapen_AOT/AOT_stimuli/rescaled_final/1280_rv.mp4	0.0	262.2744481563568	2.500433921813965
53	238.20225596427917	pulse	1	t		51.0	2.5	/experiments/knapen_AOT/AOT_stimuli/rescaled_final/1280_rv.mp4	0.0	262.6664800643921	
53	239.80242705345154	pulse	1	t		51.0	2.5	/experiments/knapen_AOT/AOT_stimuli/rescaled_final/1280_rv.mp4	0.0	264.26665115356445	
53	240.31065797805786	fix_post	2		12	51.0	2.5	/experiments/knapen_AOT/AOT_stimuli/rescaled_final/1280_rv.mp4	0.0	264.7748820781708	0.09996414184570312
54	240.41062211990356	fix_pre	0		120	52.0	2.5	/experiments/knapen_AOT/AOT_stimuli/rescaled_final/1588_rv.mp4	0.0	264.8748462200165	1.0002288818359375
54	241.4026379585266	pulse	0	t		52.0	2.5	/experiments/knapen_AOT/AOT_stimuli/rescaled_final/1588_rv.mp4	0.0	265.8668620586395	
54	241.4108510017395	movie	1		246	52.0	2.5	/experiments/knapen_AOT/AOT_stimuli/rescaled_final/1588_rv.mp4	0.0	265.8750751018524	2.5086660385131836
54	243.00346112251282	pulse	1	t		52.0	2.5	/experiments/knapen_AOT/AOT_stimuli/rescaled_final/1588_rv.mp4	0.0	267.46768522262573	
54	243.91951704025269	fix_post	2		12	52.0	2.5	/experiments/knapen_AOT/AOT_stimuli/rescaled_final/1588_rv.mp4	0.0	268.3837411403656	0.09997010231018066
55	244.01948714256287	fix_pre	0		120	53.0	2.5	/experiments/knapen_AOT/AOT_stimuli/rescaled_final/0242_rv.mp4	0.0	268.4837112426758	1.0001919269561768
55	244.60323214530945	pulse	0	t		53.0	2.5	/experiments/knapen_AOT/AOT_stimuli/rescaled_final/0242_rv.mp4	0.0	269.06745624542236	
55	245.01967906951904	movie	1		244	53.0	2.5	/experiments/knapen_AOT/AOT_stimuli/rescaled_final/0242_rv.mp4	0.0	269.48390316963196	2.5003409385681152
55	246.20348811149597	pulse	1	t		53.0	2.5	/experiments/knapen_AOT/AOT_stimuli/rescaled_final/0242_rv.mp4	0.0	270.6677122116089	
55	247.52002000808716	fix_post	2		12	53.0	2.5	/experiments/knapen_AOT/AOT_stimuli/rescaled_final/0242_rv.mp4	0.0	271.9842441082001	0.10001993179321289
56	247.62003993988037	fix_pre	0		120	54.0	2.5	/experiments/knapen_AOT/AOT_stimuli/rescaled_final/0938_fw.mp4	0.0	272.0842640399933	1.0001370906829834
56	247.80353903770447	pulse	0	t		54.0	2.5	/experiments/knapen_AOT/AOT_stimuli/rescaled_final/0938_fw.mp4	0.0	272.2677631378174	
56	248.62017703056335	movie	1		243	54.0	2.5	/experiments/knapen_AOT/AOT_stimuli/rescaled_final/0938_fw.mp4	0.0	273.08440113067627	2.500415086746216
56	249.40380597114563	pulse	1	t		54.0	2.5	/experiments/knapen_AOT/AOT_stimuli/rescaled_final/0938_fw.mp4	0.0	273.86803007125854	
56	251.0039610862732	pulse	1	t		54.0	2.5	/experiments/knapen_AOT/AOT_stimuli/rescaled_final/0938_fw.mp4	0.0	275.4681851863861	
56	251.12059211730957	fix_post	2		12	54.0	2.5	/experiments/knapen_AOT/AOT_stimuli/rescaled_final/0938_fw.mp4	0.0	275.5848162174225	0.1000070571899414
57	251.2205991744995	fix_pre	0		120	55.0	2.5	blank	1.0	275.6848232746124	1.0001559257507324
57	252.22075510025024	movie	1		299	55.0	2.5	blank	1.0	276.68497920036316	2.4920248985290527
57	252.604257106781	pulse	1	t		55.0	2.5	blank	1.0	277.0684812068939	
57	254.1970021724701	pulse	1	t		55.0	2.5	blank	1.0	278.661226272583	
57	254.7127799987793	fix_post	2		12	55.0	2.5	blank	1.0	279.1770040988922	0.1000211238861084
58	254.8128011226654	fix_pre	0		120	56.0	2.5	/experiments/knapen_AOT/AOT_stimuli/rescaled_final/1752_fw.mp4	0.0	279.2770252227783	1.0001718997955322
58	255.7972309589386	pulse	0	t		56.0	2.5	/experiments/knapen_AOT/AOT_stimuli/rescaled_final/1752_fw.mp4	0.0	280.2614550590515	
58	255.81297302246094	movie	1		245	56.0	2.5	/experiments/knapen_AOT/AOT_stimuli/rescaled_final/1752_fw.mp4	0.0	280.27719712257385	2.5087151527404785
58	257.40601897239685	pulse	1	t		56.0	2.5	/experiments/knapen_AOT/AOT_stimuli/rescaled_final/1752_fw.mp4	0.0	281.87024307250977	
58	258.3216881752014	fix_post	2		12	56.0	2.5	/experiments/knapen_AOT/AOT_stimuli/rescaled_final/1752_fw.mp4	0.0	282.78591227531433	0.10001993179321289
59	258.42170810699463	fix_pre	0		120	57.0	2.5	/experiments/knapen_AOT/AOT_stimuli/rescaled_final/1214_fw.mp4	0.0	282.88593220710754	1.000093936920166
59	258.99787306785583	pulse	0	t		57.0	2.5	/experiments/knapen_AOT/AOT_stimuli/rescaled_final/1214_fw.mp4	0.0	283.46209716796875	
59	259.4218020439148	movie	1		244	57.0	2.5	/experiments/knapen_AOT/AOT_stimuli/rescaled_final/1214_fw.mp4	0.0	283.8860261440277	2.5003740787506104
59	260.597491979599	pulse	1	t		57.0	2.5	/experiments/knapen_AOT/AOT_stimuli/rescaled_final/1214_fw.mp4	0.0	285.0617160797119	
59	261.9221761226654	fix_post	2		12	57.0	2.5	/experiments/knapen_AOT/AOT_stimuli/rescaled_final/1214_fw.mp4	0.0	286.3864002227783	0.10002994537353516
60	262.02220606803894	fix_pre	0		120	58.0	2.5	/experiments/knapen_AOT/AOT_stimuli/rescaled_final/0432_fw.mp4	0.0	286.48643016815186	1.0001749992370605
60	262.1973669528961	pulse	0	t		58.0	2.5	/experiments/knapen_AOT/AOT_stimuli/rescaled_final/0432_fw.mp4	0.0	286.66159105300903	
60	263.022381067276	movie	1		245	58.0	2.5	/experiments/knapen_AOT/AOT_stimuli/rescaled_final/0432_fw.mp4	0.0	287.4866051673889	2.5003318786621094
60	263.79759216308594	pulse	1	t		58.0	2.5	/experiments/knapen_AOT/AOT_stimuli/rescaled_final/0432_fw.mp4	0.0	288.26181626319885	
60	265.39785599708557	pulse	1	t		58.0	2.5	/experiments/knapen_AOT/AOT_stimuli/rescaled_final/0432_fw.mp4	0.0	289.8620800971985	
60	265.5227129459381	fix_post	2		12	58.0	2.5	/experiments/knapen_AOT/AOT_stimuli/rescaled_final/0432_fw.mp4	0.0	289.986937046051	0.10005021095275879
61	265.62276315689087	fix_pre	0		119	59.0	2.5	/experiments/knapen_AOT/AOT_stimuli/rescaled_final/2038_rv.mp4	0.0	290.0869872570038	0.9917948246002197
61	266.6145579814911	movie	1		247	59.0	2.5	/experiments/knapen_AOT/AOT_stimuli/rescaled_final/2038_rv.mp4	0.0	291.078782081604	2.500415086746216
61	266.9986410140991	pulse	1	t		59.0	2.5	/experiments/knapen_AOT/AOT_stimuli/rescaled_final/2038_rv.mp4	0.0	291.46286511421204	
61	268.59836506843567	pulse	1	t		59.0	2.5	/experiments/knapen_AOT/AOT_stimuli/rescaled_final/2038_rv.mp4	0.0	293.0625891685486	
61	269.1149730682373	fix_post	2		12	59.0	2.5	/experiments/knapen_AOT/AOT_stimuli/rescaled_final/2038_rv.mp4	0.0	293.5791971683502	0.0999760627746582
62	269.21494913101196	fix_pre	0		116	60.0	2.5	/experiments/knapen_AOT/AOT_stimuli/rescaled_final/0989_rv.mp4	0.0	293.6791732311249	0.991818904876709
62	270.1985740661621	pulse	0	t		60.0	2.5	/experiments/knapen_AOT/AOT_stimuli/rescaled_final/0989_rv.mp4	0.0	294.662798166275	
62	270.2067680358887	movie	1		246	60.0	2.5	/experiments/knapen_AOT/AOT_stimuli/rescaled_final/0989_rv.mp4	0.0	294.6709921360016	2.50872802734375
62	271.7992670536041	pulse	1	t		60.0	2.5	/experiments/knapen_AOT/AOT_stimuli/rescaled_final/0989_rv.mp4	0.0	296.26349115371704	
62	272.7154960632324	fix_post	2		12	60.0	2.5	/experiments/knapen_AOT/AOT_stimuli/rescaled_final/0989_rv.mp4	0.0	297.17972016334534	0.10011911392211914
63	272.81561517715454	fix_pre	0		120	61.0	2.5	/experiments/knapen_AOT/AOT_stimuli/rescaled_final/0631_fw.mp4	0.0	297.27983927726746	1.000025987625122
63	273.39911699295044	pulse	0	t		61.0	2.5	/experiments/knapen_AOT/AOT_stimuli/rescaled_final/0631_fw.mp4	0.0	297.86334109306335	
63	273.81564116477966	movie	1		245	61.0	2.5	/experiments/knapen_AOT/AOT_stimuli/rescaled_final/0631_fw.mp4	0.0	298.2798652648926	2.5004138946533203
63	274.9993929862976	pulse	1	t		61.0	2.5	/experiments/knapen_AOT/AOT_stimuli/rescaled_final/0631_fw.mp4	0.0	299.4636170864105	
63	276.316055059433	fix_post	2		12	61.0	2.5	/experiments/knapen_AOT/AOT_stimuli/rescaled_final/0631_fw.mp4	0.0	300.7802791595459	0.09997391700744629
64	276.41602897644043	fix_pre	0		120	62.0	2.5	blank	1.0	300.88025307655334	1.000148057937622
64	276.59960198402405	pulse	0	t		62.0	2.5	blank	1.0	301.06382608413696	
64	277.41617703437805	movie	1		300	62.0	2.5	blank	1.0	301.88040113449097	2.5003530979156494
64	278.19976115226746	pulse	1	t		62.0	2.5	blank	1.0	302.66398525238037	
64	279.7999601364136	pulse	1	t		62.0	2.5	blank	1.0	304.2641842365265	
64	279.9165301322937	fix_post	2		12	62.0	2.5	blank	1.0	304.3807542324066	0.10000801086425781
65	280.01653814315796	fix_pre	0		120	63.0	2.5	/experiments/knapen_AOT/AOT_stimuli/rescaled_final/1115_fw.mp4	0.0	304.4807622432709	1.000196933746338
65	281.0167350769043	movie	1		243	63.0	2.5	/experiments/knapen_AOT/AOT_stimuli/rescaled_final/1115_fw.mp4	0.0	305.4809591770172	2.4920098781585693
65	281.4008631706238	pulse	1	t		63.0	2.5	/experiments/knapen_AOT/AOT_stimuli/rescaled_final/1115_fw.mp4	0.0	305.8650872707367	
65	283.0006489753723	pulse	1	t		63.0	2.5	/experiments/knapen_AOT/AOT_stimuli/rescaled_final/1115_fw.mp4	0.0	307.46487307548523	
65	283.50874495506287	fix_post	2		12	63.0	2.5	/experiments/knapen_AOT/AOT_stimuli/rescaled_final/1115_fw.mp4	0.0	307.9729690551758	0.10005307197570801
66	283.6087980270386	fix_pre	0		120	64.0	2.5	/experiments/knapen_AOT/AOT_stimuli/rescaled_final/0009_fw.mp4	0.0	308.0730221271515	1.0001471042633057
66	284.60079312324524	pulse	0	t		64.0	2.5	/experiments/knapen_AOT/AOT_stimuli/rescaled_final/0009_fw.mp4	0.0	309.06501722335815	
66	284.6089451313019	movie	1		245	64.0	2.5	/experiments/knapen_AOT/AOT_stimuli/rescaled_final/0009_fw.mp4	0.0	309.0731692314148	2.50872802734375
66	286.201611995697	pulse	1	t		64.0	2.5	/experiments/knapen_AOT/AOT_stimuli/rescaled_final/0009_fw.mp4	0.0	310.66583609580994	
66	287.11767315864563	fix_post	2		12	64.0	2.5	/experiments/knapen_AOT/AOT_stimuli/rescaled_final/0009_fw.mp4	0.0	311.58189725875854	0.0999758243560791
67	287.2176489830017	fix_pre	0		120	65.0	2.5	/experiments/knapen_AOT/AOT_stimuli/rescaled_final/0816_fw.mp4	0.0	311.6818730831146	1.0001270771026611
67	287.8012330532074	pulse	0	t		65.0	2.5	/experiments/knapen_AOT/AOT_stimuli/rescaled_final/0816_fw.mp4	0.0	312.2654571533203	
67	288.21777606010437	movie	1		244	65.0	2.5	/experiments/knapen_AOT/AOT_stimuli/rescaled_final/0816_fw.mp4	0.0	312.6820001602173	2.5004379749298096
67	289.4016351699829	pulse	1	t		65.0	2.5	/experiments/knapen_AOT/AOT_stimuli/rescaled_final/0816_fw.mp4	0.0	313.8658592700958	
67	290.7182140350342	fix_post	2		12	65.0	2.5	/experiments/knapen_AOT/AOT_stimuli/rescaled_final/0816_fw.mp4	0.0	315.1824381351471	0.09993100166320801
68	290.8181450366974	fix_pre	0		120	66.0	2.5	/experiments/knapen_AOT/AOT_stimuli/rescaled_final/1612_rv.mp4	0.0	315.2823691368103	1.0001909732818604
68	291.0017499923706	pulse	0	t		66.0	2.5	/experiments/knapen_AOT/AOT_stimuli/rescaled_final/1612_rv.mp4	0.0	315.4659740924835	
68	291.81833600997925	movie	1		244	66.0	2.5	/experiments/knapen_AOT/AOT_stimuli/rescaled_final/1612_rv.mp4	0.0	316.28256011009216	2.5003609657287598
68	292.60203099250793	pulse	1	t		66.0	2.5	/experiments/knapen_AOT/AOT_stimuli/rescaled_final/1612_rv.mp4	0.0	317.06625509262085	
68	294.1998541355133	pulse	1	t		66.0	2.5	/experiments/knapen_AOT/AOT_stimuli/rescaled_final/1612_rv.mp4	0.0	318.6640782356262	
68	294.318696975708	fix_post	2		12	66.0	2.5	/experiments/knapen_AOT/AOT_stimuli/rescaled_final/1612_rv.mp4	0.0	318.7829210758209	0.10001111030578613
69	294.4187080860138	fix_pre	0		120	67.0	2.5	/experiments/knapen_AOT/AOT_stimuli/rescaled_final/1869_rv.mp4	0.0	318.8829321861267	1.0002429485321045
69	295.4189510345459	movie	1		243	67.0	2.5	/experiments/knapen_AOT/AOT_stimuli/rescaled_final/1869_rv.mp4	0.0	319.8831751346588	2.4919989109039307
69	295.8029351234436	pulse	1	t		67.0	2.5	/experiments/knapen_AOT/AOT_stimuli/rescaled_final/1869_rv.mp4	0.0	320.2671592235565	
69	297.4027280807495	pulse	1	t		67.0	2.5	/experiments/knapen_AOT/AOT_stimuli/rescaled_final/1869_rv.mp4	0.0	321.8669521808624	
69	297.91094994544983	fix_post	2		12	67.0	2.5	/experiments/knapen_AOT/AOT_stimuli/rescaled_final/1869_rv.mp4	0.0	322.37517404556274	0.09999918937683105
70	298.01094913482666	fix_pre	0		120	68.0	2.5	blank	1.0	322.4751732349396	1.0001239776611328
70	299.00295901298523	pulse	0	t		68.0	2.5	blank	1.0	323.46718311309814	
70	299.0110731124878	movie	1		301	68.0	2.5	blank	1.0	323.4752972126007	2.508741855621338
70	300.60313296318054	pulse	1	t		68.0	2.5	blank	1.0	325.06735706329346	
70	301.51981496810913	fix_post	2		12	68.0	2.5	blank	1.0	325.98403906822205	0.0999751091003418
71	301.6197900772095	fix_pre	0		120	69.0	2.5	/experiments/knapen_AOT/AOT_stimuli/rescaled_final/0187_rv.mp4	0.0	326.0840141773224	1.0001399517059326
71	302.20340609550476	pulse	0	t		69.0	2.5	/experiments/knapen_AOT/AOT_stimuli/rescaled_final/0187_rv.mp4	0.0	326.6676301956177	
71	302.6199300289154	movie	1		246	69.0	2.5	/experiments/knapen_AOT/AOT_stimuli/rescaled_final/0187_rv.mp4	0.0	327.0841541290283	2.5003881454467773
71	303.8037631511688	pulse	1	t		69.0	2.5	/experiments/knapen_AOT/AOT_stimuli/rescaled_final/0187_rv.mp4	0.0	328.26798725128174	
71	305.1203181743622	fix_post	2		12	69.0	2.5	/experiments/knapen_AOT/AOT_stimuli/rescaled_final/0187_rv.mp4	0.0	329.5845422744751	0.10003995895385742
72	305.22035813331604	fix_pre	0		120	70.0	2.5	/experiments/knapen_AOT/AOT_stimuli/rescaled_final/0116_rv.mp4	0.0	329.68458223342896	1.000126838684082
72	305.4039430618286	pulse	0	t		70.0	2.5	/experiments/knapen_AOT/AOT_stimuli/rescaled_final/0116_rv.mp4	0.0	329.8681671619415	
72	306.2204849720001	movie	1		244	70.0	2.5	/experiments/knapen_AOT/AOT_stimuli/rescaled_final/0116_rv.mp4	0.0	330.68470907211304	2.50032114982605
72	307.0041489601135	pulse	1	t		70.0	2.5	/experiments/knapen_AOT/AOT_stimuli/rescaled_final/0116_rv.mp4	0.0	331.46837306022644	
72	308.60447216033936	pulse	1	t		70.0	2.5	/experiments/knapen_AOT/AOT_stimuli/rescaled_final/0116_rv.mp4	0.0	333.06869626045227	
72	308.7208061218262	fix_post	2		12	70.0	2.5	/experiments/knapen_AOT/AOT_stimuli/rescaled_final/0116_rv.mp4	0.0	333.1850302219391	0.10003805160522461
73	308.8208441734314	fix_pre	0		120	71.0	2.5	/experiments/knapen_AOT/AOT_stimuli/rescaled_final/0486_rv.mp4	0.0	333.2850682735443	1.0001487731933594
73	309.82099294662476	movie	1		244	71.0	2.5	/experiments/knapen_AOT/AOT_stimuli/rescaled_final/0486_rv.mp4	0.0	334.28521704673767	2.4920990467071533
73	310.2056760787964	pulse	1	t		71.0	2.5	/experiments/knapen_AOT/AOT_stimuli/rescaled_final/0486_rv.mp4	0.0	334.6699001789093	
73	311.80489015579224	pulse	1	t		71.0	2.5	/experiments/knapen_AOT/AOT_stimuli/rescaled_final/0486_rv.mp4	0.0	336.26911425590515	
73	312.3130919933319	fix_post	2		12	71.0	2.5	/experiments/knapen_AOT/AOT_stimuli/rescaled_final/0486_rv.mp4	0.0	336.7773160934448	0.09998297691345215
74	312.41307497024536	fix_pre	0		120	72.0	2.5	/experiments/knapen_AOT/AOT_stimuli/rescaled_final/0943_fw.mp4	0.0	336.8772990703583	1.0001451969146729
74	313.4051251411438	pulse	0	t		72.0	2.5	/experiments/knapen_AOT/AOT_stimuli/rescaled_final/0943_fw.mp4	0.0	337.8693492412567	
74	313.41322016716003	movie	1		245	72.0	2.5	/experiments/knapen_AOT/AOT_stimuli/rescaled_final/0943_fw.mp4	0.0	337.87744426727295	2.508671998977661
74	315.0058891773224	pulse	1	t		72.0	2.5	/experiments/knapen_AOT/AOT_stimuli/rescaled_final/0943_fw.mp4	0.0	339.4701132774353	
74	315.9218921661377	fix_post	2		12	72.0	2.5	/experiments/knapen_AOT/AOT_stimuli/rescaled_final/0943_fw.mp4	0.0	340.3861162662506	0.10005879402160645
75	316.0219509601593	fix_pre	0		120	73.0	2.5	/experiments/knapen_AOT/AOT_stimuli/rescaled_final/0563_fw.mp4	0.0	340.4861750602722	1.0001301765441895
75	316.59805607795715	pulse	0	t		73.0	2.5	/experiments/knapen_AOT/AOT_stimuli/rescaled_final/0563_fw.mp4	0.0	341.06228017807007	
75	317.0220811367035	movie	1		245	73.0	2.5	/experiments/knapen_AOT/AOT_stimuli/rescaled_final/0563_fw.mp4	0.0	341.4863052368164	2.500438928604126
75	318.19816994667053	pulse	1	t		73.0	2.5	/experiments/knapen_AOT/AOT_stimuli/rescaled_final/0563_fw.mp4	0.0	342.66239404678345	
75	319.5225200653076	fix_post	2		12	73.0	2.5	/experiments/knapen_AOT/AOT_stimuli/rescaled_final/0563_fw.mp4	0.0	343.98674416542053	0.09993910789489746
76	319.6224591732025	fix_pre	0		120	74.0	2.5	/experiments/knapen_AOT/AOT_stimuli/rescaled_final/0974_fw.mp4	0.0	344.08668327331543	1.0001778602600098
76	319.7985191345215	pulse	0	t		74.0	2.5	/experiments/knapen_AOT/AOT_stimuli/rescaled_final/0974_fw.mp4	0.0	344.2627432346344	
76	320.6226370334625	movie	1		244	74.0	2.5	/experiments/knapen_AOT/AOT_stimuli/rescaled_final/0974_fw.mp4	0.0	345.08686113357544	2.500425100326538
76	321.39882707595825	pulse	1	t		74.0	2.5	/experiments/knapen_AOT/AOT_stimuli/rescaled_final/0974_fw.mp4	0.0	345.86305117607117	
76	322.9981281757355	pulse	1	t		74.0	2.5	/experiments/knapen_AOT/AOT_stimuli/rescaled_final/0974_fw.mp4	0.0	347.4623522758484	
76	323.12306213378906	fix_post	2		12	74.0	2.5	/experiments/knapen_AOT/AOT_stimuli/rescaled_final/0974_fw.mp4	0.0	347.587286233902	0.09993982315063477
77	323.2230019569397	fix_pre	0		120	75.0	2.5	/experiments/knapen_AOT/AOT_stimuli/rescaled_final/2170_fw.mp4	0.0	347.6872260570526	1.0002250671386719
77	324.22322702407837	movie	1		244	75.0	2.5	/experiments/knapen_AOT/AOT_stimuli/rescaled_final/2170_fw.mp4	0.0	348.6874511241913	2.492000102996826
77	324.5983281135559	pulse	1	t		75.0	2.5	/experiments/knapen_AOT/AOT_stimuli/rescaled_final/2170_fw.mp4	0.0	349.0625522136688	
77	326.1986861228943	pulse	1	t		75.0	2.5	/experiments/knapen_AOT/AOT_stimuli/rescaled_final/2170_fw.mp4	0.0	350.6629102230072	
77	326.7152271270752	fix_post	2		12	75.0	2.5	/experiments/knapen_AOT/AOT_stimuli/rescaled_final/2170_fw.mp4	0.0	351.1794512271881	0.0999758243560791
78	326.8152029514313	fix_pre	0		119	76.0	2.5	/experiments/knapen_AOT/AOT_stimuli/rescaled_final/1101_rv.mp4	0.0	351.2794270515442	0.9918210506439209
78	327.79896211624146	pulse	0	t		76.0	2.5	/experiments/knapen_AOT/AOT_stimuli/rescaled_final/1101_rv.mp4	0.0	352.26318621635437	
78	327.8070240020752	movie	1		245	76.0	2.5	/experiments/knapen_AOT/AOT_stimuli/rescaled_final/1101_rv.mp4	0.0	352.2712481021881	2.5099830627441406
78	329.402960062027	pulse	1	t		76.0	2.5	/experiments/knapen_AOT/AOT_stimuli/rescaled_final/1101_rv.mp4	0.0	353.8671841621399	
78	330.31700706481934	fix_post	2		10	76.0	2.5	/experiments/knapen_AOT/AOT_stimuli/rescaled_final/1101_rv.mp4	0.0	354.78123116493225	0.0987548828125
79	330.41576194763184	fix_pre	0		120	77.0	2.5	blank	1.0	354.87998604774475	1.0001890659332275
79	330.99929094314575	pulse	0	t		77.0	2.5	blank	1.0	355.46351504325867	
79	331.41595101356506	movie	1		300	77.0	2.5	blank	1.0	355.880175113678	2.5002920627593994
79	332.5995330810547	pulse	1	t		77.0	2.5	blank	1.0	357.0637571811676	
79	333.91624307632446	fix_post	2		12	77.0	2.5	blank	1.0	358.3804671764374	0.1000828742980957
80	334.01632595062256	fix_pre	0		120	78.0	2.5	/experiments/knapen_AOT/AOT_stimuli/rescaled_final/1869_rv.mp4	0.0	358.4805500507355	1.0001251697540283
80	334.19985699653625	pulse	0	t		78.0	2.5	/experiments/knapen_AOT/AOT_stimuli/rescaled_final/1869_rv.mp4	0.0	358.66408109664917	
80	335.0164511203766	movie	1		244	78.0	2.5	/experiments/knapen_AOT/AOT_stimuli/rescaled_final/1869_rv.mp4	0.0	359.4806752204895	2.5003600120544434
80	335.80008912086487	pulse	1	t		78.0	2.5	/experiments/knapen_AOT/AOT_stimuli/rescaled_final/1869_rv.mp4	0.0	360.2643132209778	
80	337.4002661705017	pulse	1	t		78.0	2.5	/experiments/knapen_AOT/AOT_stimuli/rescaled_final/1869_rv.mp4	0.0	361.8644902706146	
80	337.51681113243103	fix_post	2		12	78.0	2.5	/experiments/knapen_AOT/AOT_stimuli/rescaled_final/1869_rv.mp4	0.0	361.98103523254395	0.0999758243560791
81	337.6167869567871	fix_pre	0		120	79.0	2.5	/experiments/knapen_AOT/AOT_stimuli/rescaled_final/0195_rv.mp4	0.0	362.0810110569	1.0002131462097168
81	338.6170001029968	movie	1		243	79.0	2.5	/experiments/knapen_AOT/AOT_stimuli/rescaled_final/0195_rv.mp4	0.0	363.08122420310974	2.492043972015381
81	339.0052499771118	pulse	1	t		79.0	2.5	/experiments/knapen_AOT/AOT_stimuli/rescaled_final/0195_rv.mp4	0.0	363.46947407722473	
81	340.60076212882996	pulse	1	t		79.0	2.5	/experiments/knapen_AOT/AOT_stimuli/rescaled_final/0195_rv.mp4	0.0	365.06498622894287	
81	341.1090440750122	fix_post	2		12	79.0	2.5	/experiments/knapen_AOT/AOT_stimuli/rescaled_final/0195_rv.mp4	0.0	365.5732681751251	0.09996700286865234
82	341.20901107788086	fix_pre	0		120	80.0	2.5	/experiments/knapen_AOT/AOT_stimuli/rescaled_final/1787_rv.mp4	0.0	365.6732351779938	1.0001609325408936
82	342.2011020183563	pulse	0	t		80.0	2.5	/experiments/knapen_AOT/AOT_stimuli/rescaled_final/1787_rv.mp4	0.0	366.66532611846924	
82	342.20917201042175	movie	1		245	80.0	2.5	/experiments/knapen_AOT/AOT_stimuli/rescaled_final/1787_rv.mp4	0.0	366.67339611053467	2.5087220668792725
82	343.8018960952759	pulse	1	t		80.0	2.5	/experiments/knapen_AOT/AOT_stimuli/rescaled_final/1787_rv.mp4	0.0	368.2661201953888	
82	344.717894077301	fix_post	2		12	80.0	2.5	/experiments/knapen_AOT/AOT_stimuli/rescaled_final/1787_rv.mp4	0.0	369.18211817741394	0.09999489784240723
83	344.81788897514343	fix_pre	0		120	81.0	2.5	/experiments/knapen_AOT/AOT_stimuli/rescaled_final/1128_rv.mp4	0.0	369.28211307525635	1.000157117843628
83	345.4014780521393	pulse	0	t		81.0	2.5	/experiments/knapen_AOT/AOT_stimuli/rescaled_final/1128_rv.mp4	0.0	369.8657021522522	
83	345.81804609298706	movie	1		245	81.0	2.5	/experiments/knapen_AOT/AOT_stimuli/rescaled_final/1128_rv.mp4	0.0	370.2822701931	2.5004079341888428
83	347.0018229484558	pulse	1	t		81.0	2.5	/experiments/knapen_AOT/AOT_stimuli/rescaled_final/1128_rv.mp4	0.0	371.4660470485687	
83	348.3184540271759	fix_post	2		12	81.0	2.5	/experiments/knapen_AOT/AOT_stimuli/rescaled_final/1128_rv.mp4	0.0	372.7826781272888	0.09995698928833008
84	348.41841101646423	fix_pre	0		120	82.0	2.5	/experiments/knapen_AOT/AOT_stimuli/rescaled_final/0403_fw.mp4	0.0	372.88263511657715	1.0001821517944336
84	348.60204100608826	pulse	0	t		82.0	2.5	/experiments/knapen_AOT/AOT_stimuli/rescaled_final/0403_fw.mp4	0.0	373.0662651062012	
84	349.41859316825867	movie	1		243	82.0	2.5	/experiments/knapen_AOT/AOT_stimuli/rescaled_final/0403_fw.mp4	0.0	373.8828172683716	2.500415802001953
84	350.2021460533142	pulse	1	t		82.0	2.5	/experiments/knapen_AOT/AOT_stimuli/rescaled_final/0403_fw.mp4	0.0	374.6663701534271	
84	351.80243611335754	pulse	1	t		82.0	2.5	/experiments/knapen_AOT/AOT_stimuli/rescaled_final/0403_fw.mp4	0.0	376.26666021347046	
84	351.9190089702606	fix_post	2		12	82.0	2.5	/experiments/knapen_AOT/AOT_stimuli/rescaled_final/0403_fw.mp4	0.0	376.38323307037354	0.09994196891784668
85	352.01895093917847	fix_pre	0		120	83.0	2.5	blank	1.0	376.4831750392914	1.0001411437988281
85	353.0190920829773	movie	1		299	83.0	2.5	blank	1.0	377.4833161830902	2.492065906524658
85	353.4027011394501	pulse	1	t		83.0	2.5	blank	1.0	377.866925239563	
85	355.0029330253601	pulse	1	t		83.0	2.5	blank	1.0	379.467157125473	
85	355.51115798950195	fix_post	2		12	83.0	2.5	blank	1.0	379.97538208961487	0.10001802444458008
87	355.61117601394653	stim	0		1716					380.07540011405945	14.302263021469116
87	356.6031639575958	pulse	0	t						381.06738805770874	
87	358.2033181190491	pulse	0	t						382.667542219162	
87	359.8035571575165	pulse	0	t						384.2677812576294	
87	361.4038600921631	pulse	0	t						385.868084192276	
87	363.00407314300537	pulse	0	t						387.4682972431183	
87	364.60431694984436	pulse	0	t						389.0685410499573	
87	366.2046129703522	pulse	0	t						390.6688370704651	
87	367.79751205444336	pulse	0	t						392.2617361545563	
87	369.39769411087036	pulse	0	t						393.8619182109833	
