trial_nr	onset	event_type	phase	response	nr_frames	movie_index	movie_duration	movie_file	blank	onset_abs	duration
0	0.16663503646850586	stim	0		71					16.950669765472412	0.591606616973877
0	0.7501983642578125	response	0	space						17.53423309326172	
1	0.7582416534423828	stim	0		4681					17.54227638244629	39.02573108673096
1	39.77406167984009	pulse	0	t						56.558096408843994	
1	39.78397274017334	stim	1		1715					56.568007469177246	14.307342767715454
1	41.36464738845825	pulse	1	t						58.14868211746216	
1	42.96487808227539	pulse	1	t						59.7489128112793	
1	44.56533765792847	pulse	1	t						61.34937238693237	
1	46.16527795791626	pulse	1	t						62.949312686920166	
1	47.76555871963501	pulse	1	t						64.54959344863892	
1	49.365795612335205	pulse	1	t						66.14983034133911	
1	50.966004610061646	pulse	1	t						67.75003933906555	
1	52.56629300117493	pulse	1	t						69.35032773017883	
2	54.091315507888794	fix_pre	0		10	0.0	2.5	/experiments/Knapen_AOT/AOT_stimuli/rescaled_final/1760_rv.mp4	0.0	70.8753502368927	0.10015010833740234
2	54.16676092147827	pulse	0	t		0.0	2.5	/experiments/Knapen_AOT/AOT_stimuli/rescaled_final/1760_rv.mp4	0.0	70.95079565048218	
2	54.191465616226196	movie	1		284	0.0	2.5	/experiments/Knapen_AOT/AOT_stimuli/rescaled_final/1760_rv.mp4	0.0	70.9755003452301	2.491950750350952
2	55.76520228385925	pulse	1	t		0.0	2.5	/experiments/Knapen_AOT/AOT_stimuli/rescaled_final/1760_rv.mp4	0.0	72.54923701286316	
2	56.68341636657715	fix_post	2		12	0.0	2.5	/experiments/Knapen_AOT/AOT_stimuli/rescaled_final/1760_rv.mp4	0.0	73.46745109558105	0.1000070571899414
3	56.78342342376709	fix_pre	0		120	1.0	2.5	/experiments/Knapen_AOT/AOT_stimuli/rescaled_final/0290_rv.mp4	0.0	73.567458152771	1.0085303783416748
3	57.36692500114441	pulse	0	t		1.0	2.5	/experiments/Knapen_AOT/AOT_stimuli/rescaled_final/0290_rv.mp4	0.0	74.15095973014832	
3	57.791953802108765	movie	1		285	1.0	2.5	/experiments/Knapen_AOT/AOT_stimuli/rescaled_final/0290_rv.mp4	0.0	74.57598853111267	2.4919421672821045
3	58.96731376647949	pulse	1	t		1.0	2.5	/experiments/Knapen_AOT/AOT_stimuli/rescaled_final/0290_rv.mp4	0.0	75.7513484954834	
3	60.28389596939087	fix_post	2		12	1.0	2.5	/experiments/Knapen_AOT/AOT_stimuli/rescaled_final/0290_rv.mp4	0.0	77.06793069839478	0.10007858276367188
4	60.38397455215454	fix_pre	0		120	2.0	2.5	/experiments/Knapen_AOT/AOT_stimuli/rescaled_final/2111_rv.mp4	0.0	77.16800928115845	1.0084197521209717
4	60.567463636398315	pulse	0	t		2.0	2.5	/experiments/Knapen_AOT/AOT_stimuli/rescaled_final/2111_rv.mp4	0.0	77.35149836540222	
4	61.39239430427551	movie	1		284	2.0	2.5	/experiments/Knapen_AOT/AOT_stimuli/rescaled_final/2111_rv.mp4	0.0	78.17642903327942	2.492084503173828
4	62.16563153266907	pulse	1	t		2.0	2.5	/experiments/Knapen_AOT/AOT_stimuli/rescaled_final/2111_rv.mp4	0.0	78.94966626167297	
4	63.76595854759216	pulse	1	t		2.0	2.5	/experiments/Knapen_AOT/AOT_stimuli/rescaled_final/2111_rv.mp4	0.0	80.54999327659607	
4	63.88447880744934	fix_post	2		12	2.0	2.5	/experiments/Knapen_AOT/AOT_stimuli/rescaled_final/2111_rv.mp4	0.0	80.66851353645325	0.10001516342163086
5	63.98449397087097	fix_pre	0		120	3.0	2.5	/experiments/Knapen_AOT/AOT_stimuli/rescaled_final/0916_fw.mp4	0.0	80.76852869987488	1.0084648132324219
5	64.9929587841034	movie	1		275	3.0	2.5	/experiments/Knapen_AOT/AOT_stimuli/rescaled_final/0916_fw.mp4	0.0	81.7769935131073	2.4920709133148193
5	65.36844754219055	pulse	1	t		3.0	2.5	/experiments/Knapen_AOT/AOT_stimuli/rescaled_final/0916_fw.mp4	0.0	82.15248227119446	
5	66.96614027023315	pulse	1	t		3.0	2.5	/experiments/Knapen_AOT/AOT_stimuli/rescaled_final/0916_fw.mp4	0.0	83.75017499923706	
5	67.48502969741821	fix_post	2		12	3.0	2.5	/experiments/Knapen_AOT/AOT_stimuli/rescaled_final/0916_fw.mp4	0.0	84.26906442642212	0.09997344017028809
6	67.5850031375885	fix_pre	0		119	4.0	2.5	/experiments/Knapen_AOT/AOT_stimuli/rescaled_final/1390_fw.mp4	0.0	84.36903786659241	1.0002081394195557
6	68.56868577003479	pulse	0	t		4.0	2.5	/experiments/Knapen_AOT/AOT_stimuli/rescaled_final/1390_fw.mp4	0.0	85.3527204990387	
6	68.58521127700806	movie	1		288	4.0	2.5	/experiments/Knapen_AOT/AOT_stimuli/rescaled_final/1390_fw.mp4	0.0	85.36924600601196	2.5003769397735596
6	70.16732573509216	pulse	1	t		4.0	2.5	/experiments/Knapen_AOT/AOT_stimuli/rescaled_final/1390_fw.mp4	0.0	86.95136046409607	
6	71.08558821678162	fix_post	2		12	4.0	2.5	/experiments/Knapen_AOT/AOT_stimuli/rescaled_final/1390_fw.mp4	0.0	87.86962294578552	0.09994316101074219
7	71.18553137779236	fix_pre	0		120	5.0	2.5	/experiments/Knapen_AOT/AOT_stimuli/rescaled_final/0881_fw.mp4	0.0	87.96956610679626	1.0085008144378662
7	71.76914572715759	pulse	0	t		5.0	2.5	/experiments/Knapen_AOT/AOT_stimuli/rescaled_final/0881_fw.mp4	0.0	88.5531804561615	
7	72.19403219223022	movie	1		285	5.0	2.5	/experiments/Knapen_AOT/AOT_stimuli/rescaled_final/0881_fw.mp4	0.0	88.97806692123413	2.49204158782959
7	73.36728596687317	pulse	1	t		5.0	2.5	/experiments/Knapen_AOT/AOT_stimuli/rescaled_final/0881_fw.mp4	0.0	90.15132069587708	
7	74.68607378005981	fix_post	2		12	5.0	2.5	/experiments/Knapen_AOT/AOT_stimuli/rescaled_final/0881_fw.mp4	0.0	91.47010850906372	0.10001373291015625
8	74.78608751296997	fix_pre	0		120	6.0	2.5	blank	1.0	91.57012224197388	1.000138282775879
8	74.96970224380493	pulse	0	t		6.0	2.5	blank	1.0	91.75373697280884	
8	75.78622579574585	movie	1		300	6.0	2.5	blank	1.0	92.57026052474976	2.500368118286133
8	76.56987118721008	pulse	1	t		6.0	2.5	blank	1.0	93.35390591621399	
8	78.17009663581848	pulse	1	t		6.0	2.5	blank	1.0	94.95413136482239	
8	78.28659391403198	fix_post	2		12	6.0	2.5	blank	1.0	95.07062864303589	0.10004997253417969
9	78.38664388656616	fix_pre	0		120	7.0	2.5	/experiments/Knapen_AOT/AOT_stimuli/rescaled_final/1449_rv.mp4	0.0	95.17067861557007	1.0085408687591553
9	79.39518475532532	movie	1		286	7.0	2.5	/experiments/Knapen_AOT/AOT_stimuli/rescaled_final/1449_rv.mp4	0.0	96.17921948432922	2.4919657707214355
9	79.76887822151184	pulse	1	t		7.0	2.5	/experiments/Knapen_AOT/AOT_stimuli/rescaled_final/1449_rv.mp4	0.0	96.55291295051575	
9	81.36854982376099	pulse	1	t		7.0	2.5	/experiments/Knapen_AOT/AOT_stimuli/rescaled_final/1449_rv.mp4	0.0	98.15258455276489	
9	81.88715052604675	fix_post	2		12	7.0	2.5	/experiments/Knapen_AOT/AOT_stimuli/rescaled_final/1449_rv.mp4	0.0	98.67118525505066	0.10000228881835938
10	81.98715281486511	fix_pre	0		119	8.0	2.5	/experiments/Knapen_AOT/AOT_stimuli/rescaled_final/1604_rv.mp4	0.0	98.77118754386902	1.0002460479736328
10	82.96387720108032	pulse	0	t		8.0	2.5	/experiments/Knapen_AOT/AOT_stimuli/rescaled_final/1604_rv.mp4	0.0	99.74791193008423	
10	82.98739886283875	movie	1		285	8.0	2.5	/experiments/Knapen_AOT/AOT_stimuli/rescaled_final/1604_rv.mp4	0.0	99.77143359184265	2.5003020763397217
10	84.5695571899414	pulse	1	t		8.0	2.5	/experiments/Knapen_AOT/AOT_stimuli/rescaled_final/1604_rv.mp4	0.0	101.35359191894531	
10	85.48770093917847	fix_post	2		12	8.0	2.5	/experiments/Knapen_AOT/AOT_stimuli/rescaled_final/1604_rv.mp4	0.0	102.27173566818237	0.09999465942382812
11	85.5876955986023	fix_pre	0		120	9.0	2.5	/experiments/Knapen_AOT/AOT_stimuli/rescaled_final/0597_rv.mp4	0.0	102.3717303276062	1.00864577293396
11	86.16324138641357	pulse	0	t		9.0	2.5	/experiments/Knapen_AOT/AOT_stimuli/rescaled_final/0597_rv.mp4	0.0	102.94727611541748	
11	86.59634137153625	movie	1		281	9.0	2.5	/experiments/Knapen_AOT/AOT_stimuli/rescaled_final/0597_rv.mp4	0.0	103.38037610054016	2.4918947219848633
11	87.77194905281067	pulse	1	t		9.0	2.5	/experiments/Knapen_AOT/AOT_stimuli/rescaled_final/0597_rv.mp4	0.0	104.55598378181458	
11	89.08823609352112	fix_post	2		12	9.0	2.5	/experiments/Knapen_AOT/AOT_stimuli/rescaled_final/0597_rv.mp4	0.0	105.87227082252502	0.10000967979431152
12	89.18824577331543	fix_pre	0		120	10.0	2.5	/experiments/Knapen_AOT/AOT_stimuli/rescaled_final/0338_rv.mp4	0.0	105.97228050231934	1.0084843635559082
12	89.3639280796051	pulse	0	t		10.0	2.5	/experiments/Knapen_AOT/AOT_stimuli/rescaled_final/0338_rv.mp4	0.0	106.14796280860901	
12	90.19673013687134	movie	1		276	10.0	2.5	/experiments/Knapen_AOT/AOT_stimuli/rescaled_final/0338_rv.mp4	0.0	106.98076486587524	2.4921443462371826
12	90.96381068229675	pulse	1	t		10.0	2.5	/experiments/Knapen_AOT/AOT_stimuli/rescaled_final/0338_rv.mp4	0.0	107.74784541130066	
12	92.56398344039917	pulse	1	t		10.0	2.5	/experiments/Knapen_AOT/AOT_stimuli/rescaled_final/0338_rv.mp4	0.0	109.34801816940308	
12	92.68887448310852	fix_post	2		12	10.0	2.5	/experiments/Knapen_AOT/AOT_stimuli/rescaled_final/0338_rv.mp4	0.0	109.47290921211243	0.09990549087524414
13	92.78877997398376	fix_pre	0		120	11.0	2.5	/experiments/Knapen_AOT/AOT_stimuli/rescaled_final/0066_fw.mp4	0.0	109.57281470298767	1.0085175037384033
13	93.79729747772217	movie	1		287	11.0	2.5	/experiments/Knapen_AOT/AOT_stimuli/rescaled_final/0066_fw.mp4	0.0	110.58133220672607	2.4920082092285156
13	94.16383647918701	pulse	1	t		11.0	2.5	/experiments/Knapen_AOT/AOT_stimuli/rescaled_final/0066_fw.mp4	0.0	110.94787120819092	
13	95.76450276374817	pulse	1	t		11.0	2.5	/experiments/Knapen_AOT/AOT_stimuli/rescaled_final/0066_fw.mp4	0.0	112.54853749275208	
13	96.28930568695068	fix_post	2		12	11.0	2.5	/experiments/Knapen_AOT/AOT_stimuli/rescaled_final/0066_fw.mp4	0.0	113.07334041595459	0.10002946853637695
14	96.38933515548706	fix_pre	0		118	12.0	2.5	blank	1.0	113.17336988449097	0.9834578037261963
14	97.36470484733582	pulse	0	t		12.0	2.5	blank	1.0	114.14873957633972	
14	97.37279295921326	movie	1		301	12.0	2.5	blank	1.0	114.15682768821716	2.5087218284606934
14	98.96497106552124	pulse	1	t		12.0	2.5	blank	1.0	115.74900579452515	
14	99.88151478767395	fix_post	2		12	12.0	2.5	blank	1.0	116.66554951667786	0.10003852844238281
15	99.98155331611633	fix_pre	0		120	13.0	2.5	/experiments/Knapen_AOT/AOT_stimuli/rescaled_final/0250_fw.mp4	0.0	116.76558804512024	1.0084657669067383
15	100.56518387794495	pulse	0	t		13.0	2.5	/experiments/Knapen_AOT/AOT_stimuli/rescaled_final/0250_fw.mp4	0.0	117.34921860694885	
15	100.99001908302307	movie	1		285	13.0	2.5	/experiments/Knapen_AOT/AOT_stimuli/rescaled_final/0250_fw.mp4	0.0	117.77405381202698	2.49204683303833
15	102.16355013847351	pulse	1	t		13.0	2.5	/experiments/Knapen_AOT/AOT_stimuli/rescaled_final/0250_fw.mp4	0.0	118.94758486747742	
15	103.4820659160614	fix_post	2		12	13.0	2.5	/experiments/Knapen_AOT/AOT_stimuli/rescaled_final/0250_fw.mp4	0.0	120.26610064506531	0.10007190704345703
16	103.58213782310486	fix_pre	0		120	14.0	2.5	/experiments/Knapen_AOT/AOT_stimuli/rescaled_final/0755_fw.mp4	0.0	120.36617255210876	1.0084586143493652
16	103.76569271087646	pulse	0	t		14.0	2.5	/experiments/Knapen_AOT/AOT_stimuli/rescaled_final/0755_fw.mp4	0.0	120.54972743988037	
16	104.59059643745422	movie	1		284	14.0	2.5	/experiments/Knapen_AOT/AOT_stimuli/rescaled_final/0755_fw.mp4	0.0	121.37463116645813	2.4920237064361572
16	105.3641586303711	pulse	1	t		14.0	2.5	/experiments/Knapen_AOT/AOT_stimuli/rescaled_final/0755_fw.mp4	0.0	122.148193359375	
16	106.96410894393921	pulse	1	t		14.0	2.5	/experiments/Knapen_AOT/AOT_stimuli/rescaled_final/0755_fw.mp4	0.0	123.74814367294312	
16	107.08262014389038	fix_post	2		12	14.0	2.5	/experiments/Knapen_AOT/AOT_stimuli/rescaled_final/0755_fw.mp4	0.0	123.86665487289429	0.1000206470489502
17	107.18264079093933	fix_pre	0		120	15.0	2.5	/experiments/Knapen_AOT/AOT_stimuli/rescaled_final/1865_rv.mp4	0.0	123.96667551994324	1.0084669589996338
17	108.19110774993896	movie	1		279	15.0	2.5	/experiments/Knapen_AOT/AOT_stimuli/rescaled_final/1865_rv.mp4	0.0	124.97514247894287	2.492131471633911
17	108.56466555595398	pulse	1	t		15.0	2.5	/experiments/Knapen_AOT/AOT_stimuli/rescaled_final/1865_rv.mp4	0.0	125.34870028495789	
17	110.16429352760315	pulse	1	t		15.0	2.5	/experiments/Knapen_AOT/AOT_stimuli/rescaled_final/1865_rv.mp4	0.0	126.94832825660706	
17	110.68323922157288	fix_post	2		12	15.0	2.5	/experiments/Knapen_AOT/AOT_stimuli/rescaled_final/1865_rv.mp4	0.0	127.46727395057678	0.09992194175720215
18	110.78316116333008	fix_pre	0		119	16.0	2.5	/experiments/Knapen_AOT/AOT_stimuli/rescaled_final/0331_fw.mp4	0.0	127.56719589233398	1.0001535415649414
18	111.76683497428894	pulse	0	t		16.0	2.5	/experiments/Knapen_AOT/AOT_stimuli/rescaled_final/0331_fw.mp4	0.0	128.55086970329285	
18	111.78331470489502	movie	1		286	16.0	2.5	/experiments/Knapen_AOT/AOT_stimuli/rescaled_final/0331_fw.mp4	0.0	128.56734943389893	2.5003693103790283
18	113.36575198173523	pulse	1	t		16.0	2.5	/experiments/Knapen_AOT/AOT_stimuli/rescaled_final/0331_fw.mp4	0.0	130.14978671073914	
18	114.28368401527405	fix_post	2		12	16.0	2.5	/experiments/Knapen_AOT/AOT_stimuli/rescaled_final/0331_fw.mp4	0.0	131.06771874427795	0.10009050369262695
19	114.38377451896667	fix_pre	0		120	17.0	2.5	/experiments/Knapen_AOT/AOT_stimuli/rescaled_final/0824_fw.mp4	0.0	131.16780924797058	1.0084187984466553
19	114.9673318862915	pulse	0	t		17.0	2.5	/experiments/Knapen_AOT/AOT_stimuli/rescaled_final/0824_fw.mp4	0.0	131.7513666152954	
19	115.39219331741333	movie	1		281	17.0	2.5	/experiments/Knapen_AOT/AOT_stimuli/rescaled_final/0824_fw.mp4	0.0	132.17622804641724	2.492058515548706
19	116.56777095794678	pulse	1	t		17.0	2.5	/experiments/Knapen_AOT/AOT_stimuli/rescaled_final/0824_fw.mp4	0.0	133.35180568695068	
19	117.88425183296204	fix_post	2		12	17.0	2.5	/experiments/Knapen_AOT/AOT_stimuli/rescaled_final/0824_fw.mp4	0.0	134.66828656196594	0.09998798370361328
20	117.98423981666565	fix_pre	0		120	18.0	2.5	/experiments/Knapen_AOT/AOT_stimuli/rescaled_final/0328_fw.mp4	0.0	134.76827454566956	1.0084574222564697
20	118.16788411140442	pulse	0	t		18.0	2.5	/experiments/Knapen_AOT/AOT_stimuli/rescaled_final/0328_fw.mp4	0.0	134.95191884040833	
20	118.99269723892212	movie	1		283	18.0	2.5	/experiments/Knapen_AOT/AOT_stimuli/rescaled_final/0328_fw.mp4	0.0	135.77673196792603	2.492062568664551
20	119.76606917381287	pulse	1	t		18.0	2.5	/experiments/Knapen_AOT/AOT_stimuli/rescaled_final/0328_fw.mp4	0.0	136.55010390281677	
20	121.36615371704102	pulse	1	t		18.0	2.5	/experiments/Knapen_AOT/AOT_stimuli/rescaled_final/0328_fw.mp4	0.0	138.15018844604492	
20	121.48475980758667	fix_post	2		12	18.0	2.5	/experiments/Knapen_AOT/AOT_stimuli/rescaled_final/0328_fw.mp4	0.0	138.26879453659058	0.1001121997833252
21	121.58487200737	fix_pre	0		120	19.0	2.5	blank	1.0	138.3689067363739	1.0000567436218262
21	122.58492875099182	movie	1		300	19.0	2.5	blank	1.0	139.36896347999573	2.5003678798675537
21	122.96862459182739	pulse	1	t		19.0	2.5	blank	1.0	139.7526593208313	
21	124.56873512268066	pulse	1	t		19.0	2.5	blank	1.0	141.35276985168457	
21	125.08529663085938	fix_post	2		12	19.0	2.5	blank	1.0	141.86933135986328	0.1000218391418457
22	125.18531847000122	fix_pre	0		119	20.0	2.5	/experiments/Knapen_AOT/AOT_stimuli/rescaled_final/0956_fw.mp4	0.0	141.96935319900513	1.0001623630523682
22	126.16899728775024	pulse	0	t		20.0	2.5	/experiments/Knapen_AOT/AOT_stimuli/rescaled_final/0956_fw.mp4	0.0	142.95303201675415	
22	126.18548083305359	movie	1		292	20.0	2.5	/experiments/Knapen_AOT/AOT_stimuli/rescaled_final/0956_fw.mp4	0.0	142.9695155620575	2.500385284423828
22	127.76770424842834	pulse	1	t		20.0	2.5	/experiments/Knapen_AOT/AOT_stimuli/rescaled_final/0956_fw.mp4	0.0	144.55173897743225	
22	128.68586611747742	fix_post	2		12	20.0	2.5	/experiments/Knapen_AOT/AOT_stimuli/rescaled_final/0956_fw.mp4	0.0	145.46990084648132	0.10000991821289062
23	128.7858760356903	fix_pre	0		120	21.0	2.5	/experiments/Knapen_AOT/AOT_stimuli/rescaled_final/1966_rv.mp4	0.0	145.5699107646942	1.0084877014160156
23	129.3695285320282	pulse	0	t		21.0	2.5	/experiments/Knapen_AOT/AOT_stimuli/rescaled_final/1966_rv.mp4	0.0	146.1535632610321	
23	129.79436373710632	movie	1		278	21.0	2.5	/experiments/Knapen_AOT/AOT_stimuli/rescaled_final/1966_rv.mp4	0.0	146.57839846611023	2.4920237064361572
23	130.96795225143433	pulse	1	t		21.0	2.5	/experiments/Knapen_AOT/AOT_stimuli/rescaled_final/1966_rv.mp4	0.0	147.75198698043823	
23	132.28638744354248	fix_post	2		12	21.0	2.5	/experiments/Knapen_AOT/AOT_stimuli/rescaled_final/1966_rv.mp4	0.0	149.0704221725464	0.10001301765441895
24	132.3864004611969	fix_pre	0		120	22.0	2.5	/experiments/Knapen_AOT/AOT_stimuli/rescaled_final/1517_rv.mp4	0.0	149.1704351902008	1.008549451828003
24	132.57002067565918	pulse	0	t		22.0	2.5	/experiments/Knapen_AOT/AOT_stimuli/rescaled_final/1517_rv.mp4	0.0	149.3540554046631	
24	133.3949499130249	movie	1		275	22.0	2.5	/experiments/Knapen_AOT/AOT_stimuli/rescaled_final/1517_rv.mp4	0.0	150.1789846420288	2.4920153617858887
24	134.1698899269104	pulse	1	t		22.0	2.5	/experiments/Knapen_AOT/AOT_stimuli/rescaled_final/1517_rv.mp4	0.0	150.9539246559143	
24	135.76842594146729	pulse	1	t		22.0	2.5	/experiments/Knapen_AOT/AOT_stimuli/rescaled_final/1517_rv.mp4	0.0	152.5524606704712	
24	135.8869652748108	fix_post	2		12	22.0	2.5	/experiments/Knapen_AOT/AOT_stimuli/rescaled_final/1517_rv.mp4	0.0	152.6710000038147	0.09997987747192383
25	135.98694515228271	fix_pre	0		120	23.0	2.5	/experiments/Knapen_AOT/AOT_stimuli/rescaled_final/2108_fw.mp4	0.0	152.77097988128662	1.008509874343872
25	136.9954550266266	movie	1		289	23.0	2.5	/experiments/Knapen_AOT/AOT_stimuli/rescaled_final/2108_fw.mp4	0.0	153.7794897556305	2.4920618534088135
25	137.36881256103516	pulse	1	t		23.0	2.5	/experiments/Knapen_AOT/AOT_stimuli/rescaled_final/2108_fw.mp4	0.0	154.15284729003906	
25	138.96958947181702	pulse	1	t		23.0	2.5	/experiments/Knapen_AOT/AOT_stimuli/rescaled_final/2108_fw.mp4	0.0	155.75362420082092	
25	139.4875168800354	fix_post	2		12	23.0	2.5	/experiments/Knapen_AOT/AOT_stimuli/rescaled_final/2108_fw.mp4	0.0	156.2715516090393	0.0999610424041748
26	139.58747792243958	fix_pre	0		119	24.0	2.5	/experiments/Knapen_AOT/AOT_stimuli/rescaled_final/1156_rv.mp4	0.0	156.37151265144348	1.0002009868621826
26	140.56357288360596	pulse	0	t		24.0	2.5	/experiments/Knapen_AOT/AOT_stimuli/rescaled_final/1156_rv.mp4	0.0	157.34760761260986	
26	140.58767890930176	movie	1		287	24.0	2.5	/experiments/Knapen_AOT/AOT_stimuli/rescaled_final/1156_rv.mp4	0.0	157.37171363830566	2.5003421306610107
26	142.17000532150269	pulse	1	t		24.0	2.5	/experiments/Knapen_AOT/AOT_stimuli/rescaled_final/1156_rv.mp4	0.0	158.9540400505066	
26	143.08802103996277	fix_post	2		12	24.0	2.5	/experiments/Knapen_AOT/AOT_stimuli/rescaled_final/1156_rv.mp4	0.0	159.87205576896667	0.10001063346862793
27	143.1880316734314	fix_pre	0		120	25.0	2.5	/experiments/Knapen_AOT/AOT_stimuli/rescaled_final/1944_rv.mp4	0.0	159.9720664024353	1.008516788482666
27	143.76363587379456	pulse	0	t		25.0	2.5	/experiments/Knapen_AOT/AOT_stimuli/rescaled_final/1944_rv.mp4	0.0	160.54767060279846	
27	144.19654846191406	movie	1		289	25.0	2.5	/experiments/Knapen_AOT/AOT_stimuli/rescaled_final/1944_rv.mp4	0.0	160.98058319091797	2.492023229598999
27	145.36362481117249	pulse	1	t		25.0	2.5	/experiments/Knapen_AOT/AOT_stimuli/rescaled_final/1944_rv.mp4	0.0	162.1476595401764	
27	146.68857169151306	fix_post	2		12	25.0	2.5	/experiments/Knapen_AOT/AOT_stimuli/rescaled_final/1944_rv.mp4	0.0	163.47260642051697	0.10001778602600098
28	146.78858947753906	fix_pre	0		120	26.0	2.5	blank	1.0	163.57262420654297	1.0001437664031982
28	146.96383237838745	pulse	0	t		26.0	2.5	blank	1.0	163.74786710739136	
28	147.78873324394226	movie	1		300	26.0	2.5	blank	1.0	164.57276797294617	2.5003671646118164
28	148.5642077922821	pulse	1	t		26.0	2.5	blank	1.0	165.348242521286	
28	150.16432285308838	pulse	1	t		26.0	2.5	blank	1.0	166.94835758209229	
28	150.28910040855408	fix_post	2		12	26.0	2.5	blank	1.0	167.07313513755798	0.1001439094543457
29	150.38924431800842	fix_pre	0		120	27.0	2.5	/experiments/Knapen_AOT/AOT_stimuli/rescaled_final/1465_rv.mp4	0.0	167.17327904701233	1.0083832740783691
29	151.3976275920868	movie	1		290	27.0	2.5	/experiments/Knapen_AOT/AOT_stimuli/rescaled_final/1465_rv.mp4	0.0	168.1816623210907	2.4920082092285156
29	151.76470613479614	pulse	1	t		27.0	2.5	/experiments/Knapen_AOT/AOT_stimuli/rescaled_final/1465_rv.mp4	0.0	168.54874086380005	
29	153.36478996276855	pulse	1	t		27.0	2.5	/experiments/Knapen_AOT/AOT_stimuli/rescaled_final/1465_rv.mp4	0.0	170.14882469177246	
29	153.8896358013153	fix_post	2		12	27.0	2.5	/experiments/Knapen_AOT/AOT_stimuli/rescaled_final/1465_rv.mp4	0.0	170.6736705303192	0.10004520416259766
30	153.9896810054779	fix_pre	0		118	28.0	2.5	/experiments/Knapen_AOT/AOT_stimuli/rescaled_final/1394_rv.mp4	0.0	170.7737157344818	0.9917950630187988
30	154.96501684188843	pulse	0	t		28.0	2.5	/experiments/Knapen_AOT/AOT_stimuli/rescaled_final/1394_rv.mp4	0.0	171.74905157089233	
30	154.9814760684967	movie	1		276	28.0	2.5	/experiments/Knapen_AOT/AOT_stimuli/rescaled_final/1394_rv.mp4	0.0	171.7655107975006	2.5004055500030518
30	156.56554651260376	pulse	1	t		28.0	2.5	/experiments/Knapen_AOT/AOT_stimuli/rescaled_final/1394_rv.mp4	0.0	173.34958124160767	
30	157.48188161849976	fix_post	2		12	28.0	2.5	/experiments/Knapen_AOT/AOT_stimuli/rescaled_final/1394_rv.mp4	0.0	174.26591634750366	0.09999608993530273
31	157.58187770843506	fix_pre	0		120	29.0	2.5	/experiments/Knapen_AOT/AOT_stimuli/rescaled_final/0288_fw.mp4	0.0	174.36591243743896	1.0084776878356934
31	158.16555547714233	pulse	0	t		29.0	2.5	/experiments/Knapen_AOT/AOT_stimuli/rescaled_final/0288_fw.mp4	0.0	174.94959020614624	
31	158.59035539627075	movie	1		282	29.0	2.5	/experiments/Knapen_AOT/AOT_stimuli/rescaled_final/0288_fw.mp4	0.0	175.37439012527466	2.4920566082000732
31	159.76375484466553	pulse	1	t		29.0	2.5	/experiments/Knapen_AOT/AOT_stimuli/rescaled_final/0288_fw.mp4	0.0	176.54778957366943	
31	161.08241200447083	fix_post	2		12	29.0	2.5	/experiments/Knapen_AOT/AOT_stimuli/rescaled_final/0288_fw.mp4	0.0	177.86644673347473	0.10020756721496582
32	161.1826195716858	fix_pre	0		120	30.0	2.5	/experiments/Knapen_AOT/AOT_stimuli/rescaled_final/0587_rv.mp4	0.0	177.9666543006897	1.0082900524139404
32	161.36596298217773	pulse	0	t		30.0	2.5	/experiments/Knapen_AOT/AOT_stimuli/rescaled_final/0587_rv.mp4	0.0	178.14999771118164	
32	162.19090962409973	movie	1		283	30.0	2.5	/experiments/Knapen_AOT/AOT_stimuli/rescaled_final/0587_rv.mp4	0.0	178.97494435310364	2.492033004760742
32	162.96420693397522	pulse	1	t		30.0	2.5	/experiments/Knapen_AOT/AOT_stimuli/rescaled_final/0587_rv.mp4	0.0	179.74824166297913	
32	164.56457591056824	pulse	1	t		30.0	2.5	/experiments/Knapen_AOT/AOT_stimuli/rescaled_final/0587_rv.mp4	0.0	181.34861063957214	
32	164.68294262886047	fix_post	2		12	30.0	2.5	/experiments/Knapen_AOT/AOT_stimuli/rescaled_final/0587_rv.mp4	0.0	181.46697735786438	0.10001087188720703
33	164.78295350074768	fix_pre	0		120	31.0	2.5	/experiments/Knapen_AOT/AOT_stimuli/rescaled_final/0396_rv.mp4	0.0	181.5669882297516	1.0084724426269531
33	165.79142594337463	movie	1		276	31.0	2.5	/experiments/Knapen_AOT/AOT_stimuli/rescaled_final/0396_rv.mp4	0.0	182.57546067237854	2.49216628074646
33	166.1653425693512	pulse	1	t		31.0	2.5	/experiments/Knapen_AOT/AOT_stimuli/rescaled_final/0396_rv.mp4	0.0	182.9493772983551	
33	167.76534819602966	pulse	1	t		31.0	2.5	/experiments/Knapen_AOT/AOT_stimuli/rescaled_final/0396_rv.mp4	0.0	184.54938292503357	
33	168.2835922241211	fix_post	2		12	31.0	2.5	/experiments/Knapen_AOT/AOT_stimuli/rescaled_final/0396_rv.mp4	0.0	185.067626953125	0.10002493858337402
34	168.38361716270447	fix_pre	0		119	32.0	2.5	/experiments/Knapen_AOT/AOT_stimuli/rescaled_final/0013_fw.mp4	0.0	185.16765189170837	1.00002121925354
34	169.36731028556824	pulse	0	t		32.0	2.5	/experiments/Knapen_AOT/AOT_stimuli/rescaled_final/0013_fw.mp4	0.0	186.15134501457214	
34	169.383638381958	movie	1		291	32.0	2.5	/experiments/Knapen_AOT/AOT_stimuli/rescaled_final/0013_fw.mp4	0.0	186.1676731109619	2.5003700256347656
34	170.96621799468994	pulse	1	t		32.0	2.5	/experiments/Knapen_AOT/AOT_stimuli/rescaled_final/0013_fw.mp4	0.0	187.75025272369385	
34	171.88400840759277	fix_post	2		12	32.0	2.5	/experiments/Knapen_AOT/AOT_stimuli/rescaled_final/0013_fw.mp4	0.0	188.66804313659668	0.10002350807189941
35	171.98403191566467	fix_pre	0		120	33.0	2.5	blank	1.0	188.76806664466858	1.0001659393310547
35	172.56765961647034	pulse	0	t		33.0	2.5	blank	1.0	189.35169434547424	
35	172.98419785499573	movie	1		300	33.0	2.5	blank	1.0	189.76823258399963	2.500387668609619
35	174.16792130470276	pulse	1	t		33.0	2.5	blank	1.0	190.95195603370667	
35	175.48458552360535	fix_post	2		12	33.0	2.5	blank	1.0	192.26862025260925	0.10000801086425781
36	175.5845935344696	fix_pre	0		120	34.0	2.5	/experiments/Knapen_AOT/AOT_stimuli/rescaled_final/1595_rv.mp4	0.0	192.3686282634735	1.0084590911865234
36	175.76821660995483	pulse	0	t		34.0	2.5	/experiments/Knapen_AOT/AOT_stimuli/rescaled_final/1595_rv.mp4	0.0	192.55225133895874	
36	176.59305262565613	movie	1		288	34.0	2.5	/experiments/Knapen_AOT/AOT_stimuli/rescaled_final/1595_rv.mp4	0.0	193.37708735466003	2.492072343826294
36	177.3665897846222	pulse	1	t		34.0	2.5	/experiments/Knapen_AOT/AOT_stimuli/rescaled_final/1595_rv.mp4	0.0	194.1506245136261	
36	178.9668209552765	pulse	1	t		34.0	2.5	/experiments/Knapen_AOT/AOT_stimuli/rescaled_final/1595_rv.mp4	0.0	195.7508556842804	
36	179.08512496948242	fix_post	2		12	34.0	2.5	/experiments/Knapen_AOT/AOT_stimuli/rescaled_final/1595_rv.mp4	0.0	195.86915969848633	0.09998822212219238
37	179.18511319160461	fix_pre	0		120	35.0	2.5	/experiments/Knapen_AOT/AOT_stimuli/rescaled_final/0958_rv.mp4	0.0	195.96914792060852	1.0085279941558838
37	180.1936411857605	movie	1		290	35.0	2.5	/experiments/Knapen_AOT/AOT_stimuli/rescaled_final/0958_rv.mp4	0.0	196.9776759147644	2.4920156002044678
37	180.5672481060028	pulse	1	t		35.0	2.5	/experiments/Knapen_AOT/AOT_stimuli/rescaled_final/0958_rv.mp4	0.0	197.3512828350067	
37	182.16843152046204	pulse	1	t		35.0	2.5	/experiments/Knapen_AOT/AOT_stimuli/rescaled_final/0958_rv.mp4	0.0	198.95246624946594	
37	182.68565678596497	fix_post	2		12	35.0	2.5	/experiments/Knapen_AOT/AOT_stimuli/rescaled_final/0958_rv.mp4	0.0	199.46969151496887	0.10003471374511719
38	182.78569149971008	fix_pre	0		119	36.0	2.5	/experiments/Knapen_AOT/AOT_stimuli/rescaled_final/1691_fw.mp4	0.0	199.569726228714	1.0001449584960938
38	183.7694821357727	pulse	0	t		36.0	2.5	/experiments/Knapen_AOT/AOT_stimuli/rescaled_final/1691_fw.mp4	0.0	200.5535168647766	
38	183.78583645820618	movie	1		278	36.0	2.5	/experiments/Knapen_AOT/AOT_stimuli/rescaled_final/1691_fw.mp4	0.0	200.56987118721008	2.500337839126587
38	185.36816430091858	pulse	1	t		36.0	2.5	/experiments/Knapen_AOT/AOT_stimuli/rescaled_final/1691_fw.mp4	0.0	202.15219902992249	
38	186.28617429733276	fix_post	2		12	36.0	2.5	/experiments/Knapen_AOT/AOT_stimuli/rescaled_final/1691_fw.mp4	0.0	203.07020902633667	0.10001635551452637
39	186.3861906528473	fix_pre	0		120	37.0	2.5	/experiments/Knapen_AOT/AOT_stimuli/rescaled_final/1290_fw.mp4	0.0	203.1702253818512	1.0085060596466064
39	186.96988821029663	pulse	0	t		37.0	2.5	/experiments/Knapen_AOT/AOT_stimuli/rescaled_final/1290_fw.mp4	0.0	203.75392293930054	
39	187.3946967124939	movie	1		287	37.0	2.5	/experiments/Knapen_AOT/AOT_stimuli/rescaled_final/1290_fw.mp4	0.0	204.1787314414978	2.4920194149017334
39	188.56857132911682	pulse	1	t		37.0	2.5	/experiments/Knapen_AOT/AOT_stimuli/rescaled_final/1290_fw.mp4	0.0	205.35260605812073	
39	189.88671612739563	fix_post	2		12	37.0	2.5	/experiments/Knapen_AOT/AOT_stimuli/rescaled_final/1290_fw.mp4	0.0	206.67075085639954	0.10000753402709961
40	189.98672366142273	fix_pre	0		120	38.0	2.5	/experiments/Knapen_AOT/AOT_stimuli/rescaled_final/1831_rv.mp4	0.0	206.77075839042664	1.008570671081543
40	190.17033314704895	pulse	0	t		38.0	2.5	/experiments/Knapen_AOT/AOT_stimuli/rescaled_final/1831_rv.mp4	0.0	206.95436787605286	
40	190.99529433250427	movie	1		275	38.0	2.5	/experiments/Knapen_AOT/AOT_stimuli/rescaled_final/1831_rv.mp4	0.0	207.77932906150818	2.4919583797454834
40	191.7696089744568	pulse	1	t		38.0	2.5	/experiments/Knapen_AOT/AOT_stimuli/rescaled_final/1831_rv.mp4	0.0	208.5536437034607	
40	193.36898565292358	pulse	1	t		38.0	2.5	/experiments/Knapen_AOT/AOT_stimuli/rescaled_final/1831_rv.mp4	0.0	210.1530203819275	
40	193.48725271224976	fix_post	2		12	38.0	2.5	/experiments/Knapen_AOT/AOT_stimuli/rescaled_final/1831_rv.mp4	0.0	210.27128744125366	0.10001802444458008
41	193.58727073669434	fix_pre	0		120	39.0	2.5	/experiments/Knapen_AOT/AOT_stimuli/rescaled_final/1311_rv.mp4	0.0	210.37130546569824	1.0084893703460693
41	194.5957601070404	movie	1		275	39.0	2.5	/experiments/Knapen_AOT/AOT_stimuli/rescaled_final/1311_rv.mp4	0.0	211.3797948360443	2.492030620574951
41	194.97124814987183	pulse	1	t		39.0	2.5	/experiments/Knapen_AOT/AOT_stimuli/rescaled_final/1311_rv.mp4	0.0	211.75528287887573	
41	196.5630705356598	pulse	1	t		39.0	2.5	/experiments/Knapen_AOT/AOT_stimuli/rescaled_final/1311_rv.mp4	0.0	213.3471052646637	
41	197.08779072761536	fix_post	2		12	39.0	2.5	/experiments/Knapen_AOT/AOT_stimuli/rescaled_final/1311_rv.mp4	0.0	213.87182545661926	0.10002017021179199
42	197.18781089782715	fix_pre	0		118	40.0	2.5	/experiments/Knapen_AOT/AOT_stimuli/rescaled_final/1619_rv.mp4	0.0	213.97184562683105	0.9919674396514893
42	198.1634259223938	pulse	0	t		40.0	2.5	/experiments/Knapen_AOT/AOT_stimuli/rescaled_final/1619_rv.mp4	0.0	214.9474606513977	
42	198.17977833747864	movie	1		278	40.0	2.5	/experiments/Knapen_AOT/AOT_stimuli/rescaled_final/1619_rv.mp4	0.0	214.96381306648254	2.5002455711364746
42	199.7637975215912	pulse	1	t		40.0	2.5	/experiments/Knapen_AOT/AOT_stimuli/rescaled_final/1619_rv.mp4	0.0	216.5478322505951	
42	200.6800239086151	fix_post	2		12	40.0	2.5	/experiments/Knapen_AOT/AOT_stimuli/rescaled_final/1619_rv.mp4	0.0	217.46405863761902	0.09999632835388184
43	200.780020236969	fix_pre	0		120	41.0	2.5	/experiments/Knapen_AOT/AOT_stimuli/rescaled_final/1007_rv.mp4	0.0	217.5640549659729	1.0085058212280273
43	201.36395692825317	pulse	0	t		41.0	2.5	/experiments/Knapen_AOT/AOT_stimuli/rescaled_final/1007_rv.mp4	0.0	218.14799165725708	
43	201.78852605819702	movie	1		288	41.0	2.5	/experiments/Knapen_AOT/AOT_stimuli/rescaled_final/1007_rv.mp4	0.0	218.57256078720093	2.4920945167541504
43	202.96422171592712	pulse	1	t		41.0	2.5	/experiments/Knapen_AOT/AOT_stimuli/rescaled_final/1007_rv.mp4	0.0	219.74825644493103	
43	204.28062057495117	fix_post	2		12	41.0	2.5	/experiments/Knapen_AOT/AOT_stimuli/rescaled_final/1007_rv.mp4	0.0	221.06465530395508	0.09995603561401367
44	204.38057661056519	fix_pre	0		120	42.0	2.5	blank	1.0	221.1646113395691	1.0001466274261475
44	204.56420421600342	pulse	0	t		42.0	2.5	blank	1.0	221.34823894500732	
44	205.38072323799133	movie	1		300	42.0	2.5	blank	1.0	222.16475796699524	2.500408887863159
44	206.1644504070282	pulse	1	t		42.0	2.5	blank	1.0	222.9484851360321	
44	207.76461338996887	pulse	1	t		42.0	2.5	blank	1.0	224.54864811897278	
44	207.8811321258545	fix_post	2		12	42.0	2.5	blank	1.0	224.6651668548584	0.09998869895935059
45	207.98112082481384	fix_pre	0		120	43.0	2.5	/experiments/Knapen_AOT/AOT_stimuli/rescaled_final/0896_fw.mp4	0.0	224.76515555381775	1.0085439682006836
45	208.98966479301453	movie	1		284	43.0	2.5	/experiments/Knapen_AOT/AOT_stimuli/rescaled_final/0896_fw.mp4	0.0	225.77369952201843	2.491976737976074
45	209.36331152915955	pulse	1	t		43.0	2.5	/experiments/Knapen_AOT/AOT_stimuli/rescaled_final/0896_fw.mp4	0.0	226.14734625816345	
45	210.96310377120972	pulse	1	t		43.0	2.5	/experiments/Knapen_AOT/AOT_stimuli/rescaled_final/0896_fw.mp4	0.0	227.74713850021362	
45	211.4816415309906	fix_post	2		12	43.0	2.5	/experiments/Knapen_AOT/AOT_stimuli/rescaled_final/0896_fw.mp4	0.0	228.2656762599945	0.10002613067626953
46	211.58166766166687	fix_pre	0		119	44.0	2.5	/experiments/Knapen_AOT/AOT_stimuli/rescaled_final/1238_rv.mp4	0.0	228.36570239067078	1.0003383159637451
46	212.56553268432617	pulse	0	t		44.0	2.5	/experiments/Knapen_AOT/AOT_stimuli/rescaled_final/1238_rv.mp4	0.0	229.34956741333008	
46	212.58200597763062	movie	1		282	44.0	2.5	/experiments/Knapen_AOT/AOT_stimuli/rescaled_final/1238_rv.mp4	0.0	229.36604070663452	2.500189781188965
46	214.16431140899658	pulse	1	t		44.0	2.5	/experiments/Knapen_AOT/AOT_stimuli/rescaled_final/1238_rv.mp4	0.0	230.9483461380005	
46	215.08219575881958	fix_post	2		12	44.0	2.5	/experiments/Knapen_AOT/AOT_stimuli/rescaled_final/1238_rv.mp4	0.0	231.8662304878235	0.10005664825439453
47	215.18225240707397	fix_pre	0		120	45.0	2.5	/experiments/Knapen_AOT/AOT_stimuli/rescaled_final/1238_fw.mp4	0.0	231.96628713607788	1.0084447860717773
47	215.76587557792664	pulse	0	t		45.0	2.5	/experiments/Knapen_AOT/AOT_stimuli/rescaled_final/1238_fw.mp4	0.0	232.54991030693054	
47	216.19069719314575	movie	1		266	45.0	2.5	/experiments/Knapen_AOT/AOT_stimuli/rescaled_final/1238_fw.mp4	0.0	232.97473192214966	2.4920592308044434
47	217.36447739601135	pulse	1	t		45.0	2.5	/experiments/Knapen_AOT/AOT_stimuli/rescaled_final/1238_fw.mp4	0.0	234.14851212501526	
47	218.6827564239502	fix_post	2		12	45.0	2.5	/experiments/Knapen_AOT/AOT_stimuli/rescaled_final/1238_fw.mp4	0.0	235.4667911529541	0.09999299049377441
48	218.78274941444397	fix_pre	0		120	46.0	2.5	/experiments/Knapen_AOT/AOT_stimuli/rescaled_final/2104_rv.mp4	0.0	235.56678414344788	1.008462905883789
48	218.96631145477295	pulse	0	t		46.0	2.5	/experiments/Knapen_AOT/AOT_stimuli/rescaled_final/2104_rv.mp4	0.0	235.75034618377686	
48	219.79121232032776	movie	1		279	46.0	2.5	/experiments/Knapen_AOT/AOT_stimuli/rescaled_final/2104_rv.mp4	0.0	236.57524704933167	2.492062568664551
48	220.56502628326416	pulse	1	t		46.0	2.5	/experiments/Knapen_AOT/AOT_stimuli/rescaled_final/2104_rv.mp4	0.0	237.34906101226807	
48	222.1645839214325	pulse	1	t		46.0	2.5	/experiments/Knapen_AOT/AOT_stimuli/rescaled_final/2104_rv.mp4	0.0	238.9486186504364	
48	222.2832748889923	fix_post	2		12	46.0	2.5	/experiments/Knapen_AOT/AOT_stimuli/rescaled_final/2104_rv.mp4	0.0	239.06730961799622	0.10006952285766602
49	222.38334441184998	fix_pre	0		120	47.0	2.5	blank	1.0	239.16737914085388	1.0000803470611572
49	223.38342475891113	movie	1		300	47.0	2.5	blank	1.0	240.16745948791504	2.5003814697265625
49	223.76703214645386	pulse	1	t		47.0	2.5	blank	1.0	240.55106687545776	
49	225.36731433868408	pulse	1	t		47.0	2.5	blank	1.0	242.151349067688	
49	225.8838062286377	fix_post	2		12	47.0	2.5	blank	1.0	242.6678409576416	0.10001778602600098
50	225.9838240146637	fix_pre	0		119	48.0	2.5	/experiments/Knapen_AOT/AOT_stimuli/rescaled_final/0013_rv.mp4	0.0	242.7678587436676	1.0001587867736816
50	226.96760630607605	pulse	0	t		48.0	2.5	/experiments/Knapen_AOT/AOT_stimuli/rescaled_final/0013_rv.mp4	0.0	243.75164103507996	
50	226.98398280143738	movie	1		290	48.0	2.5	/experiments/Knapen_AOT/AOT_stimuli/rescaled_final/0013_rv.mp4	0.0	243.76801753044128	2.500371217727661
50	228.56634402275085	pulse	1	t		48.0	2.5	/experiments/Knapen_AOT/AOT_stimuli/rescaled_final/0013_rv.mp4	0.0	245.35037875175476	
50	229.48435401916504	fix_post	2		12	48.0	2.5	/experiments/Knapen_AOT/AOT_stimuli/rescaled_final/0013_rv.mp4	0.0	246.26838874816895	0.1000206470489502
51	229.584374666214	fix_pre	0		120	49.0	2.5	/experiments/Knapen_AOT/AOT_stimuli/rescaled_final/1987_fw.mp4	0.0	246.3684093952179	1.0084972381591797
51	230.16796922683716	pulse	0	t		49.0	2.5	/experiments/Knapen_AOT/AOT_stimuli/rescaled_final/1987_fw.mp4	0.0	246.95200395584106	
51	230.59287190437317	movie	1		284	49.0	2.5	/experiments/Knapen_AOT/AOT_stimuli/rescaled_final/1987_fw.mp4	0.0	247.37690663337708	2.492030382156372
51	231.76651000976562	pulse	1	t		49.0	2.5	/experiments/Knapen_AOT/AOT_stimuli/rescaled_final/1987_fw.mp4	0.0	248.55054473876953	
51	233.08490228652954	fix_post	2		12	49.0	2.5	/experiments/Knapen_AOT/AOT_stimuli/rescaled_final/1987_fw.mp4	0.0	249.86893701553345	0.09999847412109375
52	233.18490076065063	fix_pre	0		120	50.0	2.5	/experiments/Knapen_AOT/AOT_stimuli/rescaled_final/0338_fw.mp4	0.0	249.96893548965454	1.0085139274597168
52	233.36856198310852	pulse	0	t		50.0	2.5	/experiments/Knapen_AOT/AOT_stimuli/rescaled_final/0338_fw.mp4	0.0	250.15259671211243	
52	234.19341468811035	movie	1		289	50.0	2.5	/experiments/Knapen_AOT/AOT_stimuli/rescaled_final/0338_fw.mp4	0.0	250.97744941711426	2.492034912109375
52	234.96689295768738	pulse	1	t		50.0	2.5	/experiments/Knapen_AOT/AOT_stimuli/rescaled_final/0338_fw.mp4	0.0	251.75092768669128	
52	236.5670919418335	pulse	1	t		50.0	2.5	/experiments/Knapen_AOT/AOT_stimuli/rescaled_final/0338_fw.mp4	0.0	253.3511266708374	
52	236.68544960021973	fix_post	2		12	50.0	2.5	/experiments/Knapen_AOT/AOT_stimuli/rescaled_final/0338_fw.mp4	0.0	253.46948432922363	0.09998965263366699
53	236.7854392528534	fix_pre	0		120	51.0	2.5	/experiments/Knapen_AOT/AOT_stimuli/rescaled_final/0938_fw.mp4	0.0	253.5694739818573	1.0085022449493408
53	237.79394149780273	movie	1		259	51.0	2.5	/experiments/Knapen_AOT/AOT_stimuli/rescaled_final/0938_fw.mp4	0.0	254.57797622680664	2.4920263290405273
53	238.16933012008667	pulse	1	t		51.0	2.5	/experiments/Knapen_AOT/AOT_stimuli/rescaled_final/0938_fw.mp4	0.0	254.95336484909058	
53	239.76828479766846	pulse	1	t		51.0	2.5	/experiments/Knapen_AOT/AOT_stimuli/rescaled_final/0938_fw.mp4	0.0	256.55231952667236	
53	240.28596782684326	fix_post	2		12	51.0	2.5	/experiments/Knapen_AOT/AOT_stimuli/rescaled_final/0938_fw.mp4	0.0	257.07000255584717	0.10001754760742188
54	240.38598537445068	fix_pre	0		119	52.0	2.5	/experiments/Knapen_AOT/AOT_stimuli/rescaled_final/1805_fw.mp4	0.0	257.1700201034546	1.0001559257507324
54	241.36970376968384	pulse	0	t		52.0	2.5	/experiments/Knapen_AOT/AOT_stimuli/rescaled_final/1805_fw.mp4	0.0	258.15373849868774	
54	241.38614130020142	movie	1		287	52.0	2.5	/experiments/Knapen_AOT/AOT_stimuli/rescaled_final/1805_fw.mp4	0.0	258.1701760292053	2.5003745555877686
54	242.9701910018921	pulse	1	t		52.0	2.5	/experiments/Knapen_AOT/AOT_stimuli/rescaled_final/1805_fw.mp4	0.0	259.754225730896	
54	243.88651585578918	fix_post	2		12	52.0	2.5	/experiments/Knapen_AOT/AOT_stimuli/rescaled_final/1805_fw.mp4	0.0	260.6705505847931	0.10001206398010254
55	243.9865279197693	fix_pre	0		120	53.0	2.5	/experiments/Knapen_AOT/AOT_stimuli/rescaled_final/0824_rv.mp4	0.0	260.7705626487732	1.0085759162902832
55	244.57053351402283	pulse	0	t		53.0	2.5	/experiments/Knapen_AOT/AOT_stimuli/rescaled_final/0824_rv.mp4	0.0	261.35456824302673	
55	244.99510383605957	movie	1		282	53.0	2.5	/experiments/Knapen_AOT/AOT_stimuli/rescaled_final/0824_rv.mp4	0.0	261.7791385650635	2.491938352584839
55	246.16322422027588	pulse	1	t		53.0	2.5	/experiments/Knapen_AOT/AOT_stimuli/rescaled_final/0824_rv.mp4	0.0	262.9472589492798	
55	247.4870421886444	fix_post	2		12	53.0	2.5	/experiments/Knapen_AOT/AOT_stimuli/rescaled_final/0824_rv.mp4	0.0	264.2710769176483	0.10001397132873535
56	247.58705615997314	fix_pre	0		120	54.0	2.5	/experiments/Knapen_AOT/AOT_stimuli/rescaled_final/0881_fw.mp4	0.0	264.37109088897705	1.0085549354553223
56	247.77066612243652	pulse	0	t		54.0	2.5	/experiments/Knapen_AOT/AOT_stimuli/rescaled_final/0881_fw.mp4	0.0	264.55470085144043	
56	248.59561109542847	movie	1		272	54.0	2.5	/experiments/Knapen_AOT/AOT_stimuli/rescaled_final/0881_fw.mp4	0.0	265.3796458244324	2.492034673690796
56	249.36898255348206	pulse	1	t		54.0	2.5	/experiments/Knapen_AOT/AOT_stimuli/rescaled_final/0881_fw.mp4	0.0	266.15301728248596	
56	250.96907496452332	pulse	1	t		54.0	2.5	/experiments/Knapen_AOT/AOT_stimuli/rescaled_final/0881_fw.mp4	0.0	267.7531096935272	
56	251.08764576911926	fix_post	2		12	54.0	2.5	/experiments/Knapen_AOT/AOT_stimuli/rescaled_final/0881_fw.mp4	0.0	267.87168049812317	0.10000348091125488
57	251.18764925003052	fix_pre	0		120	55.0	2.5	blank	1.0	267.9716839790344	1.0000920295715332
57	252.18774127960205	movie	1		300	55.0	2.5	blank	1.0	268.97177600860596	2.5003843307495117
57	252.56343412399292	pulse	1	t		55.0	2.5	blank	1.0	269.3474688529968	
57	254.1633973121643	pulse	1	t		55.0	2.5	blank	1.0	270.9474320411682	
57	254.68812561035156	fix_post	2		12	55.0	2.5	blank	1.0	271.47216033935547	0.10003089904785156
58	254.7881565093994	fix_pre	0		118	56.0	2.5	/experiments/Knapen_AOT/AOT_stimuli/rescaled_final/0862_fw.mp4	0.0	271.5721912384033	0.991823673248291
58	255.7636559009552	pulse	0	t		56.0	2.5	/experiments/Knapen_AOT/AOT_stimuli/rescaled_final/0862_fw.mp4	0.0	272.5476906299591	
58	255.7799801826477	movie	1		279	56.0	2.5	/experiments/Knapen_AOT/AOT_stimuli/rescaled_final/0862_fw.mp4	0.0	272.5640149116516	2.5003654956817627
58	257.36392521858215	pulse	1	t		56.0	2.5	/experiments/Knapen_AOT/AOT_stimuli/rescaled_final/0862_fw.mp4	0.0	274.14795994758606	
58	258.28034567832947	fix_post	2		12	56.0	2.5	/experiments/Knapen_AOT/AOT_stimuli/rescaled_final/0862_fw.mp4	0.0	275.0643804073334	0.10003066062927246
59	258.38037633895874	fix_pre	0		120	57.0	2.5	/experiments/Knapen_AOT/AOT_stimuli/rescaled_final/1987_rv.mp4	0.0	275.16441106796265	1.0084986686706543
59	258.9640643596649	pulse	0	t		57.0	2.5	/experiments/Knapen_AOT/AOT_stimuli/rescaled_final/1987_rv.mp4	0.0	275.7480990886688	
59	259.3888750076294	movie	1		288	57.0	2.5	/experiments/Knapen_AOT/AOT_stimuli/rescaled_final/1987_rv.mp4	0.0	276.1729097366333	2.49208927154541
59	260.56439876556396	pulse	1	t		57.0	2.5	/experiments/Knapen_AOT/AOT_stimuli/rescaled_final/1987_rv.mp4	0.0	277.34843349456787	
59	261.8809642791748	fix_post	2		12	57.0	2.5	/experiments/Knapen_AOT/AOT_stimuli/rescaled_final/1987_rv.mp4	0.0	278.6649990081787	0.09995579719543457
60	261.98092007637024	fix_pre	0		120	58.0	2.5	/experiments/Knapen_AOT/AOT_stimuli/rescaled_final/0331_rv.mp4	0.0	278.76495480537415	1.008483648300171
60	262.164510011673	pulse	0	t		58.0	2.5	/experiments/Knapen_AOT/AOT_stimuli/rescaled_final/0331_rv.mp4	0.0	278.9485447406769	
60	262.9894037246704	movie	1		283	58.0	2.5	/experiments/Knapen_AOT/AOT_stimuli/rescaled_final/0331_rv.mp4	0.0	279.7734384536743	2.492037296295166
60	263.7633104324341	pulse	1	t		58.0	2.5	/experiments/Knapen_AOT/AOT_stimuli/rescaled_final/0331_rv.mp4	0.0	280.547345161438	
60	265.36538076400757	pulse	1	t		58.0	2.5	/experiments/Knapen_AOT/AOT_stimuli/rescaled_final/0331_rv.mp4	0.0	282.1494154930115	
60	265.4814410209656	fix_post	2		12	58.0	2.5	/experiments/Knapen_AOT/AOT_stimuli/rescaled_final/0331_rv.mp4	0.0	282.2654757499695	0.1000056266784668
61	265.58144664764404	fix_pre	0		120	59.0	2.5	/experiments/Knapen_AOT/AOT_stimuli/rescaled_final/1686_rv.mp4	0.0	282.36548137664795	1.0085155963897705
61	266.5899622440338	movie	1		265	59.0	2.5	/experiments/Knapen_AOT/AOT_stimuli/rescaled_final/1686_rv.mp4	0.0	283.3739969730377	2.4920008182525635
61	266.9637498855591	pulse	1	t		59.0	2.5	/experiments/Knapen_AOT/AOT_stimuli/rescaled_final/1686_rv.mp4	0.0	283.747784614563	
61	268.56540536880493	pulse	1	t		59.0	2.5	/experiments/Knapen_AOT/AOT_stimuli/rescaled_final/1686_rv.mp4	0.0	285.34944009780884	
61	269.0819630622864	fix_post	2		12	59.0	2.5	/experiments/Knapen_AOT/AOT_stimuli/rescaled_final/1686_rv.mp4	0.0	285.8659977912903	0.10003209114074707
62	269.1819951534271	fix_pre	0		119	60.0	2.5	/experiments/Knapen_AOT/AOT_stimuli/rescaled_final/1816_rv.mp4	0.0	285.96602988243103	1.0001497268676758
62	270.1656885147095	pulse	0	t		60.0	2.5	/experiments/Knapen_AOT/AOT_stimuli/rescaled_final/1816_rv.mp4	0.0	286.9497232437134	
62	270.1821448802948	movie	1		262	60.0	2.5	/experiments/Knapen_AOT/AOT_stimuli/rescaled_final/1816_rv.mp4	0.0	286.9661796092987	2.500361919403076
62	271.7653431892395	pulse	1	t		60.0	2.5	/experiments/Knapen_AOT/AOT_stimuli/rescaled_final/1816_rv.mp4	0.0	288.5493779182434	
62	272.6825067996979	fix_post	2		12	60.0	2.5	/experiments/Knapen_AOT/AOT_stimuli/rescaled_final/1816_rv.mp4	0.0	289.4665415287018	0.10019207000732422
63	272.7826988697052	fix_pre	0		120	61.0	2.5	blank	1.0	289.5667335987091	0.9999871253967285
63	273.3662531375885	pulse	0	t		61.0	2.5	blank	1.0	290.1502878665924	
63	273.78268599510193	movie	1		300	61.0	2.5	blank	1.0	290.56672072410583	2.500368118286133
63	274.96657705307007	pulse	1	t		61.0	2.5	blank	1.0	291.750611782074	
63	276.28305411338806	fix_post	2		12	61.0	2.5	blank	1.0	293.06708884239197	0.10022997856140137
64	276.38328409194946	fix_pre	0		120	62.0	2.5	/experiments/Knapen_AOT/AOT_stimuli/rescaled_final/1321_rv.mp4	0.0	293.16731882095337	1.0083510875701904
64	276.5667064189911	pulse	0	t		62.0	2.5	/experiments/Knapen_AOT/AOT_stimuli/rescaled_final/1321_rv.mp4	0.0	293.350741147995	
64	277.39163517951965	movie	1		283	62.0	2.5	/experiments/Knapen_AOT/AOT_stimuli/rescaled_final/1321_rv.mp4	0.0	294.17566990852356	2.4919676780700684
64	278.16496753692627	pulse	1	t		62.0	2.5	/experiments/Knapen_AOT/AOT_stimuli/rescaled_final/1321_rv.mp4	0.0	294.9490022659302	
64	279.7654299736023	pulse	1	t		62.0	2.5	/experiments/Knapen_AOT/AOT_stimuli/rescaled_final/1321_rv.mp4	0.0	296.5494647026062	
64	279.8836028575897	fix_post	2		12	62.0	2.5	/experiments/Knapen_AOT/AOT_stimuli/rescaled_final/1321_rv.mp4	0.0	296.6676375865936	0.1000216007232666
65	279.983624458313	fix_pre	0		120	63.0	2.5	/experiments/Knapen_AOT/AOT_stimuli/rescaled_final/1694_fw.mp4	0.0	296.7676591873169	1.0084905624389648
65	280.99211502075195	movie	1		268	63.0	2.5	/experiments/Knapen_AOT/AOT_stimuli/rescaled_final/1694_fw.mp4	0.0	297.77614974975586	2.4920196533203125
65	281.3657326698303	pulse	1	t		63.0	2.5	/experiments/Knapen_AOT/AOT_stimuli/rescaled_final/1694_fw.mp4	0.0	298.14976739883423	
65	282.96573519706726	pulse	1	t		63.0	2.5	/experiments/Knapen_AOT/AOT_stimuli/rescaled_final/1694_fw.mp4	0.0	299.74976992607117	
65	283.48413467407227	fix_post	2		12	63.0	2.5	/experiments/Knapen_AOT/AOT_stimuli/rescaled_final/1694_fw.mp4	0.0	300.2681694030762	0.10002422332763672
66	283.5841588973999	fix_pre	0		119	64.0	2.5	/experiments/Knapen_AOT/AOT_stimuli/rescaled_final/1346_rv.mp4	0.0	300.3681936264038	1.000091552734375
66	284.5680675506592	pulse	0	t		64.0	2.5	/experiments/Knapen_AOT/AOT_stimuli/rescaled_final/1346_rv.mp4	0.0	301.3521022796631	
66	284.5842504501343	movie	1		270	64.0	2.5	/experiments/Knapen_AOT/AOT_stimuli/rescaled_final/1346_rv.mp4	0.0	301.3682851791382	2.5004241466522217
66	286.16693663597107	pulse	1	t		64.0	2.5	/experiments/Knapen_AOT/AOT_stimuli/rescaled_final/1346_rv.mp4	0.0	302.950971364975	
66	287.0846745967865	fix_post	2		12	64.0	2.5	/experiments/Knapen_AOT/AOT_stimuli/rescaled_final/1346_rv.mp4	0.0	303.8687093257904	0.10003161430358887
67	287.1847062110901	fix_pre	0		120	65.0	2.5	/experiments/Knapen_AOT/AOT_stimuli/rescaled_final/0533_fw.mp4	0.0	303.968740940094	1.0085272789001465
67	287.7683460712433	pulse	0	t		65.0	2.5	/experiments/Knapen_AOT/AOT_stimuli/rescaled_final/0533_fw.mp4	0.0	304.5523808002472	
67	288.19323348999023	movie	1		266	65.0	2.5	/experiments/Knapen_AOT/AOT_stimuli/rescaled_final/0533_fw.mp4	0.0	304.97726821899414	2.4920082092285156
67	289.3671224117279	pulse	1	t		65.0	2.5	/experiments/Knapen_AOT/AOT_stimuli/rescaled_final/0533_fw.mp4	0.0	306.1511571407318	
67	290.68524169921875	fix_post	2		12	65.0	2.5	/experiments/Knapen_AOT/AOT_stimuli/rescaled_final/0533_fw.mp4	0.0	307.46927642822266	0.09998893737792969
68	290.7852306365967	fix_pre	0		120	66.0	2.5	/experiments/Knapen_AOT/AOT_stimuli/rescaled_final/1670_rv.mp4	0.0	307.5692653656006	1.0085344314575195
68	290.9688470363617	pulse	0	t		66.0	2.5	/experiments/Knapen_AOT/AOT_stimuli/rescaled_final/1670_rv.mp4	0.0	307.7528817653656	
68	291.7937650680542	movie	1		274	66.0	2.5	/experiments/Knapen_AOT/AOT_stimuli/rescaled_final/1670_rv.mp4	0.0	308.5777997970581	2.492020845413208
68	292.56709480285645	pulse	1	t		66.0	2.5	/experiments/Knapen_AOT/AOT_stimuli/rescaled_final/1670_rv.mp4	0.0	309.35112953186035	
68	294.167617559433	pulse	1	t		66.0	2.5	/experiments/Knapen_AOT/AOT_stimuli/rescaled_final/1670_rv.mp4	0.0	310.9516522884369	
68	294.2857859134674	fix_post	2		12	66.0	2.5	/experiments/Knapen_AOT/AOT_stimuli/rescaled_final/1670_rv.mp4	0.0	311.0698206424713	0.0999763011932373
69	294.38576221466064	fix_pre	0		120	67.0	2.5	/experiments/Knapen_AOT/AOT_stimuli/rescaled_final/0041_rv.mp4	0.0	311.16979694366455	1.0085060596466064
69	295.39426827430725	movie	1		280	67.0	2.5	/experiments/Knapen_AOT/AOT_stimuli/rescaled_final/0041_rv.mp4	0.0	312.17830300331116	2.4920814037323
69	295.7696816921234	pulse	1	t		67.0	2.5	/experiments/Knapen_AOT/AOT_stimuli/rescaled_final/0041_rv.mp4	0.0	312.5537164211273	
69	297.3692398071289	pulse	1	t		67.0	2.5	/experiments/Knapen_AOT/AOT_stimuli/rescaled_final/0041_rv.mp4	0.0	314.1532745361328	
69	297.88634967803955	fix_post	2		12	67.0	2.5	/experiments/Knapen_AOT/AOT_stimuli/rescaled_final/0041_rv.mp4	0.0	314.67038440704346	0.09999871253967285
70	297.9863483905792	fix_pre	0		119	68.0	2.5	/experiments/Knapen_AOT/AOT_stimuli/rescaled_final/1539_fw.mp4	0.0	314.77038311958313	1.008481740951538
70	298.96999192237854	pulse	0	t		68.0	2.5	/experiments/Knapen_AOT/AOT_stimuli/rescaled_final/1539_fw.mp4	0.0	315.75402665138245	
70	298.99483013153076	movie	1		277	68.0	2.5	/experiments/Knapen_AOT/AOT_stimuli/rescaled_final/1539_fw.mp4	0.0	315.77886486053467	2.4920051097869873
70	300.56865096092224	pulse	1	t		68.0	2.5	/experiments/Knapen_AOT/AOT_stimuli/rescaled_final/1539_fw.mp4	0.0	317.35268568992615	
70	301.48683524131775	fix_post	2		12	68.0	2.5	/experiments/Knapen_AOT/AOT_stimuli/rescaled_final/1539_fw.mp4	0.0	318.27086997032166	0.10005044937133789
71	301.5868856906891	fix_pre	0		120	69.0	2.5	blank	1.0	318.370920419693	1.0001766681671143
71	302.1705832481384	pulse	0	t		69.0	2.5	blank	1.0	318.95461797714233	
71	302.5870623588562	movie	1		300	69.0	2.5	blank	1.0	319.3710970878601	2.500410556793213
71	303.7709982395172	pulse	1	t		69.0	2.5	blank	1.0	320.5550329685211	
71	305.0874729156494	fix_post	2		12	69.0	2.5	blank	1.0	321.8715076446533	0.09991312026977539
72	305.1873860359192	fix_pre	0		120	70.0	2.5	/experiments/Knapen_AOT/AOT_stimuli/rescaled_final/1176_fw.mp4	0.0	321.9714207649231	1.0087099075317383
72	305.3711347579956	pulse	0	t		70.0	2.5	/experiments/Knapen_AOT/AOT_stimuli/rescaled_final/1176_fw.mp4	0.0	322.1551694869995	
72	306.1960959434509	movie	1		283	70.0	2.5	/experiments/Knapen_AOT/AOT_stimuli/rescaled_final/1176_fw.mp4	0.0	322.98013067245483	2.4918904304504395
72	306.96927070617676	pulse	1	t		70.0	2.5	/experiments/Knapen_AOT/AOT_stimuli/rescaled_final/1176_fw.mp4	0.0	323.75330543518066	
72	308.56993103027344	pulse	1	t		70.0	2.5	/experiments/Knapen_AOT/AOT_stimuli/rescaled_final/1176_fw.mp4	0.0	325.35396575927734	
72	308.68798637390137	fix_post	2		12	70.0	2.5	/experiments/Knapen_AOT/AOT_stimuli/rescaled_final/1176_fw.mp4	0.0	325.4720211029053	0.09993982315063477
73	308.787926197052	fix_pre	0		120	71.0	2.5	/experiments/Knapen_AOT/AOT_stimuli/rescaled_final/0761_fw.mp4	0.0	325.5719609260559	1.0085175037384033
73	309.7964437007904	movie	1		274	71.0	2.5	/experiments/Knapen_AOT/AOT_stimuli/rescaled_final/0761_fw.mp4	0.0	326.5804784297943	2.4920153617858887
73	310.17051005363464	pulse	1	t		71.0	2.5	/experiments/Knapen_AOT/AOT_stimuli/rescaled_final/0761_fw.mp4	0.0	326.95454478263855	
73	311.76385283470154	pulse	1	t		71.0	2.5	/experiments/Knapen_AOT/AOT_stimuli/rescaled_final/0761_fw.mp4	0.0	328.54788756370544	
73	312.2884590625763	fix_post	2		12	71.0	2.5	/experiments/Knapen_AOT/AOT_stimuli/rescaled_final/0761_fw.mp4	0.0	329.0724937915802	0.10001611709594727
74	312.38847517967224	fix_pre	0		118	72.0	2.5	/experiments/Knapen_AOT/AOT_stimuli/rescaled_final/0533_fw.mp4	0.0	329.17250990867615	0.9918406009674072
74	313.36389684677124	pulse	0	t		72.0	2.5	/experiments/Knapen_AOT/AOT_stimuli/rescaled_final/0533_fw.mp4	0.0	330.14793157577515	
74	313.38031578063965	movie	1		274	72.0	2.5	/experiments/Knapen_AOT/AOT_stimuli/rescaled_final/0533_fw.mp4	0.0	330.16435050964355	2.500351905822754
74	314.96425676345825	pulse	1	t		72.0	2.5	/experiments/Knapen_AOT/AOT_stimuli/rescaled_final/0533_fw.mp4	0.0	331.74829149246216	
74	315.8806676864624	fix_post	2		12	72.0	2.5	/experiments/Knapen_AOT/AOT_stimuli/rescaled_final/0533_fw.mp4	0.0	332.6647024154663	0.1000523567199707
75	315.9807200431824	fix_pre	0		120	73.0	2.5	/experiments/Knapen_AOT/AOT_stimuli/rescaled_final/1705_rv.mp4	0.0	332.7647547721863	1.0084595680236816
75	316.5644907951355	pulse	0	t		73.0	2.5	/experiments/Knapen_AOT/AOT_stimuli/rescaled_final/1705_rv.mp4	0.0	333.3485255241394	
75	316.98917961120605	movie	1		279	73.0	2.5	/experiments/Knapen_AOT/AOT_stimuli/rescaled_final/1705_rv.mp4	0.0	333.77321434020996	2.4920754432678223
75	318.1647415161133	pulse	1	t		73.0	2.5	/experiments/Knapen_AOT/AOT_stimuli/rescaled_final/1705_rv.mp4	0.0	334.9487762451172	
75	319.4812550544739	fix_post	2		12	73.0	2.5	/experiments/Knapen_AOT/AOT_stimuli/rescaled_final/1705_rv.mp4	0.0	336.2652897834778	0.09996771812438965
76	319.58122277259827	fix_pre	0		120	74.0	2.5	/experiments/Knapen_AOT/AOT_stimuli/rescaled_final/0914_fw.mp4	0.0	336.3652575016022	1.0085248947143555
76	319.76482486724854	pulse	0	t		74.0	2.5	/experiments/Knapen_AOT/AOT_stimuli/rescaled_final/0914_fw.mp4	0.0	336.54885959625244	
76	320.5897476673126	movie	1		263	74.0	2.5	/experiments/Knapen_AOT/AOT_stimuli/rescaled_final/0914_fw.mp4	0.0	337.3737823963165	2.4920382499694824
76	321.36517119407654	pulse	1	t		74.0	2.5	/experiments/Knapen_AOT/AOT_stimuli/rescaled_final/0914_fw.mp4	0.0	338.14920592308044	
76	322.9652695655823	pulse	1	t		74.0	2.5	/experiments/Knapen_AOT/AOT_stimuli/rescaled_final/0914_fw.mp4	0.0	339.7493042945862	
76	323.0817859172821	fix_post	2		12	74.0	2.5	/experiments/Knapen_AOT/AOT_stimuli/rescaled_final/0914_fw.mp4	0.0	339.865820646286	0.09999656677246094
77	323.18178248405457	fix_pre	0		120	75.0	2.5	/experiments/Knapen_AOT/AOT_stimuli/rescaled_final/1595_rv.mp4	0.0	339.9658172130585	1.0084812641143799
77	324.19026374816895	movie	1		264	75.0	2.5	/experiments/Knapen_AOT/AOT_stimuli/rescaled_final/1595_rv.mp4	0.0	340.97429847717285	2.492067575454712
77	324.56490540504456	pulse	1	t		75.0	2.5	/experiments/Knapen_AOT/AOT_stimuli/rescaled_final/1595_rv.mp4	0.0	341.34894013404846	
77	326.1645646095276	pulse	1	t		75.0	2.5	/experiments/Knapen_AOT/AOT_stimuli/rescaled_final/1595_rv.mp4	0.0	342.9485993385315	
77	326.68233132362366	fix_post	2		12	75.0	2.5	/experiments/Knapen_AOT/AOT_stimuli/rescaled_final/1595_rv.mp4	0.0	343.46636605262756	0.09997320175170898
78	326.78230452537537	fix_pre	0		119	76.0	2.5	blank	1.0	343.5663392543793	0.991952657699585
78	327.7661123275757	pulse	0	t		76.0	2.5	blank	1.0	344.5501470565796	
78	327.77425718307495	movie	1		301	76.0	2.5	blank	1.0	344.55829191207886	2.508575201034546
78	329.36626148223877	pulse	1	t		76.0	2.5	blank	1.0	346.1502962112427	
78	330.2828323841095	fix_post	2		12	76.0	2.5	blank	1.0	347.0668671131134	0.10004210472106934
79	330.38287448883057	fix_pre	0		120	77.0	2.5	/experiments/Knapen_AOT/AOT_stimuli/rescaled_final/1768_fw.mp4	0.0	347.1669092178345	1.0086421966552734
79	330.9665558338165	pulse	0	t		77.0	2.5	/experiments/Knapen_AOT/AOT_stimuli/rescaled_final/1768_fw.mp4	0.0	347.75059056282043	
79	331.39151668548584	movie	1		268	77.0	2.5	/experiments/Knapen_AOT/AOT_stimuli/rescaled_final/1768_fw.mp4	0.0	348.17555141448975	2.4919090270996094
79	332.56497597694397	pulse	1	t		77.0	2.5	/experiments/Knapen_AOT/AOT_stimuli/rescaled_final/1768_fw.mp4	0.0	349.3490107059479	
79	333.88342571258545	fix_post	2		12	77.0	2.5	/experiments/Knapen_AOT/AOT_stimuli/rescaled_final/1768_fw.mp4	0.0	350.66746044158936	0.09998273849487305
80	333.9834084510803	fix_pre	0		120	78.0	2.5	/experiments/Knapen_AOT/AOT_stimuli/rescaled_final/2104_fw.mp4	0.0	350.76744318008423	1.0086300373077393
80	334.1669907569885	pulse	0	t		78.0	2.5	/experiments/Knapen_AOT/AOT_stimuli/rescaled_final/2104_fw.mp4	0.0	350.95102548599243	
80	334.99203848838806	movie	1		270	78.0	2.5	/experiments/Knapen_AOT/AOT_stimuli/rescaled_final/2104_fw.mp4	0.0	351.77607321739197	2.4919166564941406
80	335.7673714160919	pulse	1	t		78.0	2.5	/experiments/Knapen_AOT/AOT_stimuli/rescaled_final/2104_fw.mp4	0.0	352.5514061450958	
80	337.3673725128174	pulse	1	t		78.0	2.5	/experiments/Knapen_AOT/AOT_stimuli/rescaled_final/2104_fw.mp4	0.0	354.1514072418213	
80	337.4839551448822	fix_post	2		12	78.0	2.5	/experiments/Knapen_AOT/AOT_stimuli/rescaled_final/2104_fw.mp4	0.0	354.2679898738861	0.0999908447265625
81	337.58394598960876	fix_pre	0		120	79.0	2.5	/experiments/Knapen_AOT/AOT_stimuli/rescaled_final/0047_fw.mp4	0.0	354.36798071861267	1.0084736347198486
81	338.5924196243286	movie	1		257	79.0	2.5	/experiments/Knapen_AOT/AOT_stimuli/rescaled_final/0047_fw.mp4	0.0	355.3764543533325	2.4921133518218994
81	338.9678485393524	pulse	1	t		79.0	2.5	/experiments/Knapen_AOT/AOT_stimuli/rescaled_final/0047_fw.mp4	0.0	355.7518832683563	
81	340.5657820701599	pulse	1	t		79.0	2.5	/experiments/Knapen_AOT/AOT_stimuli/rescaled_final/0047_fw.mp4	0.0	357.3498167991638	
81	341.0845329761505	fix_post	2		12	79.0	2.5	/experiments/Knapen_AOT/AOT_stimuli/rescaled_final/0047_fw.mp4	0.0	357.8685677051544	0.09995293617248535
82	341.184485912323	fix_pre	0		119	80.0	2.5	/experiments/Knapen_AOT/AOT_stimuli/rescaled_final/0081_rv.mp4	0.0	357.9685206413269	1.0086181163787842
82	342.1682951450348	pulse	0	t		80.0	2.5	/experiments/Knapen_AOT/AOT_stimuli/rescaled_final/0081_rv.mp4	0.0	358.9523298740387	
82	342.1931040287018	movie	1		273	80.0	2.5	/experiments/Knapen_AOT/AOT_stimuli/rescaled_final/0081_rv.mp4	0.0	358.9771387577057	2.4919557571411133
82	343.7671117782593	pulse	1	t		80.0	2.5	/experiments/Knapen_AOT/AOT_stimuli/rescaled_final/0081_rv.mp4	0.0	360.5511465072632	
82	344.6850597858429	fix_post	2		12	80.0	2.5	/experiments/Knapen_AOT/AOT_stimuli/rescaled_final/0081_rv.mp4	0.0	361.4690945148468	0.10000133514404297
83	344.78506112098694	fix_pre	0		120	81.0	2.5	/experiments/Knapen_AOT/AOT_stimuli/rescaled_final/1405_fw.mp4	0.0	361.56909584999084	1.0084950923919678
83	345.3688623905182	pulse	0	t		81.0	2.5	/experiments/Knapen_AOT/AOT_stimuli/rescaled_final/1405_fw.mp4	0.0	362.1528971195221	
83	345.7935562133789	movie	1		255	81.0	2.5	/experiments/Knapen_AOT/AOT_stimuli/rescaled_final/1405_fw.mp4	0.0	362.5775909423828	2.4920036792755127
83	346.96772146224976	pulse	1	t		81.0	2.5	/experiments/Knapen_AOT/AOT_stimuli/rescaled_final/1405_fw.mp4	0.0	363.75175619125366	
83	348.2855598926544	fix_post	2		12	81.0	2.5	/experiments/Knapen_AOT/AOT_stimuli/rescaled_final/1405_fw.mp4	0.0	365.0695946216583	0.10006356239318848
84	348.3856234550476	fix_pre	0		120	82.0	2.5	/experiments/Knapen_AOT/AOT_stimuli/rescaled_final/2088_rv.mp4	0.0	365.1696581840515	1.008418321609497
84	348.5691113471985	pulse	0	t		82.0	2.5	/experiments/Knapen_AOT/AOT_stimuli/rescaled_final/2088_rv.mp4	0.0	365.3531460762024	
84	349.3940417766571	movie	1		274	82.0	2.5	/experiments/Knapen_AOT/AOT_stimuli/rescaled_final/2088_rv.mp4	0.0	366.178076505661	2.492041826248169
84	350.1703634262085	pulse	1	t		82.0	2.5	/experiments/Knapen_AOT/AOT_stimuli/rescaled_final/2088_rv.mp4	0.0	366.9543981552124	
84	351.76748275756836	pulse	1	t		82.0	2.5	/experiments/Knapen_AOT/AOT_stimuli/rescaled_final/2088_rv.mp4	0.0	368.55151748657227	
84	351.8860836029053	fix_post	2		12	82.0	2.5	/experiments/Knapen_AOT/AOT_stimuli/rescaled_final/2088_rv.mp4	0.0	368.6701183319092	0.10001230239868164
85	351.98609590530396	fix_pre	0		120	83.0	2.5	blank	1.0	368.77013063430786	1.0002644062042236
85	352.9863603115082	movie	1		300	83.0	2.5	blank	1.0	369.7703950405121	2.5002810955047607
85	353.36992502212524	pulse	1	t		83.0	2.5	blank	1.0	370.15395975112915	
85	354.9701738357544	pulse	1	t		83.0	2.5	blank	1.0	371.7542085647583	
85	355.48664140701294	fix_post	2		12	83.0	2.5	blank	1.0	372.27067613601685	0.10005402565002441
87	355.58669543266296	stim	0		1716					372.37073016166687	14.302117586135864
87	356.57039308547974	pulse	0	t						373.35442781448364	
87	358.17072439193726	pulse	0	t						374.95475912094116	
87	359.7708992958069	pulse	0	t						376.5549340248108	
87	361.36354327201843	pulse	0	t						378.14757800102234	
87	362.96331334114075	pulse	0	t						379.74734807014465	
87	364.563241481781	pulse	0	t						381.3472762107849	
87	366.16340804100037	pulse	0	t						382.9474427700043	
87	367.76389384269714	pulse	0	t						384.54792857170105	
87	369.363920211792	pulse	0	t						386.1479549407959	
