trial_nr	onset	event_type	phase	response	nr_frames	movie_index	movie_duration	movie_file	blank	onset_abs	duration
0	0.1917119026184082	stim	0		68					39.222235918045044	0.566615104675293
0	0.7501919269561768	response	0	space						39.78071594238281	
1	0.7583270072937012	stim	0		4138					39.78885102272034	34.50055694580078
1	35.24406409263611	pulse	0	t						74.27458810806274	
1	35.25888395309448	stim	1		1715					74.28940796852112	14.298355102539062
1	36.83888602256775	pulse	1	t						75.86941003799438	
1	38.439122915267944	pulse	1	t						77.46964693069458	
1	40.03936696052551	pulse	1	t						79.06989097595215	
1	41.63967990875244	pulse	1	t						80.67020392417908	
1	43.23988699913025	pulse	1	t						82.27041101455688	
1	44.83255887031555	pulse	1	t						83.86308288574219	
1	46.43279004096985	pulse	1	t						85.46331405639648	
1	48.032984018325806	pulse	1	t						87.06350803375244	
2	49.557239055633545	fix_pre	0		11	0.0	2.5	/experiments/knapen_AOT/AOT_stimuli/rescaled_final/1421_fw.mp4	0.0	88.58776307106018	0.10021591186523438
2	49.63335704803467	pulse	0	t		0.0	2.5	/experiments/knapen_AOT/AOT_stimuli/rescaled_final/1421_fw.mp4	0.0	88.6638810634613	
2	49.65745496749878	movie	1		245	0.0	2.5	/experiments/knapen_AOT/AOT_stimuli/rescaled_final/1421_fw.mp4	0.0	88.68797898292542	2.5001981258392334
2	51.24165105819702	pulse	1	t		0.0	2.5	/experiments/knapen_AOT/AOT_stimuli/rescaled_final/1421_fw.mp4	0.0	90.27217507362366	
2	52.15765309333801	fix_post	2		12	0.0	2.5	/experiments/knapen_AOT/AOT_stimuli/rescaled_final/1421_fw.mp4	0.0	91.18817710876465	0.09999990463256836
3	52.25765299797058	fix_pre	0		120	1.0	2.5	/experiments/knapen_AOT/AOT_stimuli/rescaled_final/1314_fw.mp4	0.0	91.28817701339722	1.0001540184020996
3	52.832895040512085	pulse	0	t		1.0	2.5	/experiments/knapen_AOT/AOT_stimuli/rescaled_final/1314_fw.mp4	0.0	91.86341905593872	
3	53.25780701637268	movie	1		247	1.0	2.5	/experiments/knapen_AOT/AOT_stimuli/rescaled_final/1314_fw.mp4	0.0	92.28833103179932	2.5003700256347656
3	54.43776893615723	pulse	1	t		1.0	2.5	/experiments/knapen_AOT/AOT_stimuli/rescaled_final/1314_fw.mp4	0.0	93.46829295158386	
3	55.758177042007446	fix_post	2		12	1.0	2.5	/experiments/knapen_AOT/AOT_stimuli/rescaled_final/1314_fw.mp4	0.0	94.78870105743408	0.10001301765441895
4	55.858190059661865	fix_pre	0		120	2.0	2.5	/experiments/knapen_AOT/AOT_stimuli/rescaled_final/0569_rv.mp4	0.0	94.8887140750885	1.0001909732818604
4	56.03349709510803	pulse	0	t		2.0	2.5	/experiments/knapen_AOT/AOT_stimuli/rescaled_final/0569_rv.mp4	0.0	95.06402111053467	
4	56.858381032943726	movie	1		247	2.0	2.5	/experiments/knapen_AOT/AOT_stimuli/rescaled_final/0569_rv.mp4	0.0	95.88890504837036	2.5003340244293213
4	57.63379788398743	pulse	1	t		2.0	2.5	/experiments/knapen_AOT/AOT_stimuli/rescaled_final/0569_rv.mp4	0.0	96.66432189941406	
4	59.234095096588135	pulse	1	t		2.0	2.5	/experiments/knapen_AOT/AOT_stimuli/rescaled_final/0569_rv.mp4	0.0	98.26461911201477	
4	59.35871505737305	fix_post	2		12	2.0	2.5	/experiments/knapen_AOT/AOT_stimuli/rescaled_final/0569_rv.mp4	0.0	98.38923907279968	0.10004401206970215
5	59.45875906944275	fix_pre	0		119	3.0	2.5	/experiments/knapen_AOT/AOT_stimuli/rescaled_final/0995_fw.mp4	0.0	98.48928308486938	0.9921209812164307
5	60.45088005065918	movie	1		247	3.0	2.5	/experiments/knapen_AOT/AOT_stimuli/rescaled_final/0995_fw.mp4	0.0	99.48140406608582	2.500025987625122
5	60.83555006980896	pulse	1	t		3.0	2.5	/experiments/knapen_AOT/AOT_stimuli/rescaled_final/0995_fw.mp4	0.0	99.8660740852356	
5	62.434272050857544	pulse	1	t		3.0	2.5	/experiments/knapen_AOT/AOT_stimuli/rescaled_final/0995_fw.mp4	0.0	101.46479606628418	
5	62.9509060382843	fix_post	2		12	3.0	2.5	/experiments/knapen_AOT/AOT_stimuli/rescaled_final/0995_fw.mp4	0.0	101.98143005371094	0.1000070571899414
6	63.05091309547424	fix_pre	0		119	4.0	2.5	/experiments/knapen_AOT/AOT_stimuli/rescaled_final/0298_rv.mp4	0.0	102.08143711090088	0.9918949604034424
6	64.034658908844	pulse	0	t		4.0	2.5	/experiments/knapen_AOT/AOT_stimuli/rescaled_final/0298_rv.mp4	0.0	103.06518292427063	
6	64.04280805587769	movie	1		247	4.0	2.5	/experiments/knapen_AOT/AOT_stimuli/rescaled_final/0298_rv.mp4	0.0	103.07333207130432	2.5086610317230225
6	65.63641905784607	pulse	1	t		4.0	2.5	/experiments/knapen_AOT/AOT_stimuli/rescaled_final/0298_rv.mp4	0.0	104.6669430732727	
6	66.55146908760071	fix_post	2		12	4.0	2.5	/experiments/knapen_AOT/AOT_stimuli/rescaled_final/0298_rv.mp4	0.0	105.58199310302734	0.10004782676696777
7	66.65151691436768	fix_pre	0		120	5.0	2.5	/experiments/knapen_AOT/AOT_stimuli/rescaled_final/1698_fw.mp4	0.0	105.68204092979431	1.0001161098480225
7	67.23506808280945	pulse	0	t		5.0	2.5	/experiments/knapen_AOT/AOT_stimuli/rescaled_final/1698_fw.mp4	0.0	106.26559209823608	
7	67.6516330242157	movie	1		246	5.0	2.5	/experiments/knapen_AOT/AOT_stimuli/rescaled_final/1698_fw.mp4	0.0	106.68215703964233	2.500339984893799
7	68.83540201187134	pulse	1	t		5.0	2.5	/experiments/knapen_AOT/AOT_stimuli/rescaled_final/1698_fw.mp4	0.0	107.86592602729797	
7	70.1519730091095	fix_post	2		12	5.0	2.5	/experiments/knapen_AOT/AOT_stimuli/rescaled_final/1698_fw.mp4	0.0	109.18249702453613	0.10001587867736816
8	70.25198888778687	fix_pre	0		120	6.0	2.5	/experiments/knapen_AOT/AOT_stimuli/rescaled_final/0879_rv.mp4	0.0	109.2825129032135	1.0001811981201172
8	70.43570590019226	pulse	0	t		6.0	2.5	/experiments/knapen_AOT/AOT_stimuli/rescaled_final/0879_rv.mp4	0.0	109.4662299156189	
8	71.25217008590698	movie	1		247	6.0	2.5	/experiments/knapen_AOT/AOT_stimuli/rescaled_final/0879_rv.mp4	0.0	110.28269410133362	2.500365972518921
8	72.03592300415039	pulse	1	t		6.0	2.5	/experiments/knapen_AOT/AOT_stimuli/rescaled_final/0879_rv.mp4	0.0	111.06644701957703	
8	73.63611006736755	pulse	1	t		6.0	2.5	/experiments/knapen_AOT/AOT_stimuli/rescaled_final/0879_rv.mp4	0.0	112.66663408279419	
8	73.7525360584259	fix_post	2		12	6.0	2.5	/experiments/knapen_AOT/AOT_stimuli/rescaled_final/0879_rv.mp4	0.0	112.78306007385254	0.09999585151672363
9	73.85253190994263	fix_pre	0		120	7.0	2.5	blank	1.0	112.88305592536926	1.000115156173706
9	74.85264706611633	movie	1		299	7.0	2.5	blank	1.0	113.88317108154297	2.492079019546509
9	75.23623609542847	pulse	1	t		7.0	2.5	blank	1.0	114.2667601108551	
9	76.836580991745	pulse	1	t		7.0	2.5	blank	1.0	115.86710500717163	
9	77.34472608566284	fix_post	2		12	7.0	2.5	blank	1.0	116.37525010108948	0.09999799728393555
10	77.44472408294678	fix_pre	0		120	8.0	2.5	/experiments/knapen_AOT/AOT_stimuli/rescaled_final/0210_rv.mp4	0.0	116.47524809837341	1.0001559257507324
10	78.43687605857849	pulse	0	t		8.0	2.5	/experiments/knapen_AOT/AOT_stimuli/rescaled_final/0210_rv.mp4	0.0	117.46740007400513	
10	78.44488000869751	movie	1		248	8.0	2.5	/experiments/knapen_AOT/AOT_stimuli/rescaled_final/0210_rv.mp4	0.0	117.47540402412415	2.5087459087371826
10	80.0376648902893	pulse	1	t		8.0	2.5	/experiments/knapen_AOT/AOT_stimuli/rescaled_final/0210_rv.mp4	0.0	119.06818890571594	
10	80.95362591743469	fix_post	2		12	8.0	2.5	/experiments/knapen_AOT/AOT_stimuli/rescaled_final/0210_rv.mp4	0.0	119.98414993286133	0.09996914863586426
11	81.05359506607056	fix_pre	0		120	9.0	2.5	/experiments/knapen_AOT/AOT_stimuli/rescaled_final/0335_fw.mp4	0.0	120.08411908149719	1.000166893005371
11	81.63722109794617	pulse	0	t		9.0	2.5	/experiments/knapen_AOT/AOT_stimuli/rescaled_final/0335_fw.mp4	0.0	120.6677451133728	
11	82.05376195907593	movie	1		246	9.0	2.5	/experiments/knapen_AOT/AOT_stimuli/rescaled_final/0335_fw.mp4	0.0	121.08428597450256	2.5003409385681152
11	83.23761796951294	pulse	1	t		9.0	2.5	/experiments/knapen_AOT/AOT_stimuli/rescaled_final/0335_fw.mp4	0.0	122.26814198493958	
11	84.55410289764404	fix_post	2		12	9.0	2.5	/experiments/knapen_AOT/AOT_stimuli/rescaled_final/0335_fw.mp4	0.0	123.58462691307068	0.10005617141723633
12	84.65415906906128	fix_pre	0		120	10.0	2.5	/experiments/knapen_AOT/AOT_stimuli/rescaled_final/0601_fw.mp4	0.0	123.68468308448792	1.0001578330993652
12	84.83783388137817	pulse	0	t		10.0	2.5	/experiments/knapen_AOT/AOT_stimuli/rescaled_final/0601_fw.mp4	0.0	123.86835789680481	
12	85.65431690216064	movie	1		247	10.0	2.5	/experiments/knapen_AOT/AOT_stimuli/rescaled_final/0601_fw.mp4	0.0	124.68484091758728	2.500359058380127
12	86.43806886672974	pulse	1	t		10.0	2.5	/experiments/knapen_AOT/AOT_stimuli/rescaled_final/0601_fw.mp4	0.0	125.46859288215637	
12	88.03821086883545	pulse	1	t		10.0	2.5	/experiments/knapen_AOT/AOT_stimuli/rescaled_final/0601_fw.mp4	0.0	127.06873488426208	
12	88.15467596054077	fix_post	2		10	10.0	2.5	/experiments/knapen_AOT/AOT_stimuli/rescaled_final/0601_fw.mp4	0.0	127.18519997596741	0.10005497932434082
13	88.25473093986511	fix_pre	0		120	11.0	2.5	/experiments/knapen_AOT/AOT_stimuli/rescaled_final/0068_rv.mp4	0.0	127.28525495529175	1.0001189708709717
13	89.25484991073608	movie	1		245	11.0	2.5	/experiments/knapen_AOT/AOT_stimuli/rescaled_final/0068_rv.mp4	0.0	128.28537392616272	2.4920501708984375
13	89.63899302482605	pulse	1	t		11.0	2.5	/experiments/knapen_AOT/AOT_stimuli/rescaled_final/0068_rv.mp4	0.0	128.66951704025269	
13	91.23874592781067	pulse	1	t		11.0	2.5	/experiments/knapen_AOT/AOT_stimuli/rescaled_final/0068_rv.mp4	0.0	130.2692699432373	
13	91.74690008163452	fix_post	2		12	11.0	2.5	/experiments/knapen_AOT/AOT_stimuli/rescaled_final/0068_rv.mp4	0.0	130.77742409706116	0.10000896453857422
14	91.8469090461731	fix_pre	0		120	12.0	2.5	/experiments/knapen_AOT/AOT_stimuli/rescaled_final/0723_fw.mp4	0.0	130.87743306159973	1.0001978874206543
14	92.8390600681305	pulse	0	t		12.0	2.5	/experiments/knapen_AOT/AOT_stimuli/rescaled_final/0723_fw.mp4	0.0	131.86958408355713	
14	92.84710693359375	movie	1		249	12.0	2.5	/experiments/knapen_AOT/AOT_stimuli/rescaled_final/0723_fw.mp4	0.0	131.87763094902039	2.508641004562378
14	94.43961000442505	pulse	1	t		12.0	2.5	/experiments/knapen_AOT/AOT_stimuli/rescaled_final/0723_fw.mp4	0.0	133.47013401985168	
14	95.35574793815613	fix_post	2		12	12.0	2.5	/experiments/knapen_AOT/AOT_stimuli/rescaled_final/0723_fw.mp4	0.0	134.38627195358276	0.10003399848937988
15	95.45578193664551	fix_pre	0		120	13.0	2.5	/experiments/knapen_AOT/AOT_stimuli/rescaled_final/0651_rv.mp4	0.0	134.48630595207214	1.0001230239868164
15	96.03939008712769	pulse	0	t		13.0	2.5	/experiments/knapen_AOT/AOT_stimuli/rescaled_final/0651_rv.mp4	0.0	135.06991410255432	
15	96.45590496063232	movie	1		247	13.0	2.5	/experiments/knapen_AOT/AOT_stimuli/rescaled_final/0651_rv.mp4	0.0	135.48642897605896	2.5003910064697266
15	97.63972592353821	pulse	1	t		13.0	2.5	/experiments/knapen_AOT/AOT_stimuli/rescaled_final/0651_rv.mp4	0.0	136.67024993896484	
15	98.95629596710205	fix_post	2		12	13.0	2.5	/experiments/knapen_AOT/AOT_stimuli/rescaled_final/0651_rv.mp4	0.0	137.9868199825287	0.10006999969482422
16	99.05636596679688	fix_pre	0		120	14.0	2.5	blank	1.0	138.0868899822235	1.0001130104064941
16	99.23994708061218	pulse	0	t		14.0	2.5	blank	1.0	138.27047109603882	
16	100.05647897720337	movie	1		300	14.0	2.5	blank	1.0	139.08700299263	2.5003509521484375
16	100.84010291099548	pulse	1	t		14.0	2.5	blank	1.0	139.87062692642212	
16	102.44046092033386	pulse	1	t		14.0	2.5	blank	1.0	141.4709849357605	
16	102.5568299293518	fix_post	2		12	14.0	2.5	blank	1.0	141.58735394477844	0.09999608993530273
17	102.65682601928711	fix_pre	0		120	15.0	2.5	/experiments/knapen_AOT/AOT_stimuli/rescaled_final/1698_fw.mp4	0.0	141.68735003471375	1.0001518726348877
17	103.656977891922	movie	1		246	15.0	2.5	/experiments/knapen_AOT/AOT_stimuli/rescaled_final/1698_fw.mp4	0.0	142.68750190734863	2.492061138153076
17	104.04117393493652	pulse	1	t		15.0	2.5	/experiments/knapen_AOT/AOT_stimuli/rescaled_final/1698_fw.mp4	0.0	143.07169795036316	
17	105.6334490776062	pulse	1	t		15.0	2.5	/experiments/knapen_AOT/AOT_stimuli/rescaled_final/1698_fw.mp4	0.0	144.66397309303284	
17	106.14903903007507	fix_post	2		12	15.0	2.5	/experiments/knapen_AOT/AOT_stimuli/rescaled_final/1698_fw.mp4	0.0	145.1795630455017	0.10001587867736816
18	106.24905490875244	fix_pre	0		120	16.0	2.5	/experiments/knapen_AOT/AOT_stimuli/rescaled_final/0514_fw.mp4	0.0	145.27957892417908	1.0001881122589111
18	107.23358798027039	pulse	0	t		16.0	2.5	/experiments/knapen_AOT/AOT_stimuli/rescaled_final/0514_fw.mp4	0.0	146.26411199569702	
18	107.24924302101135	movie	1		247	16.0	2.5	/experiments/knapen_AOT/AOT_stimuli/rescaled_final/0514_fw.mp4	0.0	146.279767036438	2.5086679458618164
18	108.8465518951416	pulse	1	t		16.0	2.5	/experiments/knapen_AOT/AOT_stimuli/rescaled_final/0514_fw.mp4	0.0	147.87707591056824	
18	109.75791096687317	fix_post	2		12	16.0	2.5	/experiments/knapen_AOT/AOT_stimuli/rescaled_final/0514_fw.mp4	0.0	148.7884349822998	0.09998607635498047
19	109.85789704322815	fix_pre	0		120	17.0	2.5	/experiments/knapen_AOT/AOT_stimuli/rescaled_final/2128_fw.mp4	0.0	148.88842105865479	1.0001659393310547
19	110.43424701690674	pulse	0	t		17.0	2.5	/experiments/knapen_AOT/AOT_stimuli/rescaled_final/2128_fw.mp4	0.0	149.46477103233337	
19	110.8580629825592	movie	1		249	17.0	2.5	/experiments/knapen_AOT/AOT_stimuli/rescaled_final/2128_fw.mp4	0.0	149.88858699798584	2.5003340244293213
19	112.03422498703003	pulse	1	t		17.0	2.5	/experiments/knapen_AOT/AOT_stimuli/rescaled_final/2128_fw.mp4	0.0	151.06474900245667	
19	113.35839700698853	fix_post	2		12	17.0	2.5	/experiments/knapen_AOT/AOT_stimuli/rescaled_final/2128_fw.mp4	0.0	152.38892102241516	0.10003209114074707
20	113.45842909812927	fix_pre	0		120	18.0	2.5	/experiments/knapen_AOT/AOT_stimuli/rescaled_final/0651_fw.mp4	0.0	152.4889531135559	1.000199794769287
20	113.63361096382141	pulse	0	t		18.0	2.5	/experiments/knapen_AOT/AOT_stimuli/rescaled_final/0651_fw.mp4	0.0	152.66413497924805	
20	114.45862889289856	movie	1		246	18.0	2.5	/experiments/knapen_AOT/AOT_stimuli/rescaled_final/0651_fw.mp4	0.0	153.4891529083252	2.5003490447998047
20	115.23389005661011	pulse	1	t		18.0	2.5	/experiments/knapen_AOT/AOT_stimuli/rescaled_final/0651_fw.mp4	0.0	154.26441407203674	
20	116.83410000801086	pulse	1	t		18.0	2.5	/experiments/knapen_AOT/AOT_stimuli/rescaled_final/0651_fw.mp4	0.0	155.8646240234375	
20	116.95897793769836	fix_post	2		11	18.0	2.5	/experiments/knapen_AOT/AOT_stimuli/rescaled_final/0651_fw.mp4	0.0	155.989501953125	0.09167003631591797
21	117.05064797401428	fix_pre	0		120	19.0	2.5	/experiments/knapen_AOT/AOT_stimuli/rescaled_final/1380_fw.mp4	0.0	156.08117198944092	1.0001740455627441
21	118.05082201957703	movie	1		245	19.0	2.5	/experiments/knapen_AOT/AOT_stimuli/rescaled_final/1380_fw.mp4	0.0	157.08134603500366	2.5003578662872314
21	118.4356780052185	pulse	1	t		19.0	2.5	/experiments/knapen_AOT/AOT_stimuli/rescaled_final/1380_fw.mp4	0.0	157.46620202064514	
21	120.03468704223633	pulse	1	t		19.0	2.5	/experiments/knapen_AOT/AOT_stimuli/rescaled_final/1380_fw.mp4	0.0	159.06521105766296	
21	120.55117988586426	fix_post	2		12	19.0	2.5	/experiments/knapen_AOT/AOT_stimuli/rescaled_final/1380_fw.mp4	0.0	159.5817039012909	0.10003399848937988
22	120.65121388435364	fix_pre	0		119	20.0	2.5	/experiments/knapen_AOT/AOT_stimuli/rescaled_final/0208_fw.mp4	0.0	159.68173789978027	0.9917941093444824
22	121.63485097885132	pulse	0	t		20.0	2.5	/experiments/knapen_AOT/AOT_stimuli/rescaled_final/0208_fw.mp4	0.0	160.66537499427795	
22	121.64300799369812	movie	1		248	20.0	2.5	/experiments/knapen_AOT/AOT_stimuli/rescaled_final/0208_fw.mp4	0.0	160.67353200912476	2.5087060928344727
22	123.23567199707031	pulse	1	t		20.0	2.5	/experiments/knapen_AOT/AOT_stimuli/rescaled_final/0208_fw.mp4	0.0	162.26619601249695	
22	124.15171408653259	fix_post	2		12	20.0	2.5	/experiments/knapen_AOT/AOT_stimuli/rescaled_final/0208_fw.mp4	0.0	163.18223810195923	0.10001897811889648
23	124.25173306465149	fix_pre	0		120	21.0	2.5	blank	1.0	163.28225708007812	1.0001449584960938
23	124.83540296554565	pulse	0	t		21.0	2.5	blank	1.0	163.8659269809723	
23	125.25187802314758	movie	1		300	21.0	2.5	blank	1.0	164.28240203857422	2.5003669261932373
23	126.43574810028076	pulse	1	t		21.0	2.5	blank	1.0	165.4662721157074	
23	127.75224494934082	fix_post	2		12	21.0	2.5	blank	1.0	166.78276896476746	0.10006403923034668
24	127.85230898857117	fix_pre	0		120	22.0	2.5	/experiments/knapen_AOT/AOT_stimuli/rescaled_final/1299_fw.mp4	0.0	166.8828330039978	1.0001709461212158
24	128.03585410118103	pulse	0	t		22.0	2.5	/experiments/knapen_AOT/AOT_stimuli/rescaled_final/1299_fw.mp4	0.0	167.06637811660767	
24	128.85247993469238	movie	1		244	22.0	2.5	/experiments/knapen_AOT/AOT_stimuli/rescaled_final/1299_fw.mp4	0.0	167.88300395011902	2.5003480911254883
24	129.63604402542114	pulse	1	t		22.0	2.5	/experiments/knapen_AOT/AOT_stimuli/rescaled_final/1299_fw.mp4	0.0	168.66656804084778	
24	131.23639106750488	pulse	1	t		22.0	2.5	/experiments/knapen_AOT/AOT_stimuli/rescaled_final/1299_fw.mp4	0.0	170.26691508293152	
24	131.35282802581787	fix_post	2		12	22.0	2.5	/experiments/knapen_AOT/AOT_stimuli/rescaled_final/1299_fw.mp4	0.0	170.3833520412445	0.09995603561401367
25	131.45278406143188	fix_pre	0		120	23.0	2.5	/experiments/knapen_AOT/AOT_stimuli/rescaled_final/1615_fw.mp4	0.0	170.48330807685852	1.000166893005371
25	132.45295095443726	movie	1		245	23.0	2.5	/experiments/knapen_AOT/AOT_stimuli/rescaled_final/1615_fw.mp4	0.0	171.4834749698639	2.4920289516448975
25	132.8373749256134	pulse	1	t		23.0	2.5	/experiments/knapen_AOT/AOT_stimuli/rescaled_final/1615_fw.mp4	0.0	171.86789894104004	
25	134.43683099746704	pulse	1	t		23.0	2.5	/experiments/knapen_AOT/AOT_stimuli/rescaled_final/1615_fw.mp4	0.0	173.46735501289368	
25	134.94497990608215	fix_post	2		12	23.0	2.5	/experiments/knapen_AOT/AOT_stimuli/rescaled_final/1615_fw.mp4	0.0	173.9755039215088	0.10004210472106934
26	135.04502201080322	fix_pre	0		120	24.0	2.5	/experiments/knapen_AOT/AOT_stimuli/rescaled_final/1058_fw.mp4	0.0	174.07554602622986	1.0001158714294434
26	136.03712487220764	pulse	0	t		24.0	2.5	/experiments/knapen_AOT/AOT_stimuli/rescaled_final/1058_fw.mp4	0.0	175.06764888763428	
26	136.04513788223267	movie	1		250	24.0	2.5	/experiments/knapen_AOT/AOT_stimuli/rescaled_final/1058_fw.mp4	0.0	175.0756618976593	2.5087380409240723
26	137.63782501220703	pulse	1	t		24.0	2.5	/experiments/knapen_AOT/AOT_stimuli/rescaled_final/1058_fw.mp4	0.0	176.66834902763367	
26	138.55387592315674	fix_post	2		12	24.0	2.5	/experiments/knapen_AOT/AOT_stimuli/rescaled_final/1058_fw.mp4	0.0	177.58439993858337	0.1000361442565918
27	138.65391206741333	fix_pre	0		120	25.0	2.5	/experiments/knapen_AOT/AOT_stimuli/rescaled_final/0044_rv.mp4	0.0	177.68443608283997	1.0000829696655273
27	139.23763608932495	pulse	0	t		25.0	2.5	/experiments/knapen_AOT/AOT_stimuli/rescaled_final/0044_rv.mp4	0.0	178.2681601047516	
27	139.65399503707886	movie	1		247	25.0	2.5	/experiments/knapen_AOT/AOT_stimuli/rescaled_final/0044_rv.mp4	0.0	178.6845190525055	2.500417947769165
27	140.8340129852295	pulse	1	t		25.0	2.5	/experiments/knapen_AOT/AOT_stimuli/rescaled_final/0044_rv.mp4	0.0	179.86453700065613	
27	142.15441298484802	fix_post	2		12	25.0	2.5	/experiments/knapen_AOT/AOT_stimuli/rescaled_final/0044_rv.mp4	0.0	181.18493700027466	0.10001802444458008
28	142.2544310092926	fix_pre	0		120	26.0	2.5	blank	1.0	181.28495502471924	1.0001299381256104
28	142.4379758834839	pulse	0	t		26.0	2.5	blank	1.0	181.46849989891052	
28	143.2545609474182	movie	1		300	26.0	2.5	blank	1.0	182.28508496284485	2.500396966934204
28	144.03814101219177	pulse	1	t		26.0	2.5	blank	1.0	183.0686650276184	
28	145.63843297958374	pulse	1	t		26.0	2.5	blank	1.0	184.66895699501038	
28	145.75495791435242	fix_post	2		12	26.0	2.5	blank	1.0	184.78548192977905	0.09997200965881348
29	145.85492992401123	fix_pre	0		120	27.0	2.5	/experiments/knapen_AOT/AOT_stimuli/rescaled_final/1306_fw.mp4	0.0	184.88545393943787	1.0001561641693115
29	146.85508608818054	movie	1		250	27.0	2.5	/experiments/knapen_AOT/AOT_stimuli/rescaled_final/1306_fw.mp4	0.0	185.88561010360718	2.492036819458008
29	147.23994302749634	pulse	1	t		27.0	2.5	/experiments/knapen_AOT/AOT_stimuli/rescaled_final/1306_fw.mp4	0.0	186.27046704292297	
29	148.83895707130432	pulse	1	t		27.0	2.5	/experiments/knapen_AOT/AOT_stimuli/rescaled_final/1306_fw.mp4	0.0	187.86948108673096	
29	149.34712290763855	fix_post	2		12	27.0	2.5	/experiments/knapen_AOT/AOT_stimuli/rescaled_final/1306_fw.mp4	0.0	188.37764692306519	0.100067138671875
30	149.44719004631042	fix_pre	0		120	28.0	2.5	/experiments/knapen_AOT/AOT_stimuli/rescaled_final/0080_rv.mp4	0.0	188.47771406173706	1.0001299381256104
30	150.43912196159363	pulse	0	t		28.0	2.5	/experiments/knapen_AOT/AOT_stimuli/rescaled_final/0080_rv.mp4	0.0	189.46964597702026	
30	150.44731998443604	movie	1		248	28.0	2.5	/experiments/knapen_AOT/AOT_stimuli/rescaled_final/0080_rv.mp4	0.0	189.47784399986267	2.508671998977661
30	152.03998589515686	pulse	1	t		28.0	2.5	/experiments/knapen_AOT/AOT_stimuli/rescaled_final/0080_rv.mp4	0.0	191.0705099105835	
30	152.9559919834137	fix_post	2		12	28.0	2.5	/experiments/knapen_AOT/AOT_stimuli/rescaled_final/0080_rv.mp4	0.0	191.98651599884033	0.10002899169921875
31	153.05602097511292	fix_pre	0		120	29.0	2.5	/experiments/knapen_AOT/AOT_stimuli/rescaled_final/1893_fw.mp4	0.0	192.08654499053955	1.0001730918884277
31	153.6397569179535	pulse	0	t		29.0	2.5	/experiments/knapen_AOT/AOT_stimuli/rescaled_final/1893_fw.mp4	0.0	192.67028093338013	
31	154.05619406700134	movie	1		254	29.0	2.5	/experiments/knapen_AOT/AOT_stimuli/rescaled_final/1893_fw.mp4	0.0	193.08671808242798	2.500363826751709
31	155.2400689125061	pulse	1	t		29.0	2.5	/experiments/knapen_AOT/AOT_stimuli/rescaled_final/1893_fw.mp4	0.0	194.27059292793274	
31	156.55655789375305	fix_post	2		12	29.0	2.5	/experiments/knapen_AOT/AOT_stimuli/rescaled_final/1893_fw.mp4	0.0	195.5870819091797	0.10006403923034668
32	156.6566219329834	fix_pre	0		120	30.0	2.5	/experiments/knapen_AOT/AOT_stimuli/rescaled_final/1458_rv.mp4	0.0	195.68714594841003	1.0001349449157715
32	156.8401050567627	pulse	0	t		30.0	2.5	/experiments/knapen_AOT/AOT_stimuli/rescaled_final/1458_rv.mp4	0.0	195.87062907218933	
32	157.65675687789917	movie	1		254	30.0	2.5	/experiments/knapen_AOT/AOT_stimuli/rescaled_final/1458_rv.mp4	0.0	196.6872808933258	2.500336170196533
32	158.43297290802002	pulse	1	t		30.0	2.5	/experiments/knapen_AOT/AOT_stimuli/rescaled_final/1458_rv.mp4	0.0	197.46349692344666	
32	160.03302597999573	pulse	1	t		30.0	2.5	/experiments/knapen_AOT/AOT_stimuli/rescaled_final/1458_rv.mp4	0.0	199.06354999542236	
32	160.1570930480957	fix_post	2		11	30.0	2.5	/experiments/knapen_AOT/AOT_stimuli/rescaled_final/1458_rv.mp4	0.0	199.18761706352234	0.09175300598144531
33	160.24884605407715	fix_pre	0		120	31.0	2.5	/experiments/knapen_AOT/AOT_stimuli/rescaled_final/1424_fw.mp4	0.0	199.27937006950378	1.0000598430633545
33	161.2489058971405	movie	1		244	31.0	2.5	/experiments/knapen_AOT/AOT_stimuli/rescaled_final/1424_fw.mp4	0.0	200.27942991256714	2.50040602684021
33	161.63308906555176	pulse	1	t		31.0	2.5	/experiments/knapen_AOT/AOT_stimuli/rescaled_final/1424_fw.mp4	0.0	200.6636130809784	
33	163.2337670326233	pulse	1	t		31.0	2.5	/experiments/knapen_AOT/AOT_stimuli/rescaled_final/1424_fw.mp4	0.0	202.26429104804993	
33	163.7493119239807	fix_post	2		12	31.0	2.5	/experiments/knapen_AOT/AOT_stimuli/rescaled_final/1424_fw.mp4	0.0	202.77983593940735	0.09997701644897461
34	163.8492889404297	fix_pre	0		120	32.0	2.5	/experiments/knapen_AOT/AOT_stimuli/rescaled_final/0210_fw.mp4	0.0	202.87981295585632	1.0001599788665771
34	164.83386397361755	pulse	0	t		32.0	2.5	/experiments/knapen_AOT/AOT_stimuli/rescaled_final/0210_fw.mp4	0.0	203.8643879890442	
34	164.84944891929626	movie	1		245	32.0	2.5	/experiments/knapen_AOT/AOT_stimuli/rescaled_final/0210_fw.mp4	0.0	203.8799729347229	2.5087289810180664
34	166.43325209617615	pulse	1	t		32.0	2.5	/experiments/knapen_AOT/AOT_stimuli/rescaled_final/0210_fw.mp4	0.0	205.46377611160278	
34	167.35817790031433	fix_post	2		12	32.0	2.5	/experiments/knapen_AOT/AOT_stimuli/rescaled_final/0210_fw.mp4	0.0	206.38870191574097	0.10005998611450195
35	167.45823788642883	fix_pre	0		120	33.0	2.5	blank	1.0	206.48876190185547	1.0000691413879395
35	168.03340792655945	pulse	0	t		33.0	2.5	blank	1.0	207.06393194198608	
35	168.45830702781677	movie	1		300	33.0	2.5	blank	1.0	207.4888310432434	2.500396966934204
35	169.63370299339294	pulse	1	t		33.0	2.5	blank	1.0	208.66422700881958	
35	170.95870399475098	fix_post	2		12	33.0	2.5	blank	1.0	209.9892280101776	0.09999203681945801
36	171.05869603157043	fix_pre	0		120	34.0	2.5	/experiments/knapen_AOT/AOT_stimuli/rescaled_final/0530_fw.mp4	0.0	210.08922004699707	1.0001518726348877
36	171.23403406143188	pulse	0	t		34.0	2.5	/experiments/knapen_AOT/AOT_stimuli/rescaled_final/0530_fw.mp4	0.0	210.26455807685852	
36	172.05884790420532	movie	1		243	34.0	2.5	/experiments/knapen_AOT/AOT_stimuli/rescaled_final/0530_fw.mp4	0.0	211.08937191963196	2.492065191268921
36	172.83416509628296	pulse	1	t		34.0	2.5	/experiments/knapen_AOT/AOT_stimuli/rescaled_final/0530_fw.mp4	0.0	211.8646891117096	
36	174.43445992469788	pulse	1	t		34.0	2.5	/experiments/knapen_AOT/AOT_stimuli/rescaled_final/0530_fw.mp4	0.0	213.4649839401245	
36	174.55091309547424	fix_post	2		12	34.0	2.5	/experiments/knapen_AOT/AOT_stimuli/rescaled_final/0530_fw.mp4	0.0	213.58143711090088	0.1000509262084961
37	174.65096402168274	fix_pre	0		120	35.0	2.5	/experiments/knapen_AOT/AOT_stimuli/rescaled_final/1660_rv.mp4	0.0	213.68148803710938	1.0001170635223389
37	175.65108108520508	movie	1		245	35.0	2.5	/experiments/knapen_AOT/AOT_stimuli/rescaled_final/1660_rv.mp4	0.0	214.6816051006317	2.5003488063812256
37	176.03506994247437	pulse	1	t		35.0	2.5	/experiments/knapen_AOT/AOT_stimuli/rescaled_final/1660_rv.mp4	0.0	215.065593957901	
37	177.63491797447205	pulse	1	t		35.0	2.5	/experiments/knapen_AOT/AOT_stimuli/rescaled_final/1660_rv.mp4	0.0	216.66544198989868	
37	178.1514298915863	fix_post	2		12	35.0	2.5	/experiments/knapen_AOT/AOT_stimuli/rescaled_final/1660_rv.mp4	0.0	217.18195390701294	0.09998607635498047
38	178.25141596794128	fix_pre	0		119	36.0	2.5	/experiments/knapen_AOT/AOT_stimuli/rescaled_final/1968_rv.mp4	0.0	217.28193998336792	0.991879940032959
38	179.23510003089905	pulse	0	t		36.0	2.5	/experiments/knapen_AOT/AOT_stimuli/rescaled_final/1968_rv.mp4	0.0	218.26562404632568	
38	179.24329590797424	movie	1		246	36.0	2.5	/experiments/knapen_AOT/AOT_stimuli/rescaled_final/1968_rv.mp4	0.0	218.27381992340088	2.5086731910705566
38	180.8367738723755	pulse	1	t		36.0	2.5	/experiments/knapen_AOT/AOT_stimuli/rescaled_final/1968_rv.mp4	0.0	219.86729788780212	
38	181.7519690990448	fix_post	2		12	36.0	2.5	/experiments/knapen_AOT/AOT_stimuli/rescaled_final/1968_rv.mp4	0.0	220.78249311447144	0.10001897811889648
39	181.8519880771637	fix_pre	0		120	37.0	2.5	/experiments/knapen_AOT/AOT_stimuli/rescaled_final/1467_fw.mp4	0.0	220.88251209259033	1.0001540184020996
39	182.4356029033661	pulse	0	t		37.0	2.5	/experiments/knapen_AOT/AOT_stimuli/rescaled_final/1467_fw.mp4	0.0	221.46612691879272	
39	182.8521420955658	movie	1		244	37.0	2.5	/experiments/knapen_AOT/AOT_stimuli/rescaled_final/1467_fw.mp4	0.0	221.88266611099243	2.5003387928009033
39	184.03593707084656	pulse	1	t		37.0	2.5	/experiments/knapen_AOT/AOT_stimuli/rescaled_final/1467_fw.mp4	0.0	223.0664610862732	
39	185.3524808883667	fix_post	2		12	37.0	2.5	/experiments/knapen_AOT/AOT_stimuli/rescaled_final/1467_fw.mp4	0.0	224.38300490379333	0.10002017021179199
40	185.4525010585785	fix_pre	0		120	38.0	2.5	/experiments/knapen_AOT/AOT_stimuli/rescaled_final/2086_rv.mp4	0.0	224.48302507400513	1.0001928806304932
40	185.63604402542114	pulse	0	t		38.0	2.5	/experiments/knapen_AOT/AOT_stimuli/rescaled_final/2086_rv.mp4	0.0	224.66656804084778	
40	186.45269393920898	movie	1		245	38.0	2.5	/experiments/knapen_AOT/AOT_stimuli/rescaled_final/2086_rv.mp4	0.0	225.48321795463562	2.5003409385681152
40	187.23631405830383	pulse	1	t		38.0	2.5	/experiments/knapen_AOT/AOT_stimuli/rescaled_final/2086_rv.mp4	0.0	226.26683807373047	
40	188.83417391777039	pulse	1	t		38.0	2.5	/experiments/knapen_AOT/AOT_stimuli/rescaled_final/2086_rv.mp4	0.0	227.86469793319702	
40	188.9530348777771	fix_post	2		12	38.0	2.5	/experiments/knapen_AOT/AOT_stimuli/rescaled_final/2086_rv.mp4	0.0	227.98355889320374	0.10001802444458008
41	189.05305290222168	fix_pre	0		119	39.0	2.5	/experiments/knapen_AOT/AOT_stimuli/rescaled_final/1296_rv.mp4	0.0	228.08357691764832	0.9918091297149658
41	190.04486203193665	movie	1		245	39.0	2.5	/experiments/knapen_AOT/AOT_stimuli/rescaled_final/1296_rv.mp4	0.0	229.07538604736328	2.500347852706909
41	190.4369170665741	pulse	1	t		39.0	2.5	/experiments/knapen_AOT/AOT_stimuli/rescaled_final/1296_rv.mp4	0.0	229.46744108200073	
41	192.03705406188965	pulse	1	t		39.0	2.5	/experiments/knapen_AOT/AOT_stimuli/rescaled_final/1296_rv.mp4	0.0	231.06757807731628	
41	192.54520988464355	fix_post	2		12	39.0	2.5	/experiments/knapen_AOT/AOT_stimuli/rescaled_final/1296_rv.mp4	0.0	231.5757339000702	0.10003399848937988
42	192.64524388313293	fix_pre	0		120	40.0	2.5	blank	1.0	231.67576789855957	1.000169038772583
42	193.63724207878113	pulse	0	t		40.0	2.5	blank	1.0	232.66776609420776	
42	193.64541292190552	movie	1		301	40.0	2.5	blank	1.0	232.67593693733215	2.5087080001831055
42	195.23746800422668	pulse	1	t		40.0	2.5	blank	1.0	234.26799201965332	
42	196.15412092208862	fix_post	2		12	40.0	2.5	blank	1.0	235.18464493751526	0.1000821590423584
43	196.25420308113098	fix_pre	0		120	41.0	2.5	/experiments/knapen_AOT/AOT_stimuli/rescaled_final/2086_fw.mp4	0.0	235.28472709655762	1.000074863433838
43	196.83775806427002	pulse	0	t		41.0	2.5	/experiments/knapen_AOT/AOT_stimuli/rescaled_final/2086_fw.mp4	0.0	235.86828207969666	
43	197.25427794456482	movie	1		244	41.0	2.5	/experiments/knapen_AOT/AOT_stimuli/rescaled_final/2086_fw.mp4	0.0	236.28480195999146	2.5003700256347656
43	198.43817591667175	pulse	1	t		41.0	2.5	/experiments/knapen_AOT/AOT_stimuli/rescaled_final/2086_fw.mp4	0.0	237.4686999320984	
43	199.75464797019958	fix_post	2		12	41.0	2.5	/experiments/knapen_AOT/AOT_stimuli/rescaled_final/2086_fw.mp4	0.0	238.78517198562622	0.10002613067626953
44	199.85467410087585	fix_pre	0		120	42.0	2.5	/experiments/knapen_AOT/AOT_stimuli/rescaled_final/0725_rv.mp4	0.0	238.8851981163025	1.0001609325408936
44	200.0382399559021	pulse	0	t		42.0	2.5	/experiments/knapen_AOT/AOT_stimuli/rescaled_final/0725_rv.mp4	0.0	239.06876397132874	
44	200.85483503341675	movie	1		246	42.0	2.5	/experiments/knapen_AOT/AOT_stimuli/rescaled_final/0725_rv.mp4	0.0	239.88535904884338	2.5003528594970703
44	201.63856196403503	pulse	1	t		42.0	2.5	/experiments/knapen_AOT/AOT_stimuli/rescaled_final/0725_rv.mp4	0.0	240.66908597946167	
44	203.23872804641724	pulse	1	t		42.0	2.5	/experiments/knapen_AOT/AOT_stimuli/rescaled_final/0725_rv.mp4	0.0	242.26925206184387	
44	203.35518789291382	fix_post	2		12	42.0	2.5	/experiments/knapen_AOT/AOT_stimuli/rescaled_final/0725_rv.mp4	0.0	242.38571190834045	0.10002017021179199
45	203.4552080631256	fix_pre	0		119	43.0	2.5	/experiments/knapen_AOT/AOT_stimuli/rescaled_final/1164_rv.mp4	0.0	242.48573207855225	0.9918029308319092
45	204.44701099395752	movie	1		245	43.0	2.5	/experiments/knapen_AOT/AOT_stimuli/rescaled_final/1164_rv.mp4	0.0	243.47753500938416	2.500369071960449
45	204.83913397789001	pulse	1	t		43.0	2.5	/experiments/knapen_AOT/AOT_stimuli/rescaled_final/1164_rv.mp4	0.0	243.86965799331665	
45	206.43915796279907	pulse	1	t		43.0	2.5	/experiments/knapen_AOT/AOT_stimuli/rescaled_final/1164_rv.mp4	0.0	245.4696819782257	
45	206.94738006591797	fix_post	2		9	43.0	2.5	/experiments/knapen_AOT/AOT_stimuli/rescaled_final/1164_rv.mp4	0.0	245.9779040813446	0.10007095336914062
46	207.0474510192871	fix_pre	0		120	44.0	2.5	/experiments/knapen_AOT/AOT_stimuli/rescaled_final/0387_rv.mp4	0.0	246.07797503471375	1.0001320838928223
46	208.0394299030304	pulse	0	t		44.0	2.5	/experiments/knapen_AOT/AOT_stimuli/rescaled_final/0387_rv.mp4	0.0	247.06995391845703	
46	208.04758310317993	movie	1		246	44.0	2.5	/experiments/knapen_AOT/AOT_stimuli/rescaled_final/0387_rv.mp4	0.0	247.07810711860657	2.5086557865142822
46	209.64060187339783	pulse	1	t		44.0	2.5	/experiments/knapen_AOT/AOT_stimuli/rescaled_final/0387_rv.mp4	0.0	248.67112588882446	
46	210.5562388896942	fix_post	2		12	44.0	2.5	/experiments/knapen_AOT/AOT_stimuli/rescaled_final/0387_rv.mp4	0.0	249.58676290512085	0.10014820098876953
47	210.65638709068298	fix_pre	0		120	45.0	2.5	/experiments/knapen_AOT/AOT_stimuli/rescaled_final/1639_rv.mp4	0.0	249.68691110610962	1.0000908374786377
47	211.23991298675537	pulse	0	t		45.0	2.5	/experiments/knapen_AOT/AOT_stimuli/rescaled_final/1639_rv.mp4	0.0	250.270437002182	
47	211.65647792816162	movie	1		244	45.0	2.5	/experiments/knapen_AOT/AOT_stimuli/rescaled_final/1639_rv.mp4	0.0	250.68700194358826	2.5003349781036377
47	212.84024095535278	pulse	1	t		45.0	2.5	/experiments/knapen_AOT/AOT_stimuli/rescaled_final/1639_rv.mp4	0.0	251.87076497077942	
47	214.15681290626526	fix_post	2		12	45.0	2.5	/experiments/knapen_AOT/AOT_stimuli/rescaled_final/1639_rv.mp4	0.0	253.1873369216919	0.10000109672546387
48	214.25681400299072	fix_pre	0		120	46.0	2.5	/experiments/knapen_AOT/AOT_stimuli/rescaled_final/1704_rv.mp4	0.0	253.28733801841736	1.0001349449157715
48	214.4404170513153	pulse	0	t		46.0	2.5	/experiments/knapen_AOT/AOT_stimuli/rescaled_final/1704_rv.mp4	0.0	253.47094106674194	
48	215.2569489479065	movie	1		245	46.0	2.5	/experiments/knapen_AOT/AOT_stimuli/rescaled_final/1704_rv.mp4	0.0	254.28747296333313	2.500412940979004
48	216.04065108299255	pulse	1	t		46.0	2.5	/experiments/knapen_AOT/AOT_stimuli/rescaled_final/1704_rv.mp4	0.0	255.0711750984192	
48	217.64083909988403	pulse	1	t		46.0	2.5	/experiments/knapen_AOT/AOT_stimuli/rescaled_final/1704_rv.mp4	0.0	256.67136311531067	
48	217.7573618888855	fix_post	2		12	46.0	2.5	/experiments/knapen_AOT/AOT_stimuli/rescaled_final/1704_rv.mp4	0.0	256.78788590431213	0.1000070571899414
49	217.85736894607544	fix_pre	0		120	47.0	2.5	blank	1.0	256.8878929615021	1.0001170635223389
49	218.85748600959778	movie	1		299	47.0	2.5	blank	1.0	257.8880100250244	2.4920480251312256
49	219.2328701019287	pulse	1	t		47.0	2.5	blank	1.0	258.26339411735535	
49	220.8330020904541	pulse	1	t		47.0	2.5	blank	1.0	259.86352610588074	
49	221.349534034729	fix_post	2		12	47.0	2.5	blank	1.0	260.38005805015564	0.10003805160522461
50	221.44957208633423	fix_pre	0		119	48.0	2.5	/experiments/knapen_AOT/AOT_stimuli/rescaled_final/0514_fw.mp4	0.0	260.48009610176086	0.9918458461761475
50	222.43315505981445	pulse	0	t		48.0	2.5	/experiments/knapen_AOT/AOT_stimuli/rescaled_final/0514_fw.mp4	0.0	261.4636790752411	
50	222.44141793251038	movie	1		248	48.0	2.5	/experiments/knapen_AOT/AOT_stimuli/rescaled_final/0514_fw.mp4	0.0	261.471941947937	2.508690118789673
50	224.03408408164978	pulse	1	t		48.0	2.5	/experiments/knapen_AOT/AOT_stimuli/rescaled_final/0514_fw.mp4	0.0	263.0646080970764	
50	224.95010805130005	fix_post	2		12	48.0	2.5	/experiments/knapen_AOT/AOT_stimuli/rescaled_final/0514_fw.mp4	0.0	263.9806320667267	0.09996891021728516
51	225.05007696151733	fix_pre	0		120	49.0	2.5	/experiments/knapen_AOT/AOT_stimuli/rescaled_final/0231_fw.mp4	0.0	264.08060097694397	1.0001649856567383
51	225.6336579322815	pulse	0	t		49.0	2.5	/experiments/knapen_AOT/AOT_stimuli/rescaled_final/0231_fw.mp4	0.0	264.66418194770813	
51	226.05024194717407	movie	1		244	49.0	2.5	/experiments/knapen_AOT/AOT_stimuli/rescaled_final/0231_fw.mp4	0.0	265.0807659626007	2.5004351139068604
51	227.23403096199036	pulse	1	t		49.0	2.5	/experiments/knapen_AOT/AOT_stimuli/rescaled_final/0231_fw.mp4	0.0	266.264554977417	
51	228.55067706108093	fix_post	2		12	49.0	2.5	/experiments/knapen_AOT/AOT_stimuli/rescaled_final/0231_fw.mp4	0.0	267.58120107650757	0.09999799728393555
52	228.65067505836487	fix_pre	0		120	50.0	2.5	/experiments/knapen_AOT/AOT_stimuli/rescaled_final/1622_fw.mp4	0.0	267.6811990737915	1.0001139640808105
52	228.83411407470703	pulse	0	t		50.0	2.5	/experiments/knapen_AOT/AOT_stimuli/rescaled_final/1622_fw.mp4	0.0	267.86463809013367	
52	229.65078902244568	movie	1		244	50.0	2.5	/experiments/knapen_AOT/AOT_stimuli/rescaled_final/1622_fw.mp4	0.0	268.6813130378723	2.5003368854522705
52	230.43442606925964	pulse	1	t		50.0	2.5	/experiments/knapen_AOT/AOT_stimuli/rescaled_final/1622_fw.mp4	0.0	269.4649500846863	
52	232.03459692001343	pulse	1	t		50.0	2.5	/experiments/knapen_AOT/AOT_stimuli/rescaled_final/1622_fw.mp4	0.0	271.06512093544006	
52	232.15112590789795	fix_post	2		12	50.0	2.5	/experiments/knapen_AOT/AOT_stimuli/rescaled_final/1622_fw.mp4	0.0	271.1816499233246	0.10008406639099121
53	232.25120997428894	fix_pre	0		120	51.0	2.5	/experiments/knapen_AOT/AOT_stimuli/rescaled_final/1752_fw.mp4	0.0	271.2817339897156	1.0001099109649658
53	233.2513198852539	movie	1		245	51.0	2.5	/experiments/knapen_AOT/AOT_stimuli/rescaled_final/1752_fw.mp4	0.0	272.28184390068054	2.4920260906219482
53	233.63549900054932	pulse	1	t		51.0	2.5	/experiments/knapen_AOT/AOT_stimuli/rescaled_final/1752_fw.mp4	0.0	272.66602301597595	
53	235.235121011734	pulse	1	t		51.0	2.5	/experiments/knapen_AOT/AOT_stimuli/rescaled_final/1752_fw.mp4	0.0	274.26564502716064	
53	235.74334597587585	fix_post	2		12	51.0	2.5	/experiments/knapen_AOT/AOT_stimuli/rescaled_final/1752_fw.mp4	0.0	274.7738699913025	0.1000509262084961
54	235.84339690208435	fix_pre	0		120	52.0	2.5	/experiments/knapen_AOT/AOT_stimuli/rescaled_final/1748_fw.mp4	0.0	274.873920917511	1.0001189708709717
54	236.83550906181335	pulse	0	t		52.0	2.5	/experiments/knapen_AOT/AOT_stimuli/rescaled_final/1748_fw.mp4	0.0	275.86603307724	
54	236.84351587295532	movie	1		245	52.0	2.5	/experiments/knapen_AOT/AOT_stimuli/rescaled_final/1748_fw.mp4	0.0	275.87403988838196	2.5087029933929443
54	238.43638801574707	pulse	1	t		52.0	2.5	/experiments/knapen_AOT/AOT_stimuli/rescaled_final/1748_fw.mp4	0.0	277.4669120311737	
54	239.35221886634827	fix_post	2		12	52.0	2.5	/experiments/knapen_AOT/AOT_stimuli/rescaled_final/1748_fw.mp4	0.0	278.3827428817749	0.10000801086425781
55	239.45222687721252	fix_pre	0		120	53.0	2.5	/experiments/knapen_AOT/AOT_stimuli/rescaled_final/1458_fw.mp4	0.0	278.48275089263916	1.0001730918884277
55	240.03592705726624	pulse	0	t		53.0	2.5	/experiments/knapen_AOT/AOT_stimuli/rescaled_final/1458_fw.mp4	0.0	279.06645107269287	
55	240.45239996910095	movie	1		245	53.0	2.5	/experiments/knapen_AOT/AOT_stimuli/rescaled_final/1458_fw.mp4	0.0	279.4829239845276	2.500365972518921
55	241.6361529827118	pulse	1	t		53.0	2.5	/experiments/knapen_AOT/AOT_stimuli/rescaled_final/1458_fw.mp4	0.0	280.6666769981384	
55	242.95276594161987	fix_post	2		12	53.0	2.5	/experiments/knapen_AOT/AOT_stimuli/rescaled_final/1458_fw.mp4	0.0	281.9832899570465	0.1000370979309082
56	243.05280303955078	fix_pre	0		120	54.0	2.5	blank	1.0	282.0833270549774	1.0001099109649658
56	243.23637795448303	pulse	0	t		54.0	2.5	blank	1.0	282.26690196990967	
56	244.05291295051575	movie	1		300	54.0	2.5	blank	1.0	283.0834369659424	2.5004141330718994
56	244.83667707443237	pulse	1	t		54.0	2.5	blank	1.0	283.867201089859	
56	246.43692898750305	pulse	1	t		54.0	2.5	blank	1.0	285.4674530029297	
56	246.55332708358765	fix_post	2		12	54.0	2.5	blank	1.0	285.5838510990143	0.10004591941833496
57	246.65337300300598	fix_pre	0		120	55.0	2.5	/experiments/knapen_AOT/AOT_stimuli/rescaled_final/0129_rv.mp4	0.0	285.6838970184326	1.0001070499420166
57	247.653480052948	movie	1		243	55.0	2.5	/experiments/knapen_AOT/AOT_stimuli/rescaled_final/0129_rv.mp4	0.0	286.68400406837463	2.4920358657836914
57	248.03772401809692	pulse	1	t		55.0	2.5	/experiments/knapen_AOT/AOT_stimuli/rescaled_final/0129_rv.mp4	0.0	287.06824803352356	
57	249.63730907440186	pulse	1	t		55.0	2.5	/experiments/knapen_AOT/AOT_stimuli/rescaled_final/0129_rv.mp4	0.0	288.6678330898285	
57	250.1455159187317	fix_post	2		12	55.0	2.5	/experiments/knapen_AOT/AOT_stimuli/rescaled_final/0129_rv.mp4	0.0	289.1760399341583	0.09999513626098633
58	250.24551105499268	fix_pre	0		120	56.0	2.5	/experiments/knapen_AOT/AOT_stimuli/rescaled_final/1184_fw.mp4	0.0	289.2760350704193	1.0001280307769775
58	251.2375988960266	pulse	0	t		56.0	2.5	/experiments/knapen_AOT/AOT_stimuli/rescaled_final/1184_fw.mp4	0.0	290.26812291145325	
58	251.24563908576965	movie	1		246	56.0	2.5	/experiments/knapen_AOT/AOT_stimuli/rescaled_final/1184_fw.mp4	0.0	290.2761631011963	2.508730888366699
58	252.8385910987854	pulse	1	t		56.0	2.5	/experiments/knapen_AOT/AOT_stimuli/rescaled_final/1184_fw.mp4	0.0	291.86911511421204	
58	253.75436997413635	fix_post	2		12	56.0	2.5	/experiments/knapen_AOT/AOT_stimuli/rescaled_final/1184_fw.mp4	0.0	292.784893989563	0.10000205039978027
59	253.85437202453613	fix_pre	0		120	57.0	2.5	/experiments/knapen_AOT/AOT_stimuli/rescaled_final/1433_rv.mp4	0.0	292.88489603996277	1.0001790523529053
59	254.43803095817566	pulse	0	t		57.0	2.5	/experiments/knapen_AOT/AOT_stimuli/rescaled_final/1433_rv.mp4	0.0	293.4685549736023	
59	254.85455107688904	movie	1		244	57.0	2.5	/experiments/knapen_AOT/AOT_stimuli/rescaled_final/1433_rv.mp4	0.0	293.8850750923157	2.5003368854522705
59	256.0382800102234	pulse	1	t		57.0	2.5	/experiments/knapen_AOT/AOT_stimuli/rescaled_final/1433_rv.mp4	0.0	295.06880402565	
59	257.3548879623413	fix_post	2		12	57.0	2.5	/experiments/knapen_AOT/AOT_stimuli/rescaled_final/1433_rv.mp4	0.0	296.38541197776794	0.10003113746643066
60	257.45491909980774	fix_pre	0		120	58.0	2.5	/experiments/knapen_AOT/AOT_stimuli/rescaled_final/1615_fw.mp4	0.0	296.4854431152344	1.0001847743988037
60	257.6385419368744	pulse	0	t		58.0	2.5	/experiments/knapen_AOT/AOT_stimuli/rescaled_final/1615_fw.mp4	0.0	296.669065952301	
60	258.45510387420654	movie	1		247	58.0	2.5	/experiments/knapen_AOT/AOT_stimuli/rescaled_final/1615_fw.mp4	0.0	297.4856278896332	2.5003511905670166
60	259.2387878894806	pulse	1	t		58.0	2.5	/experiments/knapen_AOT/AOT_stimuli/rescaled_final/1615_fw.mp4	0.0	298.2693119049072	
60	260.8390579223633	pulse	1	t		58.0	2.5	/experiments/knapen_AOT/AOT_stimuli/rescaled_final/1615_fw.mp4	0.0	299.8695819377899	
60	260.95545506477356	fix_post	2		12	58.0	2.5	/experiments/knapen_AOT/AOT_stimuli/rescaled_final/1615_fw.mp4	0.0	299.9859790802002	0.09994983673095703
61	261.0554049015045	fix_pre	0		120	59.0	2.5	/experiments/knapen_AOT/AOT_stimuli/rescaled_final/0926_rv.mp4	0.0	300.08592891693115	1.0002741813659668
61	262.0556790828705	movie	1		244	59.0	2.5	/experiments/knapen_AOT/AOT_stimuli/rescaled_final/0926_rv.mp4	0.0	301.0862030982971	2.4919779300689697
61	262.4399619102478	pulse	1	t		59.0	2.5	/experiments/knapen_AOT/AOT_stimuli/rescaled_final/0926_rv.mp4	0.0	301.47048592567444	
61	264.0394780635834	pulse	1	t		59.0	2.5	/experiments/knapen_AOT/AOT_stimuli/rescaled_final/0926_rv.mp4	0.0	303.07000207901	
61	264.54765701293945	fix_post	2		12	59.0	2.5	/experiments/knapen_AOT/AOT_stimuli/rescaled_final/0926_rv.mp4	0.0	303.5781810283661	0.09999203681945801
62	264.6476490497589	fix_pre	0		120	60.0	2.5	/experiments/knapen_AOT/AOT_stimuli/rescaled_final/1881_rv.mp4	0.0	303.67817306518555	1.0001819133758545
62	265.63967990875244	pulse	0	t		60.0	2.5	/experiments/knapen_AOT/AOT_stimuli/rescaled_final/1881_rv.mp4	0.0	304.6702039241791	
62	265.64783096313477	movie	1		247	60.0	2.5	/experiments/knapen_AOT/AOT_stimuli/rescaled_final/1881_rv.mp4	0.0	304.6783549785614	2.508678913116455
62	267.24132800102234	pulse	1	t		60.0	2.5	/experiments/knapen_AOT/AOT_stimuli/rescaled_final/1881_rv.mp4	0.0	306.271852016449	
62	268.1565098762512	fix_post	2		12	60.0	2.5	/experiments/knapen_AOT/AOT_stimuli/rescaled_final/1881_rv.mp4	0.0	307.18703389167786	0.10008621215820312
63	268.2565960884094	fix_pre	0		117	61.0	2.5	blank	1.0	307.28712010383606	1.0000689029693604
63	268.84014987945557	pulse	0	t		61.0	2.5	blank	1.0	307.8706738948822	
63	269.2566649913788	movie	1		300	61.0	2.5	blank	1.0	308.2871890068054	2.5004429817199707
63	270.4404299259186	pulse	1	t		61.0	2.5	blank	1.0	309.4709539413452	
63	271.75710797309875	fix_post	2		12	61.0	2.5	blank	1.0	310.7876319885254	0.09996390342712402
64	271.8570718765259	fix_pre	0		120	62.0	2.5	/experiments/knapen_AOT/AOT_stimuli/rescaled_final/1420_fw.mp4	0.0	310.8875958919525	1.000136137008667
64	272.04074788093567	pulse	0	t		62.0	2.5	/experiments/knapen_AOT/AOT_stimuli/rescaled_final/1420_fw.mp4	0.0	311.0712718963623	
64	272.85720801353455	movie	1		245	62.0	2.5	/experiments/knapen_AOT/AOT_stimuli/rescaled_final/1420_fw.mp4	0.0	311.8877320289612	2.500385046005249
64	273.6336319446564	pulse	1	t		62.0	2.5	/experiments/knapen_AOT/AOT_stimuli/rescaled_final/1420_fw.mp4	0.0	312.664155960083	
64	275.23885893821716	pulse	1	t		62.0	2.5	/experiments/knapen_AOT/AOT_stimuli/rescaled_final/1420_fw.mp4	0.0	314.2693829536438	
64	275.3575930595398	fix_post	2		12	62.0	2.5	/experiments/knapen_AOT/AOT_stimuli/rescaled_final/1420_fw.mp4	0.0	314.38811707496643	0.10008001327514648
65	275.45767307281494	fix_pre	0		120	63.0	2.5	/experiments/knapen_AOT/AOT_stimuli/rescaled_final/1508_rv.mp4	0.0	314.4881970882416	1.0001108646392822
65	276.4577839374542	movie	1		243	63.0	2.5	/experiments/knapen_AOT/AOT_stimuli/rescaled_final/1508_rv.mp4	0.0	315.48830795288086	2.492004156112671
65	276.8454749584198	pulse	1	t		63.0	2.5	/experiments/knapen_AOT/AOT_stimuli/rescaled_final/1508_rv.mp4	0.0	315.87599897384644	
65	278.4342279434204	pulse	1	t		63.0	2.5	/experiments/knapen_AOT/AOT_stimuli/rescaled_final/1508_rv.mp4	0.0	317.46475195884705	
65	278.9497880935669	fix_post	2		12	63.0	2.5	/experiments/knapen_AOT/AOT_stimuli/rescaled_final/1508_rv.mp4	0.0	317.98031210899353	0.10007381439208984
66	279.049861907959	fix_pre	0		119	64.0	2.5	/experiments/knapen_AOT/AOT_stimuli/rescaled_final/0975_fw.mp4	0.0	318.0803859233856	0.9918160438537598
66	280.03343296051025	pulse	0	t		64.0	2.5	/experiments/knapen_AOT/AOT_stimuli/rescaled_final/0975_fw.mp4	0.0	319.0639569759369	
66	280.04167795181274	movie	1		245	64.0	2.5	/experiments/knapen_AOT/AOT_stimuli/rescaled_final/0975_fw.mp4	0.0	319.0722019672394	2.508657932281494
66	281.6344358921051	pulse	1	t		64.0	2.5	/experiments/knapen_AOT/AOT_stimuli/rescaled_final/0975_fw.mp4	0.0	320.66495990753174	
66	282.55033588409424	fix_post	2		12	64.0	2.5	/experiments/knapen_AOT/AOT_stimuli/rescaled_final/0975_fw.mp4	0.0	321.5808598995209	0.10001015663146973
67	282.6503460407257	fix_pre	0		120	65.0	2.5	/experiments/knapen_AOT/AOT_stimuli/rescaled_final/1564_fw.mp4	0.0	321.68087005615234	1.0001599788665771
67	283.2340760231018	pulse	0	t		65.0	2.5	/experiments/knapen_AOT/AOT_stimuli/rescaled_final/1564_fw.mp4	0.0	322.26460003852844	
67	283.6505060195923	movie	1		245	65.0	2.5	/experiments/knapen_AOT/AOT_stimuli/rescaled_final/1564_fw.mp4	0.0	322.6810300350189	2.5003509521484375
67	284.8342468738556	pulse	1	t		65.0	2.5	/experiments/knapen_AOT/AOT_stimuli/rescaled_final/1564_fw.mp4	0.0	323.8647708892822	
67	286.1508569717407	fix_post	2		12	65.0	2.5	/experiments/knapen_AOT/AOT_stimuli/rescaled_final/1564_fw.mp4	0.0	325.18138098716736	0.10002994537353516
68	286.25088691711426	fix_pre	0		120	66.0	2.5	/experiments/knapen_AOT/AOT_stimuli/rescaled_final/1058_rv.mp4	0.0	325.2814109325409	1.0001590251922607
68	286.43445205688477	pulse	0	t		66.0	2.5	/experiments/knapen_AOT/AOT_stimuli/rescaled_final/1058_rv.mp4	0.0	325.4649760723114	
68	287.2510459423065	movie	1		245	66.0	2.5	/experiments/knapen_AOT/AOT_stimuli/rescaled_final/1058_rv.mp4	0.0	326.28156995773315	2.5003480911254883
68	288.0347020626068	pulse	1	t		66.0	2.5	/experiments/knapen_AOT/AOT_stimuli/rescaled_final/1058_rv.mp4	0.0	327.06522607803345	
68	289.63493609428406	pulse	1	t		66.0	2.5	/experiments/knapen_AOT/AOT_stimuli/rescaled_final/1058_rv.mp4	0.0	328.6654601097107	
68	289.751394033432	fix_post	2		12	66.0	2.5	/experiments/knapen_AOT/AOT_stimuli/rescaled_final/1058_rv.mp4	0.0	328.78191804885864	0.10007500648498535
69	289.851469039917	fix_pre	0		119	67.0	2.5	/experiments/knapen_AOT/AOT_stimuli/rescaled_final/1513_fw.mp4	0.0	328.8819930553436	0.9917659759521484
69	290.84323501586914	movie	1		247	67.0	2.5	/experiments/knapen_AOT/AOT_stimuli/rescaled_final/1513_fw.mp4	0.0	329.8737590312958	2.5003809928894043
69	291.23518800735474	pulse	1	t		67.0	2.5	/experiments/knapen_AOT/AOT_stimuli/rescaled_final/1513_fw.mp4	0.0	330.2657120227814	
69	292.83563899993896	pulse	1	t		67.0	2.5	/experiments/knapen_AOT/AOT_stimuli/rescaled_final/1513_fw.mp4	0.0	331.8661630153656	
69	293.34361600875854	fix_post	2		12	67.0	2.5	/experiments/knapen_AOT/AOT_stimuli/rescaled_final/1513_fw.mp4	0.0	332.3741400241852	0.10005807876586914
70	293.4436740875244	fix_pre	0		120	68.0	2.5	/experiments/knapen_AOT/AOT_stimuli/rescaled_final/0387_fw.mp4	0.0	332.47419810295105	1.000140905380249
70	294.4356300830841	pulse	0	t		68.0	2.5	/experiments/knapen_AOT/AOT_stimuli/rescaled_final/0387_fw.mp4	0.0	333.46615409851074	
70	294.44381499290466	movie	1		247	68.0	2.5	/experiments/knapen_AOT/AOT_stimuli/rescaled_final/0387_fw.mp4	0.0	333.4743390083313	2.5086679458618164
70	296.03719305992126	pulse	1	t		68.0	2.5	/experiments/knapen_AOT/AOT_stimuli/rescaled_final/0387_fw.mp4	0.0	335.0677170753479	
70	296.9524829387665	fix_post	2		12	68.0	2.5	/experiments/knapen_AOT/AOT_stimuli/rescaled_final/0387_fw.mp4	0.0	335.9830069541931	0.09999704360961914
71	297.0524799823761	fix_pre	0		120	69.0	2.5	/experiments/knapen_AOT/AOT_stimuli/rescaled_final/0129_rv.mp4	0.0	336.08300399780273	1.0001699924468994
71	297.63607597351074	pulse	0	t		69.0	2.5	/experiments/knapen_AOT/AOT_stimuli/rescaled_final/0129_rv.mp4	0.0	336.6665999889374	
71	298.052649974823	movie	1		244	69.0	2.5	/experiments/knapen_AOT/AOT_stimuli/rescaled_final/0129_rv.mp4	0.0	337.08317399024963	2.5004029273986816
71	299.2364430427551	pulse	1	t		69.0	2.5	/experiments/knapen_AOT/AOT_stimuli/rescaled_final/0129_rv.mp4	0.0	338.26696705818176	
71	300.5530529022217	fix_post	2		12	69.0	2.5	/experiments/knapen_AOT/AOT_stimuli/rescaled_final/0129_rv.mp4	0.0	339.5835769176483	0.10000109672546387
72	300.65305399894714	fix_pre	0		120	70.0	2.5	blank	1.0	339.6835780143738	1.000154972076416
72	300.8366310596466	pulse	0	t		70.0	2.5	blank	1.0	339.86715507507324	
72	301.65320897102356	movie	1		300	70.0	2.5	blank	1.0	340.6837329864502	2.5003609657287598
72	302.43681502342224	pulse	1	t		70.0	2.5	blank	1.0	341.4673390388489	
72	304.0370810031891	pulse	1	t		70.0	2.5	blank	1.0	343.0676050186157	
72	304.1535699367523	fix_post	2		12	70.0	2.5	blank	1.0	343.18409395217896	0.1000051498413086
73	304.2535750865936	fix_pre	0		120	71.0	2.5	/experiments/knapen_AOT/AOT_stimuli/rescaled_final/1023_fw.mp4	0.0	343.28409910202026	1.0001099109649658
73	305.2536849975586	movie	1		243	71.0	2.5	/experiments/knapen_AOT/AOT_stimuli/rescaled_final/1023_fw.mp4	0.0	344.28420901298523	2.4920480251312256
73	305.63824701309204	pulse	1	t		71.0	2.5	/experiments/knapen_AOT/AOT_stimuli/rescaled_final/1023_fw.mp4	0.0	344.6687710285187	
73	307.2376170158386	pulse	1	t		71.0	2.5	/experiments/knapen_AOT/AOT_stimuli/rescaled_final/1023_fw.mp4	0.0	346.26814103126526	
73	307.7457330226898	fix_post	2		12	71.0	2.5	/experiments/knapen_AOT/AOT_stimuli/rescaled_final/1023_fw.mp4	0.0	346.77625703811646	0.10002589225769043
74	307.8457589149475	fix_pre	0		120	72.0	2.5	/experiments/knapen_AOT/AOT_stimuli/rescaled_final/0107_rv.mp4	0.0	346.87628293037415	1.000169038772583
74	308.8378219604492	pulse	0	t		72.0	2.5	/experiments/knapen_AOT/AOT_stimuli/rescaled_final/0107_rv.mp4	0.0	347.86834597587585	
74	308.8459279537201	movie	1		246	72.0	2.5	/experiments/knapen_AOT/AOT_stimuli/rescaled_final/0107_rv.mp4	0.0	347.87645196914673	2.508647918701172
74	310.43883895874023	pulse	1	t		72.0	2.5	/experiments/knapen_AOT/AOT_stimuli/rescaled_final/0107_rv.mp4	0.0	349.46936297416687	
74	311.35457587242126	fix_post	2		12	72.0	2.5	/experiments/knapen_AOT/AOT_stimuli/rescaled_final/0107_rv.mp4	0.0	350.3850998878479	0.10005807876586914
75	311.45463395118713	fix_pre	0		120	73.0	2.5	/experiments/knapen_AOT/AOT_stimuli/rescaled_final/0703_fw.mp4	0.0	350.48515796661377	1.0001821517944336
75	312.0383388996124	pulse	0	t		73.0	2.5	/experiments/knapen_AOT/AOT_stimuli/rescaled_final/0703_fw.mp4	0.0	351.06886291503906	
75	312.45481610298157	movie	1		245	73.0	2.5	/experiments/knapen_AOT/AOT_stimuli/rescaled_final/0703_fw.mp4	0.0	351.4853401184082	2.5004568099975586
75	313.6387240886688	pulse	1	t		73.0	2.5	/experiments/knapen_AOT/AOT_stimuli/rescaled_final/0703_fw.mp4	0.0	352.66924810409546	
75	314.9552729129791	fix_post	2		12	73.0	2.5	/experiments/knapen_AOT/AOT_stimuli/rescaled_final/0703_fw.mp4	0.0	353.98579692840576	0.09996604919433594
76	315.05523896217346	fix_pre	0		120	74.0	2.5	/experiments/knapen_AOT/AOT_stimuli/rescaled_final/1402_fw.mp4	0.0	354.0857629776001	1.0001099109649658
76	315.23877787590027	pulse	0	t		74.0	2.5	/experiments/knapen_AOT/AOT_stimuli/rescaled_final/1402_fw.mp4	0.0	354.2693018913269	
76	316.0553488731384	movie	1		244	74.0	2.5	/experiments/knapen_AOT/AOT_stimuli/rescaled_final/1402_fw.mp4	0.0	355.08587288856506	2.5003631114959717
76	316.83899307250977	pulse	1	t		74.0	2.5	/experiments/knapen_AOT/AOT_stimuli/rescaled_final/1402_fw.mp4	0.0	355.8695170879364	
76	318.4393389225006	pulse	1	t		74.0	2.5	/experiments/knapen_AOT/AOT_stimuli/rescaled_final/1402_fw.mp4	0.0	357.46986293792725	
76	318.5557119846344	fix_post	2		12	74.0	2.5	/experiments/knapen_AOT/AOT_stimuli/rescaled_final/1402_fw.mp4	0.0	357.58623600006104	0.10001397132873535
77	318.65572595596313	fix_pre	0		120	75.0	2.5	/experiments/knapen_AOT/AOT_stimuli/rescaled_final/0419_rv.mp4	0.0	357.68624997138977	1.0001471042633057
77	319.65587306022644	movie	1		244	75.0	2.5	/experiments/knapen_AOT/AOT_stimuli/rescaled_final/0419_rv.mp4	0.0	358.6863970756531	2.4920129776000977
77	320.0406539440155	pulse	1	t		75.0	2.5	/experiments/knapen_AOT/AOT_stimuli/rescaled_final/0419_rv.mp4	0.0	359.07117795944214	
77	321.63981795310974	pulse	1	t		75.0	2.5	/experiments/knapen_AOT/AOT_stimuli/rescaled_final/0419_rv.mp4	0.0	360.6703419685364	
77	322.14788603782654	fix_post	2		12	75.0	2.5	/experiments/knapen_AOT/AOT_stimuli/rescaled_final/0419_rv.mp4	0.0	361.1784100532532	0.10003995895385742
78	322.2479259967804	fix_pre	0		120	76.0	2.5	/experiments/knapen_AOT/AOT_stimuli/rescaled_final/1723_rv.mp4	0.0	361.27845001220703	1.0001389980316162
78	323.2399220466614	pulse	0	t		76.0	2.5	/experiments/knapen_AOT/AOT_stimuli/rescaled_final/1723_rv.mp4	0.0	362.270446062088	
78	323.248064994812	movie	1		245	76.0	2.5	/experiments/knapen_AOT/AOT_stimuli/rescaled_final/1723_rv.mp4	0.0	362.27858901023865	2.5087389945983887
78	324.84156107902527	pulse	1	t		76.0	2.5	/experiments/knapen_AOT/AOT_stimuli/rescaled_final/1723_rv.mp4	0.0	363.8720850944519	
78	325.7568039894104	fix_post	2		12	76.0	2.5	/experiments/knapen_AOT/AOT_stimuli/rescaled_final/1723_rv.mp4	0.0	364.78732800483704	0.10000491142272949
79	325.85680890083313	fix_pre	0		120	77.0	2.5	blank	1.0	364.88733291625977	1.0001540184020996
79	326.43300795555115	pulse	0	t		77.0	2.5	blank	1.0	365.4635319709778	
79	326.85696291923523	movie	1		300	77.0	2.5	blank	1.0	365.88748693466187	2.500359058380127
79	328.0332190990448	pulse	1	t		77.0	2.5	blank	1.0	367.06374311447144	
79	329.35732197761536	fix_post	2		12	77.0	2.5	blank	1.0	368.387845993042	0.0999910831451416
80	329.4573130607605	fix_pre	0		118	78.0	2.5	/experiments/knapen_AOT/AOT_stimuli/rescaled_final/1015_fw.mp4	0.0	368.48783707618713	1.0001819133758545
80	329.63354206085205	pulse	0	t		78.0	2.5	/experiments/knapen_AOT/AOT_stimuli/rescaled_final/1015_fw.mp4	0.0	368.6640660762787	
80	330.45749497413635	movie	1		245	78.0	2.5	/experiments/knapen_AOT/AOT_stimuli/rescaled_final/1015_fw.mp4	0.0	369.488018989563	2.5003509521484375
80	331.2337849140167	pulse	1	t		78.0	2.5	/experiments/knapen_AOT/AOT_stimuli/rescaled_final/1015_fw.mp4	0.0	370.26430892944336	
80	332.83887696266174	pulse	1	t		78.0	2.5	/experiments/knapen_AOT/AOT_stimuli/rescaled_final/1015_fw.mp4	0.0	371.8694009780884	
80	332.9578459262848	fix_post	2		12	78.0	2.5	/experiments/knapen_AOT/AOT_stimuli/rescaled_final/1015_fw.mp4	0.0	371.9883699417114	0.10003900527954102
81	333.05788493156433	fix_pre	0		119	79.0	2.5	/experiments/knapen_AOT/AOT_stimuli/rescaled_final/0014_fw.mp4	0.0	372.08840894699097	0.9917631149291992
81	334.04964804649353	movie	1		245	79.0	2.5	/experiments/knapen_AOT/AOT_stimuli/rescaled_final/0014_fw.mp4	0.0	373.08017206192017	2.5004098415374756
81	334.4345269203186	pulse	1	t		79.0	2.5	/experiments/knapen_AOT/AOT_stimuli/rescaled_final/0014_fw.mp4	0.0	373.46505093574524	
81	336.0334620475769	pulse	1	t		79.0	2.5	/experiments/knapen_AOT/AOT_stimuli/rescaled_final/0014_fw.mp4	0.0	375.06398606300354	
81	336.550057888031	fix_post	2		12	79.0	2.5	/experiments/knapen_AOT/AOT_stimuli/rescaled_final/0014_fw.mp4	0.0	375.58058190345764	0.10000014305114746
82	336.65005803108215	fix_pre	0		119	80.0	2.5	/experiments/knapen_AOT/AOT_stimuli/rescaled_final/1293_rv.mp4	0.0	375.6805820465088	0.9918160438537598
82	337.63377690315247	pulse	0	t		80.0	2.5	/experiments/knapen_AOT/AOT_stimuli/rescaled_final/1293_rv.mp4	0.0	376.6643009185791	
82	337.6418740749359	movie	1		245	80.0	2.5	/experiments/knapen_AOT/AOT_stimuli/rescaled_final/1293_rv.mp4	0.0	376.67239809036255	2.5086920261383057
82	339.23860597610474	pulse	1	t		80.0	2.5	/experiments/knapen_AOT/AOT_stimuli/rescaled_final/1293_rv.mp4	0.0	378.2691299915314	
82	340.1505661010742	fix_post	2		12	80.0	2.5	/experiments/knapen_AOT/AOT_stimuli/rescaled_final/1293_rv.mp4	0.0	379.18109011650085	0.10002398490905762
83	340.2505900859833	fix_pre	0		120	81.0	2.5	/experiments/knapen_AOT/AOT_stimuli/rescaled_final/1567_fw.mp4	0.0	379.2811141014099	1.0002048015594482
83	340.83423709869385	pulse	0	t		81.0	2.5	/experiments/knapen_AOT/AOT_stimuli/rescaled_final/1567_fw.mp4	0.0	379.8647611141205	
83	341.2507948875427	movie	1		246	81.0	2.5	/experiments/knapen_AOT/AOT_stimuli/rescaled_final/1567_fw.mp4	0.0	380.28131890296936	2.500333070755005
83	342.43458700180054	pulse	1	t		81.0	2.5	/experiments/knapen_AOT/AOT_stimuli/rescaled_final/1567_fw.mp4	0.0	381.4651110172272	
83	343.75112795829773	fix_post	2		12	81.0	2.5	/experiments/knapen_AOT/AOT_stimuli/rescaled_final/1567_fw.mp4	0.0	382.78165197372437	0.10001301765441895
84	343.85114097595215	fix_pre	0		120	82.0	2.5	/experiments/knapen_AOT/AOT_stimuli/rescaled_final/0733_rv.mp4	0.0	382.8816649913788	1.0001599788665771
84	344.03468799591064	pulse	0	t		82.0	2.5	/experiments/knapen_AOT/AOT_stimuli/rescaled_final/0733_rv.mp4	0.0	383.0652120113373	
84	344.8513009548187	movie	1		246	82.0	2.5	/experiments/knapen_AOT/AOT_stimuli/rescaled_final/0733_rv.mp4	0.0	383.88182497024536	2.5003039836883545
84	345.6349880695343	pulse	1	t		82.0	2.5	/experiments/knapen_AOT/AOT_stimuli/rescaled_final/0733_rv.mp4	0.0	384.66551208496094	
84	347.2351369857788	pulse	1	t		82.0	2.5	/experiments/knapen_AOT/AOT_stimuli/rescaled_final/0733_rv.mp4	0.0	386.26566100120544	
84	347.3516049385071	fix_post	2		12	82.0	2.5	/experiments/knapen_AOT/AOT_stimuli/rescaled_final/0733_rv.mp4	0.0	386.3821289539337	0.10012292861938477
85	347.45172786712646	fix_pre	0		120	83.0	2.5	blank	1.0	386.4822518825531	1.0001301765441895
85	348.45185804367065	movie	1		299	83.0	2.5	blank	1.0	387.4823820590973	2.492029905319214
85	348.8354148864746	pulse	1	t		83.0	2.5	blank	1.0	387.86593890190125	
85	350.43563294410706	pulse	1	t		83.0	2.5	blank	1.0	389.4661569595337	
85	350.94388794898987	fix_post	2		12	83.0	2.5	blank	1.0	389.9744119644165	0.10003495216369629
87	351.04392290115356	stim	0		1716					390.0744469165802	14.302086114883423
87	352.03591108322144	pulse	0	t						391.06643509864807	
87	353.6360490322113	pulse	0	t						392.66657304763794	
87	355.2363529205322	pulse	0	t						394.26687693595886	
87	356.8366940021515	pulse	0	t						395.8672180175781	
87	358.43690490722656	pulse	0	t						397.4674289226532	
87	360.0370590686798	pulse	0	t						399.06758308410645	
87	361.6373929977417	pulse	0	t						400.66791701316833	
87	363.2376239299774	pulse	0	t						402.26814794540405	
87	364.8378429412842	pulse	0	t						403.8683669567108	
