trial_nr	onset	event_type	phase	response	nr_frames	movie_index	movie_duration	movie_file	blank	onset_abs	duration
0	0.12469696998596191	stim	0		64					20.75643301010132	0.5336740016937256
0	0.6504390239715576	response	0	space						21.282175064086914	
1	0.6583709716796875	stim	0		43912					21.290107011795044	365.9316439628601
1	366.58435106277466	pulse	0	t						387.21608710289	
1	366.5900149345398	stim	1		1717					387.22175097465515	14.308243989944458
1	368.1818549633026	pulse	1	t						388.81359100341797	
1	369.7818250656128	pulse	1	t						390.41356110572815	
1	371.3818049430847	pulse	1	t						392.0135409832001	
1	372.9818949699402	pulse	1	t						393.61363101005554	
1	374.5818738937378	pulse	1	t						395.21360993385315	
1	376.1817469596863	pulse	1	t						396.81348299980164	
1	377.7817289829254	pulse	1	t						398.41346502304077	
1	379.38175892829895	pulse	1	t						400.0134949684143	
2	380.89825892448425	fix_pre	0		11	0.0	2.5	/experiments/AOT/AOT_stimuli/rescaled_final/0676_fw.mp4	0.0	401.5299949645996	0.09178805351257324
2	380.98184084892273	pulse	0	t		0.0	2.5	/experiments/AOT/AOT_stimuli/rescaled_final/0676_fw.mp4	0.0	401.6135768890381	
2	380.9900469779968	movie	1		242	0.0	2.5	/experiments/AOT/AOT_stimuli/rescaled_final/0676_fw.mp4	0.0	401.6217830181122	2.508289098739624
2	382.58126497268677	pulse	1	t		0.0	2.5	/experiments/AOT/AOT_stimuli/rescaled_final/0676_fw.mp4	0.0	403.2130010128021	
2	383.49833607673645	fix_post	2		12	0.0	2.5	/experiments/AOT/AOT_stimuli/rescaled_final/0676_fw.mp4	0.0	404.1300721168518	0.09996581077575684
3	383.5983018875122	fix_pre	0		120	1.0	2.5	/experiments/AOT/AOT_stimuli/rescaled_final/0645_rv.mp4	0.0	404.23003792762756	1.0000090599060059
3	384.18194603919983	pulse	0	t		1.0	2.5	/experiments/AOT/AOT_stimuli/rescaled_final/0645_rv.mp4	0.0	404.8136820793152	
3	384.5983109474182	movie	1		244	1.0	2.5	/experiments/AOT/AOT_stimuli/rescaled_final/0645_rv.mp4	0.0	405.23004698753357	2.499937057495117
3	385.7818648815155	pulse	1	t		1.0	2.5	/experiments/AOT/AOT_stimuli/rescaled_final/0645_rv.mp4	0.0	406.41360092163086	
3	387.09824800491333	fix_post	2		12	1.0	2.5	/experiments/AOT/AOT_stimuli/rescaled_final/0645_rv.mp4	0.0	407.7299840450287	0.099578857421875
4	387.1978268623352	fix_pre	0		120	2.0	2.5	/experiments/AOT/AOT_stimuli/rescaled_final/2116_rv.mp4	0.0	407.82956290245056	1.0004560947418213
4	387.38168597221375	pulse	0	t		2.0	2.5	/experiments/AOT/AOT_stimuli/rescaled_final/2116_rv.mp4	0.0	408.0134220123291	
4	388.198282957077	movie	1		246	2.0	2.5	/experiments/AOT/AOT_stimuli/rescaled_final/2116_rv.mp4	0.0	408.8300189971924	2.499907970428467
4	388.9817190170288	pulse	1	t		2.0	2.5	/experiments/AOT/AOT_stimuli/rescaled_final/2116_rv.mp4	0.0	409.61345505714417	
4	390.5806529521942	pulse	1	t		2.0	2.5	/experiments/AOT/AOT_stimuli/rescaled_final/2116_rv.mp4	0.0	411.21238899230957	
4	390.6981909275055	fix_post	2		12	2.0	2.5	/experiments/AOT/AOT_stimuli/rescaled_final/2116_rv.mp4	0.0	411.32992696762085	0.10006904602050781
5	390.798259973526	fix_pre	0		120	3.0	2.5	/experiments/AOT/AOT_stimuli/rescaled_final/0903_rv.mp4	0.0	411.42999601364136	0.9999489784240723
5	391.7982089519501	movie	1		247	3.0	2.5	/experiments/AOT/AOT_stimuli/rescaled_final/0903_rv.mp4	0.0	412.42994499206543	2.499579906463623
5	392.18132305145264	pulse	1	t		3.0	2.5	/experiments/AOT/AOT_stimuli/rescaled_final/0903_rv.mp4	0.0	412.813059091568	
5	393.7817339897156	pulse	1	t		3.0	2.5	/experiments/AOT/AOT_stimuli/rescaled_final/0903_rv.mp4	0.0	414.41347002983093	
5	394.2977888584137	fix_post	2		12	3.0	2.5	/experiments/AOT/AOT_stimuli/rescaled_final/0903_rv.mp4	0.0	414.92952489852905	0.10049319267272949
6	394.3982820510864	fix_pre	0		119	4.0	2.5	/experiments/AOT/AOT_stimuli/rescaled_final/0409_rv.mp4	0.0	415.0300180912018	0.9915528297424316
6	395.381737947464	pulse	0	t		4.0	2.5	/experiments/AOT/AOT_stimuli/rescaled_final/0409_rv.mp4	0.0	416.01347398757935	
6	395.38983488082886	movie	1		245	4.0	2.5	/experiments/AOT/AOT_stimuli/rescaled_final/0409_rv.mp4	0.0	416.0215709209442	2.5084049701690674
6	396.98160791397095	pulse	1	t		4.0	2.5	/experiments/AOT/AOT_stimuli/rescaled_final/0409_rv.mp4	0.0	417.6133439540863	
6	397.8982398509979	fix_post	2		12	4.0	2.5	/experiments/AOT/AOT_stimuli/rescaled_final/0409_rv.mp4	0.0	418.5299758911133	0.1000070571899414
7	397.99824690818787	fix_pre	0		120	5.0	2.5	blank	1.0	418.6299829483032	1.0000200271606445
7	398.58169198036194	pulse	0	t		5.0	2.5	blank	1.0	419.2134280204773	
7	398.9982669353485	movie	1		300	5.0	2.5	blank	1.0	419.63000297546387	2.499925136566162
7	400.1816780567169	pulse	1	t		5.0	2.5	blank	1.0	420.8134140968323	
7	401.4981920719147	fix_post	2		12	5.0	2.5	blank	1.0	422.12992811203003	0.10004186630249023
8	401.59823393821716	fix_pre	0		120	6.0	2.5	/experiments/AOT/AOT_stimuli/rescaled_final/0766_rv.mp4	0.0	422.2299699783325	0.9999370574951172
8	401.7816529273987	pulse	0	t		6.0	2.5	/experiments/AOT/AOT_stimuli/rescaled_final/0766_rv.mp4	0.0	422.41338896751404	
8	402.5981709957123	movie	1		244	6.0	2.5	/experiments/AOT/AOT_stimuli/rescaled_final/0766_rv.mp4	0.0	423.22990703582764	2.4996330738067627
8	403.3816568851471	pulse	1	t		6.0	2.5	/experiments/AOT/AOT_stimuli/rescaled_final/0766_rv.mp4	0.0	424.01339292526245	
8	404.9802739620209	pulse	1	t		6.0	2.5	/experiments/AOT/AOT_stimuli/rescaled_final/0766_rv.mp4	0.0	425.61201000213623	
8	405.09780406951904	fix_post	2		12	6.0	2.5	/experiments/AOT/AOT_stimuli/rescaled_final/0766_rv.mp4	0.0	425.7295401096344	0.1002969741821289
9	405.1981010437012	fix_pre	0		120	7.0	2.5	/experiments/AOT/AOT_stimuli/rescaled_final/1282_fw.mp4	0.0	425.8298370838165	1.0000829696655273
9	406.1981840133667	movie	1		243	7.0	2.5	/experiments/AOT/AOT_stimuli/rescaled_final/1282_fw.mp4	0.0	426.82992005348206	2.4996609687805176
9	406.58136105537415	pulse	1	t		7.0	2.5	/experiments/AOT/AOT_stimuli/rescaled_final/1282_fw.mp4	0.0	427.2130970954895	
9	408.18119287490845	pulse	1	t		7.0	2.5	/experiments/AOT/AOT_stimuli/rescaled_final/1282_fw.mp4	0.0	428.8129289150238	
9	408.6978449821472	fix_post	2		12	7.0	2.5	/experiments/AOT/AOT_stimuli/rescaled_final/1282_fw.mp4	0.0	429.3295810222626	0.10002493858337402
10	408.7978699207306	fix_pre	0		119	8.0	2.5	/experiments/AOT/AOT_stimuli/rescaled_final/0296_rv.mp4	0.0	429.42960596084595	0.9921519756317139
10	409.78148794174194	pulse	0	t		8.0	2.5	/experiments/AOT/AOT_stimuli/rescaled_final/0296_rv.mp4	0.0	430.4132239818573	
10	409.7900218963623	movie	1		246	8.0	2.5	/experiments/AOT/AOT_stimuli/rescaled_final/0296_rv.mp4	0.0	430.42175793647766	2.508143186569214
10	411.38124990463257	pulse	1	t		8.0	2.5	/experiments/AOT/AOT_stimuli/rescaled_final/0296_rv.mp4	0.0	432.0129859447479	
10	412.2981650829315	fix_post	2		12	8.0	2.5	/experiments/AOT/AOT_stimuli/rescaled_final/0296_rv.mp4	0.0	432.9299011230469	0.09994387626647949
11	412.398108959198	fix_pre	0		120	9.0	2.5	/experiments/AOT/AOT_stimuli/rescaled_final/0662_fw.mp4	0.0	433.02984499931335	1.0001039505004883
11	412.98169589042664	pulse	0	t		9.0	2.5	/experiments/AOT/AOT_stimuli/rescaled_final/0662_fw.mp4	0.0	433.613431930542	
11	413.3982129096985	movie	1		244	9.0	2.5	/experiments/AOT/AOT_stimuli/rescaled_final/0662_fw.mp4	0.0	434.02994894981384	2.4998531341552734
11	414.5816888809204	pulse	1	t		9.0	2.5	/experiments/AOT/AOT_stimuli/rescaled_final/0662_fw.mp4	0.0	435.21342492103577	
11	415.89806604385376	fix_post	2		12	9.0	2.5	/experiments/AOT/AOT_stimuli/rescaled_final/0662_fw.mp4	0.0	436.5298020839691	0.10006093978881836
12	415.9981269836426	fix_pre	0		120	10.0	2.5	/experiments/AOT/AOT_stimuli/rescaled_final/1377_rv.mp4	0.0	436.62986302375793	1.0000219345092773
12	416.18153405189514	pulse	0	t		10.0	2.5	/experiments/AOT/AOT_stimuli/rescaled_final/1377_rv.mp4	0.0	436.8132700920105	
12	416.99814891815186	movie	1		244	10.0	2.5	/experiments/AOT/AOT_stimuli/rescaled_final/1377_rv.mp4	0.0	437.6298849582672	2.4999160766601562
12	417.7815799713135	pulse	1	t		10.0	2.5	/experiments/AOT/AOT_stimuli/rescaled_final/1377_rv.mp4	0.0	438.41331601142883	
12	419.3800859451294	pulse	1	t		10.0	2.5	/experiments/AOT/AOT_stimuli/rescaled_final/1377_rv.mp4	0.0	440.01182198524475	
12	419.498064994812	fix_post	2		12	10.0	2.5	/experiments/AOT/AOT_stimuli/rescaled_final/1377_rv.mp4	0.0	440.12980103492737	0.09962701797485352
13	419.59769201278687	fix_pre	0		120	11.0	2.5	/experiments/AOT/AOT_stimuli/rescaled_final/1880_rv.mp4	0.0	440.2294280529022	1.0003700256347656
13	420.59806203842163	movie	1		244	11.0	2.5	/experiments/AOT/AOT_stimuli/rescaled_final/1880_rv.mp4	0.0	441.229798078537	2.49960994720459
13	420.9811420440674	pulse	1	t		11.0	2.5	/experiments/AOT/AOT_stimuli/rescaled_final/1880_rv.mp4	0.0	441.61287808418274	
13	422.581582069397	pulse	1	t		11.0	2.5	/experiments/AOT/AOT_stimuli/rescaled_final/1880_rv.mp4	0.0	443.21331810951233	
13	423.0976719856262	fix_post	2		12	11.0	2.5	/experiments/AOT/AOT_stimuli/rescaled_final/1880_rv.mp4	0.0	443.7294080257416	0.10037493705749512
14	423.1980469226837	fix_pre	0		119	12.0	2.5	/experiments/AOT/AOT_stimuli/rescaled_final/1890_rv.mp4	0.0	443.8297829627991	0.9916949272155762
14	424.18164587020874	pulse	0	t		12.0	2.5	/experiments/AOT/AOT_stimuli/rescaled_final/1890_rv.mp4	0.0	444.8133819103241	
14	424.1897418498993	movie	1		245	12.0	2.5	/experiments/AOT/AOT_stimuli/rescaled_final/1890_rv.mp4	0.0	444.82147789001465	2.5083792209625244
14	425.78103399276733	pulse	1	t		12.0	2.5	/experiments/AOT/AOT_stimuli/rescaled_final/1890_rv.mp4	0.0	446.4127700328827	
14	426.6981210708618	fix_post	2		12	12.0	2.5	/experiments/AOT/AOT_stimuli/rescaled_final/1890_rv.mp4	0.0	447.3298571109772	0.09995889663696289
15	426.7980799674988	fix_pre	0		120	13.0	2.5	blank	1.0	447.42981600761414	1.000020980834961
15	427.381609916687	pulse	0	t		13.0	2.5	blank	1.0	448.01334595680237	
15	427.79810094833374	movie	1		300	13.0	2.5	blank	1.0	448.4298369884491	2.499911069869995
15	428.98160099983215	pulse	1	t		13.0	2.5	blank	1.0	449.6133370399475	
15	430.29801201820374	fix_post	2		12	13.0	2.5	blank	1.0	450.9297480583191	0.10006403923034668
16	430.3980760574341	fix_pre	0		120	14.0	2.5	/experiments/AOT/AOT_stimuli/rescaled_final/1489_fw.mp4	0.0	451.02981209754944	0.9999139308929443
16	430.5815019607544	pulse	0	t		14.0	2.5	/experiments/AOT/AOT_stimuli/rescaled_final/1489_fw.mp4	0.0	451.21323800086975	
16	431.397989988327	movie	1		245	14.0	2.5	/experiments/AOT/AOT_stimuli/rescaled_final/1489_fw.mp4	0.0	452.0297260284424	2.500077962875366
16	432.1815309524536	pulse	1	t		14.0	2.5	/experiments/AOT/AOT_stimuli/rescaled_final/1489_fw.mp4	0.0	452.81326699256897	
16	433.7797610759735	pulse	1	t		14.0	2.5	/experiments/AOT/AOT_stimuli/rescaled_final/1489_fw.mp4	0.0	454.41149711608887	
16	433.8980679512024	fix_post	2		12	14.0	2.5	/experiments/AOT/AOT_stimuli/rescaled_final/1489_fw.mp4	0.0	454.52980399131775	0.09999489784240723
17	433.9980628490448	fix_pre	0		120	15.0	2.5	/experiments/AOT/AOT_stimuli/rescaled_final/0244_fw.mp4	0.0	454.62979888916016	0.9994652271270752
17	434.9975280761719	movie	1		245	15.0	2.5	/experiments/AOT/AOT_stimuli/rescaled_final/0244_fw.mp4	0.0	455.62926411628723	2.500553846359253
17	435.3811149597168	pulse	1	t		15.0	2.5	/experiments/AOT/AOT_stimuli/rescaled_final/0244_fw.mp4	0.0	456.01285099983215	
17	436.98143005371094	pulse	1	t		15.0	2.5	/experiments/AOT/AOT_stimuli/rescaled_final/0244_fw.mp4	0.0	457.6131660938263	
17	437.4980819225311	fix_post	2		12	15.0	2.5	/experiments/AOT/AOT_stimuli/rescaled_final/0244_fw.mp4	0.0	458.1298179626465	0.10003209114074707
18	437.5981140136719	fix_pre	0		119	16.0	2.5	/experiments/AOT/AOT_stimuli/rescaled_final/1906_fw.mp4	0.0	458.22985005378723	0.9915058612823486
18	438.5814919471741	pulse	0	t		16.0	2.5	/experiments/AOT/AOT_stimuli/rescaled_final/1906_fw.mp4	0.0	459.21322798728943	
18	438.5896198749542	movie	1		248	16.0	2.5	/experiments/AOT/AOT_stimuli/rescaled_final/1906_fw.mp4	0.0	459.2213559150696	2.5083701610565186
18	440.18154406547546	pulse	1	t		16.0	2.5	/experiments/AOT/AOT_stimuli/rescaled_final/1906_fw.mp4	0.0	460.8132801055908	
18	441.09799003601074	fix_post	2		12	16.0	2.5	/experiments/AOT/AOT_stimuli/rescaled_final/1906_fw.mp4	0.0	461.7297260761261	0.09998297691345215
19	441.1979730129242	fix_pre	0		120	17.0	2.5	/experiments/AOT/AOT_stimuli/rescaled_final/0766_fw.mp4	0.0	461.82970905303955	1.000058889389038
19	441.78154492378235	pulse	0	t		17.0	2.5	/experiments/AOT/AOT_stimuli/rescaled_final/0766_fw.mp4	0.0	462.4132809638977	
19	442.19803190231323	movie	1		245	17.0	2.5	/experiments/AOT/AOT_stimuli/rescaled_final/0766_fw.mp4	0.0	462.8297679424286	2.499454975128174
19	443.38159799575806	pulse	1	t		17.0	2.5	/experiments/AOT/AOT_stimuli/rescaled_final/0766_fw.mp4	0.0	464.0133340358734	
19	444.6974868774414	fix_post	2		12	17.0	2.5	/experiments/AOT/AOT_stimuli/rescaled_final/0766_fw.mp4	0.0	465.32922291755676	0.10053801536560059
20	444.798024892807	fix_pre	0		120	18.0	2.5	/experiments/AOT/AOT_stimuli/rescaled_final/0167_fw.mp4	0.0	465.42976093292236	0.9999101161956787
20	444.9814329147339	pulse	0	t		18.0	2.5	/experiments/AOT/AOT_stimuli/rescaled_final/0167_fw.mp4	0.0	465.61316895484924	
20	445.7979350090027	movie	1		243	18.0	2.5	/experiments/AOT/AOT_stimuli/rescaled_final/0167_fw.mp4	0.0	466.42967104911804	2.500027894973755
20	446.5815689563751	pulse	1	t		18.0	2.5	/experiments/AOT/AOT_stimuli/rescaled_final/0167_fw.mp4	0.0	467.2133049964905	
20	448.1798720359802	pulse	1	t		18.0	2.5	/experiments/AOT/AOT_stimuli/rescaled_final/0167_fw.mp4	0.0	468.8116080760956	
20	448.29796290397644	fix_post	2		12	18.0	2.5	/experiments/AOT/AOT_stimuli/rescaled_final/0167_fw.mp4	0.0	468.9296989440918	0.09990906715393066
21	448.39787197113037	fix_pre	0		120	19.0	2.5	blank	1.0	469.0296080112457	1.0001420974731445
21	449.3980140686035	movie	1		300	19.0	2.5	blank	1.0	470.0297501087189	2.4999518394470215
21	449.78148198127747	pulse	1	t		19.0	2.5	blank	1.0	470.4132180213928	
21	451.3814580440521	pulse	1	t		19.0	2.5	blank	1.0	472.0131940841675	
21	451.89796590805054	fix_post	2		12	19.0	2.5	blank	1.0	472.5297019481659	0.09990811347961426
22	451.99787402153015	fix_pre	0		119	20.0	2.5	/experiments/AOT/AOT_stimuli/rescaled_final/1044_rv.mp4	0.0	472.6296100616455	0.9917159080505371
22	452.98145389556885	pulse	0	t		20.0	2.5	/experiments/AOT/AOT_stimuli/rescaled_final/1044_rv.mp4	0.0	473.6131899356842	
22	452.9895899295807	movie	1		245	20.0	2.5	/experiments/AOT/AOT_stimuli/rescaled_final/1044_rv.mp4	0.0	473.62132596969604	2.508376121520996
22	454.58139395713806	pulse	1	t		20.0	2.5	/experiments/AOT/AOT_stimuli/rescaled_final/1044_rv.mp4	0.0	475.2131299972534	
22	455.4979660511017	fix_post	2		12	20.0	2.5	/experiments/AOT/AOT_stimuli/rescaled_final/1044_rv.mp4	0.0	476.12970209121704	0.09993481636047363
23	455.59790086746216	fix_pre	0		120	21.0	2.5	/experiments/AOT/AOT_stimuli/rescaled_final/1811_fw.mp4	0.0	476.2296369075775	0.999629020690918
23	456.18142890930176	pulse	0	t		21.0	2.5	/experiments/AOT/AOT_stimuli/rescaled_final/1811_fw.mp4	0.0	476.8131649494171	
23	456.5975298881531	movie	1		244	21.0	2.5	/experiments/AOT/AOT_stimuli/rescaled_final/1811_fw.mp4	0.0	477.22926592826843	2.4999911785125732
23	457.78158593177795	pulse	1	t		21.0	2.5	/experiments/AOT/AOT_stimuli/rescaled_final/1811_fw.mp4	0.0	478.4133219718933	
23	459.09752106666565	fix_post	2		12	21.0	2.5	/experiments/AOT/AOT_stimuli/rescaled_final/1811_fw.mp4	0.0	479.729257106781	0.10031294822692871
24	459.1978340148926	fix_pre	0		120	22.0	2.5	/experiments/AOT/AOT_stimuli/rescaled_final/0808_rv.mp4	0.0	479.82957005500793	1.0001349449157715
24	459.3813190460205	pulse	0	t		22.0	2.5	/experiments/AOT/AOT_stimuli/rescaled_final/0808_rv.mp4	0.0	480.01305508613586	
24	460.19796895980835	movie	1		245	22.0	2.5	/experiments/AOT/AOT_stimuli/rescaled_final/0808_rv.mp4	0.0	480.8297049999237	2.4999430179595947
24	460.9813480377197	pulse	1	t		22.0	2.5	/experiments/AOT/AOT_stimuli/rescaled_final/0808_rv.mp4	0.0	481.6130840778351	
24	462.58003187179565	pulse	1	t		22.0	2.5	/experiments/AOT/AOT_stimuli/rescaled_final/0808_rv.mp4	0.0	483.211767911911	
24	462.69791197776794	fix_post	2		12	22.0	2.5	/experiments/AOT/AOT_stimuli/rescaled_final/0808_rv.mp4	0.0	483.3296480178833	0.09998607635498047
25	462.7978980541229	fix_pre	0		120	23.0	2.5	/experiments/AOT/AOT_stimuli/rescaled_final/0984_rv.mp4	0.0	483.4296340942383	0.9996488094329834
25	463.7975468635559	movie	1		246	23.0	2.5	/experiments/AOT/AOT_stimuli/rescaled_final/0984_rv.mp4	0.0	484.42928290367126	2.500202178955078
25	464.1810119152069	pulse	1	t		23.0	2.5	/experiments/AOT/AOT_stimuli/rescaled_final/0984_rv.mp4	0.0	484.81274795532227	
25	465.7811188697815	pulse	1	t		23.0	2.5	/experiments/AOT/AOT_stimuli/rescaled_final/0984_rv.mp4	0.0	486.41285490989685	
25	466.297749042511	fix_post	2		12	23.0	2.5	/experiments/AOT/AOT_stimuli/rescaled_final/0984_rv.mp4	0.0	486.92948508262634	0.10010004043579102
26	466.3978490829468	fix_pre	0		119	24.0	2.5	/experiments/AOT/AOT_stimuli/rescaled_final/0323_fw.mp4	0.0	487.02958512306213	0.991689920425415
26	467.38149785995483	pulse	0	t		24.0	2.5	/experiments/AOT/AOT_stimuli/rescaled_final/0323_fw.mp4	0.0	488.0132339000702	
26	467.3895390033722	movie	1		247	24.0	2.5	/experiments/AOT/AOT_stimuli/rescaled_final/0323_fw.mp4	0.0	488.02127504348755	2.5083119869232178
26	468.9812259674072	pulse	1	t		24.0	2.5	/experiments/AOT/AOT_stimuli/rescaled_final/0323_fw.mp4	0.0	489.6129620075226	
26	469.8978509902954	fix_post	2		12	24.0	2.5	/experiments/AOT/AOT_stimuli/rescaled_final/0323_fw.mp4	0.0	490.52958703041077	0.09999990463256836
27	469.997850894928	fix_pre	0		120	25.0	2.5	/experiments/AOT/AOT_stimuli/rescaled_final/0502_rv.mp4	0.0	490.62958693504333	1.0000150203704834
27	470.581316947937	pulse	0	t		25.0	2.5	/experiments/AOT/AOT_stimuli/rescaled_final/0502_rv.mp4	0.0	491.21305298805237	
27	470.99786591529846	movie	1		245	25.0	2.5	/experiments/AOT/AOT_stimuli/rescaled_final/0502_rv.mp4	0.0	491.6296019554138	2.500012159347534
27	472.1813659667969	pulse	1	t		25.0	2.5	/experiments/AOT/AOT_stimuli/rescaled_final/0502_rv.mp4	0.0	492.81310200691223	
27	473.497878074646	fix_post	2		12	25.0	2.5	/experiments/AOT/AOT_stimuli/rescaled_final/0502_rv.mp4	0.0	494.12961411476135	0.09987282752990723
28	473.5977509021759	fix_pre	0		120	26.0	2.5	/experiments/AOT/AOT_stimuli/rescaled_final/1738_rv.mp4	0.0	494.22948694229126	1.0001680850982666
28	473.7812690734863	pulse	0	t		26.0	2.5	/experiments/AOT/AOT_stimuli/rescaled_final/1738_rv.mp4	0.0	494.4130051136017	
28	474.59791898727417	movie	1		243	26.0	2.5	/experiments/AOT/AOT_stimuli/rescaled_final/1738_rv.mp4	0.0	495.2296550273895	2.4998960494995117
28	475.38122296333313	pulse	1	t		26.0	2.5	/experiments/AOT/AOT_stimuli/rescaled_final/1738_rv.mp4	0.0	496.0129590034485	
28	476.98024106025696	pulse	1	t		26.0	2.5	/experiments/AOT/AOT_stimuli/rescaled_final/1738_rv.mp4	0.0	497.6119771003723	
28	477.0978150367737	fix_post	2		12	26.0	2.5	/experiments/AOT/AOT_stimuli/rescaled_final/1738_rv.mp4	0.0	497.72955107688904	0.09997987747192383
29	477.1977949142456	fix_pre	0		120	27.0	2.5	/experiments/AOT/AOT_stimuli/rescaled_final/1775_fw.mp4	0.0	497.82953095436096	1.0000460147857666
29	478.1978409290314	movie	1		242	27.0	2.5	/experiments/AOT/AOT_stimuli/rescaled_final/1775_fw.mp4	0.0	498.82957696914673	2.499572992324829
29	478.581435918808	pulse	1	t		27.0	2.5	/experiments/AOT/AOT_stimuli/rescaled_final/1775_fw.mp4	0.0	499.21317195892334	
29	480.1812460422516	pulse	1	t		27.0	2.5	/experiments/AOT/AOT_stimuli/rescaled_final/1775_fw.mp4	0.0	500.81298208236694	
29	480.6974139213562	fix_post	2		12	27.0	2.5	/experiments/AOT/AOT_stimuli/rescaled_final/1775_fw.mp4	0.0	501.32914996147156	0.10040903091430664
30	480.7978229522705	fix_pre	0		119	28.0	2.5	blank	1.0	501.42955899238586	0.9916329383850098
30	481.7813639640808	pulse	0	t		28.0	2.5	blank	1.0	502.41310000419617	
30	481.7894558906555	movie	1		301	28.0	2.5	blank	1.0	502.4211919307709	2.5083680152893066
30	483.3813359737396	pulse	1	t		28.0	2.5	blank	1.0	504.013072013855	
30	484.2978239059448	fix_post	2		12	28.0	2.5	blank	1.0	504.9295599460602	0.09998011589050293
31	484.3978040218353	fix_pre	0		120	29.0	2.5	/experiments/AOT/AOT_stimuli/rescaled_final/1226_rv.mp4	0.0	505.0295400619507	0.9999969005584717
31	484.9813039302826	pulse	0	t		29.0	2.5	/experiments/AOT/AOT_stimuli/rescaled_final/1226_rv.mp4	0.0	505.61303997039795	
31	485.3978009223938	movie	1		245	29.0	2.5	/experiments/AOT/AOT_stimuli/rescaled_final/1226_rv.mp4	0.0	506.02953696250916	2.4999711513519287
31	486.58132004737854	pulse	1	t		29.0	2.5	/experiments/AOT/AOT_stimuli/rescaled_final/1226_rv.mp4	0.0	507.2130560874939	
31	487.8977720737457	fix_post	2		12	29.0	2.5	/experiments/AOT/AOT_stimuli/rescaled_final/1226_rv.mp4	0.0	508.5295081138611	0.09995293617248535
32	487.9977250099182	fix_pre	0		120	30.0	2.5	/experiments/AOT/AOT_stimuli/rescaled_final/1287_rv.mp4	0.0	508.62946105003357	1.0000879764556885
32	488.1811640262604	pulse	0	t		30.0	2.5	/experiments/AOT/AOT_stimuli/rescaled_final/1287_rv.mp4	0.0	508.81290006637573	
32	488.9978129863739	movie	1		244	30.0	2.5	/experiments/AOT/AOT_stimuli/rescaled_final/1287_rv.mp4	0.0	509.62954902648926	2.4999818801879883
32	489.7813229560852	pulse	1	t		30.0	2.5	/experiments/AOT/AOT_stimuli/rescaled_final/1287_rv.mp4	0.0	510.41305899620056	
32	491.37951493263245	pulse	1	t		30.0	2.5	/experiments/AOT/AOT_stimuli/rescaled_final/1287_rv.mp4	0.0	512.0112509727478	
32	491.4977948665619	fix_post	2		12	30.0	2.5	/experiments/AOT/AOT_stimuli/rescaled_final/1287_rv.mp4	0.0	512.1295309066772	0.10004305839538574
33	491.5978379249573	fix_pre	0		120	31.0	2.5	/experiments/AOT/AOT_stimuli/rescaled_final/1732_rv.mp4	0.0	512.2295739650726	0.9999511241912842
33	492.59778904914856	movie	1		244	31.0	2.5	/experiments/AOT/AOT_stimuli/rescaled_final/1732_rv.mp4	0.0	513.2295250892639	2.5000758171081543
33	492.9809219837189	pulse	1	t		31.0	2.5	/experiments/AOT/AOT_stimuli/rescaled_final/1732_rv.mp4	0.0	513.6126580238342	
33	494.58120584487915	pulse	1	t		31.0	2.5	/experiments/AOT/AOT_stimuli/rescaled_final/1732_rv.mp4	0.0	515.2129418849945	
33	495.0978648662567	fix_post	2		12	31.0	2.5	/experiments/AOT/AOT_stimuli/rescaled_final/1732_rv.mp4	0.0	515.7296009063721	0.09985804557800293
34	495.1977229118347	fix_pre	0		119	32.0	2.5	/experiments/AOT/AOT_stimuli/rescaled_final/0788_fw.mp4	0.0	515.8294589519501	0.9916000366210938
34	496.1812119483948	pulse	0	t		32.0	2.5	/experiments/AOT/AOT_stimuli/rescaled_final/0788_fw.mp4	0.0	516.8129479885101	
34	496.1893229484558	movie	1		245	32.0	2.5	/experiments/AOT/AOT_stimuli/rescaled_final/0788_fw.mp4	0.0	516.8210589885712	2.5083529949188232
34	497.78143095970154	pulse	1	t		32.0	2.5	/experiments/AOT/AOT_stimuli/rescaled_final/0788_fw.mp4	0.0	518.4131669998169	
34	498.69767594337463	fix_post	2		12	32.0	2.5	/experiments/AOT/AOT_stimuli/rescaled_final/0788_fw.mp4	0.0	519.32941198349	0.09999799728393555
35	498.79767394065857	fix_pre	0		120	33.0	2.5	/experiments/AOT/AOT_stimuli/rescaled_final/0384_rv.mp4	0.0	519.4294099807739	1.0000181198120117
35	499.3812289237976	pulse	0	t		33.0	2.5	/experiments/AOT/AOT_stimuli/rescaled_final/0384_rv.mp4	0.0	520.012964963913	
35	499.7976920604706	movie	1		243	33.0	2.5	/experiments/AOT/AOT_stimuli/rescaled_final/0384_rv.mp4	0.0	520.4294281005859	2.4995779991149902
35	500.98114800453186	pulse	1	t		33.0	2.5	/experiments/AOT/AOT_stimuli/rescaled_final/0384_rv.mp4	0.0	521.6128840446472	
35	502.29727005958557	fix_post	2		12	33.0	2.5	/experiments/AOT/AOT_stimuli/rescaled_final/0384_rv.mp4	0.0	522.9290060997009	0.10054183006286621
36	502.39781188964844	fix_pre	0		120	34.0	2.5	blank	1.0	523.0295479297638	0.9998869895935059
36	502.58118200302124	pulse	0	t		34.0	2.5	blank	1.0	523.2129180431366	
36	503.39769887924194	movie	1		300	34.0	2.5	blank	1.0	524.0294349193573	2.500042200088501
36	504.1811828613281	pulse	1	t		34.0	2.5	blank	1.0	524.8129189014435	
36	505.7811589241028	pulse	1	t		34.0	2.5	blank	1.0	526.4128949642181	
36	505.89774107933044	fix_post	2		12	34.0	2.5	blank	1.0	526.5294771194458	0.09994792938232422
37	505.99768900871277	fix_pre	0		120	35.0	2.5	/experiments/AOT/AOT_stimuli/rescaled_final/2082_fw.mp4	0.0	526.6294250488281	1.0000228881835938
37	506.99771189689636	movie	1		245	35.0	2.5	/experiments/AOT/AOT_stimuli/rescaled_final/2082_fw.mp4	0.0	527.6294479370117	2.499521017074585
37	507.38067507743835	pulse	1	t		35.0	2.5	/experiments/AOT/AOT_stimuli/rescaled_final/2082_fw.mp4	0.0	528.0124111175537	
37	508.98116397857666	pulse	1	t		35.0	2.5	/experiments/AOT/AOT_stimuli/rescaled_final/2082_fw.mp4	0.0	529.612900018692	
37	509.49723291397095	fix_post	2		12	35.0	2.5	/experiments/AOT/AOT_stimuli/rescaled_final/2082_fw.mp4	0.0	530.1289689540863	0.10044097900390625
38	509.59767389297485	fix_pre	0		119	36.0	2.5	/experiments/AOT/AOT_stimuli/rescaled_final/0142_fw.mp4	0.0	530.2294099330902	0.991631031036377
38	510.5811228752136	pulse	0	t		36.0	2.5	/experiments/AOT/AOT_stimuli/rescaled_final/0142_fw.mp4	0.0	531.212858915329	
38	510.58930492401123	movie	1		246	36.0	2.5	/experiments/AOT/AOT_stimuli/rescaled_final/0142_fw.mp4	0.0	531.2210409641266	2.508362054824829
38	512.1823089122772	pulse	1	t		36.0	2.5	/experiments/AOT/AOT_stimuli/rescaled_final/0142_fw.mp4	0.0	532.8140449523926	
38	513.0976669788361	fix_post	2		12	36.0	2.5	/experiments/AOT/AOT_stimuli/rescaled_final/0142_fw.mp4	0.0	533.7294030189514	0.09992599487304688
39	513.1975929737091	fix_pre	0		120	37.0	2.5	/experiments/AOT/AOT_stimuli/rescaled_final/1723_rv.mp4	0.0	533.8293290138245	1.0000269412994385
39	513.7812130451202	pulse	0	t		37.0	2.5	/experiments/AOT/AOT_stimuli/rescaled_final/1723_rv.mp4	0.0	534.4129490852356	
39	514.1976199150085	movie	1		243	37.0	2.5	/experiments/AOT/AOT_stimuli/rescaled_final/1723_rv.mp4	0.0	534.8293559551239	2.499925136566162
39	515.3810908794403	pulse	1	t		37.0	2.5	/experiments/AOT/AOT_stimuli/rescaled_final/1723_rv.mp4	0.0	536.0128269195557	
39	516.6975450515747	fix_post	2		12	37.0	2.5	/experiments/AOT/AOT_stimuli/rescaled_final/1723_rv.mp4	0.0	537.3292810916901	0.10010790824890137
40	516.7976529598236	fix_pre	0		120	38.0	2.5	/experiments/AOT/AOT_stimuli/rescaled_final/1243_fw.mp4	0.0	537.429388999939	1.0000030994415283
40	516.9810280799866	pulse	0	t		38.0	2.5	/experiments/AOT/AOT_stimuli/rescaled_final/1243_fw.mp4	0.0	537.6127641201019	
40	517.7976560592651	movie	1		245	38.0	2.5	/experiments/AOT/AOT_stimuli/rescaled_final/1243_fw.mp4	0.0	538.4293920993805	2.4996328353881836
40	518.5811109542847	pulse	1	t		38.0	2.5	/experiments/AOT/AOT_stimuli/rescaled_final/1243_fw.mp4	0.0	539.2128469944	
40	520.1815550327301	pulse	1	t		38.0	2.5	/experiments/AOT/AOT_stimuli/rescaled_final/1243_fw.mp4	0.0	540.8132910728455	
40	520.2972888946533	fix_post	2		12	38.0	2.5	/experiments/AOT/AOT_stimuli/rescaled_final/1243_fw.mp4	0.0	540.9290249347687	0.10030007362365723
41	520.397588968277	fix_pre	0		120	39.0	2.5	/experiments/AOT/AOT_stimuli/rescaled_final/0705_rv.mp4	0.0	541.0293250083923	0.9998350143432617
41	521.3974239826202	movie	1		244	39.0	2.5	/experiments/AOT/AOT_stimuli/rescaled_final/0705_rv.mp4	0.0	542.0291600227356	2.500148057937622
41	521.7803540229797	pulse	1	t		39.0	2.5	/experiments/AOT/AOT_stimuli/rescaled_final/0705_rv.mp4	0.0	542.4120900630951	
41	523.3811779022217	pulse	1	t		39.0	2.5	/experiments/AOT/AOT_stimuli/rescaled_final/0705_rv.mp4	0.0	544.012913942337	
41	523.8975720405579	fix_post	2		12	39.0	2.5	/experiments/AOT/AOT_stimuli/rescaled_final/0705_rv.mp4	0.0	544.5293080806732	0.10002684593200684
42	523.9975988864899	fix_pre	0		119	40.0	2.5	/experiments/AOT/AOT_stimuli/rescaled_final/1873_fw.mp4	0.0	544.6293349266052	0.99173903465271
42	524.981066942215	pulse	0	t		40.0	2.5	/experiments/AOT/AOT_stimuli/rescaled_final/1873_fw.mp4	0.0	545.6128029823303	
42	524.9893379211426	movie	1		245	40.0	2.5	/experiments/AOT/AOT_stimuli/rescaled_final/1873_fw.mp4	0.0	545.6210739612579	2.508247137069702
42	526.5809938907623	pulse	1	t		40.0	2.5	/experiments/AOT/AOT_stimuli/rescaled_final/1873_fw.mp4	0.0	547.2127299308777	
42	527.4975850582123	fix_post	2		12	40.0	2.5	/experiments/AOT/AOT_stimuli/rescaled_final/1873_fw.mp4	0.0	548.1293210983276	0.09993195533752441
43	527.5975170135498	fix_pre	0		120	41.0	2.5	blank	1.0	548.2292530536652	1.0000429153442383
43	528.1810040473938	pulse	0	t		41.0	2.5	blank	1.0	548.8127400875092	
43	528.597559928894	movie	1		300	41.0	2.5	blank	1.0	549.2292959690094	2.499967098236084
43	529.7810199260712	pulse	1	t		41.0	2.5	blank	1.0	550.4127559661865	
43	531.0975270271301	fix_post	2		12	41.0	2.5	blank	1.0	551.7292630672455	0.09996986389160156
44	531.1974968910217	fix_pre	0		120	42.0	2.5	/experiments/AOT/AOT_stimuli/rescaled_final/0015_rv.mp4	0.0	551.8292329311371	1.000020980834961
44	531.380970954895	pulse	0	t		42.0	2.5	/experiments/AOT/AOT_stimuli/rescaled_final/0015_rv.mp4	0.0	552.0127069950104	
44	532.1975178718567	movie	1		246	42.0	2.5	/experiments/AOT/AOT_stimuli/rescaled_final/0015_rv.mp4	0.0	552.829253911972	2.499939203262329
44	532.9809608459473	pulse	1	t		42.0	2.5	/experiments/AOT/AOT_stimuli/rescaled_final/0015_rv.mp4	0.0	553.6126968860626	
44	534.5798208713531	pulse	1	t		42.0	2.5	/experiments/AOT/AOT_stimuli/rescaled_final/0015_rv.mp4	0.0	555.2115569114685	
44	534.697457075119	fix_post	2		12	42.0	2.5	/experiments/AOT/AOT_stimuli/rescaled_final/0015_rv.mp4	0.0	555.3291931152344	0.1000669002532959
45	534.7975239753723	fix_pre	0		120	43.0	2.5	/experiments/AOT/AOT_stimuli/rescaled_final/1674_fw.mp4	0.0	555.4292600154877	0.9999918937683105
45	535.7975158691406	movie	1		243	43.0	2.5	/experiments/AOT/AOT_stimuli/rescaled_final/1674_fw.mp4	0.0	556.429251909256	2.499997138977051
45	536.1809160709381	pulse	1	t		43.0	2.5	/experiments/AOT/AOT_stimuli/rescaled_final/1674_fw.mp4	0.0	556.8126521110535	
45	537.7809779644012	pulse	1	t		43.0	2.5	/experiments/AOT/AOT_stimuli/rescaled_final/1674_fw.mp4	0.0	558.4127140045166	
45	538.2975130081177	fix_post	2		12	43.0	2.5	/experiments/AOT/AOT_stimuli/rescaled_final/1674_fw.mp4	0.0	558.929249048233	0.09989595413208008
46	538.3974089622498	fix_pre	0		119	44.0	2.5	/experiments/AOT/AOT_stimuli/rescaled_final/0661_rv.mp4	0.0	559.0291450023651	0.9916601181030273
46	539.3809499740601	pulse	0	t		44.0	2.5	/experiments/AOT/AOT_stimuli/rescaled_final/0661_rv.mp4	0.0	560.0126860141754	
46	539.3890690803528	movie	1		244	44.0	2.5	/experiments/AOT/AOT_stimuli/rescaled_final/0661_rv.mp4	0.0	560.0208051204681	2.5083799362182617
46	540.9819390773773	pulse	1	t		44.0	2.5	/experiments/AOT/AOT_stimuli/rescaled_final/0661_rv.mp4	0.0	561.6136751174927	
46	541.897449016571	fix_post	2		12	44.0	2.5	/experiments/AOT/AOT_stimuli/rescaled_final/0661_rv.mp4	0.0	562.5291850566864	0.09998083114624023
47	541.9974298477173	fix_pre	0		120	45.0	2.5	/experiments/AOT/AOT_stimuli/rescaled_final/2117_fw.mp4	0.0	562.6291658878326	0.9996140003204346
47	542.5810308456421	pulse	0	t		45.0	2.5	/experiments/AOT/AOT_stimuli/rescaled_final/2117_fw.mp4	0.0	563.2127668857574	
47	542.9970438480377	movie	1		245	45.0	2.5	/experiments/AOT/AOT_stimuli/rescaled_final/2117_fw.mp4	0.0	563.6287798881531	2.500049114227295
47	544.1811249256134	pulse	1	t		45.0	2.5	/experiments/AOT/AOT_stimuli/rescaled_final/2117_fw.mp4	0.0	564.8128609657288	
47	545.497092962265	fix_post	2		12	45.0	2.5	/experiments/AOT/AOT_stimuli/rescaled_final/2117_fw.mp4	0.0	566.1288290023804	0.10045003890991211
48	545.5975430011749	fix_pre	0		120	46.0	2.5	/experiments/AOT/AOT_stimuli/rescaled_final/0796_fw.mp4	0.0	566.2292790412903	0.9999909400939941
48	545.7809240818024	pulse	0	t		46.0	2.5	/experiments/AOT/AOT_stimuli/rescaled_final/0796_fw.mp4	0.0	566.4126601219177	
48	546.5975339412689	movie	1		243	46.0	2.5	/experiments/AOT/AOT_stimuli/rescaled_final/0796_fw.mp4	0.0	567.2292699813843	2.4999499320983887
48	547.3809299468994	pulse	1	t		46.0	2.5	/experiments/AOT/AOT_stimuli/rescaled_final/0796_fw.mp4	0.0	568.0126659870148	
48	548.9793610572815	pulse	1	t		46.0	2.5	/experiments/AOT/AOT_stimuli/rescaled_final/0796_fw.mp4	0.0	569.6110970973969	
48	549.0974838733673	fix_post	2		12	46.0	2.5	/experiments/AOT/AOT_stimuli/rescaled_final/0796_fw.mp4	0.0	569.7292199134827	0.09998703002929688
49	549.1974709033966	fix_pre	0		120	47.0	2.5	/experiments/AOT/AOT_stimuli/rescaled_final/1536_rv.mp4	0.0	569.829206943512	0.9999639987945557
49	550.1974349021912	movie	1		246	47.0	2.5	/experiments/AOT/AOT_stimuli/rescaled_final/1536_rv.mp4	0.0	570.8291709423065	2.499588966369629
49	550.5807900428772	pulse	1	t		47.0	2.5	/experiments/AOT/AOT_stimuli/rescaled_final/1536_rv.mp4	0.0	571.2125260829926	
49	552.1809570789337	pulse	1	t		47.0	2.5	/experiments/AOT/AOT_stimuli/rescaled_final/1536_rv.mp4	0.0	572.8126931190491	
49	552.6970238685608	fix_post	2		12	47.0	2.5	/experiments/AOT/AOT_stimuli/rescaled_final/1536_rv.mp4	0.0	573.3287599086761	0.10036206245422363
50	552.797385931015	fix_pre	0		119	48.0	2.5	blank	1.0	573.4291219711304	0.9917399883270264
50	553.7809748649597	pulse	0	t		48.0	2.5	blank	1.0	574.4127109050751	
50	553.789125919342	movie	1		301	48.0	2.5	blank	1.0	574.4208619594574	2.508239984512329
50	555.3809239864349	pulse	1	t		48.0	2.5	blank	1.0	576.0126600265503	
50	556.2973659038544	fix_post	2		12	48.0	2.5	blank	1.0	576.9291019439697	0.10013198852539062
51	556.3974978923798	fix_pre	0		120	49.0	2.5	/experiments/AOT/AOT_stimuli/rescaled_final/0693_rv.mp4	0.0	577.0292339324951	0.9999470710754395
51	556.9807639122009	pulse	0	t		49.0	2.5	/experiments/AOT/AOT_stimuli/rescaled_final/0693_rv.mp4	0.0	577.6124999523163	
51	557.3974449634552	movie	1		244	49.0	2.5	/experiments/AOT/AOT_stimuli/rescaled_final/0693_rv.mp4	0.0	578.0291810035706	2.4999849796295166
51	558.5809609889984	pulse	1	t		49.0	2.5	/experiments/AOT/AOT_stimuli/rescaled_final/0693_rv.mp4	0.0	579.2126970291138	
51	559.8974299430847	fix_post	2		12	49.0	2.5	/experiments/AOT/AOT_stimuli/rescaled_final/0693_rv.mp4	0.0	580.5291659832001	0.1000070571899414
52	559.9974370002747	fix_pre	0		120	50.0	2.5	/experiments/AOT/AOT_stimuli/rescaled_final/1090_rv.mp4	0.0	580.62917304039	1.0000178813934326
52	560.1809899806976	pulse	0	t		50.0	2.5	/experiments/AOT/AOT_stimuli/rescaled_final/1090_rv.mp4	0.0	580.812726020813	
52	560.9974548816681	movie	1		245	50.0	2.5	/experiments/AOT/AOT_stimuli/rescaled_final/1090_rv.mp4	0.0	581.6291909217834	2.4999871253967285
52	561.7808759212494	pulse	1	t		50.0	2.5	/experiments/AOT/AOT_stimuli/rescaled_final/1090_rv.mp4	0.0	582.4126119613647	
52	563.3796758651733	pulse	1	t		50.0	2.5	/experiments/AOT/AOT_stimuli/rescaled_final/1090_rv.mp4	0.0	584.0114119052887	
52	563.4974420070648	fix_post	2		12	50.0	2.5	/experiments/AOT/AOT_stimuli/rescaled_final/1090_rv.mp4	0.0	584.1291780471802	0.09996986389160156
53	563.5974118709564	fix_pre	0		120	51.0	2.5	/experiments/AOT/AOT_stimuli/rescaled_final/0688_rv.mp4	0.0	584.2291479110718	1.000007152557373
53	564.5974190235138	movie	1		243	51.0	2.5	/experiments/AOT/AOT_stimuli/rescaled_final/0688_rv.mp4	0.0	585.2291550636292	2.4999120235443115
53	564.9806969165802	pulse	1	t		51.0	2.5	/experiments/AOT/AOT_stimuli/rescaled_final/0688_rv.mp4	0.0	585.6124329566956	
53	566.5808880329132	pulse	1	t		51.0	2.5	/experiments/AOT/AOT_stimuli/rescaled_final/0688_rv.mp4	0.0	587.2126240730286	
53	567.0973310470581	fix_post	2		12	51.0	2.5	/experiments/AOT/AOT_stimuli/rescaled_final/0688_rv.mp4	0.0	587.7290670871735	0.10005593299865723
54	567.1973869800568	fix_pre	0		119	52.0	2.5	/experiments/AOT/AOT_stimuli/rescaled_final/2004_fw.mp4	0.0	587.8291230201721	0.9916319847106934
54	568.1808960437775	pulse	0	t		52.0	2.5	/experiments/AOT/AOT_stimuli/rescaled_final/2004_fw.mp4	0.0	588.8126320838928	
54	568.1890189647675	movie	1		244	52.0	2.5	/experiments/AOT/AOT_stimuli/rescaled_final/2004_fw.mp4	0.0	588.8207550048828	2.5082459449768066
54	569.7810940742493	pulse	1	t		52.0	2.5	/experiments/AOT/AOT_stimuli/rescaled_final/2004_fw.mp4	0.0	590.4128301143646	
54	570.6972649097443	fix_post	2		12	52.0	2.5	/experiments/AOT/AOT_stimuli/rescaled_final/2004_fw.mp4	0.0	591.3290009498596	0.10001707077026367
55	570.7972819805145	fix_pre	0		120	53.0	2.5	/experiments/AOT/AOT_stimuli/rescaled_final/0256_rv.mp4	0.0	591.4290180206299	1.000040054321289
55	571.3808009624481	pulse	0	t		53.0	2.5	/experiments/AOT/AOT_stimuli/rescaled_final/0256_rv.mp4	0.0	592.0125370025635	
55	571.7973220348358	movie	1		245	53.0	2.5	/experiments/AOT/AOT_stimuli/rescaled_final/0256_rv.mp4	0.0	592.4290580749512	2.500113010406494
55	572.9809498786926	pulse	1	t		53.0	2.5	/experiments/AOT/AOT_stimuli/rescaled_final/0256_rv.mp4	0.0	593.612685918808	
55	574.2974350452423	fix_post	2		12	53.0	2.5	/experiments/AOT/AOT_stimuli/rescaled_final/0256_rv.mp4	0.0	594.9291710853577	0.09995794296264648
56	574.397392988205	fix_pre	0		120	54.0	2.5	/experiments/AOT/AOT_stimuli/rescaled_final/1522_fw.mp4	0.0	595.0291290283203	0.9995338916778564
56	574.5808539390564	pulse	0	t		54.0	2.5	/experiments/AOT/AOT_stimuli/rescaled_final/1522_fw.mp4	0.0	595.2125899791718	
56	575.3969268798828	movie	1		246	54.0	2.5	/experiments/AOT/AOT_stimuli/rescaled_final/1522_fw.mp4	0.0	596.0286629199982	2.500256061553955
56	576.1803588867188	pulse	1	t		54.0	2.5	/experiments/AOT/AOT_stimuli/rescaled_final/1522_fw.mp4	0.0	596.8120949268341	
56	577.7791628837585	pulse	1	t		54.0	2.5	/experiments/AOT/AOT_stimuli/rescaled_final/1522_fw.mp4	0.0	598.4108989238739	
56	577.8971829414368	fix_post	2		12	54.0	2.5	/experiments/AOT/AOT_stimuli/rescaled_final/1522_fw.mp4	0.0	598.5289189815521	0.10025501251220703
57	577.997437953949	fix_pre	0		120	55.0	2.5	/experiments/AOT/AOT_stimuli/rescaled_final/0430_fw.mp4	0.0	598.6291739940643	0.9999918937683105
57	578.9974298477173	movie	1		245	55.0	2.5	/experiments/AOT/AOT_stimuli/rescaled_final/0430_fw.mp4	0.0	599.6291658878326	2.499415159225464
57	579.3818309307098	pulse	1	t		55.0	2.5	/experiments/AOT/AOT_stimuli/rescaled_final/0430_fw.mp4	0.0	600.0135669708252	
57	580.9809100627899	pulse	1	t		55.0	2.5	/experiments/AOT/AOT_stimuli/rescaled_final/0430_fw.mp4	0.0	601.6126461029053	
57	581.4968450069427	fix_post	2		12	55.0	2.5	/experiments/AOT/AOT_stimuli/rescaled_final/0430_fw.mp4	0.0	602.1285810470581	0.10048604011535645
58	581.5973310470581	fix_pre	0		119	56.0	2.5	blank	1.0	602.2290670871735	0.9916369915008545
58	582.5807158946991	pulse	0	t		56.0	2.5	blank	1.0	603.2124519348145	
58	582.588968038559	movie	1		301	56.0	2.5	blank	1.0	603.2207040786743	2.5079448223114014
58	584.1807389259338	pulse	1	t		56.0	2.5	blank	1.0	604.8124749660492	
58	585.0969128608704	fix_post	2		12	56.0	2.5	blank	1.0	605.7286489009857	0.10033202171325684
59	585.1972448825836	fix_pre	0		120	57.0	2.5	/experiments/AOT/AOT_stimuli/rescaled_final/1842_fw.mp4	0.0	605.828980922699	0.9999761581420898
59	585.7807490825653	pulse	0	t		57.0	2.5	/experiments/AOT/AOT_stimuli/rescaled_final/1842_fw.mp4	0.0	606.4124851226807	
59	586.1972210407257	movie	1		243	57.0	2.5	/experiments/AOT/AOT_stimuli/rescaled_final/1842_fw.mp4	0.0	606.8289570808411	2.4995789527893066
59	587.3806660175323	pulse	1	t		57.0	2.5	/experiments/AOT/AOT_stimuli/rescaled_final/1842_fw.mp4	0.0	608.0124020576477	
59	588.696799993515	fix_post	2		12	57.0	2.5	/experiments/AOT/AOT_stimuli/rescaled_final/1842_fw.mp4	0.0	609.3285360336304	0.10046601295471191
60	588.7972660064697	fix_pre	0		120	58.0	2.5	/experiments/AOT/AOT_stimuli/rescaled_final/1581_fw.mp4	0.0	609.4290020465851	0.9999940395355225
60	588.9807529449463	pulse	0	t		58.0	2.5	/experiments/AOT/AOT_stimuli/rescaled_final/1581_fw.mp4	0.0	609.6124889850616	
60	589.7972600460052	movie	1		245	58.0	2.5	/experiments/AOT/AOT_stimuli/rescaled_final/1581_fw.mp4	0.0	610.4289960861206	2.4999759197235107
60	590.5806798934937	pulse	1	t		58.0	2.5	/experiments/AOT/AOT_stimuli/rescaled_final/1581_fw.mp4	0.0	611.212415933609	
60	592.1802730560303	pulse	1	t		58.0	2.5	/experiments/AOT/AOT_stimuli/rescaled_final/1581_fw.mp4	0.0	612.8120090961456	
60	592.2972359657288	fix_post	2		12	58.0	2.5	/experiments/AOT/AOT_stimuli/rescaled_final/1581_fw.mp4	0.0	612.9289720058441	0.09999394416809082
61	592.3972299098969	fix_pre	0		120	59.0	2.5	/experiments/AOT/AOT_stimuli/rescaled_final/2135_fw.mp4	0.0	613.0289659500122	1.0000660419464111
61	593.3972959518433	movie	1		246	59.0	2.5	/experiments/AOT/AOT_stimuli/rescaled_final/2135_fw.mp4	0.0	614.0290319919586	2.4999020099639893
61	593.7801749706268	pulse	1	t		59.0	2.5	/experiments/AOT/AOT_stimuli/rescaled_final/2135_fw.mp4	0.0	614.4119110107422	
61	595.3806719779968	pulse	1	t		59.0	2.5	/experiments/AOT/AOT_stimuli/rescaled_final/2135_fw.mp4	0.0	616.0124080181122	
61	595.8971979618073	fix_post	2		12	59.0	2.5	/experiments/AOT/AOT_stimuli/rescaled_final/2135_fw.mp4	0.0	616.5289340019226	0.10001301765441895
62	595.9972109794617	fix_pre	0		119	60.0	2.5	/experiments/AOT/AOT_stimuli/rescaled_final/0769_fw.mp4	0.0	616.628947019577	0.9916419982910156
62	596.9806499481201	pulse	0	t		60.0	2.5	/experiments/AOT/AOT_stimuli/rescaled_final/0769_fw.mp4	0.0	617.6123859882355	
62	596.9888529777527	movie	1		247	60.0	2.5	/experiments/AOT/AOT_stimuli/rescaled_final/0769_fw.mp4	0.0	617.620589017868	2.508344888687134
62	598.5802299976349	pulse	1	t		60.0	2.5	/experiments/AOT/AOT_stimuli/rescaled_final/0769_fw.mp4	0.0	619.2119660377502	
62	599.4971978664398	fix_post	2		12	60.0	2.5	/experiments/AOT/AOT_stimuli/rescaled_final/0769_fw.mp4	0.0	620.1289339065552	0.09996819496154785
63	599.5971660614014	fix_pre	0		120	61.0	2.5	/experiments/AOT/AOT_stimuli/rescaled_final/1073_rv.mp4	0.0	620.2289021015167	1.0000088214874268
63	600.1806290149689	pulse	0	t		61.0	2.5	/experiments/AOT/AOT_stimuli/rescaled_final/1073_rv.mp4	0.0	620.8123650550842	
63	600.5971748828888	movie	1		244	61.0	2.5	/experiments/AOT/AOT_stimuli/rescaled_final/1073_rv.mp4	0.0	621.2289109230042	2.4999821186065674
63	601.7807469367981	pulse	1	t		61.0	2.5	/experiments/AOT/AOT_stimuli/rescaled_final/1073_rv.mp4	0.0	622.4124829769135	
63	603.0971570014954	fix_post	2		12	61.0	2.5	/experiments/AOT/AOT_stimuli/rescaled_final/1073_rv.mp4	0.0	623.7288930416107	0.09995698928833008
64	603.1971139907837	fix_pre	0		120	62.0	2.5	/experiments/AOT/AOT_stimuli/rescaled_final/1593_rv.mp4	0.0	623.828850030899	1.0000500679016113
64	603.3807508945465	pulse	0	t		62.0	2.5	/experiments/AOT/AOT_stimuli/rescaled_final/1593_rv.mp4	0.0	624.0124869346619	
64	604.1971640586853	movie	1		243	62.0	2.5	/experiments/AOT/AOT_stimuli/rescaled_final/1593_rv.mp4	0.0	624.8289000988007	2.5000429153442383
64	604.9806380271912	pulse	1	t		62.0	2.5	/experiments/AOT/AOT_stimuli/rescaled_final/1593_rv.mp4	0.0	625.6123740673065	
64	606.5801429748535	pulse	1	t		62.0	2.5	/experiments/AOT/AOT_stimuli/rescaled_final/1593_rv.mp4	0.0	627.2118790149689	
64	606.6972069740295	fix_post	2		12	62.0	2.5	/experiments/AOT/AOT_stimuli/rescaled_final/1593_rv.mp4	0.0	627.3289430141449	0.10000896453857422
65	606.7972159385681	fix_pre	0		120	63.0	2.5	blank	1.0	627.4289519786835	0.9999079704284668
65	607.7971239089966	movie	1		300	63.0	2.5	blank	1.0	628.4288599491119	2.499958038330078
65	608.1806409358978	pulse	1	t		63.0	2.5	blank	1.0	628.8123769760132	
65	609.7806098461151	pulse	1	t		63.0	2.5	blank	1.0	630.4123458862305	
65	610.2970819473267	fix_post	2		12	63.0	2.5	blank	1.0	630.928817987442	0.10009098052978516
66	610.3971729278564	fix_pre	0		119	64.0	2.5	/experiments/AOT/AOT_stimuli/rescaled_final/0645_fw.mp4	0.0	631.0289089679718	0.9916300773620605
66	611.3806810379028	pulse	0	t		64.0	2.5	/experiments/AOT/AOT_stimuli/rescaled_final/0645_fw.mp4	0.0	632.0124170780182	
66	611.3888030052185	movie	1		244	64.0	2.5	/experiments/AOT/AOT_stimuli/rescaled_final/0645_fw.mp4	0.0	632.0205390453339	2.5083069801330566
66	612.9807629585266	pulse	1	t		64.0	2.5	/experiments/AOT/AOT_stimuli/rescaled_final/0645_fw.mp4	0.0	633.612498998642	
66	613.8971099853516	fix_post	2		12	64.0	2.5	/experiments/AOT/AOT_stimuli/rescaled_final/0645_fw.mp4	0.0	634.5288460254669	0.09996795654296875
67	613.9970779418945	fix_pre	0		120	65.0	2.5	/experiments/AOT/AOT_stimuli/rescaled_final/1078_rv.mp4	0.0	634.6288139820099	1.0000901222229004
67	614.5806300640106	pulse	0	t		65.0	2.5	/experiments/AOT/AOT_stimuli/rescaled_final/1078_rv.mp4	0.0	635.212366104126	
67	614.9971680641174	movie	1		242	65.0	2.5	/experiments/AOT/AOT_stimuli/rescaled_final/1078_rv.mp4	0.0	635.6289041042328	2.4995579719543457
67	616.1807019710541	pulse	1	t		65.0	2.5	/experiments/AOT/AOT_stimuli/rescaled_final/1078_rv.mp4	0.0	636.8124380111694	
67	617.4967260360718	fix_post	2		12	65.0	2.5	/experiments/AOT/AOT_stimuli/rescaled_final/1078_rv.mp4	0.0	638.1284620761871	0.1003580093383789
68	617.5970840454102	fix_pre	0		120	66.0	2.5	/experiments/AOT/AOT_stimuli/rescaled_final/1616_fw.mp4	0.0	638.2288200855255	1.0000929832458496
68	617.7805240154266	pulse	0	t		66.0	2.5	/experiments/AOT/AOT_stimuli/rescaled_final/1616_fw.mp4	0.0	638.412260055542	
68	618.597177028656	movie	1		242	66.0	2.5	/experiments/AOT/AOT_stimuli/rescaled_final/1616_fw.mp4	0.0	639.2289130687714	2.499891996383667
68	619.380567073822	pulse	1	t		66.0	2.5	/experiments/AOT/AOT_stimuli/rescaled_final/1616_fw.mp4	0.0	640.0123031139374	
68	620.9889650344849	pulse	1	t		66.0	2.5	/experiments/AOT/AOT_stimuli/rescaled_final/1616_fw.mp4	0.0	641.6207010746002	
68	621.0970690250397	fix_post	2		12	66.0	2.5	/experiments/AOT/AOT_stimuli/rescaled_final/1616_fw.mp4	0.0	641.728805065155	0.09998297691345215
69	621.1970520019531	fix_pre	0		120	67.0	2.5	/experiments/AOT/AOT_stimuli/rescaled_final/0796_fw.mp4	0.0	641.8287880420685	1.0000028610229492
69	622.1970548629761	movie	1		242	67.0	2.5	/experiments/AOT/AOT_stimuli/rescaled_final/0796_fw.mp4	0.0	642.8287909030914	2.5000040531158447
69	622.5801510810852	pulse	1	t		67.0	2.5	/experiments/AOT/AOT_stimuli/rescaled_final/0796_fw.mp4	0.0	643.2118871212006	
69	624.1805019378662	pulse	1	t		67.0	2.5	/experiments/AOT/AOT_stimuli/rescaled_final/0796_fw.mp4	0.0	644.8122379779816	
69	624.6970589160919	fix_post	2		12	67.0	2.5	/experiments/AOT/AOT_stimuli/rescaled_final/0796_fw.mp4	0.0	645.3287949562073	0.09995603561401367
70	624.7970149517059	fix_pre	0		119	68.0	2.5	/experiments/AOT/AOT_stimuli/rescaled_final/1906_rv.mp4	0.0	645.4287509918213	0.9916880130767822
70	625.7806270122528	pulse	0	t		68.0	2.5	/experiments/AOT/AOT_stimuli/rescaled_final/1906_rv.mp4	0.0	646.4123630523682	
70	625.7887029647827	movie	1		246	68.0	2.5	/experiments/AOT/AOT_stimuli/rescaled_final/1906_rv.mp4	0.0	646.4204390048981	2.5079710483551025
70	627.3800899982452	pulse	1	t		68.0	2.5	/experiments/AOT/AOT_stimuli/rescaled_final/1906_rv.mp4	0.0	648.0118260383606	
70	628.2966740131378	fix_post	2		12	68.0	2.5	/experiments/AOT/AOT_stimuli/rescaled_final/1906_rv.mp4	0.0	648.9284100532532	0.1002810001373291
71	628.3969550132751	fix_pre	0		120	69.0	2.5	/experiments/AOT/AOT_stimuli/rescaled_final/0527_fw.mp4	0.0	649.0286910533905	1.00016188621521
71	628.9806048870087	pulse	0	t		69.0	2.5	/experiments/AOT/AOT_stimuli/rescaled_final/0527_fw.mp4	0.0	649.612340927124	
71	629.3971168994904	movie	1		244	69.0	2.5	/experiments/AOT/AOT_stimuli/rescaled_final/0527_fw.mp4	0.0	650.0288529396057	2.499967098236084
71	630.5805969238281	pulse	1	t		69.0	2.5	/experiments/AOT/AOT_stimuli/rescaled_final/0527_fw.mp4	0.0	651.2123329639435	
71	631.8970839977264	fix_post	2		12	69.0	2.5	/experiments/AOT/AOT_stimuli/rescaled_final/0527_fw.mp4	0.0	652.5288200378418	0.09997797012329102
72	631.9970619678497	fix_pre	0		120	70.0	2.5	blank	1.0	652.6287980079651	1.0002000331878662
72	632.1802279949188	pulse	0	t		70.0	2.5	blank	1.0	652.8119640350342	
72	632.9972620010376	movie	1		300	70.0	2.5	blank	1.0	653.628998041153	2.499809980392456
72	633.7803359031677	pulse	1	t		70.0	2.5	blank	1.0	654.4120719432831	
72	635.3804888725281	pulse	1	t		70.0	2.5	blank	1.0	656.0122249126434	
72	635.49707198143	fix_post	2		12	70.0	2.5	blank	1.0	656.1288080215454	0.09992504119873047
73	635.5969970226288	fix_pre	0		120	71.0	2.5	/experiments/AOT/AOT_stimuli/rescaled_final/1260_fw.mp4	0.0	656.2287330627441	0.9999959468841553
73	636.5969929695129	movie	1		244	71.0	2.5	/experiments/AOT/AOT_stimuli/rescaled_final/1260_fw.mp4	0.0	657.2287290096283	2.499972105026245
73	636.9804799556732	pulse	1	t		71.0	2.5	/experiments/AOT/AOT_stimuli/rescaled_final/1260_fw.mp4	0.0	657.6122159957886	
73	638.5803420543671	pulse	1	t		71.0	2.5	/experiments/AOT/AOT_stimuli/rescaled_final/1260_fw.mp4	0.0	659.2120780944824	
73	639.0969650745392	fix_post	2		12	71.0	2.5	/experiments/AOT/AOT_stimuli/rescaled_final/1260_fw.mp4	0.0	659.7287011146545	0.09995889663696289
74	639.1969239711761	fix_pre	0		119	72.0	2.5	/experiments/AOT/AOT_stimuli/rescaled_final/2106_fw.mp4	0.0	659.8286600112915	0.991671085357666
74	640.1804599761963	pulse	0	t		72.0	2.5	/experiments/AOT/AOT_stimuli/rescaled_final/2106_fw.mp4	0.0	660.8121960163116	
74	640.1885950565338	movie	1		246	72.0	2.5	/experiments/AOT/AOT_stimuli/rescaled_final/2106_fw.mp4	0.0	660.8203310966492	2.5083229541778564
74	641.7802119255066	pulse	1	t		72.0	2.5	/experiments/AOT/AOT_stimuli/rescaled_final/2106_fw.mp4	0.0	662.411947965622	
74	642.6969180107117	fix_post	2		12	72.0	2.5	/experiments/AOT/AOT_stimuli/rescaled_final/2106_fw.mp4	0.0	663.328654050827	0.10001087188720703
75	642.7969288825989	fix_pre	0		120	73.0	2.5	/experiments/AOT/AOT_stimuli/rescaled_final/0296_fw.mp4	0.0	663.4286649227142	0.9999551773071289
75	643.3805048465729	pulse	0	t		73.0	2.5	/experiments/AOT/AOT_stimuli/rescaled_final/0296_fw.mp4	0.0	664.0122408866882	
75	643.796884059906	movie	1		245	73.0	2.5	/experiments/AOT/AOT_stimuli/rescaled_final/0296_fw.mp4	0.0	664.4286201000214	2.4996349811553955
75	644.9806289672852	pulse	1	t		73.0	2.5	/experiments/AOT/AOT_stimuli/rescaled_final/0296_fw.mp4	0.0	665.6123650074005	
75	646.2965190410614	fix_post	2		12	73.0	2.5	/experiments/AOT/AOT_stimuli/rescaled_final/0296_fw.mp4	0.0	666.9282550811768	0.10032892227172852
76	646.3968479633331	fix_pre	0		120	74.0	2.5	/experiments/AOT/AOT_stimuli/rescaled_final/1243_rv.mp4	0.0	667.0285840034485	1.0000948905944824
76	646.5804290771484	pulse	0	t		74.0	2.5	/experiments/AOT/AOT_stimuli/rescaled_final/1243_rv.mp4	0.0	667.2121651172638	
76	647.3969428539276	movie	1		246	74.0	2.5	/experiments/AOT/AOT_stimuli/rescaled_final/1243_rv.mp4	0.0	668.028678894043	2.499908208847046
76	648.1804430484772	pulse	1	t		74.0	2.5	/experiments/AOT/AOT_stimuli/rescaled_final/1243_rv.mp4	0.0	668.8121790885925	
76	649.7804238796234	pulse	1	t		74.0	2.5	/experiments/AOT/AOT_stimuli/rescaled_final/1243_rv.mp4	0.0	670.4121599197388	
76	649.8968510627747	fix_post	2		12	74.0	2.5	/experiments/AOT/AOT_stimuli/rescaled_final/1243_rv.mp4	0.0	670.52858710289	0.099700927734375
77	649.996551990509	fix_pre	0		120	75.0	2.5	blank	1.0	670.6282880306244	1.0003678798675537
77	650.9969198703766	movie	1		300	75.0	2.5	blank	1.0	671.628655910492	2.4999501705169678
77	651.3804099559784	pulse	1	t		75.0	2.5	blank	1.0	672.0121459960938	
77	652.9804029464722	pulse	1	t		75.0	2.5	blank	1.0	673.6121389865875	
77	653.4968700408936	fix_post	2		12	75.0	2.5	blank	1.0	674.1286060810089	0.10008692741394043
78	653.5969569683075	fix_pre	0		119	76.0	2.5	/experiments/AOT/AOT_stimuli/rescaled_final/1522_fw.mp4	0.0	674.2286930084229	0.9915809631347656
78	654.5803570747375	pulse	0	t		76.0	2.5	/experiments/AOT/AOT_stimuli/rescaled_final/1522_fw.mp4	0.0	675.2120931148529	
78	654.5885379314423	movie	1		244	76.0	2.5	/experiments/AOT/AOT_stimuli/rescaled_final/1522_fw.mp4	0.0	675.2202739715576	2.5083611011505127
78	656.1799640655518	pulse	1	t		76.0	2.5	/experiments/AOT/AOT_stimuli/rescaled_final/1522_fw.mp4	0.0	676.8117001056671	
78	657.0968990325928	fix_post	2		12	76.0	2.5	/experiments/AOT/AOT_stimuli/rescaled_final/1522_fw.mp4	0.0	677.7286350727081	0.09957599639892578
79	657.1964750289917	fix_pre	0		120	77.0	2.5	/experiments/AOT/AOT_stimuli/rescaled_final/0756_rv.mp4	0.0	677.828211069107	1.0004379749298096
79	657.7803299427032	pulse	0	t		77.0	2.5	/experiments/AOT/AOT_stimuli/rescaled_final/0756_rv.mp4	0.0	678.4120659828186	
79	658.1969130039215	movie	1		244	77.0	2.5	/experiments/AOT/AOT_stimuli/rescaled_final/0756_rv.mp4	0.0	678.8286490440369	2.4995949268341064
79	659.3804099559784	pulse	1	t		77.0	2.5	/experiments/AOT/AOT_stimuli/rescaled_final/0756_rv.mp4	0.0	680.0121459960938	
79	660.6965079307556	fix_post	2		12	77.0	2.5	/experiments/AOT/AOT_stimuli/rescaled_final/0756_rv.mp4	0.0	681.328243970871	0.10047411918640137
80	660.796982049942	fix_pre	0		120	78.0	2.5	/experiments/AOT/AOT_stimuli/rescaled_final/0749_fw.mp4	0.0	681.4287180900574	0.9999799728393555
80	660.980329990387	pulse	0	t		78.0	2.5	/experiments/AOT/AOT_stimuli/rescaled_final/0749_fw.mp4	0.0	681.6120660305023	
80	661.7969620227814	movie	1		244	78.0	2.5	/experiments/AOT/AOT_stimuli/rescaled_final/0749_fw.mp4	0.0	682.4286980628967	2.4998810291290283
80	662.5802869796753	pulse	1	t		78.0	2.5	/experiments/AOT/AOT_stimuli/rescaled_final/0749_fw.mp4	0.0	683.2120230197906	
80	664.1788609027863	pulse	1	t		78.0	2.5	/experiments/AOT/AOT_stimuli/rescaled_final/0749_fw.mp4	0.0	684.8105969429016	
80	664.2968430519104	fix_post	2		12	78.0	2.5	/experiments/AOT/AOT_stimuli/rescaled_final/0749_fw.mp4	0.0	684.9285790920258	0.10000896453857422
81	664.396852016449	fix_pre	0		120	79.0	2.5	/experiments/AOT/AOT_stimuli/rescaled_final/1287_fw.mp4	0.0	685.0285880565643	1.0000109672546387
81	665.3968629837036	movie	1		245	79.0	2.5	/experiments/AOT/AOT_stimuli/rescaled_final/1287_fw.mp4	0.0	686.028599023819	2.4999680519104004
81	665.7799029350281	pulse	1	t		79.0	2.5	/experiments/AOT/AOT_stimuli/rescaled_final/1287_fw.mp4	0.0	686.4116389751434	
81	667.3803889751434	pulse	1	t		79.0	2.5	/experiments/AOT/AOT_stimuli/rescaled_final/1287_fw.mp4	0.0	688.0121250152588	
81	667.896831035614	fix_post	2		12	79.0	2.5	/experiments/AOT/AOT_stimuli/rescaled_final/1287_fw.mp4	0.0	688.5285670757294	0.1000368595123291
82	667.9968678951263	fix_pre	0		119	80.0	2.5	/experiments/AOT/AOT_stimuli/rescaled_final/0489_fw.mp4	0.0	688.6286039352417	0.9917190074920654
82	668.9803278446198	pulse	0	t		80.0	2.5	/experiments/AOT/AOT_stimuli/rescaled_final/0489_fw.mp4	0.0	689.6120638847351	
82	668.9885869026184	movie	1		244	80.0	2.5	/experiments/AOT/AOT_stimuli/rescaled_final/0489_fw.mp4	0.0	689.6203229427338	2.507887125015259
82	670.5800499916077	pulse	1	t		80.0	2.5	/experiments/AOT/AOT_stimuli/rescaled_final/0489_fw.mp4	0.0	691.211786031723	
82	671.4964740276337	fix_post	2		12	80.0	2.5	/experiments/AOT/AOT_stimuli/rescaled_final/0489_fw.mp4	0.0	692.128210067749	0.10037994384765625
83	671.5968539714813	fix_pre	0		120	81.0	2.5	/experiments/AOT/AOT_stimuli/rescaled_final/1726_rv.mp4	0.0	692.2285900115967	1.0000529289245605
83	672.1803648471832	pulse	0	t		81.0	2.5	/experiments/AOT/AOT_stimuli/rescaled_final/1726_rv.mp4	0.0	692.8121008872986	
83	672.5969069004059	movie	1		243	81.0	2.5	/experiments/AOT/AOT_stimuli/rescaled_final/1726_rv.mp4	0.0	693.2286429405212	2.499901056289673
83	673.78040599823	pulse	1	t		81.0	2.5	/experiments/AOT/AOT_stimuli/rescaled_final/1726_rv.mp4	0.0	694.4121420383453	
83	675.0968079566956	fix_post	2		12	81.0	2.5	/experiments/AOT/AOT_stimuli/rescaled_final/1726_rv.mp4	0.0	695.7285439968109	0.10000991821289062
84	675.1968178749084	fix_pre	0		120	82.0	2.5	blank	1.0	695.8285539150238	0.9999840259552002
84	675.3802819252014	pulse	0	t		82.0	2.5	blank	1.0	696.0120179653168	
84	676.1968019008636	movie	1		300	82.0	2.5	blank	1.0	696.828537940979	2.5000221729278564
84	676.9803490638733	pulse	1	t		82.0	2.5	blank	1.0	697.6120851039886	
84	678.5802090167999	pulse	1	t		82.0	2.5	blank	1.0	699.2119450569153	
84	678.6968240737915	fix_post	2		12	82.0	2.5	blank	1.0	699.3285601139069	0.1000058650970459
85	678.7968299388885	fix_pre	0		120	83.0	2.5	/experiments/AOT/AOT_stimuli/rescaled_final/0388_fw.mp4	0.0	699.4285659790039	1.0000231266021729
85	679.7968530654907	movie	1		244	83.0	2.5	/experiments/AOT/AOT_stimuli/rescaled_final/0388_fw.mp4	0.0	700.4285891056061	2.499910831451416
85	680.1806199550629	pulse	1	t		83.0	2.5	/experiments/AOT/AOT_stimuli/rescaled_final/0388_fw.mp4	0.0	700.8123559951782	
85	681.7802450656891	pulse	1	t		83.0	2.5	/experiments/AOT/AOT_stimuli/rescaled_final/0388_fw.mp4	0.0	702.4119811058044	
85	682.2967638969421	fix_post	2		12	83.0	2.5	/experiments/AOT/AOT_stimuli/rescaled_final/0388_fw.mp4	0.0	702.9284999370575	0.1000521183013916
87	682.3968160152435	stim	0		1716					703.0285520553589	14.299896001815796
87	683.3802568912506	pulse	0	t						704.011992931366	
87	684.980190038681	pulse	0	t						705.6119260787964	
87	686.5802190303802	pulse	0	t						707.2119550704956	
87	688.1799168586731	pulse	0	t						708.8116528987885	
87	689.7801730632782	pulse	0	t						710.4119091033936	
87	691.3802828788757	pulse	0	t						712.0120189189911	
87	692.980192899704	pulse	0	t						713.6119289398193	
87	694.5802600383759	pulse	0	t						715.2119960784912	
87	696.1801519393921	pulse	0	t						716.8118879795074	
