trial_nr	onset	event_type	phase	response	nr_frames	movie_index	movie_duration	movie_file	blank	onset_abs	duration
0	0.1415255069732666	stim	0		6					16.459471940994263	0.049794912338256836
0	0.18329310417175293	response	0	space						16.50123953819275	
1	0.19132041931152344	stim	0		4639					16.50926685333252	38.66708993911743
1	38.84789323806763	pulse	0	t						55.16583967208862	
1	38.858410358428955	stim	1		1714					55.17635679244995	14.299232959747314
1	40.44763493537903	pulse	1	t						56.765581369400024	
1	42.04785656929016	pulse	1	t						58.36580300331116	
1	43.64806890487671	pulse	1	t						59.966015338897705	
1	45.248321771621704	pulse	1	t						61.5662682056427	
1	46.8488085269928	pulse	1	t						63.166754961013794	
1	48.448827028274536	pulse	1	t						64.76677346229553	
1	50.04906129837036	pulse	1	t						66.36700773239136	
1	51.649280309677124	pulse	1	t						67.96722674369812	
2	53.15764331817627	fix_pre	0		12	0.0	2.5	/experiments/Knapen_AOT/AOT_stimuli/rescaled_final/0160_fw.mp4	0.0	69.47558975219727	0.11678385734558105
2	53.249521255493164	pulse	0	t		0.0	2.5	/experiments/Knapen_AOT/AOT_stimuli/rescaled_final/0160_fw.mp4	0.0	69.56746768951416	
2	53.27442717552185	movie	1		289	0.0	2.5	/experiments/Knapen_AOT/AOT_stimuli/rescaled_final/0160_fw.mp4	0.0	69.59237360954285	2.4919393062591553
2	54.84829521179199	pulse	1	t		0.0	2.5	/experiments/Knapen_AOT/AOT_stimuli/rescaled_final/0160_fw.mp4	0.0	71.16624164581299	
2	55.766366481781006	fix_post	2		12	0.0	2.5	/experiments/Knapen_AOT/AOT_stimuli/rescaled_final/0160_fw.mp4	0.0	72.084312915802	0.10002827644348145
3	55.86639475822449	fix_pre	0		120	1.0	2.5	/experiments/Knapen_AOT/AOT_stimuli/rescaled_final/1082_fw.mp4	0.0	72.18434119224548	1.008528709411621
3	56.45000410079956	pulse	0	t		1.0	2.5	/experiments/Knapen_AOT/AOT_stimuli/rescaled_final/1082_fw.mp4	0.0	72.76795053482056	
3	56.87492346763611	movie	1		281	1.0	2.5	/experiments/Knapen_AOT/AOT_stimuli/rescaled_final/1082_fw.mp4	0.0	73.1928699016571	2.491985321044922
3	58.04831600189209	pulse	1	t		1.0	2.5	/experiments/Knapen_AOT/AOT_stimuli/rescaled_final/1082_fw.mp4	0.0	74.36626243591309	
3	59.36690878868103	fix_post	2		12	1.0	2.5	/experiments/Knapen_AOT/AOT_stimuli/rescaled_final/1082_fw.mp4	0.0	75.68485522270203	0.10002732276916504
4	59.466936111450195	fix_pre	0		120	2.0	2.5	/experiments/Knapen_AOT/AOT_stimuli/rescaled_final/1439_rv.mp4	0.0	75.78488254547119	1.0085115432739258
4	59.650508403778076	pulse	0	t		2.0	2.5	/experiments/Knapen_AOT/AOT_stimuli/rescaled_final/1439_rv.mp4	0.0	75.96845483779907	
4	60.47544765472412	movie	1		282	2.0	2.5	/experiments/Knapen_AOT/AOT_stimuli/rescaled_final/1439_rv.mp4	0.0	76.79339408874512	2.492007255554199
4	61.24858570098877	pulse	1	t		2.0	2.5	/experiments/Knapen_AOT/AOT_stimuli/rescaled_final/1439_rv.mp4	0.0	77.56653213500977	
4	62.8489089012146	pulse	1	t		2.0	2.5	/experiments/Knapen_AOT/AOT_stimuli/rescaled_final/1439_rv.mp4	0.0	79.1668553352356	
4	62.96745491027832	fix_post	2		12	2.0	2.5	/experiments/Knapen_AOT/AOT_stimuli/rescaled_final/1439_rv.mp4	0.0	79.28540134429932	0.10003161430358887
5	63.06748652458191	fix_pre	0		120	3.0	2.5	/experiments/Knapen_AOT/AOT_stimuli/rescaled_final/0060_rv.mp4	0.0	79.3854329586029	1.0084705352783203
5	64.07595705986023	movie	1		290	3.0	2.5	/experiments/Knapen_AOT/AOT_stimuli/rescaled_final/0060_rv.mp4	0.0	80.39390349388123	2.4920501708984375
5	64.44948124885559	pulse	1	t		3.0	2.5	/experiments/Knapen_AOT/AOT_stimuli/rescaled_final/0060_rv.mp4	0.0	80.76742768287659	
5	66.04949021339417	pulse	1	t		3.0	2.5	/experiments/Knapen_AOT/AOT_stimuli/rescaled_final/0060_rv.mp4	0.0	82.36743664741516	
5	66.56800723075867	fix_post	2		12	3.0	2.5	/experiments/Knapen_AOT/AOT_stimuli/rescaled_final/0060_rv.mp4	0.0	82.88595366477966	0.10000085830688477
6	66.66800808906555	fix_pre	0		119	4.0	2.5	/experiments/Knapen_AOT/AOT_stimuli/rescaled_final/1754_rv.mp4	0.0	82.98595452308655	1.0001516342163086
6	67.65173888206482	pulse	0	t		4.0	2.5	/experiments/Knapen_AOT/AOT_stimuli/rescaled_final/1754_rv.mp4	0.0	83.96968531608582	
6	67.66815972328186	movie	1		296	4.0	2.5	/experiments/Knapen_AOT/AOT_stimuli/rescaled_final/1754_rv.mp4	0.0	83.98610615730286	2.500391721725464
6	69.25027418136597	pulse	1	t		4.0	2.5	/experiments/Knapen_AOT/AOT_stimuli/rescaled_final/1754_rv.mp4	0.0	85.56822061538696	
6	70.16855144500732	fix_post	2		12	4.0	2.5	/experiments/Knapen_AOT/AOT_stimuli/rescaled_final/1754_rv.mp4	0.0	86.48649787902832	0.1000058650970459
7	70.26855731010437	fix_pre	0		120	5.0	2.5	blank	1.0	86.58650374412537	1.000150203704834
7	70.85215878486633	pulse	0	t		5.0	2.5	blank	1.0	87.17010521888733	
7	71.2687075138092	movie	1		300	5.0	2.5	blank	1.0	87.5866539478302	2.5003662109375
7	72.45241856575012	pulse	1	t		5.0	2.5	blank	1.0	88.77036499977112	
7	73.7690737247467	fix_post	2		12	5.0	2.5	blank	1.0	90.0870201587677	0.10001325607299805
8	73.8690869808197	fix_pre	0		120	6.0	2.5	/experiments/Knapen_AOT/AOT_stimuli/rescaled_final/2047_fw.mp4	0.0	90.1870334148407	1.008544921875
8	74.05296516418457	pulse	0	t		6.0	2.5	/experiments/Knapen_AOT/AOT_stimuli/rescaled_final/2047_fw.mp4	0.0	90.37091159820557	
8	74.8776319026947	movie	1		287	6.0	2.5	/experiments/Knapen_AOT/AOT_stimuli/rescaled_final/2047_fw.mp4	0.0	91.1955783367157	2.4920263290405273
8	75.6508047580719	pulse	1	t		6.0	2.5	/experiments/Knapen_AOT/AOT_stimuli/rescaled_final/2047_fw.mp4	0.0	91.9687511920929	
8	77.25111746788025	pulse	1	t		6.0	2.5	/experiments/Knapen_AOT/AOT_stimuli/rescaled_final/2047_fw.mp4	0.0	93.56906390190125	
8	77.36965823173523	fix_post	2		12	6.0	2.5	/experiments/Knapen_AOT/AOT_stimuli/rescaled_final/2047_fw.mp4	0.0	93.68760466575623	0.10001897811889648
9	77.46967720985413	fix_pre	0		120	7.0	2.5	/experiments/Knapen_AOT/AOT_stimuli/rescaled_final/0980_fw.mp4	0.0	93.78762364387512	1.0084717273712158
9	78.47814893722534	movie	1		291	7.0	2.5	/experiments/Knapen_AOT/AOT_stimuli/rescaled_final/0980_fw.mp4	0.0	94.79609537124634	2.492029905319214
9	78.85191655158997	pulse	1	t		7.0	2.5	/experiments/Knapen_AOT/AOT_stimuli/rescaled_final/0980_fw.mp4	0.0	95.16986298561096	
9	80.45172333717346	pulse	1	t		7.0	2.5	/experiments/Knapen_AOT/AOT_stimuli/rescaled_final/0980_fw.mp4	0.0	96.76966977119446	
9	80.97017884254456	fix_post	2		12	7.0	2.5	/experiments/Knapen_AOT/AOT_stimuli/rescaled_final/0980_fw.mp4	0.0	97.28812527656555	0.10001301765441895
10	81.07019186019897	fix_pre	0		119	8.0	2.5	/experiments/Knapen_AOT/AOT_stimuli/rescaled_final/0155_fw.mp4	0.0	97.38813829421997	1.000138521194458
10	82.05384588241577	pulse	0	t		8.0	2.5	/experiments/Knapen_AOT/AOT_stimuli/rescaled_final/0155_fw.mp4	0.0	98.37179231643677	
10	82.07033038139343	movie	1		292	8.0	2.5	/experiments/Knapen_AOT/AOT_stimuli/rescaled_final/0155_fw.mp4	0.0	98.38827681541443	2.5003724098205566
10	83.65255045890808	pulse	1	t		8.0	2.5	/experiments/Knapen_AOT/AOT_stimuli/rescaled_final/0155_fw.mp4	0.0	99.97049689292908	
10	84.57070279121399	fix_post	2		12	8.0	2.5	/experiments/Knapen_AOT/AOT_stimuli/rescaled_final/0155_fw.mp4	0.0	100.88864922523499	0.10001611709594727
11	84.67071890830994	fix_pre	0		120	9.0	2.5	/experiments/Knapen_AOT/AOT_stimuli/rescaled_final/0038_rv.mp4	0.0	100.98866534233093	1.0085058212280273
11	85.25432682037354	pulse	0	t		9.0	2.5	/experiments/Knapen_AOT/AOT_stimuli/rescaled_final/0038_rv.mp4	0.0	101.57227325439453	
11	85.67922472953796	movie	1		284	9.0	2.5	/experiments/Knapen_AOT/AOT_stimuli/rescaled_final/0038_rv.mp4	0.0	101.99717116355896	2.4921176433563232
11	86.8530170917511	pulse	1	t		9.0	2.5	/experiments/Knapen_AOT/AOT_stimuli/rescaled_final/0038_rv.mp4	0.0	103.1709635257721	
11	88.17134237289429	fix_post	2		12	9.0	2.5	/experiments/Knapen_AOT/AOT_stimuli/rescaled_final/0038_rv.mp4	0.0	104.48928880691528	0.09994292259216309
12	88.27128529548645	fix_pre	0		120	10.0	2.5	/experiments/Knapen_AOT/AOT_stimuli/rescaled_final/1061_rv.mp4	0.0	104.58923172950745	1.008486032485962
12	88.45517039299011	pulse	0	t		10.0	2.5	/experiments/Knapen_AOT/AOT_stimuli/rescaled_final/1061_rv.mp4	0.0	104.77311682701111	
12	89.27977132797241	movie	1		288	10.0	2.5	/experiments/Knapen_AOT/AOT_stimuli/rescaled_final/1061_rv.mp4	0.0	105.59771776199341	2.4920129776000977
12	90.05287837982178	pulse	1	t		10.0	2.5	/experiments/Knapen_AOT/AOT_stimuli/rescaled_final/1061_rv.mp4	0.0	106.37082481384277	
12	91.6532518863678	pulse	1	t		10.0	2.5	/experiments/Knapen_AOT/AOT_stimuli/rescaled_final/1061_rv.mp4	0.0	107.9711983203888	
12	91.77178430557251	fix_post	2		12	10.0	2.5	/experiments/Knapen_AOT/AOT_stimuli/rescaled_final/1061_rv.mp4	0.0	108.0897307395935	0.10001587867736816
13	91.87180018424988	fix_pre	0		120	11.0	2.5	/experiments/Knapen_AOT/AOT_stimuli/rescaled_final/0529_fw.mp4	0.0	108.18974661827087	1.0085117816925049
13	92.88031196594238	movie	1		291	11.0	2.5	/experiments/Knapen_AOT/AOT_stimuli/rescaled_final/0529_fw.mp4	0.0	109.19825839996338	2.4920082092285156
13	93.24763655662537	pulse	1	t		11.0	2.5	/experiments/Knapen_AOT/AOT_stimuli/rescaled_final/0529_fw.mp4	0.0	109.56558299064636	
13	94.84746265411377	pulse	1	t		11.0	2.5	/experiments/Knapen_AOT/AOT_stimuli/rescaled_final/0529_fw.mp4	0.0	111.16540908813477	
13	95.3723201751709	fix_post	2		12	11.0	2.5	/experiments/Knapen_AOT/AOT_stimuli/rescaled_final/0529_fw.mp4	0.0	111.6902666091919	0.10001754760742188
14	95.47233772277832	fix_pre	0		118	12.0	2.5	/experiments/Knapen_AOT/AOT_stimuli/rescaled_final/1586_rv.mp4	0.0	111.79028415679932	0.9918186664581299
14	96.4476990699768	pulse	0	t		12.0	2.5	/experiments/Knapen_AOT/AOT_stimuli/rescaled_final/1586_rv.mp4	0.0	112.7656455039978	
14	96.46415638923645	movie	1		290	12.0	2.5	/experiments/Knapen_AOT/AOT_stimuli/rescaled_final/1586_rv.mp4	0.0	112.78210282325745	2.500516414642334
14	98.0480408668518	pulse	1	t		12.0	2.5	/experiments/Knapen_AOT/AOT_stimuli/rescaled_final/1586_rv.mp4	0.0	114.3659873008728	
14	98.96467280387878	fix_post	2		12	12.0	2.5	/experiments/Knapen_AOT/AOT_stimuli/rescaled_final/1586_rv.mp4	0.0	115.28261923789978	0.09986472129821777
15	99.064537525177	fix_pre	0		120	13.0	2.5	/experiments/Knapen_AOT/AOT_stimuli/rescaled_final/0720_fw.mp4	0.0	115.382483959198	1.008512020111084
15	99.64819931983948	pulse	0	t		13.0	2.5	/experiments/Knapen_AOT/AOT_stimuli/rescaled_final/0720_fw.mp4	0.0	115.96614575386047	
15	100.07304954528809	movie	1		292	13.0	2.5	/experiments/Knapen_AOT/AOT_stimuli/rescaled_final/0720_fw.mp4	0.0	116.39099597930908	2.4920177459716797
15	101.2484278678894	pulse	1	t		13.0	2.5	/experiments/Knapen_AOT/AOT_stimuli/rescaled_final/0720_fw.mp4	0.0	117.5663743019104	
15	102.56506729125977	fix_post	2		12	13.0	2.5	/experiments/Knapen_AOT/AOT_stimuli/rescaled_final/0720_fw.mp4	0.0	118.88301372528076	0.10003304481506348
16	102.66510033607483	fix_pre	0		120	14.0	2.5	blank	1.0	118.98304677009583	1.000159740447998
16	102.84866547584534	pulse	0	t		14.0	2.5	blank	1.0	119.16661190986633	
16	103.66526007652283	movie	1		300	14.0	2.5	blank	1.0	119.98320651054382	2.5004401206970215
16	104.44894886016846	pulse	1	t		14.0	2.5	blank	1.0	120.76689529418945	
16	106.04911661148071	pulse	1	t		14.0	2.5	blank	1.0	122.36706304550171	
16	106.16570019721985	fix_post	2		12	14.0	2.5	blank	1.0	122.48364663124084	0.09993958473205566
17	106.2656397819519	fix_pre	0		120	15.0	2.5	/experiments/Knapen_AOT/AOT_stimuli/rescaled_final/1970_fw.mp4	0.0	122.5835862159729	1.0085463523864746
17	107.27418613433838	movie	1		289	15.0	2.5	/experiments/Knapen_AOT/AOT_stimuli/rescaled_final/1970_fw.mp4	0.0	123.59213256835938	2.491973876953125
17	107.64794325828552	pulse	1	t		15.0	2.5	/experiments/Knapen_AOT/AOT_stimuli/rescaled_final/1970_fw.mp4	0.0	123.96588969230652	
17	109.24786114692688	pulse	1	t		15.0	2.5	/experiments/Knapen_AOT/AOT_stimuli/rescaled_final/1970_fw.mp4	0.0	125.56580758094788	
17	109.7661600112915	fix_post	2		12	15.0	2.5	/experiments/Knapen_AOT/AOT_stimuli/rescaled_final/1970_fw.mp4	0.0	126.0841064453125	0.1000065803527832
18	109.86616659164429	fix_pre	0		119	16.0	2.5	/experiments/Knapen_AOT/AOT_stimuli/rescaled_final/0600_rv.mp4	0.0	126.18411302566528	1.000157356262207
18	110.84990644454956	pulse	0	t		16.0	2.5	/experiments/Knapen_AOT/AOT_stimuli/rescaled_final/0600_rv.mp4	0.0	127.16785287857056	
18	110.8663239479065	movie	1		290	16.0	2.5	/experiments/Knapen_AOT/AOT_stimuli/rescaled_final/0600_rv.mp4	0.0	127.18427038192749	2.500375747680664
18	112.44889330863953	pulse	1	t		16.0	2.5	/experiments/Knapen_AOT/AOT_stimuli/rescaled_final/0600_rv.mp4	0.0	128.76683974266052	
18	113.36669969558716	fix_post	2		12	16.0	2.5	/experiments/Knapen_AOT/AOT_stimuli/rescaled_final/0600_rv.mp4	0.0	129.68464612960815	0.10018348693847656
19	113.46688318252563	fix_pre	0		120	17.0	2.5	/experiments/Knapen_AOT/AOT_stimuli/rescaled_final/1349_fw.mp4	0.0	129.78482961654663	1.0083286762237549
19	114.05032968521118	pulse	0	t		17.0	2.5	/experiments/Knapen_AOT/AOT_stimuli/rescaled_final/1349_fw.mp4	0.0	130.36827611923218	
19	114.47521185874939	movie	1		290	17.0	2.5	/experiments/Knapen_AOT/AOT_stimuli/rescaled_final/1349_fw.mp4	0.0	130.79315829277039	2.4920876026153564
19	115.64905643463135	pulse	1	t		17.0	2.5	/experiments/Knapen_AOT/AOT_stimuli/rescaled_final/1349_fw.mp4	0.0	131.96700286865234	
19	116.96729946136475	fix_post	2		12	17.0	2.5	/experiments/Knapen_AOT/AOT_stimuli/rescaled_final/1349_fw.mp4	0.0	133.28524589538574	0.09994125366210938
20	117.06724071502686	fix_pre	0		120	18.0	2.5	/experiments/Knapen_AOT/AOT_stimuli/rescaled_final/0857_fw.mp4	0.0	133.38518714904785	1.0085108280181885
20	117.25078511238098	pulse	0	t		18.0	2.5	/experiments/Knapen_AOT/AOT_stimuli/rescaled_final/0857_fw.mp4	0.0	133.56873154640198	
20	118.07575154304504	movie	1		290	18.0	2.5	/experiments/Knapen_AOT/AOT_stimuli/rescaled_final/0857_fw.mp4	0.0	134.39369797706604	2.492033004760742
20	118.84903049468994	pulse	1	t		18.0	2.5	/experiments/Knapen_AOT/AOT_stimuli/rescaled_final/0857_fw.mp4	0.0	135.16697692871094	
20	120.4494481086731	pulse	1	t		18.0	2.5	/experiments/Knapen_AOT/AOT_stimuli/rescaled_final/0857_fw.mp4	0.0	136.7673945426941	
20	120.56778454780579	fix_post	2		12	18.0	2.5	/experiments/Knapen_AOT/AOT_stimuli/rescaled_final/0857_fw.mp4	0.0	136.88573098182678	0.10001564025878906
21	120.66780018806458	fix_pre	0		120	19.0	2.5	/experiments/Knapen_AOT/AOT_stimuli/rescaled_final/1067_fw.mp4	0.0	136.98574662208557	1.0084974765777588
21	121.67629766464233	movie	1		287	19.0	2.5	/experiments/Knapen_AOT/AOT_stimuli/rescaled_final/1067_fw.mp4	0.0	137.99424409866333	2.492041826248169
21	122.05014371871948	pulse	1	t		19.0	2.5	/experiments/Knapen_AOT/AOT_stimuli/rescaled_final/1067_fw.mp4	0.0	138.36809015274048	
21	123.65000677108765	pulse	1	t		19.0	2.5	/experiments/Knapen_AOT/AOT_stimuli/rescaled_final/1067_fw.mp4	0.0	139.96795320510864	
21	124.1683394908905	fix_post	2		12	19.0	2.5	/experiments/Knapen_AOT/AOT_stimuli/rescaled_final/1067_fw.mp4	0.0	140.4862859249115	0.10018229484558105
22	124.26852178573608	fix_pre	0		119	20.0	2.5	/experiments/Knapen_AOT/AOT_stimuli/rescaled_final/0467_fw.mp4	0.0	140.58646821975708	1.0001049041748047
22	125.25201392173767	pulse	0	t		20.0	2.5	/experiments/Knapen_AOT/AOT_stimuli/rescaled_final/0467_fw.mp4	0.0	141.56996035575867	
22	125.26862668991089	movie	1		292	20.0	2.5	/experiments/Knapen_AOT/AOT_stimuli/rescaled_final/0467_fw.mp4	0.0	141.58657312393188	2.500227451324463
22	126.85066843032837	pulse	1	t		20.0	2.5	/experiments/Knapen_AOT/AOT_stimuli/rescaled_final/0467_fw.mp4	0.0	143.16861486434937	
22	127.76885414123535	fix_post	2		12	20.0	2.5	/experiments/Knapen_AOT/AOT_stimuli/rescaled_final/0467_fw.mp4	0.0	144.08680057525635	0.10002779960632324
23	127.86888194084167	fix_pre	0		120	21.0	2.5	blank	1.0	144.18682837486267	1.0001587867736816
23	128.45257902145386	pulse	0	t		21.0	2.5	blank	1.0	144.77052545547485	
23	128.86904072761536	movie	1		300	21.0	2.5	blank	1.0	145.18698716163635	2.500389575958252
23	130.05278086662292	pulse	1	t		21.0	2.5	blank	1.0	146.37072730064392	
23	131.3694303035736	fix_post	2		12	21.0	2.5	blank	1.0	147.6873767375946	0.0999913215637207
24	131.46942162513733	fix_pre	0		120	22.0	2.5	/experiments/Knapen_AOT/AOT_stimuli/rescaled_final/1221_fw.mp4	0.0	147.78736805915833	1.0085983276367188
24	131.65296244621277	pulse	0	t		22.0	2.5	/experiments/Knapen_AOT/AOT_stimuli/rescaled_final/1221_fw.mp4	0.0	147.97090888023376	
24	132.47801995277405	movie	1		283	22.0	2.5	/experiments/Knapen_AOT/AOT_stimuli/rescaled_final/1221_fw.mp4	0.0	148.79596638679504	2.491943836212158
24	133.25133895874023	pulse	1	t		22.0	2.5	/experiments/Knapen_AOT/AOT_stimuli/rescaled_final/1221_fw.mp4	0.0	149.56928539276123	
24	134.85189390182495	pulse	1	t		22.0	2.5	/experiments/Knapen_AOT/AOT_stimuli/rescaled_final/1221_fw.mp4	0.0	151.16984033584595	
24	134.9699637889862	fix_post	2		12	22.0	2.5	/experiments/Knapen_AOT/AOT_stimuli/rescaled_final/1221_fw.mp4	0.0	151.2879102230072	0.10004115104675293
25	135.07000494003296	fix_pre	0		120	23.0	2.5	/experiments/Knapen_AOT/AOT_stimuli/rescaled_final/0282_rv.mp4	0.0	151.38795137405396	1.0084483623504639
25	136.07845330238342	movie	1		295	23.0	2.5	/experiments/Knapen_AOT/AOT_stimuli/rescaled_final/0282_rv.mp4	0.0	152.39639973640442	2.4920012950897217
25	136.45211124420166	pulse	1	t		23.0	2.5	/experiments/Knapen_AOT/AOT_stimuli/rescaled_final/0282_rv.mp4	0.0	152.77005767822266	
25	138.04962801933289	pulse	1	t		23.0	2.5	/experiments/Knapen_AOT/AOT_stimuli/rescaled_final/0282_rv.mp4	0.0	154.36757445335388	
25	138.57045459747314	fix_post	2		12	23.0	2.5	/experiments/Knapen_AOT/AOT_stimuli/rescaled_final/0282_rv.mp4	0.0	154.88840103149414	0.1000359058380127
26	138.67049050331116	fix_pre	0		119	24.0	2.5	/experiments/Knapen_AOT/AOT_stimuli/rescaled_final/1796_fw.mp4	0.0	154.98843693733215	1.0001728534698486
26	139.64694547653198	pulse	0	t		24.0	2.5	/experiments/Knapen_AOT/AOT_stimuli/rescaled_final/1796_fw.mp4	0.0	155.96489191055298	
26	139.670663356781	movie	1		294	24.0	2.5	/experiments/Knapen_AOT/AOT_stimuli/rescaled_final/1796_fw.mp4	0.0	155.988609790802	2.500431537628174
26	141.25213527679443	pulse	1	t		24.0	2.5	/experiments/Knapen_AOT/AOT_stimuli/rescaled_final/1796_fw.mp4	0.0	157.57008171081543	
26	142.17109489440918	fix_post	2		12	24.0	2.5	/experiments/Knapen_AOT/AOT_stimuli/rescaled_final/1796_fw.mp4	0.0	158.48904132843018	0.0999598503112793
27	142.27105474472046	fix_pre	0		120	25.0	2.5	/experiments/Knapen_AOT/AOT_stimuli/rescaled_final/0529_rv.mp4	0.0	158.58900117874146	1.0001115798950195
27	142.8467926979065	pulse	0	t		25.0	2.5	/experiments/Knapen_AOT/AOT_stimuli/rescaled_final/0529_rv.mp4	0.0	159.1647391319275	
27	143.27116632461548	movie	1		297	25.0	2.5	/experiments/Knapen_AOT/AOT_stimuli/rescaled_final/0529_rv.mp4	0.0	159.58911275863647	2.5003817081451416
27	144.44679021835327	pulse	1	t		25.0	2.5	/experiments/Knapen_AOT/AOT_stimuli/rescaled_final/0529_rv.mp4	0.0	160.76473665237427	
27	145.77154803276062	fix_post	2		12	25.0	2.5	/experiments/Knapen_AOT/AOT_stimuli/rescaled_final/0529_rv.mp4	0.0	162.08949446678162	0.10001182556152344
28	145.87155985832214	fix_pre	0		120	26.0	2.5	/experiments/Knapen_AOT/AOT_stimuli/rescaled_final/1153_rv.mp4	0.0	162.18950629234314	1.0085391998291016
28	146.04723453521729	pulse	0	t		26.0	2.5	/experiments/Knapen_AOT/AOT_stimuli/rescaled_final/1153_rv.mp4	0.0	162.36518096923828	
28	146.88009905815125	movie	1		295	26.0	2.5	/experiments/Knapen_AOT/AOT_stimuli/rescaled_final/1153_rv.mp4	0.0	163.19804549217224	2.4919939041137695
28	147.64700841903687	pulse	1	t		26.0	2.5	/experiments/Knapen_AOT/AOT_stimuli/rescaled_final/1153_rv.mp4	0.0	163.96495485305786	
28	149.24744057655334	pulse	1	t		26.0	2.5	/experiments/Knapen_AOT/AOT_stimuli/rescaled_final/1153_rv.mp4	0.0	165.56538701057434	
28	149.37209296226501	fix_post	2		12	26.0	2.5	/experiments/Knapen_AOT/AOT_stimuli/rescaled_final/1153_rv.mp4	0.0	165.690039396286	0.10001707077026367
29	149.47211003303528	fix_pre	0		120	27.0	2.5	blank	1.0	165.79005646705627	1.0001704692840576
29	150.47228050231934	movie	1		300	27.0	2.5	blank	1.0	166.79022693634033	2.500373601913452
29	150.84770393371582	pulse	1	t		27.0	2.5	blank	1.0	167.16565036773682	
29	152.44801878929138	pulse	1	t		27.0	2.5	blank	1.0	168.76596522331238	
29	152.9726541042328	fix_post	2		12	27.0	2.5	blank	1.0	169.29060053825378	0.10005474090576172
30	153.07270884513855	fix_pre	0		118	28.0	2.5	/experiments/Knapen_AOT/AOT_stimuli/rescaled_final/1398_fw.mp4	0.0	169.39065527915955	0.9917700290679932
30	154.04800033569336	pulse	0	t		28.0	2.5	/experiments/Knapen_AOT/AOT_stimuli/rescaled_final/1398_fw.mp4	0.0	170.36594676971436	
30	154.06447887420654	movie	1		294	28.0	2.5	/experiments/Knapen_AOT/AOT_stimuli/rescaled_final/1398_fw.mp4	0.0	170.38242530822754	2.5003745555877686
30	155.64694499969482	pulse	1	t		28.0	2.5	/experiments/Knapen_AOT/AOT_stimuli/rescaled_final/1398_fw.mp4	0.0	171.96489143371582	
30	156.5648534297943	fix_post	2		12	28.0	2.5	/experiments/Knapen_AOT/AOT_stimuli/rescaled_final/1398_fw.mp4	0.0	172.8827998638153	0.10001802444458008
31	156.6648714542389	fix_pre	0		120	29.0	2.5	/experiments/Knapen_AOT/AOT_stimuli/rescaled_final/0713_rv.mp4	0.0	172.9828178882599	1.008556842803955
31	157.2488887310028	pulse	0	t		29.0	2.5	/experiments/Knapen_AOT/AOT_stimuli/rescaled_final/0713_rv.mp4	0.0	173.5668351650238	
31	157.67342829704285	movie	1		281	29.0	2.5	/experiments/Knapen_AOT/AOT_stimuli/rescaled_final/0713_rv.mp4	0.0	173.99137473106384	2.4919843673706055
31	158.84712648391724	pulse	1	t		29.0	2.5	/experiments/Knapen_AOT/AOT_stimuli/rescaled_final/0713_rv.mp4	0.0	175.16507291793823	
31	160.16541266441345	fix_post	2		12	29.0	2.5	/experiments/Knapen_AOT/AOT_stimuli/rescaled_final/0713_rv.mp4	0.0	176.48335909843445	0.10001659393310547
32	160.26542925834656	fix_pre	0		120	30.0	2.5	/experiments/Knapen_AOT/AOT_stimuli/rescaled_final/1388_rv.mp4	0.0	176.58337569236755	1.0084776878356934
32	160.44898748397827	pulse	0	t		30.0	2.5	/experiments/Knapen_AOT/AOT_stimuli/rescaled_final/1388_rv.mp4	0.0	176.76693391799927	
32	161.27390694618225	movie	1		284	30.0	2.5	/experiments/Knapen_AOT/AOT_stimuli/rescaled_final/1388_rv.mp4	0.0	177.59185338020325	2.492043972015381
32	162.04730010032654	pulse	1	t		30.0	2.5	/experiments/Knapen_AOT/AOT_stimuli/rescaled_final/1388_rv.mp4	0.0	178.36524653434753	
32	163.64756989479065	pulse	1	t		30.0	2.5	/experiments/Knapen_AOT/AOT_stimuli/rescaled_final/1388_rv.mp4	0.0	179.96551632881165	
32	163.76595091819763	fix_post	2		12	30.0	2.5	/experiments/Knapen_AOT/AOT_stimuli/rescaled_final/1388_rv.mp4	0.0	180.08389735221863	0.10005736351013184
33	163.86600828170776	fix_pre	0		120	31.0	2.5	/experiments/Knapen_AOT/AOT_stimuli/rescaled_final/1348_fw.mp4	0.0	180.18395471572876	1.0084736347198486
33	164.8744819164276	movie	1		284	31.0	2.5	/experiments/Knapen_AOT/AOT_stimuli/rescaled_final/1348_fw.mp4	0.0	181.1924283504486	2.4920010566711426
33	165.2482750415802	pulse	1	t		31.0	2.5	/experiments/Knapen_AOT/AOT_stimuli/rescaled_final/1348_fw.mp4	0.0	181.5662214756012	
33	166.8484070301056	pulse	1	t		31.0	2.5	/experiments/Knapen_AOT/AOT_stimuli/rescaled_final/1348_fw.mp4	0.0	183.1663534641266	
33	167.36648297309875	fix_post	2		12	31.0	2.5	/experiments/Knapen_AOT/AOT_stimuli/rescaled_final/1348_fw.mp4	0.0	183.68442940711975	0.10005927085876465
34	167.46654224395752	fix_pre	0		119	32.0	2.5	/experiments/Knapen_AOT/AOT_stimuli/rescaled_final/1061_fw.mp4	0.0	183.78448867797852	1.0001146793365479
34	168.45022559165955	pulse	0	t		32.0	2.5	/experiments/Knapen_AOT/AOT_stimuli/rescaled_final/1061_fw.mp4	0.0	184.76817202568054	
34	168.46665692329407	movie	1		292	32.0	2.5	/experiments/Knapen_AOT/AOT_stimuli/rescaled_final/1061_fw.mp4	0.0	184.78460335731506	2.500431776046753
34	170.0490527153015	pulse	1	t		32.0	2.5	/experiments/Knapen_AOT/AOT_stimuli/rescaled_final/1061_fw.mp4	0.0	186.3669991493225	
34	170.96708869934082	fix_post	2		12	32.0	2.5	/experiments/Knapen_AOT/AOT_stimuli/rescaled_final/1061_fw.mp4	0.0	187.28503513336182	0.0999910831451416
35	171.06707978248596	fix_pre	0		120	33.0	2.5	/experiments/Knapen_AOT/AOT_stimuli/rescaled_final/0672_fw.mp4	0.0	187.38502621650696	1.0085947513580322
35	171.65087366104126	pulse	0	t		33.0	2.5	/experiments/Knapen_AOT/AOT_stimuli/rescaled_final/0672_fw.mp4	0.0	187.96882009506226	
35	172.075674533844	movie	1		291	33.0	2.5	/experiments/Knapen_AOT/AOT_stimuli/rescaled_final/0672_fw.mp4	0.0	188.393620967865	2.4919281005859375
35	173.24945878982544	pulse	1	t		33.0	2.5	/experiments/Knapen_AOT/AOT_stimuli/rescaled_final/0672_fw.mp4	0.0	189.56740522384644	
35	174.56760263442993	fix_post	2		12	33.0	2.5	/experiments/Knapen_AOT/AOT_stimuli/rescaled_final/0672_fw.mp4	0.0	190.88554906845093	0.09999585151672363
36	174.66759848594666	fix_pre	0		120	34.0	2.5	/experiments/Knapen_AOT/AOT_stimuli/rescaled_final/0980_rv.mp4	0.0	190.98554491996765	1.008493423461914
36	174.85114407539368	pulse	0	t		34.0	2.5	/experiments/Knapen_AOT/AOT_stimuli/rescaled_final/0980_rv.mp4	0.0	191.16909050941467	
36	175.67609190940857	movie	1		281	34.0	2.5	/experiments/Knapen_AOT/AOT_stimuli/rescaled_final/0980_rv.mp4	0.0	191.99403834342957	2.492131471633911
36	176.4505536556244	pulse	1	t		34.0	2.5	/experiments/Knapen_AOT/AOT_stimuli/rescaled_final/0980_rv.mp4	0.0	192.76850008964539	
36	178.04974102973938	pulse	1	t		34.0	2.5	/experiments/Knapen_AOT/AOT_stimuli/rescaled_final/0980_rv.mp4	0.0	194.36768746376038	
36	178.16822338104248	fix_post	2		12	34.0	2.5	/experiments/Knapen_AOT/AOT_stimuli/rescaled_final/0980_rv.mp4	0.0	194.48616981506348	0.09990334510803223
37	178.2681267261505	fix_pre	0		120	35.0	2.5	blank	1.0	194.5860731601715	1.000243902206421
37	179.26837062835693	movie	1		300	35.0	2.5	blank	1.0	195.58631706237793	2.500307321548462
37	179.65188455581665	pulse	1	t		35.0	2.5	blank	1.0	195.96983098983765	
37	181.25209879875183	pulse	1	t		35.0	2.5	blank	1.0	197.57004523277283	
37	181.7686779499054	fix_post	2		12	35.0	2.5	blank	1.0	198.0866243839264	0.10007786750793457
38	181.86875581741333	fix_pre	0		119	36.0	2.5	/experiments/Knapen_AOT/AOT_stimuli/rescaled_final/2118_rv.mp4	0.0	198.18670225143433	1.00008225440979
38	182.85253167152405	pulse	0	t		36.0	2.5	/experiments/Knapen_AOT/AOT_stimuli/rescaled_final/2118_rv.mp4	0.0	199.17047810554504	
38	182.86883807182312	movie	1		291	36.0	2.5	/experiments/Knapen_AOT/AOT_stimuli/rescaled_final/2118_rv.mp4	0.0	199.18678450584412	2.5004115104675293
38	184.4510588645935	pulse	1	t		36.0	2.5	/experiments/Knapen_AOT/AOT_stimuli/rescaled_final/2118_rv.mp4	0.0	200.7690052986145	
38	185.36924958229065	fix_post	2		12	36.0	2.5	/experiments/Knapen_AOT/AOT_stimuli/rescaled_final/2118_rv.mp4	0.0	201.68719601631165	0.09996747970581055
39	185.46921706199646	fix_pre	0		120	37.0	2.5	/experiments/Knapen_AOT/AOT_stimuli/rescaled_final/1706_fw.mp4	0.0	201.78716349601746	1.0086123943328857
39	186.05283379554749	pulse	0	t		37.0	2.5	/experiments/Knapen_AOT/AOT_stimuli/rescaled_final/1706_fw.mp4	0.0	202.37078022956848	
39	186.47782945632935	movie	1		280	37.0	2.5	/experiments/Knapen_AOT/AOT_stimuli/rescaled_final/1706_fw.mp4	0.0	202.79577589035034	2.491912841796875
39	187.65121173858643	pulse	1	t		37.0	2.5	/experiments/Knapen_AOT/AOT_stimuli/rescaled_final/1706_fw.mp4	0.0	203.96915817260742	
39	188.96974229812622	fix_post	2		12	37.0	2.5	/experiments/Knapen_AOT/AOT_stimuli/rescaled_final/1706_fw.mp4	0.0	205.28768873214722	0.10011076927185059
40	189.06985306739807	fix_pre	0		120	38.0	2.5	/experiments/Knapen_AOT/AOT_stimuli/rescaled_final/0348_fw.mp4	0.0	205.38779950141907	1.0084283351898193
40	189.25347709655762	pulse	0	t		38.0	2.5	/experiments/Knapen_AOT/AOT_stimuli/rescaled_final/0348_fw.mp4	0.0	205.5714235305786	
40	190.0782814025879	movie	1		294	38.0	2.5	/experiments/Knapen_AOT/AOT_stimuli/rescaled_final/0348_fw.mp4	0.0	206.3962278366089	2.492062568664551
40	190.8515384197235	pulse	1	t		38.0	2.5	/experiments/Knapen_AOT/AOT_stimuli/rescaled_final/0348_fw.mp4	0.0	207.1694848537445	
40	192.45220065116882	pulse	1	t		38.0	2.5	/experiments/Knapen_AOT/AOT_stimuli/rescaled_final/0348_fw.mp4	0.0	208.77014708518982	
40	192.57034397125244	fix_post	2		12	38.0	2.5	/experiments/Knapen_AOT/AOT_stimuli/rescaled_final/0348_fw.mp4	0.0	208.88829040527344	0.09999608993530273
41	192.67034006118774	fix_pre	0		120	39.0	2.5	/experiments/Knapen_AOT/AOT_stimuli/rescaled_final/1982_fw.mp4	0.0	208.98828649520874	1.0084304809570312
41	193.67877054214478	movie	1		282	39.0	2.5	/experiments/Knapen_AOT/AOT_stimuli/rescaled_final/1982_fw.mp4	0.0	209.99671697616577	2.4920902252197266
41	194.05266547203064	pulse	1	t		39.0	2.5	/experiments/Knapen_AOT/AOT_stimuli/rescaled_final/1982_fw.mp4	0.0	210.37061190605164	
41	195.65222930908203	pulse	1	t		39.0	2.5	/experiments/Knapen_AOT/AOT_stimuli/rescaled_final/1982_fw.mp4	0.0	211.97017574310303	
41	196.1708607673645	fix_post	2		12	39.0	2.5	/experiments/Knapen_AOT/AOT_stimuli/rescaled_final/1982_fw.mp4	0.0	212.4888072013855	0.09997987747192383
42	196.27084064483643	fix_pre	0		119	40.0	2.5	blank	1.0	212.58878707885742	0.9917919635772705
42	197.24708557128906	pulse	0	t		40.0	2.5	blank	1.0	213.56503200531006	
42	197.2626326084137	movie	1		301	40.0	2.5	blank	1.0	213.5805790424347	2.5087571144104004
42	198.84707975387573	pulse	1	t		40.0	2.5	blank	1.0	215.16502618789673	
42	199.7713897228241	fix_post	2		12	40.0	2.5	blank	1.0	216.0893361568451	0.10001826286315918
43	199.87140798568726	fix_pre	0		120	41.0	2.5	/experiments/Knapen_AOT/AOT_stimuli/rescaled_final/1153_fw.mp4	0.0	216.18935441970825	1.0084834098815918
43	200.44722604751587	pulse	0	t		41.0	2.5	/experiments/Knapen_AOT/AOT_stimuli/rescaled_final/1153_fw.mp4	0.0	216.76517248153687	
43	200.87989139556885	movie	1		280	41.0	2.5	/experiments/Knapen_AOT/AOT_stimuli/rescaled_final/1153_fw.mp4	0.0	217.19783782958984	2.492096424102783
43	202.04719471931458	pulse	1	t		41.0	2.5	/experiments/Knapen_AOT/AOT_stimuli/rescaled_final/1153_fw.mp4	0.0	218.36514115333557	
43	203.37198781967163	fix_post	2		12	41.0	2.5	/experiments/Knapen_AOT/AOT_stimuli/rescaled_final/1153_fw.mp4	0.0	219.68993425369263	0.09994101524353027
44	203.47192883491516	fix_pre	0		120	42.0	2.5	/experiments/Knapen_AOT/AOT_stimuli/rescaled_final/0485_fw.mp4	0.0	219.78987526893616	1.0085110664367676
44	203.6471230983734	pulse	0	t		42.0	2.5	/experiments/Knapen_AOT/AOT_stimuli/rescaled_final/0485_fw.mp4	0.0	219.9650695323944	
44	204.48043990135193	movie	1		290	42.0	2.5	/experiments/Knapen_AOT/AOT_stimuli/rescaled_final/0485_fw.mp4	0.0	220.79838633537292	2.4920499324798584
44	205.24742031097412	pulse	1	t		42.0	2.5	/experiments/Knapen_AOT/AOT_stimuli/rescaled_final/0485_fw.mp4	0.0	221.56536674499512	
44	206.84770727157593	pulse	1	t		42.0	2.5	/experiments/Knapen_AOT/AOT_stimuli/rescaled_final/0485_fw.mp4	0.0	223.16565370559692	
44	206.9724898338318	fix_post	2		12	42.0	2.5	/experiments/Knapen_AOT/AOT_stimuli/rescaled_final/0485_fw.mp4	0.0	223.29043626785278	0.09998106956481934
45	207.0724709033966	fix_pre	0		120	43.0	2.5	/experiments/Knapen_AOT/AOT_stimuli/rescaled_final/0588_rv.mp4	0.0	223.3904173374176	1.0084919929504395
45	208.08096289634705	movie	1		277	43.0	2.5	/experiments/Knapen_AOT/AOT_stimuli/rescaled_final/0588_rv.mp4	0.0	224.39890933036804	2.492091655731201
45	208.4482080936432	pulse	1	t		43.0	2.5	/experiments/Knapen_AOT/AOT_stimuli/rescaled_final/0588_rv.mp4	0.0	224.76615452766418	
45	210.04809999465942	pulse	1	t		43.0	2.5	/experiments/Knapen_AOT/AOT_stimuli/rescaled_final/0588_rv.mp4	0.0	226.36604642868042	
45	210.57305455207825	fix_post	2		12	43.0	2.5	/experiments/Knapen_AOT/AOT_stimuli/rescaled_final/0588_rv.mp4	0.0	226.89100098609924	0.09996747970581055
46	210.67302203178406	fix_pre	0		118	44.0	2.5	/experiments/Knapen_AOT/AOT_stimuli/rescaled_final/1857_rv.mp4	0.0	226.99096846580505	0.9917848110198975
46	211.6484432220459	pulse	0	t		44.0	2.5	/experiments/Knapen_AOT/AOT_stimuli/rescaled_final/1857_rv.mp4	0.0	227.9663896560669	
46	211.66480684280396	movie	1		291	44.0	2.5	/experiments/Knapen_AOT/AOT_stimuli/rescaled_final/1857_rv.mp4	0.0	227.98275327682495	2.5004007816314697
46	213.2472846508026	pulse	1	t		44.0	2.5	/experiments/Knapen_AOT/AOT_stimuli/rescaled_final/1857_rv.mp4	0.0	229.5652310848236	
46	214.16520762443542	fix_post	2		12	44.0	2.5	/experiments/Knapen_AOT/AOT_stimuli/rescaled_final/1857_rv.mp4	0.0	230.48315405845642	0.10005569458007812
47	214.2652633190155	fix_pre	0		120	45.0	2.5	/experiments/Knapen_AOT/AOT_stimuli/rescaled_final/0242_rv.mp4	0.0	230.5832097530365	1.0084755420684814
47	214.84891486167908	pulse	0	t		45.0	2.5	/experiments/Knapen_AOT/AOT_stimuli/rescaled_final/0242_rv.mp4	0.0	231.16686129570007	
47	215.27373886108398	movie	1		264	45.0	2.5	/experiments/Knapen_AOT/AOT_stimuli/rescaled_final/0242_rv.mp4	0.0	231.59168529510498	2.492032527923584
47	216.44749927520752	pulse	1	t		45.0	2.5	/experiments/Knapen_AOT/AOT_stimuli/rescaled_final/0242_rv.mp4	0.0	232.76544570922852	
47	217.76577138900757	fix_post	2		12	45.0	2.5	/experiments/Knapen_AOT/AOT_stimuli/rescaled_final/0242_rv.mp4	0.0	234.08371782302856	0.09997868537902832
48	217.8657500743866	fix_pre	0		120	46.0	2.5	/experiments/Knapen_AOT/AOT_stimuli/rescaled_final/0384_fw.mp4	0.0	234.1836965084076	1.00852370262146
48	218.04933428764343	pulse	0	t		46.0	2.5	/experiments/Knapen_AOT/AOT_stimuli/rescaled_final/0384_fw.mp4	0.0	234.36728072166443	
48	218.87427377700806	movie	1		285	46.0	2.5	/experiments/Knapen_AOT/AOT_stimuli/rescaled_final/0384_fw.mp4	0.0	235.19222021102905	2.492018699645996
48	219.64761877059937	pulse	1	t		46.0	2.5	/experiments/Knapen_AOT/AOT_stimuli/rescaled_final/0384_fw.mp4	0.0	235.96556520462036	
48	221.25052785873413	pulse	1	t		46.0	2.5	/experiments/Knapen_AOT/AOT_stimuli/rescaled_final/0384_fw.mp4	0.0	237.56847429275513	
48	221.36629247665405	fix_post	2		12	46.0	2.5	/experiments/Knapen_AOT/AOT_stimuli/rescaled_final/0384_fw.mp4	0.0	237.68423891067505	0.10000085830688477
49	221.46629333496094	fix_pre	0		120	47.0	2.5	/experiments/Knapen_AOT/AOT_stimuli/rescaled_final/0965_rv.mp4	0.0	237.78423976898193	1.008497714996338
49	222.47479104995728	movie	1		265	47.0	2.5	/experiments/Knapen_AOT/AOT_stimuli/rescaled_final/0965_rv.mp4	0.0	238.79273748397827	2.4920413494110107
49	222.84879064559937	pulse	1	t		47.0	2.5	/experiments/Knapen_AOT/AOT_stimuli/rescaled_final/0965_rv.mp4	0.0	239.16673707962036	
49	224.448317527771	pulse	1	t		47.0	2.5	/experiments/Knapen_AOT/AOT_stimuli/rescaled_final/0965_rv.mp4	0.0	240.766263961792	
49	224.9668323993683	fix_post	2		12	47.0	2.5	/experiments/Knapen_AOT/AOT_stimuli/rescaled_final/0965_rv.mp4	0.0	241.28477883338928	0.09999418258666992
50	225.06682658195496	fix_pre	0		119	48.0	2.5	/experiments/Knapen_AOT/AOT_stimuli/rescaled_final/1349_fw.mp4	0.0	241.38477301597595	1.0001530647277832
50	226.05061745643616	pulse	0	t		48.0	2.5	/experiments/Knapen_AOT/AOT_stimuli/rescaled_final/1349_fw.mp4	0.0	242.36856389045715	
50	226.06697964668274	movie	1		287	48.0	2.5	/experiments/Knapen_AOT/AOT_stimuli/rescaled_final/1349_fw.mp4	0.0	242.38492608070374	2.5004279613494873
50	227.64928221702576	pulse	1	t		48.0	2.5	/experiments/Knapen_AOT/AOT_stimuli/rescaled_final/1349_fw.mp4	0.0	243.96722865104675	
50	228.56740760803223	fix_post	2		12	48.0	2.5	/experiments/Knapen_AOT/AOT_stimuli/rescaled_final/1349_fw.mp4	0.0	244.88535404205322	0.09995341300964355
51	228.66736102104187	fix_pre	0		120	49.0	2.5	blank	1.0	244.98530745506287	1.0001745223999023
51	229.25099205970764	pulse	0	t		49.0	2.5	blank	1.0	245.56893849372864	
51	229.66753554344177	movie	1		300	49.0	2.5	blank	1.0	245.98548197746277	2.5003747940063477
51	230.85123705863953	pulse	1	t		49.0	2.5	blank	1.0	247.16918349266052	
51	232.16791033744812	fix_post	2		12	49.0	2.5	blank	1.0	248.48585677146912	0.10001206398010254
52	232.26792240142822	fix_pre	0		120	50.0	2.5	/experiments/Knapen_AOT/AOT_stimuli/rescaled_final/1834_fw.mp4	0.0	248.58586883544922	1.0085506439208984
52	232.45152521133423	pulse	0	t		50.0	2.5	/experiments/Knapen_AOT/AOT_stimuli/rescaled_final/1834_fw.mp4	0.0	248.76947164535522	
52	233.27647304534912	movie	1		265	50.0	2.5	/experiments/Knapen_AOT/AOT_stimuli/rescaled_final/1834_fw.mp4	0.0	249.59441947937012	2.492006301879883
52	234.05016899108887	pulse	1	t		50.0	2.5	/experiments/Knapen_AOT/AOT_stimuli/rescaled_final/1834_fw.mp4	0.0	250.36811542510986	
52	235.6503038406372	pulse	1	t		50.0	2.5	/experiments/Knapen_AOT/AOT_stimuli/rescaled_final/1834_fw.mp4	0.0	251.9682502746582	
52	235.768479347229	fix_post	2		12	50.0	2.5	/experiments/Knapen_AOT/AOT_stimuli/rescaled_final/1834_fw.mp4	0.0	252.08642578125	0.09999823570251465
53	235.86847758293152	fix_pre	0		120	51.0	2.5	/experiments/Knapen_AOT/AOT_stimuli/rescaled_final/0793_rv.mp4	0.0	252.18642401695251	1.0084900856018066
53	236.87696766853333	movie	1		284	51.0	2.5	/experiments/Knapen_AOT/AOT_stimuli/rescaled_final/0793_rv.mp4	0.0	253.19491410255432	2.4920308589935303
53	237.25230503082275	pulse	1	t		51.0	2.5	/experiments/Knapen_AOT/AOT_stimuli/rescaled_final/0793_rv.mp4	0.0	253.57025146484375	
53	238.8504683971405	pulse	1	t		51.0	2.5	/experiments/Knapen_AOT/AOT_stimuli/rescaled_final/0793_rv.mp4	0.0	255.1684148311615	
53	239.36899852752686	fix_post	2		12	51.0	2.5	/experiments/Knapen_AOT/AOT_stimuli/rescaled_final/0793_rv.mp4	0.0	255.68694496154785	0.09999275207519531
54	239.46899127960205	fix_pre	0		119	52.0	2.5	/experiments/Knapen_AOT/AOT_stimuli/rescaled_final/1969_fw.mp4	0.0	255.78693771362305	1.0001749992370605
54	240.45278096199036	pulse	0	t		52.0	2.5	/experiments/Knapen_AOT/AOT_stimuli/rescaled_final/1969_fw.mp4	0.0	256.77072739601135	
54	240.4691662788391	movie	1		283	52.0	2.5	/experiments/Knapen_AOT/AOT_stimuli/rescaled_final/1969_fw.mp4	0.0	256.7871127128601	2.5003857612609863
54	242.0518035888672	pulse	1	t		52.0	2.5	/experiments/Knapen_AOT/AOT_stimuli/rescaled_final/1969_fw.mp4	0.0	258.3697500228882	
54	242.9695520401001	fix_post	2		12	52.0	2.5	/experiments/Knapen_AOT/AOT_stimuli/rescaled_final/1969_fw.mp4	0.0	259.2874984741211	0.1001284122467041
55	243.0696804523468	fix_pre	0		120	53.0	2.5	/experiments/Knapen_AOT/AOT_stimuli/rescaled_final/0999_rv.mp4	0.0	259.3876268863678	1.0083889961242676
55	243.6532862186432	pulse	0	t		53.0	2.5	/experiments/Knapen_AOT/AOT_stimuli/rescaled_final/0999_rv.mp4	0.0	259.9712326526642	
55	244.07806944847107	movie	1		293	53.0	2.5	/experiments/Knapen_AOT/AOT_stimuli/rescaled_final/0999_rv.mp4	0.0	260.39601588249207	2.491985559463501
55	245.25162744522095	pulse	1	t		53.0	2.5	/experiments/Knapen_AOT/AOT_stimuli/rescaled_final/0999_rv.mp4	0.0	261.56957387924194	
55	246.57005500793457	fix_post	2		12	53.0	2.5	/experiments/Knapen_AOT/AOT_stimuli/rescaled_final/0999_rv.mp4	0.0	262.88800144195557	0.10001730918884277
56	246.6700723171234	fix_pre	0		120	54.0	2.5	/experiments/Knapen_AOT/AOT_stimuli/rescaled_final/0568_rv.mp4	0.0	262.9880187511444	1.008556604385376
56	246.8537414073944	pulse	0	t		54.0	2.5	/experiments/Knapen_AOT/AOT_stimuli/rescaled_final/0568_rv.mp4	0.0	263.1716878414154	
56	247.6786289215088	movie	1		266	54.0	2.5	/experiments/Knapen_AOT/AOT_stimuli/rescaled_final/0568_rv.mp4	0.0	263.9965753555298	2.4919962882995605
56	248.4527657032013	pulse	1	t		54.0	2.5	/experiments/Knapen_AOT/AOT_stimuli/rescaled_final/0568_rv.mp4	0.0	264.7707121372223	
56	250.0523555278778	pulse	1	t		54.0	2.5	/experiments/Knapen_AOT/AOT_stimuli/rescaled_final/0568_rv.mp4	0.0	266.3703019618988	
56	250.17062520980835	fix_post	2		12	54.0	2.5	/experiments/Knapen_AOT/AOT_stimuli/rescaled_final/0568_rv.mp4	0.0	266.48857164382935	0.09995102882385254
57	250.2705762386322	fix_pre	0		120	55.0	2.5	blank	1.0	266.5885226726532	1.0002009868621826
57	251.27077722549438	movie	1		300	55.0	2.5	blank	1.0	267.5887236595154	2.500363349914551
57	251.6543483734131	pulse	1	t		55.0	2.5	blank	1.0	267.9722948074341	
57	253.25459814071655	pulse	1	t		55.0	2.5	blank	1.0	269.57254457473755	
57	253.77114057540894	fix_post	2		12	55.0	2.5	blank	1.0	270.08908700942993	0.10016322135925293
58	253.8713037967682	fix_pre	0		119	56.0	2.5	/experiments/Knapen_AOT/AOT_stimuli/rescaled_final/0141_fw.mp4	0.0	270.1892502307892	1.000030279159546
58	254.85512256622314	pulse	0	t		56.0	2.5	/experiments/Knapen_AOT/AOT_stimuli/rescaled_final/0141_fw.mp4	0.0	271.17306900024414	
58	254.87133407592773	movie	1		283	56.0	2.5	/experiments/Knapen_AOT/AOT_stimuli/rescaled_final/0141_fw.mp4	0.0	271.18928050994873	2.5004098415374756
58	256.45357728004456	pulse	1	t		56.0	2.5	/experiments/Knapen_AOT/AOT_stimuli/rescaled_final/0141_fw.mp4	0.0	272.77152371406555	
58	257.3717439174652	fix_post	2		12	56.0	2.5	/experiments/Knapen_AOT/AOT_stimuli/rescaled_final/0141_fw.mp4	0.0	273.6896903514862	0.09995436668395996
59	257.47169828414917	fix_pre	0		120	57.0	2.5	/experiments/Knapen_AOT/AOT_stimuli/rescaled_final/1896_rv.mp4	0.0	273.78964471817017	1.0085291862487793
59	258.05535197257996	pulse	0	t		57.0	2.5	/experiments/Knapen_AOT/AOT_stimuli/rescaled_final/1896_rv.mp4	0.0	274.37329840660095	
59	258.48022747039795	movie	1		274	57.0	2.5	/experiments/Knapen_AOT/AOT_stimuli/rescaled_final/1896_rv.mp4	0.0	274.79817390441895	2.4920589923858643
59	259.6475577354431	pulse	1	t		57.0	2.5	/experiments/Knapen_AOT/AOT_stimuli/rescaled_final/1896_rv.mp4	0.0	275.9655041694641	
59	260.9722864627838	fix_post	2		12	57.0	2.5	/experiments/Knapen_AOT/AOT_stimuli/rescaled_final/1896_rv.mp4	0.0	277.2902328968048	0.09996747970581055
60	261.0722539424896	fix_pre	0		120	58.0	2.5	/experiments/Knapen_AOT/AOT_stimuli/rescaled_final/1916_rv.mp4	0.0	277.3902003765106	1.0084850788116455
60	261.2476840019226	pulse	0	t		58.0	2.5	/experiments/Knapen_AOT/AOT_stimuli/rescaled_final/1916_rv.mp4	0.0	277.5656304359436	
60	262.08073902130127	movie	1		281	58.0	2.5	/experiments/Knapen_AOT/AOT_stimuli/rescaled_final/1916_rv.mp4	0.0	278.39868545532227	2.4920735359191895
60	262.8477609157562	pulse	1	t		58.0	2.5	/experiments/Knapen_AOT/AOT_stimuli/rescaled_final/1916_rv.mp4	0.0	279.1657073497772	
60	264.44804286956787	pulse	1	t		58.0	2.5	/experiments/Knapen_AOT/AOT_stimuli/rescaled_final/1916_rv.mp4	0.0	280.76598930358887	
60	264.57281255722046	fix_post	2		12	58.0	2.5	/experiments/Knapen_AOT/AOT_stimuli/rescaled_final/1916_rv.mp4	0.0	280.89075899124146	0.10001802444458008
61	264.67283058166504	fix_pre	0		120	59.0	2.5	/experiments/Knapen_AOT/AOT_stimuli/rescaled_final/1536_fw.mp4	0.0	280.99077701568604	1.0084433555603027
61	265.68127393722534	movie	1		276	59.0	2.5	/experiments/Knapen_AOT/AOT_stimuli/rescaled_final/1536_fw.mp4	0.0	281.99922037124634	2.4920594692230225
61	266.04824662208557	pulse	1	t		59.0	2.5	/experiments/Knapen_AOT/AOT_stimuli/rescaled_final/1536_fw.mp4	0.0	282.36619305610657	
61	267.6485118865967	pulse	1	t		59.0	2.5	/experiments/Knapen_AOT/AOT_stimuli/rescaled_final/1536_fw.mp4	0.0	283.9664583206177	
61	268.17333340644836	fix_post	2		12	59.0	2.5	/experiments/Knapen_AOT/AOT_stimuli/rescaled_final/1536_fw.mp4	0.0	284.49127984046936	0.09999322891235352
62	268.2733266353607	fix_pre	0		118	60.0	2.5	/experiments/Knapen_AOT/AOT_stimuli/rescaled_final/1168_fw.mp4	0.0	284.5912730693817	0.9920094013214111
62	269.24919867515564	pulse	0	t		60.0	2.5	/experiments/Knapen_AOT/AOT_stimuli/rescaled_final/1168_fw.mp4	0.0	285.56714510917664	
62	269.26533603668213	movie	1		276	60.0	2.5	/experiments/Knapen_AOT/AOT_stimuli/rescaled_final/1168_fw.mp4	0.0	285.5832824707031	2.5002527236938477
62	270.8484058380127	pulse	1	t		60.0	2.5	/experiments/Knapen_AOT/AOT_stimuli/rescaled_final/1168_fw.mp4	0.0	287.1663522720337	
62	271.765588760376	fix_post	2		12	60.0	2.5	/experiments/Knapen_AOT/AOT_stimuli/rescaled_final/1168_fw.mp4	0.0	288.083535194397	0.10000085830688477
63	271.86558961868286	fix_pre	0		120	61.0	2.5	/experiments/Knapen_AOT/AOT_stimuli/rescaled_final/1486_rv.mp4	0.0	288.18353605270386	1.0084478855133057
63	272.4491755962372	pulse	0	t		61.0	2.5	/experiments/Knapen_AOT/AOT_stimuli/rescaled_final/1486_rv.mp4	0.0	288.7671220302582	
63	272.87403750419617	movie	1		285	61.0	2.5	/experiments/Knapen_AOT/AOT_stimuli/rescaled_final/1486_rv.mp4	0.0	289.19198393821716	2.492237091064453
63	274.0480408668518	pulse	1	t		61.0	2.5	/experiments/Knapen_AOT/AOT_stimuli/rescaled_final/1486_rv.mp4	0.0	290.3659873008728	
63	275.3662745952606	fix_post	2		12	61.0	2.5	/experiments/Knapen_AOT/AOT_stimuli/rescaled_final/1486_rv.mp4	0.0	291.6842210292816	0.09981012344360352
64	275.4660847187042	fix_pre	0		120	62.0	2.5	blank	1.0	291.7840311527252	1.000166654586792
64	275.64962887763977	pulse	0	t		62.0	2.5	blank	1.0	291.96757531166077	
64	276.466251373291	movie	1		300	62.0	2.5	blank	1.0	292.784197807312	2.500452756881714
64	277.25005650520325	pulse	1	t		62.0	2.5	blank	1.0	293.56800293922424	
64	278.8503098487854	pulse	1	t		62.0	2.5	blank	1.0	295.1682562828064	
64	278.96670413017273	fix_post	2		12	62.0	2.5	blank	1.0	295.2846505641937	0.09990334510803223
65	279.06660747528076	fix_pre	0		120	63.0	2.5	/experiments/Knapen_AOT/AOT_stimuli/rescaled_final/1072_fw.mp4	0.0	295.38455390930176	1.00852632522583
65	280.0751338005066	movie	1		270	63.0	2.5	/experiments/Knapen_AOT/AOT_stimuli/rescaled_final/1072_fw.mp4	0.0	296.3930802345276	2.4920530319213867
65	280.45063519477844	pulse	1	t		63.0	2.5	/experiments/Knapen_AOT/AOT_stimuli/rescaled_final/1072_fw.mp4	0.0	296.76858162879944	
65	282.0496950149536	pulse	1	t		63.0	2.5	/experiments/Knapen_AOT/AOT_stimuli/rescaled_final/1072_fw.mp4	0.0	298.3676414489746	
65	282.567186832428	fix_post	2		12	63.0	2.5	/experiments/Knapen_AOT/AOT_stimuli/rescaled_final/1072_fw.mp4	0.0	298.885133266449	0.09998774528503418
66	282.667174577713	fix_pre	0		119	64.0	2.5	/experiments/Knapen_AOT/AOT_stimuli/rescaled_final/0379_rv.mp4	0.0	298.985121011734	1.0002148151397705
66	283.6509840488434	pulse	0	t		64.0	2.5	/experiments/Knapen_AOT/AOT_stimuli/rescaled_final/0379_rv.mp4	0.0	299.9689304828644	
66	283.6673893928528	movie	1		282	64.0	2.5	/experiments/Knapen_AOT/AOT_stimuli/rescaled_final/0379_rv.mp4	0.0	299.9853358268738	2.500291347503662
66	285.25030612945557	pulse	1	t		64.0	2.5	/experiments/Knapen_AOT/AOT_stimuli/rescaled_final/0379_rv.mp4	0.0	301.56825256347656	
66	286.16768074035645	fix_post	2		12	64.0	2.5	/experiments/Knapen_AOT/AOT_stimuli/rescaled_final/0379_rv.mp4	0.0	302.48562717437744	0.10000848770141602
67	286.26768922805786	fix_pre	0		120	65.0	2.5	/experiments/Knapen_AOT/AOT_stimuli/rescaled_final/0434_fw.mp4	0.0	302.58563566207886	1.0085160732269287
67	286.8514106273651	pulse	0	t		65.0	2.5	/experiments/Knapen_AOT/AOT_stimuli/rescaled_final/0434_fw.mp4	0.0	303.1693570613861	
67	287.2762053012848	movie	1		284	65.0	2.5	/experiments/Knapen_AOT/AOT_stimuli/rescaled_final/0434_fw.mp4	0.0	303.5941517353058	2.492037296295166
67	288.4500331878662	pulse	1	t		65.0	2.5	/experiments/Knapen_AOT/AOT_stimuli/rescaled_final/0434_fw.mp4	0.0	304.7679796218872	
67	289.76824259757996	fix_post	2		12	65.0	2.5	/experiments/Knapen_AOT/AOT_stimuli/rescaled_final/0434_fw.mp4	0.0	306.08618903160095	0.10006451606750488
68	289.86830711364746	fix_pre	0		120	66.0	2.5	/experiments/Knapen_AOT/AOT_stimuli/rescaled_final/0672_fw.mp4	0.0	306.18625354766846	1.0084505081176758
68	290.05182337760925	pulse	0	t		66.0	2.5	/experiments/Knapen_AOT/AOT_stimuli/rescaled_final/0672_fw.mp4	0.0	306.36976981163025	
68	290.87675762176514	movie	1		272	66.0	2.5	/experiments/Knapen_AOT/AOT_stimuli/rescaled_final/0672_fw.mp4	0.0	307.19470405578613	2.4919893741607666
68	291.65284514427185	pulse	1	t		66.0	2.5	/experiments/Knapen_AOT/AOT_stimuli/rescaled_final/0672_fw.mp4	0.0	307.97079157829285	
68	293.2503092288971	pulse	1	t		66.0	2.5	/experiments/Knapen_AOT/AOT_stimuli/rescaled_final/0672_fw.mp4	0.0	309.5682556629181	
68	293.3687469959259	fix_post	2		12	66.0	2.5	/experiments/Knapen_AOT/AOT_stimuli/rescaled_final/0672_fw.mp4	0.0	309.6866934299469	0.10003852844238281
69	293.4687855243683	fix_pre	0		120	67.0	2.5	/experiments/Knapen_AOT/AOT_stimuli/rescaled_final/0307_fw.mp4	0.0	309.7867319583893	1.0084879398345947
69	294.4772734642029	movie	1		286	67.0	2.5	/experiments/Knapen_AOT/AOT_stimuli/rescaled_final/0307_fw.mp4	0.0	310.7952198982239	2.492048740386963
69	294.8514664173126	pulse	1	t		67.0	2.5	/experiments/Knapen_AOT/AOT_stimuli/rescaled_final/0307_fw.mp4	0.0	311.1694128513336	
69	296.45131063461304	pulse	1	t		67.0	2.5	/experiments/Knapen_AOT/AOT_stimuli/rescaled_final/0307_fw.mp4	0.0	312.76925706863403	
69	296.96932220458984	fix_post	2		12	67.0	2.5	/experiments/Knapen_AOT/AOT_stimuli/rescaled_final/0307_fw.mp4	0.0	313.28726863861084	0.10001444816589355
70	297.06933665275574	fix_pre	0		119	68.0	2.5	blank	1.0	313.38728308677673	0.9917638301849365
70	298.0529980659485	pulse	0	t		68.0	2.5	blank	1.0	314.3709444999695	
70	298.0611004829407	movie	1		301	68.0	2.5	blank	1.0	314.37904691696167	2.508741855621338
70	299.6532669067383	pulse	1	t		68.0	2.5	blank	1.0	315.9712133407593	
70	300.569842338562	fix_post	2		12	68.0	2.5	blank	1.0	316.887788772583	0.10003089904785156
71	300.66987323760986	fix_pre	0		120	69.0	2.5	/experiments/Knapen_AOT/AOT_stimuli/rescaled_final/1306_rv.mp4	0.0	316.98781967163086	1.0085201263427734
71	301.2536528110504	pulse	0	t		69.0	2.5	/experiments/Knapen_AOT/AOT_stimuli/rescaled_final/1306_rv.mp4	0.0	317.5715992450714	
71	301.67839336395264	movie	1		280	69.0	2.5	/experiments/Knapen_AOT/AOT_stimuli/rescaled_final/1306_rv.mp4	0.0	317.99633979797363	2.4920413494110107
71	302.85213589668274	pulse	1	t		69.0	2.5	/experiments/Knapen_AOT/AOT_stimuli/rescaled_final/1306_rv.mp4	0.0	319.17008233070374	
71	304.17043471336365	fix_post	2		12	69.0	2.5	/experiments/Knapen_AOT/AOT_stimuli/rescaled_final/1306_rv.mp4	0.0	320.48838114738464	0.09998250007629395
72	304.27041721343994	fix_pre	0		120	70.0	2.5	/experiments/Knapen_AOT/AOT_stimuli/rescaled_final/0604_rv.mp4	0.0	320.58836364746094	1.008472204208374
72	304.4540870189667	pulse	0	t		70.0	2.5	/experiments/Knapen_AOT/AOT_stimuli/rescaled_final/0604_rv.mp4	0.0	320.77203345298767	
72	305.2788894176483	movie	1		277	70.0	2.5	/experiments/Knapen_AOT/AOT_stimuli/rescaled_final/0604_rv.mp4	0.0	321.5968358516693	2.4920525550842285
72	306.05231499671936	pulse	1	t		70.0	2.5	/experiments/Knapen_AOT/AOT_stimuli/rescaled_final/0604_rv.mp4	0.0	322.37026143074036	
72	307.6526508331299	pulse	1	t		70.0	2.5	/experiments/Knapen_AOT/AOT_stimuli/rescaled_final/0604_rv.mp4	0.0	323.9705972671509	
72	307.77094197273254	fix_post	2		12	70.0	2.5	/experiments/Knapen_AOT/AOT_stimuli/rescaled_final/0604_rv.mp4	0.0	324.08888840675354	0.10000991821289062
73	307.87095189094543	fix_pre	0		120	71.0	2.5	/experiments/Knapen_AOT/AOT_stimuli/rescaled_final/0888_rv.mp4	0.0	324.18889832496643	1.0085186958312988
73	308.87947058677673	movie	1		275	71.0	2.5	/experiments/Knapen_AOT/AOT_stimuli/rescaled_final/0888_rv.mp4	0.0	325.19741702079773	2.4920811653137207
73	309.25336623191833	pulse	1	t		71.0	2.5	/experiments/Knapen_AOT/AOT_stimuli/rescaled_final/0888_rv.mp4	0.0	325.57131266593933	
73	310.84701895713806	pulse	1	t		71.0	2.5	/experiments/Knapen_AOT/AOT_stimuli/rescaled_final/0888_rv.mp4	0.0	327.16496539115906	
73	311.37155175209045	fix_post	2		12	71.0	2.5	/experiments/Knapen_AOT/AOT_stimuli/rescaled_final/0888_rv.mp4	0.0	327.68949818611145	0.10010337829589844
74	311.47165513038635	fix_pre	0		118	72.0	2.5	/experiments/Knapen_AOT/AOT_stimuli/rescaled_final/0145_fw.mp4	0.0	327.78960156440735	0.991633415222168
74	312.4470932483673	pulse	0	t		72.0	2.5	/experiments/Knapen_AOT/AOT_stimuli/rescaled_final/0145_fw.mp4	0.0	328.7650396823883	
74	312.4632885456085	movie	1		276	72.0	2.5	/experiments/Knapen_AOT/AOT_stimuli/rescaled_final/0145_fw.mp4	0.0	328.7812349796295	2.5004162788391113
74	314.0471692085266	pulse	1	t		72.0	2.5	/experiments/Knapen_AOT/AOT_stimuli/rescaled_final/0145_fw.mp4	0.0	330.3651156425476	
74	314.96370482444763	fix_post	2		12	72.0	2.5	/experiments/Knapen_AOT/AOT_stimuli/rescaled_final/0145_fw.mp4	0.0	331.2816512584686	0.10001993179321289
75	315.06372475624084	fix_pre	0		120	73.0	2.5	/experiments/Knapen_AOT/AOT_stimuli/rescaled_final/0965_fw.mp4	0.0	331.38167119026184	1.0084996223449707
75	315.6474869251251	pulse	0	t		73.0	2.5	/experiments/Knapen_AOT/AOT_stimuli/rescaled_final/0965_fw.mp4	0.0	331.9654333591461	
75	316.0722243785858	movie	1		263	73.0	2.5	/experiments/Knapen_AOT/AOT_stimuli/rescaled_final/0965_fw.mp4	0.0	332.3901708126068	2.491987466812134
75	317.247106552124	pulse	1	t		73.0	2.5	/experiments/Knapen_AOT/AOT_stimuli/rescaled_final/0965_fw.mp4	0.0	333.565052986145	
75	318.56421184539795	fix_post	2		12	73.0	2.5	/experiments/Knapen_AOT/AOT_stimuli/rescaled_final/0965_fw.mp4	0.0	334.88215827941895	0.10009074211120605
76	318.66430258750916	fix_pre	0		120	74.0	2.5	/experiments/Knapen_AOT/AOT_stimuli/rescaled_final/0485_rv.mp4	0.0	334.98224902153015	1.0083775520324707
76	318.8481442928314	pulse	0	t		74.0	2.5	/experiments/Knapen_AOT/AOT_stimuli/rescaled_final/0485_rv.mp4	0.0	335.1660907268524	
76	319.6726801395416	movie	1		286	74.0	2.5	/experiments/Knapen_AOT/AOT_stimuli/rescaled_final/0485_rv.mp4	0.0	335.9906265735626	2.492119073867798
76	320.44855761528015	pulse	1	t		74.0	2.5	/experiments/Knapen_AOT/AOT_stimuli/rescaled_final/0485_rv.mp4	0.0	336.76650404930115	
76	322.0482177734375	pulse	1	t		74.0	2.5	/experiments/Knapen_AOT/AOT_stimuli/rescaled_final/0485_rv.mp4	0.0	338.3661642074585	
76	322.1647992134094	fix_post	2		12	74.0	2.5	/experiments/Knapen_AOT/AOT_stimuli/rescaled_final/0485_rv.mp4	0.0	338.4827456474304	0.1000051498413086
77	322.26480436325073	fix_pre	0		120	75.0	2.5	blank	1.0	338.58275079727173	1.0001130104064941
77	323.2649173736572	movie	1		300	75.0	2.5	blank	1.0	339.5828638076782	2.500382661819458
77	323.6486325263977	pulse	1	t		75.0	2.5	blank	1.0	339.9665789604187	
77	325.2488007545471	pulse	1	t		75.0	2.5	blank	1.0	341.5667471885681	
77	325.7653000354767	fix_post	2		12	75.0	2.5	blank	1.0	342.0832464694977	0.10004353523254395
78	325.86534357070923	fix_pre	0		119	76.0	2.5	/experiments/Knapen_AOT/AOT_stimuli/rescaled_final/0730_rv.mp4	0.0	342.1832900047302	1.0001845359802246
78	326.84917306900024	pulse	0	t		76.0	2.5	/experiments/Knapen_AOT/AOT_stimuli/rescaled_final/0730_rv.mp4	0.0	343.16711950302124	
78	326.86552810668945	movie	1		280	76.0	2.5	/experiments/Knapen_AOT/AOT_stimuli/rescaled_final/0730_rv.mp4	0.0	343.18347454071045	2.5003201961517334
78	328.44991421699524	pulse	1	t		76.0	2.5	/experiments/Knapen_AOT/AOT_stimuli/rescaled_final/0730_rv.mp4	0.0	344.76786065101624	
78	329.3658483028412	fix_post	2		12	76.0	2.5	/experiments/Knapen_AOT/AOT_stimuli/rescaled_final/0730_rv.mp4	0.0	345.6837947368622	0.1000220775604248
79	329.4658703804016	fix_pre	0		120	77.0	2.5	/experiments/Knapen_AOT/AOT_stimuli/rescaled_final/1264_rv.mp4	0.0	345.7838168144226	1.0084960460662842
79	330.049533367157	pulse	0	t		77.0	2.5	/experiments/Knapen_AOT/AOT_stimuli/rescaled_final/1264_rv.mp4	0.0	346.367479801178	
79	330.4743664264679	movie	1		277	77.0	2.5	/experiments/Knapen_AOT/AOT_stimuli/rescaled_final/1264_rv.mp4	0.0	346.7923128604889	2.492046356201172
79	331.6480824947357	pulse	1	t		77.0	2.5	/experiments/Knapen_AOT/AOT_stimuli/rescaled_final/1264_rv.mp4	0.0	347.9660289287567	
79	332.96641278266907	fix_post	2		12	77.0	2.5	/experiments/Knapen_AOT/AOT_stimuli/rescaled_final/1264_rv.mp4	0.0	349.28435921669006	0.10001301765441895
80	333.0664258003235	fix_pre	0		120	78.0	2.5	/experiments/Knapen_AOT/AOT_stimuli/rescaled_final/2021_rv.mp4	0.0	349.3843722343445	1.0085129737854004
80	333.24996733665466	pulse	0	t		78.0	2.5	/experiments/Knapen_AOT/AOT_stimuli/rescaled_final/2021_rv.mp4	0.0	349.56791377067566	
80	334.0749387741089	movie	1		268	78.0	2.5	/experiments/Knapen_AOT/AOT_stimuli/rescaled_final/2021_rv.mp4	0.0	350.3928852081299	2.4920284748077393
80	334.84847688674927	pulse	1	t		78.0	2.5	/experiments/Knapen_AOT/AOT_stimuli/rescaled_final/2021_rv.mp4	0.0	351.16642332077026	
80	336.45043659210205	pulse	1	t		78.0	2.5	/experiments/Knapen_AOT/AOT_stimuli/rescaled_final/2021_rv.mp4	0.0	352.76838302612305	
80	336.5669672489166	fix_post	2		12	78.0	2.5	/experiments/Knapen_AOT/AOT_stimuli/rescaled_final/2021_rv.mp4	0.0	352.8849136829376	0.10002923011779785
81	336.6669964790344	fix_pre	0		120	79.0	2.5	/experiments/Knapen_AOT/AOT_stimuli/rescaled_final/1982_rv.mp4	0.0	352.9849429130554	1.0086805820465088
81	337.67567706108093	movie	1		285	79.0	2.5	/experiments/Knapen_AOT/AOT_stimuli/rescaled_final/1982_rv.mp4	0.0	353.99362349510193	2.491818428039551
81	338.04910588264465	pulse	1	t		79.0	2.5	/experiments/Knapen_AOT/AOT_stimuli/rescaled_final/1982_rv.mp4	0.0	354.36705231666565	
81	339.64986300468445	pulse	1	t		79.0	2.5	/experiments/Knapen_AOT/AOT_stimuli/rescaled_final/1982_rv.mp4	0.0	355.96780943870544	
81	340.1674954891205	fix_post	2		12	79.0	2.5	/experiments/Knapen_AOT/AOT_stimuli/rescaled_final/1982_rv.mp4	0.0	356.4854419231415	0.10001969337463379
82	340.2675151824951	fix_pre	0		119	80.0	2.5	/experiments/Knapen_AOT/AOT_stimuli/rescaled_final/1754_fw.mp4	0.0	356.5854616165161	1.0001389980316162
82	341.25122809410095	pulse	0	t		80.0	2.5	/experiments/Knapen_AOT/AOT_stimuli/rescaled_final/1754_fw.mp4	0.0	357.56917452812195	
82	341.26765418052673	movie	1		280	80.0	2.5	/experiments/Knapen_AOT/AOT_stimuli/rescaled_final/1754_fw.mp4	0.0	357.58560061454773	2.500383138656616
82	342.85008215904236	pulse	1	t		80.0	2.5	/experiments/Knapen_AOT/AOT_stimuli/rescaled_final/1754_fw.mp4	0.0	359.16802859306335	
82	343.76803731918335	fix_post	2		12	80.0	2.5	/experiments/Knapen_AOT/AOT_stimuli/rescaled_final/1754_fw.mp4	0.0	360.08598375320435	0.10000276565551758
83	343.86804008483887	fix_pre	0		120	81.0	2.5	/experiments/Knapen_AOT/AOT_stimuli/rescaled_final/0713_fw.mp4	0.0	360.18598651885986	1.0085015296936035
83	344.45174646377563	pulse	0	t		81.0	2.5	/experiments/Knapen_AOT/AOT_stimuli/rescaled_final/0713_fw.mp4	0.0	360.76969289779663	
83	344.87654161453247	movie	1		277	81.0	2.5	/experiments/Knapen_AOT/AOT_stimuli/rescaled_final/0713_fw.mp4	0.0	361.19448804855347	2.492041826248169
83	346.0521333217621	pulse	1	t		81.0	2.5	/experiments/Knapen_AOT/AOT_stimuli/rescaled_final/0713_fw.mp4	0.0	362.3700797557831	
83	347.36858344078064	fix_post	2		12	81.0	2.5	/experiments/Knapen_AOT/AOT_stimuli/rescaled_final/0713_fw.mp4	0.0	363.68652987480164	0.09999346733093262
84	347.4685769081116	fix_pre	0		120	82.0	2.5	/experiments/Knapen_AOT/AOT_stimuli/rescaled_final/1067_rv.mp4	0.0	363.78652334213257	1.0085937976837158
84	347.6525628566742	pulse	0	t		82.0	2.5	/experiments/Knapen_AOT/AOT_stimuli/rescaled_final/1067_rv.mp4	0.0	363.9705092906952	
84	348.4771707057953	movie	1		272	82.0	2.5	/experiments/Knapen_AOT/AOT_stimuli/rescaled_final/1067_rv.mp4	0.0	364.7951171398163	2.49192214012146
84	349.25253415107727	pulse	1	t		82.0	2.5	/experiments/Knapen_AOT/AOT_stimuli/rescaled_final/1067_rv.mp4	0.0	365.57048058509827	
84	350.8509500026703	pulse	1	t		82.0	2.5	/experiments/Knapen_AOT/AOT_stimuli/rescaled_final/1067_rv.mp4	0.0	367.1688964366913	
84	350.96909284591675	fix_post	2		12	82.0	2.5	/experiments/Knapen_AOT/AOT_stimuli/rescaled_final/1067_rv.mp4	0.0	367.28703927993774	0.10002255439758301
85	351.06911540031433	fix_pre	0		120	83.0	2.5	blank	1.0	367.3870618343353	1.0001428127288818
85	352.0692582130432	movie	1		300	83.0	2.5	blank	1.0	368.3872046470642	2.500378131866455
85	352.45296025276184	pulse	1	t		83.0	2.5	blank	1.0	368.77090668678284	
85	354.05328917503357	pulse	1	t		83.0	2.5	blank	1.0	370.37123560905457	
85	354.56963634490967	fix_post	2		12	83.0	2.5	blank	1.0	370.88758277893066	0.10000181198120117
87	354.66963815689087	stim	0		1715					370.98758459091187	14.293874740600586
87	355.65362071990967	pulse	0	t						371.97156715393066	
87	357.253634929657	pulse	0	t						373.571581363678	
87	358.8540608882904	pulse	0	t						375.1720073223114	
87	360.45417881011963	pulse	0	t						376.7721252441406	
87	362.0542621612549	pulse	0	t						378.3722085952759	
87	363.6546323299408	pulse	0	t						379.9725787639618	
87	365.24734330177307	pulse	0	t						381.56528973579407	
87	366.8472628593445	pulse	0	t						383.1652092933655	
87	368.4475884437561	pulse	0	t						384.7655348777771	
