trial_nr	onset	event_type	phase	response	nr_frames	movie_index	movie_duration	movie_file	blank	onset_abs	duration
0	0.1494290828704834	stim	0		18					19.986834049224854	0.15050101280212402
0	0.29196596145629883	response	0	space						20.12937092781067	
1	0.2999300956726074	stim	0		4429					20.137335062026978	36.908113956451416
1	37.19806909561157	pulse	0	t						57.03547406196594	
1	37.20804405212402	stim	1		1717					57.045449018478394	14.308197975158691
1	38.79233503341675	pulse	1	t						58.62973999977112	
1	40.39228916168213	pulse	1	t						60.2296941280365	
1	41.99231004714966	pulse	1	t						61.82971501350403	
1	43.599786043167114	pulse	1	t						63.437191009521484	
1	45.19982194900513	pulse	1	t						65.0372269153595	
1	46.79972314834595	pulse	1	t						66.63712811470032	
1	48.399726152420044	pulse	1	t						68.23713111877441	
1	49.99974513053894	pulse	1	t						69.83715009689331	
2	51.516242027282715	fix_pre	0		11	0.0	2.5	/experiments/AOT/AOT_stimuli/rescaled_final/0386_rv.mp4	0.0	71.35364699363708	0.09167599678039551
2	51.599770069122314	pulse	0	t		0.0	2.5	/experiments/AOT/AOT_stimuli/rescaled_final/0386_rv.mp4	0.0	71.43717503547668	
2	51.60791802406311	movie	1		245	0.0	2.5	/experiments/AOT/AOT_stimuli/rescaled_final/0386_rv.mp4	0.0	71.44532299041748	2.5084030628204346
2	53.19934797286987	pulse	1	t		0.0	2.5	/experiments/AOT/AOT_stimuli/rescaled_final/0386_rv.mp4	0.0	73.03675293922424	
2	54.116321086883545	fix_post	2		12	0.0	2.5	/experiments/AOT/AOT_stimuli/rescaled_final/0386_rv.mp4	0.0	73.95372605323792	0.099945068359375
3	54.21626615524292	fix_pre	0		120	1.0	2.5	/experiments/AOT/AOT_stimuli/rescaled_final/0873_rv.mp4	0.0	74.05367112159729	1.0000438690185547
3	54.799761056900024	pulse	0	t		1.0	2.5	/experiments/AOT/AOT_stimuli/rescaled_final/0873_rv.mp4	0.0	74.6371660232544	
3	55.216310024261475	movie	1		243	1.0	2.5	/experiments/AOT/AOT_stimuli/rescaled_final/0873_rv.mp4	0.0	75.05371499061584	2.4995760917663574
3	56.39984703063965	pulse	1	t		1.0	2.5	/experiments/AOT/AOT_stimuli/rescaled_final/0873_rv.mp4	0.0	76.23725199699402	
3	57.71588611602783	fix_post	2		12	1.0	2.5	/experiments/AOT/AOT_stimuli/rescaled_final/0873_rv.mp4	0.0	77.5532910823822	0.10038995742797852
4	57.81627607345581	fix_pre	0		120	2.0	2.5	/experiments/AOT/AOT_stimuli/rescaled_final/0744_rv.mp4	0.0	77.65368103981018	1.0000388622283936
4	57.99219608306885	pulse	0	t		2.0	2.5	/experiments/AOT/AOT_stimuli/rescaled_final/0744_rv.mp4	0.0	77.82960104942322	
4	58.816314935684204	movie	1		244	2.0	2.5	/experiments/AOT/AOT_stimuli/rescaled_final/0744_rv.mp4	0.0	78.65371990203857	2.500488042831421
4	59.59977698326111	pulse	1	t		2.0	2.5	/experiments/AOT/AOT_stimuli/rescaled_final/0744_rv.mp4	0.0	79.43718194961548	
4	61.19843316078186	pulse	1	t		2.0	2.5	/experiments/AOT/AOT_stimuli/rescaled_final/0744_rv.mp4	0.0	81.03583812713623	
4	61.316802978515625	fix_post	2		12	2.0	2.5	/experiments/AOT/AOT_stimuli/rescaled_final/0744_rv.mp4	0.0	81.15420794487	0.09938716888427734
5	61.4161901473999	fix_pre	0		120	3.0	2.5	/experiments/AOT/AOT_stimuli/rescaled_final/1370_rv.mp4	0.0	81.25359511375427	0.9997467994689941
5	62.4159369468689	movie	1		243	3.0	2.5	/experiments/AOT/AOT_stimuli/rescaled_final/1370_rv.mp4	0.0	82.25334191322327	2.4999351501464844
5	62.79941701889038	pulse	1	t		3.0	2.5	/experiments/AOT/AOT_stimuli/rescaled_final/1370_rv.mp4	0.0	82.63682198524475	
5	64.39974212646484	pulse	1	t		3.0	2.5	/experiments/AOT/AOT_stimuli/rescaled_final/1370_rv.mp4	0.0	84.23714709281921	
5	64.91587209701538	fix_post	2		12	3.0	2.5	/experiments/AOT/AOT_stimuli/rescaled_final/1370_rv.mp4	0.0	84.75327706336975	0.10035204887390137
6	65.01622414588928	fix_pre	0		119	4.0	2.5	/experiments/AOT/AOT_stimuli/rescaled_final/0711_rv.mp4	0.0	84.85362911224365	0.9917027950286865
6	65.99973011016846	pulse	0	t		4.0	2.5	/experiments/AOT/AOT_stimuli/rescaled_final/0711_rv.mp4	0.0	85.83713507652283	
6	66.00792694091797	movie	1		245	4.0	2.5	/experiments/AOT/AOT_stimuli/rescaled_final/0711_rv.mp4	0.0	85.84533190727234	2.5079030990600586
6	67.59947896003723	pulse	1	t		4.0	2.5	/experiments/AOT/AOT_stimuli/rescaled_final/0711_rv.mp4	0.0	87.4368839263916	
6	68.51583003997803	fix_post	2		12	4.0	2.5	/experiments/AOT/AOT_stimuli/rescaled_final/0711_rv.mp4	0.0	88.3532350063324	0.1004340648651123
7	68.61626410484314	fix_pre	0		120	5.0	2.5	blank	1.0	88.45366907119751	1.0000300407409668
7	69.19980001449585	pulse	0	t		5.0	2.5	blank	1.0	89.03720498085022	
7	69.6162941455841	movie	1		300	5.0	2.5	blank	1.0	89.45369911193848	2.4995059967041016
7	70.79228496551514	pulse	1	t		5.0	2.5	blank	1.0	90.6296899318695	
7	72.11580014228821	fix_post	2		12	5.0	2.5	blank	1.0	91.95320510864258	0.10002994537353516
8	72.21583008766174	fix_pre	0		120	6.0	2.5	/experiments/AOT/AOT_stimuli/rescaled_final/1454_fw.mp4	0.0	92.05323505401611	1.0004489421844482
8	72.39935493469238	pulse	0	t		6.0	2.5	/experiments/AOT/AOT_stimuli/rescaled_final/1454_fw.mp4	0.0	92.23675990104675	
8	73.21627902984619	movie	1		246	6.0	2.5	/experiments/AOT/AOT_stimuli/rescaled_final/1454_fw.mp4	0.0	93.05368399620056	2.4995980262756348
8	73.99945902824402	pulse	1	t		6.0	2.5	/experiments/AOT/AOT_stimuli/rescaled_final/1454_fw.mp4	0.0	93.83686399459839	
8	75.59820699691772	pulse	1	t		6.0	2.5	/experiments/AOT/AOT_stimuli/rescaled_final/1454_fw.mp4	0.0	95.4356119632721	
8	75.71587705612183	fix_post	2		12	6.0	2.5	/experiments/AOT/AOT_stimuli/rescaled_final/1454_fw.mp4	0.0	95.5532820224762	0.10035109519958496
9	75.81622815132141	fix_pre	0		120	7.0	2.5	/experiments/AOT/AOT_stimuli/rescaled_final/1486_rv.mp4	0.0	95.65363311767578	0.9996378421783447
9	76.81586599349976	movie	1		244	7.0	2.5	/experiments/AOT/AOT_stimuli/rescaled_final/1486_rv.mp4	0.0	96.65327095985413	2.4999921321868896
9	77.19934415817261	pulse	1	t		7.0	2.5	/experiments/AOT/AOT_stimuli/rescaled_final/1486_rv.mp4	0.0	97.03674912452698	
9	78.7997031211853	pulse	1	t		7.0	2.5	/experiments/AOT/AOT_stimuli/rescaled_final/1486_rv.mp4	0.0	98.63710808753967	
9	79.31585812568665	fix_post	2		12	7.0	2.5	/experiments/AOT/AOT_stimuli/rescaled_final/1486_rv.mp4	0.0	99.15326309204102	0.10042095184326172
10	79.41627907752991	fix_pre	0		119	8.0	2.5	/experiments/AOT/AOT_stimuli/rescaled_final/0960_rv.mp4	0.0	99.25368404388428	0.9915549755096436
10	80.39960312843323	pulse	0	t		8.0	2.5	/experiments/AOT/AOT_stimuli/rescaled_final/0960_rv.mp4	0.0	100.2370080947876	
10	80.40783405303955	movie	1		244	8.0	2.5	/experiments/AOT/AOT_stimuli/rescaled_final/0960_rv.mp4	0.0	100.24523901939392	2.5083489418029785
10	81.99940514564514	pulse	1	t		8.0	2.5	/experiments/AOT/AOT_stimuli/rescaled_final/0960_rv.mp4	0.0	101.83681011199951	
10	82.91618299484253	fix_post	2		12	8.0	2.5	/experiments/AOT/AOT_stimuli/rescaled_final/0960_rv.mp4	0.0	102.7535879611969	0.09996294975280762
11	83.01614594459534	fix_pre	0		120	9.0	2.5	/experiments/AOT/AOT_stimuli/rescaled_final/0356_fw.mp4	0.0	102.8535509109497	0.999946117401123
11	83.59966397285461	pulse	0	t		9.0	2.5	/experiments/AOT/AOT_stimuli/rescaled_final/0356_fw.mp4	0.0	103.43706893920898	
11	84.01609206199646	movie	1		244	9.0	2.5	/experiments/AOT/AOT_stimuli/rescaled_final/0356_fw.mp4	0.0	103.85349702835083	2.4999630451202393
11	85.19977116584778	pulse	1	t		9.0	2.5	/experiments/AOT/AOT_stimuli/rescaled_final/0356_fw.mp4	0.0	105.03717613220215	
11	86.5160551071167	fix_post	2		12	9.0	2.5	/experiments/AOT/AOT_stimuli/rescaled_final/0356_fw.mp4	0.0	106.35346007347107	0.10012292861938477
12	86.61617803573608	fix_pre	0		120	10.0	2.5	/experiments/AOT/AOT_stimuli/rescaled_final/0032_rv.mp4	0.0	106.45358300209045	0.9999620914459229
12	86.79961395263672	pulse	0	t		10.0	2.5	/experiments/AOT/AOT_stimuli/rescaled_final/0032_rv.mp4	0.0	106.63701891899109	
12	87.616140127182	movie	1		245	10.0	2.5	/experiments/AOT/AOT_stimuli/rescaled_final/0032_rv.mp4	0.0	107.45354509353638	2.5001018047332764
12	88.39955997467041	pulse	1	t		10.0	2.5	/experiments/AOT/AOT_stimuli/rescaled_final/0032_rv.mp4	0.0	108.23696494102478	
12	89.99795603752136	pulse	1	t		10.0	2.5	/experiments/AOT/AOT_stimuli/rescaled_final/0032_rv.mp4	0.0	109.83536100387573	
12	90.11624193191528	fix_post	2		12	10.0	2.5	/experiments/AOT/AOT_stimuli/rescaled_final/0032_rv.mp4	0.0	109.95364689826965	0.09987211227416992
13	90.21611404418945	fix_pre	0		120	11.0	2.5	/experiments/AOT/AOT_stimuli/rescaled_final/0635_rv.mp4	0.0	110.05351901054382	0.999985933303833
13	91.21609997749329	movie	1		245	11.0	2.5	/experiments/AOT/AOT_stimuli/rescaled_final/0635_rv.mp4	0.0	111.05350494384766	2.4995920658111572
13	91.59929704666138	pulse	1	t		11.0	2.5	/experiments/AOT/AOT_stimuli/rescaled_final/0635_rv.mp4	0.0	111.43670201301575	
13	93.19961309432983	pulse	1	t		11.0	2.5	/experiments/AOT/AOT_stimuli/rescaled_final/0635_rv.mp4	0.0	113.0370180606842	
13	93.71569204330444	fix_post	2		12	11.0	2.5	/experiments/AOT/AOT_stimuli/rescaled_final/0635_rv.mp4	0.0	113.55309700965881	0.10039210319519043
14	93.81608414649963	fix_pre	0		119	12.0	2.5	/experiments/AOT/AOT_stimuli/rescaled_final/1592_fw.mp4	0.0	113.653489112854	0.9916269779205322
14	94.79960894584656	pulse	0	t		12.0	2.5	/experiments/AOT/AOT_stimuli/rescaled_final/1592_fw.mp4	0.0	114.63701391220093	
14	94.80771112442017	movie	1		246	12.0	2.5	/experiments/AOT/AOT_stimuli/rescaled_final/1592_fw.mp4	0.0	114.64511609077454	2.5080349445343018
14	96.39903116226196	pulse	1	t		12.0	2.5	/experiments/AOT/AOT_stimuli/rescaled_final/1592_fw.mp4	0.0	116.23643612861633	
14	97.31574606895447	fix_post	2		12	12.0	2.5	/experiments/AOT/AOT_stimuli/rescaled_final/1592_fw.mp4	0.0	117.15315103530884	0.10030698776245117
15	97.41605305671692	fix_pre	0		120	13.0	2.5	blank	1.0	117.25345802307129	1.0000650882720947
15	97.99955105781555	pulse	0	t		13.0	2.5	blank	1.0	117.83695602416992	
15	98.41611814498901	movie	1		300	13.0	2.5	blank	1.0	118.25352311134338	2.499971866607666
15	99.59961104393005	pulse	1	t		13.0	2.5	blank	1.0	119.43701601028442	
15	100.91609001159668	fix_post	2		12	13.0	2.5	blank	1.0	120.75349497795105	0.10002398490905762
16	101.01611399650574	fix_pre	0		120	14.0	2.5	/experiments/AOT/AOT_stimuli/rescaled_final/1100_fw.mp4	0.0	120.85351896286011	0.9995460510253906
16	101.19958305358887	pulse	0	t		14.0	2.5	/experiments/AOT/AOT_stimuli/rescaled_final/1100_fw.mp4	0.0	121.03698801994324	
16	102.01566004753113	movie	1		243	14.0	2.5	/experiments/AOT/AOT_stimuli/rescaled_final/1100_fw.mp4	0.0	121.8530650138855	2.5003950595855713
16	102.79951214790344	pulse	1	t		14.0	2.5	/experiments/AOT/AOT_stimuli/rescaled_final/1100_fw.mp4	0.0	122.63691711425781	
16	104.39781594276428	pulse	1	t		14.0	2.5	/experiments/AOT/AOT_stimuli/rescaled_final/1100_fw.mp4	0.0	124.23522090911865	
16	104.5160551071167	fix_post	2		12	14.0	2.5	/experiments/AOT/AOT_stimuli/rescaled_final/1100_fw.mp4	0.0	124.35346007347107	0.09996390342712402
17	104.61601901054382	fix_pre	0		120	15.0	2.5	/experiments/AOT/AOT_stimuli/rescaled_final/0924_rv.mp4	0.0	124.4534239768982	1.0000419616699219
17	105.61606097221375	movie	1		247	15.0	2.5	/experiments/AOT/AOT_stimuli/rescaled_final/0924_rv.mp4	0.0	125.45346593856812	2.4999570846557617
17	106.00019693374634	pulse	1	t		15.0	2.5	/experiments/AOT/AOT_stimuli/rescaled_final/0924_rv.mp4	0.0	125.83760190010071	
17	107.59207105636597	pulse	1	t		15.0	2.5	/experiments/AOT/AOT_stimuli/rescaled_final/0924_rv.mp4	0.0	127.42947602272034	
17	108.1160180568695	fix_post	2		12	15.0	2.5	/experiments/AOT/AOT_stimuli/rescaled_final/0924_rv.mp4	0.0	127.95342302322388	0.09970808029174805
18	108.21572613716125	fix_pre	0		119	16.0	2.5	/experiments/AOT/AOT_stimuli/rescaled_final/1938_rv.mp4	0.0	128.05313110351562	0.9920458793640137
18	109.19956994056702	pulse	0	t		16.0	2.5	/experiments/AOT/AOT_stimuli/rescaled_final/1938_rv.mp4	0.0	129.0369749069214	
18	109.20777201652527	movie	1		246	16.0	2.5	/experiments/AOT/AOT_stimuli/rescaled_final/1938_rv.mp4	0.0	129.04517698287964	2.5082380771636963
18	110.79899501800537	pulse	1	t		16.0	2.5	/experiments/AOT/AOT_stimuli/rescaled_final/1938_rv.mp4	0.0	130.63639998435974	
18	111.71601009368896	fix_post	2		12	16.0	2.5	/experiments/AOT/AOT_stimuli/rescaled_final/1938_rv.mp4	0.0	131.55341506004333	0.09993791580200195
19	111.81594800949097	fix_pre	0		120	17.0	2.5	/experiments/AOT/AOT_stimuli/rescaled_final/1136_rv.mp4	0.0	131.65335297584534	1.000115156173706
19	112.39946699142456	pulse	0	t		17.0	2.5	/experiments/AOT/AOT_stimuli/rescaled_final/1136_rv.mp4	0.0	132.23687195777893	
19	112.81606316566467	movie	1		246	17.0	2.5	/experiments/AOT/AOT_stimuli/rescaled_final/1136_rv.mp4	0.0	132.65346813201904	2.499912977218628
19	113.99959802627563	pulse	1	t		17.0	2.5	/experiments/AOT/AOT_stimuli/rescaled_final/1136_rv.mp4	0.0	133.83700299263	
19	115.3159761428833	fix_post	2		12	17.0	2.5	/experiments/AOT/AOT_stimuli/rescaled_final/1136_rv.mp4	0.0	135.15338110923767	0.10004281997680664
20	115.41601896286011	fix_pre	0		120	18.0	2.5	/experiments/AOT/AOT_stimuli/rescaled_final/0759_rv.mp4	0.0	135.25342392921448	1.000054121017456
20	115.59951114654541	pulse	0	t		18.0	2.5	/experiments/AOT/AOT_stimuli/rescaled_final/0759_rv.mp4	0.0	135.43691611289978	
20	116.41607308387756	movie	1		246	18.0	2.5	/experiments/AOT/AOT_stimuli/rescaled_final/0759_rv.mp4	0.0	136.25347805023193	2.499871015548706
20	117.19947814941406	pulse	1	t		18.0	2.5	/experiments/AOT/AOT_stimuli/rescaled_final/0759_rv.mp4	0.0	137.03688311576843	
20	118.79782295227051	pulse	1	t		18.0	2.5	/experiments/AOT/AOT_stimuli/rescaled_final/0759_rv.mp4	0.0	138.63522791862488	
20	118.91594409942627	fix_post	2		12	18.0	2.5	/experiments/AOT/AOT_stimuli/rescaled_final/0759_rv.mp4	0.0	138.75334906578064	0.09999895095825195
21	119.01594305038452	fix_pre	0		120	19.0	2.5	/experiments/AOT/AOT_stimuli/rescaled_final/1493_fw.mp4	0.0	138.8533480167389	1.0000629425048828
21	120.0160059928894	movie	1		244	19.0	2.5	/experiments/AOT/AOT_stimuli/rescaled_final/1493_fw.mp4	0.0	139.85341095924377	2.499974012374878
21	120.39898300170898	pulse	1	t		19.0	2.5	/experiments/AOT/AOT_stimuli/rescaled_final/1493_fw.mp4	0.0	140.23638796806335	
21	121.99964499473572	pulse	1	t		19.0	2.5	/experiments/AOT/AOT_stimuli/rescaled_final/1493_fw.mp4	0.0	141.8370499610901	
21	122.51598000526428	fix_post	2		12	19.0	2.5	/experiments/AOT/AOT_stimuli/rescaled_final/1493_fw.mp4	0.0	142.35338497161865	0.10000300407409668
22	122.61598300933838	fix_pre	0		119	20.0	2.5	/experiments/AOT/AOT_stimuli/rescaled_final/0641_fw.mp4	0.0	142.45338797569275	0.9916341304779053
22	123.59946203231812	pulse	0	t		20.0	2.5	/experiments/AOT/AOT_stimuli/rescaled_final/0641_fw.mp4	0.0	143.43686699867249	
22	123.60761713981628	movie	1		244	20.0	2.5	/experiments/AOT/AOT_stimuli/rescaled_final/0641_fw.mp4	0.0	143.44502210617065	2.5083789825439453
22	125.1992130279541	pulse	1	t		20.0	2.5	/experiments/AOT/AOT_stimuli/rescaled_final/0641_fw.mp4	0.0	145.03661799430847	
22	126.11599612236023	fix_post	2		12	20.0	2.5	/experiments/AOT/AOT_stimuli/rescaled_final/0641_fw.mp4	0.0	145.9534010887146	0.09954285621643066
23	126.21553897857666	fix_pre	0		120	21.0	2.5	blank	1.0	146.05294394493103	1.0000221729278564
23	126.79947400093079	pulse	0	t		21.0	2.5	blank	1.0	146.63687896728516	
23	127.21556115150452	movie	1		300	21.0	2.5	blank	1.0	147.0529661178589	2.5006039142608643
23	128.399090051651	pulse	1	t		21.0	2.5	blank	1.0	148.23649501800537	
23	129.71616506576538	fix_post	2		12	21.0	2.5	blank	1.0	149.55357003211975	0.0999898910522461
24	129.81615495681763	fix_pre	0		120	22.0	2.5	/experiments/AOT/AOT_stimuli/rescaled_final/0957_rv.mp4	0.0	149.653559923172	0.9997789859771729
24	129.99961495399475	pulse	0	t		22.0	2.5	/experiments/AOT/AOT_stimuli/rescaled_final/0957_rv.mp4	0.0	149.83701992034912	
24	130.8159339427948	movie	1		245	22.0	2.5	/experiments/AOT/AOT_stimuli/rescaled_final/0957_rv.mp4	0.0	150.65333890914917	2.5
24	131.59941601753235	pulse	1	t		22.0	2.5	/experiments/AOT/AOT_stimuli/rescaled_final/0957_rv.mp4	0.0	151.43682098388672	
24	133.19765400886536	pulse	1	t		22.0	2.5	/experiments/AOT/AOT_stimuli/rescaled_final/0957_rv.mp4	0.0	153.03505897521973	
24	133.3159339427948	fix_post	2		12	22.0	2.5	/experiments/AOT/AOT_stimuli/rescaled_final/0957_rv.mp4	0.0	153.15333890914917	0.10003018379211426
25	133.4159641265869	fix_pre	0		120	23.0	2.5	/experiments/AOT/AOT_stimuli/rescaled_final/0956_fw.mp4	0.0	153.25336909294128	0.9999628067016602
25	134.41592693328857	movie	1		245	23.0	2.5	/experiments/AOT/AOT_stimuli/rescaled_final/0956_fw.mp4	0.0	154.25333189964294	2.4999711513519287
25	134.79887914657593	pulse	1	t		23.0	2.5	/experiments/AOT/AOT_stimuli/rescaled_final/0956_fw.mp4	0.0	154.6362841129303	
25	136.39927315711975	pulse	1	t		23.0	2.5	/experiments/AOT/AOT_stimuli/rescaled_final/0956_fw.mp4	0.0	156.23667812347412	
25	136.9158980846405	fix_post	2		12	23.0	2.5	/experiments/AOT/AOT_stimuli/rescaled_final/0956_fw.mp4	0.0	156.75330305099487	0.09998202323913574
26	137.01588010787964	fix_pre	0		119	24.0	2.5	/experiments/AOT/AOT_stimuli/rescaled_final/1600_fw.mp4	0.0	156.853285074234	0.9916858673095703
26	137.99937200546265	pulse	0	t		24.0	2.5	/experiments/AOT/AOT_stimuli/rescaled_final/1600_fw.mp4	0.0	157.83677697181702	
26	138.0075659751892	movie	1		247	24.0	2.5	/experiments/AOT/AOT_stimuli/rescaled_final/1600_fw.mp4	0.0	157.84497094154358	2.5082831382751465
26	139.59941816329956	pulse	1	t		24.0	2.5	/experiments/AOT/AOT_stimuli/rescaled_final/1600_fw.mp4	0.0	159.43682312965393	
26	140.51584911346436	fix_post	2		12	24.0	2.5	/experiments/AOT/AOT_stimuli/rescaled_final/1600_fw.mp4	0.0	160.35325407981873	0.09996795654296875
27	140.61581707000732	fix_pre	0		120	25.0	2.5	/experiments/AOT/AOT_stimuli/rescaled_final/2016_rv.mp4	0.0	160.4532220363617	1.0000689029693604
27	141.19937705993652	pulse	0	t		25.0	2.5	/experiments/AOT/AOT_stimuli/rescaled_final/2016_rv.mp4	0.0	161.0367820262909	
27	141.61588597297668	movie	1		243	25.0	2.5	/experiments/AOT/AOT_stimuli/rescaled_final/2016_rv.mp4	0.0	161.45329093933105	2.4999771118164062
27	142.79940795898438	pulse	1	t		25.0	2.5	/experiments/AOT/AOT_stimuli/rescaled_final/2016_rv.mp4	0.0	162.63681292533875	
27	144.1158630847931	fix_post	2		12	25.0	2.5	/experiments/AOT/AOT_stimuli/rescaled_final/2016_rv.mp4	0.0	163.95326805114746	0.09996700286865234
28	144.21583008766174	fix_pre	0		120	26.0	2.5	/experiments/AOT/AOT_stimuli/rescaled_final/0943_fw.mp4	0.0	164.0532350540161	1.0000040531158447
28	144.3993501663208	pulse	0	t		26.0	2.5	/experiments/AOT/AOT_stimuli/rescaled_final/0943_fw.mp4	0.0	164.23675513267517	
28	145.2158341407776	movie	1		243	26.0	2.5	/experiments/AOT/AOT_stimuli/rescaled_final/0943_fw.mp4	0.0	165.05323910713196	2.5000689029693604
28	145.9993441104889	pulse	1	t		26.0	2.5	/experiments/AOT/AOT_stimuli/rescaled_final/0943_fw.mp4	0.0	165.83674907684326	
28	147.59767508506775	pulse	1	t		26.0	2.5	/experiments/AOT/AOT_stimuli/rescaled_final/0943_fw.mp4	0.0	167.43508005142212	
28	147.71590304374695	fix_post	2		12	26.0	2.5	/experiments/AOT/AOT_stimuli/rescaled_final/0943_fw.mp4	0.0	167.55330801010132	0.0999300479888916
29	147.81583309173584	fix_pre	0		120	27.0	2.5	blank	1.0	167.6532380580902	0.9999668598175049
29	148.81579995155334	movie	1		300	27.0	2.5	blank	1.0	168.65320491790771	2.5000619888305664
29	149.19933915138245	pulse	1	t		27.0	2.5	blank	1.0	169.03674411773682	
29	150.7993459701538	pulse	1	t		27.0	2.5	blank	1.0	170.63675093650818	
29	151.3158619403839	fix_post	2		12	27.0	2.5	blank	1.0	171.15326690673828	0.09998703002929688
30	151.4158489704132	fix_pre	0		119	28.0	2.5	/experiments/AOT/AOT_stimuli/rescaled_final/0321_fw.mp4	0.0	171.25325393676758	0.9916820526123047
30	152.39936709403992	pulse	0	t		28.0	2.5	/experiments/AOT/AOT_stimuli/rescaled_final/0321_fw.mp4	0.0	172.2367720603943	
30	152.4075310230255	movie	1		246	28.0	2.5	/experiments/AOT/AOT_stimuli/rescaled_final/0321_fw.mp4	0.0	172.24493598937988	2.5083580017089844
30	154.00038409233093	pulse	1	t		28.0	2.5	/experiments/AOT/AOT_stimuli/rescaled_final/0321_fw.mp4	0.0	173.8377890586853	
30	154.9158890247345	fix_post	2		12	28.0	2.5	/experiments/AOT/AOT_stimuli/rescaled_final/0321_fw.mp4	0.0	174.75329399108887	0.09990692138671875
31	155.01579594612122	fix_pre	0		120	29.0	2.5	/experiments/AOT/AOT_stimuli/rescaled_final/0368_rv.mp4	0.0	174.8532009124756	0.9999661445617676
31	155.5993721485138	pulse	0	t		29.0	2.5	/experiments/AOT/AOT_stimuli/rescaled_final/0368_rv.mp4	0.0	175.43677711486816	
31	156.01576209068298	movie	1		245	29.0	2.5	/experiments/AOT/AOT_stimuli/rescaled_final/0368_rv.mp4	0.0	175.85316705703735	2.499980926513672
31	157.1992859840393	pulse	1	t		29.0	2.5	/experiments/AOT/AOT_stimuli/rescaled_final/0368_rv.mp4	0.0	177.03669095039368	
31	158.51574301719666	fix_post	2		12	29.0	2.5	/experiments/AOT/AOT_stimuli/rescaled_final/0368_rv.mp4	0.0	178.35314798355103	0.0999751091003418
32	158.615718126297	fix_pre	0		120	30.0	2.5	/experiments/AOT/AOT_stimuli/rescaled_final/0563_fw.mp4	0.0	178.45312309265137	1.0000989437103271
32	158.79922914505005	pulse	0	t		30.0	2.5	/experiments/AOT/AOT_stimuli/rescaled_final/0563_fw.mp4	0.0	178.63663411140442	
32	159.61581707000732	movie	1		243	30.0	2.5	/experiments/AOT/AOT_stimuli/rescaled_final/0563_fw.mp4	0.0	179.4532220363617	2.4994990825653076
32	160.3992371559143	pulse	1	t		30.0	2.5	/experiments/AOT/AOT_stimuli/rescaled_final/0563_fw.mp4	0.0	180.23664212226868	
32	161.99817299842834	pulse	1	t		30.0	2.5	/experiments/AOT/AOT_stimuli/rescaled_final/0563_fw.mp4	0.0	181.83557796478271	
32	162.11531615257263	fix_post	2		12	30.0	2.5	/experiments/AOT/AOT_stimuli/rescaled_final/0563_fw.mp4	0.0	181.952721118927	0.10041594505310059
33	162.21573209762573	fix_pre	0		120	31.0	2.5	/experiments/AOT/AOT_stimuli/rescaled_final/1362_fw.mp4	0.0	182.0531370639801	0.9999890327453613
33	163.2157211303711	movie	1		244	31.0	2.5	/experiments/AOT/AOT_stimuli/rescaled_final/1362_fw.mp4	0.0	183.05312609672546	2.5000338554382324
33	163.59940600395203	pulse	1	t		31.0	2.5	/experiments/AOT/AOT_stimuli/rescaled_final/1362_fw.mp4	0.0	183.4368109703064	
33	165.19922304153442	pulse	1	t		31.0	2.5	/experiments/AOT/AOT_stimuli/rescaled_final/1362_fw.mp4	0.0	185.0366280078888	
33	165.71575498580933	fix_post	2		12	31.0	2.5	/experiments/AOT/AOT_stimuli/rescaled_final/1362_fw.mp4	0.0	185.5531599521637	0.0999610424041748
34	165.8157160282135	fix_pre	0		119	32.0	2.5	/experiments/AOT/AOT_stimuli/rescaled_final/0585_rv.mp4	0.0	185.65312099456787	0.9917309284210205
34	166.79921102523804	pulse	0	t		32.0	2.5	/experiments/AOT/AOT_stimuli/rescaled_final/0585_rv.mp4	0.0	186.6366159915924	
34	166.80744695663452	movie	1		246	32.0	2.5	/experiments/AOT/AOT_stimuli/rescaled_final/0585_rv.mp4	0.0	186.6448519229889	2.5079450607299805
34	168.3987419605255	pulse	1	t		32.0	2.5	/experiments/AOT/AOT_stimuli/rescaled_final/0585_rv.mp4	0.0	188.23614692687988	
34	169.3153920173645	fix_post	2		12	32.0	2.5	/experiments/AOT/AOT_stimuli/rescaled_final/0585_rv.mp4	0.0	189.15279698371887	0.10042905807495117
35	169.41582107543945	fix_pre	0		120	33.0	2.5	/experiments/AOT/AOT_stimuli/rescaled_final/1214_rv.mp4	0.0	189.25322604179382	0.9999179840087891
35	169.99922609329224	pulse	0	t		33.0	2.5	/experiments/AOT/AOT_stimuli/rescaled_final/1214_rv.mp4	0.0	189.8366310596466	
35	170.41573905944824	movie	1		243	33.0	2.5	/experiments/AOT/AOT_stimuli/rescaled_final/1214_rv.mp4	0.0	190.2531440258026	2.499945878982544
35	171.5992431640625	pulse	1	t		33.0	2.5	/experiments/AOT/AOT_stimuli/rescaled_final/1214_rv.mp4	0.0	191.43664813041687	
35	172.9156849384308	fix_post	2		12	33.0	2.5	/experiments/AOT/AOT_stimuli/rescaled_final/1214_rv.mp4	0.0	192.75308990478516	0.10009503364562988
36	173.01577997207642	fix_pre	0		120	34.0	2.5	blank	1.0	192.8531849384308	0.99996018409729
36	173.19918394088745	pulse	0	t		34.0	2.5	blank	1.0	193.03658890724182	
36	174.0157401561737	movie	1		300	34.0	2.5	blank	1.0	193.85314512252808	2.500018835067749
36	174.79921007156372	pulse	1	t		34.0	2.5	blank	1.0	194.6366150379181	
36	176.39922714233398	pulse	1	t		34.0	2.5	blank	1.0	196.23663210868835	
36	176.51575899124146	fix_post	2		12	34.0	2.5	blank	1.0	196.35316395759583	0.09992504119873047
37	176.61568403244019	fix_pre	0		120	35.0	2.5	/experiments/AOT/AOT_stimuli/rescaled_final/0687_fw.mp4	0.0	196.45308899879456	1.0000998973846436
37	177.61578392982483	movie	1		244	35.0	2.5	/experiments/AOT/AOT_stimuli/rescaled_final/0687_fw.mp4	0.0	197.4531888961792	2.500014066696167
37	177.99885296821594	pulse	1	t		35.0	2.5	/experiments/AOT/AOT_stimuli/rescaled_final/0687_fw.mp4	0.0	197.8362579345703	
37	179.59915900230408	pulse	1	t		35.0	2.5	/experiments/AOT/AOT_stimuli/rescaled_final/0687_fw.mp4	0.0	199.43656396865845	
37	180.115797996521	fix_post	2		12	35.0	2.5	/experiments/AOT/AOT_stimuli/rescaled_final/0687_fw.mp4	0.0	199.95320296287537	0.0999290943145752
38	180.21572709083557	fix_pre	0		119	36.0	2.5	/experiments/AOT/AOT_stimuli/rescaled_final/1557_fw.mp4	0.0	200.05313205718994	0.9916908740997314
38	181.19919204711914	pulse	0	t		36.0	2.5	/experiments/AOT/AOT_stimuli/rescaled_final/1557_fw.mp4	0.0	201.0365970134735	
38	181.2074179649353	movie	1		248	36.0	2.5	/experiments/AOT/AOT_stimuli/rescaled_final/1557_fw.mp4	0.0	201.04482293128967	2.507883071899414
38	182.79885506629944	pulse	1	t		36.0	2.5	/experiments/AOT/AOT_stimuli/rescaled_final/1557_fw.mp4	0.0	202.6362600326538	
38	183.71530103683472	fix_post	2		12	36.0	2.5	/experiments/AOT/AOT_stimuli/rescaled_final/1557_fw.mp4	0.0	203.5527060031891	0.09997200965881348
39	183.81527304649353	fix_pre	0		120	37.0	2.5	/experiments/AOT/AOT_stimuli/rescaled_final/0514_fw.mp4	0.0	203.6526780128479	1.0001330375671387
39	184.3986999988556	pulse	0	t		37.0	2.5	/experiments/AOT/AOT_stimuli/rescaled_final/0514_fw.mp4	0.0	204.23610496520996	
39	184.81540608406067	movie	1		244	37.0	2.5	/experiments/AOT/AOT_stimuli/rescaled_final/0514_fw.mp4	0.0	204.65281105041504	2.499871015548706
39	185.99895596504211	pulse	1	t		37.0	2.5	/experiments/AOT/AOT_stimuli/rescaled_final/0514_fw.mp4	0.0	205.83636093139648	
39	187.31527709960938	fix_post	2		12	37.0	2.5	/experiments/AOT/AOT_stimuli/rescaled_final/0514_fw.mp4	0.0	207.15268206596375	0.10041689872741699
40	187.4156939983368	fix_pre	0		120	38.0	2.5	/experiments/AOT/AOT_stimuli/rescaled_final/0514_rv.mp4	0.0	207.25309896469116	0.9999771118164062
40	187.59911108016968	pulse	0	t		38.0	2.5	/experiments/AOT/AOT_stimuli/rescaled_final/0514_rv.mp4	0.0	207.43651604652405	
40	188.4156711101532	movie	1		244	38.0	2.5	/experiments/AOT/AOT_stimuli/rescaled_final/0514_rv.mp4	0.0	208.25307607650757	2.4995319843292236
40	189.19910097122192	pulse	1	t		38.0	2.5	/experiments/AOT/AOT_stimuli/rescaled_final/0514_rv.mp4	0.0	209.0365059375763	
40	190.798033952713	pulse	1	t		38.0	2.5	/experiments/AOT/AOT_stimuli/rescaled_final/0514_rv.mp4	0.0	210.63543891906738	
40	190.91520309448242	fix_post	2		12	38.0	2.5	/experiments/AOT/AOT_stimuli/rescaled_final/0514_rv.mp4	0.0	210.7526080608368	0.10052490234375
41	191.01572799682617	fix_pre	0		120	39.0	2.5	/experiments/AOT/AOT_stimuli/rescaled_final/1800_rv.mp4	0.0	210.85313296318054	0.9995031356811523
41	192.01523113250732	movie	1		243	39.0	2.5	/experiments/AOT/AOT_stimuli/rescaled_final/1800_rv.mp4	0.0	211.8526360988617	2.500391960144043
41	192.39892601966858	pulse	1	t		39.0	2.5	/experiments/AOT/AOT_stimuli/rescaled_final/1800_rv.mp4	0.0	212.23633098602295	
41	193.99913907051086	pulse	1	t		39.0	2.5	/experiments/AOT/AOT_stimuli/rescaled_final/1800_rv.mp4	0.0	213.83654403686523	
41	194.51562309265137	fix_post	2		12	39.0	2.5	/experiments/AOT/AOT_stimuli/rescaled_final/1800_rv.mp4	0.0	214.35302805900574	0.09958195686340332
42	194.61520504951477	fix_pre	0		119	40.0	2.5	blank	1.0	214.45261001586914	0.9921729564666748
42	195.5990810394287	pulse	0	t		40.0	2.5	blank	1.0	215.43648600578308	
42	195.60737800598145	movie	1		301	40.0	2.5	blank	1.0	215.44478297233582	2.5083720684051514
42	197.19910502433777	pulse	1	t		40.0	2.5	blank	1.0	217.03650999069214	
42	198.1157500743866	fix_post	2		12	40.0	2.5	blank	1.0	217.95315504074097	0.09986686706542969
43	198.21561694145203	fix_pre	0		120	41.0	2.5	/experiments/AOT/AOT_stimuli/rescaled_final/2145_fw.mp4	0.0	218.0530219078064	1.0000300407409668
43	198.79903602600098	pulse	0	t		41.0	2.5	/experiments/AOT/AOT_stimuli/rescaled_final/2145_fw.mp4	0.0	218.63644099235535	
43	199.215646982193	movie	1		246	41.0	2.5	/experiments/AOT/AOT_stimuli/rescaled_final/2145_fw.mp4	0.0	219.05305194854736	2.4995760917663574
43	200.3991539478302	pulse	1	t		41.0	2.5	/experiments/AOT/AOT_stimuli/rescaled_final/2145_fw.mp4	0.0	220.23655891418457	
43	201.71522307395935	fix_post	2		12	41.0	2.5	/experiments/AOT/AOT_stimuli/rescaled_final/2145_fw.mp4	0.0	221.55262804031372	0.09996294975280762
44	201.81518602371216	fix_pre	0		120	42.0	2.5	/experiments/AOT/AOT_stimuli/rescaled_final/1707_rv.mp4	0.0	221.65259099006653	1.000486135482788
44	201.99910497665405	pulse	0	t		42.0	2.5	/experiments/AOT/AOT_stimuli/rescaled_final/1707_rv.mp4	0.0	221.83650994300842	
44	202.81567215919495	movie	1		244	42.0	2.5	/experiments/AOT/AOT_stimuli/rescaled_final/1707_rv.mp4	0.0	222.65307712554932	2.4995009899139404
44	203.59899306297302	pulse	1	t		42.0	2.5	/experiments/AOT/AOT_stimuli/rescaled_final/1707_rv.mp4	0.0	223.4363980293274	
44	205.1973259449005	pulse	1	t		42.0	2.5	/experiments/AOT/AOT_stimuli/rescaled_final/1707_rv.mp4	0.0	225.03473091125488	
44	205.3151731491089	fix_post	2		12	42.0	2.5	/experiments/AOT/AOT_stimuli/rescaled_final/1707_rv.mp4	0.0	225.15257811546326	0.10035896301269531
45	205.41553211212158	fix_pre	0		120	43.0	2.5	/experiments/AOT/AOT_stimuli/rescaled_final/0418_fw.mp4	0.0	225.25293707847595	1.0000920295715332
45	206.41562414169312	movie	1		244	43.0	2.5	/experiments/AOT/AOT_stimuli/rescaled_final/0418_fw.mp4	0.0	226.25302910804749	2.4994819164276123
45	206.8003010749817	pulse	1	t		43.0	2.5	/experiments/AOT/AOT_stimuli/rescaled_final/0418_fw.mp4	0.0	226.63770604133606	
45	208.3990240097046	pulse	1	t		43.0	2.5	/experiments/AOT/AOT_stimuli/rescaled_final/0418_fw.mp4	0.0	228.23642897605896	
45	208.91510605812073	fix_post	2		12	43.0	2.5	/experiments/AOT/AOT_stimuli/rescaled_final/0418_fw.mp4	0.0	228.7525110244751	0.10042309761047363
46	209.0155291557312	fix_pre	0		119	44.0	2.5	/experiments/AOT/AOT_stimuli/rescaled_final/0957_fw.mp4	0.0	228.85293412208557	0.9916877746582031
46	209.9990210533142	pulse	0	t		44.0	2.5	/experiments/AOT/AOT_stimuli/rescaled_final/0957_fw.mp4	0.0	229.83642601966858	
46	210.0072169303894	movie	1		245	44.0	2.5	/experiments/AOT/AOT_stimuli/rescaled_final/0957_fw.mp4	0.0	229.84462189674377	2.5083611011505127
46	211.59854102134705	pulse	1	t		44.0	2.5	/experiments/AOT/AOT_stimuli/rescaled_final/0957_fw.mp4	0.0	231.43594598770142	
46	212.51557803153992	fix_post	2		12	44.0	2.5	/experiments/AOT/AOT_stimuli/rescaled_final/0957_fw.mp4	0.0	232.3529829978943	0.09995603561401367
47	212.61553406715393	fix_pre	0		120	45.0	2.5	/experiments/AOT/AOT_stimuli/rescaled_final/2154_fw.mp4	0.0	232.4529390335083	1.0000369548797607
47	213.19902300834656	pulse	0	t		45.0	2.5	/experiments/AOT/AOT_stimuli/rescaled_final/2154_fw.mp4	0.0	233.03642797470093	
47	213.6155710220337	movie	1		248	45.0	2.5	/experiments/AOT/AOT_stimuli/rescaled_final/2154_fw.mp4	0.0	233.45297598838806	2.4995219707489014
47	214.7990460395813	pulse	1	t		45.0	2.5	/experiments/AOT/AOT_stimuli/rescaled_final/2154_fw.mp4	0.0	234.63645100593567	
47	216.1150929927826	fix_post	2		12	45.0	2.5	/experiments/AOT/AOT_stimuli/rescaled_final/2154_fw.mp4	0.0	235.95249795913696	0.10042214393615723
48	216.21551513671875	fix_pre	0		120	46.0	2.5	/experiments/AOT/AOT_stimuli/rescaled_final/0707_rv.mp4	0.0	236.05292010307312	0.9999809265136719
48	216.39897108078003	pulse	0	t		46.0	2.5	/experiments/AOT/AOT_stimuli/rescaled_final/0707_rv.mp4	0.0	236.2363760471344	
48	217.21549606323242	movie	1		244	46.0	2.5	/experiments/AOT/AOT_stimuli/rescaled_final/0707_rv.mp4	0.0	237.0529010295868	2.4999918937683105
48	217.99900913238525	pulse	1	t		46.0	2.5	/experiments/AOT/AOT_stimuli/rescaled_final/0707_rv.mp4	0.0	237.83641409873962	
48	219.59742903709412	pulse	1	t		46.0	2.5	/experiments/AOT/AOT_stimuli/rescaled_final/0707_rv.mp4	0.0	239.4348340034485	
48	219.71548795700073	fix_post	2		12	46.0	2.5	/experiments/AOT/AOT_stimuli/rescaled_final/0707_rv.mp4	0.0	239.5528929233551	0.09999799728393555
49	219.81548595428467	fix_pre	0		120	47.0	2.5	blank	1.0	239.65289092063904	0.9996750354766846
49	220.81516098976135	movie	1		300	47.0	2.5	blank	1.0	240.65256595611572	2.5003721714019775
49	221.19896793365479	pulse	1	t		47.0	2.5	blank	1.0	241.03637290000916	
49	222.79896211624146	pulse	1	t		47.0	2.5	blank	1.0	242.63636708259583	
49	223.31553316116333	fix_post	2		12	47.0	2.5	blank	1.0	243.1529381275177	0.09997081756591797
50	223.41550397872925	fix_pre	0		119	48.0	2.5	/experiments/AOT/AOT_stimuli/rescaled_final/0801_rv.mp4	0.0	243.25290894508362	0.9915900230407715
50	224.39892101287842	pulse	0	t		48.0	2.5	/experiments/AOT/AOT_stimuli/rescaled_final/0801_rv.mp4	0.0	244.2363259792328	
50	224.40709400177002	movie	1		247	48.0	2.5	/experiments/AOT/AOT_stimuli/rescaled_final/0801_rv.mp4	0.0	244.2444989681244	2.5083701610565186
50	226.0000319480896	pulse	1	t		48.0	2.5	/experiments/AOT/AOT_stimuli/rescaled_final/0801_rv.mp4	0.0	245.83743691444397	
50	226.91546416282654	fix_post	2		12	48.0	2.5	/experiments/AOT/AOT_stimuli/rescaled_final/0801_rv.mp4	0.0	246.7528691291809	0.10003781318664551
51	227.01550197601318	fix_pre	0		120	49.0	2.5	/experiments/AOT/AOT_stimuli/rescaled_final/1464_fw.mp4	0.0	246.85290694236755	0.9999749660491943
51	227.59888195991516	pulse	0	t		49.0	2.5	/experiments/AOT/AOT_stimuli/rescaled_final/1464_fw.mp4	0.0	247.43628692626953	
51	228.01547694206238	movie	1		248	49.0	2.5	/experiments/AOT/AOT_stimuli/rescaled_final/1464_fw.mp4	0.0	247.85288190841675	2.4999661445617676
51	229.19891500473022	pulse	1	t		49.0	2.5	/experiments/AOT/AOT_stimuli/rescaled_final/1464_fw.mp4	0.0	249.0363199710846	
51	230.51544308662415	fix_post	2		12	49.0	2.5	/experiments/AOT/AOT_stimuli/rescaled_final/1464_fw.mp4	0.0	250.35284805297852	0.09998893737792969
52	230.61543202400208	fix_pre	0		120	50.0	2.5	/experiments/AOT/AOT_stimuli/rescaled_final/1072_fw.mp4	0.0	250.45283699035645	1.0000510215759277
52	230.79899716377258	pulse	0	t		50.0	2.5	/experiments/AOT/AOT_stimuli/rescaled_final/1072_fw.mp4	0.0	250.63640213012695	
52	231.615483045578	movie	1		243	50.0	2.5	/experiments/AOT/AOT_stimuli/rescaled_final/1072_fw.mp4	0.0	251.45288801193237	2.5000290870666504
52	232.39889216423035	pulse	1	t		50.0	2.5	/experiments/AOT/AOT_stimuli/rescaled_final/1072_fw.mp4	0.0	252.23629713058472	
52	233.99715995788574	pulse	1	t		50.0	2.5	/experiments/AOT/AOT_stimuli/rescaled_final/1072_fw.mp4	0.0	253.8345649242401	
52	234.11551213264465	fix_post	2		12	50.0	2.5	/experiments/AOT/AOT_stimuli/rescaled_final/1072_fw.mp4	0.0	253.95291709899902	0.09986090660095215
53	234.2153730392456	fix_pre	0		120	51.0	2.5	/experiments/AOT/AOT_stimuli/rescaled_final/0005_rv.mp4	0.0	254.05277800559998	1.0001089572906494
53	235.21548199653625	movie	1		243	51.0	2.5	/experiments/AOT/AOT_stimuli/rescaled_final/0005_rv.mp4	0.0	255.05288696289062	2.499974012374878
53	235.59858107566833	pulse	1	t		51.0	2.5	/experiments/AOT/AOT_stimuli/rescaled_final/0005_rv.mp4	0.0	255.4359860420227	
53	237.1988480091095	pulse	1	t		51.0	2.5	/experiments/AOT/AOT_stimuli/rescaled_final/0005_rv.mp4	0.0	257.03625297546387	
53	237.71545600891113	fix_post	2		12	51.0	2.5	/experiments/AOT/AOT_stimuli/rescaled_final/0005_rv.mp4	0.0	257.5528609752655	0.10005402565002441
54	237.81551003456116	fix_pre	0		119	52.0	2.5	/experiments/AOT/AOT_stimuli/rescaled_final/1370_fw.mp4	0.0	257.6529150009155	0.9915449619293213
54	238.79892706871033	pulse	0	t		52.0	2.5	/experiments/AOT/AOT_stimuli/rescaled_final/1370_fw.mp4	0.0	258.6363320350647	
54	238.80705499649048	movie	1		244	52.0	2.5	/experiments/AOT/AOT_stimuli/rescaled_final/1370_fw.mp4	0.0	258.64445996284485	2.5081191062927246
54	240.39821004867554	pulse	1	t		52.0	2.5	/experiments/AOT/AOT_stimuli/rescaled_final/1370_fw.mp4	0.0	260.2356150150299	
54	241.3151741027832	fix_post	2		12	52.0	2.5	/experiments/AOT/AOT_stimuli/rescaled_final/1370_fw.mp4	0.0	261.1525790691376	0.10004186630249023
55	241.4152159690857	fix_pre	0		120	53.0	2.5	/experiments/AOT/AOT_stimuli/rescaled_final/1025_rv.mp4	0.0	261.25262093544006	1.0001680850982666
55	241.9988341331482	pulse	0	t		53.0	2.5	/experiments/AOT/AOT_stimuli/rescaled_final/1025_rv.mp4	0.0	261.83623909950256	
55	242.41538405418396	movie	1		243	53.0	2.5	/experiments/AOT/AOT_stimuli/rescaled_final/1025_rv.mp4	0.0	262.25278902053833	2.499993085861206
55	243.5988941192627	pulse	1	t		53.0	2.5	/experiments/AOT/AOT_stimuli/rescaled_final/1025_rv.mp4	0.0	263.43629908561707	
55	244.91537714004517	fix_post	2		12	53.0	2.5	/experiments/AOT/AOT_stimuli/rescaled_final/1025_rv.mp4	0.0	264.75278210639954	0.0999908447265625
56	245.01536798477173	fix_pre	0		120	54.0	2.5	/experiments/AOT/AOT_stimuli/rescaled_final/0716_fw.mp4	0.0	264.8527729511261	1.0000700950622559
56	245.19889497756958	pulse	0	t		54.0	2.5	/experiments/AOT/AOT_stimuli/rescaled_final/0716_fw.mp4	0.0	265.03629994392395	
56	246.01543807983398	movie	1		244	54.0	2.5	/experiments/AOT/AOT_stimuli/rescaled_final/0716_fw.mp4	0.0	265.85284304618835	2.4995059967041016
56	246.79880714416504	pulse	1	t		54.0	2.5	/experiments/AOT/AOT_stimuli/rescaled_final/0716_fw.mp4	0.0	266.6362121105194	
56	248.39711499214172	pulse	1	t		54.0	2.5	/experiments/AOT/AOT_stimuli/rescaled_final/0716_fw.mp4	0.0	268.2345199584961	
56	248.5149440765381	fix_post	2		12	54.0	2.5	/experiments/AOT/AOT_stimuli/rescaled_final/0716_fw.mp4	0.0	268.35234904289246	0.10037088394165039
57	248.61531496047974	fix_pre	0		120	55.0	2.5	/experiments/AOT/AOT_stimuli/rescaled_final/1898_rv.mp4	0.0	268.4527199268341	1.0000371932983398
57	249.61535215377808	movie	1		246	55.0	2.5	/experiments/AOT/AOT_stimuli/rescaled_final/1898_rv.mp4	0.0	269.45275712013245	2.4999608993530273
57	249.99810600280762	pulse	1	t		55.0	2.5	/experiments/AOT/AOT_stimuli/rescaled_final/1898_rv.mp4	0.0	269.835510969162	
57	251.59889602661133	pulse	1	t		55.0	2.5	/experiments/AOT/AOT_stimuli/rescaled_final/1898_rv.mp4	0.0	271.4363009929657	
57	252.1153130531311	fix_post	2		12	55.0	2.5	/experiments/AOT/AOT_stimuli/rescaled_final/1898_rv.mp4	0.0	271.9527180194855	0.1000220775604248
58	252.21533513069153	fix_pre	0		119	56.0	2.5	blank	1.0	272.0527400970459	0.9917159080505371
58	253.19882011413574	pulse	0	t		56.0	2.5	blank	1.0	273.0362250804901	
58	253.20705103874207	movie	1		301	56.0	2.5	blank	1.0	273.04445600509644	2.507965087890625
58	254.79878902435303	pulse	1	t		56.0	2.5	blank	1.0	274.6361939907074	
58	255.7150161266327	fix_post	2		12	56.0	2.5	blank	1.0	275.55242109298706	0.10030698776245117
59	255.81532311439514	fix_pre	0		120	57.0	2.5	/experiments/AOT/AOT_stimuli/rescaled_final/0414_rv.mp4	0.0	275.6527280807495	0.9999778270721436
59	256.39884305000305	pulse	0	t		57.0	2.5	/experiments/AOT/AOT_stimuli/rescaled_final/0414_rv.mp4	0.0	276.2362480163574	
59	256.8153009414673	movie	1		243	57.0	2.5	/experiments/AOT/AOT_stimuli/rescaled_final/0414_rv.mp4	0.0	276.65270590782166	2.5000221729278564
59	257.9988341331482	pulse	1	t		57.0	2.5	/experiments/AOT/AOT_stimuli/rescaled_final/0414_rv.mp4	0.0	277.83623909950256	
59	259.31532311439514	fix_post	2		12	57.0	2.5	/experiments/AOT/AOT_stimuli/rescaled_final/0414_rv.mp4	0.0	279.1527280807495	0.09997296333312988
60	259.41529607772827	fix_pre	0		120	58.0	2.5	/experiments/AOT/AOT_stimuli/rescaled_final/0377_rv.mp4	0.0	279.25270104408264	0.9995839595794678
60	259.5987980365753	pulse	0	t		58.0	2.5	/experiments/AOT/AOT_stimuli/rescaled_final/0377_rv.mp4	0.0	279.4362030029297	
60	260.41488003730774	movie	1		244	58.0	2.5	/experiments/AOT/AOT_stimuli/rescaled_final/0377_rv.mp4	0.0	280.2522850036621	2.500472068786621
60	261.1987409591675	pulse	1	t		58.0	2.5	/experiments/AOT/AOT_stimuli/rescaled_final/0377_rv.mp4	0.0	281.03614592552185	
60	262.7974691390991	pulse	1	t		58.0	2.5	/experiments/AOT/AOT_stimuli/rescaled_final/0377_rv.mp4	0.0	282.6348741054535	
60	262.91535210609436	fix_post	2		12	58.0	2.5	/experiments/AOT/AOT_stimuli/rescaled_final/0377_rv.mp4	0.0	282.75275707244873	0.09989094734191895
61	263.0152430534363	fix_pre	0		120	59.0	2.5	/experiments/AOT/AOT_stimuli/rescaled_final/1622_fw.mp4	0.0	282.85264801979065	1.0001189708709717
61	264.01536202430725	movie	1		243	59.0	2.5	/experiments/AOT/AOT_stimuli/rescaled_final/1622_fw.mp4	0.0	283.8527669906616	2.4998910427093506
61	264.4000129699707	pulse	1	t		59.0	2.5	/experiments/AOT/AOT_stimuli/rescaled_final/1622_fw.mp4	0.0	284.2374179363251	
61	265.9988679885864	pulse	1	t		59.0	2.5	/experiments/AOT/AOT_stimuli/rescaled_final/1622_fw.mp4	0.0	285.8362729549408	
61	266.5152530670166	fix_post	2		12	59.0	2.5	/experiments/AOT/AOT_stimuli/rescaled_final/1622_fw.mp4	0.0	286.352658033371	0.10009908676147461
62	266.6153521537781	fix_pre	0		119	60.0	2.5	/experiments/AOT/AOT_stimuli/rescaled_final/1116_rv.mp4	0.0	286.45275712013245	0.9915738105773926
62	267.598680973053	pulse	0	t		60.0	2.5	/experiments/AOT/AOT_stimuli/rescaled_final/1116_rv.mp4	0.0	287.43608593940735	
62	267.60692596435547	movie	1		246	60.0	2.5	/experiments/AOT/AOT_stimuli/rescaled_final/1116_rv.mp4	0.0	287.44433093070984	2.5079171657562256
62	269.20001316070557	pulse	1	t		60.0	2.5	/experiments/AOT/AOT_stimuli/rescaled_final/1116_rv.mp4	0.0	289.03741812705994	
62	270.1148431301117	fix_post	2		12	60.0	2.5	/experiments/AOT/AOT_stimuli/rescaled_final/1116_rv.mp4	0.0	289.95224809646606	0.10040998458862305
63	270.2152531147003	fix_pre	0		120	61.0	2.5	/experiments/AOT/AOT_stimuli/rescaled_final/1661_fw.mp4	0.0	290.0526580810547	1.0000739097595215
63	270.79874300956726	pulse	0	t		61.0	2.5	/experiments/AOT/AOT_stimuli/rescaled_final/1661_fw.mp4	0.0	290.63614797592163	
63	271.21532702445984	movie	1		245	61.0	2.5	/experiments/AOT/AOT_stimuli/rescaled_final/1661_fw.mp4	0.0	291.0527319908142	2.500102996826172
63	272.39885115623474	pulse	1	t		61.0	2.5	/experiments/AOT/AOT_stimuli/rescaled_final/1661_fw.mp4	0.0	292.2362561225891	
63	273.715430021286	fix_post	2		12	61.0	2.5	/experiments/AOT/AOT_stimuli/rescaled_final/1661_fw.mp4	0.0	293.5528349876404	0.099761962890625
64	273.81519198417664	fix_pre	0		120	62.0	2.5	/experiments/AOT/AOT_stimuli/rescaled_final/0127_rv.mp4	0.0	293.652596950531	1.0000050067901611
64	273.99871611595154	pulse	0	t		62.0	2.5	/experiments/AOT/AOT_stimuli/rescaled_final/0127_rv.mp4	0.0	293.8361210823059	
64	274.8151969909668	movie	1		243	62.0	2.5	/experiments/AOT/AOT_stimuli/rescaled_final/0127_rv.mp4	0.0	294.65260195732117	2.4999570846557617
64	275.59873604774475	pulse	1	t		62.0	2.5	/experiments/AOT/AOT_stimuli/rescaled_final/0127_rv.mp4	0.0	295.4361410140991	
64	277.1970570087433	pulse	1	t		62.0	2.5	/experiments/AOT/AOT_stimuli/rescaled_final/0127_rv.mp4	0.0	297.03446197509766	
64	277.31515407562256	fix_post	2		12	62.0	2.5	/experiments/AOT/AOT_stimuli/rescaled_final/0127_rv.mp4	0.0	297.15255904197693	0.10012102127075195
65	277.4152750968933	fix_pre	0		120	63.0	2.5	blank	1.0	297.2526800632477	0.9999780654907227
65	278.41525316238403	movie	1		300	63.0	2.5	blank	1.0	298.2526581287384	2.5000078678131104
65	278.7987151145935	pulse	1	t		63.0	2.5	blank	1.0	298.6361200809479	
65	280.3987021446228	pulse	1	t		63.0	2.5	blank	1.0	300.2361071109772	
65	280.91526103019714	fix_post	2		12	63.0	2.5	blank	1.0	300.7526659965515	0.09997701644897461
66	281.0152380466461	fix_pre	0		119	64.0	2.5	/experiments/AOT/AOT_stimuli/rescaled_final/1176_fw.mp4	0.0	300.8526430130005	0.9916749000549316
66	281.99872398376465	pulse	0	t		64.0	2.5	/experiments/AOT/AOT_stimuli/rescaled_final/1176_fw.mp4	0.0	301.836128950119	
66	282.00691294670105	movie	1		244	64.0	2.5	/experiments/AOT/AOT_stimuli/rescaled_final/1176_fw.mp4	0.0	301.8443179130554	2.5082221031188965
66	283.59864497184753	pulse	1	t		64.0	2.5	/experiments/AOT/AOT_stimuli/rescaled_final/1176_fw.mp4	0.0	303.4360499382019	
66	284.51513504981995	fix_post	2		12	64.0	2.5	/experiments/AOT/AOT_stimuli/rescaled_final/1176_fw.mp4	0.0	304.3525400161743	0.1000370979309082
67	284.61517214775085	fix_pre	0		120	65.0	2.5	/experiments/AOT/AOT_stimuli/rescaled_final/1766_rv.mp4	0.0	304.4525771141052	1.0000028610229492
67	285.19867300987244	pulse	0	t		65.0	2.5	/experiments/AOT/AOT_stimuli/rescaled_final/1766_rv.mp4	0.0	305.0360779762268	
67	285.6151750087738	movie	1		244	65.0	2.5	/experiments/AOT/AOT_stimuli/rescaled_final/1766_rv.mp4	0.0	305.4525799751282	2.499596118927002
67	286.798779964447	pulse	1	t		65.0	2.5	/experiments/AOT/AOT_stimuli/rescaled_final/1766_rv.mp4	0.0	306.6361849308014	
67	288.1147711277008	fix_post	2		12	65.0	2.5	/experiments/AOT/AOT_stimuli/rescaled_final/1766_rv.mp4	0.0	307.9521760940552	0.10045194625854492
68	288.21522307395935	fix_pre	0		120	66.0	2.5	/experiments/AOT/AOT_stimuli/rescaled_final/0614_rv.mp4	0.0	308.0526280403137	0.9999849796295166
68	288.3986270427704	pulse	0	t		66.0	2.5	/experiments/AOT/AOT_stimuli/rescaled_final/0614_rv.mp4	0.0	308.23603200912476	
68	289.21520805358887	movie	1		244	66.0	2.5	/experiments/AOT/AOT_stimuli/rescaled_final/0614_rv.mp4	0.0	309.05261301994324	2.500001907348633
68	289.998615026474	pulse	1	t		66.0	2.5	/experiments/AOT/AOT_stimuli/rescaled_final/0614_rv.mp4	0.0	309.83601999282837	
68	291.597069978714	pulse	1	t		66.0	2.5	/experiments/AOT/AOT_stimuli/rescaled_final/0614_rv.mp4	0.0	311.43447494506836	
68	291.7152099609375	fix_post	2		12	66.0	2.5	/experiments/AOT/AOT_stimuli/rescaled_final/0614_rv.mp4	0.0	311.55261492729187	0.09993100166320801
69	291.8151409626007	fix_pre	0		120	67.0	2.5	/experiments/AOT/AOT_stimuli/rescaled_final/0270_rv.mp4	0.0	311.6525459289551	0.9996421337127686
69	292.8147830963135	movie	1		244	67.0	2.5	/experiments/AOT/AOT_stimuli/rescaled_final/0270_rv.mp4	0.0	312.65218806266785	2.499985933303833
69	293.1981120109558	pulse	1	t		67.0	2.5	/experiments/AOT/AOT_stimuli/rescaled_final/0270_rv.mp4	0.0	313.0355169773102	
69	294.7985301017761	pulse	1	t		67.0	2.5	/experiments/AOT/AOT_stimuli/rescaled_final/0270_rv.mp4	0.0	314.6359350681305	
69	295.3147690296173	fix_post	2		12	67.0	2.5	/experiments/AOT/AOT_stimuli/rescaled_final/0270_rv.mp4	0.0	315.1521739959717	0.0999290943145752
70	295.4146981239319	fix_pre	0		119	68.0	2.5	blank	1.0	315.25210309028625	0.9917519092559814
70	296.3989119529724	pulse	0	t		68.0	2.5	blank	1.0	316.2363169193268	
70	296.40645003318787	movie	1		301	68.0	2.5	blank	1.0	316.24385499954224	2.5087239742279053
70	297.99842500686646	pulse	1	t		68.0	2.5	blank	1.0	317.8358299732208	
70	298.91517400741577	fix_post	2		12	68.0	2.5	blank	1.0	318.75257897377014	0.09998893737792969
71	299.0151629447937	fix_pre	0		120	69.0	2.5	/experiments/AOT/AOT_stimuli/rescaled_final/1213_rv.mp4	0.0	318.85256791114807	0.9999949932098389
71	299.5985550880432	pulse	0	t		69.0	2.5	/experiments/AOT/AOT_stimuli/rescaled_final/1213_rv.mp4	0.0	319.4359600543976	
71	300.01515793800354	movie	1		245	69.0	2.5	/experiments/AOT/AOT_stimuli/rescaled_final/1213_rv.mp4	0.0	319.8525629043579	2.499547004699707
71	301.1985559463501	pulse	1	t		69.0	2.5	/experiments/AOT/AOT_stimuli/rescaled_final/1213_rv.mp4	0.0	321.03596091270447	
71	302.51470494270325	fix_post	2		12	69.0	2.5	/experiments/AOT/AOT_stimuli/rescaled_final/1213_rv.mp4	0.0	322.3521099090576	0.10039710998535156
72	302.6151020526886	fix_pre	0		120	70.0	2.5	/experiments/AOT/AOT_stimuli/rescaled_final/1240_rv.mp4	0.0	322.45250701904297	1.0000059604644775
72	302.7985489368439	pulse	0	t		70.0	2.5	/experiments/AOT/AOT_stimuli/rescaled_final/1240_rv.mp4	0.0	322.63595390319824	
72	303.6151080131531	movie	1		246	70.0	2.5	/experiments/AOT/AOT_stimuli/rescaled_final/1240_rv.mp4	0.0	323.45251297950745	2.4999821186065674
72	304.3984811306	pulse	1	t		70.0	2.5	/experiments/AOT/AOT_stimuli/rescaled_final/1240_rv.mp4	0.0	324.23588609695435	
72	305.9970009326935	pulse	1	t		70.0	2.5	/experiments/AOT/AOT_stimuli/rescaled_final/1240_rv.mp4	0.0	325.83440589904785	
72	306.11509013175964	fix_post	2		12	70.0	2.5	/experiments/AOT/AOT_stimuli/rescaled_final/1240_rv.mp4	0.0	325.952495098114	0.09996390342712402
73	306.21505403518677	fix_pre	0		120	71.0	2.5	/experiments/AOT/AOT_stimuli/rescaled_final/0716_fw.mp4	0.0	326.05245900154114	0.99959397315979
73	307.21464800834656	movie	1		243	71.0	2.5	/experiments/AOT/AOT_stimuli/rescaled_final/0716_fw.mp4	0.0	327.0520529747009	2.500396966934204
73	307.5980851650238	pulse	1	t		71.0	2.5	/experiments/AOT/AOT_stimuli/rescaled_final/0716_fw.mp4	0.0	327.4354901313782	
73	309.1984360218048	pulse	1	t		71.0	2.5	/experiments/AOT/AOT_stimuli/rescaled_final/0716_fw.mp4	0.0	329.0358409881592	
73	309.71504497528076	fix_post	2		12	71.0	2.5	/experiments/AOT/AOT_stimuli/rescaled_final/0716_fw.mp4	0.0	329.55244994163513	0.10003209114074707
74	309.8150770664215	fix_pre	0		119	72.0	2.5	/experiments/AOT/AOT_stimuli/rescaled_final/0735_rv.mp4	0.0	329.6524820327759	0.9916749000549316
74	310.798476934433	pulse	0	t		72.0	2.5	/experiments/AOT/AOT_stimuli/rescaled_final/0735_rv.mp4	0.0	330.63588190078735	
74	310.80675196647644	movie	1		247	72.0	2.5	/experiments/AOT/AOT_stimuli/rescaled_final/0735_rv.mp4	0.0	330.6441569328308	2.5082550048828125
74	312.39807200431824	pulse	1	t		72.0	2.5	/experiments/AOT/AOT_stimuli/rescaled_final/0735_rv.mp4	0.0	332.2354769706726	
74	313.31500697135925	fix_post	2		12	72.0	2.5	/experiments/AOT/AOT_stimuli/rescaled_final/0735_rv.mp4	0.0	333.1524119377136	0.10004806518554688
75	313.4150550365448	fix_pre	0		120	73.0	2.5	/experiments/AOT/AOT_stimuli/rescaled_final/0005_rv.mp4	0.0	333.25246000289917	1.0000231266021729
75	313.9998080730438	pulse	0	t		73.0	2.5	/experiments/AOT/AOT_stimuli/rescaled_final/0005_rv.mp4	0.0	333.8372130393982	
75	314.415078163147	movie	1		245	73.0	2.5	/experiments/AOT/AOT_stimuli/rescaled_final/0005_rv.mp4	0.0	334.25248312950134	2.4995689392089844
75	315.5985851287842	pulse	1	t		73.0	2.5	/experiments/AOT/AOT_stimuli/rescaled_final/0005_rv.mp4	0.0	335.43599009513855	
75	316.91464710235596	fix_post	2		12	73.0	2.5	/experiments/AOT/AOT_stimuli/rescaled_final/0005_rv.mp4	0.0	336.7520520687103	0.10035300254821777
76	317.0150001049042	fix_pre	0		120	74.0	2.5	/experiments/AOT/AOT_stimuli/rescaled_final/1760_rv.mp4	0.0	336.85240507125854	1.0000898838043213
76	317.1985549926758	pulse	0	t		74.0	2.5	/experiments/AOT/AOT_stimuli/rescaled_final/1760_rv.mp4	0.0	337.03595995903015	
76	318.0150899887085	movie	1		246	74.0	2.5	/experiments/AOT/AOT_stimuli/rescaled_final/1760_rv.mp4	0.0	337.85249495506287	2.4995131492614746
76	318.79844212532043	pulse	1	t		74.0	2.5	/experiments/AOT/AOT_stimuli/rescaled_final/1760_rv.mp4	0.0	338.6358470916748	
76	320.3982720375061	pulse	1	t		74.0	2.5	/experiments/AOT/AOT_stimuli/rescaled_final/1760_rv.mp4	0.0	340.2356770038605	
76	320.51460313796997	fix_post	2		12	74.0	2.5	/experiments/AOT/AOT_stimuli/rescaled_final/1760_rv.mp4	0.0	340.35200810432434	0.10034799575805664
77	320.614951133728	fix_pre	0		120	75.0	2.5	/experiments/AOT/AOT_stimuli/rescaled_final/1025_fw.mp4	0.0	340.4523561000824	1.0000989437103271
77	321.61505007743835	movie	1		245	75.0	2.5	/experiments/AOT/AOT_stimuli/rescaled_final/1025_fw.mp4	0.0	341.4524550437927	2.499908924102783
77	321.99811005592346	pulse	1	t		75.0	2.5	/experiments/AOT/AOT_stimuli/rescaled_final/1025_fw.mp4	0.0	341.83551502227783	
77	323.5984880924225	pulse	1	t		75.0	2.5	/experiments/AOT/AOT_stimuli/rescaled_final/1025_fw.mp4	0.0	343.43589305877686	
77	324.11495900154114	fix_post	2		12	75.0	2.5	/experiments/AOT/AOT_stimuli/rescaled_final/1025_fw.mp4	0.0	343.9523639678955	0.10007715225219727
78	324.21503615379333	fix_pre	0		119	76.0	2.5	blank	1.0	344.0524411201477	0.9915688037872314
78	325.1983721256256	pulse	0	t		76.0	2.5	blank	1.0	345.03577709198	
78	325.20660495758057	movie	1		301	76.0	2.5	blank	1.0	345.04400992393494	2.5083401203155518
78	326.7984621524811	pulse	1	t		76.0	2.5	blank	1.0	346.63586711883545	
78	327.7149450778961	fix_post	2		12	76.0	2.5	blank	1.0	347.5523500442505	0.0999910831451416
79	327.81493616104126	fix_pre	0		120	77.0	2.5	/experiments/AOT/AOT_stimuli/rescaled_final/1714_fw.mp4	0.0	347.65234112739563	1.0000848770141602
79	328.3985390663147	pulse	0	t		77.0	2.5	/experiments/AOT/AOT_stimuli/rescaled_final/1714_fw.mp4	0.0	348.23594403266907	
79	328.8150210380554	movie	1		241	77.0	2.5	/experiments/AOT/AOT_stimuli/rescaled_final/1714_fw.mp4	0.0	348.6524260044098	2.499936103820801
79	329.99853515625	pulse	1	t		77.0	2.5	/experiments/AOT/AOT_stimuli/rescaled_final/1714_fw.mp4	0.0	349.83594012260437	
79	331.3149571418762	fix_post	2		12	77.0	2.5	/experiments/AOT/AOT_stimuli/rescaled_final/1714_fw.mp4	0.0	351.1523621082306	0.10002279281616211
80	331.4149799346924	fix_pre	0		120	78.0	2.5	/experiments/AOT/AOT_stimuli/rescaled_final/0082_fw.mp4	0.0	351.25238490104675	0.9999611377716064
80	331.5984480381012	pulse	0	t		78.0	2.5	/experiments/AOT/AOT_stimuli/rescaled_final/0082_fw.mp4	0.0	351.43585300445557	
80	332.414941072464	movie	1		245	78.0	2.5	/experiments/AOT/AOT_stimuli/rescaled_final/0082_fw.mp4	0.0	352.25234603881836	2.500062942504883
80	333.1984691619873	pulse	1	t		78.0	2.5	/experiments/AOT/AOT_stimuli/rescaled_final/0082_fw.mp4	0.0	353.0358741283417	
80	334.7969410419464	pulse	1	t		78.0	2.5	/experiments/AOT/AOT_stimuli/rescaled_final/0082_fw.mp4	0.0	354.6343460083008	
80	334.9150040149689	fix_post	2		12	78.0	2.5	/experiments/AOT/AOT_stimuli/rescaled_final/0082_fw.mp4	0.0	354.75240898132324	0.0999751091003418
81	335.0149791240692	fix_pre	0		120	79.0	2.5	/experiments/AOT/AOT_stimuli/rescaled_final/0194_fw.mp4	0.0	354.8523840904236	0.9999058246612549
81	336.01488494873047	movie	1		248	79.0	2.5	/experiments/AOT/AOT_stimuli/rescaled_final/0194_fw.mp4	0.0	355.85228991508484	2.50003719329834
81	336.39941596984863	pulse	1	t		79.0	2.5	/experiments/AOT/AOT_stimuli/rescaled_final/0194_fw.mp4	0.0	356.236820936203	
81	337.9983911514282	pulse	1	t		79.0	2.5	/experiments/AOT/AOT_stimuli/rescaled_final/0194_fw.mp4	0.0	357.8357961177826	
81	338.5149221420288	fix_post	2		12	79.0	2.5	/experiments/AOT/AOT_stimuli/rescaled_final/0194_fw.mp4	0.0	358.3523271083832	0.09999990463256836
82	338.6149220466614	fix_pre	0		119	80.0	2.5	/experiments/AOT/AOT_stimuli/rescaled_final/0143_fw.mp4	0.0	358.45232701301575	0.991671085357666
82	339.5983669757843	pulse	0	t		80.0	2.5	/experiments/AOT/AOT_stimuli/rescaled_final/0143_fw.mp4	0.0	359.4357719421387	
82	339.60659313201904	movie	1		246	80.0	2.5	/experiments/AOT/AOT_stimuli/rescaled_final/0143_fw.mp4	0.0	359.4439980983734	2.5083398818969727
82	341.1980781555176	pulse	1	t		80.0	2.5	/experiments/AOT/AOT_stimuli/rescaled_final/0143_fw.mp4	0.0	361.03548312187195	
82	342.114933013916	fix_post	2		12	80.0	2.5	/experiments/AOT/AOT_stimuli/rescaled_final/0143_fw.mp4	0.0	361.9523379802704	0.09993410110473633
83	342.21486711502075	fix_pre	0		120	81.0	2.5	/experiments/AOT/AOT_stimuli/rescaled_final/0032_fw.mp4	0.0	362.0522720813751	0.9996359348297119
83	342.7983491420746	pulse	0	t		81.0	2.5	/experiments/AOT/AOT_stimuli/rescaled_final/0032_fw.mp4	0.0	362.63575410842896	
83	343.21450304985046	movie	1		245	81.0	2.5	/experiments/AOT/AOT_stimuli/rescaled_final/0032_fw.mp4	0.0	363.05190801620483	2.500412940979004
83	344.3984200954437	pulse	1	t		81.0	2.5	/experiments/AOT/AOT_stimuli/rescaled_final/0032_fw.mp4	0.0	364.2358250617981	
83	345.71491599082947	fix_post	2		12	81.0	2.5	/experiments/AOT/AOT_stimuli/rescaled_final/0032_fw.mp4	0.0	365.55232095718384	0.09961605072021484
84	345.8145320415497	fix_pre	0		120	82.0	2.5	/experiments/AOT/AOT_stimuli/rescaled_final/0797_rv.mp4	0.0	365.65193700790405	1.0003299713134766
84	345.99840211868286	pulse	0	t		82.0	2.5	/experiments/AOT/AOT_stimuli/rescaled_final/0797_rv.mp4	0.0	365.83580708503723	
84	346.81486201286316	movie	1		244	82.0	2.5	/experiments/AOT/AOT_stimuli/rescaled_final/0797_rv.mp4	0.0	366.65226697921753	2.500033140182495
84	347.59827494621277	pulse	1	t		82.0	2.5	/experiments/AOT/AOT_stimuli/rescaled_final/0797_rv.mp4	0.0	367.43567991256714	
84	349.19685101509094	pulse	1	t		82.0	2.5	/experiments/AOT/AOT_stimuli/rescaled_final/0797_rv.mp4	0.0	369.0342559814453	
84	349.31489515304565	fix_post	2		12	82.0	2.5	/experiments/AOT/AOT_stimuli/rescaled_final/0797_rv.mp4	0.0	369.1523001194	0.10008001327514648
85	349.4149751663208	fix_pre	0		120	83.0	2.5	blank	1.0	369.25238013267517	0.9999918937683105
85	350.4149670600891	movie	1		300	83.0	2.5	blank	1.0	370.2523720264435	2.4996368885040283
85	350.79843497276306	pulse	1	t		83.0	2.5	blank	1.0	370.63583993911743	
85	352.3979239463806	pulse	1	t		83.0	2.5	blank	1.0	372.235328912735	
85	352.91460394859314	fix_post	2		12	83.0	2.5	blank	1.0	372.7520089149475	0.1004631519317627
87	353.0150671005249	stim	0		1716					372.8524720668793	14.299990892410278
87	353.99824810028076	pulse	0	t						373.83565306663513	
87	355.598384141922	pulse	0	t						375.43578910827637	
87	357.198282957077	pulse	0	t						377.0356879234314	
87	358.7983410358429	pulse	0	t						378.63574600219727	
87	360.39829301834106	pulse	0	t						380.23569798469543	
87	361.9982979297638	pulse	0	t						381.83570289611816	
87	363.5982241630554	pulse	0	t						383.4356291294098	
87	365.1981911659241	pulse	0	t						385.03559613227844	
87	366.7981879711151	pulse	0	t						386.6355929374695	
