trial_nr	onset	event_type	phase	response	nr_frames	movie_index	movie_duration	movie_file	blank	onset_abs	duration
0	0.15779805183410645	stim	0		122					22.489058256149292	1.017071008682251
0	1.1669580936431885	response	0	space						23.498218297958374	
1	1.1748690605163574	stim	0		2442					23.506129264831543	20.349892139434814
1	21.520323038101196	pulse	0	t						43.85158324241638	
1	21.524761199951172	stim	1		1717					43.85602140426636	14.308241844177246
1	23.116590976715088	pulse	1	t						45.44785118103027	
1	24.716570138931274	pulse	1	t						47.04783034324646	
1	26.316519021987915	pulse	1	t						48.6477792263031	
1	27.916558027267456	pulse	1	t						50.24781823158264	
1	29.51654314994812	pulse	1	t						51.847803354263306	
1	31.11652708053589	pulse	1	t						53.447787284851074	
1	32.716517210006714	pulse	1	t						55.0477774143219	
1	34.31649303436279	pulse	1	t						56.64775323867798	
2	35.83300304412842	fix_pre	0		11	0.0	2.5	/experiments/AOT/AOT_stimuli/rescaled_final/0067_rv.mp4	0.0	58.1642632484436	0.09165501594543457
2	35.91652202606201	pulse	0	t		0.0	2.5	/experiments/AOT/AOT_stimuli/rescaled_final/0067_rv.mp4	0.0	58.2477822303772	
2	35.92465806007385	movie	1		246	0.0	2.5	/experiments/AOT/AOT_stimuli/rescaled_final/0067_rv.mp4	0.0	58.25591826438904	2.5083229541778564
2	37.516335010528564	pulse	1	t		0.0	2.5	/experiments/AOT/AOT_stimuli/rescaled_final/0067_rv.mp4	0.0	59.84759521484375	
2	38.43298101425171	fix_post	2		12	0.0	2.5	/experiments/AOT/AOT_stimuli/rescaled_final/0067_rv.mp4	0.0	60.764241218566895	0.10007309913635254
3	38.53305411338806	fix_pre	0		120	1.0	2.5	/experiments/AOT/AOT_stimuli/rescaled_final/0040_fw.mp4	0.0	60.86431431770325	0.9999198913574219
3	39.116539001464844	pulse	0	t		1.0	2.5	/experiments/AOT/AOT_stimuli/rescaled_final/0040_fw.mp4	0.0	61.44779920578003	
3	39.53297400474548	movie	1		245	1.0	2.5	/experiments/AOT/AOT_stimuli/rescaled_final/0040_fw.mp4	0.0	61.86423420906067	2.4999890327453613
3	40.71652412414551	pulse	1	t		1.0	2.5	/experiments/AOT/AOT_stimuli/rescaled_final/0040_fw.mp4	0.0	63.04778432846069	
3	42.032963037490845	fix_post	2		12	1.0	2.5	/experiments/AOT/AOT_stimuli/rescaled_final/0040_fw.mp4	0.0	64.36422324180603	0.1000370979309082
4	42.13300013542175	fix_pre	0		120	2.0	2.5	/experiments/AOT/AOT_stimuli/rescaled_final/1255_fw.mp4	0.0	64.46426033973694	1.0000309944152832
4	42.316506147384644	pulse	0	t		2.0	2.5	/experiments/AOT/AOT_stimuli/rescaled_final/1255_fw.mp4	0.0	64.64776635169983	
4	43.133031129837036	movie	1		242	2.0	2.5	/experiments/AOT/AOT_stimuli/rescaled_final/1255_fw.mp4	0.0	65.46429133415222	2.499598979949951
4	43.91659998893738	pulse	1	t		2.0	2.5	/experiments/AOT/AOT_stimuli/rescaled_final/1255_fw.mp4	0.0	66.24786019325256	
4	45.51476001739502	pulse	1	t		2.0	2.5	/experiments/AOT/AOT_stimuli/rescaled_final/1255_fw.mp4	0.0	67.8460202217102	
4	45.63263010978699	fix_post	2		12	2.0	2.5	/experiments/AOT/AOT_stimuli/rescaled_final/1255_fw.mp4	0.0	67.96389031410217	0.10039305686950684
5	45.733023166656494	fix_pre	0		120	3.0	2.5	/experiments/AOT/AOT_stimuli/rescaled_final/1518_fw.mp4	0.0	68.06428337097168	0.9995338916778564
5	46.73255705833435	movie	1		242	3.0	2.5	/experiments/AOT/AOT_stimuli/rescaled_final/1518_fw.mp4	0.0	69.06381726264954	2.5008609294891357
5	47.11597418785095	pulse	1	t		3.0	2.5	/experiments/AOT/AOT_stimuli/rescaled_final/1518_fw.mp4	0.0	69.44723439216614	
5	48.71644401550293	pulse	1	t		3.0	2.5	/experiments/AOT/AOT_stimuli/rescaled_final/1518_fw.mp4	0.0	71.04770421981812	
5	49.233417987823486	fix_post	2		12	3.0	2.5	/experiments/AOT/AOT_stimuli/rescaled_final/1518_fw.mp4	0.0	71.56467819213867	0.09961318969726562
6	49.33303117752075	fix_pre	0		119	4.0	2.5	/experiments/AOT/AOT_stimuli/rescaled_final/1180_rv.mp4	0.0	71.66429138183594	0.9915950298309326
6	50.31647706031799	pulse	0	t		4.0	2.5	/experiments/AOT/AOT_stimuli/rescaled_final/1180_rv.mp4	0.0	72.64773726463318	
6	50.324626207351685	movie	1		244	4.0	2.5	/experiments/AOT/AOT_stimuli/rescaled_final/1180_rv.mp4	0.0	72.65588641166687	2.5082738399505615
6	51.916691064834595	pulse	1	t		4.0	2.5	/experiments/AOT/AOT_stimuli/rescaled_final/1180_rv.mp4	0.0	74.24795126914978	
6	52.832900047302246	fix_post	2		12	4.0	2.5	/experiments/AOT/AOT_stimuli/rescaled_final/1180_rv.mp4	0.0	75.16416025161743	0.10012507438659668
7	52.93302512168884	fix_pre	0		120	5.0	2.5	/experiments/AOT/AOT_stimuli/rescaled_final/0370_fw.mp4	0.0	75.26428532600403	0.9999239444732666
7	53.516409158706665	pulse	0	t		5.0	2.5	/experiments/AOT/AOT_stimuli/rescaled_final/0370_fw.mp4	0.0	75.84766936302185	
7	53.93294906616211	movie	1		244	5.0	2.5	/experiments/AOT/AOT_stimuli/rescaled_final/0370_fw.mp4	0.0	76.2642092704773	2.5000340938568115
7	55.11658811569214	pulse	1	t		5.0	2.5	/experiments/AOT/AOT_stimuli/rescaled_final/0370_fw.mp4	0.0	77.44784832000732	
7	56.43298316001892	fix_post	2		12	5.0	2.5	/experiments/AOT/AOT_stimuli/rescaled_final/0370_fw.mp4	0.0	78.7642433643341	0.09994101524353027
8	56.53292417526245	fix_pre	0		120	6.0	2.5	blank	1.0	78.86418437957764	0.9999909400939941
8	56.716533184051514	pulse	0	t		6.0	2.5	blank	1.0	79.0477933883667	
8	57.532915115356445	movie	1		300	6.0	2.5	blank	1.0	79.86417531967163	2.499742031097412
8	58.31600499153137	pulse	1	t		6.0	2.5	blank	1.0	80.64726519584656	
8	59.91607713699341	pulse	1	t		6.0	2.5	blank	1.0	82.2473373413086	
8	60.03265714645386	fix_post	2		12	6.0	2.5	blank	1.0	82.36391735076904	0.10008597373962402
9	60.13274312019348	fix_pre	0		120	7.0	2.5	/experiments/AOT/AOT_stimuli/rescaled_final/0240_rv.mp4	0.0	82.46400332450867	1.0004489421844482
9	61.13319206237793	movie	1		244	7.0	2.5	/experiments/AOT/AOT_stimuli/rescaled_final/0240_rv.mp4	0.0	83.46445226669312	2.499751091003418
9	61.51638197898865	pulse	1	t		7.0	2.5	/experiments/AOT/AOT_stimuli/rescaled_final/0240_rv.mp4	0.0	83.84764218330383	
9	63.116260051727295	pulse	1	t		7.0	2.5	/experiments/AOT/AOT_stimuli/rescaled_final/0240_rv.mp4	0.0	85.44752025604248	
9	63.63294315338135	fix_post	2		12	7.0	2.5	/experiments/AOT/AOT_stimuli/rescaled_final/0240_rv.mp4	0.0	85.96420335769653	0.09999990463256836
10	63.732943058013916	fix_pre	0		119	8.0	2.5	/experiments/AOT/AOT_stimuli/rescaled_final/0127_fw.mp4	0.0	86.0642032623291	0.9917049407958984
10	64.71636319160461	pulse	0	t		8.0	2.5	/experiments/AOT/AOT_stimuli/rescaled_final/0127_fw.mp4	0.0	87.0476233959198	
10	64.72464799880981	movie	1		246	8.0	2.5	/experiments/AOT/AOT_stimuli/rescaled_final/0127_fw.mp4	0.0	87.055908203125	2.508225202560425
10	66.31759405136108	pulse	1	t		8.0	2.5	/experiments/AOT/AOT_stimuli/rescaled_final/0127_fw.mp4	0.0	88.64885425567627	
10	67.23287320137024	fix_post	2		12	8.0	2.5	/experiments/AOT/AOT_stimuli/rescaled_final/0127_fw.mp4	0.0	89.56413340568542	0.0999598503112793
11	67.33283305168152	fix_pre	0		120	9.0	2.5	/experiments/AOT/AOT_stimuli/rescaled_final/2083_rv.mp4	0.0	89.6640932559967	1.0001230239868164
11	67.91632509231567	pulse	0	t		9.0	2.5	/experiments/AOT/AOT_stimuli/rescaled_final/2083_rv.mp4	0.0	90.24758529663086	
11	68.33295607566833	movie	1		243	9.0	2.5	/experiments/AOT/AOT_stimuli/rescaled_final/2083_rv.mp4	0.0	90.66421627998352	2.499882936477661
11	69.51635909080505	pulse	1	t		9.0	2.5	/experiments/AOT/AOT_stimuli/rescaled_final/2083_rv.mp4	0.0	91.84761929512024	
11	70.832839012146	fix_post	2		12	9.0	2.5	/experiments/AOT/AOT_stimuli/rescaled_final/2083_rv.mp4	0.0	93.16409921646118	0.10004115104675293
12	70.93288016319275	fix_pre	0		120	10.0	2.5	/experiments/AOT/AOT_stimuli/rescaled_final/1538_rv.mp4	0.0	93.26414036750793	1.000053882598877
12	71.11631917953491	pulse	0	t		10.0	2.5	/experiments/AOT/AOT_stimuli/rescaled_final/1538_rv.mp4	0.0	93.4475793838501	
12	71.93293404579163	movie	1		243	10.0	2.5	/experiments/AOT/AOT_stimuli/rescaled_final/1538_rv.mp4	0.0	94.26419425010681	2.499459981918335
12	72.71630311012268	pulse	1	t		10.0	2.5	/experiments/AOT/AOT_stimuli/rescaled_final/1538_rv.mp4	0.0	95.04756331443787	
12	74.31477117538452	pulse	1	t		10.0	2.5	/experiments/AOT/AOT_stimuli/rescaled_final/1538_rv.mp4	0.0	96.6460313796997	
12	74.43239402770996	fix_post	2		12	10.0	2.5	/experiments/AOT/AOT_stimuli/rescaled_final/1538_rv.mp4	0.0	96.76365423202515	0.10042905807495117
13	74.53282308578491	fix_pre	0		120	11.0	2.5	/experiments/AOT/AOT_stimuli/rescaled_final/1178_fw.mp4	0.0	96.8640832901001	0.9996790885925293
13	75.53250217437744	movie	1		245	11.0	2.5	/experiments/AOT/AOT_stimuli/rescaled_final/1178_fw.mp4	0.0	97.86376237869263	2.5003199577331543
13	75.91637516021729	pulse	1	t		11.0	2.5	/experiments/AOT/AOT_stimuli/rescaled_final/1178_fw.mp4	0.0	98.24763536453247	
13	77.51626920700073	pulse	1	t		11.0	2.5	/experiments/AOT/AOT_stimuli/rescaled_final/1178_fw.mp4	0.0	99.84752941131592	
13	78.0328221321106	fix_post	2		12	11.0	2.5	/experiments/AOT/AOT_stimuli/rescaled_final/1178_fw.mp4	0.0	100.36408233642578	0.10001993179321289
14	78.13284206390381	fix_pre	0		119	12.0	2.5	blank	1.0	100.464102268219	0.9915850162506104
14	79.11626815795898	pulse	0	t		12.0	2.5	blank	1.0	101.44752836227417	
14	79.12442708015442	movie	1		301	12.0	2.5	blank	1.0	101.4556872844696	2.5083820819854736
14	80.71623516082764	pulse	1	t		12.0	2.5	blank	1.0	103.04749536514282	
14	81.63280916213989	fix_post	2		12	12.0	2.5	blank	1.0	103.96406936645508	0.0999908447265625
15	81.73280000686646	fix_pre	0		120	13.0	2.5	/experiments/AOT/AOT_stimuli/rescaled_final/1525_rv.mp4	0.0	104.06406021118164	0.9995889663696289
15	82.31626105308533	pulse	0	t		13.0	2.5	/experiments/AOT/AOT_stimuli/rescaled_final/1525_rv.mp4	0.0	104.64752125740051	
15	82.73238897323608	movie	1		245	13.0	2.5	/experiments/AOT/AOT_stimuli/rescaled_final/1525_rv.mp4	0.0	105.06364917755127	2.5003252029418945
15	83.91641616821289	pulse	1	t		13.0	2.5	/experiments/AOT/AOT_stimuli/rescaled_final/1525_rv.mp4	0.0	106.24767637252808	
15	85.23271417617798	fix_post	2		12	13.0	2.5	/experiments/AOT/AOT_stimuli/rescaled_final/1525_rv.mp4	0.0	107.56397438049316	0.10004591941833496
16	85.33276009559631	fix_pre	0		120	14.0	2.5	/experiments/AOT/AOT_stimuli/rescaled_final/1315_rv.mp4	0.0	107.6640202999115	0.9999771118164062
16	85.51621413230896	pulse	0	t		14.0	2.5	/experiments/AOT/AOT_stimuli/rescaled_final/1315_rv.mp4	0.0	107.84747433662415	
16	86.33273720741272	movie	1		243	14.0	2.5	/experiments/AOT/AOT_stimuli/rescaled_final/1315_rv.mp4	0.0	108.6639974117279	2.4995768070220947
16	87.11619520187378	pulse	1	t		14.0	2.5	/experiments/AOT/AOT_stimuli/rescaled_final/1315_rv.mp4	0.0	109.44745540618896	
16	88.71504807472229	pulse	1	t		14.0	2.5	/experiments/AOT/AOT_stimuli/rescaled_final/1315_rv.mp4	0.0	111.04630827903748	
16	88.83231401443481	fix_post	2		12	14.0	2.5	/experiments/AOT/AOT_stimuli/rescaled_final/1315_rv.mp4	0.0	111.16357421875	0.10042595863342285
17	88.93273997306824	fix_pre	0		120	15.0	2.5	/experiments/AOT/AOT_stimuli/rescaled_final/0275_rv.mp4	0.0	111.26400017738342	1.0000050067901611
17	89.9327449798584	movie	1		243	15.0	2.5	/experiments/AOT/AOT_stimuli/rescaled_final/0275_rv.mp4	0.0	112.26400518417358	2.4995241165161133
17	90.31740403175354	pulse	1	t		15.0	2.5	/experiments/AOT/AOT_stimuli/rescaled_final/0275_rv.mp4	0.0	112.64866423606873	
17	91.91625905036926	pulse	1	t		15.0	2.5	/experiments/AOT/AOT_stimuli/rescaled_final/0275_rv.mp4	0.0	114.24751925468445	
17	92.43226909637451	fix_post	2		12	15.0	2.5	/experiments/AOT/AOT_stimuli/rescaled_final/0275_rv.mp4	0.0	114.7635293006897	0.10052990913391113
18	92.53279900550842	fix_pre	0		119	16.0	2.5	/experiments/AOT/AOT_stimuli/rescaled_final/0690_rv.mp4	0.0	114.86405920982361	0.9915711879730225
18	93.51622700691223	pulse	0	t		16.0	2.5	/experiments/AOT/AOT_stimuli/rescaled_final/0690_rv.mp4	0.0	115.84748721122742	
18	93.52437019348145	movie	1		245	16.0	2.5	/experiments/AOT/AOT_stimuli/rescaled_final/0690_rv.mp4	0.0	115.85563039779663	2.5084869861602783
18	95.11587405204773	pulse	1	t		16.0	2.5	/experiments/AOT/AOT_stimuli/rescaled_final/0690_rv.mp4	0.0	117.44713425636292	
18	96.03285717964172	fix_post	2		12	16.0	2.5	/experiments/AOT/AOT_stimuli/rescaled_final/0690_rv.mp4	0.0	118.36411738395691	0.09988284111022949
19	96.13274002075195	fix_pre	0		120	17.0	2.5	/experiments/AOT/AOT_stimuli/rescaled_final/0297_fw.mp4	0.0	118.46400022506714	0.9995601177215576
19	96.71636319160461	pulse	0	t		17.0	2.5	/experiments/AOT/AOT_stimuli/rescaled_final/0297_fw.mp4	0.0	119.0476233959198	
19	97.13230013847351	movie	1		244	17.0	2.5	/experiments/AOT/AOT_stimuli/rescaled_final/0297_fw.mp4	0.0	119.4635603427887	2.500488042831421
19	98.31621599197388	pulse	1	t		17.0	2.5	/experiments/AOT/AOT_stimuli/rescaled_final/0297_fw.mp4	0.0	120.64747619628906	
19	99.63278818130493	fix_post	2		12	17.0	2.5	/experiments/AOT/AOT_stimuli/rescaled_final/0297_fw.mp4	0.0	121.96404838562012	0.09986400604248047
20	99.73265218734741	fix_pre	0		120	18.0	2.5	/experiments/AOT/AOT_stimuli/rescaled_final/1921_rv.mp4	0.0	122.0639123916626	1.0001850128173828
20	99.91627311706543	pulse	0	t		18.0	2.5	/experiments/AOT/AOT_stimuli/rescaled_final/1921_rv.mp4	0.0	122.24753332138062	
20	100.7328372001648	movie	1		245	18.0	2.5	/experiments/AOT/AOT_stimuli/rescaled_final/1921_rv.mp4	0.0	123.06409740447998	2.4997940063476562
20	101.51613306999207	pulse	1	t		18.0	2.5	/experiments/AOT/AOT_stimuli/rescaled_final/1921_rv.mp4	0.0	123.84739327430725	
20	103.11572813987732	pulse	1	t		18.0	2.5	/experiments/AOT/AOT_stimuli/rescaled_final/1921_rv.mp4	0.0	125.4469883441925	
20	103.23263120651245	fix_post	2		12	18.0	2.5	/experiments/AOT/AOT_stimuli/rescaled_final/1921_rv.mp4	0.0	125.56389141082764	0.1000208854675293
21	103.33265209197998	fix_pre	0		120	19.0	2.5	/experiments/AOT/AOT_stimuli/rescaled_final/1223_rv.mp4	0.0	125.66391229629517	0.9999680519104004
21	104.33262014389038	movie	1		244	19.0	2.5	/experiments/AOT/AOT_stimuli/rescaled_final/1223_rv.mp4	0.0	126.66388034820557	2.500040054321289
21	104.71745014190674	pulse	1	t		19.0	2.5	/experiments/AOT/AOT_stimuli/rescaled_final/1223_rv.mp4	0.0	127.04871034622192	
21	106.31613802909851	pulse	1	t		19.0	2.5	/experiments/AOT/AOT_stimuli/rescaled_final/1223_rv.mp4	0.0	128.6473982334137	
21	106.83266019821167	fix_post	2		12	19.0	2.5	/experiments/AOT/AOT_stimuli/rescaled_final/1223_rv.mp4	0.0	129.16392040252686	0.09998297691345215
22	106.93264317512512	fix_pre	0		119	20.0	2.5	/experiments/AOT/AOT_stimuli/rescaled_final/1509_fw.mp4	0.0	129.2639033794403	0.9916219711303711
22	107.91609406471252	pulse	0	t		20.0	2.5	/experiments/AOT/AOT_stimuli/rescaled_final/1509_fw.mp4	0.0	130.2473542690277	
22	107.9242651462555	movie	1		247	20.0	2.5	/experiments/AOT/AOT_stimuli/rescaled_final/1509_fw.mp4	0.0	130.25552535057068	2.507966995239258
22	109.51547002792358	pulse	1	t		20.0	2.5	/experiments/AOT/AOT_stimuli/rescaled_final/1509_fw.mp4	0.0	131.84673023223877	
22	110.43223214149475	fix_post	2		12	20.0	2.5	/experiments/AOT/AOT_stimuli/rescaled_final/1509_fw.mp4	0.0	132.76349234580994	0.10042786598205566
23	110.5326600074768	fix_pre	0		120	21.0	2.5	blank	1.0	132.863920211792	0.9999771118164062
23	111.11615204811096	pulse	0	t		21.0	2.5	blank	1.0	133.44741225242615	
23	111.53263711929321	movie	1		300	21.0	2.5	blank	1.0	133.8638973236084	2.5000429153442383
23	112.71615409851074	pulse	1	t		21.0	2.5	blank	1.0	135.04741430282593	
23	114.03268003463745	fix_post	2		12	21.0	2.5	blank	1.0	136.36394023895264	0.09995412826538086
24	114.13263416290283	fix_pre	0		120	22.0	2.5	/experiments/AOT/AOT_stimuli/rescaled_final/1130_rv.mp4	0.0	136.46389436721802	1.0000228881835938
24	114.31607604026794	pulse	0	t		22.0	2.5	/experiments/AOT/AOT_stimuli/rescaled_final/1130_rv.mp4	0.0	136.64733624458313	
24	115.13265705108643	movie	1		244	22.0	2.5	/experiments/AOT/AOT_stimuli/rescaled_final/1130_rv.mp4	0.0	137.4639172554016	2.5000059604644775
24	115.91615104675293	pulse	1	t		22.0	2.5	/experiments/AOT/AOT_stimuli/rescaled_final/1130_rv.mp4	0.0	138.24741125106812	
24	117.52442407608032	pulse	1	t		22.0	2.5	/experiments/AOT/AOT_stimuli/rescaled_final/1130_rv.mp4	0.0	139.8556842803955	
24	117.6326630115509	fix_post	2		12	22.0	2.5	/experiments/AOT/AOT_stimuli/rescaled_final/1130_rv.mp4	0.0	139.9639232158661	0.10003209114074707
25	117.73269510269165	fix_pre	0		120	23.0	2.5	/experiments/AOT/AOT_stimuli/rescaled_final/1256_rv.mp4	0.0	140.06395530700684	0.9994950294494629
25	118.73219013214111	movie	1		247	23.0	2.5	/experiments/AOT/AOT_stimuli/rescaled_final/1256_rv.mp4	0.0	141.0634503364563	2.5004220008850098
25	119.11718797683716	pulse	1	t		23.0	2.5	/experiments/AOT/AOT_stimuli/rescaled_final/1256_rv.mp4	0.0	141.44844818115234	
25	120.71610903739929	pulse	1	t		23.0	2.5	/experiments/AOT/AOT_stimuli/rescaled_final/1256_rv.mp4	0.0	143.04736924171448	
25	121.23261213302612	fix_post	2		12	23.0	2.5	/experiments/AOT/AOT_stimuli/rescaled_final/1256_rv.mp4	0.0	143.5638723373413	0.09996700286865234
26	121.33257913589478	fix_pre	0		119	24.0	2.5	/experiments/AOT/AOT_stimuli/rescaled_final/1755_fw.mp4	0.0	143.66383934020996	0.9916880130767822
26	122.31610798835754	pulse	0	t		24.0	2.5	/experiments/AOT/AOT_stimuli/rescaled_final/1755_fw.mp4	0.0	144.64736819267273	
26	122.32426714897156	movie	1		246	24.0	2.5	/experiments/AOT/AOT_stimuli/rescaled_final/1755_fw.mp4	0.0	144.65552735328674	2.507894992828369
26	123.91556406021118	pulse	1	t		24.0	2.5	/experiments/AOT/AOT_stimuli/rescaled_final/1755_fw.mp4	0.0	146.24682426452637	
26	124.83216214179993	fix_post	2		12	24.0	2.5	/experiments/AOT/AOT_stimuli/rescaled_final/1755_fw.mp4	0.0	147.1634223461151	0.10039305686950684
27	124.93255519866943	fix_pre	0		120	25.0	2.5	/experiments/AOT/AOT_stimuli/rescaled_final/0504_rv.mp4	0.0	147.26381540298462	1.0000009536743164
27	125.51606702804565	pulse	0	t		25.0	2.5	/experiments/AOT/AOT_stimuli/rescaled_final/0504_rv.mp4	0.0	147.84732723236084	
27	125.93255615234375	movie	1		246	25.0	2.5	/experiments/AOT/AOT_stimuli/rescaled_final/0504_rv.mp4	0.0	148.26381635665894	2.500040054321289
27	127.11610102653503	pulse	1	t		25.0	2.5	/experiments/AOT/AOT_stimuli/rescaled_final/0504_rv.mp4	0.0	149.44736123085022	
27	128.43259620666504	fix_post	2		12	25.0	2.5	/experiments/AOT/AOT_stimuli/rescaled_final/0504_rv.mp4	0.0	150.76385641098022	0.0999298095703125
28	128.53252601623535	fix_pre	0		120	26.0	2.5	blank	1.0	150.86378622055054	1.0000331401824951
28	128.71613597869873	pulse	0	t		26.0	2.5	blank	1.0	151.04739618301392	
28	129.53255915641785	movie	1		300	26.0	2.5	blank	1.0	151.86381936073303	2.4999759197235107
28	130.3159990310669	pulse	1	t		26.0	2.5	blank	1.0	152.64725923538208	
28	131.9159300327301	pulse	1	t		26.0	2.5	blank	1.0	154.2471902370453	
28	132.03253507614136	fix_post	2		12	26.0	2.5	blank	1.0	154.36379528045654	0.09997892379760742
29	132.13251399993896	fix_pre	0		120	27.0	2.5	/experiments/AOT/AOT_stimuli/rescaled_final/1091_fw.mp4	0.0	154.46377420425415	1.0000710487365723
29	133.13258504867554	movie	1		244	27.0	2.5	/experiments/AOT/AOT_stimuli/rescaled_final/1091_fw.mp4	0.0	155.46384525299072	2.4999871253967285
29	133.51559615135193	pulse	1	t		27.0	2.5	/experiments/AOT/AOT_stimuli/rescaled_final/1091_fw.mp4	0.0	155.84685635566711	
29	135.1160020828247	pulse	1	t		27.0	2.5	/experiments/AOT/AOT_stimuli/rescaled_final/1091_fw.mp4	0.0	157.4472622871399	
29	135.63257217407227	fix_post	2		12	27.0	2.5	/experiments/AOT/AOT_stimuli/rescaled_final/1091_fw.mp4	0.0	157.96383237838745	0.0999138355255127
30	135.73248600959778	fix_pre	0		119	28.0	2.5	/experiments/AOT/AOT_stimuli/rescaled_final/1988_fw.mp4	0.0	158.06374621391296	0.9916529655456543
30	136.71606612205505	pulse	0	t		28.0	2.5	/experiments/AOT/AOT_stimuli/rescaled_final/1988_fw.mp4	0.0	159.04732632637024	
30	136.72413897514343	movie	1		245	28.0	2.5	/experiments/AOT/AOT_stimuli/rescaled_final/1988_fw.mp4	0.0	159.05539917945862	2.508449077606201
30	138.31597900390625	pulse	1	t		28.0	2.5	/experiments/AOT/AOT_stimuli/rescaled_final/1988_fw.mp4	0.0	160.64723920822144	
30	139.23258805274963	fix_post	2		12	28.0	2.5	/experiments/AOT/AOT_stimuli/rescaled_final/1988_fw.mp4	0.0	161.56384825706482	0.09993910789489746
31	139.33252716064453	fix_pre	0		120	29.0	2.5	/experiments/AOT/AOT_stimuli/rescaled_final/0976_rv.mp4	0.0	161.66378736495972	1.0000250339508057
31	139.91610503196716	pulse	0	t		29.0	2.5	/experiments/AOT/AOT_stimuli/rescaled_final/0976_rv.mp4	0.0	162.24736523628235	
31	140.33255219459534	movie	1		247	29.0	2.5	/experiments/AOT/AOT_stimuli/rescaled_final/0976_rv.mp4	0.0	162.66381239891052	2.500041961669922
31	141.51612615585327	pulse	1	t		29.0	2.5	/experiments/AOT/AOT_stimuli/rescaled_final/0976_rv.mp4	0.0	163.84738636016846	
31	142.83259415626526	fix_post	2		12	29.0	2.5	/experiments/AOT/AOT_stimuli/rescaled_final/0976_rv.mp4	0.0	165.16385436058044	0.10003185272216797
32	142.93262600898743	fix_pre	0		120	30.0	2.5	/experiments/AOT/AOT_stimuli/rescaled_final/0342_rv.mp4	0.0	165.2638862133026	0.999934196472168
32	143.1159369945526	pulse	0	t		30.0	2.5	/experiments/AOT/AOT_stimuli/rescaled_final/0342_rv.mp4	0.0	165.4471971988678	
32	143.9325602054596	movie	1		246	30.0	2.5	/experiments/AOT/AOT_stimuli/rescaled_final/0342_rv.mp4	0.0	166.26382040977478	2.500030994415283
32	144.7160141468048	pulse	1	t		30.0	2.5	/experiments/AOT/AOT_stimuli/rescaled_final/0342_rv.mp4	0.0	167.04727435112	
32	146.3244571685791	pulse	1	t		30.0	2.5	/experiments/AOT/AOT_stimuli/rescaled_final/0342_rv.mp4	0.0	168.6557173728943	
32	146.43259119987488	fix_post	2		12	30.0	2.5	/experiments/AOT/AOT_stimuli/rescaled_final/0342_rv.mp4	0.0	168.76385140419006	0.0999448299407959
33	146.53253602981567	fix_pre	0		120	31.0	2.5	/experiments/AOT/AOT_stimuli/rescaled_final/1877_fw.mp4	0.0	168.86379623413086	1.0000081062316895
33	147.53254413604736	movie	1		245	31.0	2.5	/experiments/AOT/AOT_stimuli/rescaled_final/1877_fw.mp4	0.0	169.86380434036255	2.4999420642852783
33	147.91630506515503	pulse	1	t		31.0	2.5	/experiments/AOT/AOT_stimuli/rescaled_final/1877_fw.mp4	0.0	170.24756526947021	
33	149.5159192085266	pulse	1	t		31.0	2.5	/experiments/AOT/AOT_stimuli/rescaled_final/1877_fw.mp4	0.0	171.8471794128418	
33	150.03248620033264	fix_post	2		12	31.0	2.5	/experiments/AOT/AOT_stimuli/rescaled_final/1877_fw.mp4	0.0	172.36374640464783	0.09996795654296875
34	150.1324541568756	fix_pre	0		119	32.0	2.5	/experiments/AOT/AOT_stimuli/rescaled_final/1288_rv.mp4	0.0	172.4637143611908	0.9917089939117432
34	151.11596202850342	pulse	0	t		32.0	2.5	/experiments/AOT/AOT_stimuli/rescaled_final/1288_rv.mp4	0.0	173.4472222328186	
34	151.12416315078735	movie	1		248	32.0	2.5	/experiments/AOT/AOT_stimuli/rescaled_final/1288_rv.mp4	0.0	173.45542335510254	2.5083789825439453
34	152.7153091430664	pulse	1	t		32.0	2.5	/experiments/AOT/AOT_stimuli/rescaled_final/1288_rv.mp4	0.0	175.0465693473816	
34	153.6325421333313	fix_post	2		12	32.0	2.5	/experiments/AOT/AOT_stimuli/rescaled_final/1288_rv.mp4	0.0	175.96380233764648	0.09999895095825195
35	153.73254108428955	fix_pre	0		120	33.0	2.5	blank	1.0	176.06380128860474	0.9999089241027832
35	154.3159511089325	pulse	0	t		33.0	2.5	blank	1.0	176.64721131324768	
35	154.73245000839233	movie	1		300	33.0	2.5	blank	1.0	177.06371021270752	2.4997060298919678
35	155.91593408584595	pulse	1	t		33.0	2.5	blank	1.0	178.24719429016113	
35	157.2321560382843	fix_post	2		12	33.0	2.5	blank	1.0	179.5634162425995	0.10029315948486328
36	157.33244919776917	fix_pre	0		120	34.0	2.5	/experiments/AOT/AOT_stimuli/rescaled_final/1421_rv.mp4	0.0	179.66370940208435	0.9999849796295166
36	157.5160071849823	pulse	0	t		34.0	2.5	/experiments/AOT/AOT_stimuli/rescaled_final/1421_rv.mp4	0.0	179.84726738929749	
36	158.33243417739868	movie	1		243	34.0	2.5	/experiments/AOT/AOT_stimuli/rescaled_final/1421_rv.mp4	0.0	180.66369438171387	2.4999678134918213
36	159.11598706245422	pulse	1	t		34.0	2.5	/experiments/AOT/AOT_stimuli/rescaled_final/1421_rv.mp4	0.0	181.4472472667694	
36	160.72436809539795	pulse	1	t		34.0	2.5	/experiments/AOT/AOT_stimuli/rescaled_final/1421_rv.mp4	0.0	183.05562829971313	
36	160.8324019908905	fix_post	2		12	34.0	2.5	/experiments/AOT/AOT_stimuli/rescaled_final/1421_rv.mp4	0.0	183.1636621952057	0.09996509552001953
37	160.93236708641052	fix_pre	0		120	35.0	2.5	/experiments/AOT/AOT_stimuli/rescaled_final/0611_fw.mp4	0.0	183.2636272907257	1.00006103515625
37	161.93242812156677	movie	1		243	35.0	2.5	/experiments/AOT/AOT_stimuli/rescaled_final/0611_fw.mp4	0.0	184.26368832588196	2.4999918937683105
37	162.31592917442322	pulse	1	t		35.0	2.5	/experiments/AOT/AOT_stimuli/rescaled_final/0611_fw.mp4	0.0	184.6471893787384	
37	163.91602110862732	pulse	1	t		35.0	2.5	/experiments/AOT/AOT_stimuli/rescaled_final/0611_fw.mp4	0.0	186.2472813129425	
37	164.43242001533508	fix_post	2		12	35.0	2.5	/experiments/AOT/AOT_stimuli/rescaled_final/0611_fw.mp4	0.0	186.76368021965027	0.09955215454101562
38	164.5319721698761	fix_pre	0		119	36.0	2.5	/experiments/AOT/AOT_stimuli/rescaled_final/0370_rv.mp4	0.0	186.86323237419128	0.9921169281005859
38	165.515771150589	pulse	0	t		36.0	2.5	/experiments/AOT/AOT_stimuli/rescaled_final/0370_rv.mp4	0.0	187.84703135490417	
38	165.52408909797668	movie	1		245	36.0	2.5	/experiments/AOT/AOT_stimuli/rescaled_final/0370_rv.mp4	0.0	187.85534930229187	2.5083179473876953
38	167.11706399917603	pulse	1	t		36.0	2.5	/experiments/AOT/AOT_stimuli/rescaled_final/0370_rv.mp4	0.0	189.4483242034912	
38	168.03240704536438	fix_post	2		12	36.0	2.5	/experiments/AOT/AOT_stimuli/rescaled_final/0370_rv.mp4	0.0	190.36366724967957	0.0996849536895752
39	168.13209199905396	fix_pre	0		120	37.0	2.5	/experiments/AOT/AOT_stimuli/rescaled_final/1388_rv.mp4	0.0	190.46335220336914	1.000312089920044
39	168.71596002578735	pulse	0	t		37.0	2.5	/experiments/AOT/AOT_stimuli/rescaled_final/1388_rv.mp4	0.0	191.04722023010254	
39	169.132404088974	movie	1		247	37.0	2.5	/experiments/AOT/AOT_stimuli/rescaled_final/1388_rv.mp4	0.0	191.46366429328918	2.5000109672546387
39	170.3158462047577	pulse	1	t		37.0	2.5	/experiments/AOT/AOT_stimuli/rescaled_final/1388_rv.mp4	0.0	192.64710640907288	
39	171.63241505622864	fix_post	2		12	37.0	2.5	/experiments/AOT/AOT_stimuli/rescaled_final/1388_rv.mp4	0.0	193.96367526054382	0.10005807876586914
40	171.7324731349945	fix_pre	0		120	38.0	2.5	/experiments/AOT/AOT_stimuli/rescaled_final/1690_fw.mp4	0.0	194.0637333393097	0.9997799396514893
40	171.91557097434998	pulse	0	t		38.0	2.5	/experiments/AOT/AOT_stimuli/rescaled_final/1690_fw.mp4	0.0	194.24683117866516	
40	172.732253074646	movie	1		246	38.0	2.5	/experiments/AOT/AOT_stimuli/rescaled_final/1690_fw.mp4	0.0	195.06351327896118	2.5000879764556885
40	173.51599407196045	pulse	1	t		38.0	2.5	/experiments/AOT/AOT_stimuli/rescaled_final/1690_fw.mp4	0.0	195.84725427627563	
40	175.1241590976715	pulse	1	t		38.0	2.5	/experiments/AOT/AOT_stimuli/rescaled_final/1690_fw.mp4	0.0	197.4554193019867	
40	175.23234105110168	fix_post	2		12	38.0	2.5	/experiments/AOT/AOT_stimuli/rescaled_final/1690_fw.mp4	0.0	197.56360125541687	0.10006904602050781
41	175.3324100971222	fix_pre	0		120	39.0	2.5	/experiments/AOT/AOT_stimuli/rescaled_final/1629_fw.mp4	0.0	197.66367030143738	0.9999499320983887
41	176.33236002922058	movie	1		244	39.0	2.5	/experiments/AOT/AOT_stimuli/rescaled_final/1629_fw.mp4	0.0	198.66362023353577	2.4999029636383057
41	176.71663117408752	pulse	1	t		39.0	2.5	/experiments/AOT/AOT_stimuli/rescaled_final/1629_fw.mp4	0.0	199.0478913784027	
41	178.31581711769104	pulse	1	t		39.0	2.5	/experiments/AOT/AOT_stimuli/rescaled_final/1629_fw.mp4	0.0	200.64707732200623	
41	178.8322629928589	fix_post	2		12	39.0	2.5	/experiments/AOT/AOT_stimuli/rescaled_final/1629_fw.mp4	0.0	201.16352319717407	0.10004520416259766
42	178.93230819702148	fix_pre	0		119	40.0	2.5	/experiments/AOT/AOT_stimuli/rescaled_final/1671_fw.mp4	0.0	201.26356840133667	0.9917318820953369
42	179.915785074234	pulse	0	t		40.0	2.5	/experiments/AOT/AOT_stimuli/rescaled_final/1671_fw.mp4	0.0	202.2470452785492	
42	179.92404007911682	movie	1		244	40.0	2.5	/experiments/AOT/AOT_stimuli/rescaled_final/1671_fw.mp4	0.0	202.255300283432	2.5078799724578857
42	181.5153090953827	pulse	1	t		40.0	2.5	/experiments/AOT/AOT_stimuli/rescaled_final/1671_fw.mp4	0.0	203.84656929969788	
42	182.4319200515747	fix_post	2		12	40.0	2.5	/experiments/AOT/AOT_stimuli/rescaled_final/1671_fw.mp4	0.0	204.7631802558899	0.10032010078430176
43	182.532240152359	fix_pre	0		120	41.0	2.5	blank	1.0	204.8635003566742	1.0000710487365723
43	183.11572909355164	pulse	0	t		41.0	2.5	blank	1.0	205.44698929786682	
43	183.53231120109558	movie	1		300	41.0	2.5	blank	1.0	205.86357140541077	2.49997878074646
43	184.715754032135	pulse	1	t		41.0	2.5	blank	1.0	207.0470142364502	
43	186.03228998184204	fix_post	2		12	41.0	2.5	blank	1.0	208.36355018615723	0.09998512268066406
44	186.1322751045227	fix_pre	0		120	42.0	2.5	/experiments/AOT/AOT_stimuli/rescaled_final/1509_rv.mp4	0.0	208.4635353088379	1.0000190734863281
44	186.31570100784302	pulse	0	t		42.0	2.5	/experiments/AOT/AOT_stimuli/rescaled_final/1509_rv.mp4	0.0	208.6469612121582	
44	187.13229417800903	movie	1		247	42.0	2.5	/experiments/AOT/AOT_stimuli/rescaled_final/1509_rv.mp4	0.0	209.46355438232422	2.500006914138794
44	187.91575503349304	pulse	1	t		42.0	2.5	/experiments/AOT/AOT_stimuli/rescaled_final/1509_rv.mp4	0.0	210.24701523780823	
44	189.51545119285583	pulse	1	t		42.0	2.5	/experiments/AOT/AOT_stimuli/rescaled_final/1509_rv.mp4	0.0	211.84671139717102	
44	189.63230109214783	fix_post	2		12	42.0	2.5	/experiments/AOT/AOT_stimuli/rescaled_final/1509_rv.mp4	0.0	211.963561296463	0.099945068359375
45	189.7322461605072	fix_pre	0		120	43.0	2.5	/experiments/AOT/AOT_stimuli/rescaled_final/1537_fw.mp4	0.0	212.0635063648224	1.0000789165496826
45	190.73232507705688	movie	1		244	43.0	2.5	/experiments/AOT/AOT_stimuli/rescaled_final/1537_fw.mp4	0.0	213.06358528137207	2.5000009536743164
45	191.11525702476501	pulse	1	t		43.0	2.5	/experiments/AOT/AOT_stimuli/rescaled_final/1537_fw.mp4	0.0	213.4465172290802	
45	192.71567010879517	pulse	1	t		43.0	2.5	/experiments/AOT/AOT_stimuli/rescaled_final/1537_fw.mp4	0.0	215.04693031311035	
45	193.2323260307312	fix_post	2		12	43.0	2.5	/experiments/AOT/AOT_stimuli/rescaled_final/1537_fw.mp4	0.0	215.5635862350464	0.09943914413452148
46	193.33176517486572	fix_pre	0		119	44.0	2.5	/experiments/AOT/AOT_stimuli/rescaled_final/0101_fw.mp4	0.0	215.6630253791809	0.9920749664306641
46	194.31576299667358	pulse	0	t		44.0	2.5	/experiments/AOT/AOT_stimuli/rescaled_final/0101_fw.mp4	0.0	216.64702320098877	
46	194.3238401412964	movie	1		246	44.0	2.5	/experiments/AOT/AOT_stimuli/rescaled_final/0101_fw.mp4	0.0	216.65510034561157	2.5081088542938232
46	195.9150869846344	pulse	1	t		44.0	2.5	/experiments/AOT/AOT_stimuli/rescaled_final/0101_fw.mp4	0.0	218.24634718894958	
46	196.8319489955902	fix_post	2		12	44.0	2.5	/experiments/AOT/AOT_stimuli/rescaled_final/0101_fw.mp4	0.0	219.1632091999054	0.1003410816192627
47	196.93229007720947	fix_pre	0		120	45.0	2.5	/experiments/AOT/AOT_stimuli/rescaled_final/1755_rv.mp4	0.0	219.26355028152466	0.9999179840087891
47	197.51567220687866	pulse	0	t		45.0	2.5	/experiments/AOT/AOT_stimuli/rescaled_final/1755_rv.mp4	0.0	219.84693241119385	
47	197.93220806121826	movie	1		243	45.0	2.5	/experiments/AOT/AOT_stimuli/rescaled_final/1755_rv.mp4	0.0	220.26346826553345	2.5000200271606445
47	199.11577105522156	pulse	1	t		45.0	2.5	/experiments/AOT/AOT_stimuli/rescaled_final/1755_rv.mp4	0.0	221.44703125953674	
47	200.4322280883789	fix_post	2		12	45.0	2.5	/experiments/AOT/AOT_stimuli/rescaled_final/1755_rv.mp4	0.0	222.7634882926941	0.09999489784240723
48	200.5322229862213	fix_pre	0		120	46.0	2.5	/experiments/AOT/AOT_stimuli/rescaled_final/0890_fw.mp4	0.0	222.8634831905365	1.0000300407409668
48	200.7157130241394	pulse	0	t		46.0	2.5	/experiments/AOT/AOT_stimuli/rescaled_final/0890_fw.mp4	0.0	223.0469732284546	
48	201.53225302696228	movie	1		243	46.0	2.5	/experiments/AOT/AOT_stimuli/rescaled_final/0890_fw.mp4	0.0	223.86351323127747	2.499941110610962
48	202.31565499305725	pulse	1	t		46.0	2.5	/experiments/AOT/AOT_stimuli/rescaled_final/0890_fw.mp4	0.0	224.64691519737244	
48	203.9241180419922	pulse	1	t		46.0	2.5	/experiments/AOT/AOT_stimuli/rescaled_final/0890_fw.mp4	0.0	226.25537824630737	
48	204.03219413757324	fix_post	2		12	46.0	2.5	/experiments/AOT/AOT_stimuli/rescaled_final/0890_fw.mp4	0.0	226.36345434188843	0.10001897811889648
49	204.13221311569214	fix_pre	0		120	47.0	2.5	blank	1.0	226.46347332000732	0.9999749660491943
49	205.13218808174133	movie	1		300	47.0	2.5	blank	1.0	227.46344828605652	2.499967098236084
49	205.51571011543274	pulse	1	t		47.0	2.5	blank	1.0	227.84697031974792	
49	207.11570000648499	pulse	1	t		47.0	2.5	blank	1.0	229.44696021080017	
49	207.63215517997742	fix_post	2		12	47.0	2.5	blank	1.0	229.9634153842926	0.09999489784240723
50	207.73215007781982	fix_pre	0		119	48.0	2.5	/experiments/AOT/AOT_stimuli/rescaled_final/0726_rv.mp4	0.0	230.063410282135	0.9917259216308594
50	208.71567797660828	pulse	0	t		48.0	2.5	/experiments/AOT/AOT_stimuli/rescaled_final/0726_rv.mp4	0.0	231.04693818092346	
50	208.72387599945068	movie	1		250	48.0	2.5	/experiments/AOT/AOT_stimuli/rescaled_final/0726_rv.mp4	0.0	231.05513620376587	2.5083210468292236
50	210.31508898735046	pulse	1	t		48.0	2.5	/experiments/AOT/AOT_stimuli/rescaled_final/0726_rv.mp4	0.0	232.64634919166565	
50	211.2321970462799	fix_post	2		12	48.0	2.5	/experiments/AOT/AOT_stimuli/rescaled_final/0726_rv.mp4	0.0	233.5634572505951	0.09994196891784668
51	211.33213901519775	fix_pre	0		120	49.0	2.5	/experiments/AOT/AOT_stimuli/rescaled_final/1988_fw.mp4	0.0	233.66339921951294	1.0000300407409668
51	211.91567206382751	pulse	0	t		49.0	2.5	/experiments/AOT/AOT_stimuli/rescaled_final/1988_fw.mp4	0.0	234.2469322681427	
51	212.33216905593872	movie	1		246	49.0	2.5	/experiments/AOT/AOT_stimuli/rescaled_final/1988_fw.mp4	0.0	234.6634292602539	2.5000619888305664
51	213.5158450603485	pulse	1	t		49.0	2.5	/experiments/AOT/AOT_stimuli/rescaled_final/1988_fw.mp4	0.0	235.8471052646637	
51	214.8322310447693	fix_post	2		12	49.0	2.5	/experiments/AOT/AOT_stimuli/rescaled_final/1988_fw.mp4	0.0	237.16349124908447	0.09996199607849121
52	214.93219304084778	fix_pre	0		120	50.0	2.5	/experiments/AOT/AOT_stimuli/rescaled_final/1887_fw.mp4	0.0	237.26345324516296	1.0000481605529785
52	215.11564898490906	pulse	0	t		50.0	2.5	/experiments/AOT/AOT_stimuli/rescaled_final/1887_fw.mp4	0.0	237.44690918922424	
52	215.93224120140076	movie	1		244	50.0	2.5	/experiments/AOT/AOT_stimuli/rescaled_final/1887_fw.mp4	0.0	238.26350140571594	2.499917984008789
52	216.7156732082367	pulse	1	t		50.0	2.5	/experiments/AOT/AOT_stimuli/rescaled_final/1887_fw.mp4	0.0	239.04693341255188	
52	218.32396817207336	pulse	1	t		50.0	2.5	/experiments/AOT/AOT_stimuli/rescaled_final/1887_fw.mp4	0.0	240.65522837638855	
52	218.43215918540955	fix_post	2		12	50.0	2.5	/experiments/AOT/AOT_stimuli/rescaled_final/1887_fw.mp4	0.0	240.76341938972473	0.10002493858337402
53	218.53218412399292	fix_pre	0		120	51.0	2.5	/experiments/AOT/AOT_stimuli/rescaled_final/0895_fw.mp4	0.0	240.8634443283081	0.9999449253082275
53	219.53212904930115	movie	1		244	51.0	2.5	/experiments/AOT/AOT_stimuli/rescaled_final/0895_fw.mp4	0.0	241.86338925361633	2.5000290870666504
53	219.9151701927185	pulse	1	t		51.0	2.5	/experiments/AOT/AOT_stimuli/rescaled_final/0895_fw.mp4	0.0	242.2464303970337	
53	221.5155680179596	pulse	1	t		51.0	2.5	/experiments/AOT/AOT_stimuli/rescaled_final/0895_fw.mp4	0.0	243.84682822227478	
53	222.0321581363678	fix_post	2		12	51.0	2.5	/experiments/AOT/AOT_stimuli/rescaled_final/0895_fw.mp4	0.0	244.36341834068298	0.09992694854736328
54	222.13208508491516	fix_pre	0		119	52.0	2.5	/experiments/AOT/AOT_stimuli/rescaled_final/0191_rv.mp4	0.0	244.46334528923035	0.991765022277832
54	223.11569809913635	pulse	0	t		52.0	2.5	/experiments/AOT/AOT_stimuli/rescaled_final/0191_rv.mp4	0.0	245.44695830345154	
54	223.123850107193	movie	1		248	52.0	2.5	/experiments/AOT/AOT_stimuli/rescaled_final/0191_rv.mp4	0.0	245.45511031150818	2.5083110332489014
54	224.71525311470032	pulse	1	t		52.0	2.5	/experiments/AOT/AOT_stimuli/rescaled_final/0191_rv.mp4	0.0	247.0465133190155	
54	225.6321611404419	fix_post	2		12	52.0	2.5	/experiments/AOT/AOT_stimuli/rescaled_final/0191_rv.mp4	0.0	247.96342134475708	0.09992289543151855
55	225.7320840358734	fix_pre	0		120	53.0	2.5	/experiments/AOT/AOT_stimuli/rescaled_final/1893_rv.mp4	0.0	248.0633442401886	0.9996740818023682
55	226.31516408920288	pulse	0	t		53.0	2.5	/experiments/AOT/AOT_stimuli/rescaled_final/1893_rv.mp4	0.0	248.64642429351807	
55	226.73175811767578	movie	1		246	53.0	2.5	/experiments/AOT/AOT_stimuli/rescaled_final/1893_rv.mp4	0.0	249.06301832199097	2.5002920627593994
55	227.91575813293457	pulse	1	t		53.0	2.5	/experiments/AOT/AOT_stimuli/rescaled_final/1893_rv.mp4	0.0	250.24701833724976	
55	229.23205018043518	fix_post	2		12	53.0	2.5	/experiments/AOT/AOT_stimuli/rescaled_final/1893_rv.mp4	0.0	251.56331038475037	0.0999917984008789
56	229.33204197883606	fix_pre	0		120	54.0	2.5	/experiments/AOT/AOT_stimuli/rescaled_final/0259_rv.mp4	0.0	251.66330218315125	1.0001029968261719
56	229.51556611061096	pulse	0	t		54.0	2.5	/experiments/AOT/AOT_stimuli/rescaled_final/0259_rv.mp4	0.0	251.84682631492615	
56	230.33214497566223	movie	1		243	54.0	2.5	/experiments/AOT/AOT_stimuli/rescaled_final/0259_rv.mp4	0.0	252.66340517997742	2.499946117401123
56	231.11556601524353	pulse	1	t		54.0	2.5	/experiments/AOT/AOT_stimuli/rescaled_final/0259_rv.mp4	0.0	253.44682621955872	
56	232.72390413284302	pulse	1	t		54.0	2.5	/experiments/AOT/AOT_stimuli/rescaled_final/0259_rv.mp4	0.0	255.0551643371582	
56	232.83209109306335	fix_post	2		12	54.0	2.5	/experiments/AOT/AOT_stimuli/rescaled_final/0259_rv.mp4	0.0	255.16335129737854	0.10001802444458008
57	232.93210911750793	fix_pre	0		120	55.0	2.5	/experiments/AOT/AOT_stimuli/rescaled_final/1389_fw.mp4	0.0	255.26336932182312	0.9999399185180664
57	233.932049036026	movie	1		245	55.0	2.5	/experiments/AOT/AOT_stimuli/rescaled_final/1389_fw.mp4	0.0	256.2633092403412	2.499983072280884
57	234.3164131641388	pulse	1	t		55.0	2.5	/experiments/AOT/AOT_stimuli/rescaled_final/1389_fw.mp4	0.0	256.647673368454	
57	235.9154851436615	pulse	1	t		55.0	2.5	/experiments/AOT/AOT_stimuli/rescaled_final/1389_fw.mp4	0.0	258.2467453479767	
57	236.43203210830688	fix_post	2		12	55.0	2.5	/experiments/AOT/AOT_stimuli/rescaled_final/1389_fw.mp4	0.0	258.76329231262207	0.10000896453857422
58	236.53204107284546	fix_pre	0		119	56.0	2.5	blank	1.0	258.86330127716064	0.9916529655456543
58	237.5154731273651	pulse	0	t		56.0	2.5	blank	1.0	259.8467333316803	
58	237.5236940383911	movie	1		301	56.0	2.5	blank	1.0	259.8549542427063	2.508350133895874
58	239.11552906036377	pulse	1	t		56.0	2.5	blank	1.0	261.44678926467896	
58	240.032044172287	fix_post	2		12	56.0	2.5	blank	1.0	262.3633043766022	0.09997081756591797
59	240.1320149898529	fix_pre	0		120	57.0	2.5	/experiments/AOT/AOT_stimuli/rescaled_final/0366_rv.mp4	0.0	262.4632751941681	0.9999780654907227
59	240.71550703048706	pulse	0	t		57.0	2.5	/experiments/AOT/AOT_stimuli/rescaled_final/0366_rv.mp4	0.0	263.04676723480225	
59	241.13199305534363	movie	1		244	57.0	2.5	/experiments/AOT/AOT_stimuli/rescaled_final/0366_rv.mp4	0.0	263.4632532596588	2.5000951290130615
59	242.31552410125732	pulse	1	t		57.0	2.5	/experiments/AOT/AOT_stimuli/rescaled_final/0366_rv.mp4	0.0	264.6467843055725	
59	243.6320881843567	fix_post	2		12	57.0	2.5	/experiments/AOT/AOT_stimuli/rescaled_final/0366_rv.mp4	0.0	265.9633483886719	0.0999138355255127
60	243.7320020198822	fix_pre	0		120	58.0	2.5	/experiments/AOT/AOT_stimuli/rescaled_final/0150_rv.mp4	0.0	266.0632622241974	1.000101089477539
60	243.91561198234558	pulse	0	t		58.0	2.5	/experiments/AOT/AOT_stimuli/rescaled_final/0150_rv.mp4	0.0	266.24687218666077	
60	244.73210310935974	movie	1		245	58.0	2.5	/experiments/AOT/AOT_stimuli/rescaled_final/0150_rv.mp4	0.0	267.0633633136749	2.4994828701019287
60	245.51550316810608	pulse	1	t		58.0	2.5	/experiments/AOT/AOT_stimuli/rescaled_final/0150_rv.mp4	0.0	267.84676337242126	
60	247.11552619934082	pulse	1	t		58.0	2.5	/experiments/AOT/AOT_stimuli/rescaled_final/0150_rv.mp4	0.0	269.446786403656	
60	247.23158597946167	fix_post	2		12	58.0	2.5	/experiments/AOT/AOT_stimuli/rescaled_final/0150_rv.mp4	0.0	269.56284618377686	0.10047507286071777
61	247.3320610523224	fix_pre	0		120	59.0	2.5	/experiments/AOT/AOT_stimuli/rescaled_final/0800_fw.mp4	0.0	269.6633212566376	0.9999029636383057
61	248.3319640159607	movie	1		244	59.0	2.5	/experiments/AOT/AOT_stimuli/rescaled_final/0800_fw.mp4	0.0	270.6632242202759	2.499587059020996
61	248.71507120132446	pulse	1	t		59.0	2.5	/experiments/AOT/AOT_stimuli/rescaled_final/0800_fw.mp4	0.0	271.04633140563965	
61	250.31544303894043	pulse	1	t		59.0	2.5	/experiments/AOT/AOT_stimuli/rescaled_final/0800_fw.mp4	0.0	272.6467032432556	
61	250.8315510749817	fix_post	2		12	59.0	2.5	/experiments/AOT/AOT_stimuli/rescaled_final/0800_fw.mp4	0.0	273.1628112792969	0.10041689872741699
62	250.9319679737091	fix_pre	0		119	60.0	2.5	/experiments/AOT/AOT_stimuli/rescaled_final/1705_fw.mp4	0.0	273.2632281780243	0.9916081428527832
62	251.9154281616211	pulse	0	t		60.0	2.5	/experiments/AOT/AOT_stimuli/rescaled_final/1705_fw.mp4	0.0	274.2466883659363	
62	251.9235761165619	movie	1		243	60.0	2.5	/experiments/AOT/AOT_stimuli/rescaled_final/1705_fw.mp4	0.0	274.2548363208771	2.5080039501190186
62	253.51644015312195	pulse	1	t		60.0	2.5	/experiments/AOT/AOT_stimuli/rescaled_final/1705_fw.mp4	0.0	275.84770035743713	
62	254.4315800666809	fix_post	2		12	60.0	2.5	/experiments/AOT/AOT_stimuli/rescaled_final/1705_fw.mp4	0.0	276.7628402709961	0.10041308403015137
63	254.53199315071106	fix_pre	0		120	61.0	2.5	/experiments/AOT/AOT_stimuli/rescaled_final/0999_fw.mp4	0.0	276.86325335502625	0.9999568462371826
63	255.11547112464905	pulse	0	t		61.0	2.5	/experiments/AOT/AOT_stimuli/rescaled_final/0999_fw.mp4	0.0	277.44673132896423	
63	255.53194999694824	movie	1		246	61.0	2.5	/experiments/AOT/AOT_stimuli/rescaled_final/0999_fw.mp4	0.0	277.8632102012634	2.4996161460876465
63	256.7155270576477	pulse	1	t		61.0	2.5	/experiments/AOT/AOT_stimuli/rescaled_final/0999_fw.mp4	0.0	279.0467872619629	
63	258.0315661430359	fix_post	2		12	61.0	2.5	/experiments/AOT/AOT_stimuli/rescaled_final/0999_fw.mp4	0.0	280.3628263473511	0.10037589073181152
64	258.1319420337677	fix_pre	0		120	62.0	2.5	blank	1.0	280.4632022380829	1.0000159740447998
64	258.31542801856995	pulse	0	t		62.0	2.5	blank	1.0	280.64668822288513	
64	259.1319580078125	movie	1		300	62.0	2.5	blank	1.0	281.4632182121277	2.5000240802764893
64	259.9154369831085	pulse	1	t		62.0	2.5	blank	1.0	282.2466971874237	
64	261.5153841972351	pulse	1	t		62.0	2.5	blank	1.0	283.8466444015503	
64	261.631982088089	fix_post	2		12	62.0	2.5	blank	1.0	283.9632422924042	0.09949398040771484
65	261.7314760684967	fix_pre	0		120	63.0	2.5	/experiments/AOT/AOT_stimuli/rescaled_final/0671_rv.mp4	0.0	284.0627362728119	1.000499963760376
65	262.7319760322571	movie	1		245	63.0	2.5	/experiments/AOT/AOT_stimuli/rescaled_final/0671_rv.mp4	0.0	285.06323623657227	2.4999239444732666
65	263.11494517326355	pulse	1	t		63.0	2.5	/experiments/AOT/AOT_stimuli/rescaled_final/0671_rv.mp4	0.0	285.44620537757874	
65	264.7154531478882	pulse	1	t		63.0	2.5	/experiments/AOT/AOT_stimuli/rescaled_final/0671_rv.mp4	0.0	287.04671335220337	
65	265.23189997673035	fix_post	2		12	63.0	2.5	/experiments/AOT/AOT_stimuli/rescaled_final/0671_rv.mp4	0.0	287.56316018104553	0.10005402565002441
66	265.33195400238037	fix_pre	0		119	64.0	2.5	/experiments/AOT/AOT_stimuli/rescaled_final/1178_rv.mp4	0.0	287.66321420669556	0.9916000366210938
66	266.31539511680603	pulse	0	t		64.0	2.5	/experiments/AOT/AOT_stimuli/rescaled_final/1178_rv.mp4	0.0	288.6466553211212	
66	266.32355403900146	movie	1		244	64.0	2.5	/experiments/AOT/AOT_stimuli/rescaled_final/1178_rv.mp4	0.0	288.65481424331665	2.5083820819854736
66	267.9151301383972	pulse	1	t		64.0	2.5	/experiments/AOT/AOT_stimuli/rescaled_final/1178_rv.mp4	0.0	290.2463903427124	
66	268.83193612098694	fix_post	2		12	64.0	2.5	/experiments/AOT/AOT_stimuli/rescaled_final/1178_rv.mp4	0.0	291.1631963253021	0.09992194175720215
67	268.93185806274414	fix_pre	0		120	65.0	2.5	/experiments/AOT/AOT_stimuli/rescaled_final/0504_rv.mp4	0.0	291.2631182670593	1.0000231266021729
67	269.5152840614319	pulse	0	t		65.0	2.5	/experiments/AOT/AOT_stimuli/rescaled_final/0504_rv.mp4	0.0	291.84654426574707	
67	269.9318811893463	movie	1		244	65.0	2.5	/experiments/AOT/AOT_stimuli/rescaled_final/0504_rv.mp4	0.0	292.2631413936615	2.5000228881835938
67	271.1154282093048	pulse	1	t		65.0	2.5	/experiments/AOT/AOT_stimuli/rescaled_final/0504_rv.mp4	0.0	293.44668841362	
67	272.4319040775299	fix_post	2		12	65.0	2.5	/experiments/AOT/AOT_stimuli/rescaled_final/0504_rv.mp4	0.0	294.7631642818451	0.09992194175720215
68	272.5318260192871	fix_pre	0		120	66.0	2.5	/experiments/AOT/AOT_stimuli/rescaled_final/0883_fw.mp4	0.0	294.8630862236023	1.000089168548584
68	272.71537804603577	pulse	0	t		66.0	2.5	/experiments/AOT/AOT_stimuli/rescaled_final/0883_fw.mp4	0.0	295.04663825035095	
68	273.5319151878357	movie	1		242	66.0	2.5	/experiments/AOT/AOT_stimuli/rescaled_final/0883_fw.mp4	0.0	295.8631753921509	2.500034809112549
68	274.3153591156006	pulse	1	t		66.0	2.5	/experiments/AOT/AOT_stimuli/rescaled_final/0883_fw.mp4	0.0	296.64661931991577	
68	275.9237530231476	pulse	1	t		66.0	2.5	/experiments/AOT/AOT_stimuli/rescaled_final/0883_fw.mp4	0.0	298.25501322746277	
68	276.03194999694824	fix_post	2		12	66.0	2.5	/experiments/AOT/AOT_stimuli/rescaled_final/0883_fw.mp4	0.0	298.3632102012634	0.09987616539001465
69	276.13182616233826	fix_pre	0		120	67.0	2.5	/experiments/AOT/AOT_stimuli/rescaled_final/0058_rv.mp4	0.0	298.46308636665344	1.0000789165496826
69	277.13190507888794	movie	1		245	67.0	2.5	/experiments/AOT/AOT_stimuli/rescaled_final/0058_rv.mp4	0.0	299.4631652832031	2.499924898147583
69	277.5236921310425	pulse	1	t		67.0	2.5	/experiments/AOT/AOT_stimuli/rescaled_final/0058_rv.mp4	0.0	299.85495233535767	
69	279.1153380870819	pulse	1	t		67.0	2.5	/experiments/AOT/AOT_stimuli/rescaled_final/0058_rv.mp4	0.0	301.4465982913971	
69	279.6318299770355	fix_post	2		12	67.0	2.5	/experiments/AOT/AOT_stimuli/rescaled_final/0058_rv.mp4	0.0	301.9630901813507	0.10001206398010254
70	279.7318420410156	fix_pre	0		119	68.0	2.5	blank	1.0	302.0631022453308	0.9916181564331055
70	280.7155029773712	pulse	0	t		68.0	2.5	blank	1.0	303.0467631816864	
70	280.72346019744873	movie	1		301	68.0	2.5	blank	1.0	303.0547204017639	2.5080018043518066
70	282.3149240016937	pulse	1	t		68.0	2.5	blank	1.0	304.6461842060089	
70	283.23146200180054	fix_post	2		12	68.0	2.5	blank	1.0	305.5627222061157	0.10046005249023438
71	283.33192205429077	fix_pre	0		120	69.0	2.5	/experiments/AOT/AOT_stimuli/rescaled_final/1182_fw.mp4	0.0	305.66318225860596	1.0001440048217773
71	283.9150722026825	pulse	0	t		69.0	2.5	/experiments/AOT/AOT_stimuli/rescaled_final/1182_fw.mp4	0.0	306.2463324069977	
71	284.33206605911255	movie	1		243	69.0	2.5	/experiments/AOT/AOT_stimuli/rescaled_final/1182_fw.mp4	0.0	306.66332626342773	2.4997711181640625
71	285.5154490470886	pulse	1	t		69.0	2.5	/experiments/AOT/AOT_stimuli/rescaled_final/1182_fw.mp4	0.0	307.8467092514038	
71	286.8318371772766	fix_post	2		12	69.0	2.5	/experiments/AOT/AOT_stimuli/rescaled_final/1182_fw.mp4	0.0	309.1630973815918	0.09993886947631836
72	286.93177604675293	fix_pre	0		120	70.0	2.5	/experiments/AOT/AOT_stimuli/rescaled_final/0698_fw.mp4	0.0	309.2630362510681	1.0000779628753662
72	287.11534118652344	pulse	0	t		70.0	2.5	/experiments/AOT/AOT_stimuli/rescaled_final/0698_fw.mp4	0.0	309.4466013908386	
72	287.9318540096283	movie	1		244	70.0	2.5	/experiments/AOT/AOT_stimuli/rescaled_final/0698_fw.mp4	0.0	310.2631142139435	2.500007152557373
72	288.71523118019104	pulse	1	t		70.0	2.5	/experiments/AOT/AOT_stimuli/rescaled_final/0698_fw.mp4	0.0	311.0464913845062	
72	290.32360911369324	pulse	1	t		70.0	2.5	/experiments/AOT/AOT_stimuli/rescaled_final/0698_fw.mp4	0.0	312.6548693180084	
72	290.43186116218567	fix_post	2		12	70.0	2.5	/experiments/AOT/AOT_stimuli/rescaled_final/0698_fw.mp4	0.0	312.76312136650085	0.09992694854736328
73	290.53178811073303	fix_pre	0		120	71.0	2.5	/experiments/AOT/AOT_stimuli/rescaled_final/2138_rv.mp4	0.0	312.8630483150482	0.9995510578155518
73	291.5313391685486	movie	1		244	71.0	2.5	/experiments/AOT/AOT_stimuli/rescaled_final/2138_rv.mp4	0.0	313.86259937286377	2.5000360012054443
73	291.9156219959259	pulse	1	t		71.0	2.5	/experiments/AOT/AOT_stimuli/rescaled_final/2138_rv.mp4	0.0	314.2468822002411	
73	293.51517701148987	pulse	1	t		71.0	2.5	/experiments/AOT/AOT_stimuli/rescaled_final/2138_rv.mp4	0.0	315.84643721580505	
73	294.031375169754	fix_post	2		12	71.0	2.5	/experiments/AOT/AOT_stimuli/rescaled_final/2138_rv.mp4	0.0	316.3626353740692	0.1003730297088623
74	294.1317481994629	fix_pre	0		119	72.0	2.5	/experiments/AOT/AOT_stimuli/rescaled_final/1877_rv.mp4	0.0	316.4630084037781	0.9916489124298096
74	295.1152410507202	pulse	0	t		72.0	2.5	/experiments/AOT/AOT_stimuli/rescaled_final/1877_rv.mp4	0.0	317.4465012550354	
74	295.1233971118927	movie	1		246	72.0	2.5	/experiments/AOT/AOT_stimuli/rescaled_final/1877_rv.mp4	0.0	317.4546573162079	2.508328914642334
74	296.71644115448	pulse	1	t		72.0	2.5	/experiments/AOT/AOT_stimuli/rescaled_final/1877_rv.mp4	0.0	319.04770135879517	
74	297.63172602653503	fix_post	2		12	72.0	2.5	/experiments/AOT/AOT_stimuli/rescaled_final/1877_rv.mp4	0.0	319.9629862308502	0.09998297691345215
75	297.7317090034485	fix_pre	0		120	73.0	2.5	/experiments/AOT/AOT_stimuli/rescaled_final/0223_rv.mp4	0.0	320.0629692077637	1.0000221729278564
75	298.31522512435913	pulse	0	t		73.0	2.5	/experiments/AOT/AOT_stimuli/rescaled_final/0223_rv.mp4	0.0	320.6464853286743	
75	298.73173117637634	movie	1		244	73.0	2.5	/experiments/AOT/AOT_stimuli/rescaled_final/0223_rv.mp4	0.0	321.0629913806915	2.500034809112549
75	299.91526317596436	pulse	1	t		73.0	2.5	/experiments/AOT/AOT_stimuli/rescaled_final/0223_rv.mp4	0.0	322.24652338027954	
75	301.2317659854889	fix_post	2		12	73.0	2.5	/experiments/AOT/AOT_stimuli/rescaled_final/0223_rv.mp4	0.0	323.5630261898041	0.09992814064025879
76	301.33169412612915	fix_pre	0		120	74.0	2.5	/experiments/AOT/AOT_stimuli/rescaled_final/1810_rv.mp4	0.0	323.66295433044434	1.000169038772583
76	301.51521611213684	pulse	0	t		74.0	2.5	/experiments/AOT/AOT_stimuli/rescaled_final/1810_rv.mp4	0.0	323.846476316452	
76	302.33186316490173	movie	1		246	74.0	2.5	/experiments/AOT/AOT_stimuli/rescaled_final/1810_rv.mp4	0.0	324.6631233692169	2.499372959136963
76	303.1161370277405	pulse	1	t		74.0	2.5	/experiments/AOT/AOT_stimuli/rescaled_final/1810_rv.mp4	0.0	325.44739723205566	
76	304.71564197540283	pulse	1	t		74.0	2.5	/experiments/AOT/AOT_stimuli/rescaled_final/1810_rv.mp4	0.0	327.046902179718	
76	304.8312361240387	fix_post	2		12	74.0	2.5	/experiments/AOT/AOT_stimuli/rescaled_final/1810_rv.mp4	0.0	327.1624963283539	0.10055088996887207
77	304.93178701400757	fix_pre	0		120	75.0	2.5	/experiments/AOT/AOT_stimuli/rescaled_final/0117_rv.mp4	0.0	327.26304721832275	0.9999079704284668
77	305.93169498443604	movie	1		245	75.0	2.5	/experiments/AOT/AOT_stimuli/rescaled_final/0117_rv.mp4	0.0	328.2629551887512	2.499603033065796
77	306.32359504699707	pulse	1	t		75.0	2.5	/experiments/AOT/AOT_stimuli/rescaled_final/0117_rv.mp4	0.0	328.65485525131226	
77	307.9151921272278	pulse	1	t		75.0	2.5	/experiments/AOT/AOT_stimuli/rescaled_final/0117_rv.mp4	0.0	330.24645233154297	
77	308.43129801750183	fix_post	2		12	75.0	2.5	/experiments/AOT/AOT_stimuli/rescaled_final/0117_rv.mp4	0.0	330.762558221817	0.10039806365966797
78	308.5316960811615	fix_pre	0		119	76.0	2.5	blank	1.0	330.8629562854767	0.9915881156921387
78	309.5152461528778	pulse	0	t		76.0	2.5	blank	1.0	331.846506357193	
78	309.52328419685364	movie	1		301	76.0	2.5	blank	1.0	331.8545444011688	2.5080268383026123
78	311.1152160167694	pulse	1	t		76.0	2.5	blank	1.0	333.4464762210846	
78	312.03131103515625	fix_post	2		12	76.0	2.5	blank	1.0	334.36257123947144	0.10034298896789551
79	312.13165402412415	fix_pre	0		120	77.0	2.5	/experiments/AOT/AOT_stimuli/rescaled_final/1946_fw.mp4	0.0	334.46291422843933	1.000133991241455
79	312.71515011787415	pulse	0	t		77.0	2.5	/experiments/AOT/AOT_stimuli/rescaled_final/1946_fw.mp4	0.0	335.04641032218933	
79	313.1317880153656	movie	1		245	77.0	2.5	/experiments/AOT/AOT_stimuli/rescaled_final/1946_fw.mp4	0.0	335.4630482196808	2.4995200634002686
79	314.31524300575256	pulse	1	t		77.0	2.5	/experiments/AOT/AOT_stimuli/rescaled_final/1946_fw.mp4	0.0	336.64650321006775	
79	315.63130807876587	fix_post	2		12	77.0	2.5	/experiments/AOT/AOT_stimuli/rescaled_final/1946_fw.mp4	0.0	337.96256828308105	0.10041689872741699
80	315.7317249774933	fix_pre	0		120	78.0	2.5	/experiments/AOT/AOT_stimuli/rescaled_final/1437_rv.mp4	0.0	338.0629851818085	1.0000100135803223
80	315.9151990413666	pulse	0	t		78.0	2.5	/experiments/AOT/AOT_stimuli/rescaled_final/1437_rv.mp4	0.0	338.24645924568176	
80	316.7317349910736	movie	1		244	78.0	2.5	/experiments/AOT/AOT_stimuli/rescaled_final/1437_rv.mp4	0.0	339.0629951953888	2.5000200271606445
80	317.515114068985	pulse	1	t		78.0	2.5	/experiments/AOT/AOT_stimuli/rescaled_final/1437_rv.mp4	0.0	339.84637427330017	
80	319.1234920024872	pulse	1	t		78.0	2.5	/experiments/AOT/AOT_stimuli/rescaled_final/1437_rv.mp4	0.0	341.45475220680237	
80	319.23175501823425	fix_post	2		12	78.0	2.5	/experiments/AOT/AOT_stimuli/rescaled_final/1437_rv.mp4	0.0	341.56301522254944	0.09989500045776367
81	319.331650018692	fix_pre	0		120	79.0	2.5	/experiments/AOT/AOT_stimuli/rescaled_final/1824_fw.mp4	0.0	341.6629102230072	0.9999871253967285
81	320.33163714408875	movie	1		247	79.0	2.5	/experiments/AOT/AOT_stimuli/rescaled_final/1824_fw.mp4	0.0	342.66289734840393	2.499969005584717
81	320.7236020565033	pulse	1	t		79.0	2.5	/experiments/AOT/AOT_stimuli/rescaled_final/1824_fw.mp4	0.0	343.0548622608185	
81	322.31600618362427	pulse	1	t		79.0	2.5	/experiments/AOT/AOT_stimuli/rescaled_final/1824_fw.mp4	0.0	344.64726638793945	
81	322.83160614967346	fix_post	2		12	79.0	2.5	/experiments/AOT/AOT_stimuli/rescaled_final/1824_fw.mp4	0.0	345.16286635398865	0.0999908447265625
82	322.9315969944	fix_pre	0		119	80.0	2.5	/experiments/AOT/AOT_stimuli/rescaled_final/0097_fw.mp4	0.0	345.2628571987152	0.9917201995849609
82	323.9152190685272	pulse	0	t		80.0	2.5	/experiments/AOT/AOT_stimuli/rescaled_final/0097_fw.mp4	0.0	346.2464792728424	
82	323.923317193985	movie	1		250	80.0	2.5	/experiments/AOT/AOT_stimuli/rescaled_final/0097_fw.mp4	0.0	346.25457739830017	2.507882833480835
82	325.5234971046448	pulse	1	t		80.0	2.5	/experiments/AOT/AOT_stimuli/rescaled_final/0097_fw.mp4	0.0	347.85475730895996	
82	326.4312000274658	fix_post	2		12	80.0	2.5	/experiments/AOT/AOT_stimuli/rescaled_final/0097_fw.mp4	0.0	348.762460231781	0.10040497779846191
83	326.5316050052643	fix_pre	0		120	81.0	2.5	/experiments/AOT/AOT_stimuli/rescaled_final/0026_rv.mp4	0.0	348.86286520957947	0.9995541572570801
83	327.1150770187378	pulse	0	t		81.0	2.5	/experiments/AOT/AOT_stimuli/rescaled_final/0026_rv.mp4	0.0	349.446337223053	
83	327.53115916252136	movie	1		245	81.0	2.5	/experiments/AOT/AOT_stimuli/rescaled_final/0026_rv.mp4	0.0	349.86241936683655	2.5000510215759277
83	328.71510004997253	pulse	1	t		81.0	2.5	/experiments/AOT/AOT_stimuli/rescaled_final/0026_rv.mp4	0.0	351.0463602542877	
83	330.0312101840973	fix_post	2		12	81.0	2.5	/experiments/AOT/AOT_stimuli/rescaled_final/0026_rv.mp4	0.0	352.3624703884125	0.10032391548156738
84	330.13153409957886	fix_pre	0		120	82.0	2.5	/experiments/AOT/AOT_stimuli/rescaled_final/1288_fw.mp4	0.0	352.46279430389404	1.0000970363616943
84	330.31503415107727	pulse	0	t		82.0	2.5	/experiments/AOT/AOT_stimuli/rescaled_final/1288_fw.mp4	0.0	352.64629435539246	
84	331.13163113594055	movie	1		246	82.0	2.5	/experiments/AOT/AOT_stimuli/rescaled_final/1288_fw.mp4	0.0	353.46289134025574	2.500014066696167
84	331.915048122406	pulse	1	t		82.0	2.5	/experiments/AOT/AOT_stimuli/rescaled_final/1288_fw.mp4	0.0	354.2463083267212	
84	333.5146150588989	pulse	1	t		82.0	2.5	/experiments/AOT/AOT_stimuli/rescaled_final/1288_fw.mp4	0.0	355.8458752632141	
84	333.6316452026367	fix_post	2		12	82.0	2.5	/experiments/AOT/AOT_stimuli/rescaled_final/1288_fw.mp4	0.0	355.9629054069519	0.09995579719543457
85	333.73160099983215	fix_pre	0		120	83.0	2.5	blank	1.0	356.06286120414734	0.9999849796295166
85	334.73158597946167	movie	1		300	83.0	2.5	blank	1.0	357.06284618377686	2.4995431900024414
85	335.11587500572205	pulse	1	t		83.0	2.5	blank	1.0	357.44713521003723	
85	336.71585416793823	pulse	1	t		83.0	2.5	blank	1.0	359.0471143722534	
85	337.2311291694641	fix_post	2		12	83.0	2.5	blank	1.0	359.5623893737793	0.10045886039733887
87	337.33158802986145	stim	0		1716					359.66284823417664	14.299946069717407
87	338.31562209129333	pulse	0	t						360.6468822956085	
87	339.9157090187073	pulse	0	t						362.24696922302246	
87	341.51508712768555	pulse	0	t						363.84634733200073	
87	343.1150391101837	pulse	0	t						365.4462993144989	
87	344.71498107910156	pulse	0	t						367.04624128341675	
87	346.3149290084839	pulse	0	t						368.6461892127991	
87	347.9149351119995	pulse	0	t						370.2461953163147	
87	349.5149710178375	pulse	0	t						371.8462312221527	
87	351.1149351596832	pulse	0	t						373.4461953639984	
