trial_nr	onset	event_type	phase	response	nr_frames	movie_index	movie_duration	movie_file	blank	onset_abs	duration
0	0.2083590030670166	stim	0		30					48.275835037231445	0.24996495246887207
0	0.4431459903717041	response	0	space						48.51062202453613	
1	0.45832395553588867	stim	0		4644					48.52579998970032	38.716904163360596
1	39.16505002975464	pulse	0	t						87.23252606391907	
1	39.175228118896484	stim	1		1715					87.24270415306091	14.29939603805542
1	40.75630807876587	pulse	1	t						88.8237841129303	
1	42.356446981430054	pulse	1	t						90.42392301559448	
1	43.9568510055542	pulse	1	t						92.02432703971863	
1	45.55694603919983	pulse	1	t						93.62442207336426	
1	47.1572151184082	pulse	1	t						95.22469115257263	
1	48.74989295005798	pulse	1	t						96.81736898422241	
1	50.35010313987732	pulse	1	t						98.41757917404175	
1	51.95021295547485	pulse	1	t						100.01768898963928	
2	53.474624156951904	fix_pre	0		11	0.0	2.5	/experiments/knapen_AOT/AOT_stimuli/rescaled_final/1962_fw.mp4	0.0	101.54210019111633	0.09162378311157227
2	53.55064415931702	pulse	0	t		0.0	2.5	/experiments/knapen_AOT/AOT_stimuli/rescaled_final/1962_fw.mp4	0.0	101.61812019348145	
2	53.56624794006348	movie	1		244	0.0	2.5	/experiments/knapen_AOT/AOT_stimuli/rescaled_final/1962_fw.mp4	0.0	101.6337239742279	2.5087320804595947
2	55.15017509460449	pulse	1	t		0.0	2.5	/experiments/knapen_AOT/AOT_stimuli/rescaled_final/1962_fw.mp4	0.0	103.21765112876892	
2	56.07498002052307	fix_post	2		12	0.0	2.5	/experiments/knapen_AOT/AOT_stimuli/rescaled_final/1962_fw.mp4	0.0	104.1424560546875	0.10006499290466309
3	56.175045013427734	fix_pre	0		117	1.0	2.5	/experiments/knapen_AOT/AOT_stimuli/rescaled_final/0651_rv.mp4	0.0	104.24252104759216	1.0001640319824219
3	56.750231981277466	pulse	0	t		1.0	2.5	/experiments/knapen_AOT/AOT_stimuli/rescaled_final/0651_rv.mp4	0.0	104.8177080154419	
3	57.175209045410156	movie	1		242	1.0	2.5	/experiments/knapen_AOT/AOT_stimuli/rescaled_final/0651_rv.mp4	0.0	105.24268507957458	2.5004069805145264
3	58.35153794288635	pulse	1	t		1.0	2.5	/experiments/knapen_AOT/AOT_stimuli/rescaled_final/0651_rv.mp4	0.0	106.41901397705078	
3	59.67561602592468	fix_post	2		12	1.0	2.5	/experiments/knapen_AOT/AOT_stimuli/rescaled_final/0651_rv.mp4	0.0	107.74309206008911	0.09995198249816895
4	59.77556800842285	fix_pre	0		120	2.0	2.5	/experiments/knapen_AOT/AOT_stimuli/rescaled_final/0862_rv.mp4	0.0	107.84304404258728	1.0002501010894775
4	59.95083498954773	pulse	0	t		2.0	2.5	/experiments/knapen_AOT/AOT_stimuli/rescaled_final/0862_rv.mp4	0.0	108.01831102371216	
4	60.77581810951233	movie	1		242	2.0	2.5	/experiments/knapen_AOT/AOT_stimuli/rescaled_final/0862_rv.mp4	0.0	108.84329414367676	2.5004589557647705
4	61.55112910270691	pulse	1	t		2.0	2.5	/experiments/knapen_AOT/AOT_stimuli/rescaled_final/0862_rv.mp4	0.0	109.61860513687134	
4	63.15133595466614	pulse	1	t		2.0	2.5	/experiments/knapen_AOT/AOT_stimuli/rescaled_final/0862_rv.mp4	0.0	111.21881198883057	
4	63.2762770652771	fix_post	2		12	2.0	2.5	/experiments/knapen_AOT/AOT_stimuli/rescaled_final/0862_rv.mp4	0.0	111.34375309944153	0.09984993934631348
5	63.37612700462341	fix_pre	0		120	3.0	2.5	/experiments/knapen_AOT/AOT_stimuli/rescaled_final/0366_fw.mp4	0.0	111.44360303878784	1.0000889301300049
5	64.37621593475342	movie	1		242	3.0	2.5	/experiments/knapen_AOT/AOT_stimuli/rescaled_final/0366_fw.mp4	0.0	112.44369196891785	2.492030143737793
5	64.75145697593689	pulse	1	t		3.0	2.5	/experiments/knapen_AOT/AOT_stimuli/rescaled_final/0366_fw.mp4	0.0	112.81893301010132	
5	66.35174107551575	pulse	1	t		3.0	2.5	/experiments/knapen_AOT/AOT_stimuli/rescaled_final/0366_fw.mp4	0.0	114.41921710968018	
5	66.86824607849121	fix_post	2		12	3.0	2.5	/experiments/knapen_AOT/AOT_stimuli/rescaled_final/0366_fw.mp4	0.0	114.93572211265564	0.10001301765441895
6	66.96825909614563	fix_pre	0		119	4.0	2.5	/experiments/knapen_AOT/AOT_stimuli/rescaled_final/1695_rv.mp4	0.0	115.03573513031006	0.9918210506439209
6	67.95211005210876	pulse	0	t		4.0	2.5	/experiments/knapen_AOT/AOT_stimuli/rescaled_final/1695_rv.mp4	0.0	116.0195860862732	
6	67.96008014678955	movie	1		243	4.0	2.5	/experiments/knapen_AOT/AOT_stimuli/rescaled_final/1695_rv.mp4	0.0	116.02755618095398	2.5087389945983887
6	69.55279111862183	pulse	1	t		4.0	2.5	/experiments/knapen_AOT/AOT_stimuli/rescaled_final/1695_rv.mp4	0.0	117.62026715278625	
6	70.46881914138794	fix_post	2		12	4.0	2.5	/experiments/knapen_AOT/AOT_stimuli/rescaled_final/1695_rv.mp4	0.0	118.53629517555237	0.10002279281616211
7	70.5688419342041	fix_pre	0		120	5.0	2.5	/experiments/knapen_AOT/AOT_stimuli/rescaled_final/0403_fw.mp4	0.0	118.63631796836853	1.0001652240753174
7	71.15243601799011	pulse	0	t		5.0	2.5	/experiments/knapen_AOT/AOT_stimuli/rescaled_final/0403_fw.mp4	0.0	119.21991205215454	
7	71.56900715827942	movie	1		242	5.0	2.5	/experiments/knapen_AOT/AOT_stimuli/rescaled_final/0403_fw.mp4	0.0	119.63648319244385	2.5003998279571533
7	72.75267505645752	pulse	1	t		5.0	2.5	/experiments/knapen_AOT/AOT_stimuli/rescaled_final/0403_fw.mp4	0.0	120.82015109062195	
7	74.06940698623657	fix_post	2		12	5.0	2.5	/experiments/knapen_AOT/AOT_stimuli/rescaled_final/0403_fw.mp4	0.0	122.136883020401	0.09995603561401367
8	74.16936302185059	fix_pre	0		120	6.0	2.5	/experiments/knapen_AOT/AOT_stimuli/rescaled_final/1905_rv.mp4	0.0	122.23683905601501	1.0001730918884277
8	74.35291194915771	pulse	0	t		6.0	2.5	/experiments/knapen_AOT/AOT_stimuli/rescaled_final/1905_rv.mp4	0.0	122.42038798332214	
8	75.16953611373901	movie	1		242	6.0	2.5	/experiments/knapen_AOT/AOT_stimuli/rescaled_final/1905_rv.mp4	0.0	123.23701214790344	2.500548839569092
8	75.95326209068298	pulse	1	t		6.0	2.5	/experiments/knapen_AOT/AOT_stimuli/rescaled_final/1905_rv.mp4	0.0	124.02073812484741	
8	77.55314707756042	pulse	1	t		6.0	2.5	/experiments/knapen_AOT/AOT_stimuli/rescaled_final/1905_rv.mp4	0.0	125.62062311172485	
8	77.6700849533081	fix_post	2		12	6.0	2.5	/experiments/knapen_AOT/AOT_stimuli/rescaled_final/1905_rv.mp4	0.0	125.73756098747253	0.09990715980529785
9	77.7699921131134	fix_pre	0		120	7.0	2.5	blank	1.0	125.83746814727783	1.0000288486480713
9	78.77002096176147	movie	1		299	7.0	2.5	blank	1.0	126.8374969959259	2.492136001586914
9	79.15355610847473	pulse	1	t		7.0	2.5	blank	1.0	127.22103214263916	
9	80.75387001037598	pulse	1	t		7.0	2.5	blank	1.0	128.8213460445404	
9	81.26215696334839	fix_post	2		12	7.0	2.5	blank	1.0	129.32963299751282	0.09993600845336914
10	81.36209297180176	fix_pre	0		120	8.0	2.5	/experiments/knapen_AOT/AOT_stimuli/rescaled_final/0024_rv.mp4	0.0	129.4295690059662	1.0001180171966553
10	82.35418915748596	pulse	0	t		8.0	2.5	/experiments/knapen_AOT/AOT_stimuli/rescaled_final/0024_rv.mp4	0.0	130.4216651916504	
10	82.36221098899841	movie	1		244	8.0	2.5	/experiments/knapen_AOT/AOT_stimuli/rescaled_final/0024_rv.mp4	0.0	130.42968702316284	2.508784055709839
10	83.95508599281311	pulse	1	t		8.0	2.5	/experiments/knapen_AOT/AOT_stimuli/rescaled_final/0024_rv.mp4	0.0	132.02256202697754	
10	84.87099504470825	fix_post	2		12	8.0	2.5	/experiments/knapen_AOT/AOT_stimuli/rescaled_final/0024_rv.mp4	0.0	132.93847107887268	0.10008096694946289
11	84.97107601165771	fix_pre	0		120	9.0	2.5	/experiments/knapen_AOT/AOT_stimuli/rescaled_final/1338_rv.mp4	0.0	133.03855204582214	1.0000510215759277
11	85.5545859336853	pulse	0	t		9.0	2.5	/experiments/knapen_AOT/AOT_stimuli/rescaled_final/1338_rv.mp4	0.0	133.62206196784973	
11	85.97112703323364	movie	1		242	9.0	2.5	/experiments/knapen_AOT/AOT_stimuli/rescaled_final/1338_rv.mp4	0.0	134.03860306739807	2.5004079341888428
11	87.15491199493408	pulse	1	t		9.0	2.5	/experiments/knapen_AOT/AOT_stimuli/rescaled_final/1338_rv.mp4	0.0	135.2223880290985	
11	88.47153496742249	fix_post	2		12	9.0	2.5	/experiments/knapen_AOT/AOT_stimuli/rescaled_final/1338_rv.mp4	0.0	136.5390110015869	0.09997701644897461
12	88.57151198387146	fix_pre	0		120	10.0	2.5	/experiments/knapen_AOT/AOT_stimuli/rescaled_final/1211_fw.mp4	0.0	136.6389880180359	1.0001370906829834
12	88.75514602661133	pulse	0	t		10.0	2.5	/experiments/knapen_AOT/AOT_stimuli/rescaled_final/1211_fw.mp4	0.0	136.82262206077576	
12	89.57164907455444	movie	1		243	10.0	2.5	/experiments/knapen_AOT/AOT_stimuli/rescaled_final/1211_fw.mp4	0.0	137.63912510871887	2.5005130767822266
12	90.35533595085144	pulse	1	t		10.0	2.5	/experiments/knapen_AOT/AOT_stimuli/rescaled_final/1211_fw.mp4	0.0	138.42281198501587	
12	91.95568609237671	pulse	1	t		10.0	2.5	/experiments/knapen_AOT/AOT_stimuli/rescaled_final/1211_fw.mp4	0.0	140.02316212654114	
12	92.07216215133667	fix_post	2		12	10.0	2.5	/experiments/knapen_AOT/AOT_stimuli/rescaled_final/1211_fw.mp4	0.0	140.1396381855011	0.09996891021728516
13	92.17213106155396	fix_pre	0		120	11.0	2.5	/experiments/knapen_AOT/AOT_stimuli/rescaled_final/0331_fw.mp4	0.0	140.23960709571838	1.0000438690185547
13	93.17217493057251	movie	1		241	11.0	2.5	/experiments/knapen_AOT/AOT_stimuli/rescaled_final/0331_fw.mp4	0.0	141.23965096473694	2.4921200275421143
13	93.55624294281006	pulse	1	t		11.0	2.5	/experiments/knapen_AOT/AOT_stimuli/rescaled_final/0331_fw.mp4	0.0	141.6237189769745	
13	95.15599608421326	pulse	1	t		11.0	2.5	/experiments/knapen_AOT/AOT_stimuli/rescaled_final/0331_fw.mp4	0.0	143.22347211837769	
13	95.66429495811462	fix_post	2		12	11.0	2.5	/experiments/knapen_AOT/AOT_stimuli/rescaled_final/0331_fw.mp4	0.0	143.73177099227905	0.09996700286865234
14	95.76426196098328	fix_pre	0		120	12.0	2.5	/experiments/knapen_AOT/AOT_stimuli/rescaled_final/1589_rv.mp4	0.0	143.8317379951477	1.0000860691070557
14	96.75624203681946	pulse	0	t		12.0	2.5	/experiments/knapen_AOT/AOT_stimuli/rescaled_final/1589_rv.mp4	0.0	144.8237180709839	
14	96.76434803009033	movie	1		244	12.0	2.5	/experiments/knapen_AOT/AOT_stimuli/rescaled_final/1589_rv.mp4	0.0	144.83182406425476	2.5088300704956055
14	98.35708999633789	pulse	1	t		12.0	2.5	/experiments/knapen_AOT/AOT_stimuli/rescaled_final/1589_rv.mp4	0.0	146.42456603050232	
14	99.27317810058594	fix_post	2		12	12.0	2.5	/experiments/knapen_AOT/AOT_stimuli/rescaled_final/1589_rv.mp4	0.0	147.34065413475037	0.10006189346313477
15	99.37323999404907	fix_pre	0		120	13.0	2.5	blank	1.0	147.4407160282135	1.0000081062316895
15	99.95682001113892	pulse	0	t		13.0	2.5	blank	1.0	148.02429604530334	
15	100.37324810028076	movie	1		300	13.0	2.5	blank	1.0	148.4407241344452	2.5004398822784424
15	101.55698800086975	pulse	1	t		13.0	2.5	blank	1.0	149.62446403503418	
15	102.8736879825592	fix_post	2		12	13.0	2.5	blank	1.0	150.94116401672363	0.10004115104675293
16	102.97372913360596	fix_pre	0		120	14.0	2.5	/experiments/knapen_AOT/AOT_stimuli/rescaled_final/0133_rv.mp4	0.0	151.04120516777039	1.0000720024108887
16	103.15718507766724	pulse	0	t		14.0	2.5	/experiments/knapen_AOT/AOT_stimuli/rescaled_final/0133_rv.mp4	0.0	151.22466111183167	
16	103.97380113601685	movie	1		242	14.0	2.5	/experiments/knapen_AOT/AOT_stimuli/rescaled_final/0133_rv.mp4	0.0	152.04127717018127	2.5005128383636475
16	104.75742506980896	pulse	1	t		14.0	2.5	/experiments/knapen_AOT/AOT_stimuli/rescaled_final/0133_rv.mp4	0.0	152.8249011039734	
16	106.35754013061523	pulse	1	t		14.0	2.5	/experiments/knapen_AOT/AOT_stimuli/rescaled_final/0133_rv.mp4	0.0	154.42501616477966	
16	106.4743139743805	fix_post	2		12	14.0	2.5	/experiments/knapen_AOT/AOT_stimuli/rescaled_final/0133_rv.mp4	0.0	154.54179000854492	0.09992218017578125
17	106.57423615455627	fix_pre	0		120	15.0	2.5	/experiments/knapen_AOT/AOT_stimuli/rescaled_final/1885_fw.mp4	0.0	154.6417121887207	1.0000708103179932
17	107.57430696487427	movie	1		242	15.0	2.5	/experiments/knapen_AOT/AOT_stimuli/rescaled_final/1885_fw.mp4	0.0	155.6417829990387	2.492096185684204
17	107.95924401283264	pulse	1	t		15.0	2.5	/experiments/knapen_AOT/AOT_stimuli/rescaled_final/1885_fw.mp4	0.0	156.02672004699707	
17	109.55083703994751	pulse	1	t		15.0	2.5	/experiments/knapen_AOT/AOT_stimuli/rescaled_final/1885_fw.mp4	0.0	157.61831307411194	
17	110.06640315055847	fix_post	2		12	15.0	2.5	/experiments/knapen_AOT/AOT_stimuli/rescaled_final/1885_fw.mp4	0.0	158.1338791847229	0.0999758243560791
18	110.16637897491455	fix_pre	0		120	16.0	2.5	/experiments/knapen_AOT/AOT_stimuli/rescaled_final/0103_rv.mp4	0.0	158.23385500907898	1.0002009868621826
18	111.15105199813843	pulse	0	t		16.0	2.5	/experiments/knapen_AOT/AOT_stimuli/rescaled_final/0103_rv.mp4	0.0	159.21852803230286	
18	111.16657996177673	movie	1		243	16.0	2.5	/experiments/knapen_AOT/AOT_stimuli/rescaled_final/0103_rv.mp4	0.0	159.23405599594116	2.5087151527404785
18	112.75921201705933	pulse	1	t		16.0	2.5	/experiments/knapen_AOT/AOT_stimuli/rescaled_final/0103_rv.mp4	0.0	160.82668805122375	
18	113.67529511451721	fix_post	2		12	16.0	2.5	/experiments/knapen_AOT/AOT_stimuli/rescaled_final/0103_rv.mp4	0.0	161.74277114868164	0.09998798370361328
19	113.77528309822083	fix_pre	0		120	17.0	2.5	/experiments/knapen_AOT/AOT_stimuli/rescaled_final/2004_fw.mp4	0.0	161.84275913238525	1.0001819133758545
19	114.35075211524963	pulse	0	t		17.0	2.5	/experiments/knapen_AOT/AOT_stimuli/rescaled_final/2004_fw.mp4	0.0	162.41822814941406	
19	114.77546501159668	movie	1		242	17.0	2.5	/experiments/knapen_AOT/AOT_stimuli/rescaled_final/2004_fw.mp4	0.0	162.8429410457611	2.500427007675171
19	115.95179510116577	pulse	1	t		17.0	2.5	/experiments/knapen_AOT/AOT_stimuli/rescaled_final/2004_fw.mp4	0.0	164.0192711353302	
19	117.27589201927185	fix_post	2		12	17.0	2.5	/experiments/knapen_AOT/AOT_stimuli/rescaled_final/2004_fw.mp4	0.0	165.34336805343628	0.09993791580200195
20	117.37582993507385	fix_pre	0		120	18.0	2.5	/experiments/knapen_AOT/AOT_stimuli/rescaled_final/0827_fw.mp4	0.0	165.44330596923828	1.0001130104064941
20	117.55095410346985	pulse	0	t		18.0	2.5	/experiments/knapen_AOT/AOT_stimuli/rescaled_final/0827_fw.mp4	0.0	165.61843013763428	
20	118.37594294548035	movie	1		244	18.0	2.5	/experiments/knapen_AOT/AOT_stimuli/rescaled_final/0827_fw.mp4	0.0	166.44341897964478	2.5004160404205322
20	119.1511709690094	pulse	1	t		18.0	2.5	/experiments/knapen_AOT/AOT_stimuli/rescaled_final/0827_fw.mp4	0.0	167.21864700317383	
20	120.75142002105713	pulse	1	t		18.0	2.5	/experiments/knapen_AOT/AOT_stimuli/rescaled_final/0827_fw.mp4	0.0	168.81889605522156	
20	120.87635898590088	fix_post	2		10	18.0	2.5	/experiments/knapen_AOT/AOT_stimuli/rescaled_final/0827_fw.mp4	0.0	168.9438350200653	0.10002017021179199
21	120.97637915611267	fix_pre	0		119	19.0	2.5	blank	1.0	169.0438551902771	0.9917938709259033
21	121.96817302703857	movie	1		300	19.0	2.5	blank	1.0	170.035649061203	2.500359058380127
21	122.35181999206543	pulse	1	t		19.0	2.5	blank	1.0	170.41929602622986	
21	123.95195412635803	pulse	1	t		19.0	2.5	blank	1.0	172.01943016052246	
21	124.4685320854187	fix_post	2		12	19.0	2.5	blank	1.0	172.53600811958313	0.10005307197570801
22	124.56858515739441	fix_pre	0		119	20.0	2.5	/experiments/knapen_AOT/AOT_stimuli/rescaled_final/1881_rv.mp4	0.0	172.63606119155884	0.9917418956756592
22	125.55219411849976	pulse	0	t		20.0	2.5	/experiments/knapen_AOT/AOT_stimuli/rescaled_final/1881_rv.mp4	0.0	173.61967015266418	
22	125.56032705307007	movie	1		245	20.0	2.5	/experiments/knapen_AOT/AOT_stimuli/rescaled_final/1881_rv.mp4	0.0	173.6278030872345	2.5087730884552
22	127.15367794036865	pulse	1	t		20.0	2.5	/experiments/knapen_AOT/AOT_stimuli/rescaled_final/1881_rv.mp4	0.0	175.22115397453308	
22	128.06910014152527	fix_post	2		12	20.0	2.5	/experiments/knapen_AOT/AOT_stimuli/rescaled_final/1881_rv.mp4	0.0	176.1365761756897	0.09996390342712402
23	128.1690640449524	fix_pre	0		120	21.0	2.5	/experiments/knapen_AOT/AOT_stimuli/rescaled_final/0869_rv.mp4	0.0	176.23654007911682	1.0001299381256104
23	128.75278210639954	pulse	0	t		21.0	2.5	/experiments/knapen_AOT/AOT_stimuli/rescaled_final/0869_rv.mp4	0.0	176.82025814056396	
23	129.169193983078	movie	1		243	21.0	2.5	/experiments/knapen_AOT/AOT_stimuli/rescaled_final/0869_rv.mp4	0.0	177.23667001724243	2.5005581378936768
23	130.35311794281006	pulse	1	t		21.0	2.5	/experiments/knapen_AOT/AOT_stimuli/rescaled_final/0869_rv.mp4	0.0	178.4205939769745	
23	131.66975212097168	fix_post	2		12	21.0	2.5	/experiments/knapen_AOT/AOT_stimuli/rescaled_final/0869_rv.mp4	0.0	179.7372281551361	0.09989094734191895
24	131.7696430683136	fix_pre	0		120	22.0	2.5	/experiments/knapen_AOT/AOT_stimuli/rescaled_final/0528_rv.mp4	0.0	179.83711910247803	1.0001599788665771
24	131.9532949924469	pulse	0	t		22.0	2.5	/experiments/knapen_AOT/AOT_stimuli/rescaled_final/0528_rv.mp4	0.0	180.02077102661133	
24	132.76980304718018	movie	1		244	22.0	2.5	/experiments/knapen_AOT/AOT_stimuli/rescaled_final/0528_rv.mp4	0.0	180.8372790813446	2.5003769397735596
24	133.5533311367035	pulse	1	t		22.0	2.5	/experiments/knapen_AOT/AOT_stimuli/rescaled_final/0528_rv.mp4	0.0	181.62080717086792	
24	135.1552300453186	pulse	1	t		22.0	2.5	/experiments/knapen_AOT/AOT_stimuli/rescaled_final/0528_rv.mp4	0.0	183.22270607948303	
24	135.27017998695374	fix_post	2		12	22.0	2.5	/experiments/knapen_AOT/AOT_stimuli/rescaled_final/0528_rv.mp4	0.0	183.33765602111816	0.09999299049377441
25	135.3701729774475	fix_pre	0		119	23.0	2.5	/experiments/knapen_AOT/AOT_stimuli/rescaled_final/1300_rv.mp4	0.0	183.43764901161194	0.9917600154876709
25	136.36193299293518	movie	1		245	23.0	2.5	/experiments/knapen_AOT/AOT_stimuli/rescaled_final/1300_rv.mp4	0.0	184.4294090270996	2.5003790855407715
25	136.75392293930054	pulse	1	t		23.0	2.5	/experiments/knapen_AOT/AOT_stimuli/rescaled_final/1300_rv.mp4	0.0	184.82139897346497	
25	138.35420203208923	pulse	1	t		23.0	2.5	/experiments/knapen_AOT/AOT_stimuli/rescaled_final/1300_rv.mp4	0.0	186.42167806625366	
25	138.86231207847595	fix_post	2		12	23.0	2.5	/experiments/knapen_AOT/AOT_stimuli/rescaled_final/1300_rv.mp4	0.0	186.92978811264038	0.10001587867736816
26	138.96232795715332	fix_pre	0		120	24.0	2.5	/experiments/knapen_AOT/AOT_stimuli/rescaled_final/1383_fw.mp4	0.0	187.02980399131775	1.0002350807189941
26	139.95438194274902	pulse	0	t		24.0	2.5	/experiments/knapen_AOT/AOT_stimuli/rescaled_final/1383_fw.mp4	0.0	188.02185797691345	
26	139.96256303787231	movie	1		243	24.0	2.5	/experiments/knapen_AOT/AOT_stimuli/rescaled_final/1383_fw.mp4	0.0	188.03003907203674	2.5086350440979004
26	141.55513095855713	pulse	1	t		24.0	2.5	/experiments/knapen_AOT/AOT_stimuli/rescaled_final/1383_fw.mp4	0.0	189.62260699272156	
26	142.47119808197021	fix_post	2		12	24.0	2.5	/experiments/knapen_AOT/AOT_stimuli/rescaled_final/1383_fw.mp4	0.0	190.53867411613464	0.0999898910522461
27	142.57118797302246	fix_pre	0		120	25.0	2.5	/experiments/knapen_AOT/AOT_stimuli/rescaled_final/0897_rv.mp4	0.0	190.6386640071869	1.0001671314239502
27	143.1549220085144	pulse	0	t		25.0	2.5	/experiments/knapen_AOT/AOT_stimuli/rescaled_final/0897_rv.mp4	0.0	191.22239804267883	
27	143.5713551044464	movie	1		243	25.0	2.5	/experiments/knapen_AOT/AOT_stimuli/rescaled_final/0897_rv.mp4	0.0	191.63883113861084	2.500520944595337
27	144.75523614883423	pulse	1	t		25.0	2.5	/experiments/knapen_AOT/AOT_stimuli/rescaled_final/0897_rv.mp4	0.0	192.82271218299866	
27	146.07187604904175	fix_post	2		12	25.0	2.5	/experiments/knapen_AOT/AOT_stimuli/rescaled_final/0897_rv.mp4	0.0	194.13935208320618	0.09991693496704102
28	146.1717929840088	fix_pre	0		120	26.0	2.5	/experiments/knapen_AOT/AOT_stimuli/rescaled_final/1435_rv.mp4	0.0	194.23926901817322	1.0001389980316162
28	146.35532402992249	pulse	0	t		26.0	2.5	/experiments/knapen_AOT/AOT_stimuli/rescaled_final/1435_rv.mp4	0.0	194.4228000640869	
28	147.1719319820404	movie	1		242	26.0	2.5	/experiments/knapen_AOT/AOT_stimuli/rescaled_final/1435_rv.mp4	0.0	195.23940801620483	2.500368118286133
28	147.95551705360413	pulse	1	t		26.0	2.5	/experiments/knapen_AOT/AOT_stimuli/rescaled_final/1435_rv.mp4	0.0	196.02299308776855	
28	149.5554871559143	pulse	1	t		26.0	2.5	/experiments/knapen_AOT/AOT_stimuli/rescaled_final/1435_rv.mp4	0.0	197.62296319007874	
28	149.67230010032654	fix_post	2		12	26.0	2.5	/experiments/knapen_AOT/AOT_stimuli/rescaled_final/1435_rv.mp4	0.0	197.73977613449097	0.09998583793640137
29	149.77228593826294	fix_pre	0		120	27.0	2.5	blank	1.0	197.83976197242737	1.0001890659332275
29	150.77247500419617	movie	1		299	27.0	2.5	blank	1.0	198.8399510383606	2.492069959640503
29	151.1560640335083	pulse	1	t		27.0	2.5	blank	1.0	199.22354006767273	
29	152.7562780380249	pulse	1	t		27.0	2.5	blank	1.0	200.82375407218933	
29	153.26454496383667	fix_post	2		12	27.0	2.5	blank	1.0	201.3320209980011	0.0999441146850586
30	153.36448907852173	fix_pre	0		120	28.0	2.5	/experiments/knapen_AOT/AOT_stimuli/rescaled_final/1996_fw.mp4	0.0	201.43196511268616	1.0002470016479492
30	154.35640811920166	pulse	0	t		28.0	2.5	/experiments/knapen_AOT/AOT_stimuli/rescaled_final/1996_fw.mp4	0.0	202.4238841533661	
30	154.36473608016968	movie	1		243	28.0	2.5	/experiments/knapen_AOT/AOT_stimuli/rescaled_final/1996_fw.mp4	0.0	202.4322121143341	2.5086019039154053
30	155.95798802375793	pulse	1	t		28.0	2.5	/experiments/knapen_AOT/AOT_stimuli/rescaled_final/1996_fw.mp4	0.0	204.02546405792236	
30	156.87333798408508	fix_post	2		12	28.0	2.5	/experiments/knapen_AOT/AOT_stimuli/rescaled_final/1996_fw.mp4	0.0	204.9408140182495	0.09999704360961914
31	156.9733350276947	fix_pre	0		120	29.0	2.5	/experiments/knapen_AOT/AOT_stimuli/rescaled_final/1601_fw.mp4	0.0	205.04081106185913	1.0002179145812988
31	157.55709195137024	pulse	0	t		29.0	2.5	/experiments/knapen_AOT/AOT_stimuli/rescaled_final/1601_fw.mp4	0.0	205.62456798553467	
31	157.973552942276	movie	1		242	29.0	2.5	/experiments/knapen_AOT/AOT_stimuli/rescaled_final/1601_fw.mp4	0.0	206.04102897644043	2.500481128692627
31	159.15322494506836	pulse	1	t		29.0	2.5	/experiments/knapen_AOT/AOT_stimuli/rescaled_final/1601_fw.mp4	0.0	207.2207009792328	
31	160.47403407096863	fix_post	2		12	29.0	2.5	/experiments/knapen_AOT/AOT_stimuli/rescaled_final/1601_fw.mp4	0.0	208.54151010513306	0.09986305236816406
32	160.5738971233368	fix_pre	0		120	30.0	2.5	/experiments/knapen_AOT/AOT_stimuli/rescaled_final/1206_fw.mp4	0.0	208.64137315750122	1.0001709461212158
32	160.75748896598816	pulse	0	t		30.0	2.5	/experiments/knapen_AOT/AOT_stimuli/rescaled_final/1206_fw.mp4	0.0	208.8249650001526	
32	161.574068069458	movie	1		243	30.0	2.5	/experiments/knapen_AOT/AOT_stimuli/rescaled_final/1206_fw.mp4	0.0	209.64154410362244	2.500372886657715
32	162.35029101371765	pulse	1	t		30.0	2.5	/experiments/knapen_AOT/AOT_stimuli/rescaled_final/1206_fw.mp4	0.0	210.41776704788208	
32	163.957839012146	pulse	1	t		30.0	2.5	/experiments/knapen_AOT/AOT_stimuli/rescaled_final/1206_fw.mp4	0.0	212.02531504631042	
32	164.07444095611572	fix_post	2		11	30.0	2.5	/experiments/knapen_AOT/AOT_stimuli/rescaled_final/1206_fw.mp4	0.0	212.14191699028015	0.09169816970825195
33	164.16613912582397	fix_pre	0		120	31.0	2.5	/experiments/knapen_AOT/AOT_stimuli/rescaled_final/0996_fw.mp4	0.0	212.2336151599884	1.000121831893921
33	165.1662609577179	movie	1		243	31.0	2.5	/experiments/knapen_AOT/AOT_stimuli/rescaled_final/0996_fw.mp4	0.0	213.23373699188232	2.5005249977111816
33	165.550950050354	pulse	1	t		31.0	2.5	/experiments/knapen_AOT/AOT_stimuli/rescaled_final/0996_fw.mp4	0.0	213.61842608451843	
33	167.15110301971436	pulse	1	t		31.0	2.5	/experiments/knapen_AOT/AOT_stimuli/rescaled_final/0996_fw.mp4	0.0	215.21857905387878	
33	167.66678595542908	fix_post	2		12	31.0	2.5	/experiments/knapen_AOT/AOT_stimuli/rescaled_final/0996_fw.mp4	0.0	215.7342619895935	0.09983015060424805
34	167.76661610603333	fix_pre	0		119	32.0	2.5	/experiments/knapen_AOT/AOT_stimuli/rescaled_final/1225_rv.mp4	0.0	215.83409214019775	0.9918849468231201
34	168.7504620552063	pulse	0	t		32.0	2.5	/experiments/knapen_AOT/AOT_stimuli/rescaled_final/1225_rv.mp4	0.0	216.81793808937073	
34	168.75850105285645	movie	1		244	32.0	2.5	/experiments/knapen_AOT/AOT_stimuli/rescaled_final/1225_rv.mp4	0.0	216.82597708702087	2.5087060928344727
34	170.35170102119446	pulse	1	t		32.0	2.5	/experiments/knapen_AOT/AOT_stimuli/rescaled_final/1225_rv.mp4	0.0	218.4191770553589	
34	171.26720714569092	fix_post	2		12	32.0	2.5	/experiments/knapen_AOT/AOT_stimuli/rescaled_final/1225_rv.mp4	0.0	219.33468317985535	0.09996986389160156
35	171.36717700958252	fix_pre	0		120	33.0	2.5	/experiments/knapen_AOT/AOT_stimuli/rescaled_final/0331_rv.mp4	0.0	219.43465304374695	1.0001749992370605
35	171.950777053833	pulse	0	t		33.0	2.5	/experiments/knapen_AOT/AOT_stimuli/rescaled_final/0331_rv.mp4	0.0	220.01825308799744	
35	172.36735200881958	movie	1		242	33.0	2.5	/experiments/knapen_AOT/AOT_stimuli/rescaled_final/0331_rv.mp4	0.0	220.434828042984	2.500399112701416
35	173.55111002922058	pulse	1	t		33.0	2.5	/experiments/knapen_AOT/AOT_stimuli/rescaled_final/0331_rv.mp4	0.0	221.618586063385	
35	174.867751121521	fix_post	2		12	33.0	2.5	/experiments/knapen_AOT/AOT_stimuli/rescaled_final/0331_rv.mp4	0.0	222.93522715568542	0.09993600845336914
36	174.96768712997437	fix_pre	0		120	34.0	2.5	/experiments/knapen_AOT/AOT_stimuli/rescaled_final/0176_fw.mp4	0.0	223.0351631641388	1.000229835510254
36	175.1512930393219	pulse	0	t		34.0	2.5	/experiments/knapen_AOT/AOT_stimuli/rescaled_final/0176_fw.mp4	0.0	223.21876907348633	
36	175.96791696548462	movie	1		242	34.0	2.5	/experiments/knapen_AOT/AOT_stimuli/rescaled_final/0176_fw.mp4	0.0	224.03539299964905	2.5003581047058105
36	176.7514669895172	pulse	1	t		34.0	2.5	/experiments/knapen_AOT/AOT_stimuli/rescaled_final/0176_fw.mp4	0.0	224.81894302368164	
36	178.351891040802	pulse	1	t		34.0	2.5	/experiments/knapen_AOT/AOT_stimuli/rescaled_final/0176_fw.mp4	0.0	226.41936707496643	
36	178.46827507019043	fix_post	2		12	34.0	2.5	/experiments/knapen_AOT/AOT_stimuli/rescaled_final/0176_fw.mp4	0.0	226.53575110435486	0.09999895095825195
37	178.56827402114868	fix_pre	0		120	35.0	2.5	blank	1.0	226.6357500553131	1.0001111030578613
37	179.56838512420654	movie	1		296	35.0	2.5	blank	1.0	227.63586115837097	2.492095947265625
37	179.95196413993835	pulse	1	t		35.0	2.5	blank	1.0	228.01944017410278	
37	181.55225610733032	pulse	1	t		35.0	2.5	blank	1.0	229.61973214149475	
37	182.06048107147217	fix_post	2		12	35.0	2.5	blank	1.0	230.1279571056366	0.09994101524353027
38	182.1604220867157	fix_pre	0		120	36.0	2.5	/experiments/knapen_AOT/AOT_stimuli/rescaled_final/1287_rv.mp4	0.0	230.22789812088013	1.0002288818359375
38	183.15241312980652	pulse	0	t		36.0	2.5	/experiments/knapen_AOT/AOT_stimuli/rescaled_final/1287_rv.mp4	0.0	231.21988916397095	
38	183.16065096855164	movie	1		243	36.0	2.5	/experiments/knapen_AOT/AOT_stimuli/rescaled_final/1287_rv.mp4	0.0	231.22812700271606	2.50862717628479
38	184.7532560825348	pulse	1	t		36.0	2.5	/experiments/knapen_AOT/AOT_stimuli/rescaled_final/1287_rv.mp4	0.0	232.82073211669922	
38	185.66927814483643	fix_post	2		12	36.0	2.5	/experiments/knapen_AOT/AOT_stimuli/rescaled_final/1287_rv.mp4	0.0	233.73675417900085	0.10004281997680664
39	185.76932096481323	fix_pre	0		120	37.0	2.5	/experiments/knapen_AOT/AOT_stimuli/rescaled_final/0331_rv.mp4	0.0	233.83679699897766	1.0001521110534668
39	186.35297203063965	pulse	0	t		37.0	2.5	/experiments/knapen_AOT/AOT_stimuli/rescaled_final/0331_rv.mp4	0.0	234.42044806480408	
39	186.7694730758667	movie	1		242	37.0	2.5	/experiments/knapen_AOT/AOT_stimuli/rescaled_final/0331_rv.mp4	0.0	234.83694911003113	2.500417947769165
39	187.95332407951355	pulse	1	t		37.0	2.5	/experiments/knapen_AOT/AOT_stimuli/rescaled_final/0331_rv.mp4	0.0	236.02080011367798	
39	189.26989102363586	fix_post	2		12	37.0	2.5	/experiments/knapen_AOT/AOT_stimuli/rescaled_final/0331_rv.mp4	0.0	237.3373670578003	0.0999901294708252
40	189.3698811531067	fix_pre	0		120	38.0	2.5	/experiments/knapen_AOT/AOT_stimuli/rescaled_final/0540_rv.mp4	0.0	237.43735718727112	1.0002028942108154
40	189.55333495140076	pulse	0	t		38.0	2.5	/experiments/knapen_AOT/AOT_stimuli/rescaled_final/0540_rv.mp4	0.0	237.62081098556519	
40	190.3700840473175	movie	1		244	38.0	2.5	/experiments/knapen_AOT/AOT_stimuli/rescaled_final/0540_rv.mp4	0.0	238.43756008148193	2.500278949737549
40	191.15366506576538	pulse	1	t		38.0	2.5	/experiments/knapen_AOT/AOT_stimuli/rescaled_final/0540_rv.mp4	0.0	239.2211410999298	
40	192.75145316123962	pulse	1	t		38.0	2.5	/experiments/knapen_AOT/AOT_stimuli/rescaled_final/0540_rv.mp4	0.0	240.81892919540405	
40	192.87036299705505	fix_post	2		12	38.0	2.5	/experiments/knapen_AOT/AOT_stimuli/rescaled_final/0540_rv.mp4	0.0	240.93783903121948	0.10000801086425781
41	192.9703710079193	fix_pre	0		119	39.0	2.5	/experiments/knapen_AOT/AOT_stimuli/rescaled_final/1195_fw.mp4	0.0	241.03784704208374	0.9918291568756104
41	193.96220016479492	movie	1		243	39.0	2.5	/experiments/knapen_AOT/AOT_stimuli/rescaled_final/1195_fw.mp4	0.0	242.02967619895935	2.500485897064209
41	194.35417199134827	pulse	1	t		39.0	2.5	/experiments/knapen_AOT/AOT_stimuli/rescaled_final/1195_fw.mp4	0.0	242.4216480255127	
41	195.9543559551239	pulse	1	t		39.0	2.5	/experiments/knapen_AOT/AOT_stimuli/rescaled_final/1195_fw.mp4	0.0	244.02183198928833	
41	196.46268606185913	fix_post	2		12	39.0	2.5	/experiments/knapen_AOT/AOT_stimuli/rescaled_final/1195_fw.mp4	0.0	244.53016209602356	0.09995198249816895
42	196.5626380443573	fix_pre	0		120	40.0	2.5	/experiments/knapen_AOT/AOT_stimuli/rescaled_final/0229_rv.mp4	0.0	244.63011407852173	1.0001399517059326
42	197.55457210540771	pulse	0	t		40.0	2.5	/experiments/knapen_AOT/AOT_stimuli/rescaled_final/0229_rv.mp4	0.0	245.62204813957214	
42	197.56277799606323	movie	1		243	40.0	2.5	/experiments/knapen_AOT/AOT_stimuli/rescaled_final/0229_rv.mp4	0.0	245.63025403022766	2.5086910724639893
42	199.1553249359131	pulse	1	t		40.0	2.5	/experiments/knapen_AOT/AOT_stimuli/rescaled_final/0229_rv.mp4	0.0	247.22280097007751	
42	200.07146906852722	fix_post	2		12	40.0	2.5	/experiments/knapen_AOT/AOT_stimuli/rescaled_final/0229_rv.mp4	0.0	248.13894510269165	0.10001707077026367
43	200.17148613929749	fix_pre	0		120	41.0	2.5	/experiments/knapen_AOT/AOT_stimuli/rescaled_final/0082_rv.mp4	0.0	248.2389621734619	1.0001838207244873
43	200.7551290988922	pulse	0	t		41.0	2.5	/experiments/knapen_AOT/AOT_stimuli/rescaled_final/0082_rv.mp4	0.0	248.82260513305664	
43	201.17166996002197	movie	1		242	41.0	2.5	/experiments/knapen_AOT/AOT_stimuli/rescaled_final/0082_rv.mp4	0.0	249.2391459941864	2.5004611015319824
43	202.3553810119629	pulse	1	t		41.0	2.5	/experiments/knapen_AOT/AOT_stimuli/rescaled_final/0082_rv.mp4	0.0	250.42285704612732	
43	203.67213106155396	fix_post	2		12	41.0	2.5	/experiments/knapen_AOT/AOT_stimuli/rescaled_final/0082_rv.mp4	0.0	251.73960709571838	0.09988999366760254
44	203.77202105522156	fix_pre	0		120	42.0	2.5	blank	1.0	251.839497089386	1.000154972076416
44	203.95553612709045	pulse	0	t		42.0	2.5	blank	1.0	252.02301216125488	
44	204.77217602729797	movie	1		300	42.0	2.5	blank	1.0	252.8396520614624	2.5003459453582764
44	205.55590415000916	pulse	1	t		42.0	2.5	blank	1.0	253.62338018417358	
44	207.15604496002197	pulse	1	t		42.0	2.5	blank	1.0	255.2235209941864	
44	207.27252197265625	fix_post	2		12	42.0	2.5	blank	1.0	255.33999800682068	0.10004496574401855
45	207.37256693840027	fix_pre	0		120	43.0	2.5	/experiments/knapen_AOT/AOT_stimuli/rescaled_final/0158_rv.mp4	0.0	255.4400429725647	1.0001280307769775
45	208.37269496917725	movie	1		241	43.0	2.5	/experiments/knapen_AOT/AOT_stimuli/rescaled_final/0158_rv.mp4	0.0	256.4401710033417	2.4922561645507812
45	208.7568290233612	pulse	1	t		43.0	2.5	/experiments/knapen_AOT/AOT_stimuli/rescaled_final/0158_rv.mp4	0.0	256.82430505752563	
45	210.35647797584534	pulse	1	t		43.0	2.5	/experiments/knapen_AOT/AOT_stimuli/rescaled_final/0158_rv.mp4	0.0	258.42395401000977	
45	210.86495113372803	fix_post	2		12	43.0	2.5	/experiments/knapen_AOT/AOT_stimuli/rescaled_final/0158_rv.mp4	0.0	258.93242716789246	0.09982800483703613
46	210.96477913856506	fix_pre	0		120	44.0	2.5	/experiments/knapen_AOT/AOT_stimuli/rescaled_final/1320_fw.mp4	0.0	259.0322551727295	1.0001349449157715
46	211.9567790031433	pulse	0	t		44.0	2.5	/experiments/knapen_AOT/AOT_stimuli/rescaled_final/1320_fw.mp4	0.0	260.02425503730774	
46	211.96491408348083	movie	1		244	44.0	2.5	/experiments/knapen_AOT/AOT_stimuli/rescaled_final/1320_fw.mp4	0.0	260.03239011764526	2.5087029933929443
46	213.55763006210327	pulse	1	t		44.0	2.5	/experiments/knapen_AOT/AOT_stimuli/rescaled_final/1320_fw.mp4	0.0	261.6251060962677	
46	214.47361707687378	fix_post	2		12	44.0	2.5	/experiments/knapen_AOT/AOT_stimuli/rescaled_final/1320_fw.mp4	0.0	262.5410931110382	0.10001206398010254
47	214.57362914085388	fix_pre	0		120	45.0	2.5	/experiments/knapen_AOT/AOT_stimuli/rescaled_final/0561_fw.mp4	0.0	262.6411051750183	1.0002238750457764
47	215.1572461128235	pulse	0	t		45.0	2.5	/experiments/knapen_AOT/AOT_stimuli/rescaled_final/0561_fw.mp4	0.0	263.2247221469879	
47	215.57385301589966	movie	1		242	45.0	2.5	/experiments/knapen_AOT/AOT_stimuli/rescaled_final/0561_fw.mp4	0.0	263.6413290500641	2.5004050731658936
47	216.75750994682312	pulse	1	t		45.0	2.5	/experiments/knapen_AOT/AOT_stimuli/rescaled_final/0561_fw.mp4	0.0	264.82498598098755	
47	218.07425808906555	fix_post	2		12	45.0	2.5	/experiments/knapen_AOT/AOT_stimuli/rescaled_final/0561_fw.mp4	0.0	266.14173412323	0.09992790222167969
48	218.17418599128723	fix_pre	0		120	46.0	2.5	/experiments/knapen_AOT/AOT_stimuli/rescaled_final/0277_fw.mp4	0.0	266.24166202545166	1.0000979900360107
48	218.35770297050476	pulse	0	t		46.0	2.5	/experiments/knapen_AOT/AOT_stimuli/rescaled_final/0277_fw.mp4	0.0	266.4251790046692	
48	219.17428398132324	movie	1		242	46.0	2.5	/experiments/knapen_AOT/AOT_stimuli/rescaled_final/0277_fw.mp4	0.0	267.24176001548767	2.5005600452423096
48	219.9580090045929	pulse	1	t		46.0	2.5	/experiments/knapen_AOT/AOT_stimuli/rescaled_final/0277_fw.mp4	0.0	268.0254850387573	
48	221.55877804756165	pulse	1	t		46.0	2.5	/experiments/knapen_AOT/AOT_stimuli/rescaled_final/0277_fw.mp4	0.0	269.6262540817261	
48	221.67484402656555	fix_post	2		12	46.0	2.5	/experiments/knapen_AOT/AOT_stimuli/rescaled_final/0277_fw.mp4	0.0	269.74232006073	0.09982109069824219
49	221.7746651172638	fix_pre	0		120	47.0	2.5	/experiments/knapen_AOT/AOT_stimuli/rescaled_final/0607_rv.mp4	0.0	269.8421411514282	1.0002210140228271
49	222.77488613128662	movie	1		242	47.0	2.5	/experiments/knapen_AOT/AOT_stimuli/rescaled_final/0607_rv.mp4	0.0	270.84236216545105	2.492182970046997
49	223.15984296798706	pulse	1	t		47.0	2.5	/experiments/knapen_AOT/AOT_stimuli/rescaled_final/0607_rv.mp4	0.0	271.2273190021515	
49	224.7513129711151	pulse	1	t		47.0	2.5	/experiments/knapen_AOT/AOT_stimuli/rescaled_final/0607_rv.mp4	0.0	272.81878900527954	
49	225.26706910133362	fix_post	2		12	47.0	2.5	/experiments/knapen_AOT/AOT_stimuli/rescaled_final/0607_rv.mp4	0.0	273.33454513549805	0.09987282752990723
50	225.36694192886353	fix_pre	0		120	48.0	2.5	blank	1.0	273.43441796302795	1.0001111030578613
50	226.35138702392578	pulse	0	t		48.0	2.5	blank	1.0	274.4188630580902	
50	226.3670530319214	movie	1		301	48.0	2.5	blank	1.0	274.4345290660858	2.508755922317505
50	227.9516100883484	pulse	1	t		48.0	2.5	blank	1.0	276.0190861225128	
50	228.8758089542389	fix_post	2		12	48.0	2.5	blank	1.0	276.9432849884033	0.09998202323913574
51	228.97579097747803	fix_pre	0		120	49.0	2.5	/experiments/knapen_AOT/AOT_stimuli/rescaled_final/0824_fw.mp4	0.0	277.04326701164246	1.0001840591430664
51	229.5511190891266	pulse	0	t		49.0	2.5	/experiments/knapen_AOT/AOT_stimuli/rescaled_final/0824_fw.mp4	0.0	277.618595123291	
51	229.9759750366211	movie	1		240	49.0	2.5	/experiments/knapen_AOT/AOT_stimuli/rescaled_final/0824_fw.mp4	0.0	278.0434510707855	2.5003509521484375
51	231.1524851322174	pulse	1	t		49.0	2.5	/experiments/knapen_AOT/AOT_stimuli/rescaled_final/0824_fw.mp4	0.0	279.21996116638184	
51	232.47632598876953	fix_post	2		12	49.0	2.5	/experiments/knapen_AOT/AOT_stimuli/rescaled_final/0824_fw.mp4	0.0	280.54380202293396	0.09995412826538086
52	232.5762801170349	fix_pre	0		120	50.0	2.5	/experiments/knapen_AOT/AOT_stimuli/rescaled_final/0683_fw.mp4	0.0	280.64375615119934	1.0002238750457764
52	232.75144696235657	pulse	0	t		50.0	2.5	/experiments/knapen_AOT/AOT_stimuli/rescaled_final/0683_fw.mp4	0.0	280.818922996521	
52	233.5765039920807	movie	1		242	50.0	2.5	/experiments/knapen_AOT/AOT_stimuli/rescaled_final/0683_fw.mp4	0.0	281.6439800262451	2.500439167022705
52	234.35179209709167	pulse	1	t		50.0	2.5	/experiments/knapen_AOT/AOT_stimuli/rescaled_final/0683_fw.mp4	0.0	282.4192681312561	
52	235.95210695266724	pulse	1	t		50.0	2.5	/experiments/knapen_AOT/AOT_stimuli/rescaled_final/0683_fw.mp4	0.0	284.01958298683167	
52	236.0769431591034	fix_post	2		12	50.0	2.5	/experiments/knapen_AOT/AOT_stimuli/rescaled_final/0683_fw.mp4	0.0	284.1444191932678	0.0999288558959961
53	236.1768720149994	fix_pre	0		120	51.0	2.5	/experiments/knapen_AOT/AOT_stimuli/rescaled_final/0133_fw.mp4	0.0	284.2443480491638	1.0001060962677002
53	237.1769781112671	movie	1		241	51.0	2.5	/experiments/knapen_AOT/AOT_stimuli/rescaled_final/0133_fw.mp4	0.0	285.2444541454315	2.4921178817749023
53	237.5523121356964	pulse	1	t		51.0	2.5	/experiments/knapen_AOT/AOT_stimuli/rescaled_final/0133_fw.mp4	0.0	285.61978816986084	
53	239.15257906913757	pulse	1	t		51.0	2.5	/experiments/knapen_AOT/AOT_stimuli/rescaled_final/0133_fw.mp4	0.0	287.220055103302	
53	239.669095993042	fix_post	2		12	51.0	2.5	/experiments/knapen_AOT/AOT_stimuli/rescaled_final/0133_fw.mp4	0.0	287.7365720272064	0.09996914863586426
54	239.76906514167786	fix_pre	0		119	52.0	2.5	/experiments/knapen_AOT/AOT_stimuli/rescaled_final/0607_fw.mp4	0.0	287.8365411758423	0.9917688369750977
54	240.752671957016	pulse	0	t		52.0	2.5	/experiments/knapen_AOT/AOT_stimuli/rescaled_final/0607_fw.mp4	0.0	288.8201479911804	
54	240.76083397865295	movie	1		244	52.0	2.5	/experiments/knapen_AOT/AOT_stimuli/rescaled_final/0607_fw.mp4	0.0	288.8283100128174	2.508754014968872
54	242.3535680770874	pulse	1	t		52.0	2.5	/experiments/knapen_AOT/AOT_stimuli/rescaled_final/0607_fw.mp4	0.0	290.42104411125183	
54	243.26958799362183	fix_post	2		12	52.0	2.5	/experiments/knapen_AOT/AOT_stimuli/rescaled_final/0607_fw.mp4	0.0	291.33706402778625	0.10001206398010254
55	243.36960005760193	fix_pre	0		120	53.0	2.5	/experiments/knapen_AOT/AOT_stimuli/rescaled_final/0889_fw.mp4	0.0	291.43707609176636	1.000148057937622
55	243.95328998565674	pulse	0	t		53.0	2.5	/experiments/knapen_AOT/AOT_stimuli/rescaled_final/0889_fw.mp4	0.0	292.02076601982117	
55	244.36974811553955	movie	1		242	53.0	2.5	/experiments/knapen_AOT/AOT_stimuli/rescaled_final/0889_fw.mp4	0.0	292.437224149704	2.5004830360412598
55	245.55348300933838	pulse	1	t		53.0	2.5	/experiments/knapen_AOT/AOT_stimuli/rescaled_final/0889_fw.mp4	0.0	293.6209590435028	
55	246.8702311515808	fix_post	2		12	53.0	2.5	/experiments/knapen_AOT/AOT_stimuli/rescaled_final/0889_fw.mp4	0.0	294.93770718574524	0.09990692138671875
56	246.97013807296753	fix_pre	0		120	54.0	2.5	blank	1.0	295.03761410713196	1.0001049041748047
56	247.15374302864075	pulse	0	t		54.0	2.5	blank	1.0	295.2212190628052	
56	247.97024297714233	movie	1		300	54.0	2.5	blank	1.0	296.03771901130676	2.500432014465332
56	248.75398206710815	pulse	1	t		54.0	2.5	blank	1.0	296.8214581012726	
56	250.35423111915588	pulse	1	t		54.0	2.5	blank	1.0	298.4217071533203	
56	250.47067499160767	fix_post	2		12	54.0	2.5	blank	1.0	298.5381510257721	0.10001611709594727
57	250.5706911087036	fix_pre	0		120	55.0	2.5	/experiments/knapen_AOT/AOT_stimuli/rescaled_final/0760_fw.mp4	0.0	298.63816714286804	1.0001449584960938
57	251.5708360671997	movie	1		242	55.0	2.5	/experiments/knapen_AOT/AOT_stimuli/rescaled_final/0760_fw.mp4	0.0	299.63831210136414	2.4921560287475586
57	251.95530605316162	pulse	1	t		55.0	2.5	/experiments/knapen_AOT/AOT_stimuli/rescaled_final/0760_fw.mp4	0.0	300.02278208732605	
57	253.55459713935852	pulse	1	t		55.0	2.5	/experiments/knapen_AOT/AOT_stimuli/rescaled_final/0760_fw.mp4	0.0	301.62207317352295	
57	254.06299209594727	fix_post	2		12	55.0	2.5	/experiments/knapen_AOT/AOT_stimuli/rescaled_final/0760_fw.mp4	0.0	302.1304681301117	0.0999000072479248
58	254.1628921031952	fix_pre	0		120	56.0	2.5	/experiments/knapen_AOT/AOT_stimuli/rescaled_final/0364_rv.mp4	0.0	302.2303681373596	1.0000810623168945
58	255.1548719406128	pulse	0	t		56.0	2.5	/experiments/knapen_AOT/AOT_stimuli/rescaled_final/0364_rv.mp4	0.0	303.2223479747772	
58	255.16297316551208	movie	1		244	56.0	2.5	/experiments/knapen_AOT/AOT_stimuli/rescaled_final/0364_rv.mp4	0.0	303.2304491996765	2.5087788105010986
58	256.7564799785614	pulse	1	t		56.0	2.5	/experiments/knapen_AOT/AOT_stimuli/rescaled_final/0364_rv.mp4	0.0	304.82395601272583	
58	257.6717519760132	fix_post	2		12	56.0	2.5	/experiments/knapen_AOT/AOT_stimuli/rescaled_final/0364_rv.mp4	0.0	305.7392280101776	0.10002803802490234
59	257.7717800140381	fix_pre	0		120	57.0	2.5	/experiments/knapen_AOT/AOT_stimuli/rescaled_final/0339_fw.mp4	0.0	305.8392560482025	1.0001039505004883
59	258.3554229736328	pulse	0	t		57.0	2.5	/experiments/knapen_AOT/AOT_stimuli/rescaled_final/0339_fw.mp4	0.0	306.42289900779724	
59	258.7718839645386	movie	1		244	57.0	2.5	/experiments/knapen_AOT/AOT_stimuli/rescaled_final/0339_fw.mp4	0.0	306.839359998703	2.500347137451172
59	259.95565605163574	pulse	1	t		57.0	2.5	/experiments/knapen_AOT/AOT_stimuli/rescaled_final/0339_fw.mp4	0.0	308.02313208580017	
59	261.27223110198975	fix_post	2		12	57.0	2.5	/experiments/knapen_AOT/AOT_stimuli/rescaled_final/0339_fw.mp4	0.0	309.3397071361542	0.10002493858337402
60	261.3722560405731	fix_pre	0		120	58.0	2.5	/experiments/knapen_AOT/AOT_stimuli/rescaled_final/0207_fw.mp4	0.0	309.43973207473755	1.0001521110534668
60	261.55583906173706	pulse	0	t		58.0	2.5	/experiments/knapen_AOT/AOT_stimuli/rescaled_final/0207_fw.mp4	0.0	309.6233150959015	
60	262.3724081516266	movie	1		242	58.0	2.5	/experiments/knapen_AOT/AOT_stimuli/rescaled_final/0207_fw.mp4	0.0	310.439884185791	2.5004749298095703
60	263.15617513656616	pulse	1	t		58.0	2.5	/experiments/knapen_AOT/AOT_stimuli/rescaled_final/0207_fw.mp4	0.0	311.2236511707306	
60	264.7564699649811	pulse	1	t		58.0	2.5	/experiments/knapen_AOT/AOT_stimuli/rescaled_final/0207_fw.mp4	0.0	312.8239459991455	
60	264.87288308143616	fix_post	2		12	58.0	2.5	/experiments/knapen_AOT/AOT_stimuli/rescaled_final/0207_fw.mp4	0.0	312.9403591156006	0.09995508193969727
61	264.97283816337585	fix_pre	0		120	59.0	2.5	/experiments/knapen_AOT/AOT_stimuli/rescaled_final/0734_rv.mp4	0.0	313.0403141975403	1.0001587867736816
61	265.97299695014954	movie	1		242	59.0	2.5	/experiments/knapen_AOT/AOT_stimuli/rescaled_final/0734_rv.mp4	0.0	314.04047298431396	2.4921011924743652
61	266.3570830821991	pulse	1	t		59.0	2.5	/experiments/knapen_AOT/AOT_stimuli/rescaled_final/0734_rv.mp4	0.0	314.4245591163635	
61	267.95680809020996	pulse	1	t		59.0	2.5	/experiments/knapen_AOT/AOT_stimuli/rescaled_final/0734_rv.mp4	0.0	316.0242841243744	
61	268.4650981426239	fix_post	2		12	59.0	2.5	/experiments/knapen_AOT/AOT_stimuli/rescaled_final/0734_rv.mp4	0.0	316.53257417678833	0.09995579719543457
62	268.56505393981934	fix_pre	0		120	60.0	2.5	/experiments/knapen_AOT/AOT_stimuli/rescaled_final/1786_fw.mp4	0.0	316.63252997398376	1.000068187713623
62	269.55694699287415	pulse	0	t		60.0	2.5	/experiments/knapen_AOT/AOT_stimuli/rescaled_final/1786_fw.mp4	0.0	317.6244230270386	
62	269.56512212753296	movie	1		244	60.0	2.5	/experiments/knapen_AOT/AOT_stimuli/rescaled_final/1786_fw.mp4	0.0	317.6325981616974	2.508837938308716
62	271.15805315971375	pulse	1	t		60.0	2.5	/experiments/knapen_AOT/AOT_stimuli/rescaled_final/1786_fw.mp4	0.0	319.2255291938782	
62	272.0739600658417	fix_post	2		12	60.0	2.5	/experiments/knapen_AOT/AOT_stimuli/rescaled_final/1786_fw.mp4	0.0	320.1414361000061	0.09996509552001953
63	272.1739251613617	fix_pre	0		120	61.0	2.5	/experiments/knapen_AOT/AOT_stimuli/rescaled_final/0498_rv.mp4	0.0	320.2414011955261	1.0000848770141602
63	272.75747895240784	pulse	0	t		61.0	2.5	/experiments/knapen_AOT/AOT_stimuli/rescaled_final/0498_rv.mp4	0.0	320.82495498657227	
63	273.17401003837585	movie	1		243	61.0	2.5	/experiments/knapen_AOT/AOT_stimuli/rescaled_final/0498_rv.mp4	0.0	321.2414860725403	2.500415086746216
63	274.3578760623932	pulse	1	t		61.0	2.5	/experiments/knapen_AOT/AOT_stimuli/rescaled_final/0498_rv.mp4	0.0	322.4253520965576	
63	275.67442512512207	fix_post	2		12	61.0	2.5	/experiments/knapen_AOT/AOT_stimuli/rescaled_final/0498_rv.mp4	0.0	323.7419011592865	0.09996294975280762
64	275.7743880748749	fix_pre	0		120	62.0	2.5	/experiments/knapen_AOT/AOT_stimuli/rescaled_final/0791_fw.mp4	0.0	323.8418641090393	1.0001540184020996
64	275.95797514915466	pulse	0	t		62.0	2.5	/experiments/knapen_AOT/AOT_stimuli/rescaled_final/0791_fw.mp4	0.0	324.0254511833191	
64	276.774542093277	movie	1		243	62.0	2.5	/experiments/knapen_AOT/AOT_stimuli/rescaled_final/0791_fw.mp4	0.0	324.8420181274414	2.500566005706787
64	277.55083894729614	pulse	1	t		62.0	2.5	/experiments/knapen_AOT/AOT_stimuli/rescaled_final/0791_fw.mp4	0.0	325.61831498146057	
64	279.15850710868835	pulse	1	t		62.0	2.5	/experiments/knapen_AOT/AOT_stimuli/rescaled_final/0791_fw.mp4	0.0	327.2259831428528	
64	279.27510809898376	fix_post	2		12	62.0	2.5	/experiments/knapen_AOT/AOT_stimuli/rescaled_final/0791_fw.mp4	0.0	327.3425841331482	0.0998530387878418
65	279.3749611377716	fix_pre	0		120	63.0	2.5	blank	1.0	327.44243717193604	1.0001850128173828
65	280.375146150589	movie	1		300	63.0	2.5	blank	1.0	328.4426221847534	2.500365972518921
65	280.75112295150757	pulse	1	t		63.0	2.5	blank	1.0	328.818598985672	
65	282.35129499435425	pulse	1	t		63.0	2.5	blank	1.0	330.4187710285187	
65	282.8755121231079	fix_post	2		12	63.0	2.5	blank	1.0	330.94298815727234	0.10006093978881836
66	282.97557306289673	fix_pre	0		118	64.0	2.5	/experiments/knapen_AOT/AOT_stimuli/rescaled_final/1267_fw.mp4	0.0	331.04304909706116	0.9834749698638916
66	283.9508259296417	pulse	0	t		64.0	2.5	/experiments/knapen_AOT/AOT_stimuli/rescaled_final/1267_fw.mp4	0.0	332.01830196380615	
66	283.9590480327606	movie	1		245	64.0	2.5	/experiments/knapen_AOT/AOT_stimuli/rescaled_final/1267_fw.mp4	0.0	332.02652406692505	2.5086350440979004
66	285.5522720813751	pulse	1	t		64.0	2.5	/experiments/knapen_AOT/AOT_stimuli/rescaled_final/1267_fw.mp4	0.0	333.61974811553955	
66	286.4676830768585	fix_post	2		12	64.0	2.5	/experiments/knapen_AOT/AOT_stimuli/rescaled_final/1267_fw.mp4	0.0	334.53515911102295	0.10007190704345703
67	286.567754983902	fix_pre	0		120	65.0	2.5	/experiments/knapen_AOT/AOT_stimuli/rescaled_final/2098_rv.mp4	0.0	334.6352310180664	1.0000929832458496
67	287.1513271331787	pulse	0	t		65.0	2.5	/experiments/knapen_AOT/AOT_stimuli/rescaled_final/2098_rv.mp4	0.0	335.21880316734314	
67	287.5678479671478	movie	1		244	65.0	2.5	/experiments/knapen_AOT/AOT_stimuli/rescaled_final/2098_rv.mp4	0.0	335.63532400131226	2.5003821849823
67	288.7515621185303	pulse	1	t		65.0	2.5	/experiments/knapen_AOT/AOT_stimuli/rescaled_final/2098_rv.mp4	0.0	336.8190381526947	
67	290.0682301521301	fix_post	2		12	65.0	2.5	/experiments/knapen_AOT/AOT_stimuli/rescaled_final/2098_rv.mp4	0.0	338.13570618629456	0.09996485710144043
68	290.16819500923157	fix_pre	0		120	66.0	2.5	/experiments/knapen_AOT/AOT_stimuli/rescaled_final/1750_fw.mp4	0.0	338.235671043396	1.0001471042633057
68	290.35179901123047	pulse	0	t		66.0	2.5	/experiments/knapen_AOT/AOT_stimuli/rescaled_final/1750_fw.mp4	0.0	338.4192750453949	
68	291.1683421134949	movie	1		239	66.0	2.5	/experiments/knapen_AOT/AOT_stimuli/rescaled_final/1750_fw.mp4	0.0	339.2358181476593	2.5004448890686035
68	291.9520540237427	pulse	1	t		66.0	2.5	/experiments/knapen_AOT/AOT_stimuli/rescaled_final/1750_fw.mp4	0.0	340.0195300579071	
68	293.5522539615631	pulse	1	t		66.0	2.5	/experiments/knapen_AOT/AOT_stimuli/rescaled_final/1750_fw.mp4	0.0	341.61972999572754	
68	293.6687870025635	fix_post	2		12	66.0	2.5	/experiments/knapen_AOT/AOT_stimuli/rescaled_final/1750_fw.mp4	0.0	341.7362630367279	0.10001993179321289
69	293.7688069343567	fix_pre	0		120	67.0	2.5	/experiments/knapen_AOT/AOT_stimuli/rescaled_final/1037_rv.mp4	0.0	341.8362829685211	1.0001091957092285
69	294.7689161300659	movie	1		242	67.0	2.5	/experiments/knapen_AOT/AOT_stimuli/rescaled_final/1037_rv.mp4	0.0	342.83639216423035	2.4920108318328857
69	295.1530210971832	pulse	1	t		67.0	2.5	/experiments/knapen_AOT/AOT_stimuli/rescaled_final/1037_rv.mp4	0.0	343.22049713134766	
69	296.7528100013733	pulse	1	t		67.0	2.5	/experiments/knapen_AOT/AOT_stimuli/rescaled_final/1037_rv.mp4	0.0	344.8202860355377	
69	297.2609269618988	fix_post	2		12	67.0	2.5	/experiments/knapen_AOT/AOT_stimuli/rescaled_final/1037_rv.mp4	0.0	345.32840299606323	0.10005402565002441
70	297.3609809875488	fix_pre	0		120	68.0	2.5	/experiments/knapen_AOT/AOT_stimuli/rescaled_final/0392_fw.mp4	0.0	345.42845702171326	1.0001399517059326
70	298.3530099391937	pulse	0	t		68.0	2.5	/experiments/knapen_AOT/AOT_stimuli/rescaled_final/0392_fw.mp4	0.0	346.42048597335815	
70	298.36112093925476	movie	1		243	68.0	2.5	/experiments/knapen_AOT/AOT_stimuli/rescaled_final/0392_fw.mp4	0.0	346.4285969734192	2.508714199066162
70	299.9536380767822	pulse	1	t		68.0	2.5	/experiments/knapen_AOT/AOT_stimuli/rescaled_final/0392_fw.mp4	0.0	348.02111411094666	
70	300.8698351383209	fix_post	2		12	68.0	2.5	/experiments/knapen_AOT/AOT_stimuli/rescaled_final/0392_fw.mp4	0.0	348.93731117248535	0.10004687309265137
71	300.9698820114136	fix_pre	0		120	69.0	2.5	blank	1.0	349.037358045578	1.0000951290130615
71	301.55346393585205	pulse	0	t		69.0	2.5	blank	1.0	349.6209399700165	
71	301.96997714042664	movie	1		300	69.0	2.5	blank	1.0	350.03745317459106	2.5003578662872314
71	303.1537489891052	pulse	1	t		69.0	2.5	blank	1.0	351.22122502326965	
71	304.47033500671387	fix_post	2		12	69.0	2.5	blank	1.0	352.5378110408783	0.10005497932434082
72	304.5703899860382	fix_pre	0		120	70.0	2.5	/experiments/knapen_AOT/AOT_stimuli/rescaled_final/1655_rv.mp4	0.0	352.63786602020264	1.000195026397705
72	304.75401616096497	pulse	0	t		70.0	2.5	/experiments/knapen_AOT/AOT_stimuli/rescaled_final/1655_rv.mp4	0.0	352.8214921951294	
72	305.5705850124359	movie	1		242	70.0	2.5	/experiments/knapen_AOT/AOT_stimuli/rescaled_final/1655_rv.mp4	0.0	353.63806104660034	2.5003700256347656
72	306.3541851043701	pulse	1	t		70.0	2.5	/experiments/knapen_AOT/AOT_stimuli/rescaled_final/1655_rv.mp4	0.0	354.42166113853455	
72	307.9544880390167	pulse	1	t		70.0	2.5	/experiments/knapen_AOT/AOT_stimuli/rescaled_final/1655_rv.mp4	0.0	356.02196407318115	
72	308.0709550380707	fix_post	2		12	70.0	2.5	/experiments/knapen_AOT/AOT_stimuli/rescaled_final/1655_rv.mp4	0.0	356.1384310722351	0.09997797012329102
73	308.17093300819397	fix_pre	0		120	71.0	2.5	/experiments/knapen_AOT/AOT_stimuli/rescaled_final/0720_rv.mp4	0.0	356.2384090423584	1.0001239776611328
73	309.1710569858551	movie	1		242	71.0	2.5	/experiments/knapen_AOT/AOT_stimuli/rescaled_final/0720_rv.mp4	0.0	357.23853302001953	2.4920289516448975
73	309.55518412590027	pulse	1	t		71.0	2.5	/experiments/knapen_AOT/AOT_stimuli/rescaled_final/0720_rv.mp4	0.0	357.6226601600647	
73	311.1549949645996	pulse	1	t		71.0	2.5	/experiments/knapen_AOT/AOT_stimuli/rescaled_final/0720_rv.mp4	0.0	359.22247099876404	
73	311.6630859375	fix_post	2		12	71.0	2.5	/experiments/knapen_AOT/AOT_stimuli/rescaled_final/0720_rv.mp4	0.0	359.73056197166443	0.10003113746643066
74	311.76311707496643	fix_pre	0		120	72.0	2.5	/experiments/knapen_AOT/AOT_stimuli/rescaled_final/0032_rv.mp4	0.0	359.83059310913086	1.0001490116119385
74	312.7552011013031	pulse	0	t		72.0	2.5	/experiments/knapen_AOT/AOT_stimuli/rescaled_final/0032_rv.mp4	0.0	360.82267713546753	
74	312.76326608657837	movie	1		244	72.0	2.5	/experiments/knapen_AOT/AOT_stimuli/rescaled_final/0032_rv.mp4	0.0	360.8307421207428	2.50872802734375
74	314.3558599948883	pulse	1	t		72.0	2.5	/experiments/knapen_AOT/AOT_stimuli/rescaled_final/0032_rv.mp4	0.0	362.42333602905273	
74	315.2719941139221	fix_post	2		12	72.0	2.5	/experiments/knapen_AOT/AOT_stimuli/rescaled_final/0032_rv.mp4	0.0	363.33947014808655	0.10000205039978027
75	315.3719961643219	fix_pre	0		120	73.0	2.5	/experiments/knapen_AOT/AOT_stimuli/rescaled_final/0997_fw.mp4	0.0	363.4394721984863	1.0001089572906494
75	315.9556601047516	pulse	0	t		73.0	2.5	/experiments/knapen_AOT/AOT_stimuli/rescaled_final/0997_fw.mp4	0.0	364.023136138916	
75	316.37210512161255	movie	1		243	73.0	2.5	/experiments/knapen_AOT/AOT_stimuli/rescaled_final/0997_fw.mp4	0.0	364.439581155777	2.5004780292510986
75	317.5559890270233	pulse	1	t		73.0	2.5	/experiments/knapen_AOT/AOT_stimuli/rescaled_final/0997_fw.mp4	0.0	365.62346506118774	
75	318.87258315086365	fix_post	2		12	73.0	2.5	/experiments/knapen_AOT/AOT_stimuli/rescaled_final/0997_fw.mp4	0.0	366.9400591850281	0.10000801086425781
76	318.9725911617279	fix_pre	0		120	74.0	2.5	/experiments/knapen_AOT/AOT_stimuli/rescaled_final/0811_fw.mp4	0.0	367.04006719589233	1.0001189708709717
76	319.1561391353607	pulse	0	t		74.0	2.5	/experiments/knapen_AOT/AOT_stimuli/rescaled_final/0811_fw.mp4	0.0	367.22361516952515	
76	319.9727101325989	movie	1		244	74.0	2.5	/experiments/knapen_AOT/AOT_stimuli/rescaled_final/0811_fw.mp4	0.0	368.0401861667633	2.5003468990325928
76	320.75635504722595	pulse	1	t		74.0	2.5	/experiments/knapen_AOT/AOT_stimuli/rescaled_final/0811_fw.mp4	0.0	368.8238310813904	
76	322.3566241264343	pulse	1	t		74.0	2.5	/experiments/knapen_AOT/AOT_stimuli/rescaled_final/0811_fw.mp4	0.0	370.42410016059875	
76	322.47305703163147	fix_post	2		12	74.0	2.5	/experiments/knapen_AOT/AOT_stimuli/rescaled_final/0811_fw.mp4	0.0	370.5405330657959	0.10000801086425781
77	322.5730650424957	fix_pre	0		120	75.0	2.5	/experiments/knapen_AOT/AOT_stimuli/rescaled_final/1168_rv.mp4	0.0	370.64054107666016	1.0001270771026611
77	323.5731921195984	movie	1		242	75.0	2.5	/experiments/knapen_AOT/AOT_stimuli/rescaled_final/1168_rv.mp4	0.0	371.6406681537628	2.4921069145202637
77	323.95795607566833	pulse	1	t		75.0	2.5	/experiments/knapen_AOT/AOT_stimuli/rescaled_final/1168_rv.mp4	0.0	372.02543210983276	
77	325.5571129322052	pulse	1	t		75.0	2.5	/experiments/knapen_AOT/AOT_stimuli/rescaled_final/1168_rv.mp4	0.0	373.62458896636963	
77	326.06529903411865	fix_post	2		12	75.0	2.5	/experiments/knapen_AOT/AOT_stimuli/rescaled_final/1168_rv.mp4	0.0	374.1327750682831	0.09993290901184082
78	326.1652319431305	fix_pre	0		120	76.0	2.5	/experiments/knapen_AOT/AOT_stimuli/rescaled_final/1808_fw.mp4	0.0	374.2327079772949	1.0001771450042725
78	327.1573791503906	pulse	0	t		76.0	2.5	/experiments/knapen_AOT/AOT_stimuli/rescaled_final/1808_fw.mp4	0.0	375.22485518455505	
78	327.16540908813477	movie	1		243	76.0	2.5	/experiments/knapen_AOT/AOT_stimuli/rescaled_final/1808_fw.mp4	0.0	375.2328851222992	2.508741855621338
78	328.7581970691681	pulse	1	t		76.0	2.5	/experiments/knapen_AOT/AOT_stimuli/rescaled_final/1808_fw.mp4	0.0	376.8256731033325	
78	329.6741509437561	fix_post	2		12	76.0	2.5	/experiments/knapen_AOT/AOT_stimuli/rescaled_final/1808_fw.mp4	0.0	377.74162697792053	0.09997105598449707
79	329.7741219997406	fix_pre	0		120	77.0	2.5	blank	1.0	377.84159803390503	1.0001330375671387
79	330.35774207115173	pulse	0	t		77.0	2.5	blank	1.0	378.42521810531616	
79	330.77425503730774	movie	1		300	77.0	2.5	blank	1.0	378.84173107147217	2.500365972518921
79	331.9503951072693	pulse	1	t		77.0	2.5	blank	1.0	380.0178711414337	
79	333.27462100982666	fix_post	2		12	77.0	2.5	blank	1.0	381.3420970439911	0.10002994537353516
80	333.3746509552002	fix_pre	0		120	78.0	2.5	/experiments/knapen_AOT/AOT_stimuli/rescaled_final/1338_fw.mp4	0.0	381.4421269893646	1.0001850128173828
80	333.5507171154022	pulse	0	t		78.0	2.5	/experiments/knapen_AOT/AOT_stimuli/rescaled_final/1338_fw.mp4	0.0	381.61819314956665	
80	334.3748359680176	movie	1		242	78.0	2.5	/experiments/knapen_AOT/AOT_stimuli/rescaled_final/1338_fw.mp4	0.0	382.442312002182	2.5004451274871826
80	335.1510241031647	pulse	1	t		78.0	2.5	/experiments/knapen_AOT/AOT_stimuli/rescaled_final/1338_fw.mp4	0.0	383.2185001373291	
80	336.7584569454193	pulse	1	t		78.0	2.5	/experiments/knapen_AOT/AOT_stimuli/rescaled_final/1338_fw.mp4	0.0	384.82593297958374	
80	336.87528109550476	fix_post	2		12	78.0	2.5	/experiments/knapen_AOT/AOT_stimuli/rescaled_final/1338_fw.mp4	0.0	384.9427571296692	0.09991693496704102
81	336.9751980304718	fix_pre	0		120	79.0	2.5	/experiments/knapen_AOT/AOT_stimuli/rescaled_final/1992_rv.mp4	0.0	385.04267406463623	1.0001220703125
81	337.9753201007843	movie	1		242	79.0	2.5	/experiments/knapen_AOT/AOT_stimuli/rescaled_final/1992_rv.mp4	0.0	386.04279613494873	2.492090940475464
81	338.35051703453064	pulse	1	t		79.0	2.5	/experiments/knapen_AOT/AOT_stimuli/rescaled_final/1992_rv.mp4	0.0	386.41799306869507	
81	339.9509029388428	pulse	1	t		79.0	2.5	/experiments/knapen_AOT/AOT_stimuli/rescaled_final/1992_rv.mp4	0.0	388.0183789730072	
81	340.46741104125977	fix_post	2		12	79.0	2.5	/experiments/knapen_AOT/AOT_stimuli/rescaled_final/1992_rv.mp4	0.0	388.5348870754242	0.09995508193969727
82	340.56736612319946	fix_pre	0		119	80.0	2.5	/experiments/knapen_AOT/AOT_stimuli/rescaled_final/1420_rv.mp4	0.0	388.6348421573639	0.9918129444122314
82	341.5511920452118	pulse	0	t		80.0	2.5	/experiments/knapen_AOT/AOT_stimuli/rescaled_final/1420_rv.mp4	0.0	389.6186680793762	
82	341.5591790676117	movie	1		244	80.0	2.5	/experiments/knapen_AOT/AOT_stimuli/rescaled_final/1420_rv.mp4	0.0	389.6266551017761	2.5087459087371826
82	343.151869058609	pulse	1	t		80.0	2.5	/experiments/knapen_AOT/AOT_stimuli/rescaled_final/1420_rv.mp4	0.0	391.21934509277344	
82	344.0679249763489	fix_post	2		12	80.0	2.5	/experiments/knapen_AOT/AOT_stimuli/rescaled_final/1420_rv.mp4	0.0	392.1354010105133	0.09998512268066406
83	344.16791009902954	fix_pre	0		120	81.0	2.5	/experiments/knapen_AOT/AOT_stimuli/rescaled_final/0235_rv.mp4	0.0	392.23538613319397	1.000248908996582
83	344.7514989376068	pulse	0	t		81.0	2.5	/experiments/knapen_AOT/AOT_stimuli/rescaled_final/0235_rv.mp4	0.0	392.81897497177124	
83	345.1681590080261	movie	1		244	81.0	2.5	/experiments/knapen_AOT/AOT_stimuli/rescaled_final/0235_rv.mp4	0.0	393.23563504219055	2.5002939701080322
83	346.3518500328064	pulse	1	t		81.0	2.5	/experiments/knapen_AOT/AOT_stimuli/rescaled_final/0235_rv.mp4	0.0	394.4193260669708	
83	347.66845297813416	fix_post	2		12	81.0	2.5	/experiments/knapen_AOT/AOT_stimuli/rescaled_final/0235_rv.mp4	0.0	395.7359290122986	0.0999901294708252
84	347.768443107605	fix_pre	0		120	82.0	2.5	/experiments/knapen_AOT/AOT_stimuli/rescaled_final/1969_fw.mp4	0.0	395.8359191417694	1.0001599788665771
84	347.952082157135	pulse	0	t		82.0	2.5	/experiments/knapen_AOT/AOT_stimuli/rescaled_final/1969_fw.mp4	0.0	396.01955819129944	
84	348.76860308647156	movie	1		243	82.0	2.5	/experiments/knapen_AOT/AOT_stimuli/rescaled_final/1969_fw.mp4	0.0	396.836079120636	2.5005600452423096
84	349.552255153656	pulse	1	t		82.0	2.5	/experiments/knapen_AOT/AOT_stimuli/rescaled_final/1969_fw.mp4	0.0	397.61973118782043	
84	351.15254497528076	pulse	1	t		82.0	2.5	/experiments/knapen_AOT/AOT_stimuli/rescaled_final/1969_fw.mp4	0.0	399.2200210094452	
84	351.26916313171387	fix_post	2		12	82.0	2.5	/experiments/knapen_AOT/AOT_stimuli/rescaled_final/1969_fw.mp4	0.0	399.3366391658783	0.09985184669494629
85	351.3690149784088	fix_pre	0		120	83.0	2.5	blank	1.0	399.43649101257324	1.000162124633789
85	352.3691771030426	movie	1		296	83.0	2.5	blank	1.0	400.43665313720703	2.4920589923858643
85	352.7527780532837	pulse	1	t		83.0	2.5	blank	1.0	400.8202540874481	
85	354.3529579639435	pulse	1	t		83.0	2.5	blank	1.0	402.4204339981079	
85	354.86123609542847	fix_post	2		12	83.0	2.5	blank	1.0	402.9287121295929	0.09996795654296875
87	354.96120405197144	stim	0		1716					403.02868008613586	14.30216908454895
87	355.95319294929504	pulse	0	t						404.0206689834595	
87	357.5534710884094	pulse	0	t						405.62094712257385	
87	359.1536281108856	pulse	0	t						407.22110414505005	
87	360.7539460659027	pulse	0	t						408.82142210006714	
87	362.3542289733887	pulse	0	t						410.4217050075531	
87	363.95435214042664	pulse	0	t						412.02182817459106	
87	365.55462193489075	pulse	0	t						413.6220979690552	
87	367.15482807159424	pulse	0	t						415.22230410575867	
87	368.75504994392395	pulse	0	t						416.8225259780884	
