trial_nr	onset	event_type	phase	response	nr_frames	movie_index	movie_duration	movie_file	blank	onset_abs	duration
0	0.16654372215270996	stim	0		3					16.608261823654175	0.0248410701751709
0	0.18334317207336426	response	0	space						16.62506127357483	
1	0.19138479232788086	stim	0		3855					16.633102893829346	32.13991117477417
1	32.32137751579285	pulse	0	t						48.76309561729431	
1	32.33129596710205	stim	1		1715					48.773014068603516	14.300427675247192
1	33.91335964202881	pulse	1	t						50.35507774353027	
1	35.513588666915894	pulse	1	t						51.95530676841736	
1	37.113781452178955	pulse	1	t						53.55549955368042	
1	38.71414661407471	pulse	1	t						55.15586471557617	
1	40.31429481506348	pulse	1	t						56.75601291656494	
1	41.91455817222595	pulse	1	t						58.35627627372742	
1	43.51480174064636	pulse	1	t						59.95651984214783	
1	45.11502194404602	pulse	1	t						61.556740045547485	
2	46.63172364234924	fix_pre	0		11	0.0	2.5	/experiments/Knapen_AOT/AOT_stimuli/rescaled_final/1885_fw.mp4	0.0	63.07344174385071	0.10840725898742676
2	46.71564507484436	pulse	0	t		0.0	2.5	/experiments/Knapen_AOT/AOT_stimuli/rescaled_final/1885_fw.mp4	0.0	63.157363176345825	
2	46.74013090133667	movie	1		267	0.0	2.5	/experiments/Knapen_AOT/AOT_stimuli/rescaled_final/1885_fw.mp4	0.0	63.181849002838135	2.4920194149017334
2	48.31561303138733	pulse	1	t		0.0	2.5	/experiments/Knapen_AOT/AOT_stimuli/rescaled_final/1885_fw.mp4	0.0	64.7573311328888	
2	49.2321503162384	fix_post	2		12	0.0	2.5	/experiments/Knapen_AOT/AOT_stimuli/rescaled_final/1885_fw.mp4	0.0	65.67386841773987	0.09999299049377441
3	49.33214330673218	fix_pre	0		120	1.0	2.5	/experiments/Knapen_AOT/AOT_stimuli/rescaled_final/0606_fw.mp4	0.0	65.77386140823364	1.0085535049438477
3	49.91579270362854	pulse	0	t		1.0	2.5	/experiments/Knapen_AOT/AOT_stimuli/rescaled_final/0606_fw.mp4	0.0	66.35751080513	
3	50.340696811676025	movie	1		285	1.0	2.5	/experiments/Knapen_AOT/AOT_stimuli/rescaled_final/0606_fw.mp4	0.0	66.78241491317749	2.492002010345459
3	51.51434111595154	pulse	1	t		1.0	2.5	/experiments/Knapen_AOT/AOT_stimuli/rescaled_final/0606_fw.mp4	0.0	67.956059217453	
3	52.832698822021484	fix_post	2		12	1.0	2.5	/experiments/Knapen_AOT/AOT_stimuli/rescaled_final/0606_fw.mp4	0.0	69.27441692352295	0.10001254081726074
4	52.932711362838745	fix_pre	0		120	2.0	2.5	/experiments/Knapen_AOT/AOT_stimuli/rescaled_final/1344_fw.mp4	0.0	69.37442946434021	1.0084567070007324
4	53.11644911766052	pulse	0	t		2.0	2.5	/experiments/Knapen_AOT/AOT_stimuli/rescaled_final/1344_fw.mp4	0.0	69.55816721916199	
4	53.94116806983948	movie	1		266	2.0	2.5	/experiments/Knapen_AOT/AOT_stimuli/rescaled_final/1344_fw.mp4	0.0	70.38288617134094	2.4920361042022705
4	54.71459197998047	pulse	1	t		2.0	2.5	/experiments/Knapen_AOT/AOT_stimuli/rescaled_final/1344_fw.mp4	0.0	71.15631008148193	
4	56.31471920013428	pulse	1	t		2.0	2.5	/experiments/Knapen_AOT/AOT_stimuli/rescaled_final/1344_fw.mp4	0.0	72.75643730163574	
4	56.43320417404175	fix_post	2		12	2.0	2.5	/experiments/Knapen_AOT/AOT_stimuli/rescaled_final/1344_fw.mp4	0.0	72.87492227554321	0.1000208854675293
5	56.53322505950928	fix_pre	0		120	3.0	2.5	/experiments/Knapen_AOT/AOT_stimuli/rescaled_final/1124_rv.mp4	0.0	72.97494316101074	1.0084829330444336
5	57.54170799255371	movie	1		287	3.0	2.5	/experiments/Knapen_AOT/AOT_stimuli/rescaled_final/1124_rv.mp4	0.0	73.98342609405518	2.4921023845672607
5	57.91519284248352	pulse	1	t		3.0	2.5	/experiments/Knapen_AOT/AOT_stimuli/rescaled_final/1124_rv.mp4	0.0	74.35691094398499	
5	59.51484799385071	pulse	1	t		3.0	2.5	/experiments/Knapen_AOT/AOT_stimuli/rescaled_final/1124_rv.mp4	0.0	75.95656609535217	
5	60.03381037712097	fix_post	2		12	3.0	2.5	/experiments/Knapen_AOT/AOT_stimuli/rescaled_final/1124_rv.mp4	0.0	76.47552847862244	0.10009598731994629
6	60.13390636444092	fix_pre	0		119	4.0	2.5	/experiments/Knapen_AOT/AOT_stimuli/rescaled_final/1396_fw.mp4	0.0	76.57562446594238	1.0000009536743164
6	61.10952425003052	pulse	0	t		4.0	2.5	/experiments/Knapen_AOT/AOT_stimuli/rescaled_final/1396_fw.mp4	0.0	77.55124235153198	
6	61.133907318115234	movie	1		280	4.0	2.5	/experiments/Knapen_AOT/AOT_stimuli/rescaled_final/1396_fw.mp4	0.0	77.5756254196167	2.5005292892456055
6	62.709654092788696	pulse	1	t		4.0	2.5	/experiments/Knapen_AOT/AOT_stimuli/rescaled_final/1396_fw.mp4	0.0	79.15137219429016	
6	63.63443660736084	fix_post	2		12	4.0	2.5	/experiments/Knapen_AOT/AOT_stimuli/rescaled_final/1396_fw.mp4	0.0	80.0761547088623	0.10006070137023926
7	63.73449730873108	fix_pre	0		120	5.0	2.5	/experiments/Knapen_AOT/AOT_stimuli/rescaled_final/1251_rv.mp4	0.0	80.17621541023254	1.0082993507385254
7	64.30989408493042	pulse	0	t		5.0	2.5	/experiments/Knapen_AOT/AOT_stimuli/rescaled_final/1251_rv.mp4	0.0	80.75161218643188	
7	64.7427966594696	movie	1		275	5.0	2.5	/experiments/Knapen_AOT/AOT_stimuli/rescaled_final/1251_rv.mp4	0.0	81.18451476097107	2.4922709465026855
7	65.910151720047	pulse	1	t		5.0	2.5	/experiments/Knapen_AOT/AOT_stimuli/rescaled_final/1251_rv.mp4	0.0	82.35186982154846	
7	67.23506760597229	fix_post	2		12	5.0	2.5	/experiments/Knapen_AOT/AOT_stimuli/rescaled_final/1251_rv.mp4	0.0	83.67678570747375	0.09982490539550781
8	67.3348925113678	fix_pre	0		120	6.0	2.5	blank	1.0	83.77661061286926	1.0001015663146973
8	67.5101363658905	pulse	0	t		6.0	2.5	blank	1.0	83.95185446739197	
8	68.3349940776825	movie	1		300	6.0	2.5	blank	1.0	84.77671217918396	2.5003552436828613
8	69.11033177375793	pulse	1	t		6.0	2.5	blank	1.0	85.5520498752594	
8	70.71052598953247	pulse	1	t		6.0	2.5	blank	1.0	87.15224409103394	
8	70.83534932136536	fix_post	2		12	6.0	2.5	blank	1.0	87.27706742286682	0.10002994537353516
9	70.93537926673889	fix_pre	0		120	7.0	2.5	/experiments/Knapen_AOT/AOT_stimuli/rescaled_final/1894_fw.mp4	0.0	87.37709736824036	1.008523941040039
9	71.94390320777893	movie	1		276	7.0	2.5	/experiments/Knapen_AOT/AOT_stimuli/rescaled_final/1894_fw.mp4	0.0	88.3856213092804	2.4920144081115723
9	72.31076431274414	pulse	1	t		7.0	2.5	/experiments/Knapen_AOT/AOT_stimuli/rescaled_final/1894_fw.mp4	0.0	88.7524824142456	
9	73.9103376865387	pulse	1	t		7.0	2.5	/experiments/Knapen_AOT/AOT_stimuli/rescaled_final/1894_fw.mp4	0.0	90.35205578804016	
9	74.4359176158905	fix_post	2		12	7.0	2.5	/experiments/Knapen_AOT/AOT_stimuli/rescaled_final/1894_fw.mp4	0.0	90.87763571739197	0.10006952285766602
10	74.53598713874817	fix_pre	0		118	8.0	2.5	/experiments/Knapen_AOT/AOT_stimuli/rescaled_final/0098_rv.mp4	0.0	90.97770524024963	0.9917478561401367
10	75.51131844520569	pulse	0	t		8.0	2.5	/experiments/Knapen_AOT/AOT_stimuli/rescaled_final/0098_rv.mp4	0.0	91.95303654670715	
10	75.5277349948883	movie	1		285	8.0	2.5	/experiments/Knapen_AOT/AOT_stimuli/rescaled_final/0098_rv.mp4	0.0	91.96945309638977	2.5003693103790283
10	77.10982179641724	pulse	1	t		8.0	2.5	/experiments/Knapen_AOT/AOT_stimuli/rescaled_final/0098_rv.mp4	0.0	93.5515398979187	
10	78.02810430526733	fix_post	2		12	8.0	2.5	/experiments/Knapen_AOT/AOT_stimuli/rescaled_final/0098_rv.mp4	0.0	94.4698224067688	0.10002732276916504
11	78.1281316280365	fix_pre	0		120	9.0	2.5	/experiments/Knapen_AOT/AOT_stimuli/rescaled_final/1849_fw.mp4	0.0	94.56984972953796	1.0086121559143066
11	78.71177339553833	pulse	0	t		9.0	2.5	/experiments/Knapen_AOT/AOT_stimuli/rescaled_final/1849_fw.mp4	0.0	95.1534914970398	
11	79.1367437839508	movie	1		266	9.0	2.5	/experiments/Knapen_AOT/AOT_stimuli/rescaled_final/1849_fw.mp4	0.0	95.57846188545227	2.491903781890869
11	80.31006908416748	pulse	1	t		9.0	2.5	/experiments/Knapen_AOT/AOT_stimuli/rescaled_final/1849_fw.mp4	0.0	96.75178718566895	
11	81.62864756584167	fix_post	2		12	9.0	2.5	/experiments/Knapen_AOT/AOT_stimuli/rescaled_final/1849_fw.mp4	0.0	98.07036566734314	0.10001349449157715
12	81.72866106033325	fix_pre	0		120	10.0	2.5	/experiments/Knapen_AOT/AOT_stimuli/rescaled_final/1119_fw.mp4	0.0	98.17037916183472	1.0085320472717285
12	81.91242098808289	pulse	0	t		10.0	2.5	/experiments/Knapen_AOT/AOT_stimuli/rescaled_final/1119_fw.mp4	0.0	98.35413908958435	
12	82.73719310760498	movie	1		288	10.0	2.5	/experiments/Knapen_AOT/AOT_stimuli/rescaled_final/1119_fw.mp4	0.0	99.17891120910645	2.4920856952667236
12	83.51274228096008	pulse	1	t		10.0	2.5	/experiments/Knapen_AOT/AOT_stimuli/rescaled_final/1119_fw.mp4	0.0	99.95446038246155	
12	85.11087274551392	pulse	1	t		10.0	2.5	/experiments/Knapen_AOT/AOT_stimuli/rescaled_final/1119_fw.mp4	0.0	101.55259084701538	
12	85.2292788028717	fix_post	2		12	10.0	2.5	/experiments/Knapen_AOT/AOT_stimuli/rescaled_final/1119_fw.mp4	0.0	101.67099690437317	0.09994149208068848
13	85.32922029495239	fix_pre	0		120	11.0	2.5	/experiments/Knapen_AOT/AOT_stimuli/rescaled_final/1317_fw.mp4	0.0	101.77093839645386	1.0084543228149414
13	86.33767461776733	movie	1		283	11.0	2.5	/experiments/Knapen_AOT/AOT_stimuli/rescaled_final/1317_fw.mp4	0.0	102.7793927192688	2.4920501708984375
13	86.7115228176117	pulse	1	t		11.0	2.5	/experiments/Knapen_AOT/AOT_stimuli/rescaled_final/1317_fw.mp4	0.0	103.15324091911316	
13	88.31087279319763	pulse	1	t		11.0	2.5	/experiments/Knapen_AOT/AOT_stimuli/rescaled_final/1317_fw.mp4	0.0	104.7525908946991	
13	88.82972478866577	fix_post	2		12	11.0	2.5	/experiments/Knapen_AOT/AOT_stimuli/rescaled_final/1317_fw.mp4	0.0	105.27144289016724	0.10005879402160645
14	88.92978358268738	fix_pre	0		119	12.0	2.5	/experiments/Knapen_AOT/AOT_stimuli/rescaled_final/0990_fw.mp4	0.0	105.37150168418884	1.0002243518829346
14	89.91356706619263	pulse	0	t		12.0	2.5	/experiments/Knapen_AOT/AOT_stimuli/rescaled_final/0990_fw.mp4	0.0	106.35528516769409	
14	89.93000793457031	movie	1		278	12.0	2.5	/experiments/Knapen_AOT/AOT_stimuli/rescaled_final/0990_fw.mp4	0.0	106.37172603607178	2.500267267227173
14	91.51224184036255	pulse	1	t		12.0	2.5	/experiments/Knapen_AOT/AOT_stimuli/rescaled_final/0990_fw.mp4	0.0	107.95395994186401	
14	92.43027520179749	fix_post	2		12	12.0	2.5	/experiments/Knapen_AOT/AOT_stimuli/rescaled_final/0990_fw.mp4	0.0	108.87199330329895	0.10001945495605469
15	92.53029465675354	fix_pre	0		120	13.0	2.5	blank	1.0	108.972012758255	1.0001938343048096
15	93.11412525177002	pulse	0	t		13.0	2.5	blank	1.0	109.55584335327148	
15	93.53048849105835	movie	1		300	13.0	2.5	blank	1.0	109.97220659255981	2.500373601913452
15	94.71421098709106	pulse	1	t		13.0	2.5	blank	1.0	111.15592908859253	
15	96.0308620929718	fix_post	2		12	13.0	2.5	blank	1.0	112.47258019447327	0.1001272201538086
16	96.13098931312561	fix_pre	0		120	14.0	2.5	/experiments/Knapen_AOT/AOT_stimuli/rescaled_final/0600_fw.mp4	0.0	112.57270741462708	1.0083231925964355
16	96.31449699401855	pulse	0	t		14.0	2.5	/experiments/Knapen_AOT/AOT_stimuli/rescaled_final/0600_fw.mp4	0.0	112.75621509552002	
16	97.13931250572205	movie	1		283	14.0	2.5	/experiments/Knapen_AOT/AOT_stimuli/rescaled_final/0600_fw.mp4	0.0	113.58103060722351	2.4920401573181152
16	97.91333842277527	pulse	1	t		14.0	2.5	/experiments/Knapen_AOT/AOT_stimuli/rescaled_final/0600_fw.mp4	0.0	114.35505652427673	
16	99.51265215873718	pulse	1	t		14.0	2.5	/experiments/Knapen_AOT/AOT_stimuli/rescaled_final/0600_fw.mp4	0.0	115.95437026023865	
16	99.63135266304016	fix_post	2		12	14.0	2.5	/experiments/Knapen_AOT/AOT_stimuli/rescaled_final/0600_fw.mp4	0.0	116.07307076454163	0.10001468658447266
17	99.73136734962463	fix_pre	0		120	15.0	2.5	/experiments/Knapen_AOT/AOT_stimuli/rescaled_final/1251_fw.mp4	0.0	116.1730854511261	1.0085058212280273
17	100.73987317085266	movie	1		279	15.0	2.5	/experiments/Knapen_AOT/AOT_stimuli/rescaled_final/1251_fw.mp4	0.0	117.18159127235413	2.49202823638916
17	101.11411762237549	pulse	1	t		15.0	2.5	/experiments/Knapen_AOT/AOT_stimuli/rescaled_final/1251_fw.mp4	0.0	117.55583572387695	
17	102.71323895454407	pulse	1	t		15.0	2.5	/experiments/Knapen_AOT/AOT_stimuli/rescaled_final/1251_fw.mp4	0.0	119.15495705604553	
17	103.23190140724182	fix_post	2		12	15.0	2.5	/experiments/Knapen_AOT/AOT_stimuli/rescaled_final/1251_fw.mp4	0.0	119.67361950874329	0.10000395774841309
18	103.33190536499023	fix_pre	0		119	16.0	2.5	/experiments/Knapen_AOT/AOT_stimuli/rescaled_final/0005_rv.mp4	0.0	119.7736234664917	1.0001330375671387
18	104.31556177139282	pulse	0	t		16.0	2.5	/experiments/Knapen_AOT/AOT_stimuli/rescaled_final/0005_rv.mp4	0.0	120.75727987289429	
18	104.33203840255737	movie	1		280	16.0	2.5	/experiments/Knapen_AOT/AOT_stimuli/rescaled_final/0005_rv.mp4	0.0	120.77375650405884	2.5003814697265625
18	105.91416049003601	pulse	1	t		16.0	2.5	/experiments/Knapen_AOT/AOT_stimuli/rescaled_final/0005_rv.mp4	0.0	122.35587859153748	
18	106.83241987228394	fix_post	2		12	16.0	2.5	/experiments/Knapen_AOT/AOT_stimuli/rescaled_final/0005_rv.mp4	0.0	123.2741379737854	0.10016250610351562
19	106.93258237838745	fix_pre	0		120	17.0	2.5	/experiments/Knapen_AOT/AOT_stimuli/rescaled_final/0149_rv.mp4	0.0	123.37430047988892	1.0083732604980469
19	107.51606607437134	pulse	0	t		17.0	2.5	/experiments/Knapen_AOT/AOT_stimuli/rescaled_final/0149_rv.mp4	0.0	123.9577841758728	
19	107.9409556388855	movie	1		281	17.0	2.5	/experiments/Knapen_AOT/AOT_stimuli/rescaled_final/0149_rv.mp4	0.0	124.38267374038696	2.4920108318328857
19	109.11467599868774	pulse	1	t		17.0	2.5	/experiments/Knapen_AOT/AOT_stimuli/rescaled_final/0149_rv.mp4	0.0	125.55639410018921	
19	110.43296647071838	fix_post	2		12	17.0	2.5	/experiments/Knapen_AOT/AOT_stimuli/rescaled_final/0149_rv.mp4	0.0	126.87468457221985	0.10002565383911133
20	110.5329921245575	fix_pre	0		120	18.0	2.5	/experiments/Knapen_AOT/AOT_stimuli/rescaled_final/1406_rv.mp4	0.0	126.97471022605896	1.0085666179656982
20	110.71670007705688	pulse	0	t		18.0	2.5	/experiments/Knapen_AOT/AOT_stimuli/rescaled_final/1406_rv.mp4	0.0	127.15841817855835	
20	111.5415587425232	movie	1		270	18.0	2.5	/experiments/Knapen_AOT/AOT_stimuli/rescaled_final/1406_rv.mp4	0.0	127.98327684402466	2.491962432861328
20	112.31444215774536	pulse	1	t		18.0	2.5	/experiments/Knapen_AOT/AOT_stimuli/rescaled_final/1406_rv.mp4	0.0	128.75616025924683	
20	113.91723728179932	pulse	1	t		18.0	2.5	/experiments/Knapen_AOT/AOT_stimuli/rescaled_final/1406_rv.mp4	0.0	130.35895538330078	
20	114.03352117538452	fix_post	2		12	18.0	2.5	/experiments/Knapen_AOT/AOT_stimuli/rescaled_final/1406_rv.mp4	0.0	130.475239276886	0.1001739501953125
21	114.13369512557983	fix_pre	0		120	19.0	2.5	/experiments/Knapen_AOT/AOT_stimuli/rescaled_final/2105_fw.mp4	0.0	130.5754132270813	1.0083494186401367
21	115.14204454421997	movie	1		267	19.0	2.5	/experiments/Knapen_AOT/AOT_stimuli/rescaled_final/2105_fw.mp4	0.0	131.58376264572144	2.4921576976776123
21	115.51629304885864	pulse	1	t		19.0	2.5	/experiments/Knapen_AOT/AOT_stimuli/rescaled_final/2105_fw.mp4	0.0	131.9580111503601	
21	117.11692190170288	pulse	1	t		19.0	2.5	/experiments/Knapen_AOT/AOT_stimuli/rescaled_final/2105_fw.mp4	0.0	133.55864000320435	
21	117.63420224189758	fix_post	2		12	19.0	2.5	/experiments/Knapen_AOT/AOT_stimuli/rescaled_final/2105_fw.mp4	0.0	134.07592034339905	0.0998835563659668
22	117.73408579826355	fix_pre	0		119	20.0	2.5	/experiments/Knapen_AOT/AOT_stimuli/rescaled_final/1406_fw.mp4	0.0	134.17580389976501	1.000140905380249
22	118.70986914634705	pulse	0	t		20.0	2.5	/experiments/Knapen_AOT/AOT_stimuli/rescaled_final/1406_fw.mp4	0.0	135.1515872478485	
22	118.7342267036438	movie	1		280	20.0	2.5	/experiments/Knapen_AOT/AOT_stimuli/rescaled_final/1406_fw.mp4	0.0	135.17594480514526	2.500394105911255
22	120.31663870811462	pulse	1	t		20.0	2.5	/experiments/Knapen_AOT/AOT_stimuli/rescaled_final/1406_fw.mp4	0.0	136.7583568096161	
22	121.23462080955505	fix_post	2		12	20.0	2.5	/experiments/Knapen_AOT/AOT_stimuli/rescaled_final/1406_fw.mp4	0.0	137.67633891105652	0.09999370574951172
23	121.33461451530457	fix_pre	0		120	21.0	2.5	blank	1.0	137.77633261680603	1.000316858291626
23	121.91005539894104	pulse	0	t		21.0	2.5	blank	1.0	138.3517735004425	
23	122.33493137359619	movie	1		300	21.0	2.5	blank	1.0	138.77664947509766	2.500258207321167
23	123.51018643379211	pulse	1	t		21.0	2.5	blank	1.0	139.95190453529358	
23	124.83518958091736	fix_post	2		12	21.0	2.5	blank	1.0	141.27690768241882	0.09998965263366699
24	124.93517923355103	fix_pre	0		120	22.0	2.5	/experiments/Knapen_AOT/AOT_stimuli/rescaled_final/1815_rv.mp4	0.0	141.3768973350525	1.0084702968597412
24	125.11038541793823	pulse	0	t		22.0	2.5	/experiments/Knapen_AOT/AOT_stimuli/rescaled_final/1815_rv.mp4	0.0	141.5521035194397	
24	125.94364953041077	movie	1		289	22.0	2.5	/experiments/Knapen_AOT/AOT_stimuli/rescaled_final/1815_rv.mp4	0.0	142.38536763191223	2.4920339584350586
24	126.71065330505371	pulse	1	t		22.0	2.5	/experiments/Knapen_AOT/AOT_stimuli/rescaled_final/1815_rv.mp4	0.0	143.15237140655518	
24	128.31088256835938	pulse	1	t		22.0	2.5	/experiments/Knapen_AOT/AOT_stimuli/rescaled_final/1815_rv.mp4	0.0	144.75260066986084	
24	128.43568348884583	fix_post	2		12	22.0	2.5	/experiments/Knapen_AOT/AOT_stimuli/rescaled_final/1815_rv.mp4	0.0	144.8774015903473	0.10006356239318848
25	128.535747051239	fix_pre	0		120	23.0	2.5	/experiments/Knapen_AOT/AOT_stimuli/rescaled_final/0634_fw.mp4	0.0	144.97746515274048	1.0085656642913818
25	129.5443127155304	movie	1		279	23.0	2.5	/experiments/Knapen_AOT/AOT_stimuli/rescaled_final/0634_fw.mp4	0.0	145.98603081703186	2.491985321044922
25	129.91130447387695	pulse	1	t		23.0	2.5	/experiments/Knapen_AOT/AOT_stimuli/rescaled_final/0634_fw.mp4	0.0	146.35302257537842	
25	131.51140570640564	pulse	1	t		23.0	2.5	/experiments/Knapen_AOT/AOT_stimuli/rescaled_final/0634_fw.mp4	0.0	147.9531238079071	
25	132.03629803657532	fix_post	2		12	23.0	2.5	/experiments/Knapen_AOT/AOT_stimuli/rescaled_final/0634_fw.mp4	0.0	148.47801613807678	0.09994816780090332
26	132.13624620437622	fix_pre	0		118	24.0	2.5	/experiments/Knapen_AOT/AOT_stimuli/rescaled_final/1838_rv.mp4	0.0	148.57796430587769	0.9918422698974609
26	133.1117730140686	pulse	0	t		24.0	2.5	/experiments/Knapen_AOT/AOT_stimuli/rescaled_final/1838_rv.mp4	0.0	149.55349111557007	
26	133.12808847427368	movie	1		281	24.0	2.5	/experiments/Knapen_AOT/AOT_stimuli/rescaled_final/1838_rv.mp4	0.0	149.56980657577515	2.500344753265381
26	134.71068930625916	pulse	1	t		24.0	2.5	/experiments/Knapen_AOT/AOT_stimuli/rescaled_final/1838_rv.mp4	0.0	151.15240740776062	
26	135.62843322753906	fix_post	2		12	24.0	2.5	/experiments/Knapen_AOT/AOT_stimuli/rescaled_final/1838_rv.mp4	0.0	152.07015132904053	0.10010814666748047
27	135.72854137420654	fix_pre	0		120	25.0	2.5	/experiments/Knapen_AOT/AOT_stimuli/rescaled_final/1353_fw.mp4	0.0	152.170259475708	1.0084095001220703
27	136.31212258338928	pulse	0	t		25.0	2.5	/experiments/Knapen_AOT/AOT_stimuli/rescaled_final/1353_fw.mp4	0.0	152.75384068489075	
27	136.7369508743286	movie	1		292	25.0	2.5	/experiments/Knapen_AOT/AOT_stimuli/rescaled_final/1353_fw.mp4	0.0	153.17866897583008	2.4920637607574463
27	137.91027426719666	pulse	1	t		25.0	2.5	/experiments/Knapen_AOT/AOT_stimuli/rescaled_final/1353_fw.mp4	0.0	154.35199236869812	
27	139.22901463508606	fix_post	2		12	25.0	2.5	/experiments/Knapen_AOT/AOT_stimuli/rescaled_final/1353_fw.mp4	0.0	155.67073273658752	0.09997272491455078
28	139.3289873600006	fix_pre	0		120	26.0	2.5	/experiments/Knapen_AOT/AOT_stimuli/rescaled_final/2138_fw.mp4	0.0	155.77070546150208	1.0084917545318604
28	139.51257228851318	pulse	0	t		26.0	2.5	/experiments/Knapen_AOT/AOT_stimuli/rescaled_final/2138_fw.mp4	0.0	155.95429039001465	
28	140.33747911453247	movie	1		282	26.0	2.5	/experiments/Knapen_AOT/AOT_stimuli/rescaled_final/2138_fw.mp4	0.0	156.77919721603394	2.4920763969421387
28	141.1107952594757	pulse	1	t		26.0	2.5	/experiments/Knapen_AOT/AOT_stimuli/rescaled_final/2138_fw.mp4	0.0	157.55251336097717	
28	142.71120643615723	pulse	1	t		26.0	2.5	/experiments/Knapen_AOT/AOT_stimuli/rescaled_final/2138_fw.mp4	0.0	159.1529245376587	
28	142.8295555114746	fix_post	2		12	26.0	2.5	/experiments/Knapen_AOT/AOT_stimuli/rescaled_final/2138_fw.mp4	0.0	159.27127361297607	0.10000443458557129
29	142.92955994606018	fix_pre	0		120	27.0	2.5	/experiments/Knapen_AOT/AOT_stimuli/rescaled_final/1951_fw.mp4	0.0	159.37127804756165	1.008472204208374
29	143.93803215026855	movie	1		270	27.0	2.5	/experiments/Knapen_AOT/AOT_stimuli/rescaled_final/1951_fw.mp4	0.0	160.37975025177002	2.4920244216918945
29	144.31348967552185	pulse	1	t		27.0	2.5	/experiments/Knapen_AOT/AOT_stimuli/rescaled_final/1951_fw.mp4	0.0	160.75520777702332	
29	145.91144561767578	pulse	1	t		27.0	2.5	/experiments/Knapen_AOT/AOT_stimuli/rescaled_final/1951_fw.mp4	0.0	162.35316371917725	
29	146.43005657196045	fix_post	2		12	27.0	2.5	/experiments/Knapen_AOT/AOT_stimuli/rescaled_final/1951_fw.mp4	0.0	162.8717746734619	0.1000223159790039
30	146.53007888793945	fix_pre	0		119	28.0	2.5	blank	1.0	162.97179698944092	0.9917659759521484
30	147.51368975639343	pulse	0	t		28.0	2.5	blank	1.0	163.9554078578949	
30	147.5218448638916	movie	1		301	28.0	2.5	blank	1.0	163.96356296539307	2.5087480545043945
30	149.11449670791626	pulse	1	t		28.0	2.5	blank	1.0	165.55621480941772	
30	150.030592918396	fix_post	2		12	28.0	2.5	blank	1.0	166.47231101989746	0.10002970695495605
31	150.13062262535095	fix_pre	0		120	29.0	2.5	/experiments/Knapen_AOT/AOT_stimuli/rescaled_final/0529_rv.mp4	0.0	166.57234072685242	1.008500576019287
31	150.71423387527466	pulse	0	t		29.0	2.5	/experiments/Knapen_AOT/AOT_stimuli/rescaled_final/0529_rv.mp4	0.0	167.15595197677612	
31	151.13912320137024	movie	1		279	29.0	2.5	/experiments/Knapen_AOT/AOT_stimuli/rescaled_final/0529_rv.mp4	0.0	167.5808413028717	2.4920401573181152
31	152.31275534629822	pulse	1	t		29.0	2.5	/experiments/Knapen_AOT/AOT_stimuli/rescaled_final/0529_rv.mp4	0.0	168.75447344779968	
31	153.63116335868835	fix_post	2		12	29.0	2.5	/experiments/Knapen_AOT/AOT_stimuli/rescaled_final/0529_rv.mp4	0.0	170.07288146018982	0.1000053882598877
32	153.73116874694824	fix_pre	0		120	30.0	2.5	/experiments/Knapen_AOT/AOT_stimuli/rescaled_final/0370_fw.mp4	0.0	170.1728868484497	1.0085468292236328
32	153.9146785736084	pulse	0	t		30.0	2.5	/experiments/Knapen_AOT/AOT_stimuli/rescaled_final/0370_fw.mp4	0.0	170.35639667510986	
32	154.73971557617188	movie	1		283	30.0	2.5	/experiments/Knapen_AOT/AOT_stimuli/rescaled_final/0370_fw.mp4	0.0	171.18143367767334	2.4920568466186523
32	155.51288485527039	pulse	1	t		30.0	2.5	/experiments/Knapen_AOT/AOT_stimuli/rescaled_final/0370_fw.mp4	0.0	171.95460295677185	
32	157.11301445960999	pulse	1	t		30.0	2.5	/experiments/Knapen_AOT/AOT_stimuli/rescaled_final/0370_fw.mp4	0.0	173.55473256111145	
32	157.23177242279053	fix_post	2		12	30.0	2.5	/experiments/Knapen_AOT/AOT_stimuli/rescaled_final/0370_fw.mp4	0.0	173.673490524292	0.09993195533752441
33	157.33170437812805	fix_pre	0		120	31.0	2.5	/experiments/Knapen_AOT/AOT_stimuli/rescaled_final/1721_fw.mp4	0.0	173.77342247962952	1.0085036754608154
33	158.34020805358887	movie	1		275	31.0	2.5	/experiments/Knapen_AOT/AOT_stimuli/rescaled_final/1721_fw.mp4	0.0	174.78192615509033	2.492013931274414
33	158.71381497383118	pulse	1	t		31.0	2.5	/experiments/Knapen_AOT/AOT_stimuli/rescaled_final/1721_fw.mp4	0.0	175.15553307533264	
33	160.31405401229858	pulse	1	t		31.0	2.5	/experiments/Knapen_AOT/AOT_stimuli/rescaled_final/1721_fw.mp4	0.0	176.75577211380005	
33	160.83222198486328	fix_post	2		12	31.0	2.5	/experiments/Knapen_AOT/AOT_stimuli/rescaled_final/1721_fw.mp4	0.0	177.27394008636475	0.10000014305114746
34	160.93222212791443	fix_pre	0		119	32.0	2.5	/experiments/Knapen_AOT/AOT_stimuli/rescaled_final/1698_rv.mp4	0.0	177.3739402294159	1.0001614093780518
34	161.91586065292358	pulse	0	t		32.0	2.5	/experiments/Knapen_AOT/AOT_stimuli/rescaled_final/1698_rv.mp4	0.0	178.35757875442505	
34	161.93238353729248	movie	1		288	32.0	2.5	/experiments/Knapen_AOT/AOT_stimuli/rescaled_final/1698_rv.mp4	0.0	178.37410163879395	2.5003888607025146
34	163.5148684978485	pulse	1	t		32.0	2.5	/experiments/Knapen_AOT/AOT_stimuli/rescaled_final/1698_rv.mp4	0.0	179.95658659934998	
34	164.432772397995	fix_post	2		12	32.0	2.5	/experiments/Knapen_AOT/AOT_stimuli/rescaled_final/1698_rv.mp4	0.0	180.87449049949646	0.10001993179321289
35	164.5327923297882	fix_pre	0		120	33.0	2.5	/experiments/Knapen_AOT/AOT_stimuli/rescaled_final/0545_rv.mp4	0.0	180.97451043128967	1.0085155963897705
35	165.11639523506165	pulse	0	t		33.0	2.5	/experiments/Knapen_AOT/AOT_stimuli/rescaled_final/0545_rv.mp4	0.0	181.5581133365631	
35	165.54130792617798	movie	1		282	33.0	2.5	/experiments/Knapen_AOT/AOT_stimuli/rescaled_final/0545_rv.mp4	0.0	181.98302602767944	2.4919915199279785
35	166.7159571647644	pulse	1	t		33.0	2.5	/experiments/Knapen_AOT/AOT_stimuli/rescaled_final/0545_rv.mp4	0.0	183.15767526626587	
35	168.03329944610596	fix_post	2		12	33.0	2.5	/experiments/Knapen_AOT/AOT_stimuli/rescaled_final/0545_rv.mp4	0.0	184.47501754760742	0.1000211238861084
36	168.13332056999207	fix_pre	0		120	34.0	2.5	/experiments/Knapen_AOT/AOT_stimuli/rescaled_final/0343_fw.mp4	0.0	184.57503867149353	1.008512020111084
36	168.31682324409485	pulse	0	t		34.0	2.5	/experiments/Knapen_AOT/AOT_stimuli/rescaled_final/0343_fw.mp4	0.0	184.7585413455963	
36	169.14183259010315	movie	1		277	34.0	2.5	/experiments/Knapen_AOT/AOT_stimuli/rescaled_final/0343_fw.mp4	0.0	185.58355069160461	2.492063283920288
36	169.91555762290955	pulse	1	t		34.0	2.5	/experiments/Knapen_AOT/AOT_stimuli/rescaled_final/0343_fw.mp4	0.0	186.357275724411	
36	171.51531076431274	pulse	1	t		34.0	2.5	/experiments/Knapen_AOT/AOT_stimuli/rescaled_final/0343_fw.mp4	0.0	187.9570288658142	
36	171.63389587402344	fix_post	2		12	34.0	2.5	/experiments/Knapen_AOT/AOT_stimuli/rescaled_final/0343_fw.mp4	0.0	188.0756139755249	0.09996700286865234
37	171.7338628768921	fix_pre	0		120	35.0	2.5	blank	1.0	188.17558097839355	1.0001459121704102
37	172.7340087890625	movie	1		300	35.0	2.5	blank	1.0	189.17572689056396	2.5003714561462402
37	173.11824822425842	pulse	1	t		35.0	2.5	blank	1.0	189.5599663257599	
37	174.71799778938293	pulse	1	t		35.0	2.5	blank	1.0	191.1597158908844	
37	175.23438024520874	fix_post	2		12	35.0	2.5	blank	1.0	191.6760983467102	0.10003042221069336
38	175.33441066741943	fix_pre	0		119	36.0	2.5	/experiments/Knapen_AOT/AOT_stimuli/rescaled_final/1235_fw.mp4	0.0	191.7761287689209	1.0085258483886719
38	176.3111183643341	pulse	0	t		36.0	2.5	/experiments/Knapen_AOT/AOT_stimuli/rescaled_final/1235_fw.mp4	0.0	192.75283646583557	
38	176.3429365158081	movie	1		273	36.0	2.5	/experiments/Knapen_AOT/AOT_stimuli/rescaled_final/1235_fw.mp4	0.0	192.78465461730957	2.492191791534424
38	177.9167456626892	pulse	1	t		36.0	2.5	/experiments/Knapen_AOT/AOT_stimuli/rescaled_final/1235_fw.mp4	0.0	194.35846376419067	
38	178.83512830734253	fix_post	2		12	36.0	2.5	/experiments/Knapen_AOT/AOT_stimuli/rescaled_final/1235_fw.mp4	0.0	195.276846408844	0.09983968734741211
39	178.93496799468994	fix_pre	0		120	37.0	2.5	/experiments/Knapen_AOT/AOT_stimuli/rescaled_final/1648_fw.mp4	0.0	195.3766860961914	1.00850510597229
39	179.51040840148926	pulse	0	t		37.0	2.5	/experiments/Knapen_AOT/AOT_stimuli/rescaled_final/1648_fw.mp4	0.0	195.95212650299072	
39	179.94347310066223	movie	1		291	37.0	2.5	/experiments/Knapen_AOT/AOT_stimuli/rescaled_final/1648_fw.mp4	0.0	196.3851912021637	2.4919917583465576
39	181.11076617240906	pulse	1	t		37.0	2.5	/experiments/Knapen_AOT/AOT_stimuli/rescaled_final/1648_fw.mp4	0.0	197.55248427391052	
39	182.4354648590088	fix_post	2		12	37.0	2.5	/experiments/Knapen_AOT/AOT_stimuli/rescaled_final/1648_fw.mp4	0.0	198.87718296051025	0.10001230239868164
40	182.53547716140747	fix_pre	0		120	38.0	2.5	/experiments/Knapen_AOT/AOT_stimuli/rescaled_final/1127_fw.mp4	0.0	198.97719526290894	1.008516788482666
40	182.71069931983948	pulse	0	t		38.0	2.5	/experiments/Knapen_AOT/AOT_stimuli/rescaled_final/1127_fw.mp4	0.0	199.15241742134094	
40	183.54399394989014	movie	1		272	38.0	2.5	/experiments/Knapen_AOT/AOT_stimuli/rescaled_final/1127_fw.mp4	0.0	199.9857120513916	2.4920454025268555
40	184.31092309951782	pulse	1	t		38.0	2.5	/experiments/Knapen_AOT/AOT_stimuli/rescaled_final/1127_fw.mp4	0.0	200.7526412010193	
40	185.91118240356445	pulse	1	t		38.0	2.5	/experiments/Knapen_AOT/AOT_stimuli/rescaled_final/1127_fw.mp4	0.0	202.35290050506592	
40	186.036039352417	fix_post	2		12	38.0	2.5	/experiments/Knapen_AOT/AOT_stimuli/rescaled_final/1127_fw.mp4	0.0	202.47775745391846	0.09995031356811523
41	186.1359896659851	fix_pre	0		120	39.0	2.5	/experiments/Knapen_AOT/AOT_stimuli/rescaled_final/0316_fw.mp4	0.0	202.57770776748657	1.0085461139678955
41	187.144535779953	movie	1		271	39.0	2.5	/experiments/Knapen_AOT/AOT_stimuli/rescaled_final/0316_fw.mp4	0.0	203.58625388145447	2.4921610355377197
41	187.51138949394226	pulse	1	t		39.0	2.5	/experiments/Knapen_AOT/AOT_stimuli/rescaled_final/0316_fw.mp4	0.0	203.95310759544373	
41	189.11187052726746	pulse	1	t		39.0	2.5	/experiments/Knapen_AOT/AOT_stimuli/rescaled_final/0316_fw.mp4	0.0	205.55358862876892	
41	189.63669681549072	fix_post	2		12	39.0	2.5	/experiments/Knapen_AOT/AOT_stimuli/rescaled_final/0316_fw.mp4	0.0	206.0784149169922	0.09986686706542969
42	189.73656368255615	fix_pre	0		118	40.0	2.5	/experiments/Knapen_AOT/AOT_stimuli/rescaled_final/2023_fw.mp4	0.0	206.17828178405762	0.9918158054351807
42	190.71188020706177	pulse	0	t		40.0	2.5	/experiments/Knapen_AOT/AOT_stimuli/rescaled_final/2023_fw.mp4	0.0	207.15359830856323	
42	190.72837948799133	movie	1		287	40.0	2.5	/experiments/Knapen_AOT/AOT_stimuli/rescaled_final/2023_fw.mp4	0.0	207.1700975894928	2.500380277633667
42	192.31104612350464	pulse	1	t		40.0	2.5	/experiments/Knapen_AOT/AOT_stimuli/rescaled_final/2023_fw.mp4	0.0	208.7527642250061	
42	193.228759765625	fix_post	2		12	40.0	2.5	/experiments/Knapen_AOT/AOT_stimuli/rescaled_final/2023_fw.mp4	0.0	209.67047786712646	0.1000068187713623
43	193.32876658439636	fix_pre	0		120	41.0	2.5	blank	1.0	209.77048468589783	1.0002532005310059
43	193.9130983352661	pulse	0	t		41.0	2.5	blank	1.0	210.35481643676758	
43	194.32901978492737	movie	1		300	41.0	2.5	blank	1.0	210.77073788642883	2.5002968311309814
43	195.51286578178406	pulse	1	t		41.0	2.5	blank	1.0	211.95458388328552	
43	196.82931661605835	fix_post	2		12	41.0	2.5	blank	1.0	213.27103471755981	0.10000848770141602
44	196.92932510375977	fix_pre	0		120	42.0	2.5	/experiments/Knapen_AOT/AOT_stimuli/rescaled_final/0098_rv.mp4	0.0	213.37104320526123	1.0084989070892334
44	197.11302733421326	pulse	0	t		42.0	2.5	/experiments/Knapen_AOT/AOT_stimuli/rescaled_final/0098_rv.mp4	0.0	213.55474543571472	
44	197.937824010849	movie	1		267	42.0	2.5	/experiments/Knapen_AOT/AOT_stimuli/rescaled_final/0098_rv.mp4	0.0	214.37954211235046	2.4920127391815186
44	198.711350440979	pulse	1	t		42.0	2.5	/experiments/Knapen_AOT/AOT_stimuli/rescaled_final/0098_rv.mp4	0.0	215.15306854248047	
44	200.31128859519958	pulse	1	t		42.0	2.5	/experiments/Knapen_AOT/AOT_stimuli/rescaled_final/0098_rv.mp4	0.0	216.75300669670105	
44	200.42983675003052	fix_post	2		12	42.0	2.5	/experiments/Knapen_AOT/AOT_stimuli/rescaled_final/0098_rv.mp4	0.0	216.87155485153198	0.10001945495605469
45	200.52985620498657	fix_pre	0		120	43.0	2.5	/experiments/Knapen_AOT/AOT_stimuli/rescaled_final/0923_rv.mp4	0.0	216.97157430648804	1.008528470993042
45	201.53838467597961	movie	1		276	43.0	2.5	/experiments/Knapen_AOT/AOT_stimuli/rescaled_final/0923_rv.mp4	0.0	217.98010277748108	2.4922070503234863
45	201.91205835342407	pulse	1	t		43.0	2.5	/experiments/Knapen_AOT/AOT_stimuli/rescaled_final/0923_rv.mp4	0.0	218.35377645492554	
45	203.5120940208435	pulse	1	t		43.0	2.5	/experiments/Knapen_AOT/AOT_stimuli/rescaled_final/0923_rv.mp4	0.0	219.95381212234497	
45	204.0305917263031	fix_post	2		12	43.0	2.5	/experiments/Knapen_AOT/AOT_stimuli/rescaled_final/0923_rv.mp4	0.0	220.47230982780457	0.09979844093322754
46	204.13039016723633	fix_pre	0		119	44.0	2.5	/experiments/Knapen_AOT/AOT_stimuli/rescaled_final/0100_rv.mp4	0.0	220.5721082687378	1.0002076625823975
46	205.1140501499176	pulse	0	t		44.0	2.5	/experiments/Knapen_AOT/AOT_stimuli/rescaled_final/0100_rv.mp4	0.0	221.55576825141907	
46	205.13059782981873	movie	1		276	44.0	2.5	/experiments/Knapen_AOT/AOT_stimuli/rescaled_final/0100_rv.mp4	0.0	221.5723159313202	2.5003232955932617
46	206.71256470680237	pulse	1	t		44.0	2.5	/experiments/Knapen_AOT/AOT_stimuli/rescaled_final/0100_rv.mp4	0.0	223.15428280830383	
46	207.630921125412	fix_post	2		12	44.0	2.5	/experiments/Knapen_AOT/AOT_stimuli/rescaled_final/0100_rv.mp4	0.0	224.07263922691345	0.10003209114074707
47	207.73095321655273	fix_pre	0		120	45.0	2.5	/experiments/Knapen_AOT/AOT_stimuli/rescaled_final/0179_fw.mp4	0.0	224.1726713180542	1.008448839187622
47	208.31483483314514	pulse	0	t		45.0	2.5	/experiments/Knapen_AOT/AOT_stimuli/rescaled_final/0179_fw.mp4	0.0	224.7565529346466	
47	208.73940205574036	movie	1		286	45.0	2.5	/experiments/Knapen_AOT/AOT_stimuli/rescaled_final/0179_fw.mp4	0.0	225.18112015724182	2.492065191268921
47	209.91290974617004	pulse	1	t		45.0	2.5	/experiments/Knapen_AOT/AOT_stimuli/rescaled_final/0179_fw.mp4	0.0	226.3546278476715	
47	211.23146724700928	fix_post	2		12	45.0	2.5	/experiments/Knapen_AOT/AOT_stimuli/rescaled_final/0179_fw.mp4	0.0	227.67318534851074	0.10001373291015625
48	211.33148097991943	fix_pre	0		120	46.0	2.5	/experiments/Knapen_AOT/AOT_stimuli/rescaled_final/1628_fw.mp4	0.0	227.7731990814209	1.0085792541503906
48	211.51504850387573	pulse	0	t		46.0	2.5	/experiments/Knapen_AOT/AOT_stimuli/rescaled_final/1628_fw.mp4	0.0	227.9567666053772	
48	212.34006023406982	movie	1		285	46.0	2.5	/experiments/Knapen_AOT/AOT_stimuli/rescaled_final/1628_fw.mp4	0.0	228.7817783355713	2.4919724464416504
48	213.11357045173645	pulse	1	t		46.0	2.5	/experiments/Knapen_AOT/AOT_stimuli/rescaled_final/1628_fw.mp4	0.0	229.55528855323792	
48	214.71359729766846	pulse	1	t		46.0	2.5	/experiments/Knapen_AOT/AOT_stimuli/rescaled_final/1628_fw.mp4	0.0	231.15531539916992	
48	214.83203268051147	fix_post	2		12	46.0	2.5	/experiments/Knapen_AOT/AOT_stimuli/rescaled_final/1628_fw.mp4	0.0	231.27375078201294	0.1000514030456543
49	214.93208408355713	fix_pre	0		120	47.0	2.5	/experiments/Knapen_AOT/AOT_stimuli/rescaled_final/0444_rv.mp4	0.0	231.3738021850586	1.0084877014160156
49	215.94057178497314	movie	1		274	47.0	2.5	/experiments/Knapen_AOT/AOT_stimuli/rescaled_final/0444_rv.mp4	0.0	232.3822898864746	2.4919779300689697
49	216.31597089767456	pulse	1	t		47.0	2.5	/experiments/Knapen_AOT/AOT_stimuli/rescaled_final/0444_rv.mp4	0.0	232.75768899917603	
49	217.91425704956055	pulse	1	t		47.0	2.5	/experiments/Knapen_AOT/AOT_stimuli/rescaled_final/0444_rv.mp4	0.0	234.355975151062	
49	218.43254971504211	fix_post	2		12	47.0	2.5	/experiments/Knapen_AOT/AOT_stimuli/rescaled_final/0444_rv.mp4	0.0	234.87426781654358	0.10001754760742188
50	218.53256726264954	fix_pre	0		119	48.0	2.5	/experiments/Knapen_AOT/AOT_stimuli/rescaled_final/1601_rv.mp4	0.0	234.974285364151	1.0002446174621582
50	219.51634573936462	pulse	0	t		48.0	2.5	/experiments/Knapen_AOT/AOT_stimuli/rescaled_final/1601_rv.mp4	0.0	235.9580638408661	
50	219.5328118801117	movie	1		245	48.0	2.5	/experiments/Knapen_AOT/AOT_stimuli/rescaled_final/1601_rv.mp4	0.0	235.97452998161316	2.5002903938293457
50	221.11479949951172	pulse	1	t		48.0	2.5	/experiments/Knapen_AOT/AOT_stimuli/rescaled_final/1601_rv.mp4	0.0	237.55651760101318	
50	222.03310227394104	fix_post	2		12	48.0	2.5	/experiments/Knapen_AOT/AOT_stimuli/rescaled_final/1601_rv.mp4	0.0	238.4748203754425	0.10000753402709961
51	222.13310980796814	fix_pre	0		120	49.0	2.5	blank	1.0	238.5748279094696	1.0001301765441895
51	222.7168345451355	pulse	0	t		49.0	2.5	blank	1.0	239.15855264663696	
51	223.13323998451233	movie	1		300	49.0	2.5	blank	1.0	239.5749580860138	2.500385046005249
51	224.31721425056458	pulse	1	t		49.0	2.5	blank	1.0	240.75893235206604	
51	225.63362503051758	fix_post	2		12	49.0	2.5	blank	1.0	242.07534313201904	0.10004281997680664
52	225.73366785049438	fix_pre	0		120	50.0	2.5	/experiments/Knapen_AOT/AOT_stimuli/rescaled_final/0141_rv.mp4	0.0	242.17538595199585	1.0085043907165527
52	225.91722178459167	pulse	0	t		50.0	2.5	/experiments/Knapen_AOT/AOT_stimuli/rescaled_final/0141_rv.mp4	0.0	242.35893988609314	
52	226.74217224121094	movie	1		276	50.0	2.5	/experiments/Knapen_AOT/AOT_stimuli/rescaled_final/0141_rv.mp4	0.0	243.1838903427124	2.492002487182617
52	227.5152554512024	pulse	1	t		50.0	2.5	/experiments/Knapen_AOT/AOT_stimuli/rescaled_final/0141_rv.mp4	0.0	243.95697355270386	
52	229.11579084396362	pulse	1	t		50.0	2.5	/experiments/Knapen_AOT/AOT_stimuli/rescaled_final/0141_rv.mp4	0.0	245.5575089454651	
52	229.23417472839355	fix_post	2		12	50.0	2.5	/experiments/Knapen_AOT/AOT_stimuli/rescaled_final/0141_rv.mp4	0.0	245.67589282989502	0.10003161430358887
53	229.33420634269714	fix_pre	0		120	51.0	2.5	/experiments/Knapen_AOT/AOT_stimuli/rescaled_final/0444_fw.mp4	0.0	245.7759244441986	1.0085265636444092
53	230.34273290634155	movie	1		276	51.0	2.5	/experiments/Knapen_AOT/AOT_stimuli/rescaled_final/0444_fw.mp4	0.0	246.78445100784302	2.4919848442077637
53	230.70985865592957	pulse	1	t		51.0	2.5	/experiments/Knapen_AOT/AOT_stimuli/rescaled_final/0444_fw.mp4	0.0	247.15157675743103	
53	232.31011939048767	pulse	1	t		51.0	2.5	/experiments/Knapen_AOT/AOT_stimuli/rescaled_final/0444_fw.mp4	0.0	248.75183749198914	
53	232.83471775054932	fix_post	2		12	51.0	2.5	/experiments/Knapen_AOT/AOT_stimuli/rescaled_final/0444_fw.mp4	0.0	249.27643585205078	0.10000443458557129
54	232.9347221851349	fix_pre	0		118	52.0	2.5	/experiments/Knapen_AOT/AOT_stimuli/rescaled_final/1867_fw.mp4	0.0	249.37644028663635	0.991828203201294
54	233.91008162498474	pulse	0	t		52.0	2.5	/experiments/Knapen_AOT/AOT_stimuli/rescaled_final/1867_fw.mp4	0.0	250.3517997264862	
54	233.92655038833618	movie	1		269	52.0	2.5	/experiments/Knapen_AOT/AOT_stimuli/rescaled_final/1867_fw.mp4	0.0	250.36826848983765	2.5004563331604004
54	235.5101284980774	pulse	1	t		52.0	2.5	/experiments/Knapen_AOT/AOT_stimuli/rescaled_final/1867_fw.mp4	0.0	251.95184659957886	
54	236.42700672149658	fix_post	2		12	52.0	2.5	/experiments/Knapen_AOT/AOT_stimuli/rescaled_final/1867_fw.mp4	0.0	252.86872482299805	0.09990501403808594
55	236.52691173553467	fix_pre	0		120	53.0	2.5	/experiments/Knapen_AOT/AOT_stimuli/rescaled_final/1601_fw.mp4	0.0	252.96862983703613	1.0086560249328613
55	237.11076045036316	pulse	0	t		53.0	2.5	/experiments/Knapen_AOT/AOT_stimuli/rescaled_final/1601_fw.mp4	0.0	253.55247855186462	
55	237.53556776046753	movie	1		271	53.0	2.5	/experiments/Knapen_AOT/AOT_stimuli/rescaled_final/1601_fw.mp4	0.0	253.977285861969	2.491941452026367
55	238.71065950393677	pulse	1	t		53.0	2.5	/experiments/Knapen_AOT/AOT_stimuli/rescaled_final/1601_fw.mp4	0.0	255.15237760543823	
55	240.0275092124939	fix_post	2		12	53.0	2.5	/experiments/Knapen_AOT/AOT_stimuli/rescaled_final/1601_fw.mp4	0.0	256.46922731399536	0.09998154640197754
56	240.12749075889587	fix_pre	0		120	54.0	2.5	/experiments/Knapen_AOT/AOT_stimuli/rescaled_final/2068_fw.mp4	0.0	256.56920886039734	1.008479356765747
56	240.31103014945984	pulse	0	t		54.0	2.5	/experiments/Knapen_AOT/AOT_stimuli/rescaled_final/2068_fw.mp4	0.0	256.7527482509613	
56	241.13597011566162	movie	1		278	54.0	2.5	/experiments/Knapen_AOT/AOT_stimuli/rescaled_final/2068_fw.mp4	0.0	257.5776882171631	2.4920365810394287
56	241.91130256652832	pulse	1	t		54.0	2.5	/experiments/Knapen_AOT/AOT_stimuli/rescaled_final/2068_fw.mp4	0.0	258.3530206680298	
56	243.50987315177917	pulse	1	t		54.0	2.5	/experiments/Knapen_AOT/AOT_stimuli/rescaled_final/2068_fw.mp4	0.0	259.95159125328064	
56	243.62800669670105	fix_post	2		12	54.0	2.5	/experiments/Knapen_AOT/AOT_stimuli/rescaled_final/2068_fw.mp4	0.0	260.0697247982025	0.10002660751342773
57	243.72803330421448	fix_pre	0		120	55.0	2.5	blank	1.0	260.16975140571594	1.0001542568206787
57	244.72818756103516	movie	1		300	55.0	2.5	blank	1.0	261.1699056625366	2.5003511905670166
57	245.111798286438	pulse	1	t		55.0	2.5	blank	1.0	261.55351638793945	
57	246.71205711364746	pulse	1	t		55.0	2.5	blank	1.0	263.1537752151489	
57	247.22853875160217	fix_post	2		12	55.0	2.5	blank	1.0	263.67025685310364	0.10001683235168457
58	247.32855558395386	fix_pre	0		119	56.0	2.5	/experiments/Knapen_AOT/AOT_stimuli/rescaled_final/0619_fw.mp4	0.0	263.7702736854553	1.0001575946807861
58	248.3123185634613	pulse	0	t		56.0	2.5	/experiments/Knapen_AOT/AOT_stimuli/rescaled_final/0619_fw.mp4	0.0	264.75403666496277	
58	248.32871317863464	movie	1		286	56.0	2.5	/experiments/Knapen_AOT/AOT_stimuli/rescaled_final/0619_fw.mp4	0.0	264.7704312801361	2.500375270843506
58	249.91064310073853	pulse	1	t		56.0	2.5	/experiments/Knapen_AOT/AOT_stimuli/rescaled_final/0619_fw.mp4	0.0	266.35236120224	
58	250.82908844947815	fix_post	2		12	56.0	2.5	/experiments/Knapen_AOT/AOT_stimuli/rescaled_final/0619_fw.mp4	0.0	267.2708065509796	0.10005807876586914
59	250.92914652824402	fix_pre	0		120	57.0	2.5	/experiments/Knapen_AOT/AOT_stimuli/rescaled_final/2068_fw.mp4	0.0	267.3708646297455	1.0084526538848877
59	251.5127649307251	pulse	0	t		57.0	2.5	/experiments/Knapen_AOT/AOT_stimuli/rescaled_final/2068_fw.mp4	0.0	267.95448303222656	
59	251.9375991821289	movie	1		279	57.0	2.5	/experiments/Knapen_AOT/AOT_stimuli/rescaled_final/2068_fw.mp4	0.0	268.37931728363037	2.49202561378479
59	253.11140155792236	pulse	1	t		57.0	2.5	/experiments/Knapen_AOT/AOT_stimuli/rescaled_final/2068_fw.mp4	0.0	269.5531196594238	
59	254.4296247959137	fix_post	2		12	57.0	2.5	/experiments/Knapen_AOT/AOT_stimuli/rescaled_final/2068_fw.mp4	0.0	270.87134289741516	0.10002541542053223
60	254.52965021133423	fix_pre	0		120	58.0	2.5	/experiments/Knapen_AOT/AOT_stimuli/rescaled_final/0600_rv.mp4	0.0	270.9713683128357	1.0085084438323975
60	254.71320295333862	pulse	0	t		58.0	2.5	/experiments/Knapen_AOT/AOT_stimuli/rescaled_final/0600_rv.mp4	0.0	271.1549210548401	
60	255.53815865516663	movie	1		263	58.0	2.5	/experiments/Knapen_AOT/AOT_stimuli/rescaled_final/0600_rv.mp4	0.0	271.9798767566681	2.4920315742492676
60	256.31188774108887	pulse	1	t		58.0	2.5	/experiments/Knapen_AOT/AOT_stimuli/rescaled_final/0600_rv.mp4	0.0	272.75360584259033	
60	257.9117257595062	pulse	1	t		58.0	2.5	/experiments/Knapen_AOT/AOT_stimuli/rescaled_final/0600_rv.mp4	0.0	274.3534438610077	
60	258.0301902294159	fix_post	2		12	58.0	2.5	/experiments/Knapen_AOT/AOT_stimuli/rescaled_final/0600_rv.mp4	0.0	274.47190833091736	0.10002684593200684
61	258.1302170753479	fix_pre	0		120	59.0	2.5	/experiments/Knapen_AOT/AOT_stimuli/rescaled_final/1698_fw.mp4	0.0	274.57193517684937	1.0084617137908936
61	259.1386787891388	movie	1		282	59.0	2.5	/experiments/Knapen_AOT/AOT_stimuli/rescaled_final/1698_fw.mp4	0.0	275.58039689064026	2.492030143737793
61	259.51226115226746	pulse	1	t		59.0	2.5	/experiments/Knapen_AOT/AOT_stimuli/rescaled_final/1698_fw.mp4	0.0	275.9539792537689	
61	261.11258840560913	pulse	1	t		59.0	2.5	/experiments/Knapen_AOT/AOT_stimuli/rescaled_final/1698_fw.mp4	0.0	277.5543065071106	
61	261.6307089328766	fix_post	2		12	59.0	2.5	/experiments/Knapen_AOT/AOT_stimuli/rescaled_final/1698_fw.mp4	0.0	278.07242703437805	0.10001158714294434
62	261.73072052001953	fix_pre	0		119	60.0	2.5	/experiments/Knapen_AOT/AOT_stimuli/rescaled_final/1734_fw.mp4	0.0	278.172438621521	1.0002493858337402
62	262.71448588371277	pulse	0	t		60.0	2.5	/experiments/Knapen_AOT/AOT_stimuli/rescaled_final/1734_fw.mp4	0.0	279.15620398521423	
62	262.73096990585327	movie	1		282	60.0	2.5	/experiments/Knapen_AOT/AOT_stimuli/rescaled_final/1734_fw.mp4	0.0	279.17268800735474	2.5003044605255127
62	264.3127963542938	pulse	1	t		60.0	2.5	/experiments/Knapen_AOT/AOT_stimuli/rescaled_final/1734_fw.mp4	0.0	280.7545144557953	
62	265.2312743663788	fix_post	2		12	60.0	2.5	/experiments/Knapen_AOT/AOT_stimuli/rescaled_final/1734_fw.mp4	0.0	281.67299246788025	0.10001516342163086
63	265.3312895298004	fix_pre	0		120	61.0	2.5	/experiments/Knapen_AOT/AOT_stimuli/rescaled_final/1127_rv.mp4	0.0	281.7730076313019	1.0084691047668457
63	265.9153289794922	pulse	0	t		61.0	2.5	/experiments/Knapen_AOT/AOT_stimuli/rescaled_final/1127_rv.mp4	0.0	282.35704708099365	
63	266.33975863456726	movie	1		272	61.0	2.5	/experiments/Knapen_AOT/AOT_stimuli/rescaled_final/1127_rv.mp4	0.0	282.7814767360687	2.49202823638916
63	267.51329708099365	pulse	1	t		61.0	2.5	/experiments/Knapen_AOT/AOT_stimuli/rescaled_final/1127_rv.mp4	0.0	283.9550151824951	
63	268.8317868709564	fix_post	2		12	61.0	2.5	/experiments/Knapen_AOT/AOT_stimuli/rescaled_final/1127_rv.mp4	0.0	285.2735049724579	0.1000521183013916
64	268.9318389892578	fix_pre	0		120	62.0	2.5	/experiments/Knapen_AOT/AOT_stimuli/rescaled_final/0347_fw.mp4	0.0	285.3735570907593	1.0084941387176514
64	269.1154136657715	pulse	0	t		62.0	2.5	/experiments/Knapen_AOT/AOT_stimuli/rescaled_final/0347_fw.mp4	0.0	285.55713176727295	
64	269.94033312797546	movie	1		262	62.0	2.5	/experiments/Knapen_AOT/AOT_stimuli/rescaled_final/0347_fw.mp4	0.0	286.38205122947693	2.492020845413208
64	270.7137665748596	pulse	1	t		62.0	2.5	/experiments/Knapen_AOT/AOT_stimuli/rescaled_final/0347_fw.mp4	0.0	287.1554846763611	
64	272.31398916244507	pulse	1	t		62.0	2.5	/experiments/Knapen_AOT/AOT_stimuli/rescaled_final/0347_fw.mp4	0.0	288.75570726394653	
64	272.4323539733887	fix_post	2		12	62.0	2.5	/experiments/Knapen_AOT/AOT_stimuli/rescaled_final/0347_fw.mp4	0.0	288.87407207489014	0.09999322891235352
65	272.532347202301	fix_pre	0		120	63.0	2.5	blank	1.0	288.9740653038025	1.0001540184020996
65	273.5325012207031	movie	1		299	63.0	2.5	blank	1.0	289.9742193222046	2.500384569168091
65	273.91608715057373	pulse	1	t		63.0	2.5	blank	1.0	290.3578052520752	
65	275.51652574539185	pulse	1	t		63.0	2.5	blank	1.0	291.9582438468933	
65	276.0328857898712	fix_post	2		12	63.0	2.5	blank	1.0	292.4746038913727	0.10000467300415039
66	276.13289046287537	fix_pre	0		119	64.0	2.5	/experiments/Knapen_AOT/AOT_stimuli/rescaled_final/1741_rv.mp4	0.0	292.57460856437683	1.0085430145263672
66	277.11656951904297	pulse	0	t		64.0	2.5	/experiments/Knapen_AOT/AOT_stimuli/rescaled_final/1741_rv.mp4	0.0	293.55828762054443	
66	277.14143347740173	movie	1		285	64.0	2.5	/experiments/Knapen_AOT/AOT_stimuli/rescaled_final/1741_rv.mp4	0.0	293.5831515789032	2.4919698238372803
66	278.7160391807556	pulse	1	t		64.0	2.5	/experiments/Knapen_AOT/AOT_stimuli/rescaled_final/1741_rv.mp4	0.0	295.1577572822571	
66	279.633403301239	fix_post	2		12	64.0	2.5	/experiments/Knapen_AOT/AOT_stimuli/rescaled_final/1741_rv.mp4	0.0	296.0751214027405	0.10002255439758301
67	279.7334258556366	fix_pre	0		120	65.0	2.5	/experiments/Knapen_AOT/AOT_stimuli/rescaled_final/1060_rv.mp4	0.0	296.17514395713806	1.0086238384246826
67	280.3170576095581	pulse	0	t		65.0	2.5	/experiments/Knapen_AOT/AOT_stimuli/rescaled_final/1060_rv.mp4	0.0	296.75877571105957	
67	280.7420496940613	movie	1		261	65.0	2.5	/experiments/Knapen_AOT/AOT_stimuli/rescaled_final/1060_rv.mp4	0.0	297.18376779556274	2.491893768310547
67	281.91554522514343	pulse	1	t		65.0	2.5	/experiments/Knapen_AOT/AOT_stimuli/rescaled_final/1060_rv.mp4	0.0	298.3572633266449	
67	283.2339434623718	fix_post	2		12	65.0	2.5	/experiments/Knapen_AOT/AOT_stimuli/rescaled_final/1060_rv.mp4	0.0	299.6756615638733	0.10010647773742676
68	283.33404994010925	fix_pre	0		120	66.0	2.5	/experiments/Knapen_AOT/AOT_stimuli/rescaled_final/0582_rv.mp4	0.0	299.7757680416107	1.0086669921875
68	283.5177471637726	pulse	0	t		66.0	2.5	/experiments/Knapen_AOT/AOT_stimuli/rescaled_final/0582_rv.mp4	0.0	299.95946526527405	
68	284.34271693229675	movie	1		280	66.0	2.5	/experiments/Knapen_AOT/AOT_stimuli/rescaled_final/0582_rv.mp4	0.0	300.7844350337982	2.4918079376220703
68	285.115651845932	pulse	1	t		66.0	2.5	/experiments/Knapen_AOT/AOT_stimuli/rescaled_final/0582_rv.mp4	0.0	301.5573699474335	
68	286.71623730659485	pulse	1	t		66.0	2.5	/experiments/Knapen_AOT/AOT_stimuli/rescaled_final/0582_rv.mp4	0.0	303.1579554080963	
68	286.8345248699188	fix_post	2		12	66.0	2.5	/experiments/Knapen_AOT/AOT_stimuli/rescaled_final/0582_rv.mp4	0.0	303.2762429714203	0.0999906063079834
69	286.9345154762268	fix_pre	0		120	67.0	2.5	/experiments/Knapen_AOT/AOT_stimuli/rescaled_final/0558_fw.mp4	0.0	303.37623357772827	1.0084867477416992
69	287.9430022239685	movie	1		264	67.0	2.5	/experiments/Knapen_AOT/AOT_stimuli/rescaled_final/0558_fw.mp4	0.0	304.38472032546997	2.492029905319214
69	288.3166272640228	pulse	1	t		67.0	2.5	/experiments/Knapen_AOT/AOT_stimuli/rescaled_final/0558_fw.mp4	0.0	304.7583453655243	
69	289.9102711677551	pulse	1	t		67.0	2.5	/experiments/Knapen_AOT/AOT_stimuli/rescaled_final/0558_fw.mp4	0.0	306.3519892692566	
69	290.4350321292877	fix_post	2		12	67.0	2.5	/experiments/Knapen_AOT/AOT_stimuli/rescaled_final/0558_fw.mp4	0.0	306.8767502307892	0.10001826286315918
70	290.5350503921509	fix_pre	0		118	68.0	2.5	/experiments/Knapen_AOT/AOT_stimuli/rescaled_final/0561_rv.mp4	0.0	306.97676849365234	0.991849422454834
70	291.5106077194214	pulse	0	t		68.0	2.5	/experiments/Knapen_AOT/AOT_stimuli/rescaled_final/0561_rv.mp4	0.0	307.95232582092285	
70	291.5268998146057	movie	1		285	68.0	2.5	/experiments/Knapen_AOT/AOT_stimuli/rescaled_final/0561_rv.mp4	0.0	307.9686179161072	2.5003414154052734
70	293.1108901500702	pulse	1	t		68.0	2.5	/experiments/Knapen_AOT/AOT_stimuli/rescaled_final/0561_rv.mp4	0.0	309.55260825157166	
70	294.027241230011	fix_post	2		12	68.0	2.5	/experiments/Knapen_AOT/AOT_stimuli/rescaled_final/0561_rv.mp4	0.0	310.46895933151245	0.10001230239868164
71	294.12725353240967	fix_pre	0		120	69.0	2.5	blank	1.0	310.56897163391113	1.0001585483551025
71	294.71097564697266	pulse	0	t		69.0	2.5	blank	1.0	311.1526937484741	
71	295.12741208076477	movie	1		300	69.0	2.5	blank	1.0	311.56913018226624	2.500382900238037
71	296.31118416786194	pulse	1	t		69.0	2.5	blank	1.0	312.7529022693634	
71	297.6277949810028	fix_post	2		12	69.0	2.5	blank	1.0	314.0695130825043	0.10001444816589355
72	297.7278094291687	fix_pre	0		120	70.0	2.5	/experiments/Knapen_AOT/AOT_stimuli/rescaled_final/1591_rv.mp4	0.0	314.16952753067017	1.0085034370422363
72	297.91145873069763	pulse	0	t		70.0	2.5	/experiments/Knapen_AOT/AOT_stimuli/rescaled_final/1591_rv.mp4	0.0	314.3531768321991	
72	298.73631286621094	movie	1		275	70.0	2.5	/experiments/Knapen_AOT/AOT_stimuli/rescaled_final/1591_rv.mp4	0.0	315.1780309677124	2.4920012950897217
72	299.51316928863525	pulse	1	t		70.0	2.5	/experiments/Knapen_AOT/AOT_stimuli/rescaled_final/1591_rv.mp4	0.0	315.9548873901367	
72	301.11184787750244	pulse	1	t		70.0	2.5	/experiments/Knapen_AOT/AOT_stimuli/rescaled_final/1591_rv.mp4	0.0	317.5535659790039	
72	301.22831416130066	fix_post	2		12	70.0	2.5	/experiments/Knapen_AOT/AOT_stimuli/rescaled_final/1591_rv.mp4	0.0	317.6700322628021	0.1000213623046875
73	301.32833552360535	fix_pre	0		120	71.0	2.5	/experiments/Knapen_AOT/AOT_stimuli/rescaled_final/0971_fw.mp4	0.0	317.7700536251068	1.0084788799285889
73	302.33681440353394	movie	1		281	71.0	2.5	/experiments/Knapen_AOT/AOT_stimuli/rescaled_final/0971_fw.mp4	0.0	318.7785325050354	2.4920387268066406
73	302.71044850349426	pulse	1	t		71.0	2.5	/experiments/Knapen_AOT/AOT_stimuli/rescaled_final/0971_fw.mp4	0.0	319.1521666049957	
73	304.31234979629517	pulse	1	t		71.0	2.5	/experiments/Knapen_AOT/AOT_stimuli/rescaled_final/0971_fw.mp4	0.0	320.75406789779663	
73	304.8288531303406	fix_post	2		12	71.0	2.5	/experiments/Knapen_AOT/AOT_stimuli/rescaled_final/0971_fw.mp4	0.0	321.27057123184204	0.10004544258117676
74	304.92889857292175	fix_pre	0		119	72.0	2.5	/experiments/Knapen_AOT/AOT_stimuli/rescaled_final/1867_fw.mp4	0.0	321.3706166744232	1.0001473426818848
74	305.91263914108276	pulse	0	t		72.0	2.5	/experiments/Knapen_AOT/AOT_stimuli/rescaled_final/1867_fw.mp4	0.0	322.35435724258423	
74	305.92904591560364	movie	1		276	72.0	2.5	/experiments/Knapen_AOT/AOT_stimuli/rescaled_final/1867_fw.mp4	0.0	322.3707640171051	2.500349998474121
74	307.5108947753906	pulse	1	t		72.0	2.5	/experiments/Knapen_AOT/AOT_stimuli/rescaled_final/1867_fw.mp4	0.0	323.9526128768921	
74	308.42939591407776	fix_post	2		12	72.0	2.5	/experiments/Knapen_AOT/AOT_stimuli/rescaled_final/1867_fw.mp4	0.0	324.8711140155792	0.10002589225769043
75	308.52942180633545	fix_pre	0		120	73.0	2.5	/experiments/Knapen_AOT/AOT_stimuli/rescaled_final/0316_rv.mp4	0.0	324.9711399078369	1.0085039138793945
75	309.11340260505676	pulse	0	t		73.0	2.5	/experiments/Knapen_AOT/AOT_stimuli/rescaled_final/0316_rv.mp4	0.0	325.5551207065582	
75	309.53792572021484	movie	1		278	73.0	2.5	/experiments/Knapen_AOT/AOT_stimuli/rescaled_final/0316_rv.mp4	0.0	325.9796438217163	2.4920170307159424
75	310.71341729164124	pulse	1	t		73.0	2.5	/experiments/Knapen_AOT/AOT_stimuli/rescaled_final/0316_rv.mp4	0.0	327.1551353931427	
75	312.0299427509308	fix_post	2		12	73.0	2.5	/experiments/Knapen_AOT/AOT_stimuli/rescaled_final/0316_rv.mp4	0.0	328.47166085243225	0.1000216007232666
76	312.12996435165405	fix_pre	0		119	74.0	2.5	/experiments/Knapen_AOT/AOT_stimuli/rescaled_final/0802_rv.mp4	0.0	328.5716824531555	1.0085208415985107
76	312.3135268688202	pulse	0	t		74.0	2.5	/experiments/Knapen_AOT/AOT_stimuli/rescaled_final/0802_rv.mp4	0.0	328.75524497032166	
76	313.13848519325256	movie	1		276	74.0	2.5	/experiments/Knapen_AOT/AOT_stimuli/rescaled_final/0802_rv.mp4	0.0	329.580203294754	2.491992235183716
76	313.91211128234863	pulse	1	t		74.0	2.5	/experiments/Knapen_AOT/AOT_stimuli/rescaled_final/0802_rv.mp4	0.0	330.3538293838501	
76	315.5119071006775	pulse	1	t		74.0	2.5	/experiments/Knapen_AOT/AOT_stimuli/rescaled_final/0802_rv.mp4	0.0	331.95362520217896	
76	315.6304774284363	fix_post	2		12	74.0	2.5	/experiments/Knapen_AOT/AOT_stimuli/rescaled_final/0802_rv.mp4	0.0	332.07219552993774	0.10002970695495605
77	315.73050713539124	fix_pre	0		120	75.0	2.5	/experiments/Knapen_AOT/AOT_stimuli/rescaled_final/2145_rv.mp4	0.0	332.1722252368927	1.0085999965667725
77	316.739107131958	movie	1		271	75.0	2.5	/experiments/Knapen_AOT/AOT_stimuli/rescaled_final/2145_rv.mp4	0.0	333.1808252334595	2.4919354915618896
77	317.11233711242676	pulse	1	t		75.0	2.5	/experiments/Knapen_AOT/AOT_stimuli/rescaled_final/2145_rv.mp4	0.0	333.5540552139282	
77	318.71251702308655	pulse	1	t		75.0	2.5	/experiments/Knapen_AOT/AOT_stimuli/rescaled_final/2145_rv.mp4	0.0	335.154235124588	
77	319.2310426235199	fix_post	2		12	75.0	2.5	/experiments/Knapen_AOT/AOT_stimuli/rescaled_final/2145_rv.mp4	0.0	335.67276072502136	0.10000896453857422
78	319.3310515880585	fix_pre	0		119	76.0	2.5	blank	1.0	335.77276968955994	0.9918510913848877
78	320.3147466182709	pulse	0	t		76.0	2.5	blank	1.0	336.75646471977234	
78	320.32290267944336	movie	1		301	76.0	2.5	blank	1.0	336.7646207809448	2.5086755752563477
78	321.9151427745819	pulse	1	t		76.0	2.5	blank	1.0	338.3568608760834	
78	322.8315782546997	fix_post	2		12	76.0	2.5	blank	1.0	339.2732963562012	0.10000276565551758
79	322.9315810203552	fix_pre	0		120	77.0	2.5	/experiments/Knapen_AOT/AOT_stimuli/rescaled_final/0639_rv.mp4	0.0	339.3732991218567	1.008509874343872
79	323.5152416229248	pulse	0	t		77.0	2.5	/experiments/Knapen_AOT/AOT_stimuli/rescaled_final/0639_rv.mp4	0.0	339.95695972442627	
79	323.9400908946991	movie	1		286	77.0	2.5	/experiments/Knapen_AOT/AOT_stimuli/rescaled_final/0639_rv.mp4	0.0	340.38180899620056	2.492022752761841
79	325.1141712665558	pulse	1	t		77.0	2.5	/experiments/Knapen_AOT/AOT_stimuli/rescaled_final/0639_rv.mp4	0.0	341.55588936805725	
79	326.43211364746094	fix_post	2		12	77.0	2.5	/experiments/Knapen_AOT/AOT_stimuli/rescaled_final/0639_rv.mp4	0.0	342.8738317489624	0.1000058650970459
80	326.532119512558	fix_pre	0		120	78.0	2.5	/experiments/Knapen_AOT/AOT_stimuli/rescaled_final/1184_fw.mp4	0.0	342.97383761405945	1.0085020065307617
80	326.7156569957733	pulse	0	t		78.0	2.5	/experiments/Knapen_AOT/AOT_stimuli/rescaled_final/1184_fw.mp4	0.0	343.1573750972748	
80	327.54062151908875	movie	1		249	78.0	2.5	/experiments/Knapen_AOT/AOT_stimuli/rescaled_final/1184_fw.mp4	0.0	343.9823396205902	2.492056369781494
80	328.3139867782593	pulse	1	t		78.0	2.5	/experiments/Knapen_AOT/AOT_stimuli/rescaled_final/1184_fw.mp4	0.0	344.75570487976074	
80	329.91438031196594	pulse	1	t		78.0	2.5	/experiments/Knapen_AOT/AOT_stimuli/rescaled_final/1184_fw.mp4	0.0	346.3560984134674	
80	330.03267788887024	fix_post	2		12	78.0	2.5	/experiments/Knapen_AOT/AOT_stimuli/rescaled_final/1184_fw.mp4	0.0	346.4743959903717	0.1000053882598877
81	330.1326832771301	fix_pre	0		120	79.0	2.5	/experiments/Knapen_AOT/AOT_stimuli/rescaled_final/0220_rv.mp4	0.0	346.5744013786316	1.0084693431854248
81	331.14115262031555	movie	1		272	79.0	2.5	/experiments/Knapen_AOT/AOT_stimuli/rescaled_final/0220_rv.mp4	0.0	347.582870721817	2.4920566082000732
81	331.5151398181915	pulse	1	t		79.0	2.5	/experiments/Knapen_AOT/AOT_stimuli/rescaled_final/0220_rv.mp4	0.0	347.956857919693	
81	333.11480712890625	pulse	1	t		79.0	2.5	/experiments/Knapen_AOT/AOT_stimuli/rescaled_final/0220_rv.mp4	0.0	349.5565252304077	
81	333.6332092285156	fix_post	2		12	79.0	2.5	/experiments/Knapen_AOT/AOT_stimuli/rescaled_final/0220_rv.mp4	0.0	350.0749273300171	0.10000967979431152
82	333.73321890830994	fix_pre	0		119	80.0	2.5	/experiments/Knapen_AOT/AOT_stimuli/rescaled_final/0923_fw.mp4	0.0	350.1749370098114	1.0001070499420166
82	334.7169313430786	pulse	0	t		80.0	2.5	/experiments/Knapen_AOT/AOT_stimuli/rescaled_final/0923_fw.mp4	0.0	351.1586494445801	
82	334.73332595825195	movie	1		278	80.0	2.5	/experiments/Knapen_AOT/AOT_stimuli/rescaled_final/0923_fw.mp4	0.0	351.1750440597534	2.5004143714904785
82	336.3159658908844	pulse	1	t		80.0	2.5	/experiments/Knapen_AOT/AOT_stimuli/rescaled_final/0923_fw.mp4	0.0	352.75768399238586	
82	337.23374032974243	fix_post	2		12	80.0	2.5	/experiments/Knapen_AOT/AOT_stimuli/rescaled_final/0923_fw.mp4	0.0	353.6754584312439	0.10002493858337402
83	337.3337652683258	fix_pre	0		120	81.0	2.5	/experiments/Knapen_AOT/AOT_stimuli/rescaled_final/1060_rv.mp4	0.0	353.77548336982727	1.0088865756988525
83	337.9174256324768	pulse	0	t		81.0	2.5	/experiments/Knapen_AOT/AOT_stimuli/rescaled_final/1060_rv.mp4	0.0	354.35914373397827	
83	338.34265184402466	movie	1		264	81.0	2.5	/experiments/Knapen_AOT/AOT_stimuli/rescaled_final/1060_rv.mp4	0.0	354.7843699455261	2.4916045665740967
83	339.51573753356934	pulse	1	t		81.0	2.5	/experiments/Knapen_AOT/AOT_stimuli/rescaled_final/1060_rv.mp4	0.0	355.9574556350708	
83	340.83425641059875	fix_post	2		12	81.0	2.5	/experiments/Knapen_AOT/AOT_stimuli/rescaled_final/1060_rv.mp4	0.0	357.2759745121002	0.10019230842590332
84	340.93444871902466	fix_pre	0		120	82.0	2.5	/experiments/Knapen_AOT/AOT_stimuli/rescaled_final/1113_rv.mp4	0.0	357.3761668205261	1.008389949798584
84	341.11788392066956	pulse	0	t		82.0	2.5	/experiments/Knapen_AOT/AOT_stimuli/rescaled_final/1113_rv.mp4	0.0	357.559602022171	
84	341.94283866882324	movie	1		262	82.0	2.5	/experiments/Knapen_AOT/AOT_stimuli/rescaled_final/1113_rv.mp4	0.0	358.3845567703247	2.500380277633667
84	342.7167601585388	pulse	1	t		82.0	2.5	/experiments/Knapen_AOT/AOT_stimuli/rescaled_final/1113_rv.mp4	0.0	359.1584782600403	
84	344.3177878856659	pulse	1	t		82.0	2.5	/experiments/Knapen_AOT/AOT_stimuli/rescaled_final/1113_rv.mp4	0.0	360.75950598716736	
84	344.4432189464569	fix_post	2		11	82.0	2.5	/experiments/Knapen_AOT/AOT_stimuli/rescaled_final/1113_rv.mp4	0.0	360.8849370479584	0.09163355827331543
85	344.5348525047302	fix_pre	0		120	83.0	2.5	blank	1.0	360.9765706062317	1.000135898590088
85	345.5349884033203	movie	1		300	83.0	2.5	blank	1.0	361.9767065048218	2.5003678798675537
85	345.91172528266907	pulse	1	t		83.0	2.5	blank	1.0	362.35344338417053	
85	347.51072931289673	pulse	1	t		83.0	2.5	blank	1.0	363.9524474143982	
85	348.03535628318787	fix_post	2		12	83.0	2.5	blank	1.0	364.47707438468933	0.10006380081176758
87	348.13542008399963	stim	0		1716					364.5771381855011	14.302112340927124
87	349.110746383667	pulse	0	t						365.55246448516846	
87	350.7114408016205	pulse	0	t						367.15315890312195	
87	352.31225967407227	pulse	0	t						368.75397777557373	
87	353.9118061065674	pulse	0	t						370.35352420806885	
87	355.51203656196594	pulse	0	t						371.9537546634674	
87	357.11218309402466	pulse	0	t						373.5539011955261	
87	358.7122724056244	pulse	0	t						375.15399050712585	
87	360.3127920627594	pulse	0	t						376.75451016426086	
87	361.91270780563354	pulse	0	t						378.354425907135	
