trial_nr	onset	event_type	phase	response	nr_frames	movie_index	movie_duration	movie_file	blank	onset_abs	duration
0	0.18321800231933594	stim	0		784					39.910074949264526	6.534191846847534
0	6.709403991699219	response	0	space						46.43626093864441	
1	6.71740984916687	stim	0		4625					46.44426679611206	38.5511691570282
1	45.25670599937439	pulse	0	t						84.98356294631958	
1	45.26857900619507	stim	1		1714					84.99543595314026	14.29839301109314
1	46.85695481300354	pulse	1	t						86.58381175994873	
1	48.457165002822876	pulse	1	t						88.18402194976807	
1	50.05749797821045	pulse	1	t						89.78435492515564	
1	51.65756583213806	pulse	1	t						91.38442277908325	
1	53.25785493850708	pulse	1	t						92.98471188545227	
1	54.85065293312073	pulse	1	t						94.57750988006592	
1	56.45077586174011	pulse	1	t						96.1776328086853	
1	58.05103397369385	pulse	1	t						97.77789092063904	
2	59.56697201728821	fix_pre	0		12	0.0	2.5	/experiments/knapen_AOT/AOT_stimuli/rescaled_final/1089_rv.mp4	0.0	99.2938289642334	0.17502093315124512
2	59.65141296386719	pulse	0	t		0.0	2.5	/experiments/knapen_AOT/AOT_stimuli/rescaled_final/1089_rv.mp4	0.0	99.37826991081238	
2	59.74199295043945	movie	1		233	0.0	2.5	/experiments/knapen_AOT/AOT_stimuli/rescaled_final/1089_rv.mp4	0.0	99.46884989738464	2.4336929321289062
2	61.25084686279297	pulse	1	t		0.0	2.5	/experiments/knapen_AOT/AOT_stimuli/rescaled_final/1089_rv.mp4	0.0	100.97770380973816	
2	62.17568588256836	fix_post	2		12	0.0	2.5	/experiments/knapen_AOT/AOT_stimuli/rescaled_final/1089_rv.mp4	0.0	101.90254282951355	0.10003495216369629
3	62.275720834732056	fix_pre	0		120	1.0	2.5	/experiments/knapen_AOT/AOT_stimuli/rescaled_final/0263_rv.mp4	0.0	102.00257778167725	1.050185203552246
3	62.85096287727356	pulse	0	t		1.0	2.5	/experiments/knapen_AOT/AOT_stimuli/rescaled_final/0263_rv.mp4	0.0	102.57781982421875	
3	63.3259060382843	movie	1		234	1.0	2.5	/experiments/knapen_AOT/AOT_stimuli/rescaled_final/0263_rv.mp4	0.0	103.05276298522949	2.450328826904297
3	64.45171689987183	pulse	1	t		1.0	2.5	/experiments/knapen_AOT/AOT_stimuli/rescaled_final/0263_rv.mp4	0.0	104.17857384681702	
3	65.7762348651886	fix_post	2		12	1.0	2.5	/experiments/knapen_AOT/AOT_stimuli/rescaled_final/0263_rv.mp4	0.0	105.50309181213379	0.09994816780090332
4	65.8761830329895	fix_pre	0		120	2.0	2.5	/experiments/knapen_AOT/AOT_stimuli/rescaled_final/1351_fw.mp4	0.0	105.60303997993469	1.0919408798217773
4	66.05153393745422	pulse	0	t		2.0	2.5	/experiments/knapen_AOT/AOT_stimuli/rescaled_final/1351_fw.mp4	0.0	105.77839088439941	
4	66.96812391281128	movie	1		241	2.0	2.5	/experiments/knapen_AOT/AOT_stimuli/rescaled_final/1351_fw.mp4	0.0	106.69498085975647	2.408639907836914
4	67.65169501304626	pulse	1	t		2.0	2.5	/experiments/knapen_AOT/AOT_stimuli/rescaled_final/1351_fw.mp4	0.0	107.37855195999146	
4	69.25142884254456	pulse	1	t		2.0	2.5	/experiments/knapen_AOT/AOT_stimuli/rescaled_final/1351_fw.mp4	0.0	108.97828578948975	
4	69.3767638206482	fix_post	2		12	2.0	2.5	/experiments/knapen_AOT/AOT_stimuli/rescaled_final/1351_fw.mp4	0.0	109.10362076759338	0.10004115104675293
5	69.47680497169495	fix_pre	0		120	3.0	2.5	/experiments/knapen_AOT/AOT_stimuli/rescaled_final/0028_fw.mp4	0.0	109.20366191864014	1.0835158824920654
5	70.56032085418701	movie	1		240	3.0	2.5	/experiments/knapen_AOT/AOT_stimuli/rescaled_final/0028_fw.mp4	0.0	110.2871778011322	2.408668041229248
5	70.85185384750366	pulse	1	t		3.0	2.5	/experiments/knapen_AOT/AOT_stimuli/rescaled_final/0028_fw.mp4	0.0	110.57871079444885	
5	72.45234990119934	pulse	1	t		3.0	2.5	/experiments/knapen_AOT/AOT_stimuli/rescaled_final/0028_fw.mp4	0.0	112.17920684814453	
5	72.96898889541626	fix_post	2		12	3.0	2.5	/experiments/knapen_AOT/AOT_stimuli/rescaled_final/0028_fw.mp4	0.0	112.69584584236145	0.09999799728393555
6	73.0689868927002	fix_pre	0		119	4.0	2.5	/experiments/knapen_AOT/AOT_stimuli/rescaled_final/1155_rv.mp4	0.0	112.79584383964539	1.0836739540100098
6	74.05273485183716	pulse	0	t		4.0	2.5	/experiments/knapen_AOT/AOT_stimuli/rescaled_final/1155_rv.mp4	0.0	113.77959179878235	
6	74.1526608467102	movie	1		229	4.0	2.5	/experiments/knapen_AOT/AOT_stimuli/rescaled_final/1155_rv.mp4	0.0	113.8795177936554	2.4169371128082275
6	75.65304899215698	pulse	1	t		4.0	2.5	/experiments/knapen_AOT/AOT_stimuli/rescaled_final/1155_rv.mp4	0.0	115.37990593910217	
6	76.56959795951843	fix_post	2		12	4.0	2.5	/experiments/knapen_AOT/AOT_stimuli/rescaled_final/1155_rv.mp4	0.0	116.29645490646362	0.09999704360961914
7	76.66959500312805	fix_pre	0		120	5.0	2.5	/experiments/knapen_AOT/AOT_stimuli/rescaled_final/1762_rv.mp4	0.0	116.39645195007324	1.0667719841003418
7	77.25312185287476	pulse	0	t		5.0	2.5	/experiments/knapen_AOT/AOT_stimuli/rescaled_final/1762_rv.mp4	0.0	116.97997879981995	
7	77.7363669872284	movie	1		235	5.0	2.5	/experiments/knapen_AOT/AOT_stimuli/rescaled_final/1762_rv.mp4	0.0	117.46322393417358	2.433694839477539
7	78.85211181640625	pulse	1	t		5.0	2.5	/experiments/knapen_AOT/AOT_stimuli/rescaled_final/1762_rv.mp4	0.0	118.57896876335144	
7	80.17006182670593	fix_post	2		12	5.0	2.5	/experiments/knapen_AOT/AOT_stimuli/rescaled_final/1762_rv.mp4	0.0	119.89691877365112	0.10002017021179199
8	80.27008199691772	fix_pre	0		120	6.0	2.5	blank	1.0	119.99693894386292	1.0001389980316162
8	80.45387887954712	pulse	0	t		6.0	2.5	blank	1.0	120.18073582649231	
8	81.27022099494934	movie	1		300	6.0	2.5	blank	1.0	120.99707794189453	2.5004069805145264
8	82.05393695831299	pulse	1	t		6.0	2.5	blank	1.0	121.78079390525818	
8	83.65406084060669	pulse	1	t		6.0	2.5	blank	1.0	123.38091778755188	
8	83.77062797546387	fix_post	2		12	6.0	2.5	blank	1.0	123.49748492240906	0.0999898910522461
9	83.87061786651611	fix_pre	0		120	7.0	2.5	/experiments/knapen_AOT/AOT_stimuli/rescaled_final/1289_rv.mp4	0.0	123.5974748134613	1.0502381324768066
9	84.92085599899292	movie	1		226	7.0	2.5	/experiments/knapen_AOT/AOT_stimuli/rescaled_final/1289_rv.mp4	0.0	124.64771294593811	2.4419379234313965
9	85.25437688827515	pulse	1	t		7.0	2.5	/experiments/knapen_AOT/AOT_stimuli/rescaled_final/1289_rv.mp4	0.0	124.98123383522034	
9	86.85299181938171	pulse	1	t		7.0	2.5	/experiments/knapen_AOT/AOT_stimuli/rescaled_final/1289_rv.mp4	0.0	126.5798487663269	
9	87.36279392242432	fix_post	2		8	7.0	2.5	/experiments/knapen_AOT/AOT_stimuli/rescaled_final/1289_rv.mp4	0.0	127.0896508693695	0.10001802444458008
10	87.4628119468689	fix_pre	0		120	8.0	2.5	/experiments/knapen_AOT/AOT_stimuli/rescaled_final/1119_fw.mp4	0.0	127.18966889381409	1.066864013671875
10	88.45487785339355	pulse	0	t		8.0	2.5	/experiments/knapen_AOT/AOT_stimuli/rescaled_final/1119_fw.mp4	0.0	128.18173480033875	
10	88.52967596054077	movie	1		229	8.0	2.5	/experiments/knapen_AOT/AOT_stimuli/rescaled_final/1119_fw.mp4	0.0	128.25653290748596	2.4420809745788574
10	90.05354690551758	pulse	1	t		8.0	2.5	/experiments/knapen_AOT/AOT_stimuli/rescaled_final/1119_fw.mp4	0.0	129.78040385246277	
10	90.97175693511963	fix_post	2		12	8.0	2.5	/experiments/knapen_AOT/AOT_stimuli/rescaled_final/1119_fw.mp4	0.0	130.69861388206482	0.10000205039978027
11	91.07175898551941	fix_pre	0		120	9.0	2.5	/experiments/knapen_AOT/AOT_stimuli/rescaled_final/0298_rv.mp4	0.0	130.7986159324646	1.0834858417510986
11	91.65523290634155	pulse	0	t		9.0	2.5	/experiments/knapen_AOT/AOT_stimuli/rescaled_final/0298_rv.mp4	0.0	131.38208985328674	
11	92.15524482727051	movie	1		238	9.0	2.5	/experiments/knapen_AOT/AOT_stimuli/rescaled_final/0298_rv.mp4	0.0	131.8821017742157	2.425276041030884
11	93.25412702560425	pulse	1	t		9.0	2.5	/experiments/knapen_AOT/AOT_stimuli/rescaled_final/0298_rv.mp4	0.0	132.98098397254944	
11	94.58052086830139	fix_post	2		11	9.0	2.5	/experiments/knapen_AOT/AOT_stimuli/rescaled_final/0298_rv.mp4	0.0	134.30737781524658	0.09168410301208496
12	94.67220497131348	fix_pre	0		120	10.0	2.5	/experiments/knapen_AOT/AOT_stimuli/rescaled_final/1965_fw.mp4	0.0	134.39906191825867	1.075218915939331
12	94.85575985908508	pulse	0	t		10.0	2.5	/experiments/knapen_AOT/AOT_stimuli/rescaled_final/1965_fw.mp4	0.0	134.58261680603027	
12	95.74742388725281	movie	1		222	10.0	2.5	/experiments/knapen_AOT/AOT_stimuli/rescaled_final/1965_fw.mp4	0.0	135.474280834198	2.416994094848633
12	96.45606589317322	pulse	1	t		10.0	2.5	/experiments/knapen_AOT/AOT_stimuli/rescaled_final/1965_fw.mp4	0.0	136.1829228401184	
12	98.05464196205139	pulse	1	t		10.0	2.5	/experiments/knapen_AOT/AOT_stimuli/rescaled_final/1965_fw.mp4	0.0	137.78149890899658	
12	98.16441798210144	fix_post	2		13	10.0	2.5	/experiments/knapen_AOT/AOT_stimuli/rescaled_final/1965_fw.mp4	0.0	137.89127492904663	0.10834288597106934
13	98.27276086807251	fix_pre	0		120	11.0	2.5	/experiments/knapen_AOT/AOT_stimuli/rescaled_final/0787_fw.mp4	0.0	137.9996178150177	1.0752079486846924
13	99.3479688167572	movie	1		216	11.0	2.5	/experiments/knapen_AOT/AOT_stimuli/rescaled_final/0787_fw.mp4	0.0	139.0748257637024	2.4169740676879883
13	99.65545296669006	pulse	1	t		11.0	2.5	/experiments/knapen_AOT/AOT_stimuli/rescaled_final/0787_fw.mp4	0.0	139.38230991363525	
13	101.25555896759033	pulse	1	t		11.0	2.5	/experiments/knapen_AOT/AOT_stimuli/rescaled_final/0787_fw.mp4	0.0	140.98241591453552	
13	101.76494288444519	fix_post	2		12	11.0	2.5	/experiments/knapen_AOT/AOT_stimuli/rescaled_final/0787_fw.mp4	0.0	141.49179983139038	0.09999704360961914
14	101.86493992805481	fix_pre	0		120	12.0	2.5	blank	1.0	141.591796875	1.0002360343933105
14	102.8569929599762	pulse	0	t		12.0	2.5	blank	1.0	142.5838499069214	
14	102.86517596244812	movie	1		301	12.0	2.5	blank	1.0	142.5920329093933	2.5086419582366943
14	104.45715999603271	pulse	1	t		12.0	2.5	blank	1.0	144.1840169429779	
14	105.37381792068481	fix_post	2		12	12.0	2.5	blank	1.0	145.10067486763	0.10000205039978027
15	105.4738199710846	fix_pre	0		120	13.0	2.5	/experiments/knapen_AOT/AOT_stimuli/rescaled_final/0117_rv.mp4	0.0	145.20067691802979	1.0835850238800049
15	106.0574209690094	pulse	0	t		13.0	2.5	/experiments/knapen_AOT/AOT_stimuli/rescaled_final/0117_rv.mp4	0.0	145.7842779159546	
15	106.5574049949646	movie	1		227	13.0	2.5	/experiments/knapen_AOT/AOT_stimuli/rescaled_final/0117_rv.mp4	0.0	146.2842619419098	2.4169349670410156
15	107.65617299079895	pulse	1	t		13.0	2.5	/experiments/knapen_AOT/AOT_stimuli/rescaled_final/0117_rv.mp4	0.0	147.38302993774414	
15	108.97433996200562	fix_post	2		12	13.0	2.5	/experiments/knapen_AOT/AOT_stimuli/rescaled_final/0117_rv.mp4	0.0	148.7011969089508	0.10001206398010254
16	109.07435202598572	fix_pre	0		120	14.0	2.5	/experiments/knapen_AOT/AOT_stimuli/rescaled_final/1007_fw.mp4	0.0	148.8012089729309	1.0836567878723145
16	109.25047898292542	pulse	0	t		14.0	2.5	/experiments/knapen_AOT/AOT_stimuli/rescaled_final/1007_fw.mp4	0.0	148.9773359298706	
16	110.15800881385803	movie	1		231	14.0	2.5	/experiments/knapen_AOT/AOT_stimuli/rescaled_final/1007_fw.mp4	0.0	149.88486576080322	2.4168760776519775
16	110.85033702850342	pulse	1	t		14.0	2.5	/experiments/knapen_AOT/AOT_stimuli/rescaled_final/1007_fw.mp4	0.0	150.5771939754486	
16	112.45678901672363	pulse	1	t		14.0	2.5	/experiments/knapen_AOT/AOT_stimuli/rescaled_final/1007_fw.mp4	0.0	152.18364596366882	
16	112.57488489151001	fix_post	2		12	14.0	2.5	/experiments/knapen_AOT/AOT_stimuli/rescaled_final/1007_fw.mp4	0.0	152.3017418384552	0.10001397132873535
17	112.67489886283875	fix_pre	0		119	15.0	2.5	/experiments/knapen_AOT/AOT_stimuli/rescaled_final/2005_fw.mp4	0.0	152.40175580978394	1.0668761730194092
17	113.74177503585815	movie	1		222	15.0	2.5	/experiments/knapen_AOT/AOT_stimuli/rescaled_final/2005_fw.mp4	0.0	153.46863198280334	2.425320863723755
17	114.05696392059326	pulse	1	t		15.0	2.5	/experiments/knapen_AOT/AOT_stimuli/rescaled_final/2005_fw.mp4	0.0	153.78382086753845	
17	115.65057802200317	pulse	1	t		15.0	2.5	/experiments/knapen_AOT/AOT_stimuli/rescaled_final/2005_fw.mp4	0.0	155.37743496894836	
17	116.16709589958191	fix_post	2		12	15.0	2.5	/experiments/knapen_AOT/AOT_stimuli/rescaled_final/2005_fw.mp4	0.0	155.8939528465271	0.10000205039978027
18	116.26709794998169	fix_pre	0		119	16.0	2.5	/experiments/knapen_AOT/AOT_stimuli/rescaled_final/1215_fw.mp4	0.0	155.99395489692688	1.0752818584442139
18	117.25072288513184	pulse	0	t		16.0	2.5	/experiments/knapen_AOT/AOT_stimuli/rescaled_final/1215_fw.mp4	0.0	156.97757983207703	
18	117.3423798084259	movie	1		237	16.0	2.5	/experiments/knapen_AOT/AOT_stimuli/rescaled_final/1215_fw.mp4	0.0	157.0692367553711	2.4253220558166504
18	118.85095596313477	pulse	1	t		16.0	2.5	/experiments/knapen_AOT/AOT_stimuli/rescaled_final/1215_fw.mp4	0.0	158.57781291007996	
18	119.76770186424255	fix_post	2		12	16.0	2.5	/experiments/knapen_AOT/AOT_stimuli/rescaled_final/1215_fw.mp4	0.0	159.49455881118774	0.09996294975280762
19	119.86766481399536	fix_pre	0		120	17.0	2.5	/experiments/knapen_AOT/AOT_stimuli/rescaled_final/0128_rv.mp4	0.0	159.59452176094055	1.058481216430664
19	120.45130586624146	pulse	0	t		17.0	2.5	/experiments/knapen_AOT/AOT_stimuli/rescaled_final/0128_rv.mp4	0.0	160.17816281318665	
19	120.92614603042603	movie	1		242	17.0	2.5	/experiments/knapen_AOT/AOT_stimuli/rescaled_final/0128_rv.mp4	0.0	160.65300297737122	2.442025899887085
19	122.05108880996704	pulse	1	t		17.0	2.5	/experiments/knapen_AOT/AOT_stimuli/rescaled_final/0128_rv.mp4	0.0	161.77794575691223	
19	123.36817193031311	fix_post	2		12	17.0	2.5	/experiments/knapen_AOT/AOT_stimuli/rescaled_final/0128_rv.mp4	0.0	163.0950288772583	0.10000395774841309
20	123.46817588806152	fix_pre	0		120	18.0	2.5	/experiments/knapen_AOT/AOT_stimuli/rescaled_final/1289_rv.mp4	0.0	163.1950328350067	1.0586330890655518
20	123.65169596672058	pulse	0	t		18.0	2.5	/experiments/knapen_AOT/AOT_stimuli/rescaled_final/1289_rv.mp4	0.0	163.37855291366577	
20	124.52680897712708	movie	1		248	18.0	2.5	/experiments/knapen_AOT/AOT_stimuli/rescaled_final/1289_rv.mp4	0.0	164.25366592407227	2.441927909851074
20	125.25193381309509	pulse	1	t		18.0	2.5	/experiments/knapen_AOT/AOT_stimuli/rescaled_final/1289_rv.mp4	0.0	164.97879076004028	
20	126.85156798362732	pulse	1	t		18.0	2.5	/experiments/knapen_AOT/AOT_stimuli/rescaled_final/1289_rv.mp4	0.0	166.5784249305725	
20	126.96873688697815	fix_post	2		12	18.0	2.5	/experiments/knapen_AOT/AOT_stimuli/rescaled_final/1289_rv.mp4	0.0	166.69559383392334	0.09998798370361328
21	127.06872487068176	fix_pre	0		120	19.0	2.5	/experiments/knapen_AOT/AOT_stimuli/rescaled_final/0962_fw.mp4	0.0	166.79558181762695	1.0835320949554443
21	128.1522569656372	movie	1		227	19.0	2.5	/experiments/knapen_AOT/AOT_stimuli/rescaled_final/0962_fw.mp4	0.0	167.8791139125824	2.408653974533081
21	128.4521210193634	pulse	1	t		19.0	2.5	/experiments/knapen_AOT/AOT_stimuli/rescaled_final/0962_fw.mp4	0.0	168.1789779663086	
21	130.05111598968506	pulse	1	t		19.0	2.5	/experiments/knapen_AOT/AOT_stimuli/rescaled_final/0962_fw.mp4	0.0	169.77797293663025	
21	130.5609109401703	fix_post	2		12	19.0	2.5	/experiments/knapen_AOT/AOT_stimuli/rescaled_final/0962_fw.mp4	0.0	170.28776788711548	0.10001206398010254
22	130.6609230041504	fix_pre	0		120	20.0	2.5	/experiments/knapen_AOT/AOT_stimuli/rescaled_final/0657_rv.mp4	0.0	170.38777995109558	1.0835318565368652
22	131.65292382240295	pulse	0	t		20.0	2.5	/experiments/knapen_AOT/AOT_stimuli/rescaled_final/0657_rv.mp4	0.0	171.37978076934814	
22	131.74445486068726	movie	1		229	20.0	2.5	/experiments/knapen_AOT/AOT_stimuli/rescaled_final/0657_rv.mp4	0.0	171.47131180763245	2.4253110885620117
22	133.25318098068237	pulse	1	t		20.0	2.5	/experiments/knapen_AOT/AOT_stimuli/rescaled_final/0657_rv.mp4	0.0	172.98003792762756	
22	134.16976594924927	fix_post	2		12	20.0	2.5	/experiments/knapen_AOT/AOT_stimuli/rescaled_final/0657_rv.mp4	0.0	173.89662289619446	0.10004186630249023
23	134.26980781555176	fix_pre	0		120	21.0	2.5	blank	1.0	173.99666476249695	1.0001401901245117
23	134.85347485542297	pulse	0	t		21.0	2.5	blank	1.0	174.58033180236816	
23	135.26994800567627	movie	1		300	21.0	2.5	blank	1.0	174.99680495262146	2.5004148483276367
23	136.4538140296936	pulse	1	t		21.0	2.5	blank	1.0	176.1806709766388	
23	137.7703628540039	fix_post	2		12	21.0	2.5	blank	1.0	177.4972198009491	0.0999760627746582
24	137.87033891677856	fix_pre	0		120	22.0	2.5	/experiments/knapen_AOT/AOT_stimuli/rescaled_final/1363_rv.mp4	0.0	177.59719586372375	1.067030906677246
24	138.0539379119873	pulse	0	t		22.0	2.5	/experiments/knapen_AOT/AOT_stimuli/rescaled_final/1363_rv.mp4	0.0	177.7807948589325	
24	138.9373698234558	movie	1		221	22.0	2.5	/experiments/knapen_AOT/AOT_stimuli/rescaled_final/1363_rv.mp4	0.0	178.664226770401	2.4334800243377686
24	139.65414094924927	pulse	1	t		22.0	2.5	/experiments/knapen_AOT/AOT_stimuli/rescaled_final/1363_rv.mp4	0.0	179.38099789619446	
24	141.25272798538208	pulse	1	t		22.0	2.5	/experiments/knapen_AOT/AOT_stimuli/rescaled_final/1363_rv.mp4	0.0	180.97958493232727	
24	141.37084984779358	fix_post	2		12	22.0	2.5	/experiments/knapen_AOT/AOT_stimuli/rescaled_final/1363_rv.mp4	0.0	181.09770679473877	0.1000070571899414
25	141.47085690498352	fix_pre	0		119	23.0	2.5	/experiments/knapen_AOT/AOT_stimuli/rescaled_final/0256_rv.mp4	0.0	181.1977138519287	1.0585811138153076
25	142.52943801879883	movie	1		220	23.0	2.5	/experiments/knapen_AOT/AOT_stimuli/rescaled_final/0256_rv.mp4	0.0	182.25629496574402	2.4336228370666504
25	142.8547248840332	pulse	1	t		23.0	2.5	/experiments/knapen_AOT/AOT_stimuli/rescaled_final/0256_rv.mp4	0.0	182.5815818309784	
25	144.4534728527069	pulse	1	t		23.0	2.5	/experiments/knapen_AOT/AOT_stimuli/rescaled_final/0256_rv.mp4	0.0	184.1803297996521	
25	144.96306085586548	fix_post	2		12	23.0	2.5	/experiments/knapen_AOT/AOT_stimuli/rescaled_final/0256_rv.mp4	0.0	184.68991780281067	0.10002303123474121
26	145.06308388710022	fix_pre	0		120	24.0	2.5	/experiments/knapen_AOT/AOT_stimuli/rescaled_final/1809_rv.mp4	0.0	184.7899408340454	1.058568000793457
26	146.05505800247192	pulse	0	t		24.0	2.5	/experiments/knapen_AOT/AOT_stimuli/rescaled_final/1809_rv.mp4	0.0	185.78191494941711	
26	146.12165188789368	movie	1		227	24.0	2.5	/experiments/knapen_AOT/AOT_stimuli/rescaled_final/1809_rv.mp4	0.0	185.84850883483887	2.4502921104431152
26	147.6552448272705	pulse	1	t		24.0	2.5	/experiments/knapen_AOT/AOT_stimuli/rescaled_final/1809_rv.mp4	0.0	187.3821017742157	
26	148.5719439983368	fix_post	2		12	24.0	2.5	/experiments/knapen_AOT/AOT_stimuli/rescaled_final/1809_rv.mp4	0.0	188.29880094528198	0.0999898910522461
27	148.67193388938904	fix_pre	0		120	25.0	2.5	/experiments/knapen_AOT/AOT_stimuli/rescaled_final/1626_fw.mp4	0.0	188.39879083633423	1.083752155303955
27	149.2555809020996	pulse	0	t		25.0	2.5	/experiments/knapen_AOT/AOT_stimuli/rescaled_final/1626_fw.mp4	0.0	188.9824378490448	
27	149.755686044693	movie	1		225	25.0	2.5	/experiments/knapen_AOT/AOT_stimuli/rescaled_final/1626_fw.mp4	0.0	189.48254299163818	2.416778802871704
27	150.8542139530182	pulse	1	t		25.0	2.5	/experiments/knapen_AOT/AOT_stimuli/rescaled_final/1626_fw.mp4	0.0	190.58107089996338	
27	152.1724648475647	fix_post	2		12	25.0	2.5	/experiments/knapen_AOT/AOT_stimuli/rescaled_final/1626_fw.mp4	0.0	191.8993217945099	0.100006103515625
28	152.27247095108032	fix_pre	0		120	26.0	2.5	/experiments/knapen_AOT/AOT_stimuli/rescaled_final/2016_fw.mp4	0.0	191.9993278980255	1.0752670764923096
28	152.45597290992737	pulse	0	t		26.0	2.5	/experiments/knapen_AOT/AOT_stimuli/rescaled_final/2016_fw.mp4	0.0	192.18282985687256	
28	153.34773802757263	movie	1		222	26.0	2.5	/experiments/knapen_AOT/AOT_stimuli/rescaled_final/2016_fw.mp4	0.0	193.07459497451782	2.416914939880371
28	154.0525119304657	pulse	1	t		26.0	2.5	/experiments/knapen_AOT/AOT_stimuli/rescaled_final/2016_fw.mp4	0.0	193.7793688774109	
28	155.6551239490509	pulse	1	t		26.0	2.5	/experiments/knapen_AOT/AOT_stimuli/rescaled_final/2016_fw.mp4	0.0	195.3819808959961	
28	155.764652967453	fix_post	2		13	26.0	2.5	/experiments/knapen_AOT/AOT_stimuli/rescaled_final/2016_fw.mp4	0.0	195.4915099143982	0.10835599899291992
29	155.87300896644592	fix_pre	0		119	27.0	2.5	/experiments/knapen_AOT/AOT_stimuli/rescaled_final/0054_fw.mp4	0.0	195.5998659133911	1.0669078826904297
29	156.93991684913635	movie	1		221	27.0	2.5	/experiments/knapen_AOT/AOT_stimuli/rescaled_final/0054_fw.mp4	0.0	196.66677379608154	2.425297975540161
29	157.2551510334015	pulse	1	t		27.0	2.5	/experiments/knapen_AOT/AOT_stimuli/rescaled_final/0054_fw.mp4	0.0	196.98200798034668	
29	158.8571629524231	pulse	1	t		27.0	2.5	/experiments/knapen_AOT/AOT_stimuli/rescaled_final/0054_fw.mp4	0.0	198.5840198993683	
29	159.3652148246765	fix_post	2		12	27.0	2.5	/experiments/knapen_AOT/AOT_stimuli/rescaled_final/0054_fw.mp4	0.0	199.0920717716217	0.10000109672546387
30	159.46521592140198	fix_pre	0		120	28.0	2.5	blank	1.0	199.19207286834717	1.000269889831543
30	160.45719981193542	pulse	0	t		28.0	2.5	blank	1.0	200.18405675888062	
30	160.46548581123352	movie	1		297	28.0	2.5	blank	1.0	200.1923427581787	2.5085902214050293
30	162.05747389793396	pulse	1	t		28.0	2.5	blank	1.0	201.78433084487915	
30	162.97407603263855	fix_post	2		12	28.0	2.5	blank	1.0	202.70093297958374	0.10000085830688477
31	163.07407689094543	fix_pre	0		120	29.0	2.5	/experiments/knapen_AOT/AOT_stimuli/rescaled_final/0714_rv.mp4	0.0	202.80093383789062	1.0919570922851562
31	163.65784287452698	pulse	0	t		29.0	2.5	/experiments/knapen_AOT/AOT_stimuli/rescaled_final/0714_rv.mp4	0.0	203.38469982147217	
31	164.1660339832306	movie	1		229	29.0	2.5	/experiments/knapen_AOT/AOT_stimuli/rescaled_final/0714_rv.mp4	0.0	203.89289093017578	2.4085419178009033
31	165.25802993774414	pulse	1	t		29.0	2.5	/experiments/knapen_AOT/AOT_stimuli/rescaled_final/0714_rv.mp4	0.0	204.98488688468933	
31	166.5745759010315	fix_post	2		12	29.0	2.5	/experiments/knapen_AOT/AOT_stimuli/rescaled_final/0714_rv.mp4	0.0	206.30143284797668	0.10006499290466309
32	166.67464089393616	fix_pre	0		120	30.0	2.5	/experiments/knapen_AOT/AOT_stimuli/rescaled_final/2102_rv.mp4	0.0	206.40149784088135	1.0835981369018555
32	166.85816502571106	pulse	0	t		30.0	2.5	/experiments/knapen_AOT/AOT_stimuli/rescaled_final/2102_rv.mp4	0.0	206.58502197265625	
32	167.758239030838	movie	1		223	30.0	2.5	/experiments/knapen_AOT/AOT_stimuli/rescaled_final/2102_rv.mp4	0.0	207.4850959777832	2.425252914428711
32	168.45855498313904	pulse	1	t		30.0	2.5	/experiments/knapen_AOT/AOT_stimuli/rescaled_final/2102_rv.mp4	0.0	208.18541193008423	
32	170.0572338104248	pulse	1	t		30.0	2.5	/experiments/knapen_AOT/AOT_stimuli/rescaled_final/2102_rv.mp4	0.0	209.78409075737	
32	170.18349194526672	fix_post	2		11	30.0	2.5	/experiments/knapen_AOT/AOT_stimuli/rescaled_final/2102_rv.mp4	0.0	209.9103488922119	0.0916910171508789
33	170.2751829624176	fix_pre	0		120	31.0	2.5	/experiments/knapen_AOT/AOT_stimuli/rescaled_final/1208_rv.mp4	0.0	210.0020399093628	1.0751609802246094
33	171.3503439426422	movie	1		229	31.0	2.5	/experiments/knapen_AOT/AOT_stimuli/rescaled_final/1208_rv.mp4	0.0	211.0772008895874	2.4170238971710205
33	171.657634973526	pulse	1	t		31.0	2.5	/experiments/knapen_AOT/AOT_stimuli/rescaled_final/1208_rv.mp4	0.0	211.3844919204712	
33	173.25785183906555	pulse	1	t		31.0	2.5	/experiments/knapen_AOT/AOT_stimuli/rescaled_final/1208_rv.mp4	0.0	212.98470878601074	
33	173.76736783981323	fix_post	2		12	31.0	2.5	/experiments/knapen_AOT/AOT_stimuli/rescaled_final/1208_rv.mp4	0.0	213.49422478675842	0.0999901294708252
34	173.86735796928406	fix_pre	0		119	32.0	2.5	/experiments/knapen_AOT/AOT_stimuli/rescaled_final/0881_fw.mp4	0.0	213.59421491622925	1.0669798851013184
34	174.8511998653412	pulse	0	t		32.0	2.5	/experiments/knapen_AOT/AOT_stimuli/rescaled_final/0881_fw.mp4	0.0	214.57805681228638	
34	174.93433785438538	movie	1		218	32.0	2.5	/experiments/knapen_AOT/AOT_stimuli/rescaled_final/0881_fw.mp4	0.0	214.66119480133057	2.433568000793457
34	176.45124793052673	pulse	1	t		32.0	2.5	/experiments/knapen_AOT/AOT_stimuli/rescaled_final/0881_fw.mp4	0.0	216.17810487747192	
34	177.36790585517883	fix_post	2		12	32.0	2.5	/experiments/knapen_AOT/AOT_stimuli/rescaled_final/0881_fw.mp4	0.0	217.09476280212402	0.09999418258666992
35	177.4679000377655	fix_pre	0		120	33.0	2.5	/experiments/knapen_AOT/AOT_stimuli/rescaled_final/0876_rv.mp4	0.0	217.1947569847107	1.0585589408874512
35	178.05144381523132	pulse	0	t		33.0	2.5	/experiments/knapen_AOT/AOT_stimuli/rescaled_final/0876_rv.mp4	0.0	217.7783007621765	
35	178.52645897865295	movie	1		245	33.0	2.5	/experiments/knapen_AOT/AOT_stimuli/rescaled_final/0876_rv.mp4	0.0	218.25331592559814	2.441973924636841
35	179.6513638496399	pulse	1	t		33.0	2.5	/experiments/knapen_AOT/AOT_stimuli/rescaled_final/0876_rv.mp4	0.0	219.37822079658508	
35	180.9684329032898	fix_post	2		12	33.0	2.5	/experiments/knapen_AOT/AOT_stimuli/rescaled_final/0876_rv.mp4	0.0	220.69528985023499	0.09999203681945801
36	181.06842494010925	fix_pre	0		120	34.0	2.5	blank	1.0	220.79528188705444	1.0001869201660156
36	181.25195598602295	pulse	0	t		34.0	2.5	blank	1.0	220.97881293296814	
36	182.06861186027527	movie	1		300	34.0	2.5	blank	1.0	221.79546880722046	2.500369071960449
36	182.85220789909363	pulse	1	t		34.0	2.5	blank	1.0	222.57906484603882	
36	184.452486038208	pulse	1	t		34.0	2.5	blank	1.0	224.1793429851532	
36	184.56898093223572	fix_post	2		12	34.0	2.5	blank	1.0	224.2958378791809	0.100006103515625
37	184.66898703575134	fix_pre	0		120	35.0	2.5	/experiments/knapen_AOT/AOT_stimuli/rescaled_final/0759_rv.mp4	0.0	224.39584398269653	1.0919008255004883
37	185.76088786125183	movie	1		223	35.0	2.5	/experiments/knapen_AOT/AOT_stimuli/rescaled_final/0759_rv.mp4	0.0	225.48774480819702	2.4002771377563477
37	186.05273604393005	pulse	1	t		35.0	2.5	/experiments/knapen_AOT/AOT_stimuli/rescaled_final/0759_rv.mp4	0.0	225.77959299087524	
37	187.65148782730103	pulse	1	t		35.0	2.5	/experiments/knapen_AOT/AOT_stimuli/rescaled_final/0759_rv.mp4	0.0	227.37834477424622	
37	188.16116499900818	fix_post	2		12	35.0	2.5	/experiments/knapen_AOT/AOT_stimuli/rescaled_final/0759_rv.mp4	0.0	227.88802194595337	0.09996795654296875
38	188.26113295555115	fix_pre	0		120	36.0	2.5	/experiments/knapen_AOT/AOT_stimuli/rescaled_final/1362_fw.mp4	0.0	227.98798990249634	1.083636999130249
38	189.25312995910645	pulse	0	t		36.0	2.5	/experiments/knapen_AOT/AOT_stimuli/rescaled_final/1362_fw.mp4	0.0	228.97998690605164	
38	189.3447699546814	movie	1		211	36.0	2.5	/experiments/knapen_AOT/AOT_stimuli/rescaled_final/1362_fw.mp4	0.0	229.0716269016266	2.425299882888794
38	190.85343384742737	pulse	1	t		36.0	2.5	/experiments/knapen_AOT/AOT_stimuli/rescaled_final/1362_fw.mp4	0.0	230.58029079437256	
38	191.7700698375702	fix_post	2		12	36.0	2.5	/experiments/knapen_AOT/AOT_stimuli/rescaled_final/1362_fw.mp4	0.0	231.49692678451538	0.0999760627746582
39	191.87004590034485	fix_pre	0		120	37.0	2.5	/experiments/knapen_AOT/AOT_stimuli/rescaled_final/0109_fw.mp4	0.0	231.59690284729004	1.0670430660247803
39	192.45368003845215	pulse	0	t		37.0	2.5	/experiments/knapen_AOT/AOT_stimuli/rescaled_final/0109_fw.mp4	0.0	232.18053698539734	
39	192.93708896636963	movie	1		216	37.0	2.5	/experiments/knapen_AOT/AOT_stimuli/rescaled_final/0109_fw.mp4	0.0	232.66394591331482	2.433485984802246
39	194.05278992652893	pulse	1	t		37.0	2.5	/experiments/knapen_AOT/AOT_stimuli/rescaled_final/0109_fw.mp4	0.0	233.77964687347412	
39	195.37057495117188	fix_post	2		12	37.0	2.5	/experiments/knapen_AOT/AOT_stimuli/rescaled_final/0109_fw.mp4	0.0	235.09743189811707	0.10002803802490234
40	195.47060298919678	fix_pre	0		120	38.0	2.5	/experiments/knapen_AOT/AOT_stimuli/rescaled_final/1304_fw.mp4	0.0	235.19745993614197	1.0668649673461914
40	195.65410900115967	pulse	0	t		38.0	2.5	/experiments/knapen_AOT/AOT_stimuli/rescaled_final/1304_fw.mp4	0.0	235.38096594810486	
40	196.53746795654297	movie	1		233	38.0	2.5	/experiments/knapen_AOT/AOT_stimuli/rescaled_final/1304_fw.mp4	0.0	236.26432490348816	2.43363094329834
40	197.25339198112488	pulse	1	t		38.0	2.5	/experiments/knapen_AOT/AOT_stimuli/rescaled_final/1304_fw.mp4	0.0	236.98024892807007	
40	198.85319781303406	pulse	1	t		38.0	2.5	/experiments/knapen_AOT/AOT_stimuli/rescaled_final/1304_fw.mp4	0.0	238.58005475997925	
40	198.9710988998413	fix_post	2		12	38.0	2.5	/experiments/knapen_AOT/AOT_stimuli/rescaled_final/1304_fw.mp4	0.0	238.6979558467865	0.10005593299865723
41	199.07115483283997	fix_pre	0		120	39.0	2.5	/experiments/knapen_AOT/AOT_stimuli/rescaled_final/0723_fw.mp4	0.0	238.79801177978516	1.0502490997314453
41	200.1214039325714	movie	1		232	39.0	2.5	/experiments/knapen_AOT/AOT_stimuli/rescaled_final/0723_fw.mp4	0.0	239.8482608795166	2.4419450759887695
41	200.45448303222656	pulse	1	t		39.0	2.5	/experiments/knapen_AOT/AOT_stimuli/rescaled_final/0723_fw.mp4	0.0	240.18133997917175	
41	202.05328392982483	pulse	1	t		39.0	2.5	/experiments/knapen_AOT/AOT_stimuli/rescaled_final/0723_fw.mp4	0.0	241.78014087677002	
41	202.56334900856018	fix_post	2		12	39.0	2.5	/experiments/knapen_AOT/AOT_stimuli/rescaled_final/0723_fw.mp4	0.0	242.29020595550537	0.09999489784240723
42	202.6633439064026	fix_pre	0		120	40.0	2.5	/experiments/knapen_AOT/AOT_stimuli/rescaled_final/1470_rv.mp4	0.0	242.39020085334778	1.0585670471191406
42	203.6553099155426	pulse	0	t		40.0	2.5	/experiments/knapen_AOT/AOT_stimuli/rescaled_final/1470_rv.mp4	0.0	243.3821668624878	
42	203.72191095352173	movie	1		239	40.0	2.5	/experiments/knapen_AOT/AOT_stimuli/rescaled_final/1470_rv.mp4	0.0	243.44876790046692	2.4502999782562256
42	205.25552701950073	pulse	1	t		40.0	2.5	/experiments/knapen_AOT/AOT_stimuli/rescaled_final/1470_rv.mp4	0.0	244.98238396644592	
42	206.17221093177795	fix_post	2		12	40.0	2.5	/experiments/knapen_AOT/AOT_stimuli/rescaled_final/1470_rv.mp4	0.0	245.89906787872314	0.10001587867736816
43	206.27222681045532	fix_pre	0		120	41.0	2.5	/experiments/knapen_AOT/AOT_stimuli/rescaled_final/1908_rv.mp4	0.0	245.9990837574005	1.075195074081421
43	206.85583686828613	pulse	0	t		41.0	2.5	/experiments/knapen_AOT/AOT_stimuli/rescaled_final/1908_rv.mp4	0.0	246.58269381523132	
43	207.34742188453674	movie	1		238	41.0	2.5	/experiments/knapen_AOT/AOT_stimuli/rescaled_final/1908_rv.mp4	0.0	247.07427883148193	2.425318956375122
43	208.4546229839325	pulse	1	t		41.0	2.5	/experiments/knapen_AOT/AOT_stimuli/rescaled_final/1908_rv.mp4	0.0	248.18147993087769	
43	209.77274084091187	fix_post	2		12	41.0	2.5	/experiments/knapen_AOT/AOT_stimuli/rescaled_final/1908_rv.mp4	0.0	249.49959778785706	0.10000014305114746
44	209.872740983963	fix_pre	0		120	42.0	2.5	blank	1.0	249.5995979309082	1.0001728534698486
44	210.056391954422	pulse	0	t		42.0	2.5	blank	1.0	249.7832489013672	
44	210.87291383743286	movie	1		300	42.0	2.5	blank	1.0	250.59977078437805	2.500399112701416
44	211.65669298171997	pulse	1	t		42.0	2.5	blank	1.0	251.38354992866516	
44	213.25682401657104	pulse	1	t		42.0	2.5	blank	1.0	252.98368096351624	
44	213.37331295013428	fix_post	2		12	42.0	2.5	blank	1.0	253.10016989707947	0.09996986389160156
45	213.47328281402588	fix_pre	0		120	43.0	2.5	/experiments/knapen_AOT/AOT_stimuli/rescaled_final/0523_fw.mp4	0.0	253.20013976097107	1.0585711002349854
45	214.53185391426086	movie	1		229	43.0	2.5	/experiments/knapen_AOT/AOT_stimuli/rescaled_final/0523_fw.mp4	0.0	254.25871086120605	2.4336249828338623
45	214.85577082633972	pulse	1	t		43.0	2.5	/experiments/knapen_AOT/AOT_stimuli/rescaled_final/0523_fw.mp4	0.0	254.5826277732849	
45	216.45750284194946	pulse	1	t		43.0	2.5	/experiments/knapen_AOT/AOT_stimuli/rescaled_final/0523_fw.mp4	0.0	256.18435978889465	
45	216.96547889709473	fix_post	2		12	43.0	2.5	/experiments/knapen_AOT/AOT_stimuli/rescaled_final/0523_fw.mp4	0.0	256.6923358440399	0.10000991821289062
46	217.06548881530762	fix_pre	0		120	44.0	2.5	/experiments/knapen_AOT/AOT_stimuli/rescaled_final/0989_fw.mp4	0.0	256.7923457622528	1.0668361186981201
46	218.05756497383118	pulse	0	t		44.0	2.5	/experiments/knapen_AOT/AOT_stimuli/rescaled_final/0989_fw.mp4	0.0	257.78442192077637	
46	218.13232493400574	movie	1		249	44.0	2.5	/experiments/knapen_AOT/AOT_stimuli/rescaled_final/0989_fw.mp4	0.0	257.8591818809509	2.4420769214630127
46	219.6560139656067	pulse	1	t		44.0	2.5	/experiments/knapen_AOT/AOT_stimuli/rescaled_final/0989_fw.mp4	0.0	259.3828709125519	
46	220.57440185546875	fix_post	2		12	44.0	2.5	/experiments/knapen_AOT/AOT_stimuli/rescaled_final/0989_fw.mp4	0.0	260.30125880241394	0.09996604919433594
47	220.6743679046631	fix_pre	0		120	45.0	2.5	/experiments/knapen_AOT/AOT_stimuli/rescaled_final/0285_rv.mp4	0.0	260.4012248516083	1.0585429668426514
47	221.2580008506775	pulse	0	t		45.0	2.5	/experiments/knapen_AOT/AOT_stimuli/rescaled_final/0285_rv.mp4	0.0	260.9848577976227	
47	221.73291087150574	movie	1		257	45.0	2.5	/experiments/knapen_AOT/AOT_stimuli/rescaled_final/0285_rv.mp4	0.0	261.4597678184509	2.441979169845581
47	222.85722994804382	pulse	1	t		45.0	2.5	/experiments/knapen_AOT/AOT_stimuli/rescaled_final/0285_rv.mp4	0.0	262.584086894989	
47	224.17489004135132	fix_post	2		12	45.0	2.5	/experiments/knapen_AOT/AOT_stimuli/rescaled_final/0285_rv.mp4	0.0	263.9017469882965	0.1000359058380127
48	224.27492594718933	fix_pre	0		120	46.0	2.5	/experiments/knapen_AOT/AOT_stimuli/rescaled_final/1052_rv.mp4	0.0	264.0017828941345	1.0835449695587158
48	224.4509789943695	pulse	0	t		46.0	2.5	/experiments/knapen_AOT/AOT_stimuli/rescaled_final/1052_rv.mp4	0.0	264.1778359413147	
48	225.35847091674805	movie	1		237	46.0	2.5	/experiments/knapen_AOT/AOT_stimuli/rescaled_final/1052_rv.mp4	0.0	265.08532786369324	2.4170639514923096
48	226.0574870109558	pulse	1	t		46.0	2.5	/experiments/knapen_AOT/AOT_stimuli/rescaled_final/1052_rv.mp4	0.0	265.784343957901	
48	227.6511688232422	pulse	1	t		46.0	2.5	/experiments/knapen_AOT/AOT_stimuli/rescaled_final/1052_rv.mp4	0.0	267.3780257701874	
48	227.77553486824036	fix_post	2		12	46.0	2.5	/experiments/knapen_AOT/AOT_stimuli/rescaled_final/1052_rv.mp4	0.0	267.50239181518555	0.09998297691345215
49	227.8755178451538	fix_pre	0		120	47.0	2.5	/experiments/knapen_AOT/AOT_stimuli/rescaled_final/1416_rv.mp4	0.0	267.602374792099	1.0670201778411865
49	228.942538022995	movie	1		234	47.0	2.5	/experiments/knapen_AOT/AOT_stimuli/rescaled_final/1416_rv.mp4	0.0	268.6693949699402	2.425144910812378
49	229.25087881088257	pulse	1	t		47.0	2.5	/experiments/knapen_AOT/AOT_stimuli/rescaled_final/1416_rv.mp4	0.0	268.97773575782776	
49	230.85110092163086	pulse	1	t		47.0	2.5	/experiments/knapen_AOT/AOT_stimuli/rescaled_final/1416_rv.mp4	0.0	270.57795786857605	
49	231.36768293380737	fix_post	2		12	47.0	2.5	/experiments/knapen_AOT/AOT_stimuli/rescaled_final/1416_rv.mp4	0.0	271.09453988075256	0.09993505477905273
50	231.46761798858643	fix_pre	0		119	48.0	2.5	blank	1.0	271.1944749355316	0.9918918609619141
50	232.451318025589	pulse	0	t		48.0	2.5	blank	1.0	272.1781749725342	
50	232.45950984954834	movie	1		301	48.0	2.5	blank	1.0	272.18636679649353	2.5087029933929443
50	234.05167484283447	pulse	1	t		48.0	2.5	blank	1.0	273.77853178977966	
50	234.96821284294128	fix_post	2		12	48.0	2.5	blank	1.0	274.6950697898865	0.0999000072479248
51	235.0681128501892	fix_pre	0		120	49.0	2.5	/experiments/knapen_AOT/AOT_stimuli/rescaled_final/0314_fw.mp4	0.0	274.7949697971344	1.06697416305542
51	235.65190887451172	pulse	0	t		49.0	2.5	/experiments/knapen_AOT/AOT_stimuli/rescaled_final/0314_fw.mp4	0.0	275.3787658214569	
51	236.13508701324463	movie	1		225	49.0	2.5	/experiments/knapen_AOT/AOT_stimuli/rescaled_final/0314_fw.mp4	0.0	275.8619439601898	2.4337007999420166
51	237.25182580947876	pulse	1	t		49.0	2.5	/experiments/knapen_AOT/AOT_stimuli/rescaled_final/0314_fw.mp4	0.0	276.97868275642395	
51	238.56878781318665	fix_post	2		12	49.0	2.5	/experiments/knapen_AOT/AOT_stimuli/rescaled_final/0314_fw.mp4	0.0	278.29564476013184	0.09991312026977539
52	238.66870093345642	fix_pre	0		120	50.0	2.5	/experiments/knapen_AOT/AOT_stimuli/rescaled_final/1765_fw.mp4	0.0	278.3955578804016	1.0586628913879395
52	238.85227799415588	pulse	0	t		50.0	2.5	/experiments/knapen_AOT/AOT_stimuli/rescaled_final/1765_fw.mp4	0.0	278.5791349411011	
52	239.72736382484436	movie	1		233	50.0	2.5	/experiments/knapen_AOT/AOT_stimuli/rescaled_final/1765_fw.mp4	0.0	279.45422077178955	2.4419782161712646
52	240.4524998664856	pulse	1	t		50.0	2.5	/experiments/knapen_AOT/AOT_stimuli/rescaled_final/1765_fw.mp4	0.0	280.1793568134308	
52	242.05262804031372	pulse	1	t		50.0	2.5	/experiments/knapen_AOT/AOT_stimuli/rescaled_final/1765_fw.mp4	0.0	281.7794849872589	
52	242.16934204101562	fix_post	2		12	50.0	2.5	/experiments/knapen_AOT/AOT_stimuli/rescaled_final/1765_fw.mp4	0.0	281.8961989879608	0.09992790222167969
53	242.2692699432373	fix_pre	0		120	51.0	2.5	/experiments/knapen_AOT/AOT_stimuli/rescaled_final/0876_fw.mp4	0.0	281.9961268901825	1.0502629280090332
53	243.31953287124634	movie	1		239	51.0	2.5	/experiments/knapen_AOT/AOT_stimuli/rescaled_final/0876_fw.mp4	0.0	283.0463898181915	2.4419281482696533
53	243.65274095535278	pulse	1	t		51.0	2.5	/experiments/knapen_AOT/AOT_stimuli/rescaled_final/0876_fw.mp4	0.0	283.379597902298	
53	245.25201296806335	pulse	1	t		51.0	2.5	/experiments/knapen_AOT/AOT_stimuli/rescaled_final/0876_fw.mp4	0.0	284.97886991500854	
53	245.761461019516	fix_post	2		12	51.0	2.5	/experiments/knapen_AOT/AOT_stimuli/rescaled_final/0876_fw.mp4	0.0	285.4883179664612	0.09996891021728516
54	245.86142992973328	fix_pre	0		120	52.0	2.5	/experiments/knapen_AOT/AOT_stimuli/rescaled_final/1941_rv.mp4	0.0	285.58828687667847	1.0586130619049072
54	246.85352182388306	pulse	0	t		52.0	2.5	/experiments/knapen_AOT/AOT_stimuli/rescaled_final/1941_rv.mp4	0.0	286.58037877082825	
54	246.92004299163818	movie	1		244	52.0	2.5	/experiments/knapen_AOT/AOT_stimuli/rescaled_final/1941_rv.mp4	0.0	286.6468999385834	2.4502909183502197
54	248.45332598686218	pulse	1	t		52.0	2.5	/experiments/knapen_AOT/AOT_stimuli/rescaled_final/1941_rv.mp4	0.0	288.1801829338074	
54	249.3703339099884	fix_post	2		12	52.0	2.5	/experiments/knapen_AOT/AOT_stimuli/rescaled_final/1941_rv.mp4	0.0	289.0971908569336	0.100006103515625
55	249.47034001350403	fix_pre	0		120	53.0	2.5	/experiments/knapen_AOT/AOT_stimuli/rescaled_final/2156_rv.mp4	0.0	289.1971969604492	1.0836479663848877
55	250.05397200584412	pulse	0	t		53.0	2.5	/experiments/knapen_AOT/AOT_stimuli/rescaled_final/2156_rv.mp4	0.0	289.7808289527893	
55	250.55398797988892	movie	1		242	53.0	2.5	/experiments/knapen_AOT/AOT_stimuli/rescaled_final/2156_rv.mp4	0.0	290.2808449268341	2.416872978210449
55	251.65265798568726	pulse	1	t		53.0	2.5	/experiments/knapen_AOT/AOT_stimuli/rescaled_final/2156_rv.mp4	0.0	291.37951493263245	
55	252.97086095809937	fix_post	2		12	53.0	2.5	/experiments/knapen_AOT/AOT_stimuli/rescaled_final/2156_rv.mp4	0.0	292.69771790504456	0.09999203681945801
56	253.07085299491882	fix_pre	0		120	54.0	2.5	/experiments/knapen_AOT/AOT_stimuli/rescaled_final/1568_rv.mp4	0.0	292.797709941864	1.0670499801635742
56	253.2544069290161	pulse	0	t		54.0	2.5	/experiments/knapen_AOT/AOT_stimuli/rescaled_final/1568_rv.mp4	0.0	292.9812638759613	
56	254.1379029750824	movie	1		233	54.0	2.5	/experiments/knapen_AOT/AOT_stimuli/rescaled_final/1568_rv.mp4	0.0	293.8647599220276	2.433475971221924
56	254.85340785980225	pulse	1	t		54.0	2.5	/experiments/knapen_AOT/AOT_stimuli/rescaled_final/1568_rv.mp4	0.0	294.58026480674744	
56	256.4534559249878	pulse	1	t		54.0	2.5	/experiments/knapen_AOT/AOT_stimuli/rescaled_final/1568_rv.mp4	0.0	296.180312871933	
56	256.5713789463043	fix_post	2		12	54.0	2.5	/experiments/knapen_AOT/AOT_stimuli/rescaled_final/1568_rv.mp4	0.0	296.2982358932495	0.1000070571899414
57	256.67138600349426	fix_pre	0		120	55.0	2.5	/experiments/knapen_AOT/AOT_stimuli/rescaled_final/0560_fw.mp4	0.0	296.39824295043945	1.0502009391784668
57	257.72158694267273	movie	1		228	55.0	2.5	/experiments/knapen_AOT/AOT_stimuli/rescaled_final/0560_fw.mp4	0.0	297.4484438896179	2.4420368671417236
57	258.0589089393616	pulse	1	t		55.0	2.5	/experiments/knapen_AOT/AOT_stimuli/rescaled_final/0560_fw.mp4	0.0	297.78576588630676	
57	259.65449595451355	pulse	1	t		55.0	2.5	/experiments/knapen_AOT/AOT_stimuli/rescaled_final/0560_fw.mp4	0.0	299.38135290145874	
57	260.16362380981445	fix_post	2		12	55.0	2.5	/experiments/knapen_AOT/AOT_stimuli/rescaled_final/0560_fw.mp4	0.0	299.89048075675964	0.09997010231018066
58	260.26359391212463	fix_pre	0		120	56.0	2.5	blank	1.0	299.9904508590698	1.000154972076416
58	261.2557258605957	pulse	0	t		56.0	2.5	blank	1.0	300.9825828075409	
58	261.26374888420105	movie	1		301	56.0	2.5	blank	1.0	300.99060583114624	2.5087039470672607
58	262.8558599948883	pulse	1	t		56.0	2.5	blank	1.0	302.5827169418335	
58	263.7724528312683	fix_post	2		12	56.0	2.5	blank	1.0	303.4993097782135	0.10004401206970215
59	263.872496843338	fix_pre	0		120	57.0	2.5	/experiments/knapen_AOT/AOT_stimuli/rescaled_final/2023_fw.mp4	0.0	303.5993537902832	1.0918991565704346
59	264.45605087280273	pulse	0	t		57.0	2.5	/experiments/knapen_AOT/AOT_stimuli/rescaled_final/2023_fw.mp4	0.0	304.1829078197479	
59	264.96439599990845	movie	1		226	57.0	2.5	/experiments/knapen_AOT/AOT_stimuli/rescaled_final/2023_fw.mp4	0.0	304.69125294685364	2.4086358547210693
59	266.05525398254395	pulse	1	t		57.0	2.5	/experiments/knapen_AOT/AOT_stimuli/rescaled_final/2023_fw.mp4	0.0	305.78211092948914	
59	267.3730318546295	fix_post	2		12	57.0	2.5	/experiments/knapen_AOT/AOT_stimuli/rescaled_final/2023_fw.mp4	0.0	307.0998888015747	0.09992599487304688
60	267.47295784950256	fix_pre	0		120	58.0	2.5	/experiments/knapen_AOT/AOT_stimuli/rescaled_final/0302_fw.mp4	0.0	307.19981479644775	1.083665132522583
60	267.6565899848938	pulse	0	t		58.0	2.5	/experiments/knapen_AOT/AOT_stimuli/rescaled_final/0302_fw.mp4	0.0	307.383446931839	
60	268.55662298202515	movie	1		233	58.0	2.5	/experiments/knapen_AOT/AOT_stimuli/rescaled_final/0302_fw.mp4	0.0	308.28347992897034	2.41695499420166
60	269.25674986839294	pulse	1	t		58.0	2.5	/experiments/knapen_AOT/AOT_stimuli/rescaled_final/0302_fw.mp4	0.0	308.98360681533813	
60	270.85578298568726	pulse	1	t		58.0	2.5	/experiments/knapen_AOT/AOT_stimuli/rescaled_final/0302_fw.mp4	0.0	310.58263993263245	
60	270.9735779762268	fix_post	2		12	58.0	2.5	/experiments/knapen_AOT/AOT_stimuli/rescaled_final/0302_fw.mp4	0.0	310.700434923172	0.09997200965881348
61	271.0735499858856	fix_pre	0		120	59.0	2.5	/experiments/knapen_AOT/AOT_stimuli/rescaled_final/1103_fw.mp4	0.0	310.8004069328308	1.066972017288208
61	272.1405220031738	movie	1		232	59.0	2.5	/experiments/knapen_AOT/AOT_stimuli/rescaled_final/1103_fw.mp4	0.0	311.867378950119	2.4252400398254395
61	272.455757856369	pulse	1	t		59.0	2.5	/experiments/knapen_AOT/AOT_stimuli/rescaled_final/1103_fw.mp4	0.0	312.1826148033142	
61	274.0571599006653	pulse	1	t		59.0	2.5	/experiments/knapen_AOT/AOT_stimuli/rescaled_final/1103_fw.mp4	0.0	313.7840168476105	
61	274.56576204299927	fix_post	2		12	59.0	2.5	/experiments/knapen_AOT/AOT_stimuli/rescaled_final/1103_fw.mp4	0.0	314.29261898994446	0.10005998611450195
62	274.66582202911377	fix_pre	0		120	60.0	2.5	/experiments/knapen_AOT/AOT_stimuli/rescaled_final/2102_fw.mp4	0.0	314.39267897605896	1.0751278400421143
62	275.6502888202667	pulse	0	t		60.0	2.5	/experiments/knapen_AOT/AOT_stimuli/rescaled_final/2102_fw.mp4	0.0	315.3771457672119	
62	275.7409498691559	movie	1		225	60.0	2.5	/experiments/knapen_AOT/AOT_stimuli/rescaled_final/2102_fw.mp4	0.0	315.4678068161011	2.433809995651245
62	277.2567298412323	pulse	1	t		60.0	2.5	/experiments/knapen_AOT/AOT_stimuli/rescaled_final/2102_fw.mp4	0.0	316.9835867881775	
62	278.17475986480713	fix_post	2		12	60.0	2.5	/experiments/knapen_AOT/AOT_stimuli/rescaled_final/2102_fw.mp4	0.0	317.9016168117523	0.09985899925231934
63	278.27461886405945	fix_pre	0		120	61.0	2.5	/experiments/knapen_AOT/AOT_stimuli/rescaled_final/2162_fw.mp4	0.0	318.00147581100464	1.0593719482421875
63	278.85080885887146	pulse	0	t		61.0	2.5	/experiments/knapen_AOT/AOT_stimuli/rescaled_final/2162_fw.mp4	0.0	318.57766580581665	
63	279.33399081230164	movie	1		232	61.0	2.5	/experiments/knapen_AOT/AOT_stimuli/rescaled_final/2162_fw.mp4	0.0	319.0608477592468	2.4411511421203613
63	280.45860481262207	pulse	1	t		61.0	2.5	/experiments/knapen_AOT/AOT_stimuli/rescaled_final/2162_fw.mp4	0.0	320.18546175956726	
63	281.775141954422	fix_post	2		12	61.0	2.5	/experiments/knapen_AOT/AOT_stimuli/rescaled_final/2162_fw.mp4	0.0	321.5019989013672	0.1000058650970459
64	281.87514781951904	fix_pre	0		120	62.0	2.5	blank	1.0	321.60200476646423	1.0002110004425049
64	282.0511429309845	pulse	0	t		62.0	2.5	blank	1.0	321.7779998779297	
64	282.87535881996155	movie	1		300	62.0	2.5	blank	1.0	322.60221576690674	2.5003411769866943
64	283.6506369113922	pulse	1	t		62.0	2.5	blank	1.0	323.3774938583374	
64	285.25079703330994	pulse	1	t		62.0	2.5	blank	1.0	324.9776539802551	
64	285.37569999694824	fix_post	2		12	62.0	2.5	blank	1.0	325.10255694389343	0.09999990463256836
65	285.4756999015808	fix_pre	0		120	63.0	2.5	/experiments/knapen_AOT/AOT_stimuli/rescaled_final/1313_rv.mp4	0.0	325.202556848526	1.0751979351043701
65	286.5508978366852	movie	1		231	63.0	2.5	/experiments/knapen_AOT/AOT_stimuli/rescaled_final/1313_rv.mp4	0.0	326.27775478363037	2.4169960021972656
65	286.85110902786255	pulse	1	t		63.0	2.5	/experiments/knapen_AOT/AOT_stimuli/rescaled_final/1313_rv.mp4	0.0	326.57796597480774	
65	288.4513409137726	pulse	1	t		63.0	2.5	/experiments/knapen_AOT/AOT_stimuli/rescaled_final/1313_rv.mp4	0.0	328.1781978607178	
65	288.96789383888245	fix_post	2		12	63.0	2.5	/experiments/knapen_AOT/AOT_stimuli/rescaled_final/1313_rv.mp4	0.0	328.69475078582764	0.10000300407409668
66	289.06789684295654	fix_pre	0		119	64.0	2.5	/experiments/knapen_AOT/AOT_stimuli/rescaled_final/0943_fw.mp4	0.0	328.79475378990173	1.0669171810150146
66	290.0516128540039	pulse	0	t		64.0	2.5	/experiments/knapen_AOT/AOT_stimuli/rescaled_final/0943_fw.mp4	0.0	329.7784698009491	
66	290.13481402397156	movie	1		225	64.0	2.5	/experiments/knapen_AOT/AOT_stimuli/rescaled_final/0943_fw.mp4	0.0	329.86167097091675	2.4336278438568115
66	291.6517779827118	pulse	1	t		64.0	2.5	/experiments/knapen_AOT/AOT_stimuli/rescaled_final/0943_fw.mp4	0.0	331.378634929657	
66	292.56844186782837	fix_post	2		12	64.0	2.5	/experiments/knapen_AOT/AOT_stimuli/rescaled_final/0943_fw.mp4	0.0	332.29529881477356	0.09999394416809082
67	292.66843581199646	fix_pre	0		120	65.0	2.5	/experiments/knapen_AOT/AOT_stimuli/rescaled_final/1491_rv.mp4	0.0	332.39529275894165	1.0669260025024414
67	293.25206303596497	pulse	0	t		65.0	2.5	/experiments/knapen_AOT/AOT_stimuli/rescaled_final/1491_rv.mp4	0.0	332.97891998291016	
67	293.7353618144989	movie	1		256	65.0	2.5	/experiments/knapen_AOT/AOT_stimuli/rescaled_final/1491_rv.mp4	0.0	333.4622187614441	2.4336040019989014
67	294.85111904144287	pulse	1	t		65.0	2.5	/experiments/knapen_AOT/AOT_stimuli/rescaled_final/1491_rv.mp4	0.0	334.57797598838806	
67	296.1689658164978	fix_post	2		12	65.0	2.5	/experiments/knapen_AOT/AOT_stimuli/rescaled_final/1491_rv.mp4	0.0	335.895822763443	0.10001420974731445
68	296.2689800262451	fix_pre	0		116	66.0	2.5	/experiments/knapen_AOT/AOT_stimuli/rescaled_final/0622_rv.mp4	0.0	335.9958369731903	1.0586998462677002
68	296.452684879303	pulse	0	t		66.0	2.5	/experiments/knapen_AOT/AOT_stimuli/rescaled_final/0622_rv.mp4	0.0	336.17954182624817	
68	297.3276798725128	movie	1		237	66.0	2.5	/experiments/knapen_AOT/AOT_stimuli/rescaled_final/0622_rv.mp4	0.0	337.054536819458	2.4418461322784424
68	298.05104184150696	pulse	1	t		66.0	2.5	/experiments/knapen_AOT/AOT_stimuli/rescaled_final/0622_rv.mp4	0.0	337.77789878845215	
68	299.65251302719116	pulse	1	t		66.0	2.5	/experiments/knapen_AOT/AOT_stimuli/rescaled_final/0622_rv.mp4	0.0	339.37936997413635	
68	299.76952600479126	fix_post	2		12	66.0	2.5	/experiments/knapen_AOT/AOT_stimuli/rescaled_final/0622_rv.mp4	0.0	339.49638295173645	0.10003399848937988
69	299.86956000328064	fix_pre	0		120	67.0	2.5	/experiments/knapen_AOT/AOT_stimuli/rescaled_final/0090_rv.mp4	0.0	339.59641695022583	1.058452844619751
69	300.9280128479004	movie	1		254	67.0	2.5	/experiments/knapen_AOT/AOT_stimuli/rescaled_final/0090_rv.mp4	0.0	340.6548697948456	2.4337241649627686
69	301.2526218891144	pulse	1	t		67.0	2.5	/experiments/knapen_AOT/AOT_stimuli/rescaled_final/0090_rv.mp4	0.0	340.97947883605957	
69	302.8536419868469	pulse	1	t		67.0	2.5	/experiments/knapen_AOT/AOT_stimuli/rescaled_final/0090_rv.mp4	0.0	342.5804989337921	
69	303.36173701286316	fix_post	2		12	67.0	2.5	/experiments/knapen_AOT/AOT_stimuli/rescaled_final/0090_rv.mp4	0.0	343.08859395980835	0.09998703002929688
70	303.46172404289246	fix_pre	0		120	68.0	2.5	blank	1.0	343.18858098983765	1.0001437664031982
70	304.45372200012207	pulse	0	t		68.0	2.5	blank	1.0	344.18057894706726	
70	304.46186780929565	movie	1		301	68.0	2.5	blank	1.0	344.18872475624084	2.5088050365448
70	306.0539529323578	pulse	1	t		68.0	2.5	blank	1.0	345.780809879303	
70	306.97067284584045	fix_post	2		12	68.0	2.5	blank	1.0	346.69752979278564	0.09995913505554199
71	307.070631980896	fix_pre	0		120	69.0	2.5	/experiments/knapen_AOT/AOT_stimuli/rescaled_final/0602_fw.mp4	0.0	346.7974889278412	1.083569049835205
71	307.65426993370056	pulse	0	t		69.0	2.5	/experiments/knapen_AOT/AOT_stimuli/rescaled_final/0602_fw.mp4	0.0	347.38112688064575	
71	308.1542010307312	movie	1		249	69.0	2.5	/experiments/knapen_AOT/AOT_stimuli/rescaled_final/0602_fw.mp4	0.0	347.8810579776764	2.416998863220215
71	309.2527868747711	pulse	1	t		69.0	2.5	/experiments/knapen_AOT/AOT_stimuli/rescaled_final/0602_fw.mp4	0.0	348.9796438217163	
71	310.5711998939514	fix_post	2		12	69.0	2.5	/experiments/knapen_AOT/AOT_stimuli/rescaled_final/0602_fw.mp4	0.0	350.2980568408966	0.09993410110473633
72	310.67113399505615	fix_pre	0		120	70.0	2.5	/experiments/knapen_AOT/AOT_stimuli/rescaled_final/2102_rv.mp4	0.0	350.39799094200134	1.058581829071045
72	310.8548319339752	pulse	0	t		70.0	2.5	/experiments/knapen_AOT/AOT_stimuli/rescaled_final/2102_rv.mp4	0.0	350.5816888809204	
72	311.7297158241272	movie	1		246	70.0	2.5	/experiments/knapen_AOT/AOT_stimuli/rescaled_final/2102_rv.mp4	0.0	351.4565727710724	2.441927194595337
72	312.4533610343933	pulse	1	t		70.0	2.5	/experiments/knapen_AOT/AOT_stimuli/rescaled_final/2102_rv.mp4	0.0	352.1802179813385	
72	314.05412697792053	pulse	1	t		70.0	2.5	/experiments/knapen_AOT/AOT_stimuli/rescaled_final/2102_rv.mp4	0.0	353.7809839248657	
72	314.17164301872253	fix_post	2		12	70.0	2.5	/experiments/knapen_AOT/AOT_stimuli/rescaled_final/2102_rv.mp4	0.0	353.8984999656677	0.10003900527954102
73	314.2716820240021	fix_pre	0		120	71.0	2.5	/experiments/knapen_AOT/AOT_stimuli/rescaled_final/1425_rv.mp4	0.0	353.99853897094727	1.0669457912445068
73	315.3386278152466	movie	1		259	71.0	2.5	/experiments/knapen_AOT/AOT_stimuli/rescaled_final/1425_rv.mp4	0.0	355.0654847621918	2.4252312183380127
73	315.65388083457947	pulse	1	t		71.0	2.5	/experiments/knapen_AOT/AOT_stimuli/rescaled_final/1425_rv.mp4	0.0	355.38073778152466	
73	317.255234003067	pulse	1	t		71.0	2.5	/experiments/knapen_AOT/AOT_stimuli/rescaled_final/1425_rv.mp4	0.0	356.9820909500122	
73	317.7638590335846	fix_post	2		12	71.0	2.5	/experiments/knapen_AOT/AOT_stimuli/rescaled_final/1425_rv.mp4	0.0	357.4907159805298	0.10001492500305176
74	317.86387395858765	fix_pre	0		120	72.0	2.5	/experiments/knapen_AOT/AOT_stimuli/rescaled_final/0888_rv.mp4	0.0	357.59073090553284	1.0501649379730225
74	318.85602498054504	pulse	0	t		72.0	2.5	/experiments/knapen_AOT/AOT_stimuli/rescaled_final/0888_rv.mp4	0.0	358.58288192749023	
74	318.91403889656067	movie	1		252	72.0	2.5	/experiments/knapen_AOT/AOT_stimuli/rescaled_final/0888_rv.mp4	0.0	358.64089584350586	2.458696126937866
74	320.45571088790894	pulse	1	t		72.0	2.5	/experiments/knapen_AOT/AOT_stimuli/rescaled_final/0888_rv.mp4	0.0	360.1825678348541	
74	321.37273502349854	fix_post	2		12	72.0	2.5	/experiments/knapen_AOT/AOT_stimuli/rescaled_final/0888_rv.mp4	0.0	361.0995919704437	0.10003495216369629
75	321.47276997566223	fix_pre	0		120	73.0	2.5	/experiments/knapen_AOT/AOT_stimuli/rescaled_final/1765_rv.mp4	0.0	361.1996269226074	1.0837149620056152
75	322.0563540458679	pulse	0	t		73.0	2.5	/experiments/knapen_AOT/AOT_stimuli/rescaled_final/1765_rv.mp4	0.0	361.7832109928131	
75	322.55648493766785	movie	1		243	73.0	2.5	/experiments/knapen_AOT/AOT_stimuli/rescaled_final/1765_rv.mp4	0.0	362.28334188461304	2.4167959690093994
75	323.65499091148376	pulse	1	t		73.0	2.5	/experiments/knapen_AOT/AOT_stimuli/rescaled_final/1765_rv.mp4	0.0	363.38184785842896	
75	324.97328090667725	fix_post	2		12	73.0	2.5	/experiments/knapen_AOT/AOT_stimuli/rescaled_final/1765_rv.mp4	0.0	364.70013785362244	0.10000491142272949
76	325.0732858181	fix_pre	0		120	74.0	2.5	/experiments/knapen_AOT/AOT_stimuli/rescaled_final/0657_fw.mp4	0.0	364.80014276504517	1.0752460956573486
76	325.2569029331207	pulse	0	t		74.0	2.5	/experiments/knapen_AOT/AOT_stimuli/rescaled_final/0657_fw.mp4	0.0	364.9837598800659	
76	326.1485319137573	movie	1		223	74.0	2.5	/experiments/knapen_AOT/AOT_stimuli/rescaled_final/0657_fw.mp4	0.0	365.8753888607025	2.433600902557373
76	326.8568048477173	pulse	1	t		74.0	2.5	/experiments/knapen_AOT/AOT_stimuli/rescaled_final/0657_fw.mp4	0.0	366.5836617946625	
76	328.4556579589844	pulse	1	t		74.0	2.5	/experiments/knapen_AOT/AOT_stimuli/rescaled_final/0657_fw.mp4	0.0	368.18251490592957	
76	328.5821328163147	fix_post	2		11	74.0	2.5	/experiments/knapen_AOT/AOT_stimuli/rescaled_final/0657_fw.mp4	0.0	368.3089897632599	0.09168004989624023
77	328.67381286621094	fix_pre	0		120	75.0	2.5	blank	1.0	368.4006698131561	1.0001521110534668
77	329.6739649772644	movie	1		299	75.0	2.5	blank	1.0	369.4008219242096	2.492079973220825
77	330.05767798423767	pulse	1	t		75.0	2.5	blank	1.0	369.78453493118286	
77	331.65792202949524	pulse	1	t		75.0	2.5	blank	1.0	371.38477897644043	
77	332.16604495048523	fix_post	2		12	75.0	2.5	blank	1.0	371.8929018974304	0.09996891021728516
78	332.2660138607025	fix_pre	0		120	76.0	2.5	/experiments/knapen_AOT/AOT_stimuli/rescaled_final/1644_fw.mp4	0.0	371.9928708076477	1.0669121742248535
78	333.2581148147583	pulse	0	t		76.0	2.5	/experiments/knapen_AOT/AOT_stimuli/rescaled_final/1644_fw.mp4	0.0	372.9849717617035	
78	333.33292603492737	movie	1		226	76.0	2.5	/experiments/knapen_AOT/AOT_stimuli/rescaled_final/1644_fw.mp4	0.0	373.05978298187256	2.441962957382202
78	334.85659289360046	pulse	1	t		76.0	2.5	/experiments/knapen_AOT/AOT_stimuli/rescaled_final/1644_fw.mp4	0.0	374.58344984054565	
78	335.77488899230957	fix_post	2		12	76.0	2.5	/experiments/knapen_AOT/AOT_stimuli/rescaled_final/1644_fw.mp4	0.0	375.50174593925476	0.10015201568603516
79	335.8750410079956	fix_pre	0		120	77.0	2.5	/experiments/knapen_AOT/AOT_stimuli/rescaled_final/0841_fw.mp4	0.0	375.6018979549408	1.0501148700714111
79	336.45107197761536	pulse	0	t		77.0	2.5	/experiments/knapen_AOT/AOT_stimuli/rescaled_final/0841_fw.mp4	0.0	376.17792892456055	
79	336.925155878067	movie	1		246	77.0	2.5	/experiments/knapen_AOT/AOT_stimuli/rescaled_final/0841_fw.mp4	0.0	376.6520128250122	2.450289011001587
79	338.058522939682	pulse	1	t		77.0	2.5	/experiments/knapen_AOT/AOT_stimuli/rescaled_final/0841_fw.mp4	0.0	377.7853798866272	
79	339.3754448890686	fix_post	2		12	77.0	2.5	/experiments/knapen_AOT/AOT_stimuli/rescaled_final/0841_fw.mp4	0.0	379.1023018360138	0.10003113746643066
80	339.47547602653503	fix_pre	0		120	78.0	2.5	/experiments/knapen_AOT/AOT_stimuli/rescaled_final/1416_fw.mp4	0.0	379.2023329734802	1.0834980010986328
80	339.65171003341675	pulse	0	t		78.0	2.5	/experiments/knapen_AOT/AOT_stimuli/rescaled_final/1416_fw.mp4	0.0	379.37856698036194	
80	340.55897402763367	movie	1		252	78.0	2.5	/experiments/knapen_AOT/AOT_stimuli/rescaled_final/1416_fw.mp4	0.0	380.28583097457886	2.416958808898926
80	341.258309841156	pulse	1	t		78.0	2.5	/experiments/knapen_AOT/AOT_stimuli/rescaled_final/1416_fw.mp4	0.0	380.9851667881012	
80	342.8595588207245	pulse	1	t		78.0	2.5	/experiments/knapen_AOT/AOT_stimuli/rescaled_final/1416_fw.mp4	0.0	382.5864157676697	
80	342.9759328365326	fix_post	2		12	78.0	2.5	/experiments/knapen_AOT/AOT_stimuli/rescaled_final/1416_fw.mp4	0.0	382.7027897834778	0.10003805160522461
81	343.0759708881378	fix_pre	0		119	79.0	2.5	/experiments/knapen_AOT/AOT_stimuli/rescaled_final/0302_rv.mp4	0.0	382.802827835083	1.0752589702606201
81	344.15122985839844	movie	1		220	79.0	2.5	/experiments/knapen_AOT/AOT_stimuli/rescaled_final/0302_rv.mp4	0.0	383.8780868053436	2.4169321060180664
81	344.45987200737	pulse	1	t		79.0	2.5	/experiments/knapen_AOT/AOT_stimuli/rescaled_final/0302_rv.mp4	0.0	384.1867289543152	
81	346.0515048503876	pulse	1	t		79.0	2.5	/experiments/knapen_AOT/AOT_stimuli/rescaled_final/0302_rv.mp4	0.0	385.77836179733276	
81	346.5681619644165	fix_post	2		12	79.0	2.5	/experiments/knapen_AOT/AOT_stimuli/rescaled_final/0302_rv.mp4	0.0	386.2950189113617	0.10002994537353516
82	346.66819190979004	fix_pre	0		119	80.0	2.5	/experiments/knapen_AOT/AOT_stimuli/rescaled_final/0383_rv.mp4	0.0	386.39504885673523	1.0835890769958496
82	347.6519088745117	pulse	0	t		80.0	2.5	/experiments/knapen_AOT/AOT_stimuli/rescaled_final/0383_rv.mp4	0.0	387.3787658214569	
82	347.7517809867859	movie	1		232	80.0	2.5	/experiments/knapen_AOT/AOT_stimuli/rescaled_final/0383_rv.mp4	0.0	387.4786379337311	2.4169199466705322
82	349.2517759799957	pulse	1	t		80.0	2.5	/experiments/knapen_AOT/AOT_stimuli/rescaled_final/0383_rv.mp4	0.0	388.9786329269409	
82	350.1687009334564	fix_post	2		12	80.0	2.5	/experiments/knapen_AOT/AOT_stimuli/rescaled_final/0383_rv.mp4	0.0	389.8955578804016	0.10000300407409668
83	350.2687039375305	fix_pre	0		120	81.0	2.5	/experiments/knapen_AOT/AOT_stimuli/rescaled_final/1700_rv.mp4	0.0	389.9955608844757	1.0670180320739746
83	350.8522958755493	pulse	0	t		81.0	2.5	/experiments/knapen_AOT/AOT_stimuli/rescaled_final/1700_rv.mp4	0.0	390.5791528224945	
83	351.3357219696045	movie	1		222	81.0	2.5	/experiments/knapen_AOT/AOT_stimuli/rescaled_final/1700_rv.mp4	0.0	391.0625789165497	2.433527946472168
83	352.4526720046997	pulse	1	t		81.0	2.5	/experiments/knapen_AOT/AOT_stimuli/rescaled_final/1700_rv.mp4	0.0	392.1795289516449	
83	353.76924991607666	fix_post	2		12	81.0	2.5	/experiments/knapen_AOT/AOT_stimuli/rescaled_final/1700_rv.mp4	0.0	393.49610686302185	0.10002398490905762
84	353.8692739009857	fix_pre	0		120	82.0	2.5	/experiments/knapen_AOT/AOT_stimuli/rescaled_final/1851_rv.mp4	0.0	393.5961308479309	1.0586040019989014
84	354.0527868270874	pulse	0	t		82.0	2.5	/experiments/knapen_AOT/AOT_stimuli/rescaled_final/1851_rv.mp4	0.0	393.7796437740326	
84	354.9278779029846	movie	1		227	82.0	2.5	/experiments/knapen_AOT/AOT_stimuli/rescaled_final/1851_rv.mp4	0.0	394.6547348499298	2.441923141479492
84	355.6518669128418	pulse	1	t		82.0	2.5	/experiments/knapen_AOT/AOT_stimuli/rescaled_final/1851_rv.mp4	0.0	395.378723859787	
84	357.25184392929077	pulse	1	t		82.0	2.5	/experiments/knapen_AOT/AOT_stimuli/rescaled_final/1851_rv.mp4	0.0	396.97870087623596	
84	357.3698010444641	fix_post	2		12	82.0	2.5	/experiments/knapen_AOT/AOT_stimuli/rescaled_final/1851_rv.mp4	0.0	397.0966579914093	0.09998488426208496
85	357.4697859287262	fix_pre	0		120	83.0	2.5	blank	1.0	397.1966428756714	1.0001449584960938
85	358.4699308872223	movie	1		299	83.0	2.5	blank	1.0	398.1967878341675	2.4920830726623535
85	358.85357904434204	pulse	1	t		83.0	2.5	blank	1.0	398.58043599128723	
85	360.4536898136139	pulse	1	t		83.0	2.5	blank	1.0	400.1805467605591	
85	360.96201395988464	fix_post	2		12	83.0	2.5	blank	1.0	400.68887090682983	0.09996795654296875
87	361.0619819164276	stim	0		1716					400.7888388633728	14.3021879196167
87	362.0540030002594	pulse	0	t						401.7808599472046	
87	363.6541929244995	pulse	0	t						403.3810498714447	
87	365.2545008659363	pulse	0	t						404.98135781288147	
87	366.85467195510864	pulse	0	t						406.58152890205383	
87	368.45492482185364	pulse	0	t						408.1817817687988	
87	370.05519580841064	pulse	0	t						409.78205275535583	
87	371.65550088882446	pulse	0	t						411.38235783576965	
87	373.25564885139465	pulse	0	t						412.98250579833984	
87	374.85586500167847	pulse	0	t						414.58272194862366	
