trial_nr	onset	event_type	phase	response	nr_frames	movie_index	movie_duration	movie_file	blank	onset_abs	duration
0	0.14984583854675293	stim	0		102					21.74296283721924	0.850067138671875
0	0.9920969009399414	response	0	space						22.585213899612427	
1	0.9999129772186279	stim	0		4069					22.593029975891113	33.908119916915894
1	34.90045785903931	pulse	0	t						56.49357485771179	
1	34.90803289413452	stim	1		1717					56.50114989280701	14.308321952819824
1	36.49985980987549	pulse	1	t						58.092976808547974	
1	38.099753856658936	pulse	1	t						59.69287085533142	
1	39.699739933013916	pulse	1	t						61.2928569316864	
1	41.2997989654541	pulse	1	t						62.89291596412659	
1	42.89983582496643	pulse	1	t						64.49295282363892	
1	44.49981498718262	pulse	1	t						66.0929319858551	
1	46.099830865859985	pulse	1	t						67.69294786453247	
1	47.699771881103516	pulse	1	t						69.292888879776	
2	49.216354846954346	fix_pre	0		11	0.0	2.5	/experiments/AOT/AOT_stimuli/rescaled_final/0363_rv.mp4	0.0	70.80947184562683	0.09161114692687988
2	49.29987692832947	pulse	0	t		0.0	2.5	/experiments/AOT/AOT_stimuli/rescaled_final/0363_rv.mp4	0.0	70.89299392700195	
2	49.307965993881226	movie	1		244	0.0	2.5	/experiments/AOT/AOT_stimuli/rescaled_final/0363_rv.mp4	0.0	70.90108299255371	2.508319854736328
2	50.89947581291199	pulse	1	t		0.0	2.5	/experiments/AOT/AOT_stimuli/rescaled_final/0363_rv.mp4	0.0	72.49259281158447	
2	51.816285848617554	fix_post	2		12	0.0	2.5	/experiments/AOT/AOT_stimuli/rescaled_final/0363_rv.mp4	0.0	73.40940284729004	0.10003805160522461
3	51.91632390022278	fix_pre	0		120	1.0	2.5	/experiments/AOT/AOT_stimuli/rescaled_final/1798_fw.mp4	0.0	73.50944089889526	0.9999449253082275
3	52.49983882904053	pulse	0	t		1.0	2.5	/experiments/AOT/AOT_stimuli/rescaled_final/1798_fw.mp4	0.0	74.09295582771301	
3	52.916268825531006	movie	1		244	1.0	2.5	/experiments/AOT/AOT_stimuli/rescaled_final/1798_fw.mp4	0.0	74.50938582420349	2.4995601177215576
3	54.099841833114624	pulse	1	t		1.0	2.5	/experiments/AOT/AOT_stimuli/rescaled_final/1798_fw.mp4	0.0	75.69295883178711	
3	55.41582894325256	fix_post	2		12	1.0	2.5	/experiments/AOT/AOT_stimuli/rescaled_final/1798_fw.mp4	0.0	77.00894594192505	0.1004638671875
4	55.51629281044006	fix_pre	0		120	2.0	2.5	/experiments/AOT/AOT_stimuli/rescaled_final/0591_fw.mp4	0.0	77.10940980911255	0.9999651908874512
4	55.69966697692871	pulse	0	t		2.0	2.5	/experiments/AOT/AOT_stimuli/rescaled_final/0591_fw.mp4	0.0	77.2927839756012	
4	56.516258001327515	movie	1		244	2.0	2.5	/experiments/AOT/AOT_stimuli/rescaled_final/0591_fw.mp4	0.0	78.109375	2.4995408058166504
4	57.29971694946289	pulse	1	t		2.0	2.5	/experiments/AOT/AOT_stimuli/rescaled_final/0591_fw.mp4	0.0	78.89283394813538	
4	58.8975567817688	pulse	1	t		2.0	2.5	/experiments/AOT/AOT_stimuli/rescaled_final/0591_fw.mp4	0.0	80.49067378044128	
4	59.015798807144165	fix_post	2		12	2.0	2.5	/experiments/AOT/AOT_stimuli/rescaled_final/0591_fw.mp4	0.0	80.60891580581665	0.1000361442565918
5	59.11583495140076	fix_pre	0		120	3.0	2.5	/experiments/AOT/AOT_stimuli/rescaled_final/1601_rv.mp4	0.0	80.70895195007324	1.0003960132598877
5	60.116230964660645	movie	1		241	3.0	2.5	/experiments/AOT/AOT_stimuli/rescaled_final/1601_rv.mp4	0.0	81.70934796333313	2.5004940032958984
5	60.4992949962616	pulse	1	t		3.0	2.5	/experiments/AOT/AOT_stimuli/rescaled_final/1601_rv.mp4	0.0	82.09241199493408	
5	62.099634885787964	pulse	1	t		3.0	2.5	/experiments/AOT/AOT_stimuli/rescaled_final/1601_rv.mp4	0.0	83.69275188446045	
5	62.61672496795654	fix_post	2		12	3.0	2.5	/experiments/AOT/AOT_stimuli/rescaled_final/1601_rv.mp4	0.0	84.20984196662903	0.09962892532348633
6	62.71635389328003	fix_pre	0		119	4.0	2.5	/experiments/AOT/AOT_stimuli/rescaled_final/0408_rv.mp4	0.0	84.30947089195251	0.9915471076965332
6	63.69975686073303	pulse	0	t		4.0	2.5	/experiments/AOT/AOT_stimuli/rescaled_final/0408_rv.mp4	0.0	85.29287385940552	
6	63.70790100097656	movie	1		247	4.0	2.5	/experiments/AOT/AOT_stimuli/rescaled_final/0408_rv.mp4	0.0	85.30101799964905	2.508415937423706
6	65.29990077018738	pulse	1	t		4.0	2.5	/experiments/AOT/AOT_stimuli/rescaled_final/0408_rv.mp4	0.0	86.89301776885986	
6	66.21631693840027	fix_post	2		12	4.0	2.5	/experiments/AOT/AOT_stimuli/rescaled_final/0408_rv.mp4	0.0	87.80943393707275	0.09988689422607422
7	66.31620383262634	fix_pre	0		120	5.0	2.5	/experiments/AOT/AOT_stimuli/rescaled_final/1353_fw.mp4	0.0	87.90932083129883	1.0000431537628174
7	66.89978384971619	pulse	0	t		5.0	2.5	/experiments/AOT/AOT_stimuli/rescaled_final/1353_fw.mp4	0.0	88.49290084838867	
7	67.31624698638916	movie	1		245	5.0	2.5	/experiments/AOT/AOT_stimuli/rescaled_final/1353_fw.mp4	0.0	88.90936398506165	2.4995059967041016
7	68.49977898597717	pulse	1	t		5.0	2.5	/experiments/AOT/AOT_stimuli/rescaled_final/1353_fw.mp4	0.0	90.09289598464966	
7	69.81575298309326	fix_post	2		12	5.0	2.5	/experiments/AOT/AOT_stimuli/rescaled_final/1353_fw.mp4	0.0	91.40886998176575	0.10039186477661133
8	69.91614484786987	fix_pre	0		120	6.0	2.5	blank	1.0	91.50926184654236	0.9997050762176514
8	70.09967088699341	pulse	0	t		6.0	2.5	blank	1.0	91.6927878856659	
8	70.91584992408752	movie	1		300	6.0	2.5	blank	1.0	92.50896692276001	2.500277042388916
8	71.69963788986206	pulse	1	t		6.0	2.5	blank	1.0	93.29275488853455	
8	73.29966998100281	pulse	1	t		6.0	2.5	blank	1.0	94.8927869796753	
8	73.41612696647644	fix_post	2		12	6.0	2.5	blank	1.0	95.00924396514893	0.10001397132873535
9	73.51614093780518	fix_pre	0		120	7.0	2.5	/experiments/AOT/AOT_stimuli/rescaled_final/1457_fw.mp4	0.0	95.10925793647766	1.0000028610229492
9	74.51614379882812	movie	1		245	7.0	2.5	/experiments/AOT/AOT_stimuli/rescaled_final/1457_fw.mp4	0.0	96.10926079750061	2.5000741481781006
9	74.89931082725525	pulse	1	t		7.0	2.5	/experiments/AOT/AOT_stimuli/rescaled_final/1457_fw.mp4	0.0	96.49242782592773	
9	76.49966382980347	pulse	1	t		7.0	2.5	/experiments/AOT/AOT_stimuli/rescaled_final/1457_fw.mp4	0.0	98.09278082847595	
9	77.01621794700623	fix_post	2		12	7.0	2.5	/experiments/AOT/AOT_stimuli/rescaled_final/1457_fw.mp4	0.0	98.60933494567871	0.09987092018127441
10	77.1160888671875	fix_pre	0		119	8.0	2.5	/experiments/AOT/AOT_stimuli/rescaled_final/1258_fw.mp4	0.0	98.70920586585999	0.9916849136352539
10	78.09974098205566	pulse	0	t		8.0	2.5	/experiments/AOT/AOT_stimuli/rescaled_final/1258_fw.mp4	0.0	99.69285798072815	
10	78.10777378082275	movie	1		245	8.0	2.5	/experiments/AOT/AOT_stimuli/rescaled_final/1258_fw.mp4	0.0	99.70089077949524	2.5083391666412354
10	79.69969987869263	pulse	1	t		8.0	2.5	/experiments/AOT/AOT_stimuli/rescaled_final/1258_fw.mp4	0.0	101.29281687736511	
10	80.61611294746399	fix_post	2		12	8.0	2.5	/experiments/AOT/AOT_stimuli/rescaled_final/1258_fw.mp4	0.0	102.20922994613647	0.1000368595123291
11	80.71614980697632	fix_pre	0		120	9.0	2.5	/experiments/AOT/AOT_stimuli/rescaled_final/0874_rv.mp4	0.0	102.3092668056488	1.0000109672546387
11	81.29966187477112	pulse	0	t		9.0	2.5	/experiments/AOT/AOT_stimuli/rescaled_final/0874_rv.mp4	0.0	102.8927788734436	
11	81.71616077423096	movie	1		242	9.0	2.5	/experiments/AOT/AOT_stimuli/rescaled_final/0874_rv.mp4	0.0	103.30927777290344	2.4999570846557617
11	82.89980483055115	pulse	1	t		9.0	2.5	/experiments/AOT/AOT_stimuli/rescaled_final/0874_rv.mp4	0.0	104.49292182922363	
11	84.21611785888672	fix_post	2		12	9.0	2.5	/experiments/AOT/AOT_stimuli/rescaled_final/0874_rv.mp4	0.0	105.8092348575592	0.10001993179321289
12	84.31613779067993	fix_pre	0		120	10.0	2.5	/experiments/AOT/AOT_stimuli/rescaled_final/1097_rv.mp4	0.0	105.90925478935242	1.0000271797180176
12	84.4996509552002	pulse	0	t		10.0	2.5	/experiments/AOT/AOT_stimuli/rescaled_final/1097_rv.mp4	0.0	106.09276795387268	
12	85.31616497039795	movie	1		246	10.0	2.5	/experiments/AOT/AOT_stimuli/rescaled_final/1097_rv.mp4	0.0	106.90928196907043	2.4999430179595947
12	86.099613904953	pulse	1	t		10.0	2.5	/experiments/AOT/AOT_stimuli/rescaled_final/1097_rv.mp4	0.0	107.69273090362549	
12	87.6981909275055	pulse	1	t		10.0	2.5	/experiments/AOT/AOT_stimuli/rescaled_final/1097_rv.mp4	0.0	109.29130792617798	
12	87.81610798835754	fix_post	2		12	10.0	2.5	/experiments/AOT/AOT_stimuli/rescaled_final/1097_rv.mp4	0.0	109.40922498703003	0.09995293617248535
13	87.91606092453003	fix_pre	0		120	11.0	2.5	/experiments/AOT/AOT_stimuli/rescaled_final/0282_rv.mp4	0.0	109.50917792320251	1.000025987625122
13	88.91608691215515	movie	1		245	11.0	2.5	/experiments/AOT/AOT_stimuli/rescaled_final/0282_rv.mp4	0.0	110.50920391082764	2.5000178813934326
13	89.2993049621582	pulse	1	t		11.0	2.5	/experiments/AOT/AOT_stimuli/rescaled_final/0282_rv.mp4	0.0	110.89242196083069	
13	90.89948797225952	pulse	1	t		11.0	2.5	/experiments/AOT/AOT_stimuli/rescaled_final/0282_rv.mp4	0.0	112.492604970932	
13	91.41610479354858	fix_post	2		12	11.0	2.5	/experiments/AOT/AOT_stimuli/rescaled_final/0282_rv.mp4	0.0	113.00922179222107	0.0999910831451416
14	91.51609587669373	fix_pre	0		119	12.0	2.5	/experiments/AOT/AOT_stimuli/rescaled_final/1589_fw.mp4	0.0	113.10921287536621	0.99173903465271
14	92.4995927810669	pulse	0	t		12.0	2.5	/experiments/AOT/AOT_stimuli/rescaled_final/1589_fw.mp4	0.0	114.09270977973938	
14	92.50783491134644	movie	1		246	12.0	2.5	/experiments/AOT/AOT_stimuli/rescaled_final/1589_fw.mp4	0.0	114.10095191001892	2.507822036743164
14	94.09909796714783	pulse	1	t		12.0	2.5	/experiments/AOT/AOT_stimuli/rescaled_final/1589_fw.mp4	0.0	115.69221496582031	
14	95.0156569480896	fix_post	2		12	12.0	2.5	/experiments/AOT/AOT_stimuli/rescaled_final/1589_fw.mp4	0.0	116.60877394676208	0.10036396980285645
15	95.11602091789246	fix_pre	0		120	13.0	2.5	/experiments/AOT/AOT_stimuli/rescaled_final/1732_rv.mp4	0.0	116.70913791656494	1.0000438690185547
15	95.69954586029053	pulse	0	t		13.0	2.5	/experiments/AOT/AOT_stimuli/rescaled_final/1732_rv.mp4	0.0	117.29266285896301	
15	96.11606478691101	movie	1		244	13.0	2.5	/experiments/AOT/AOT_stimuli/rescaled_final/1732_rv.mp4	0.0	117.7091817855835	2.50004506111145
15	97.29956889152527	pulse	1	t		13.0	2.5	/experiments/AOT/AOT_stimuli/rescaled_final/1732_rv.mp4	0.0	118.89268589019775	
15	98.61610984802246	fix_post	2		12	13.0	2.5	/experiments/AOT/AOT_stimuli/rescaled_final/1732_rv.mp4	0.0	120.20922684669495	0.09997296333312988
16	98.71608281135559	fix_pre	0		120	14.0	2.5	blank	1.0	120.30919981002808	1.0000200271606445
16	98.89960885047913	pulse	0	t		14.0	2.5	blank	1.0	120.49272584915161	
16	99.71610283851624	movie	1		300	14.0	2.5	blank	1.0	121.30921983718872	2.500030040740967
16	100.49969983100891	pulse	1	t		14.0	2.5	blank	1.0	122.0928168296814	
16	102.09948086738586	pulse	1	t		14.0	2.5	blank	1.0	123.69259786605835	
16	102.2161328792572	fix_post	2		12	14.0	2.5	blank	1.0	123.80924987792969	0.09992194175720215
17	102.3160548210144	fix_pre	0		120	15.0	2.5	/experiments/AOT/AOT_stimuli/rescaled_final/1291_rv.mp4	0.0	123.90917181968689	0.9999380111694336
17	103.31599283218384	movie	1		244	15.0	2.5	/experiments/AOT/AOT_stimuli/rescaled_final/1291_rv.mp4	0.0	124.90910983085632	2.5000569820404053
17	103.70060682296753	pulse	1	t		15.0	2.5	/experiments/AOT/AOT_stimuli/rescaled_final/1291_rv.mp4	0.0	125.29372382164001	
17	105.29947280883789	pulse	1	t		15.0	2.5	/experiments/AOT/AOT_stimuli/rescaled_final/1291_rv.mp4	0.0	126.89258980751038	
17	105.81604981422424	fix_post	2		12	15.0	2.5	/experiments/AOT/AOT_stimuli/rescaled_final/1291_rv.mp4	0.0	127.40916681289673	0.09998297691345215
18	105.9160327911377	fix_pre	0		119	16.0	2.5	/experiments/AOT/AOT_stimuli/rescaled_final/0487_fw.mp4	0.0	127.50914978981018	0.9917271137237549
18	106.89957094192505	pulse	0	t		16.0	2.5	/experiments/AOT/AOT_stimuli/rescaled_final/0487_fw.mp4	0.0	128.49268794059753	
18	106.90775990486145	movie	1		246	16.0	2.5	/experiments/AOT/AOT_stimuli/rescaled_final/0487_fw.mp4	0.0	128.50087690353394	2.508293867111206
18	108.49917984008789	pulse	1	t		16.0	2.5	/experiments/AOT/AOT_stimuli/rescaled_final/0487_fw.mp4	0.0	130.09229683876038	
18	109.41605377197266	fix_post	2		12	16.0	2.5	/experiments/AOT/AOT_stimuli/rescaled_final/0487_fw.mp4	0.0	131.00917077064514	0.100006103515625
19	109.51605987548828	fix_pre	0		120	17.0	2.5	/experiments/AOT/AOT_stimuli/rescaled_final/1449_rv.mp4	0.0	131.10917687416077	1.0
19	110.09949493408203	pulse	0	t		17.0	2.5	/experiments/AOT/AOT_stimuli/rescaled_final/1449_rv.mp4	0.0	131.69261193275452	
19	110.51605987548828	movie	1		244	17.0	2.5	/experiments/AOT/AOT_stimuli/rescaled_final/1449_rv.mp4	0.0	132.10917687416077	2.5000150203704834
19	111.69974088668823	pulse	1	t		17.0	2.5	/experiments/AOT/AOT_stimuli/rescaled_final/1449_rv.mp4	0.0	133.29285788536072	
19	113.01607489585876	fix_post	2		12	17.0	2.5	/experiments/AOT/AOT_stimuli/rescaled_final/1449_rv.mp4	0.0	134.60919189453125	0.09984493255615234
20	113.11591982841492	fix_pre	0		120	18.0	2.5	/experiments/AOT/AOT_stimuli/rescaled_final/0092_fw.mp4	0.0	134.7090368270874	1.0002729892730713
20	113.29952383041382	pulse	0	t		18.0	2.5	/experiments/AOT/AOT_stimuli/rescaled_final/0092_fw.mp4	0.0	134.8926408290863	
20	114.11619281768799	movie	1		244	18.0	2.5	/experiments/AOT/AOT_stimuli/rescaled_final/0092_fw.mp4	0.0	135.70930981636047	2.499506950378418
20	114.89901494979858	pulse	1	t		18.0	2.5	/experiments/AOT/AOT_stimuli/rescaled_final/0092_fw.mp4	0.0	136.49213194847107	
20	116.49729585647583	pulse	1	t		18.0	2.5	/experiments/AOT/AOT_stimuli/rescaled_final/0092_fw.mp4	0.0	138.09041285514832	
20	116.6156997680664	fix_post	2		12	18.0	2.5	/experiments/AOT/AOT_stimuli/rescaled_final/0092_fw.mp4	0.0	138.2088167667389	0.09999823570251465
21	116.71569800376892	fix_pre	0		120	19.0	2.5	/experiments/AOT/AOT_stimuli/rescaled_final/1457_rv.mp4	0.0	138.3088150024414	1.0006139278411865
21	117.71631193161011	movie	1		246	19.0	2.5	/experiments/AOT/AOT_stimuli/rescaled_final/1457_rv.mp4	0.0	139.3094289302826	2.499675989151001
21	118.0988039970398	pulse	1	t		19.0	2.5	/experiments/AOT/AOT_stimuli/rescaled_final/1457_rv.mp4	0.0	139.69192099571228	
21	119.69942092895508	pulse	1	t		19.0	2.5	/experiments/AOT/AOT_stimuli/rescaled_final/1457_rv.mp4	0.0	141.29253792762756	
21	120.21598792076111	fix_post	2		12	19.0	2.5	/experiments/AOT/AOT_stimuli/rescaled_final/1457_rv.mp4	0.0	141.8091049194336	0.10003495216369629
22	120.3160228729248	fix_pre	0		119	20.0	2.5	blank	1.0	141.9091398715973	0.9915990829467773
22	121.29941582679749	pulse	0	t		20.0	2.5	blank	1.0	142.89253282546997	
22	121.30762195587158	movie	1		301	20.0	2.5	blank	1.0	142.90073895454407	2.5082509517669678
22	122.89950799942017	pulse	1	t		20.0	2.5	blank	1.0	144.49262499809265	
22	123.81587290763855	fix_post	2		12	20.0	2.5	blank	1.0	145.40898990631104	0.10000395774841309
23	123.91587686538696	fix_pre	0		120	21.0	2.5	/experiments/AOT/AOT_stimuli/rescaled_final/1193_fw.mp4	0.0	145.50899386405945	1.0000619888305664
23	124.4993679523468	pulse	0	t		21.0	2.5	/experiments/AOT/AOT_stimuli/rescaled_final/1193_fw.mp4	0.0	146.0924849510193	
23	124.91593885421753	movie	1		243	21.0	2.5	/experiments/AOT/AOT_stimuli/rescaled_final/1193_fw.mp4	0.0	146.50905585289001	2.499993085861206
23	126.09945487976074	pulse	1	t		21.0	2.5	/experiments/AOT/AOT_stimuli/rescaled_final/1193_fw.mp4	0.0	147.69257187843323	
23	127.41593194007874	fix_post	2		12	21.0	2.5	/experiments/AOT/AOT_stimuli/rescaled_final/1193_fw.mp4	0.0	149.00904893875122	0.09952902793884277
24	127.51546096801758	fix_pre	0		120	22.0	2.5	/experiments/AOT/AOT_stimuli/rescaled_final/1350_rv.mp4	0.0	149.10857796669006	1.0003609657287598
24	127.69936084747314	pulse	0	t		22.0	2.5	/experiments/AOT/AOT_stimuli/rescaled_final/1350_rv.mp4	0.0	149.29247784614563	
24	128.51582193374634	movie	1		245	22.0	2.5	/experiments/AOT/AOT_stimuli/rescaled_final/1350_rv.mp4	0.0	150.10893893241882	2.5001628398895264
24	129.2993609905243	pulse	1	t		22.0	2.5	/experiments/AOT/AOT_stimuli/rescaled_final/1350_rv.mp4	0.0	150.89247798919678	
24	130.89793276786804	pulse	1	t		22.0	2.5	/experiments/AOT/AOT_stimuli/rescaled_final/1350_rv.mp4	0.0	152.49104976654053	
24	131.01598477363586	fix_post	2		12	22.0	2.5	/experiments/AOT/AOT_stimuli/rescaled_final/1350_rv.mp4	0.0	152.60910177230835	0.09987902641296387
25	131.11586380004883	fix_pre	0		120	23.0	2.5	/experiments/AOT/AOT_stimuli/rescaled_final/1190_rv.mp4	0.0	152.7089807987213	1.0000271797180176
25	132.11589097976685	movie	1		245	23.0	2.5	/experiments/AOT/AOT_stimuli/rescaled_final/1190_rv.mp4	0.0	153.70900797843933	2.500074863433838
25	132.49907994270325	pulse	1	t		23.0	2.5	/experiments/AOT/AOT_stimuli/rescaled_final/1190_rv.mp4	0.0	154.09219694137573	
25	134.09936499595642	pulse	1	t		23.0	2.5	/experiments/AOT/AOT_stimuli/rescaled_final/1190_rv.mp4	0.0	155.6924819946289	
25	134.61596584320068	fix_post	2		12	23.0	2.5	/experiments/AOT/AOT_stimuli/rescaled_final/1190_rv.mp4	0.0	156.20908284187317	0.0998680591583252
26	134.715833902359	fix_pre	0		119	24.0	2.5	/experiments/AOT/AOT_stimuli/rescaled_final/2122_fw.mp4	0.0	156.3089509010315	0.9916880130767822
26	135.6993899345398	pulse	0	t		24.0	2.5	/experiments/AOT/AOT_stimuli/rescaled_final/2122_fw.mp4	0.0	157.29250693321228	
26	135.7075219154358	movie	1		246	24.0	2.5	/experiments/AOT/AOT_stimuli/rescaled_final/2122_fw.mp4	0.0	157.30063891410828	2.5083580017089844
26	137.29899978637695	pulse	1	t		24.0	2.5	/experiments/AOT/AOT_stimuli/rescaled_final/2122_fw.mp4	0.0	158.89211678504944	
26	138.21587991714478	fix_post	2		12	24.0	2.5	/experiments/AOT/AOT_stimuli/rescaled_final/2122_fw.mp4	0.0	159.80899691581726	0.09992504119873047
27	138.3158049583435	fix_pre	0		120	25.0	2.5	/experiments/AOT/AOT_stimuli/rescaled_final/2148_fw.mp4	0.0	159.908921957016	1.0000548362731934
27	138.89938187599182	pulse	0	t		25.0	2.5	/experiments/AOT/AOT_stimuli/rescaled_final/2148_fw.mp4	0.0	160.4924988746643	
27	139.3158597946167	movie	1		245	25.0	2.5	/experiments/AOT/AOT_stimuli/rescaled_final/2148_fw.mp4	0.0	160.90897679328918	2.5000061988830566
27	140.4994158744812	pulse	1	t		25.0	2.5	/experiments/AOT/AOT_stimuli/rescaled_final/2148_fw.mp4	0.0	162.0925328731537	
27	141.81586599349976	fix_post	2		12	25.0	2.5	/experiments/AOT/AOT_stimuli/rescaled_final/2148_fw.mp4	0.0	163.40898299217224	0.09996795654296875
28	141.91583395004272	fix_pre	0		120	26.0	2.5	/experiments/AOT/AOT_stimuli/rescaled_final/1722_fw.mp4	0.0	163.5089509487152	0.9999430179595947
28	142.09935998916626	pulse	0	t		26.0	2.5	/experiments/AOT/AOT_stimuli/rescaled_final/1722_fw.mp4	0.0	163.69247698783875	
28	142.91577696800232	movie	1		243	26.0	2.5	/experiments/AOT/AOT_stimuli/rescaled_final/1722_fw.mp4	0.0	164.5088939666748	2.49995493888855
28	143.69935297966003	pulse	1	t		26.0	2.5	/experiments/AOT/AOT_stimuli/rescaled_final/1722_fw.mp4	0.0	165.29246997833252	
28	145.29759192466736	pulse	1	t		26.0	2.5	/experiments/AOT/AOT_stimuli/rescaled_final/1722_fw.mp4	0.0	166.89070892333984	
28	145.41573190689087	fix_post	2		12	26.0	2.5	/experiments/AOT/AOT_stimuli/rescaled_final/1722_fw.mp4	0.0	167.00884890556335	0.10004591941833496
29	145.5157778263092	fix_pre	0		120	27.0	2.5	/experiments/AOT/AOT_stimuli/rescaled_final/1658_rv.mp4	0.0	167.1088948249817	0.9999949932098389
29	146.51577281951904	movie	1		243	27.0	2.5	/experiments/AOT/AOT_stimuli/rescaled_final/1658_rv.mp4	0.0	168.10888981819153	2.5000500679016113
29	146.90025281906128	pulse	1	t		27.0	2.5	/experiments/AOT/AOT_stimuli/rescaled_final/1658_rv.mp4	0.0	168.49336981773376	
29	148.49929785728455	pulse	1	t		27.0	2.5	/experiments/AOT/AOT_stimuli/rescaled_final/1658_rv.mp4	0.0	170.09241485595703	
29	149.01582288742065	fix_post	2		12	27.0	2.5	/experiments/AOT/AOT_stimuli/rescaled_final/1658_rv.mp4	0.0	170.60893988609314	0.09995198249816895
30	149.11577486991882	fix_pre	0		119	28.0	2.5	blank	1.0	170.7088918685913	0.9916939735412598
30	150.0993208885193	pulse	0	t		28.0	2.5	blank	1.0	171.69243788719177	
30	150.10746884346008	movie	1		301	28.0	2.5	blank	1.0	171.70058584213257	2.508319139480591
30	151.6993019580841	pulse	1	t		28.0	2.5	blank	1.0	173.2924189567566	
30	152.61578798294067	fix_post	2		12	28.0	2.5	blank	1.0	174.20890498161316	0.10001683235168457
31	152.71580481529236	fix_pre	0		120	29.0	2.5	/experiments/AOT/AOT_stimuli/rescaled_final/0905_fw.mp4	0.0	174.30892181396484	0.9999630451202393
31	153.29933285713196	pulse	0	t		29.0	2.5	/experiments/AOT/AOT_stimuli/rescaled_final/0905_fw.mp4	0.0	174.89244985580444	
31	153.7157678604126	movie	1		248	29.0	2.5	/experiments/AOT/AOT_stimuli/rescaled_final/0905_fw.mp4	0.0	175.30888485908508	2.5000901222229004
31	154.8992898464203	pulse	1	t		29.0	2.5	/experiments/AOT/AOT_stimuli/rescaled_final/0905_fw.mp4	0.0	176.49240684509277	
31	156.2158579826355	fix_post	2		12	29.0	2.5	/experiments/AOT/AOT_stimuli/rescaled_final/0905_fw.mp4	0.0	177.80897498130798	0.09993481636047363
32	156.31579279899597	fix_pre	0		120	30.0	2.5	/experiments/AOT/AOT_stimuli/rescaled_final/2042_fw.mp4	0.0	177.90890979766846	0.9999880790710449
32	156.4993658065796	pulse	0	t		30.0	2.5	/experiments/AOT/AOT_stimuli/rescaled_final/2042_fw.mp4	0.0	178.09248280525208	
32	157.31578087806702	movie	1		247	30.0	2.5	/experiments/AOT/AOT_stimuli/rescaled_final/2042_fw.mp4	0.0	178.9088978767395	2.499974012374878
32	158.09920191764832	pulse	1	t		30.0	2.5	/experiments/AOT/AOT_stimuli/rescaled_final/2042_fw.mp4	0.0	179.6923189163208	
32	159.69927287101746	pulse	1	t		30.0	2.5	/experiments/AOT/AOT_stimuli/rescaled_final/2042_fw.mp4	0.0	181.29238986968994	
32	159.8157548904419	fix_post	2		12	30.0	2.5	/experiments/AOT/AOT_stimuli/rescaled_final/2042_fw.mp4	0.0	181.40887188911438	0.099945068359375
33	159.91569995880127	fix_pre	0		120	31.0	2.5	/experiments/AOT/AOT_stimuli/rescaled_final/2165_fw.mp4	0.0	181.50881695747375	1.0001180171966553
33	160.91581797599792	movie	1		243	31.0	2.5	/experiments/AOT/AOT_stimuli/rescaled_final/2165_fw.mp4	0.0	182.5089349746704	2.4999840259552
33	161.29926300048828	pulse	1	t		31.0	2.5	/experiments/AOT/AOT_stimuli/rescaled_final/2165_fw.mp4	0.0	182.89237999916077	
33	162.89927077293396	pulse	1	t		31.0	2.5	/experiments/AOT/AOT_stimuli/rescaled_final/2165_fw.mp4	0.0	184.49238777160645	
33	163.41580200195312	fix_post	2		12	31.0	2.5	/experiments/AOT/AOT_stimuli/rescaled_final/2165_fw.mp4	0.0	185.0089190006256	0.09998893737792969
34	163.51579093933105	fix_pre	0		119	32.0	2.5	/experiments/AOT/AOT_stimuli/rescaled_final/0822_fw.mp4	0.0	185.10890793800354	0.9916729927062988
34	164.49919295310974	pulse	0	t		32.0	2.5	/experiments/AOT/AOT_stimuli/rescaled_final/0822_fw.mp4	0.0	186.09230995178223	
34	164.50746393203735	movie	1		245	32.0	2.5	/experiments/AOT/AOT_stimuli/rescaled_final/0822_fw.mp4	0.0	186.10058093070984	2.5082199573516846
34	166.09869289398193	pulse	1	t		32.0	2.5	/experiments/AOT/AOT_stimuli/rescaled_final/0822_fw.mp4	0.0	187.69180989265442	
34	167.01568388938904	fix_post	2		12	32.0	2.5	/experiments/AOT/AOT_stimuli/rescaled_final/0822_fw.mp4	0.0	188.60880088806152	0.09997701644897461
35	167.115660905838	fix_pre	0		120	33.0	2.5	blank	1.0	188.7087779045105	1.0000948905944824
35	167.69927191734314	pulse	0	t		33.0	2.5	blank	1.0	189.29238891601562	
35	168.1157557964325	movie	1		300	33.0	2.5	blank	1.0	189.70887279510498	2.499488115310669
35	169.2991738319397	pulse	1	t		33.0	2.5	blank	1.0	190.89229083061218	
35	170.61524391174316	fix_post	2		12	33.0	2.5	blank	1.0	192.20836091041565	0.10053801536560059
36	170.71578192710876	fix_pre	0		120	34.0	2.5	/experiments/AOT/AOT_stimuli/rescaled_final/1611_fw.mp4	0.0	192.30889892578125	0.9995038509368896
36	170.8987967967987	pulse	0	t		34.0	2.5	/experiments/AOT/AOT_stimuli/rescaled_final/1611_fw.mp4	0.0	192.4919137954712	
36	171.71528577804565	movie	1		244	34.0	2.5	/experiments/AOT/AOT_stimuli/rescaled_final/1611_fw.mp4	0.0	193.30840277671814	2.500397205352783
36	172.49888491630554	pulse	1	t		34.0	2.5	/experiments/AOT/AOT_stimuli/rescaled_final/1611_fw.mp4	0.0	194.09200191497803	
36	174.0975058078766	pulse	1	t		34.0	2.5	/experiments/AOT/AOT_stimuli/rescaled_final/1611_fw.mp4	0.0	195.69062280654907	
36	174.21568298339844	fix_post	2		12	34.0	2.5	/experiments/AOT/AOT_stimuli/rescaled_final/1611_fw.mp4	0.0	195.80879998207092	0.10001492500305176
37	174.3156979084015	fix_pre	0		120	35.0	2.5	/experiments/AOT/AOT_stimuli/rescaled_final/1162_fw.mp4	0.0	195.90881490707397	0.9999580383300781
37	175.31565594673157	movie	1		246	35.0	2.5	/experiments/AOT/AOT_stimuli/rescaled_final/1162_fw.mp4	0.0	196.90877294540405	2.4999959468841553
37	175.70024991035461	pulse	1	t		35.0	2.5	/experiments/AOT/AOT_stimuli/rescaled_final/1162_fw.mp4	0.0	197.2933669090271	
37	177.29920887947083	pulse	1	t		35.0	2.5	/experiments/AOT/AOT_stimuli/rescaled_final/1162_fw.mp4	0.0	198.8923258781433	
37	177.81565189361572	fix_post	2		12	35.0	2.5	/experiments/AOT/AOT_stimuli/rescaled_final/1162_fw.mp4	0.0	199.4087688922882	0.10001707077026367
38	177.915668964386	fix_pre	0		119	36.0	2.5	/experiments/AOT/AOT_stimuli/rescaled_final/1838_fw.mp4	0.0	199.50878596305847	0.9915869235992432
38	178.89905381202698	pulse	0	t		36.0	2.5	/experiments/AOT/AOT_stimuli/rescaled_final/1838_fw.mp4	0.0	200.49217081069946	
38	178.90725588798523	movie	1		245	36.0	2.5	/experiments/AOT/AOT_stimuli/rescaled_final/1838_fw.mp4	0.0	200.50037288665771	2.5083370208740234
38	180.49884796142578	pulse	1	t		36.0	2.5	/experiments/AOT/AOT_stimuli/rescaled_final/1838_fw.mp4	0.0	202.09196496009827	
38	181.41559290885925	fix_post	2		12	36.0	2.5	/experiments/AOT/AOT_stimuli/rescaled_final/1838_fw.mp4	0.0	203.00870990753174	0.10003304481506348
39	181.51562595367432	fix_pre	0		120	37.0	2.5	/experiments/AOT/AOT_stimuli/rescaled_final/1523_fw.mp4	0.0	203.1087429523468	0.9999909400939941
39	182.0991039276123	pulse	0	t		37.0	2.5	/experiments/AOT/AOT_stimuli/rescaled_final/1523_fw.mp4	0.0	203.6922209262848	
39	182.5156168937683	movie	1		244	37.0	2.5	/experiments/AOT/AOT_stimuli/rescaled_final/1523_fw.mp4	0.0	204.1087338924408	2.5000128746032715
39	183.699227809906	pulse	1	t		37.0	2.5	/experiments/AOT/AOT_stimuli/rescaled_final/1523_fw.mp4	0.0	205.2923448085785	
39	185.01562976837158	fix_post	2		12	37.0	2.5	/experiments/AOT/AOT_stimuli/rescaled_final/1523_fw.mp4	0.0	206.60874676704407	0.09993410110473633
40	185.11556386947632	fix_pre	0		120	38.0	2.5	/experiments/AOT/AOT_stimuli/rescaled_final/0730_rv.mp4	0.0	206.7086808681488	1.0000379085540771
40	185.29906296730042	pulse	0	t		38.0	2.5	/experiments/AOT/AOT_stimuli/rescaled_final/0730_rv.mp4	0.0	206.8921799659729	
40	186.1156017780304	movie	1		244	38.0	2.5	/experiments/AOT/AOT_stimuli/rescaled_final/0730_rv.mp4	0.0	207.70871877670288	2.5000500679016113
40	186.89904189109802	pulse	1	t		38.0	2.5	/experiments/AOT/AOT_stimuli/rescaled_final/0730_rv.mp4	0.0	208.4921588897705	
40	188.49751996994019	pulse	1	t		38.0	2.5	/experiments/AOT/AOT_stimuli/rescaled_final/0730_rv.mp4	0.0	210.09063696861267	
40	188.615651845932	fix_post	2		12	38.0	2.5	/experiments/AOT/AOT_stimuli/rescaled_final/0730_rv.mp4	0.0	210.2087688446045	0.09995794296264648
41	188.71560978889465	fix_pre	0		120	39.0	2.5	/experiments/AOT/AOT_stimuli/rescaled_final/1073_fw.mp4	0.0	210.30872678756714	0.9995520114898682
41	189.71516180038452	movie	1		243	39.0	2.5	/experiments/AOT/AOT_stimuli/rescaled_final/1073_fw.mp4	0.0	211.308278799057	2.500020980834961
41	190.0987949371338	pulse	1	t		39.0	2.5	/experiments/AOT/AOT_stimuli/rescaled_final/1073_fw.mp4	0.0	211.69191193580627	
41	191.69912481307983	pulse	1	t		39.0	2.5	/experiments/AOT/AOT_stimuli/rescaled_final/1073_fw.mp4	0.0	213.29224181175232	
41	192.21518278121948	fix_post	2		12	39.0	2.5	/experiments/AOT/AOT_stimuli/rescaled_final/1073_fw.mp4	0.0	213.80829977989197	0.10039710998535156
42	192.31557989120483	fix_pre	0		119	40.0	2.5	blank	1.0	213.90869688987732	0.9916529655456543
42	193.29911088943481	pulse	0	t		40.0	2.5	blank	1.0	214.8922278881073	
42	193.3072328567505	movie	1		301	40.0	2.5	blank	1.0	214.90034985542297	2.5083649158477783
42	194.89902687072754	pulse	1	t		40.0	2.5	blank	1.0	216.49214386940002	
42	195.81559777259827	fix_post	2		12	40.0	2.5	blank	1.0	217.40871477127075	0.09996414184570312
43	195.91556191444397	fix_pre	0		120	41.0	2.5	/experiments/AOT/AOT_stimuli/rescaled_final/1833_fw.mp4	0.0	217.50867891311646	0.999971866607666
43	196.49901700019836	pulse	0	t		41.0	2.5	/experiments/AOT/AOT_stimuli/rescaled_final/1833_fw.mp4	0.0	218.09213399887085	
43	196.91553378105164	movie	1		245	41.0	2.5	/experiments/AOT/AOT_stimuli/rescaled_final/1833_fw.mp4	0.0	218.50865077972412	2.4995861053466797
43	198.09916496276855	pulse	1	t		41.0	2.5	/experiments/AOT/AOT_stimuli/rescaled_final/1833_fw.mp4	0.0	219.69228196144104	
43	199.41511988639832	fix_post	2		12	41.0	2.5	/experiments/AOT/AOT_stimuli/rescaled_final/1833_fw.mp4	0.0	221.0082368850708	0.10045504570007324
44	199.5155749320984	fix_pre	0		120	42.0	2.5	/experiments/AOT/AOT_stimuli/rescaled_final/1457_fw.mp4	0.0	221.10869193077087	1.000196933746338
44	199.69908785820007	pulse	0	t		42.0	2.5	/experiments/AOT/AOT_stimuli/rescaled_final/1457_fw.mp4	0.0	221.29220485687256	
44	200.51577186584473	movie	1		245	42.0	2.5	/experiments/AOT/AOT_stimuli/rescaled_final/1457_fw.mp4	0.0	222.1088888645172	2.4997689723968506
44	201.29908895492554	pulse	1	t		42.0	2.5	/experiments/AOT/AOT_stimuli/rescaled_final/1457_fw.mp4	0.0	222.89220595359802	
44	202.89745593070984	pulse	1	t		42.0	2.5	/experiments/AOT/AOT_stimuli/rescaled_final/1457_fw.mp4	0.0	224.49057292938232	
44	203.01554083824158	fix_post	2		12	42.0	2.5	/experiments/AOT/AOT_stimuli/rescaled_final/1457_fw.mp4	0.0	224.60865783691406	0.10005712509155273
45	203.11559796333313	fix_pre	0		120	43.0	2.5	/experiments/AOT/AOT_stimuli/rescaled_final/1154_fw.mp4	0.0	224.70871496200562	0.9998939037322998
45	204.11549186706543	movie	1		244	43.0	2.5	/experiments/AOT/AOT_stimuli/rescaled_final/1154_fw.mp4	0.0	225.70860886573792	2.500046968460083
45	204.49859499931335	pulse	1	t		43.0	2.5	/experiments/AOT/AOT_stimuli/rescaled_final/1154_fw.mp4	0.0	226.09171199798584	
45	206.09902095794678	pulse	1	t		43.0	2.5	/experiments/AOT/AOT_stimuli/rescaled_final/1154_fw.mp4	0.0	227.69213795661926	
45	206.6155388355255	fix_post	2		12	43.0	2.5	/experiments/AOT/AOT_stimuli/rescaled_final/1154_fw.mp4	0.0	228.208655834198	0.09996414184570312
46	206.71550297737122	fix_pre	0		119	44.0	2.5	/experiments/AOT/AOT_stimuli/rescaled_final/0655_fw.mp4	0.0	228.3086199760437	0.9916369915008545
46	207.69899678230286	pulse	0	t		44.0	2.5	/experiments/AOT/AOT_stimuli/rescaled_final/0655_fw.mp4	0.0	229.29211378097534	
46	207.70713996887207	movie	1		246	44.0	2.5	/experiments/AOT/AOT_stimuli/rescaled_final/0655_fw.mp4	0.0	229.30025696754456	2.5083999633789062
46	209.29850482940674	pulse	1	t		44.0	2.5	/experiments/AOT/AOT_stimuli/rescaled_final/0655_fw.mp4	0.0	230.89162182807922	
46	210.21553993225098	fix_post	2		12	44.0	2.5	/experiments/AOT/AOT_stimuli/rescaled_final/0655_fw.mp4	0.0	231.80865693092346	0.09998202323913574
47	210.3155219554901	fix_pre	0		120	45.0	2.5	/experiments/AOT/AOT_stimuli/rescaled_final/0499_rv.mp4	0.0	231.9086389541626	1.0
47	210.89906096458435	pulse	0	t		45.0	2.5	/experiments/AOT/AOT_stimuli/rescaled_final/0499_rv.mp4	0.0	232.49217796325684	
47	211.3155219554901	movie	1		245	45.0	2.5	/experiments/AOT/AOT_stimuli/rescaled_final/0499_rv.mp4	0.0	232.9086389541626	2.4998838901519775
47	212.49910497665405	pulse	1	t		45.0	2.5	/experiments/AOT/AOT_stimuli/rescaled_final/0499_rv.mp4	0.0	234.09222197532654	
47	213.8154058456421	fix_post	2		12	45.0	2.5	/experiments/AOT/AOT_stimuli/rescaled_final/0499_rv.mp4	0.0	235.40852284431458	0.10007309913635254
48	213.91547894477844	fix_pre	0		120	46.0	2.5	/experiments/AOT/AOT_stimuli/rescaled_final/0967_rv.mp4	0.0	235.50859594345093	0.9999959468841553
48	214.0989968776703	pulse	0	t		46.0	2.5	/experiments/AOT/AOT_stimuli/rescaled_final/0967_rv.mp4	0.0	235.69211387634277	
48	214.9154748916626	movie	1		245	46.0	2.5	/experiments/AOT/AOT_stimuli/rescaled_final/0967_rv.mp4	0.0	236.50859189033508	2.500032901763916
48	215.6989507675171	pulse	1	t		46.0	2.5	/experiments/AOT/AOT_stimuli/rescaled_final/0967_rv.mp4	0.0	237.29206776618958	
48	217.2984709739685	pulse	1	t		46.0	2.5	/experiments/AOT/AOT_stimuli/rescaled_final/0967_rv.mp4	0.0	238.891587972641	
48	217.4155077934265	fix_post	2		12	46.0	2.5	/experiments/AOT/AOT_stimuli/rescaled_final/0967_rv.mp4	0.0	239.008624792099	0.09994697570800781
49	217.51545476913452	fix_pre	0		120	47.0	2.5	/experiments/AOT/AOT_stimuli/rescaled_final/1470_fw.mp4	0.0	239.108571767807	1.0000030994415283
49	218.51545786857605	movie	1		244	47.0	2.5	/experiments/AOT/AOT_stimuli/rescaled_final/1470_fw.mp4	0.0	240.10857486724854	2.4999639987945557
49	218.898756980896	pulse	1	t		47.0	2.5	/experiments/AOT/AOT_stimuli/rescaled_final/1470_fw.mp4	0.0	240.49187397956848	
49	220.49899077415466	pulse	1	t		47.0	2.5	/experiments/AOT/AOT_stimuli/rescaled_final/1470_fw.mp4	0.0	242.09210777282715	
49	221.0154218673706	fix_post	2		12	47.0	2.5	/experiments/AOT/AOT_stimuli/rescaled_final/1470_fw.mp4	0.0	242.6085388660431	0.10007190704345703
50	221.11549377441406	fix_pre	0		119	48.0	2.5	/experiments/AOT/AOT_stimuli/rescaled_final/0730_fw.mp4	0.0	242.70861077308655	0.9917051792144775
50	222.09902691841125	pulse	0	t		48.0	2.5	/experiments/AOT/AOT_stimuli/rescaled_final/0730_fw.mp4	0.0	243.69214391708374	
50	222.10719895362854	movie	1		245	48.0	2.5	/experiments/AOT/AOT_stimuli/rescaled_final/0730_fw.mp4	0.0	243.70031595230103	2.507805824279785
50	223.6984839439392	pulse	1	t		48.0	2.5	/experiments/AOT/AOT_stimuli/rescaled_final/0730_fw.mp4	0.0	245.2916009426117	
50	224.61500477790833	fix_post	2		12	48.0	2.5	/experiments/AOT/AOT_stimuli/rescaled_final/0730_fw.mp4	0.0	246.2081217765808	0.10049200057983398
51	224.71549677848816	fix_pre	0		120	49.0	2.5	blank	1.0	246.30861377716064	0.9999279975891113
51	225.29893898963928	pulse	0	t		49.0	2.5	blank	1.0	246.89205598831177	
51	225.71542477607727	movie	1		300	49.0	2.5	blank	1.0	247.30854177474976	2.4998340606689453
51	226.89842200279236	pulse	1	t		49.0	2.5	blank	1.0	248.49153900146484	
51	228.21525883674622	fix_post	2		12	49.0	2.5	blank	1.0	249.8083758354187	0.09990715980529785
52	228.3151659965515	fix_pre	0		120	50.0	2.5	/experiments/AOT/AOT_stimuli/rescaled_final/1837_rv.mp4	0.0	249.908282995224	1.0005347728729248
52	228.49906396865845	pulse	0	t		50.0	2.5	/experiments/AOT/AOT_stimuli/rescaled_final/1837_rv.mp4	0.0	250.09218096733093	
52	229.31570076942444	movie	1		244	50.0	2.5	/experiments/AOT/AOT_stimuli/rescaled_final/1837_rv.mp4	0.0	250.90881776809692	2.499697208404541
52	230.09881591796875	pulse	1	t		50.0	2.5	/experiments/AOT/AOT_stimuli/rescaled_final/1837_rv.mp4	0.0	251.69193291664124	
52	231.6971559524536	pulse	1	t		50.0	2.5	/experiments/AOT/AOT_stimuli/rescaled_final/1837_rv.mp4	0.0	253.2902729511261	
52	231.81539797782898	fix_post	2		12	50.0	2.5	/experiments/AOT/AOT_stimuli/rescaled_final/1837_rv.mp4	0.0	253.40851497650146	0.10007596015930176
53	231.91547393798828	fix_pre	0		120	51.0	2.5	/experiments/AOT/AOT_stimuli/rescaled_final/0025_rv.mp4	0.0	253.50859093666077	0.999945878982544
53	232.91541981697083	movie	1		245	51.0	2.5	/experiments/AOT/AOT_stimuli/rescaled_final/0025_rv.mp4	0.0	254.5085368156433	2.4999091625213623
53	233.29848790168762	pulse	1	t		51.0	2.5	/experiments/AOT/AOT_stimuli/rescaled_final/0025_rv.mp4	0.0	254.8916049003601	
53	234.89888286590576	pulse	1	t		51.0	2.5	/experiments/AOT/AOT_stimuli/rescaled_final/0025_rv.mp4	0.0	256.49199986457825	
53	235.4153289794922	fix_post	2		12	51.0	2.5	/experiments/AOT/AOT_stimuli/rescaled_final/0025_rv.mp4	0.0	257.0084459781647	0.10000300407409668
54	235.51533198356628	fix_pre	0		119	52.0	2.5	/experiments/AOT/AOT_stimuli/rescaled_final/1408_fw.mp4	0.0	257.10844898223877	0.9917399883270264
54	236.49882078170776	pulse	0	t		52.0	2.5	/experiments/AOT/AOT_stimuli/rescaled_final/1408_fw.mp4	0.0	258.09193778038025	
54	236.5070719718933	movie	1		245	52.0	2.5	/experiments/AOT/AOT_stimuli/rescaled_final/1408_fw.mp4	0.0	258.1001889705658	2.508246898651123
54	238.09819889068604	pulse	1	t		52.0	2.5	/experiments/AOT/AOT_stimuli/rescaled_final/1408_fw.mp4	0.0	259.6913158893585	
54	239.01531887054443	fix_post	2		12	52.0	2.5	/experiments/AOT/AOT_stimuli/rescaled_final/1408_fw.mp4	0.0	260.6084358692169	0.10005402565002441
55	239.11537289619446	fix_pre	0		120	53.0	2.5	/experiments/AOT/AOT_stimuli/rescaled_final/1583_rv.mp4	0.0	260.70848989486694	0.9999918937683105
55	239.69891691207886	pulse	0	t		53.0	2.5	/experiments/AOT/AOT_stimuli/rescaled_final/1583_rv.mp4	0.0	261.29203391075134	
55	240.11536478996277	movie	1		244	53.0	2.5	/experiments/AOT/AOT_stimuli/rescaled_final/1583_rv.mp4	0.0	261.70848178863525	2.499925136566162
55	241.29891300201416	pulse	1	t		53.0	2.5	/experiments/AOT/AOT_stimuli/rescaled_final/1583_rv.mp4	0.0	262.89203000068665	
55	242.61528992652893	fix_post	2		12	53.0	2.5	/experiments/AOT/AOT_stimuli/rescaled_final/1583_rv.mp4	0.0	264.2084069252014	0.10001301765441895
56	242.71530294418335	fix_pre	0		120	54.0	2.5	blank	1.0	264.30841994285583	0.9999969005584717
56	242.89883399009705	pulse	0	t		54.0	2.5	blank	1.0	264.49195098876953	
56	243.71529984474182	movie	1		300	54.0	2.5	blank	1.0	265.3084168434143	2.5000829696655273
56	244.4988157749176	pulse	1	t		54.0	2.5	blank	1.0	266.0919327735901	
56	246.09876489639282	pulse	1	t		54.0	2.5	blank	1.0	267.6918818950653	
56	246.21538281440735	fix_post	2		12	54.0	2.5	blank	1.0	267.80849981307983	0.09993600845336914
57	246.31531882286072	fix_pre	0		120	55.0	2.5	/experiments/AOT/AOT_stimuli/rescaled_final/1384_fw.mp4	0.0	267.9084358215332	1.0000369548797607
57	247.31535577774048	movie	1		243	55.0	2.5	/experiments/AOT/AOT_stimuli/rescaled_final/1384_fw.mp4	0.0	268.90847277641296	2.5000481605529785
57	247.69861388206482	pulse	1	t		55.0	2.5	/experiments/AOT/AOT_stimuli/rescaled_final/1384_fw.mp4	0.0	269.2917308807373	
57	249.29883885383606	pulse	1	t		55.0	2.5	/experiments/AOT/AOT_stimuli/rescaled_final/1384_fw.mp4	0.0	270.89195585250854	
57	249.81540393829346	fix_post	2		12	55.0	2.5	/experiments/AOT/AOT_stimuli/rescaled_final/1384_fw.mp4	0.0	271.40852093696594	0.09996485710144043
58	249.9153687953949	fix_pre	0		119	56.0	2.5	/experiments/AOT/AOT_stimuli/rescaled_final/0517_rv.mp4	0.0	271.5084857940674	0.9915850162506104
58	250.8989429473877	pulse	0	t		56.0	2.5	/experiments/AOT/AOT_stimuli/rescaled_final/0517_rv.mp4	0.0	272.4920599460602	
58	250.9069538116455	movie	1		245	56.0	2.5	/experiments/AOT/AOT_stimuli/rescaled_final/0517_rv.mp4	0.0	272.500070810318	2.508345127105713
58	252.49915885925293	pulse	1	t		56.0	2.5	/experiments/AOT/AOT_stimuli/rescaled_final/0517_rv.mp4	0.0	274.0922758579254	
58	253.41529893875122	fix_post	2		12	56.0	2.5	/experiments/AOT/AOT_stimuli/rescaled_final/0517_rv.mp4	0.0	275.0084159374237	0.1001729965209961
59	253.51547193527222	fix_pre	0		120	57.0	2.5	/experiments/AOT/AOT_stimuli/rescaled_final/1190_rv.mp4	0.0	275.1085889339447	0.9998948574066162
59	254.0987958908081	pulse	0	t		57.0	2.5	/experiments/AOT/AOT_stimuli/rescaled_final/1190_rv.mp4	0.0	275.6919128894806	
59	254.51536679267883	movie	1		243	57.0	2.5	/experiments/AOT/AOT_stimuli/rescaled_final/1190_rv.mp4	0.0	276.1084837913513	2.4994781017303467
59	255.69892597198486	pulse	1	t		57.0	2.5	/experiments/AOT/AOT_stimuli/rescaled_final/1190_rv.mp4	0.0	277.29204297065735	
59	257.0148448944092	fix_post	2		12	57.0	2.5	/experiments/AOT/AOT_stimuli/rescaled_final/1190_rv.mp4	0.0	278.60796189308167	0.10039901733398438
60	257.11524391174316	fix_pre	0		120	58.0	2.5	/experiments/AOT/AOT_stimuli/rescaled_final/0173_fw.mp4	0.0	278.70836091041565	1.0000269412994385
60	257.2987308502197	pulse	0	t		58.0	2.5	/experiments/AOT/AOT_stimuli/rescaled_final/0173_fw.mp4	0.0	278.8918478488922	
60	258.1152708530426	movie	1		245	58.0	2.5	/experiments/AOT/AOT_stimuli/rescaled_final/0173_fw.mp4	0.0	279.7083878517151	2.499990940093994
60	258.89884781837463	pulse	1	t		58.0	2.5	/experiments/AOT/AOT_stimuli/rescaled_final/0173_fw.mp4	0.0	280.4919648170471	
60	260.4987139701843	pulse	1	t		58.0	2.5	/experiments/AOT/AOT_stimuli/rescaled_final/0173_fw.mp4	0.0	282.0918309688568	
60	260.6152617931366	fix_post	2		12	58.0	2.5	/experiments/AOT/AOT_stimuli/rescaled_final/0173_fw.mp4	0.0	282.2083787918091	0.09995198249816895
61	260.71521377563477	fix_pre	0		120	59.0	2.5	/experiments/AOT/AOT_stimuli/rescaled_final/1813_rv.mp4	0.0	282.30833077430725	0.9999761581420898
61	261.71518993377686	movie	1		243	59.0	2.5	/experiments/AOT/AOT_stimuli/rescaled_final/1813_rv.mp4	0.0	283.30830693244934	2.499640941619873
61	262.10021781921387	pulse	1	t		59.0	2.5	/experiments/AOT/AOT_stimuli/rescaled_final/1813_rv.mp4	0.0	283.69333481788635	
61	263.69870591163635	pulse	1	t		59.0	2.5	/experiments/AOT/AOT_stimuli/rescaled_final/1813_rv.mp4	0.0	285.29182291030884	
61	264.21483087539673	fix_post	2		12	59.0	2.5	/experiments/AOT/AOT_stimuli/rescaled_final/1813_rv.mp4	0.0	285.8079478740692	0.1004340648651123
62	264.31526494026184	fix_pre	0		119	60.0	2.5	/experiments/AOT/AOT_stimuli/rescaled_final/0905_fw.mp4	0.0	285.9083819389343	0.9915909767150879
62	265.2986328601837	pulse	0	t		60.0	2.5	/experiments/AOT/AOT_stimuli/rescaled_final/0905_fw.mp4	0.0	286.8917498588562	
62	265.30685591697693	movie	1		249	60.0	2.5	/experiments/AOT/AOT_stimuli/rescaled_final/0905_fw.mp4	0.0	286.8999729156494	2.508375883102417
62	266.8984088897705	pulse	1	t		60.0	2.5	/experiments/AOT/AOT_stimuli/rescaled_final/0905_fw.mp4	0.0	288.491525888443	
62	267.81523180007935	fix_post	2		12	60.0	2.5	/experiments/AOT/AOT_stimuli/rescaled_final/0905_fw.mp4	0.0	289.40834879875183	0.10002803802490234
63	267.91525983810425	fix_pre	0		120	61.0	2.5	/experiments/AOT/AOT_stimuli/rescaled_final/0130_rv.mp4	0.0	289.50837683677673	1.0000629425048828
63	268.4989140033722	pulse	0	t		61.0	2.5	/experiments/AOT/AOT_stimuli/rescaled_final/0130_rv.mp4	0.0	290.0920310020447	
63	268.91532278060913	movie	1		245	61.0	2.5	/experiments/AOT/AOT_stimuli/rescaled_final/0130_rv.mp4	0.0	290.5084397792816	2.4998550415039062
63	270.09879994392395	pulse	1	t		61.0	2.5	/experiments/AOT/AOT_stimuli/rescaled_final/0130_rv.mp4	0.0	291.69191694259644	
63	271.41517782211304	fix_post	2		12	61.0	2.5	/experiments/AOT/AOT_stimuli/rescaled_final/0130_rv.mp4	0.0	293.0082948207855	0.10005903244018555
64	271.5152368545532	fix_pre	0		120	62.0	2.5	blank	1.0	293.1083538532257	0.999953031539917
64	271.69873094558716	pulse	0	t		62.0	2.5	blank	1.0	293.29184794425964	
64	272.51518988609314	movie	1		300	62.0	2.5	blank	1.0	294.1083068847656	2.500027894973755
64	273.2987298965454	pulse	1	t		62.0	2.5	blank	1.0	294.8918468952179	
64	274.8986749649048	pulse	1	t		62.0	2.5	blank	1.0	296.49179196357727	
64	275.0152177810669	fix_post	2		12	62.0	2.5	blank	1.0	296.6083347797394	0.09994912147521973
65	275.1151669025421	fix_pre	0		120	63.0	2.5	/experiments/AOT/AOT_stimuli/rescaled_final/0750_fw.mp4	0.0	296.7082839012146	1.0000479221343994
65	276.1152148246765	movie	1		243	63.0	2.5	/experiments/AOT/AOT_stimuli/rescaled_final/0750_fw.mp4	0.0	297.708331823349	2.499972105026245
65	276.49883580207825	pulse	1	t		63.0	2.5	/experiments/AOT/AOT_stimuli/rescaled_final/0750_fw.mp4	0.0	298.09195280075073	
65	278.09868597984314	pulse	1	t		63.0	2.5	/experiments/AOT/AOT_stimuli/rescaled_final/0750_fw.mp4	0.0	299.6918029785156	
65	278.61518692970276	fix_post	2		12	63.0	2.5	/experiments/AOT/AOT_stimuli/rescaled_final/0750_fw.mp4	0.0	300.20830392837524	0.09997987747192383
66	278.7151668071747	fix_pre	0		119	64.0	2.5	/experiments/AOT/AOT_stimuli/rescaled_final/2068_fw.mp4	0.0	300.30828380584717	0.9917399883270264
66	279.69882583618164	pulse	0	t		64.0	2.5	/experiments/AOT/AOT_stimuli/rescaled_final/2068_fw.mp4	0.0	301.2919428348541	
66	279.7069067955017	movie	1		245	64.0	2.5	/experiments/AOT/AOT_stimuli/rescaled_final/2068_fw.mp4	0.0	301.3000237941742	2.508305072784424
66	281.29841589927673	pulse	1	t		64.0	2.5	/experiments/AOT/AOT_stimuli/rescaled_final/2068_fw.mp4	0.0	302.8915328979492	
66	282.21521186828613	fix_post	2		12	64.0	2.5	/experiments/AOT/AOT_stimuli/rescaled_final/2068_fw.mp4	0.0	303.8083288669586	0.09995698928833008
67	282.31516885757446	fix_pre	0		120	65.0	2.5	/experiments/AOT/AOT_stimuli/rescaled_final/1162_fw.mp4	0.0	303.90828585624695	0.9996531009674072
67	282.8986167907715	pulse	0	t		65.0	2.5	/experiments/AOT/AOT_stimuli/rescaled_final/1162_fw.mp4	0.0	304.49173378944397	
67	283.31482195854187	movie	1		244	65.0	2.5	/experiments/AOT/AOT_stimuli/rescaled_final/1162_fw.mp4	0.0	304.90793895721436	2.500300884246826
67	284.49851179122925	pulse	1	t		65.0	2.5	/experiments/AOT/AOT_stimuli/rescaled_final/1162_fw.mp4	0.0	306.09162878990173	
67	285.8151228427887	fix_post	2		12	65.0	2.5	/experiments/AOT/AOT_stimuli/rescaled_final/1162_fw.mp4	0.0	307.4082398414612	0.09996199607849121
68	285.9150848388672	fix_pre	0		120	66.0	2.5	/experiments/AOT/AOT_stimuli/rescaled_final/0822_rv.mp4	0.0	307.5082018375397	1.0000851154327393
68	286.0986359119415	pulse	0	t		66.0	2.5	/experiments/AOT/AOT_stimuli/rescaled_final/0822_rv.mp4	0.0	307.691752910614	
68	286.9151699542999	movie	1		247	66.0	2.5	/experiments/AOT/AOT_stimuli/rescaled_final/0822_rv.mp4	0.0	308.5082869529724	2.4999468326568604
68	287.69859886169434	pulse	1	t		66.0	2.5	/experiments/AOT/AOT_stimuli/rescaled_final/0822_rv.mp4	0.0	309.2917158603668	
68	289.29693388938904	pulse	1	t		66.0	2.5	/experiments/AOT/AOT_stimuli/rescaled_final/0822_rv.mp4	0.0	310.8900508880615	
68	289.4151167869568	fix_post	2		12	66.0	2.5	/experiments/AOT/AOT_stimuli/rescaled_final/0822_rv.mp4	0.0	311.0082337856293	0.10004401206970215
69	289.5151607990265	fix_pre	0		120	67.0	2.5	/experiments/AOT/AOT_stimuli/rescaled_final/1260_rv.mp4	0.0	311.108277797699	0.9995591640472412
69	290.51471996307373	movie	1		247	67.0	2.5	/experiments/AOT/AOT_stimuli/rescaled_final/1260_rv.mp4	0.0	312.1078369617462	2.4999430179595947
69	290.89829683303833	pulse	1	t		67.0	2.5	/experiments/AOT/AOT_stimuli/rescaled_final/1260_rv.mp4	0.0	312.4914138317108	
69	292.4985008239746	pulse	1	t		67.0	2.5	/experiments/AOT/AOT_stimuli/rescaled_final/1260_rv.mp4	0.0	314.0916178226471	
69	293.0146629810333	fix_post	2		12	67.0	2.5	/experiments/AOT/AOT_stimuli/rescaled_final/1260_rv.mp4	0.0	314.6077799797058	0.10037088394165039
70	293.115033864975	fix_pre	0		119	68.0	2.5	blank	1.0	314.70815086364746	0.9917240142822266
70	294.0985369682312	pulse	0	t		68.0	2.5	blank	1.0	315.6916539669037	
70	294.1067578792572	movie	1		301	68.0	2.5	blank	1.0	315.6998748779297	2.508331060409546
70	295.6985139846802	pulse	1	t		68.0	2.5	blank	1.0	317.29163098335266	
70	296.61508893966675	fix_post	2		12	68.0	2.5	blank	1.0	318.20820593833923	0.0999610424041748
71	296.7150499820709	fix_pre	0		120	69.0	2.5	/experiments/AOT/AOT_stimuli/rescaled_final/1521_rv.mp4	0.0	318.3081669807434	0.9999608993530273
71	297.29852080345154	pulse	0	t		69.0	2.5	/experiments/AOT/AOT_stimuli/rescaled_final/1521_rv.mp4	0.0	318.891637802124	
71	297.71501088142395	movie	1		245	69.0	2.5	/experiments/AOT/AOT_stimuli/rescaled_final/1521_rv.mp4	0.0	319.30812788009644	2.500088930130005
71	298.8985757827759	pulse	1	t		69.0	2.5	/experiments/AOT/AOT_stimuli/rescaled_final/1521_rv.mp4	0.0	320.49169278144836	
71	300.21509981155396	fix_post	2		12	69.0	2.5	/experiments/AOT/AOT_stimuli/rescaled_final/1521_rv.mp4	0.0	321.80821681022644	0.09995913505554199
72	300.3150589466095	fix_pre	0		120	70.0	2.5	/experiments/AOT/AOT_stimuli/rescaled_final/0186_fw.mp4	0.0	321.908175945282	1.0000560283660889
72	300.49856400489807	pulse	0	t		70.0	2.5	/experiments/AOT/AOT_stimuli/rescaled_final/0186_fw.mp4	0.0	322.09168100357056	
72	301.3151149749756	movie	1		243	70.0	2.5	/experiments/AOT/AOT_stimuli/rescaled_final/0186_fw.mp4	0.0	322.90823197364807	2.4998979568481445
72	302.0985219478607	pulse	1	t		70.0	2.5	/experiments/AOT/AOT_stimuli/rescaled_final/0186_fw.mp4	0.0	323.6916389465332	
72	303.69709181785583	pulse	1	t		70.0	2.5	/experiments/AOT/AOT_stimuli/rescaled_final/0186_fw.mp4	0.0	325.2902088165283	
72	303.81501293182373	fix_post	2		12	70.0	2.5	/experiments/AOT/AOT_stimuli/rescaled_final/0186_fw.mp4	0.0	325.4081299304962	0.10003995895385742
73	303.9150528907776	fix_pre	0		120	71.0	2.5	/experiments/AOT/AOT_stimuli/rescaled_final/1830_fw.mp4	0.0	325.5081698894501	0.9995660781860352
73	304.9146189689636	movie	1		244	71.0	2.5	/experiments/AOT/AOT_stimuli/rescaled_final/1830_fw.mp4	0.0	326.5077359676361	2.500377893447876
73	305.2978889942169	pulse	1	t		71.0	2.5	/experiments/AOT/AOT_stimuli/rescaled_final/1830_fw.mp4	0.0	326.8910059928894	
73	306.89855790138245	pulse	1	t		71.0	2.5	/experiments/AOT/AOT_stimuli/rescaled_final/1830_fw.mp4	0.0	328.49167490005493	
73	307.4149968624115	fix_post	2		12	71.0	2.5	/experiments/AOT/AOT_stimuli/rescaled_final/1830_fw.mp4	0.0	329.008113861084	0.10003900527954102
74	307.51503586769104	fix_pre	0		119	72.0	2.5	/experiments/AOT/AOT_stimuli/rescaled_final/0703_rv.mp4	0.0	329.1081528663635	0.9915609359741211
74	308.49852895736694	pulse	0	t		72.0	2.5	/experiments/AOT/AOT_stimuli/rescaled_final/0703_rv.mp4	0.0	330.09164595603943	
74	308.50659680366516	movie	1		247	72.0	2.5	/experiments/AOT/AOT_stimuli/rescaled_final/0703_rv.mp4	0.0	330.09971380233765	2.508476972579956
74	310.0995488166809	pulse	1	t		72.0	2.5	/experiments/AOT/AOT_stimuli/rescaled_final/0703_rv.mp4	0.0	331.6926658153534	
74	311.0150737762451	fix_post	2		12	72.0	2.5	/experiments/AOT/AOT_stimuli/rescaled_final/0703_rv.mp4	0.0	332.6081907749176	0.09986710548400879
75	311.1149408817291	fix_pre	0		120	73.0	2.5	/experiments/AOT/AOT_stimuli/rescaled_final/1219_rv.mp4	0.0	332.7080578804016	1.000072956085205
75	311.69852900505066	pulse	0	t		73.0	2.5	/experiments/AOT/AOT_stimuli/rescaled_final/1219_rv.mp4	0.0	333.29164600372314	
75	312.11501383781433	movie	1		246	73.0	2.5	/experiments/AOT/AOT_stimuli/rescaled_final/1219_rv.mp4	0.0	333.7081308364868	2.5000481605529785
75	313.2984969615936	pulse	1	t		73.0	2.5	/experiments/AOT/AOT_stimuli/rescaled_final/1219_rv.mp4	0.0	334.8916139602661	
75	314.6150619983673	fix_post	2		12	73.0	2.5	/experiments/AOT/AOT_stimuli/rescaled_final/1219_rv.mp4	0.0	336.2081789970398	0.09995388984680176
76	314.7150158882141	fix_pre	0		120	74.0	2.5	/experiments/AOT/AOT_stimuli/rescaled_final/0700_rv.mp4	0.0	336.3081328868866	0.9999220371246338
76	314.8984398841858	pulse	0	t		74.0	2.5	/experiments/AOT/AOT_stimuli/rescaled_final/0700_rv.mp4	0.0	336.4915568828583	
76	315.71493792533875	movie	1		244	74.0	2.5	/experiments/AOT/AOT_stimuli/rescaled_final/0700_rv.mp4	0.0	337.30805492401123	2.4996118545532227
76	316.49846386909485	pulse	1	t		74.0	2.5	/experiments/AOT/AOT_stimuli/rescaled_final/0700_rv.mp4	0.0	338.09158086776733	
76	318.09705877304077	pulse	1	t		74.0	2.5	/experiments/AOT/AOT_stimuli/rescaled_final/0700_rv.mp4	0.0	339.69017577171326	
76	318.21454977989197	fix_post	2		12	74.0	2.5	/experiments/AOT/AOT_stimuli/rescaled_final/0700_rv.mp4	0.0	339.80766677856445	0.1005091667175293
77	318.3150589466095	fix_pre	0		120	75.0	2.5	/experiments/AOT/AOT_stimuli/rescaled_final/1555_fw.mp4	0.0	339.908175945282	0.9998419284820557
77	319.31490087509155	movie	1		246	75.0	2.5	/experiments/AOT/AOT_stimuli/rescaled_final/1555_fw.mp4	0.0	340.90801787376404	2.4999969005584717
77	319.6981108188629	pulse	1	t		75.0	2.5	/experiments/AOT/AOT_stimuli/rescaled_final/1555_fw.mp4	0.0	341.2912278175354	
77	321.29845690727234	pulse	1	t		75.0	2.5	/experiments/AOT/AOT_stimuli/rescaled_final/1555_fw.mp4	0.0	342.8915739059448	
77	321.81489777565	fix_post	2		12	75.0	2.5	/experiments/AOT/AOT_stimuli/rescaled_final/1555_fw.mp4	0.0	343.4080147743225	0.10007500648498535
78	321.914972782135	fix_pre	0		119	76.0	2.5	blank	1.0	343.5080897808075	0.9915862083435059
78	322.89849281311035	pulse	0	t		76.0	2.5	blank	1.0	344.49160981178284	
78	322.9065589904785	movie	1		301	76.0	2.5	blank	1.0	344.499675989151	2.508389949798584
78	324.49843883514404	pulse	1	t		76.0	2.5	blank	1.0	346.0915558338165	
78	325.4149489402771	fix_post	2		12	76.0	2.5	blank	1.0	347.0080659389496	0.0999448299407959
79	325.5148937702179	fix_pre	0		120	77.0	2.5	/experiments/AOT/AOT_stimuli/rescaled_final/0685_fw.mp4	0.0	347.1080107688904	1.000108003616333
79	326.0984568595886	pulse	0	t		77.0	2.5	/experiments/AOT/AOT_stimuli/rescaled_final/0685_fw.mp4	0.0	347.6915738582611	
79	326.51500177383423	movie	1		244	77.0	2.5	/experiments/AOT/AOT_stimuli/rescaled_final/0685_fw.mp4	0.0	348.1081187725067	2.499939203262329
79	327.6985158920288	pulse	1	t		77.0	2.5	/experiments/AOT/AOT_stimuli/rescaled_final/0685_fw.mp4	0.0	349.2916328907013	
79	329.01494097709656	fix_post	2		12	77.0	2.5	/experiments/AOT/AOT_stimuli/rescaled_final/0685_fw.mp4	0.0	350.60805797576904	0.09999990463256836
80	329.1149408817291	fix_pre	0		120	78.0	2.5	/experiments/AOT/AOT_stimuli/rescaled_final/1722_rv.mp4	0.0	350.7080578804016	0.9999289512634277
80	329.2984459400177	pulse	0	t		78.0	2.5	/experiments/AOT/AOT_stimuli/rescaled_final/1722_rv.mp4	0.0	350.8915629386902	
80	330.11486983299255	movie	1		243	78.0	2.5	/experiments/AOT/AOT_stimuli/rescaled_final/1722_rv.mp4	0.0	351.70798683166504	2.500056028366089
80	330.8984649181366	pulse	1	t		78.0	2.5	/experiments/AOT/AOT_stimuli/rescaled_final/1722_rv.mp4	0.0	352.4915819168091	
80	332.4966359138489	pulse	1	t		78.0	2.5	/experiments/AOT/AOT_stimuli/rescaled_final/1722_rv.mp4	0.0	354.08975291252136	
80	332.61492586135864	fix_post	2		12	78.0	2.5	/experiments/AOT/AOT_stimuli/rescaled_final/1722_rv.mp4	0.0	354.2080428600311	0.09993195533752441
81	332.71485781669617	fix_pre	0		120	79.0	2.5	/experiments/AOT/AOT_stimuli/rescaled_final/0396_rv.mp4	0.0	354.30797481536865	1.0000369548797607
81	333.7148947715759	movie	1		244	79.0	2.5	/experiments/AOT/AOT_stimuli/rescaled_final/0396_rv.mp4	0.0	355.3080117702484	2.4999470710754395
81	334.0993797779083	pulse	1	t		79.0	2.5	/experiments/AOT/AOT_stimuli/rescaled_final/0396_rv.mp4	0.0	355.6924967765808	
81	335.6984169483185	pulse	1	t		79.0	2.5	/experiments/AOT/AOT_stimuli/rescaled_final/0396_rv.mp4	0.0	357.29153394699097	
81	336.21484184265137	fix_post	2		12	79.0	2.5	/experiments/AOT/AOT_stimuli/rescaled_final/0396_rv.mp4	0.0	357.80795884132385	0.1000521183013916
82	336.31489396095276	fix_pre	0		119	80.0	2.5	/experiments/AOT/AOT_stimuli/rescaled_final/0327_rv.mp4	0.0	357.90801095962524	0.9917089939117432
82	337.2985129356384	pulse	0	t		80.0	2.5	/experiments/AOT/AOT_stimuli/rescaled_final/0327_rv.mp4	0.0	358.8916299343109	
82	337.3066029548645	movie	1		248	80.0	2.5	/experiments/AOT/AOT_stimuli/rescaled_final/0327_rv.mp4	0.0	358.899719953537	2.508028984069824
82	338.8974349498749	pulse	1	t		80.0	2.5	/experiments/AOT/AOT_stimuli/rescaled_final/0327_rv.mp4	0.0	360.49055194854736	
82	339.8146319389343	fix_post	2		12	80.0	2.5	/experiments/AOT/AOT_stimuli/rescaled_final/0327_rv.mp4	0.0	361.4077489376068	0.10042786598205566
83	339.9150598049164	fix_pre	0		120	81.0	2.5	/experiments/AOT/AOT_stimuli/rescaled_final/0904_rv.mp4	0.0	361.50817680358887	1.000082015991211
83	340.4986379146576	pulse	0	t		81.0	2.5	/experiments/AOT/AOT_stimuli/rescaled_final/0904_rv.mp4	0.0	362.0917549133301	
83	340.9151418209076	movie	1		244	81.0	2.5	/experiments/AOT/AOT_stimuli/rescaled_final/0904_rv.mp4	0.0	362.5082588195801	2.49924898147583
83	342.0983908176422	pulse	1	t		81.0	2.5	/experiments/AOT/AOT_stimuli/rescaled_final/0904_rv.mp4	0.0	363.6915078163147	
83	343.4143908023834	fix_post	2		12	81.0	2.5	/experiments/AOT/AOT_stimuli/rescaled_final/0904_rv.mp4	0.0	365.0075078010559	0.10046911239624023
84	343.51485991477966	fix_pre	0		120	82.0	2.5	blank	1.0	365.10797691345215	1.0000290870666504
84	343.69836378097534	pulse	0	t		82.0	2.5	blank	1.0	365.2914807796478	
84	344.5148890018463	movie	1		300	82.0	2.5	blank	1.0	366.1080060005188	2.4999208450317383
84	345.29829478263855	pulse	1	t		82.0	2.5	blank	1.0	366.89141178131104	
84	346.8982799053192	pulse	1	t		82.0	2.5	blank	1.0	368.4913969039917	
84	347.01480984687805	fix_post	2		12	82.0	2.5	blank	1.0	368.60792684555054	0.10001897811889648
85	347.11482882499695	fix_pre	0		120	83.0	2.5	/experiments/AOT/AOT_stimuli/rescaled_final/2042_fw.mp4	0.0	368.70794582366943	1.0000340938568115
85	348.11486291885376	movie	1		246	83.0	2.5	/experiments/AOT/AOT_stimuli/rescaled_final/2042_fw.mp4	0.0	369.70797991752625	2.500011920928955
85	348.49798798561096	pulse	1	t		83.0	2.5	/experiments/AOT/AOT_stimuli/rescaled_final/2042_fw.mp4	0.0	370.09110498428345	
85	350.09821486473083	pulse	1	t		83.0	2.5	/experiments/AOT/AOT_stimuli/rescaled_final/2042_fw.mp4	0.0	371.6913318634033	
85	350.6148748397827	fix_post	2		12	83.0	2.5	/experiments/AOT/AOT_stimuli/rescaled_final/2042_fw.mp4	0.0	372.2079918384552	0.09992003440856934
87	350.7147948741913	stim	0		1716					372.30791187286377	14.300004959106445
87	351.6982469558716	pulse	0	t						373.29136395454407	
87	353.2982258796692	pulse	0	t						374.8913428783417	
87	354.89825987815857	pulse	0	t						376.49137687683105	
87	356.4982988834381	pulse	0	t						378.0914158821106	
87	358.09819078445435	pulse	0	t						379.69130778312683	
87	359.6983850002289	pulse	0	t						381.29150199890137	
87	361.2981479167938	pulse	0	t						382.8912649154663	
87	362.898236989975	pulse	0	t						384.49135398864746	
87	364.49821496009827	pulse	0	t						386.09133195877075	
