trial_nr	onset	event_type	phase	response	nr_frames	movie_index	movie_duration	movie_file	blank	onset_abs	duration
0	0.19983196258544922	stim	0		5					18.976940155029297	0.04166698455810547
0	0.23364686965942383	response	0	space						19.01075506210327	
1	0.2414989471435547	stim	0		4794					19.018607139587402	39.96772789955139
1	40.1941659450531	pulse	0	t						58.97127413749695	
1	40.209226846694946	stim	1		1715					58.986335039138794	14.298768997192383
1	41.789674043655396	pulse	1	t						60.56678223609924	
1	43.38977289199829	pulse	1	t						62.16688108444214	
1	44.99009704589844	pulse	1	t						63.767205238342285	
1	46.59025192260742	pulse	1	t						65.36736011505127	
1	48.190690994262695	pulse	1	t						66.96779918670654	
1	49.790719985961914	pulse	1	t						68.56782817840576	
1	51.3910129070282	pulse	1	t						70.16812109947205	
1	52.98376798629761	pulse	1	t						71.76087617874146	
2	54.50799584388733	fix_pre	0		11	0.0	2.5	/experiments/knapen_AOT/AOT_stimuli/rescaled_final/0382_fw.mp4	0.0	73.28510403633118	0.10847616195678711
2	54.58401584625244	pulse	0	t		0.0	2.5	/experiments/knapen_AOT/AOT_stimuli/rescaled_final/0382_fw.mp4	0.0	73.36112403869629	
2	54.616472005844116	movie	1		240	0.0	2.5	/experiments/knapen_AOT/AOT_stimuli/rescaled_final/0382_fw.mp4	0.0	73.39358019828796	2.492013931274414
2	56.1931848526001	pulse	1	t		0.0	2.5	/experiments/knapen_AOT/AOT_stimuli/rescaled_final/0382_fw.mp4	0.0	74.97029304504395	
2	57.10848593711853	fix_post	2		12	0.0	2.5	/experiments/knapen_AOT/AOT_stimuli/rescaled_final/0382_fw.mp4	0.0	75.88559412956238	0.09992098808288574
3	57.208406925201416	fix_pre	0		120	1.0	2.5	/experiments/knapen_AOT/AOT_stimuli/rescaled_final/2128_rv.mp4	0.0	75.98551511764526	1.0001280307769775
3	57.78451490402222	pulse	0	t		1.0	2.5	/experiments/knapen_AOT/AOT_stimuli/rescaled_final/2128_rv.mp4	0.0	76.56162309646606	
3	58.208534955978394	movie	1		243	1.0	2.5	/experiments/knapen_AOT/AOT_stimuli/rescaled_final/2128_rv.mp4	0.0	76.98564314842224	2.500498056411743
3	59.38442897796631	pulse	1	t		1.0	2.5	/experiments/knapen_AOT/AOT_stimuli/rescaled_final/2128_rv.mp4	0.0	78.16153717041016	
3	60.70903301239014	fix_post	2		12	1.0	2.5	/experiments/knapen_AOT/AOT_stimuli/rescaled_final/2128_rv.mp4	0.0	79.48614120483398	0.09992694854736328
4	60.8089599609375	fix_pre	0		120	2.0	2.5	/experiments/knapen_AOT/AOT_stimuli/rescaled_final/1011_rv.mp4	0.0	79.58606815338135	1.0001630783081055
4	60.984209060668945	pulse	0	t		2.0	2.5	/experiments/knapen_AOT/AOT_stimuli/rescaled_final/1011_rv.mp4	0.0	79.7613172531128	
4	61.809123039245605	movie	1		243	2.0	2.5	/experiments/knapen_AOT/AOT_stimuli/rescaled_final/1011_rv.mp4	0.0	80.58623123168945	2.5003859996795654
4	62.584287881851196	pulse	1	t		2.0	2.5	/experiments/knapen_AOT/AOT_stimuli/rescaled_final/1011_rv.mp4	0.0	81.36139607429504	
4	64.18456101417542	pulse	1	t		2.0	2.5	/experiments/knapen_AOT/AOT_stimuli/rescaled_final/1011_rv.mp4	0.0	82.96166920661926	
4	64.30950903892517	fix_post	2		12	2.0	2.5	/experiments/knapen_AOT/AOT_stimuli/rescaled_final/1011_rv.mp4	0.0	83.08661723136902	0.09997987747192383
5	64.4094889163971	fix_pre	0		119	3.0	2.5	/experiments/knapen_AOT/AOT_stimuli/rescaled_final/1909_rv.mp4	0.0	83.18659710884094	0.9917750358581543
5	65.40126395225525	movie	1		243	3.0	2.5	/experiments/knapen_AOT/AOT_stimuli/rescaled_final/1909_rv.mp4	0.0	84.1783721446991	2.500469923019409
5	65.78563594818115	pulse	1	t		3.0	2.5	/experiments/knapen_AOT/AOT_stimuli/rescaled_final/1909_rv.mp4	0.0	84.562744140625	
5	67.38519787788391	pulse	1	t		3.0	2.5	/experiments/knapen_AOT/AOT_stimuli/rescaled_final/1909_rv.mp4	0.0	86.16230607032776	
5	67.90173387527466	fix_post	2		12	3.0	2.5	/experiments/knapen_AOT/AOT_stimuli/rescaled_final/1909_rv.mp4	0.0	86.6788420677185	0.09991598129272461
6	68.00164985656738	fix_pre	0		119	4.0	2.5	/experiments/knapen_AOT/AOT_stimuli/rescaled_final/0431_rv.mp4	0.0	86.77875804901123	0.9918351173400879
6	68.98539805412292	pulse	0	t		4.0	2.5	/experiments/knapen_AOT/AOT_stimuli/rescaled_final/0431_rv.mp4	0.0	87.76250624656677	
6	68.99348497390747	movie	1		243	4.0	2.5	/experiments/knapen_AOT/AOT_stimuli/rescaled_final/0431_rv.mp4	0.0	87.77059316635132	2.508657932281494
6	70.5867428779602	pulse	1	t		4.0	2.5	/experiments/knapen_AOT/AOT_stimuli/rescaled_final/0431_rv.mp4	0.0	89.36385107040405	
6	71.50214290618896	fix_post	2		12	4.0	2.5	/experiments/knapen_AOT/AOT_stimuli/rescaled_final/0431_rv.mp4	0.0	90.27925109863281	0.10009908676147461
7	71.60224199295044	fix_pre	0		120	5.0	2.5	blank	1.0	90.37935018539429	1.0000839233398438
7	72.1857750415802	pulse	0	t		5.0	2.5	blank	1.0	90.96288323402405	
7	72.60232591629028	movie	1		300	5.0	2.5	blank	1.0	91.37943410873413	2.5003790855407715
7	73.78603887557983	pulse	1	t		5.0	2.5	blank	1.0	92.56314706802368	
7	75.10270500183105	fix_post	2		12	5.0	2.5	blank	1.0	93.8798131942749	0.1000070571899414
8	75.202712059021	fix_pre	0		120	6.0	2.5	/experiments/knapen_AOT/AOT_stimuli/rescaled_final/1719_rv.mp4	0.0	93.97982025146484	1.0002048015594482
8	75.38634204864502	pulse	0	t		6.0	2.5	/experiments/knapen_AOT/AOT_stimuli/rescaled_final/1719_rv.mp4	0.0	94.16345024108887	
8	76.20291686058044	movie	1		243	6.0	2.5	/experiments/knapen_AOT/AOT_stimuli/rescaled_final/1719_rv.mp4	0.0	94.98002505302429	2.5003011226654053
8	76.98657083511353	pulse	1	t		6.0	2.5	/experiments/knapen_AOT/AOT_stimuli/rescaled_final/1719_rv.mp4	0.0	95.76367902755737	
8	78.58674597740173	pulse	1	t		6.0	2.5	/experiments/knapen_AOT/AOT_stimuli/rescaled_final/1719_rv.mp4	0.0	97.36385416984558	
8	78.70321798324585	fix_post	2		12	6.0	2.5	/experiments/knapen_AOT/AOT_stimuli/rescaled_final/1719_rv.mp4	0.0	97.4803261756897	0.10009598731994629
9	78.8033139705658	fix_pre	0		120	7.0	2.5	/experiments/knapen_AOT/AOT_stimuli/rescaled_final/1608_rv.mp4	0.0	97.58042216300964	1.0001020431518555
9	79.80341601371765	movie	1		242	7.0	2.5	/experiments/knapen_AOT/AOT_stimuli/rescaled_final/1608_rv.mp4	0.0	98.5805242061615	2.4920499324798584
9	80.18745994567871	pulse	1	t		7.0	2.5	/experiments/knapen_AOT/AOT_stimuli/rescaled_final/1608_rv.mp4	0.0	98.96456813812256	
9	81.78731489181519	pulse	1	t		7.0	2.5	/experiments/knapen_AOT/AOT_stimuli/rescaled_final/1608_rv.mp4	0.0	100.56442308425903	
9	82.29546594619751	fix_post	2		12	7.0	2.5	/experiments/knapen_AOT/AOT_stimuli/rescaled_final/1608_rv.mp4	0.0	101.07257413864136	0.09998893737792969
10	82.39545488357544	fix_pre	0		120	8.0	2.5	/experiments/knapen_AOT/AOT_stimuli/rescaled_final/1131_fw.mp4	0.0	101.17256307601929	1.0001730918884277
10	83.38754391670227	pulse	0	t		8.0	2.5	/experiments/knapen_AOT/AOT_stimuli/rescaled_final/1131_fw.mp4	0.0	102.16465210914612	
10	83.39562797546387	movie	1		244	8.0	2.5	/experiments/knapen_AOT/AOT_stimuli/rescaled_final/1131_fw.mp4	0.0	102.17273616790771	2.508692979812622
10	84.98831605911255	pulse	1	t		8.0	2.5	/experiments/knapen_AOT/AOT_stimuli/rescaled_final/1131_fw.mp4	0.0	103.7654242515564	
10	85.90432095527649	fix_post	2		12	8.0	2.5	/experiments/knapen_AOT/AOT_stimuli/rescaled_final/1131_fw.mp4	0.0	104.68142914772034	0.10007596015930176
11	86.00439691543579	fix_pre	0		120	9.0	2.5	/experiments/knapen_AOT/AOT_stimuli/rescaled_final/1055_fw.mp4	0.0	104.78150510787964	1.000119924545288
11	86.58796906471252	pulse	0	t		9.0	2.5	/experiments/knapen_AOT/AOT_stimuli/rescaled_final/1055_fw.mp4	0.0	105.36507725715637	
11	87.00451683998108	movie	1		242	9.0	2.5	/experiments/knapen_AOT/AOT_stimuli/rescaled_final/1055_fw.mp4	0.0	105.78162503242493	2.5004940032958984
11	88.18832802772522	pulse	1	t		9.0	2.5	/experiments/knapen_AOT/AOT_stimuli/rescaled_final/1055_fw.mp4	0.0	106.96543622016907	
11	89.50501084327698	fix_post	2		12	9.0	2.5	/experiments/knapen_AOT/AOT_stimuli/rescaled_final/1055_fw.mp4	0.0	108.28211903572083	0.0998530387878418
12	89.60486388206482	fix_pre	0		120	10.0	2.5	/experiments/knapen_AOT/AOT_stimuli/rescaled_final/0640_fw.mp4	0.0	108.38197207450867	1.000209093093872
12	89.78851199150085	pulse	0	t		10.0	2.5	/experiments/knapen_AOT/AOT_stimuli/rescaled_final/0640_fw.mp4	0.0	108.5656201839447	
12	90.60507297515869	movie	1		242	10.0	2.5	/experiments/knapen_AOT/AOT_stimuli/rescaled_final/0640_fw.mp4	0.0	109.38218116760254	2.500509023666382
12	91.38873505592346	pulse	1	t		10.0	2.5	/experiments/knapen_AOT/AOT_stimuli/rescaled_final/0640_fw.mp4	0.0	110.16584324836731	
12	92.98893284797668	pulse	1	t		10.0	2.5	/experiments/knapen_AOT/AOT_stimuli/rescaled_final/0640_fw.mp4	0.0	111.76604104042053	
12	93.10558199882507	fix_post	2		12	10.0	2.5	/experiments/knapen_AOT/AOT_stimuli/rescaled_final/0640_fw.mp4	0.0	111.88269019126892	0.0998530387878418
13	93.20543503761292	fix_pre	0		120	11.0	2.5	/experiments/knapen_AOT/AOT_stimuli/rescaled_final/0382_rv.mp4	0.0	111.98254323005676	1.0001158714294434
13	94.20555090904236	movie	1		242	11.0	2.5	/experiments/knapen_AOT/AOT_stimuli/rescaled_final/0382_rv.mp4	0.0	112.9826591014862	2.4920740127563477
13	94.58959698677063	pulse	1	t		11.0	2.5	/experiments/knapen_AOT/AOT_stimuli/rescaled_final/0382_rv.mp4	0.0	113.36670517921448	
13	96.18949103355408	pulse	1	t		11.0	2.5	/experiments/knapen_AOT/AOT_stimuli/rescaled_final/0382_rv.mp4	0.0	114.96659922599792	
13	96.6976249217987	fix_post	2		12	11.0	2.5	/experiments/knapen_AOT/AOT_stimuli/rescaled_final/0382_rv.mp4	0.0	115.47473311424255	0.10000014305114746
14	96.79762506484985	fix_pre	0		120	12.0	2.5	/experiments/knapen_AOT/AOT_stimuli/rescaled_final/0692_fw.mp4	0.0	115.5747332572937	1.000180959701538
14	97.7896900177002	pulse	0	t		12.0	2.5	/experiments/knapen_AOT/AOT_stimuli/rescaled_final/0692_fw.mp4	0.0	116.56679821014404	
14	97.79780602455139	movie	1		242	12.0	2.5	/experiments/knapen_AOT/AOT_stimuli/rescaled_final/0692_fw.mp4	0.0	116.57491421699524	2.521937847137451
14	99.39057493209839	pulse	1	t		12.0	2.5	/experiments/knapen_AOT/AOT_stimuli/rescaled_final/0692_fw.mp4	0.0	118.16768312454224	
14	100.31974387168884	fix_post	2		10	12.0	2.5	/experiments/knapen_AOT/AOT_stimuli/rescaled_final/0692_fw.mp4	0.0	119.09685206413269	0.08675408363342285
15	100.40649795532227	fix_pre	0		120	13.0	2.5	blank	1.0	119.18360614776611	1.0001349449157715
15	100.99027585983276	pulse	0	t		13.0	2.5	blank	1.0	119.76738405227661	
15	101.40663290023804	movie	1		300	13.0	2.5	blank	1.0	120.18374109268188	2.500432014465332
15	102.59040904045105	pulse	1	t		13.0	2.5	blank	1.0	121.3675172328949	
15	103.90706491470337	fix_post	2		12	13.0	2.5	blank	1.0	122.68417310714722	0.10001897811889648
16	104.00708389282227	fix_pre	0		120	14.0	2.5	/experiments/knapen_AOT/AOT_stimuli/rescaled_final/0041_rv.mp4	0.0	122.78419208526611	1.0001051425933838
16	104.19063687324524	pulse	0	t		14.0	2.5	/experiments/knapen_AOT/AOT_stimuli/rescaled_final/0041_rv.mp4	0.0	122.96774506568909	
16	105.00718903541565	movie	1		244	14.0	2.5	/experiments/knapen_AOT/AOT_stimuli/rescaled_final/0041_rv.mp4	0.0	123.7842972278595	2.500363826751709
16	105.79078888893127	pulse	1	t		14.0	2.5	/experiments/knapen_AOT/AOT_stimuli/rescaled_final/0041_rv.mp4	0.0	124.56789708137512	
16	107.39098000526428	pulse	1	t		14.0	2.5	/experiments/knapen_AOT/AOT_stimuli/rescaled_final/0041_rv.mp4	0.0	126.16808819770813	
16	107.50755286216736	fix_post	2		12	14.0	2.5	/experiments/knapen_AOT/AOT_stimuli/rescaled_final/0041_rv.mp4	0.0	126.2846610546112	0.10001397132873535
17	107.6075668334961	fix_pre	0		120	15.0	2.5	/experiments/knapen_AOT/AOT_stimuli/rescaled_final/1914_fw.mp4	0.0	126.38467502593994	1.0001220703125
17	108.6076889038086	movie	1		242	15.0	2.5	/experiments/knapen_AOT/AOT_stimuli/rescaled_final/1914_fw.mp4	0.0	127.38479709625244	2.492063045501709
17	108.99252700805664	pulse	1	t		15.0	2.5	/experiments/knapen_AOT/AOT_stimuli/rescaled_final/1914_fw.mp4	0.0	127.76963520050049	
17	110.58428406715393	pulse	1	t		15.0	2.5	/experiments/knapen_AOT/AOT_stimuli/rescaled_final/1914_fw.mp4	0.0	129.36139225959778	
17	111.0997519493103	fix_post	2		12	15.0	2.5	/experiments/knapen_AOT/AOT_stimuli/rescaled_final/1914_fw.mp4	0.0	129.87686014175415	0.1000521183013916
18	111.1998040676117	fix_pre	0		120	16.0	2.5	/experiments/knapen_AOT/AOT_stimuli/rescaled_final/0318_fw.mp4	0.0	129.97691226005554	1.000126838684082
18	112.1843810081482	pulse	0	t		16.0	2.5	/experiments/knapen_AOT/AOT_stimuli/rescaled_final/0318_fw.mp4	0.0	130.96148920059204	
18	112.19993090629578	movie	1		244	16.0	2.5	/experiments/knapen_AOT/AOT_stimuli/rescaled_final/0318_fw.mp4	0.0	130.97703909873962	2.508681058883667
18	113.7926299571991	pulse	1	t		16.0	2.5	/experiments/knapen_AOT/AOT_stimuli/rescaled_final/0318_fw.mp4	0.0	132.56973814964294	
18	114.70861196517944	fix_post	2		12	16.0	2.5	/experiments/knapen_AOT/AOT_stimuli/rescaled_final/0318_fw.mp4	0.0	133.4857201576233	0.1000359058380127
19	114.80864787101746	fix_pre	0		120	17.0	2.5	/experiments/knapen_AOT/AOT_stimuli/rescaled_final/0123_rv.mp4	0.0	133.5857560634613	1.000154972076416
19	115.38394498825073	pulse	0	t		17.0	2.5	/experiments/knapen_AOT/AOT_stimuli/rescaled_final/0123_rv.mp4	0.0	134.16105318069458	
19	115.80880284309387	movie	1		242	17.0	2.5	/experiments/knapen_AOT/AOT_stimuli/rescaled_final/0123_rv.mp4	0.0	134.58591103553772	2.5005412101745605
19	116.98816299438477	pulse	1	t		17.0	2.5	/experiments/knapen_AOT/AOT_stimuli/rescaled_final/0123_rv.mp4	0.0	135.7652711868286	
19	118.30934405326843	fix_post	2		12	17.0	2.5	/experiments/knapen_AOT/AOT_stimuli/rescaled_final/0123_rv.mp4	0.0	137.08645224571228	0.09987378120422363
20	118.40921783447266	fix_pre	0		120	18.0	2.5	/experiments/knapen_AOT/AOT_stimuli/rescaled_final/0603_fw.mp4	0.0	137.1863260269165	1.000108003616333
20	118.58447194099426	pulse	0	t		18.0	2.5	/experiments/knapen_AOT/AOT_stimuli/rescaled_final/0603_fw.mp4	0.0	137.3615801334381	
20	119.40932583808899	movie	1		242	18.0	2.5	/experiments/knapen_AOT/AOT_stimuli/rescaled_final/0603_fw.mp4	0.0	138.18643403053284	2.5004231929779053
20	120.18467402458191	pulse	1	t		18.0	2.5	/experiments/knapen_AOT/AOT_stimuli/rescaled_final/0603_fw.mp4	0.0	138.96178221702576	
20	121.78483891487122	pulse	1	t		18.0	2.5	/experiments/knapen_AOT/AOT_stimuli/rescaled_final/0603_fw.mp4	0.0	140.56194710731506	
20	121.9097490310669	fix_post	2		12	18.0	2.5	/experiments/knapen_AOT/AOT_stimuli/rescaled_final/0603_fw.mp4	0.0	140.68685722351074	0.09997701644897461
21	122.00972604751587	fix_pre	0		119	19.0	2.5	blank	1.0	140.78683423995972	0.9917910099029541
21	123.00151705741882	movie	1		300	19.0	2.5	blank	1.0	141.77862524986267	2.5003859996795654
21	123.38505291938782	pulse	1	t		19.0	2.5	blank	1.0	142.16216111183167	
21	124.98536896705627	pulse	1	t		19.0	2.5	blank	1.0	143.76247715950012	
21	125.50190305709839	fix_post	2		12	19.0	2.5	blank	1.0	144.27901124954224	0.10009384155273438
22	125.60199689865112	fix_pre	0		119	20.0	2.5	/experiments/knapen_AOT/AOT_stimuli/rescaled_final/1548_rv.mp4	0.0	144.37910509109497	0.99173903465271
22	126.58568096160889	pulse	0	t		20.0	2.5	/experiments/knapen_AOT/AOT_stimuli/rescaled_final/1548_rv.mp4	0.0	145.36278915405273	
22	126.59373593330383	movie	1		244	20.0	2.5	/experiments/knapen_AOT/AOT_stimuli/rescaled_final/1548_rv.mp4	0.0	145.37084412574768	2.5087099075317383
22	128.1863648891449	pulse	1	t		20.0	2.5	/experiments/knapen_AOT/AOT_stimuli/rescaled_final/1548_rv.mp4	0.0	146.96347308158875	
22	129.10244584083557	fix_post	2		12	20.0	2.5	/experiments/knapen_AOT/AOT_stimuli/rescaled_final/1548_rv.mp4	0.0	147.87955403327942	0.10005903244018555
23	129.20250487327576	fix_pre	0		120	21.0	2.5	/experiments/knapen_AOT/AOT_stimuli/rescaled_final/1724_fw.mp4	0.0	147.9796130657196	1.0001001358032227
23	129.78609085083008	pulse	0	t		21.0	2.5	/experiments/knapen_AOT/AOT_stimuli/rescaled_final/1724_fw.mp4	0.0	148.56319904327393	
23	130.20260500907898	movie	1		243	21.0	2.5	/experiments/knapen_AOT/AOT_stimuli/rescaled_final/1724_fw.mp4	0.0	148.97971320152283	2.50039005279541
23	131.38632893562317	pulse	1	t		21.0	2.5	/experiments/knapen_AOT/AOT_stimuli/rescaled_final/1724_fw.mp4	0.0	150.16343712806702	
23	132.7029950618744	fix_post	2		12	21.0	2.5	/experiments/knapen_AOT/AOT_stimuli/rescaled_final/1724_fw.mp4	0.0	151.48010325431824	0.10002493858337402
24	132.80302000045776	fix_pre	0		120	22.0	2.5	/experiments/knapen_AOT/AOT_stimuli/rescaled_final/0955_rv.mp4	0.0	151.5801281929016	1.0001449584960938
24	132.98654198646545	pulse	0	t		22.0	2.5	/experiments/knapen_AOT/AOT_stimuli/rescaled_final/0955_rv.mp4	0.0	151.7636501789093	
24	133.80316495895386	movie	1		242	22.0	2.5	/experiments/knapen_AOT/AOT_stimuli/rescaled_final/0955_rv.mp4	0.0	152.5802731513977	2.5004560947418213
24	134.58680605888367	pulse	1	t		22.0	2.5	/experiments/knapen_AOT/AOT_stimuli/rescaled_final/0955_rv.mp4	0.0	153.36391425132751	
24	136.18714904785156	pulse	1	t		22.0	2.5	/experiments/knapen_AOT/AOT_stimuli/rescaled_final/0955_rv.mp4	0.0	154.9642572402954	
24	136.30362105369568	fix_post	2		12	22.0	2.5	/experiments/knapen_AOT/AOT_stimuli/rescaled_final/0955_rv.mp4	0.0	155.08072924613953	0.09995388984680176
25	136.40357494354248	fix_pre	0		120	23.0	2.5	/experiments/knapen_AOT/AOT_stimuli/rescaled_final/0526_rv.mp4	0.0	155.18068313598633	1.000157117843628
25	137.4037320613861	movie	1		242	23.0	2.5	/experiments/knapen_AOT/AOT_stimuli/rescaled_final/0526_rv.mp4	0.0	156.18084025382996	2.4919798374176025
25	137.7917459011078	pulse	1	t		23.0	2.5	/experiments/knapen_AOT/AOT_stimuli/rescaled_final/0526_rv.mp4	0.0	156.56885409355164	
25	139.3875060081482	pulse	1	t		23.0	2.5	/experiments/knapen_AOT/AOT_stimuli/rescaled_final/0526_rv.mp4	0.0	158.16461420059204	
25	139.8957118988037	fix_post	2		12	23.0	2.5	/experiments/knapen_AOT/AOT_stimuli/rescaled_final/0526_rv.mp4	0.0	158.67282009124756	0.10001015663146973
26	139.99572205543518	fix_pre	0		120	24.0	2.5	/experiments/knapen_AOT/AOT_stimuli/rescaled_final/0450_fw.mp4	0.0	158.77283024787903	1.0001699924468994
26	140.98774695396423	pulse	0	t		24.0	2.5	/experiments/knapen_AOT/AOT_stimuli/rescaled_final/0450_fw.mp4	0.0	159.76485514640808	
26	140.99589204788208	movie	1		244	24.0	2.5	/experiments/knapen_AOT/AOT_stimuli/rescaled_final/0450_fw.mp4	0.0	159.77300024032593	2.5087168216705322
26	142.58863306045532	pulse	1	t		24.0	2.5	/experiments/knapen_AOT/AOT_stimuli/rescaled_final/0450_fw.mp4	0.0	161.36574125289917	
26	143.5046088695526	fix_post	2		12	24.0	2.5	/experiments/knapen_AOT/AOT_stimuli/rescaled_final/0450_fw.mp4	0.0	162.28171706199646	0.09999513626098633
27	143.6046040058136	fix_pre	0		120	25.0	2.5	/experiments/knapen_AOT/AOT_stimuli/rescaled_final/1879_fw.mp4	0.0	162.38171219825745	1.0001499652862549
27	144.18828201293945	pulse	0	t		25.0	2.5	/experiments/knapen_AOT/AOT_stimuli/rescaled_final/1879_fw.mp4	0.0	162.9653902053833	
27	144.60475397109985	movie	1		243	25.0	2.5	/experiments/knapen_AOT/AOT_stimuli/rescaled_final/1879_fw.mp4	0.0	163.3818621635437	2.500356912612915
27	145.7842538356781	pulse	1	t		25.0	2.5	/experiments/knapen_AOT/AOT_stimuli/rescaled_final/1879_fw.mp4	0.0	164.56136202812195	
27	147.10511088371277	fix_post	2		12	25.0	2.5	/experiments/knapen_AOT/AOT_stimuli/rescaled_final/1879_fw.mp4	0.0	165.88221907615662	0.10009908676147461
28	147.20520997047424	fix_pre	0		120	26.0	2.5	/experiments/knapen_AOT/AOT_stimuli/rescaled_final/1715_rv.mp4	0.0	165.9823181629181	1.0000450611114502
28	147.38873600959778	pulse	0	t		26.0	2.5	/experiments/knapen_AOT/AOT_stimuli/rescaled_final/1715_rv.mp4	0.0	166.16584420204163	
28	148.2052550315857	movie	1		245	26.0	2.5	/experiments/knapen_AOT/AOT_stimuli/rescaled_final/1715_rv.mp4	0.0	166.98236322402954	2.5004019737243652
28	148.98895406723022	pulse	1	t		26.0	2.5	/experiments/knapen_AOT/AOT_stimuli/rescaled_final/1715_rv.mp4	0.0	167.76606225967407	
28	150.58914995193481	pulse	1	t		26.0	2.5	/experiments/knapen_AOT/AOT_stimuli/rescaled_final/1715_rv.mp4	0.0	169.36625814437866	
28	150.70565700531006	fix_post	2		12	26.0	2.5	/experiments/knapen_AOT/AOT_stimuli/rescaled_final/1715_rv.mp4	0.0	169.4827651977539	0.10001802444458008
29	150.80567502975464	fix_pre	0		120	27.0	2.5	/experiments/knapen_AOT/AOT_stimuli/rescaled_final/1636_rv.mp4	0.0	169.5827832221985	1.0002508163452148
29	151.80592584609985	movie	1		243	27.0	2.5	/experiments/knapen_AOT/AOT_stimuli/rescaled_final/1636_rv.mp4	0.0	170.5830340385437	2.491941213607788
29	152.19029784202576	pulse	1	t		27.0	2.5	/experiments/knapen_AOT/AOT_stimuli/rescaled_final/1636_rv.mp4	0.0	170.9674060344696	
29	153.7896499633789	pulse	1	t		27.0	2.5	/experiments/knapen_AOT/AOT_stimuli/rescaled_final/1636_rv.mp4	0.0	172.56675815582275	
29	154.29786705970764	fix_post	2		12	27.0	2.5	/experiments/knapen_AOT/AOT_stimuli/rescaled_final/1636_rv.mp4	0.0	173.0749752521515	0.10000181198120117
30	154.39786887168884	fix_pre	0		120	28.0	2.5	blank	1.0	173.1749770641327	1.0002319812774658
30	155.38989996910095	pulse	0	t		28.0	2.5	blank	1.0	174.1670081615448	
30	155.3981008529663	movie	1		301	28.0	2.5	blank	1.0	174.17520904541016	2.50864315032959
30	156.99019289016724	pulse	1	t		28.0	2.5	blank	1.0	175.76730108261108	
30	157.9067440032959	fix_post	2		12	28.0	2.5	blank	1.0	176.68385219573975	0.10002493858337402
31	158.00676894187927	fix_pre	0		120	29.0	2.5	/experiments/knapen_AOT/AOT_stimuli/rescaled_final/0603_fw.mp4	0.0	176.78387713432312	1.0001850128173828
31	158.5904619693756	pulse	0	t		29.0	2.5	/experiments/knapen_AOT/AOT_stimuli/rescaled_final/0603_fw.mp4	0.0	177.36757016181946	
31	159.00695395469666	movie	1		242	29.0	2.5	/experiments/knapen_AOT/AOT_stimuli/rescaled_final/0603_fw.mp4	0.0	177.7840621471405	2.5003368854522705
31	160.19069504737854	pulse	1	t		29.0	2.5	/experiments/knapen_AOT/AOT_stimuli/rescaled_final/0603_fw.mp4	0.0	178.9678032398224	
31	161.50729084014893	fix_post	2		12	29.0	2.5	/experiments/knapen_AOT/AOT_stimuli/rescaled_final/0603_fw.mp4	0.0	180.28439903259277	0.10004401206970215
32	161.60733485221863	fix_pre	0		120	30.0	2.5	/experiments/knapen_AOT/AOT_stimuli/rescaled_final/1417_rv.mp4	0.0	180.38444304466248	1.0001091957092285
32	161.79079699516296	pulse	0	t		30.0	2.5	/experiments/knapen_AOT/AOT_stimuli/rescaled_final/1417_rv.mp4	0.0	180.5679051876068	
32	162.60744404792786	movie	1		241	30.0	2.5	/experiments/knapen_AOT/AOT_stimuli/rescaled_final/1417_rv.mp4	0.0	181.3845522403717	2.5004868507385254
32	163.38365602493286	pulse	1	t		30.0	2.5	/experiments/knapen_AOT/AOT_stimuli/rescaled_final/1417_rv.mp4	0.0	182.1607642173767	
32	164.99119305610657	pulse	1	t		30.0	2.5	/experiments/knapen_AOT/AOT_stimuli/rescaled_final/1417_rv.mp4	0.0	183.76830124855042	
32	165.10793089866638	fix_post	2		12	30.0	2.5	/experiments/knapen_AOT/AOT_stimuli/rescaled_final/1417_rv.mp4	0.0	183.88503909111023	0.09990811347961426
33	165.207839012146	fix_pre	0		120	31.0	2.5	/experiments/knapen_AOT/AOT_stimuli/rescaled_final/1431_rv.mp4	0.0	183.98494720458984	1.0002219676971436
33	166.20806097984314	movie	1		243	31.0	2.5	/experiments/knapen_AOT/AOT_stimuli/rescaled_final/1431_rv.mp4	0.0	184.985169172287	2.4919779300689697
33	166.59208488464355	pulse	1	t		31.0	2.5	/experiments/knapen_AOT/AOT_stimuli/rescaled_final/1431_rv.mp4	0.0	185.3691930770874	
33	168.1836919784546	pulse	1	t		31.0	2.5	/experiments/knapen_AOT/AOT_stimuli/rescaled_final/1431_rv.mp4	0.0	186.96080017089844	
33	168.7000389099121	fix_post	2		12	31.0	2.5	/experiments/knapen_AOT/AOT_stimuli/rescaled_final/1431_rv.mp4	0.0	187.47714710235596	0.10011696815490723
34	168.80015587806702	fix_pre	0		119	32.0	2.5	/experiments/knapen_AOT/AOT_stimuli/rescaled_final/0431_fw.mp4	0.0	187.57726407051086	0.9917371273040771
34	169.7836558818817	pulse	0	t		32.0	2.5	/experiments/knapen_AOT/AOT_stimuli/rescaled_final/0431_fw.mp4	0.0	188.56076407432556	
34	169.7918930053711	movie	1		243	32.0	2.5	/experiments/knapen_AOT/AOT_stimuli/rescaled_final/0431_fw.mp4	0.0	188.56900119781494	2.508685827255249
34	171.38452291488647	pulse	1	t		32.0	2.5	/experiments/knapen_AOT/AOT_stimuli/rescaled_final/0431_fw.mp4	0.0	190.16163110733032	
34	172.30057883262634	fix_post	2		12	32.0	2.5	/experiments/knapen_AOT/AOT_stimuli/rescaled_final/0431_fw.mp4	0.0	191.0776870250702	0.10000801086425781
35	172.4005868434906	fix_pre	0		120	33.0	2.5	/experiments/knapen_AOT/AOT_stimuli/rescaled_final/0605_fw.mp4	0.0	191.17769503593445	1.0002140998840332
35	172.9842438697815	pulse	0	t		33.0	2.5	/experiments/knapen_AOT/AOT_stimuli/rescaled_final/0605_fw.mp4	0.0	191.76135206222534	
35	173.40080094337463	movie	1		242	33.0	2.5	/experiments/knapen_AOT/AOT_stimuli/rescaled_final/0605_fw.mp4	0.0	192.17790913581848	2.500488042831421
35	174.5846700668335	pulse	1	t		33.0	2.5	/experiments/knapen_AOT/AOT_stimuli/rescaled_final/0605_fw.mp4	0.0	193.36177825927734	
35	175.90128898620605	fix_post	2		12	33.0	2.5	/experiments/knapen_AOT/AOT_stimuli/rescaled_final/0605_fw.mp4	0.0	194.6783971786499	0.09983587265014648
36	176.0011248588562	fix_pre	0		120	34.0	2.5	blank	1.0	194.77823305130005	1.000171184539795
36	176.18466687202454	pulse	0	t		34.0	2.5	blank	1.0	194.96177506446838	
36	177.001296043396	movie	1		300	34.0	2.5	blank	1.0	195.77840423583984	2.50034499168396
36	177.78483390808105	pulse	1	t		34.0	2.5	blank	1.0	196.5619421005249	
36	179.38510990142822	pulse	1	t		34.0	2.5	blank	1.0	198.16221809387207	
36	179.50164103507996	fix_post	2		12	34.0	2.5	blank	1.0	198.2787492275238	0.10001897811889648
37	179.60166001319885	fix_pre	0		119	35.0	2.5	/experiments/knapen_AOT/AOT_stimuli/rescaled_final/2058_rv.mp4	0.0	198.3787682056427	0.9918279647827148
37	180.59348797798157	movie	1		242	35.0	2.5	/experiments/knapen_AOT/AOT_stimuli/rescaled_final/2058_rv.mp4	0.0	199.37059617042542	2.500473976135254
37	180.98559498786926	pulse	1	t		35.0	2.5	/experiments/knapen_AOT/AOT_stimuli/rescaled_final/2058_rv.mp4	0.0	199.7627031803131	
37	182.5856909751892	pulse	1	t		35.0	2.5	/experiments/knapen_AOT/AOT_stimuli/rescaled_final/2058_rv.mp4	0.0	201.36279916763306	
37	183.09396195411682	fix_post	2		12	35.0	2.5	/experiments/knapen_AOT/AOT_stimuli/rescaled_final/2058_rv.mp4	0.0	201.87107014656067	0.09995102882385254
38	183.19391298294067	fix_pre	0		120	36.0	2.5	/experiments/knapen_AOT/AOT_stimuli/rescaled_final/1682_rv.mp4	0.0	201.97102117538452	1.000148057937622
38	184.18583703041077	pulse	0	t		36.0	2.5	/experiments/knapen_AOT/AOT_stimuli/rescaled_final/1682_rv.mp4	0.0	202.96294522285461	
38	184.1940610408783	movie	1		244	36.0	2.5	/experiments/knapen_AOT/AOT_stimuli/rescaled_final/1682_rv.mp4	0.0	202.97116923332214	2.508657932281494
38	185.78743505477905	pulse	1	t		36.0	2.5	/experiments/knapen_AOT/AOT_stimuli/rescaled_final/1682_rv.mp4	0.0	204.5645432472229	
38	186.7027189731598	fix_post	2		12	36.0	2.5	/experiments/knapen_AOT/AOT_stimuli/rescaled_final/1682_rv.mp4	0.0	205.47982716560364	0.10002708435058594
39	186.80274605751038	fix_pre	0		120	37.0	2.5	/experiments/knapen_AOT/AOT_stimuli/rescaled_final/1844_rv.mp4	0.0	205.57985424995422	1.0001778602600098
39	187.38641500473022	pulse	0	t		37.0	2.5	/experiments/knapen_AOT/AOT_stimuli/rescaled_final/1844_rv.mp4	0.0	206.16352319717407	
39	187.80292391777039	movie	1		245	37.0	2.5	/experiments/knapen_AOT/AOT_stimuli/rescaled_final/1844_rv.mp4	0.0	206.58003211021423	2.500343084335327
39	188.98665285110474	pulse	1	t		37.0	2.5	/experiments/knapen_AOT/AOT_stimuli/rescaled_final/1844_rv.mp4	0.0	207.76376104354858	
39	190.3032670021057	fix_post	2		12	37.0	2.5	/experiments/knapen_AOT/AOT_stimuli/rescaled_final/1844_rv.mp4	0.0	209.08037519454956	0.10003805160522461
40	190.40330505371094	fix_pre	0		120	38.0	2.5	/experiments/knapen_AOT/AOT_stimuli/rescaled_final/0204_fw.mp4	0.0	209.18041324615479	1.000105857849121
40	190.58674788475037	pulse	0	t		38.0	2.5	/experiments/knapen_AOT/AOT_stimuli/rescaled_final/0204_fw.mp4	0.0	209.3638560771942	
40	191.40341091156006	movie	1		242	38.0	2.5	/experiments/knapen_AOT/AOT_stimuli/rescaled_final/0204_fw.mp4	0.0	210.1805191040039	2.5004141330718994
40	192.18723487854004	pulse	1	t		38.0	2.5	/experiments/knapen_AOT/AOT_stimuli/rescaled_final/0204_fw.mp4	0.0	210.9643430709839	
40	193.78770804405212	pulse	1	t		38.0	2.5	/experiments/knapen_AOT/AOT_stimuli/rescaled_final/0204_fw.mp4	0.0	212.56481623649597	
40	193.90382504463196	fix_post	2		12	38.0	2.5	/experiments/knapen_AOT/AOT_stimuli/rescaled_final/0204_fw.mp4	0.0	212.6809332370758	0.09998798370361328
41	194.00381302833557	fix_pre	0		120	39.0	2.5	/experiments/knapen_AOT/AOT_stimuli/rescaled_final/0666_rv.mp4	0.0	212.78092122077942	1.0001749992370605
41	195.00398802757263	movie	1		241	39.0	2.5	/experiments/knapen_AOT/AOT_stimuli/rescaled_final/0666_rv.mp4	0.0	213.78109622001648	2.492180824279785
41	195.38905596733093	pulse	1	t		39.0	2.5	/experiments/knapen_AOT/AOT_stimuli/rescaled_final/0666_rv.mp4	0.0	214.16616415977478	
41	196.98776006698608	pulse	1	t		39.0	2.5	/experiments/knapen_AOT/AOT_stimuli/rescaled_final/0666_rv.mp4	0.0	215.76486825942993	
41	197.49616885185242	fix_post	2		12	39.0	2.5	/experiments/knapen_AOT/AOT_stimuli/rescaled_final/0666_rv.mp4	0.0	216.27327704429626	0.09983205795288086
42	197.5960009098053	fix_pre	0		120	40.0	2.5	/experiments/knapen_AOT/AOT_stimuli/rescaled_final/1719_fw.mp4	0.0	216.37310910224915	1.0002241134643555
42	198.5879099369049	pulse	0	t		40.0	2.5	/experiments/knapen_AOT/AOT_stimuli/rescaled_final/1719_fw.mp4	0.0	217.36501812934875	
42	198.59622502326965	movie	1		244	40.0	2.5	/experiments/knapen_AOT/AOT_stimuli/rescaled_final/1719_fw.mp4	0.0	217.3733332157135	2.508641004562378
42	200.18880987167358	pulse	1	t		40.0	2.5	/experiments/knapen_AOT/AOT_stimuli/rescaled_final/1719_fw.mp4	0.0	218.96591806411743	
42	201.10486602783203	fix_post	2		12	40.0	2.5	/experiments/knapen_AOT/AOT_stimuli/rescaled_final/1719_fw.mp4	0.0	219.88197422027588	0.10003280639648438
43	201.20489883422852	fix_pre	0		120	41.0	2.5	blank	1.0	219.98200702667236	1.000326156616211
43	201.78856801986694	pulse	0	t		41.0	2.5	blank	1.0	220.5656762123108	
43	202.20522499084473	movie	1		300	41.0	2.5	blank	1.0	220.98233318328857	2.500187873840332
43	203.38874793052673	pulse	1	t		41.0	2.5	blank	1.0	222.16585612297058	
43	204.70541286468506	fix_post	2		12	41.0	2.5	blank	1.0	223.4825210571289	0.10002803802490234
44	204.80544090270996	fix_pre	0		120	42.0	2.5	/experiments/knapen_AOT/AOT_stimuli/rescaled_final/1127_rv.mp4	0.0	223.5825490951538	1.0001349449157715
44	204.98901987075806	pulse	0	t		42.0	2.5	/experiments/knapen_AOT/AOT_stimuli/rescaled_final/1127_rv.mp4	0.0	223.7661280632019	
44	205.80557584762573	movie	1		242	42.0	2.5	/experiments/knapen_AOT/AOT_stimuli/rescaled_final/1127_rv.mp4	0.0	224.58268404006958	2.4920170307159424
44	206.5891559123993	pulse	1	t		42.0	2.5	/experiments/knapen_AOT/AOT_stimuli/rescaled_final/1127_rv.mp4	0.0	225.36626410484314	
44	208.18930292129517	pulse	1	t		42.0	2.5	/experiments/knapen_AOT/AOT_stimuli/rescaled_final/1127_rv.mp4	0.0	226.966411113739	
44	208.29759287834167	fix_post	2		12	42.0	2.5	/experiments/knapen_AOT/AOT_stimuli/rescaled_final/1127_rv.mp4	0.0	227.07470107078552	0.1000220775604248
45	208.3976149559021	fix_pre	0		120	43.0	2.5	/experiments/knapen_AOT/AOT_stimuli/rescaled_final/0831_fw.mp4	0.0	227.17472314834595	1.000175952911377
45	209.39779090881348	movie	1		242	43.0	2.5	/experiments/knapen_AOT/AOT_stimuli/rescaled_final/0831_fw.mp4	0.0	228.17489910125732	2.5005359649658203
45	209.78566789627075	pulse	1	t		43.0	2.5	/experiments/knapen_AOT/AOT_stimuli/rescaled_final/0831_fw.mp4	0.0	228.5627760887146	
45	211.38992285728455	pulse	1	t		43.0	2.5	/experiments/knapen_AOT/AOT_stimuli/rescaled_final/0831_fw.mp4	0.0	230.1670310497284	
45	211.8983268737793	fix_post	2		12	43.0	2.5	/experiments/knapen_AOT/AOT_stimuli/rescaled_final/0831_fw.mp4	0.0	230.67543506622314	0.09987497329711914
46	211.99820184707642	fix_pre	0		120	44.0	2.5	/experiments/knapen_AOT/AOT_stimuli/rescaled_final/1427_rv.mp4	0.0	230.77531003952026	1.0001270771026611
46	212.99016094207764	pulse	0	t		44.0	2.5	/experiments/knapen_AOT/AOT_stimuli/rescaled_final/1427_rv.mp4	0.0	231.76726913452148	
46	212.99832892417908	movie	1		247	44.0	2.5	/experiments/knapen_AOT/AOT_stimuli/rescaled_final/1427_rv.mp4	0.0	231.77543711662292	2.50871205329895
46	214.59114599227905	pulse	1	t		44.0	2.5	/experiments/knapen_AOT/AOT_stimuli/rescaled_final/1427_rv.mp4	0.0	233.3682541847229	
46	215.50704097747803	fix_post	2		12	44.0	2.5	/experiments/knapen_AOT/AOT_stimuli/rescaled_final/1427_rv.mp4	0.0	234.28414916992188	0.10000896453857422
47	215.6070499420166	fix_pre	0		120	45.0	2.5	/experiments/knapen_AOT/AOT_stimuli/rescaled_final/0127_rv.mp4	0.0	234.38415813446045	1.0002470016479492
47	216.19067406654358	pulse	0	t		45.0	2.5	/experiments/knapen_AOT/AOT_stimuli/rescaled_final/0127_rv.mp4	0.0	234.96778225898743	
47	216.60729694366455	movie	1		243	45.0	2.5	/experiments/knapen_AOT/AOT_stimuli/rescaled_final/0127_rv.mp4	0.0	235.3844051361084	2.5002501010894775
47	217.79096484184265	pulse	1	t		45.0	2.5	/experiments/knapen_AOT/AOT_stimuli/rescaled_final/0127_rv.mp4	0.0	236.5680730342865	
47	219.10754704475403	fix_post	2		12	45.0	2.5	/experiments/knapen_AOT/AOT_stimuli/rescaled_final/0127_rv.mp4	0.0	237.88465523719788	0.0999898910522461
48	219.20753693580627	fix_pre	0		117	46.0	2.5	/experiments/knapen_AOT/AOT_stimuli/rescaled_final/0831_rv.mp4	0.0	237.98464512825012	1.000230073928833
48	219.39117693901062	pulse	0	t		46.0	2.5	/experiments/knapen_AOT/AOT_stimuli/rescaled_final/0831_rv.mp4	0.0	238.16828513145447	
48	220.2077670097351	movie	1		242	46.0	2.5	/experiments/knapen_AOT/AOT_stimuli/rescaled_final/0831_rv.mp4	0.0	238.98487520217896	2.5004069805145264
48	220.9840669631958	pulse	1	t		46.0	2.5	/experiments/knapen_AOT/AOT_stimuli/rescaled_final/0831_rv.mp4	0.0	239.76117515563965	
48	222.59175205230713	pulse	1	t		46.0	2.5	/experiments/knapen_AOT/AOT_stimuli/rescaled_final/0831_rv.mp4	0.0	241.36886024475098	
48	222.70817399024963	fix_post	2		12	46.0	2.5	/experiments/knapen_AOT/AOT_stimuli/rescaled_final/0831_rv.mp4	0.0	241.48528218269348	0.09996390342712402
49	222.80813789367676	fix_pre	0		120	47.0	2.5	/experiments/knapen_AOT/AOT_stimuli/rescaled_final/0627_rv.mp4	0.0	241.5852460861206	1.0001599788665771
49	223.80829787254333	movie	1		242	47.0	2.5	/experiments/knapen_AOT/AOT_stimuli/rescaled_final/0627_rv.mp4	0.0	242.58540606498718	2.4919650554656982
49	224.19319891929626	pulse	1	t		47.0	2.5	/experiments/knapen_AOT/AOT_stimuli/rescaled_final/0627_rv.mp4	0.0	242.9703071117401	
49	225.78475499153137	pulse	1	t		47.0	2.5	/experiments/knapen_AOT/AOT_stimuli/rescaled_final/0627_rv.mp4	0.0	244.56186318397522	
49	226.30026292800903	fix_post	2		12	47.0	2.5	/experiments/knapen_AOT/AOT_stimuli/rescaled_final/0627_rv.mp4	0.0	245.07737112045288	0.10013008117675781
50	226.4003930091858	fix_pre	0		119	48.0	2.5	blank	1.0	245.17750120162964	0.991703987121582
50	227.38415503501892	pulse	0	t		48.0	2.5	blank	1.0	246.16126322746277	
50	227.39209699630737	movie	1		301	48.0	2.5	blank	1.0	246.16920518875122	2.5087249279022217
50	228.9841558933258	pulse	1	t		48.0	2.5	blank	1.0	247.76126408576965	
50	229.9008219242096	fix_post	2		12	48.0	2.5	blank	1.0	248.67793011665344	0.10008001327514648
51	230.00090193748474	fix_pre	0		120	49.0	2.5	/experiments/knapen_AOT/AOT_stimuli/rescaled_final/1487_fw.mp4	0.0	248.7780101299286	1.0001239776611328
51	230.58439993858337	pulse	0	t		49.0	2.5	/experiments/knapen_AOT/AOT_stimuli/rescaled_final/1487_fw.mp4	0.0	249.36150813102722	
51	231.00102591514587	movie	1		244	49.0	2.5	/experiments/knapen_AOT/AOT_stimuli/rescaled_final/1487_fw.mp4	0.0	249.77813410758972	2.5004029273986816
51	232.18474698066711	pulse	1	t		49.0	2.5	/experiments/knapen_AOT/AOT_stimuli/rescaled_final/1487_fw.mp4	0.0	250.96185517311096	
51	233.50142884254456	fix_post	2		12	49.0	2.5	/experiments/knapen_AOT/AOT_stimuli/rescaled_final/1487_fw.mp4	0.0	252.2785370349884	0.10005021095275879
52	233.60147905349731	fix_pre	0		120	50.0	2.5	/experiments/knapen_AOT/AOT_stimuli/rescaled_final/0898_fw.mp4	0.0	252.37858724594116	1.0000438690185547
52	233.78489303588867	pulse	0	t		50.0	2.5	/experiments/knapen_AOT/AOT_stimuli/rescaled_final/0898_fw.mp4	0.0	252.56200122833252	
52	234.60152292251587	movie	1		242	50.0	2.5	/experiments/knapen_AOT/AOT_stimuli/rescaled_final/0898_fw.mp4	0.0	253.37863111495972	2.5005359649658203
52	235.38526391983032	pulse	1	t		50.0	2.5	/experiments/knapen_AOT/AOT_stimuli/rescaled_final/0898_fw.mp4	0.0	254.16237211227417	
52	236.98562288284302	pulse	1	t		50.0	2.5	/experiments/knapen_AOT/AOT_stimuli/rescaled_final/0898_fw.mp4	0.0	255.76273107528687	
52	237.1020588874817	fix_post	2		12	50.0	2.5	/experiments/knapen_AOT/AOT_stimuli/rescaled_final/0898_fw.mp4	0.0	255.87916707992554	0.0999150276184082
53	237.2019739151001	fix_pre	0		120	51.0	2.5	/experiments/knapen_AOT/AOT_stimuli/rescaled_final/0324_fw.mp4	0.0	255.97908210754395	1.0001261234283447
53	238.20210003852844	movie	1		242	51.0	2.5	/experiments/knapen_AOT/AOT_stimuli/rescaled_final/0324_fw.mp4	0.0	256.9792082309723	2.5004308223724365
53	238.58640098571777	pulse	1	t		51.0	2.5	/experiments/knapen_AOT/AOT_stimuli/rescaled_final/0324_fw.mp4	0.0	257.3635091781616	
53	240.18583798408508	pulse	1	t		51.0	2.5	/experiments/knapen_AOT/AOT_stimuli/rescaled_final/0324_fw.mp4	0.0	258.96294617652893	
53	240.70253086090088	fix_post	2		11	51.0	2.5	/experiments/knapen_AOT/AOT_stimuli/rescaled_final/0324_fw.mp4	0.0	259.4796390533447	0.09161114692687988
54	240.79414200782776	fix_pre	0		120	52.0	2.5	/experiments/knapen_AOT/AOT_stimuli/rescaled_final/1879_rv.mp4	0.0	259.5712502002716	1.0000958442687988
54	241.7862150669098	pulse	0	t		52.0	2.5	/experiments/knapen_AOT/AOT_stimuli/rescaled_final/1879_rv.mp4	0.0	260.56332325935364	
54	241.79423785209656	movie	1		244	52.0	2.5	/experiments/knapen_AOT/AOT_stimuli/rescaled_final/1879_rv.mp4	0.0	260.5713460445404	2.5087640285491943
54	243.38766884803772	pulse	1	t		52.0	2.5	/experiments/knapen_AOT/AOT_stimuli/rescaled_final/1879_rv.mp4	0.0	262.16477704048157	
54	244.30300188064575	fix_post	2		12	52.0	2.5	/experiments/knapen_AOT/AOT_stimuli/rescaled_final/1879_rv.mp4	0.0	263.0801100730896	0.10006999969482422
55	244.40307188034058	fix_pre	0		120	53.0	2.5	/experiments/knapen_AOT/AOT_stimuli/rescaled_final/0250_rv.mp4	0.0	263.1801800727844	1.000075101852417
55	244.98661398887634	pulse	0	t		53.0	2.5	/experiments/knapen_AOT/AOT_stimuli/rescaled_final/0250_rv.mp4	0.0	263.7637221813202	
55	245.403146982193	movie	1		243	53.0	2.5	/experiments/knapen_AOT/AOT_stimuli/rescaled_final/0250_rv.mp4	0.0	264.18025517463684	2.500417947769165
55	246.58694505691528	pulse	1	t		53.0	2.5	/experiments/knapen_AOT/AOT_stimuli/rescaled_final/0250_rv.mp4	0.0	265.36405324935913	
55	247.90356492996216	fix_post	2		12	53.0	2.5	/experiments/knapen_AOT/AOT_stimuli/rescaled_final/0250_rv.mp4	0.0	266.680673122406	0.10001611709594727
56	248.0035810470581	fix_pre	0		120	54.0	2.5	/experiments/knapen_AOT/AOT_stimuli/rescaled_final/1417_fw.mp4	0.0	266.78068923950195	1.0001208782196045
56	248.1871259212494	pulse	0	t		54.0	2.5	/experiments/knapen_AOT/AOT_stimuli/rescaled_final/1417_fw.mp4	0.0	266.96423411369324	
56	249.0037019252777	movie	1		243	54.0	2.5	/experiments/knapen_AOT/AOT_stimuli/rescaled_final/1417_fw.mp4	0.0	267.78081011772156	2.500549077987671
56	249.7874460220337	pulse	1	t		54.0	2.5	/experiments/knapen_AOT/AOT_stimuli/rescaled_final/1417_fw.mp4	0.0	268.56455421447754	
56	251.38741993904114	pulse	1	t		54.0	2.5	/experiments/knapen_AOT/AOT_stimuli/rescaled_final/1417_fw.mp4	0.0	270.164528131485	
56	251.50425100326538	fix_post	2		12	54.0	2.5	/experiments/knapen_AOT/AOT_stimuli/rescaled_final/1417_fw.mp4	0.0	270.28135919570923	0.09984898567199707
57	251.60409998893738	fix_pre	0		120	55.0	2.5	/experiments/knapen_AOT/AOT_stimuli/rescaled_final/0086_fw.mp4	0.0	270.3812081813812	1.0001249313354492
57	252.60422492027283	movie	1		241	55.0	2.5	/experiments/knapen_AOT/AOT_stimuli/rescaled_final/0086_fw.mp4	0.0	271.3813331127167	2.492173910140991
57	252.9890580177307	pulse	1	t		55.0	2.5	/experiments/knapen_AOT/AOT_stimuli/rescaled_final/0086_fw.mp4	0.0	271.76616621017456	
57	254.5881268978119	pulse	1	t		55.0	2.5	/experiments/knapen_AOT/AOT_stimuli/rescaled_final/0086_fw.mp4	0.0	273.36523509025574	
57	255.09639883041382	fix_post	2		12	55.0	2.5	/experiments/knapen_AOT/AOT_stimuli/rescaled_final/0086_fw.mp4	0.0	273.87350702285767	0.09992003440856934
58	255.1963188648224	fix_pre	0		120	56.0	2.5	blank	1.0	273.97342705726624	1.000101089477539
58	256.18834805488586	pulse	0	t		56.0	2.5	blank	1.0	274.9654562473297	
58	256.1964199542999	movie	1		301	56.0	2.5	blank	1.0	274.9735281467438	2.5086829662323
58	257.7885789871216	pulse	1	t		56.0	2.5	blank	1.0	276.56568717956543	
58	258.7051029205322	fix_post	2		12	56.0	2.5	blank	1.0	277.4822111129761	0.10008096694946289
59	258.8051838874817	fix_pre	0		120	57.0	2.5	/experiments/knapen_AOT/AOT_stimuli/rescaled_final/0526_fw.mp4	0.0	277.58229207992554	1.0000741481781006
59	259.3887138366699	pulse	0	t		57.0	2.5	/experiments/knapen_AOT/AOT_stimuli/rescaled_final/0526_fw.mp4	0.0	278.16582202911377	
59	259.8052580356598	movie	1		243	57.0	2.5	/experiments/knapen_AOT/AOT_stimuli/rescaled_final/0526_fw.mp4	0.0	278.58236622810364	2.5004639625549316
59	260.9891588687897	pulse	1	t		57.0	2.5	/experiments/knapen_AOT/AOT_stimuli/rescaled_final/0526_fw.mp4	0.0	279.7662670612335	
59	262.3057219982147	fix_post	2		12	57.0	2.5	/experiments/knapen_AOT/AOT_stimuli/rescaled_final/0526_fw.mp4	0.0	281.08283019065857	0.10000395774841309
60	262.40572595596313	fix_pre	0		120	58.0	2.5	/experiments/knapen_AOT/AOT_stimuli/rescaled_final/1127_fw.mp4	0.0	281.182834148407	1.0001180171966553
60	262.58936405181885	pulse	0	t		58.0	2.5	/experiments/knapen_AOT/AOT_stimuli/rescaled_final/1127_fw.mp4	0.0	281.3664722442627	
60	263.4058439731598	movie	1		243	58.0	2.5	/experiments/knapen_AOT/AOT_stimuli/rescaled_final/1127_fw.mp4	0.0	282.18295216560364	2.5005218982696533
60	264.18952202796936	pulse	1	t		58.0	2.5	/experiments/knapen_AOT/AOT_stimuli/rescaled_final/1127_fw.mp4	0.0	282.9666302204132	
60	265.7897789478302	pulse	1	t		58.0	2.5	/experiments/knapen_AOT/AOT_stimuli/rescaled_final/1127_fw.mp4	0.0	284.56688714027405	
60	265.90636587142944	fix_post	2		12	58.0	2.5	/experiments/knapen_AOT/AOT_stimuli/rescaled_final/1127_fw.mp4	0.0	284.6834740638733	0.09991216659545898
61	266.0062780380249	fix_pre	0		120	59.0	2.5	/experiments/knapen_AOT/AOT_stimuli/rescaled_final/0574_rv.mp4	0.0	284.78338623046875	1.000133991241455
61	267.00641202926636	movie	1		244	59.0	2.5	/experiments/knapen_AOT/AOT_stimuli/rescaled_final/0574_rv.mp4	0.0	285.7835202217102	2.492064952850342
61	267.3946108818054	pulse	1	t		59.0	2.5	/experiments/knapen_AOT/AOT_stimuli/rescaled_final/0574_rv.mp4	0.0	286.17171907424927	
61	268.9902608394623	pulse	1	t		59.0	2.5	/experiments/knapen_AOT/AOT_stimuli/rescaled_final/0574_rv.mp4	0.0	287.7673690319061	
61	269.4984769821167	fix_post	2		12	59.0	2.5	/experiments/knapen_AOT/AOT_stimuli/rescaled_final/0574_rv.mp4	0.0	288.27558517456055	0.09997296333312988
62	269.59844994544983	fix_pre	0		120	60.0	2.5	/experiments/knapen_AOT/AOT_stimuli/rescaled_final/2013_fw.mp4	0.0	288.3755581378937	1.0001130104064941
62	270.5903990268707	pulse	0	t		60.0	2.5	/experiments/knapen_AOT/AOT_stimuli/rescaled_final/2013_fw.mp4	0.0	289.3675072193146	
62	270.5985629558563	movie	1		244	60.0	2.5	/experiments/knapen_AOT/AOT_stimuli/rescaled_final/2013_fw.mp4	0.0	289.37567114830017	2.5087740421295166
62	272.1911919116974	pulse	1	t		60.0	2.5	/experiments/knapen_AOT/AOT_stimuli/rescaled_final/2013_fw.mp4	0.0	290.96830010414124	
62	273.10733699798584	fix_post	2		12	60.0	2.5	/experiments/knapen_AOT/AOT_stimuli/rescaled_final/2013_fw.mp4	0.0	291.8844451904297	0.09999990463256836
63	273.2073369026184	fix_pre	0		120	61.0	2.5	/experiments/knapen_AOT/AOT_stimuli/rescaled_final/1427_rv.mp4	0.0	291.98444509506226	1.000096082687378
63	273.7908470630646	pulse	0	t		61.0	2.5	/experiments/knapen_AOT/AOT_stimuli/rescaled_final/1427_rv.mp4	0.0	292.5679552555084	
63	274.2074329853058	movie	1		247	61.0	2.5	/experiments/knapen_AOT/AOT_stimuli/rescaled_final/1427_rv.mp4	0.0	292.98454117774963	2.500424861907959
63	275.39119505882263	pulse	1	t		61.0	2.5	/experiments/knapen_AOT/AOT_stimuli/rescaled_final/1427_rv.mp4	0.0	294.1683032512665	
63	276.70785784721375	fix_post	2		12	61.0	2.5	/experiments/knapen_AOT/AOT_stimuli/rescaled_final/1427_rv.mp4	0.0	295.4849660396576	0.10007619857788086
64	276.8079340457916	fix_pre	0		120	62.0	2.5	blank	1.0	295.5850422382355	1.0001018047332764
64	276.9839220046997	pulse	0	t		62.0	2.5	blank	1.0	295.76103019714355	
64	277.8080358505249	movie	1		300	62.0	2.5	blank	1.0	296.58514404296875	2.500308036804199
64	278.5841820240021	pulse	1	t		62.0	2.5	blank	1.0	297.3612902164459	
64	280.1843659877777	pulse	1	t		62.0	2.5	blank	1.0	298.96147418022156	
64	280.3083438873291	fix_post	2		12	62.0	2.5	blank	1.0	299.08545207977295	0.1000220775604248
65	280.4083659648895	fix_pre	0		120	63.0	2.5	/experiments/knapen_AOT/AOT_stimuli/rescaled_final/0058_fw.mp4	0.0	299.1854741573334	1.00022292137146
65	281.408588886261	movie	1		242	63.0	2.5	/experiments/knapen_AOT/AOT_stimuli/rescaled_final/0058_fw.mp4	0.0	300.18569707870483	2.4919731616973877
65	281.7839059829712	pulse	1	t		63.0	2.5	/experiments/knapen_AOT/AOT_stimuli/rescaled_final/0058_fw.mp4	0.0	300.56101417541504	
65	283.38403606414795	pulse	1	t		63.0	2.5	/experiments/knapen_AOT/AOT_stimuli/rescaled_final/0058_fw.mp4	0.0	302.1611442565918	
65	283.9005620479584	fix_post	2		12	63.0	2.5	/experiments/knapen_AOT/AOT_stimuli/rescaled_final/0058_fw.mp4	0.0	302.6776702404022	0.10000491142272949
66	284.0005669593811	fix_pre	0		119	64.0	2.5	/experiments/knapen_AOT/AOT_stimuli/rescaled_final/1209_fw.mp4	0.0	302.77767515182495	0.991873025894165
66	284.984179019928	pulse	0	t		64.0	2.5	/experiments/knapen_AOT/AOT_stimuli/rescaled_final/1209_fw.mp4	0.0	303.7612872123718	
66	284.99243998527527	movie	1		244	64.0	2.5	/experiments/knapen_AOT/AOT_stimuli/rescaled_final/1209_fw.mp4	0.0	303.7695481777191	2.508631944656372
66	286.5849549770355	pulse	1	t		64.0	2.5	/experiments/knapen_AOT/AOT_stimuli/rescaled_final/1209_fw.mp4	0.0	305.36206316947937	
66	287.50107192993164	fix_post	2		12	64.0	2.5	/experiments/knapen_AOT/AOT_stimuli/rescaled_final/1209_fw.mp4	0.0	306.2781801223755	0.10007810592651367
67	287.60115003585815	fix_pre	0		120	65.0	2.5	/experiments/knapen_AOT/AOT_stimuli/rescaled_final/0265_rv.mp4	0.0	306.378258228302	1.0001440048217773
67	288.1847279071808	pulse	0	t		65.0	2.5	/experiments/knapen_AOT/AOT_stimuli/rescaled_final/0265_rv.mp4	0.0	306.96183609962463	
67	288.60129404067993	movie	1		243	65.0	2.5	/experiments/knapen_AOT/AOT_stimuli/rescaled_final/0265_rv.mp4	0.0	307.3784022331238	2.500365972518921
67	289.78502106666565	pulse	1	t		65.0	2.5	/experiments/knapen_AOT/AOT_stimuli/rescaled_final/0265_rv.mp4	0.0	308.5621292591095	
67	291.10166001319885	fix_post	2		12	65.0	2.5	/experiments/knapen_AOT/AOT_stimuli/rescaled_final/0265_rv.mp4	0.0	309.8787682056427	0.0999898910522461
68	291.2016499042511	fix_pre	0		120	66.0	2.5	/experiments/knapen_AOT/AOT_stimuli/rescaled_final/1747_rv.mp4	0.0	309.97875809669495	1.0001640319824219
68	291.38525795936584	pulse	0	t		66.0	2.5	/experiments/knapen_AOT/AOT_stimuli/rescaled_final/1747_rv.mp4	0.0	310.1623661518097	
68	292.2018139362335	movie	1		242	66.0	2.5	/experiments/knapen_AOT/AOT_stimuli/rescaled_final/1747_rv.mp4	0.0	310.97892212867737	2.5003480911254883
68	292.9854350090027	pulse	1	t		66.0	2.5	/experiments/knapen_AOT/AOT_stimuli/rescaled_final/1747_rv.mp4	0.0	311.76254320144653	
68	294.5854399204254	pulse	1	t		66.0	2.5	/experiments/knapen_AOT/AOT_stimuli/rescaled_final/1747_rv.mp4	0.0	313.36254811286926	
68	294.702162027359	fix_post	2		12	66.0	2.5	/experiments/knapen_AOT/AOT_stimuli/rescaled_final/1747_rv.mp4	0.0	313.47927021980286	0.10003995895385742
69	294.80220198631287	fix_pre	0		120	67.0	2.5	/experiments/knapen_AOT/AOT_stimuli/rescaled_final/0126_fw.mp4	0.0	313.5793101787567	1.0001180171966553
69	295.8023200035095	movie	1		241	67.0	2.5	/experiments/knapen_AOT/AOT_stimuli/rescaled_final/0126_fw.mp4	0.0	314.57942819595337	2.4921698570251465
69	296.1905629634857	pulse	1	t		67.0	2.5	/experiments/knapen_AOT/AOT_stimuli/rescaled_final/0126_fw.mp4	0.0	314.96767115592957	
69	297.7862470149994	pulse	1	t		67.0	2.5	/experiments/knapen_AOT/AOT_stimuli/rescaled_final/0126_fw.mp4	0.0	316.56335520744324	
69	298.29448986053467	fix_post	2		12	67.0	2.5	/experiments/knapen_AOT/AOT_stimuli/rescaled_final/0126_fw.mp4	0.0	317.0715980529785	0.0999140739440918
70	298.39440393447876	fix_pre	0		120	68.0	2.5	/experiments/knapen_AOT/AOT_stimuli/rescaled_final/0033_rv.mp4	0.0	317.1715121269226	1.0001049041748047
70	299.38635206222534	pulse	0	t		68.0	2.5	/experiments/knapen_AOT/AOT_stimuli/rescaled_final/0033_rv.mp4	0.0	318.1634602546692	
70	299.39450883865356	movie	1		245	68.0	2.5	/experiments/knapen_AOT/AOT_stimuli/rescaled_final/0033_rv.mp4	0.0	318.1716170310974	2.508714199066162
70	300.9874289035797	pulse	1	t		68.0	2.5	/experiments/knapen_AOT/AOT_stimuli/rescaled_final/0033_rv.mp4	0.0	319.76453709602356	
70	301.9032230377197	fix_post	2		12	68.0	2.5	/experiments/knapen_AOT/AOT_stimuli/rescaled_final/0033_rv.mp4	0.0	320.6803312301636	0.10002994537353516
71	302.00325298309326	fix_pre	0		120	69.0	2.5	blank	1.0	320.7803611755371	1.0001599788665771
71	302.5868580341339	pulse	0	t		69.0	2.5	blank	1.0	321.36396622657776	
71	303.00341296195984	movie	1		300	69.0	2.5	blank	1.0	321.7805211544037	2.5003650188446045
71	304.1870949268341	pulse	1	t		69.0	2.5	blank	1.0	322.96420311927795	
71	305.50377798080444	fix_post	2		12	69.0	2.5	blank	1.0	324.2808861732483	0.10009598731994629
72	305.6038739681244	fix_pre	0		120	70.0	2.5	/experiments/knapen_AOT/AOT_stimuli/rescaled_final/1643_fw.mp4	0.0	324.38098216056824	1.0001299381256104
72	305.78732991218567	pulse	0	t		70.0	2.5	/experiments/knapen_AOT/AOT_stimuli/rescaled_final/1643_fw.mp4	0.0	324.5644381046295	
72	306.60400390625	movie	1		242	70.0	2.5	/experiments/knapen_AOT/AOT_stimuli/rescaled_final/1643_fw.mp4	0.0	325.38111209869385	2.500473976135254
72	307.38768696784973	pulse	1	t		70.0	2.5	/experiments/knapen_AOT/AOT_stimuli/rescaled_final/1643_fw.mp4	0.0	326.1647951602936	
72	308.98845386505127	pulse	1	t		70.0	2.5	/experiments/knapen_AOT/AOT_stimuli/rescaled_final/1643_fw.mp4	0.0	327.7655620574951	
72	309.10447788238525	fix_post	2		12	70.0	2.5	/experiments/knapen_AOT/AOT_stimuli/rescaled_final/1643_fw.mp4	0.0	327.8815860748291	0.09992218017578125
73	309.20440006256104	fix_pre	0		120	71.0	2.5	/experiments/knapen_AOT/AOT_stimuli/rescaled_final/0955_fw.mp4	0.0	327.9815082550049	1.000079870223999
73	310.20447993278503	movie	1		241	71.0	2.5	/experiments/knapen_AOT/AOT_stimuli/rescaled_final/0955_fw.mp4	0.0	328.9815881252289	2.492098093032837
73	310.58856892585754	pulse	1	t		71.0	2.5	/experiments/knapen_AOT/AOT_stimuli/rescaled_final/0955_fw.mp4	0.0	329.3656771183014	
73	312.18828296661377	pulse	1	t		71.0	2.5	/experiments/knapen_AOT/AOT_stimuli/rescaled_final/0955_fw.mp4	0.0	330.9653911590576	
73	312.69657802581787	fix_post	2		12	71.0	2.5	/experiments/knapen_AOT/AOT_stimuli/rescaled_final/0955_fw.mp4	0.0	331.4736862182617	0.09994101524353027
74	312.7965190410614	fix_pre	0		120	72.0	2.5	/experiments/knapen_AOT/AOT_stimuli/rescaled_final/0781_fw.mp4	0.0	331.57362723350525	1.0001559257507324
74	313.78864002227783	pulse	0	t		72.0	2.5	/experiments/knapen_AOT/AOT_stimuli/rescaled_final/0781_fw.mp4	0.0	332.5657482147217	
74	313.79667496681213	movie	1		245	72.0	2.5	/experiments/knapen_AOT/AOT_stimuli/rescaled_final/0781_fw.mp4	0.0	332.573783159256	2.508694887161255
74	315.38928389549255	pulse	1	t		72.0	2.5	/experiments/knapen_AOT/AOT_stimuli/rescaled_final/0781_fw.mp4	0.0	334.1663920879364	
74	316.3053698539734	fix_post	2		12	72.0	2.5	/experiments/knapen_AOT/AOT_stimuli/rescaled_final/0781_fw.mp4	0.0	335.08247804641724	0.10007715225219727
75	316.4054470062256	fix_pre	0		120	73.0	2.5	/experiments/knapen_AOT/AOT_stimuli/rescaled_final/1503_rv.mp4	0.0	335.18255519866943	1.0001800060272217
75	316.9890170097351	pulse	0	t		73.0	2.5	/experiments/knapen_AOT/AOT_stimuli/rescaled_final/1503_rv.mp4	0.0	335.76612520217896	
75	317.4056270122528	movie	1		243	73.0	2.5	/experiments/knapen_AOT/AOT_stimuli/rescaled_final/1503_rv.mp4	0.0	336.18273520469666	2.500433921813965
75	318.5893268585205	pulse	1	t		73.0	2.5	/experiments/knapen_AOT/AOT_stimuli/rescaled_final/1503_rv.mp4	0.0	337.36643505096436	
75	319.9060609340668	fix_post	2		12	73.0	2.5	/experiments/knapen_AOT/AOT_stimuli/rescaled_final/1503_rv.mp4	0.0	338.6831691265106	0.09992599487304688
76	320.0059869289398	fix_pre	0		120	74.0	2.5	/experiments/knapen_AOT/AOT_stimuli/rescaled_final/2052_fw.mp4	0.0	338.78309512138367	1.0001020431518555
76	320.18948698043823	pulse	0	t		74.0	2.5	/experiments/knapen_AOT/AOT_stimuli/rescaled_final/2052_fw.mp4	0.0	338.9665951728821	
76	321.0060889720917	movie	1		243	74.0	2.5	/experiments/knapen_AOT/AOT_stimuli/rescaled_final/2052_fw.mp4	0.0	339.7831971645355	2.500432014465332
76	321.7897460460663	pulse	1	t		74.0	2.5	/experiments/knapen_AOT/AOT_stimuli/rescaled_final/2052_fw.mp4	0.0	340.56685423851013	
76	323.3899459838867	pulse	1	t		74.0	2.5	/experiments/knapen_AOT/AOT_stimuli/rescaled_final/2052_fw.mp4	0.0	342.16705417633057	
76	323.506520986557	fix_post	2		12	74.0	2.5	/experiments/knapen_AOT/AOT_stimuli/rescaled_final/2052_fw.mp4	0.0	342.28362917900085	0.09995293617248535
77	323.6064739227295	fix_pre	0		120	75.0	2.5	/experiments/knapen_AOT/AOT_stimuli/rescaled_final/0127_fw.mp4	0.0	342.38358211517334	1.0001490116119385
77	324.60662293434143	movie	1		241	75.0	2.5	/experiments/knapen_AOT/AOT_stimuli/rescaled_final/0127_fw.mp4	0.0	343.3837311267853	2.492079973220825
77	324.9907429218292	pulse	1	t		75.0	2.5	/experiments/knapen_AOT/AOT_stimuli/rescaled_final/0127_fw.mp4	0.0	343.76785111427307	
77	326.59044790267944	pulse	1	t		75.0	2.5	/experiments/knapen_AOT/AOT_stimuli/rescaled_final/0127_fw.mp4	0.0	345.3675560951233	
77	327.09870290756226	fix_post	2		12	75.0	2.5	/experiments/knapen_AOT/AOT_stimuli/rescaled_final/0127_fw.mp4	0.0	345.8758111000061	0.09997797012329102
78	327.19868087768555	fix_pre	0		120	76.0	2.5	blank	1.0	345.9757890701294	1.0001280307769775
78	328.19075989723206	pulse	0	t		76.0	2.5	blank	1.0	346.9678680896759	
78	328.1988089084625	movie	1		301	76.0	2.5	blank	1.0	346.9759171009064	2.5087220668792725
78	329.7910599708557	pulse	1	t		76.0	2.5	blank	1.0	348.56816816329956	
78	330.7075309753418	fix_post	2		12	76.0	2.5	blank	1.0	349.48463916778564	0.10001206398010254
79	330.8075430393219	fix_pre	0		120	77.0	2.5	/experiments/knapen_AOT/AOT_stimuli/rescaled_final/1145_rv.mp4	0.0	349.58465123176575	1.0001749992370605
79	331.39129304885864	pulse	0	t		77.0	2.5	/experiments/knapen_AOT/AOT_stimuli/rescaled_final/1145_rv.mp4	0.0	350.1684012413025	
79	331.80771803855896	movie	1		244	77.0	2.5	/experiments/knapen_AOT/AOT_stimuli/rescaled_final/1145_rv.mp4	0.0	350.5848262310028	2.500393867492676
79	332.9915020465851	pulse	1	t		77.0	2.5	/experiments/knapen_AOT/AOT_stimuli/rescaled_final/1145_rv.mp4	0.0	351.76861023902893	
79	334.30811190605164	fix_post	2		12	77.0	2.5	/experiments/knapen_AOT/AOT_stimuli/rescaled_final/1145_rv.mp4	0.0	353.0852200984955	0.10001397132873535
80	334.40812587738037	fix_pre	0		120	78.0	2.5	/experiments/knapen_AOT/AOT_stimuli/rescaled_final/0412_rv.mp4	0.0	353.1852340698242	1.000148057937622
80	334.591668844223	pulse	0	t		78.0	2.5	/experiments/knapen_AOT/AOT_stimuli/rescaled_final/0412_rv.mp4	0.0	353.36877703666687	
80	335.408273935318	movie	1		244	78.0	2.5	/experiments/knapen_AOT/AOT_stimuli/rescaled_final/0412_rv.mp4	0.0	354.18538212776184	2.5003490447998047
80	336.18457889556885	pulse	1	t		78.0	2.5	/experiments/knapen_AOT/AOT_stimuli/rescaled_final/0412_rv.mp4	0.0	354.9616870880127	
80	337.79210805892944	pulse	1	t		78.0	2.5	/experiments/knapen_AOT/AOT_stimuli/rescaled_final/0412_rv.mp4	0.0	356.5692162513733	
80	337.9086229801178	fix_post	2		12	78.0	2.5	/experiments/knapen_AOT/AOT_stimuli/rescaled_final/0412_rv.mp4	0.0	356.68573117256165	0.10003304481506348
81	338.00865602493286	fix_pre	0		120	79.0	2.5	/experiments/knapen_AOT/AOT_stimuli/rescaled_final/1164_rv.mp4	0.0	356.7857642173767	1.0001208782196045
81	339.00877690315247	movie	1		242	79.0	2.5	/experiments/knapen_AOT/AOT_stimuli/rescaled_final/1164_rv.mp4	0.0	357.7858850955963	2.492072105407715
81	339.3928918838501	pulse	1	t		79.0	2.5	/experiments/knapen_AOT/AOT_stimuli/rescaled_final/1164_rv.mp4	0.0	358.17000007629395	
81	340.9853959083557	pulse	1	t		79.0	2.5	/experiments/knapen_AOT/AOT_stimuli/rescaled_final/1164_rv.mp4	0.0	359.76250410079956	
81	341.5008490085602	fix_post	2		12	79.0	2.5	/experiments/knapen_AOT/AOT_stimuli/rescaled_final/1164_rv.mp4	0.0	360.277957201004	0.10003185272216797
82	341.60088086128235	fix_pre	0		120	80.0	2.5	/experiments/knapen_AOT/AOT_stimuli/rescaled_final/0204_fw.mp4	0.0	360.3779890537262	1.0001511573791504
82	342.5852189064026	pulse	0	t		80.0	2.5	/experiments/knapen_AOT/AOT_stimuli/rescaled_final/0204_fw.mp4	0.0	361.36232709884644	
82	342.6010320186615	movie	1		244	80.0	2.5	/experiments/knapen_AOT/AOT_stimuli/rescaled_final/0204_fw.mp4	0.0	361.37814021110535	2.508646011352539
82	344.18471598625183	pulse	1	t		80.0	2.5	/experiments/knapen_AOT/AOT_stimuli/rescaled_final/0204_fw.mp4	0.0	362.9618241786957	
82	345.10967803001404	fix_post	2		9	80.0	2.5	/experiments/knapen_AOT/AOT_stimuli/rescaled_final/0204_fw.mp4	0.0	363.8867862224579	0.10004782676696777
83	345.209725856781	fix_pre	0		120	81.0	2.5	/experiments/knapen_AOT/AOT_stimuli/rescaled_final/0409_rv.mp4	0.0	363.98683404922485	1.0001580715179443
83	345.78494000434875	pulse	0	t		81.0	2.5	/experiments/knapen_AOT/AOT_stimuli/rescaled_final/0409_rv.mp4	0.0	364.5620481967926	
83	346.20988392829895	movie	1		243	81.0	2.5	/experiments/knapen_AOT/AOT_stimuli/rescaled_final/0409_rv.mp4	0.0	364.9869921207428	2.5004940032958984
83	347.3858540058136	pulse	1	t		81.0	2.5	/experiments/knapen_AOT/AOT_stimuli/rescaled_final/0409_rv.mp4	0.0	366.16296219825745	
83	348.71037793159485	fix_post	2		12	81.0	2.5	/experiments/knapen_AOT/AOT_stimuli/rescaled_final/0409_rv.mp4	0.0	367.4874861240387	0.09995198249816895
84	348.810329914093	fix_pre	0		120	82.0	2.5	/experiments/knapen_AOT/AOT_stimuli/rescaled_final/0577_fw.mp4	0.0	367.58743810653687	1.0000810623168945
84	348.98556995391846	pulse	0	t		82.0	2.5	/experiments/knapen_AOT/AOT_stimuli/rescaled_final/0577_fw.mp4	0.0	367.7626781463623	
84	349.8104109764099	movie	1		243	82.0	2.5	/experiments/knapen_AOT/AOT_stimuli/rescaled_final/0577_fw.mp4	0.0	368.58751916885376	2.500354051589966
84	350.5856409072876	pulse	1	t		82.0	2.5	/experiments/knapen_AOT/AOT_stimuli/rescaled_final/0577_fw.mp4	0.0	369.36274909973145	
84	352.1859049797058	pulse	1	t		82.0	2.5	/experiments/knapen_AOT/AOT_stimuli/rescaled_final/0577_fw.mp4	0.0	370.96301317214966	
84	352.3107650279999	fix_post	2		11	82.0	2.5	/experiments/knapen_AOT/AOT_stimuli/rescaled_final/0577_fw.mp4	0.0	371.0878732204437	0.09172201156616211
85	352.40248703956604	fix_pre	0		120	83.0	2.5	blank	1.0	371.1795952320099	1.0001089572906494
85	353.4025959968567	movie	1		300	83.0	2.5	blank	1.0	372.17970418930054	2.5003809928894043
85	353.78629899024963	pulse	1	t		83.0	2.5	blank	1.0	372.5634071826935	
85	355.38648891448975	pulse	1	t		83.0	2.5	blank	1.0	374.1635971069336	
85	355.9029769897461	fix_post	2		12	83.0	2.5	blank	1.0	374.68008518218994	0.10004901885986328
87	356.00302600860596	stim	0		1716					374.7801342010498	14.302242040634155
87	356.98665595054626	pulse	0	t						375.7637641429901	
87	358.58697295188904	pulse	0	t						377.3640811443329	
87	360.18722796440125	pulse	0	t						378.9643361568451	
87	361.7874119281769	pulse	0	t						380.5645201206207	
87	363.3876519203186	pulse	0	t						382.16476011276245	
87	364.98774886131287	pulse	0	t						383.7648570537567	
87	366.58804202079773	pulse	0	t						385.3651502132416	
87	368.18838906288147	pulse	0	t						386.9654972553253	
87	369.78857493400574	pulse	0	t						388.5656831264496	
