trial_nr	onset	event_type	phase	response	nr_frames	movie_index	movie_duration	movie_file	blank	onset_abs	duration
0	0.1579418182373047	stim	0		12					20.816324949264526	0.10021495819091797
0	0.2502448558807373	response	0	space						20.90862798690796	
1	0.25815677642822266	stim	0		4840					20.916539907455444	40.33328914642334
1	40.58477282524109	pulse	0	t						61.24315595626831	
1	40.59144592285156	stim	1		1717					61.249829053878784	14.308264970779419
1	42.18331694602966	pulse	1	t						62.841700077056885	
1	43.783331871032715	pulse	1	t						64.44171500205994	
1	45.38279986381531	pulse	1	t						66.04118299484253	
1	46.98296093940735	pulse	1	t						67.64134407043457	
1	48.58319282531738	pulse	1	t						69.2415759563446	
1	50.18328595161438	pulse	1	t						70.8416690826416	
1	51.783177852630615	pulse	1	t						72.44156098365784	
1	53.38315391540527	pulse	1	t						74.0415370464325	
2	54.89971089363098	fix_pre	0		11	0.0	2.5	/experiments/AOT/AOT_stimuli/rescaled_final/0201_fw.mp4	0.0	75.5580940246582	0.09168195724487305
2	54.98315787315369	pulse	0	t		0.0	2.5	/experiments/AOT/AOT_stimuli/rescaled_final/0201_fw.mp4	0.0	75.64154100418091	
2	54.991392850875854	movie	1		243	0.0	2.5	/experiments/AOT/AOT_stimuli/rescaled_final/0201_fw.mp4	0.0	75.64977598190308	2.5082590579986572
2	56.58259892463684	pulse	1	t		0.0	2.5	/experiments/AOT/AOT_stimuli/rescaled_final/0201_fw.mp4	0.0	77.24098205566406	
2	57.49965190887451	fix_post	2		12	0.0	2.5	/experiments/AOT/AOT_stimuli/rescaled_final/0201_fw.mp4	0.0	78.15803503990173	0.09996795654296875
3	57.59961986541748	fix_pre	0		120	1.0	2.5	/experiments/AOT/AOT_stimuli/rescaled_final/1052_rv.mp4	0.0	78.2580029964447	1.0000360012054443
3	58.18328595161438	pulse	0	t		1.0	2.5	/experiments/AOT/AOT_stimuli/rescaled_final/1052_rv.mp4	0.0	78.8416690826416	
3	58.599655866622925	movie	1		245	1.0	2.5	/experiments/AOT/AOT_stimuli/rescaled_final/1052_rv.mp4	0.0	79.25803899765015	2.499941110610962
3	59.78317880630493	pulse	1	t		1.0	2.5	/experiments/AOT/AOT_stimuli/rescaled_final/1052_rv.mp4	0.0	80.44156193733215	
3	61.09959697723389	fix_post	2		12	1.0	2.5	/experiments/AOT/AOT_stimuli/rescaled_final/1052_rv.mp4	0.0	81.75798010826111	0.10004091262817383
4	61.19963788986206	fix_pre	0		120	2.0	2.5	/experiments/AOT/AOT_stimuli/rescaled_final/0498_fw.mp4	0.0	81.85802102088928	1.000006914138794
4	61.38309383392334	pulse	0	t		2.0	2.5	/experiments/AOT/AOT_stimuli/rescaled_final/0498_fw.mp4	0.0	82.04147696495056	
4	62.199644804000854	movie	1		246	2.0	2.5	/experiments/AOT/AOT_stimuli/rescaled_final/0498_fw.mp4	0.0	82.85802793502808	2.4995691776275635
4	62.983205795288086	pulse	1	t		2.0	2.5	/experiments/AOT/AOT_stimuli/rescaled_final/0498_fw.mp4	0.0	83.64158892631531	
4	64.58171486854553	pulse	1	t		2.0	2.5	/experiments/AOT/AOT_stimuli/rescaled_final/0498_fw.mp4	0.0	85.24009799957275	
4	64.69921398162842	fix_post	2		12	2.0	2.5	/experiments/AOT/AOT_stimuli/rescaled_final/0498_fw.mp4	0.0	85.35759711265564	0.10035896301269531
5	64.79957294464111	fix_pre	0		120	3.0	2.5	/experiments/AOT/AOT_stimuli/rescaled_final/0940_rv.mp4	0.0	85.45795607566833	0.9996058940887451
5	65.79917883872986	movie	1		244	3.0	2.5	/experiments/AOT/AOT_stimuli/rescaled_final/0940_rv.mp4	0.0	86.45756196975708	2.5003559589385986
5	66.18308186531067	pulse	1	t		3.0	2.5	/experiments/AOT/AOT_stimuli/rescaled_final/0940_rv.mp4	0.0	86.84146499633789	
5	67.78306698799133	pulse	1	t		3.0	2.5	/experiments/AOT/AOT_stimuli/rescaled_final/0940_rv.mp4	0.0	88.44145011901855	
5	68.29953479766846	fix_post	2		12	3.0	2.5	/experiments/AOT/AOT_stimuli/rescaled_final/0940_rv.mp4	0.0	88.95791792869568	0.10000014305114746
6	68.3995349407196	fix_pre	0		119	4.0	2.5	/experiments/AOT/AOT_stimuli/rescaled_final/0758_rv.mp4	0.0	89.05791807174683	0.9917449951171875
6	69.38306879997253	pulse	0	t		4.0	2.5	/experiments/AOT/AOT_stimuli/rescaled_final/0758_rv.mp4	0.0	90.04145193099976	
6	69.39127993583679	movie	1		246	4.0	2.5	/experiments/AOT/AOT_stimuli/rescaled_final/0758_rv.mp4	0.0	90.04966306686401	2.508354902267456
6	70.98274183273315	pulse	1	t		4.0	2.5	/experiments/AOT/AOT_stimuli/rescaled_final/0758_rv.mp4	0.0	91.64112496376038	
6	71.89963483810425	fix_post	2		12	4.0	2.5	/experiments/AOT/AOT_stimuli/rescaled_final/0758_rv.mp4	0.0	92.55801796913147	0.09955096244812012
7	71.99918580055237	fix_pre	0		120	5.0	2.5	/experiments/AOT/AOT_stimuli/rescaled_final/1591_rv.mp4	0.0	92.65756893157959	1.000396966934204
7	72.58310389518738	pulse	0	t		5.0	2.5	/experiments/AOT/AOT_stimuli/rescaled_final/1591_rv.mp4	0.0	93.2414870262146	
7	72.99958276748657	movie	1		244	5.0	2.5	/experiments/AOT/AOT_stimuli/rescaled_final/1591_rv.mp4	0.0	93.6579658985138	2.500016212463379
7	74.1831648349762	pulse	1	t		5.0	2.5	/experiments/AOT/AOT_stimuli/rescaled_final/1591_rv.mp4	0.0	94.84154796600342	
7	75.49959897994995	fix_post	2		12	5.0	2.5	/experiments/AOT/AOT_stimuli/rescaled_final/1591_rv.mp4	0.0	96.15798211097717	0.10000801086425781
8	75.59960699081421	fix_pre	0		120	6.0	2.5	/experiments/AOT/AOT_stimuli/rescaled_final/0608_fw.mp4	0.0	96.25799012184143	0.999931812286377
8	75.78308081626892	pulse	0	t		6.0	2.5	/experiments/AOT/AOT_stimuli/rescaled_final/0608_fw.mp4	0.0	96.44146394729614	
8	76.59953880310059	movie	1		244	6.0	2.5	/experiments/AOT/AOT_stimuli/rescaled_final/0608_fw.mp4	0.0	97.25792193412781	2.4995880126953125
8	77.38307785987854	pulse	1	t		6.0	2.5	/experiments/AOT/AOT_stimuli/rescaled_final/0608_fw.mp4	0.0	98.04146099090576	
8	78.98167276382446	pulse	1	t		6.0	2.5	/experiments/AOT/AOT_stimuli/rescaled_final/0608_fw.mp4	0.0	99.64005589485168	
8	79.0991268157959	fix_post	2		12	6.0	2.5	/experiments/AOT/AOT_stimuli/rescaled_final/0608_fw.mp4	0.0	99.75750994682312	0.10045504570007324
9	79.19958186149597	fix_pre	0		120	7.0	2.5	blank	1.0	99.8579649925232	1.0000569820404053
9	80.19963884353638	movie	1		300	7.0	2.5	blank	1.0	100.8580219745636	2.4995059967041016
9	80.58304381370544	pulse	1	t		7.0	2.5	blank	1.0	101.24142694473267	
9	82.18312096595764	pulse	1	t		7.0	2.5	blank	1.0	102.84150409698486	
9	82.69914484024048	fix_post	2		12	7.0	2.5	blank	1.0	103.3575279712677	0.10043597221374512
10	82.79958081245422	fix_pre	0		119	8.0	2.5	/experiments/AOT/AOT_stimuli/rescaled_final/1940_fw.mp4	0.0	103.45796394348145	0.9915671348571777
10	83.78300881385803	pulse	0	t		8.0	2.5	/experiments/AOT/AOT_stimuli/rescaled_final/1940_fw.mp4	0.0	104.44139194488525	
10	83.7911479473114	movie	1		246	8.0	2.5	/experiments/AOT/AOT_stimuli/rescaled_final/1940_fw.mp4	0.0	104.44953107833862	2.507983922958374
10	85.38288378715515	pulse	1	t		8.0	2.5	/experiments/AOT/AOT_stimuli/rescaled_final/1940_fw.mp4	0.0	106.04126691818237	
10	86.29913187026978	fix_post	2		12	8.0	2.5	/experiments/AOT/AOT_stimuli/rescaled_final/1940_fw.mp4	0.0	106.957515001297	0.10043191909790039
11	86.39956378936768	fix_pre	0		120	9.0	2.5	/experiments/AOT/AOT_stimuli/rescaled_final/1489_rv.mp4	0.0	107.0579469203949	0.9999821186065674
11	86.98308181762695	pulse	0	t		9.0	2.5	/experiments/AOT/AOT_stimuli/rescaled_final/1489_rv.mp4	0.0	107.64146494865417	
11	87.39954590797424	movie	1		245	9.0	2.5	/experiments/AOT/AOT_stimuli/rescaled_final/1489_rv.mp4	0.0	108.05792903900146	2.5000109672546387
11	88.58310294151306	pulse	1	t		9.0	2.5	/experiments/AOT/AOT_stimuli/rescaled_final/1489_rv.mp4	0.0	109.24148607254028	
11	89.89955687522888	fix_post	2		12	9.0	2.5	/experiments/AOT/AOT_stimuli/rescaled_final/1489_rv.mp4	0.0	110.5579400062561	0.09998297691345215
12	89.99953985214233	fix_pre	0		120	10.0	2.5	/experiments/AOT/AOT_stimuli/rescaled_final/1444_fw.mp4	0.0	110.65792298316956	1.0000381469726562
12	90.18293190002441	pulse	0	t		10.0	2.5	/experiments/AOT/AOT_stimuli/rescaled_final/1444_fw.mp4	0.0	110.84131503105164	
12	90.99957799911499	movie	1		243	10.0	2.5	/experiments/AOT/AOT_stimuli/rescaled_final/1444_fw.mp4	0.0	111.65796113014221	2.4994888305664062
12	91.78302383422852	pulse	1	t		10.0	2.5	/experiments/AOT/AOT_stimuli/rescaled_final/1444_fw.mp4	0.0	112.44140696525574	
12	93.38148999214172	pulse	1	t		10.0	2.5	/experiments/AOT/AOT_stimuli/rescaled_final/1444_fw.mp4	0.0	114.03987312316895	
12	93.4990668296814	fix_post	2		12	10.0	2.5	/experiments/AOT/AOT_stimuli/rescaled_final/1444_fw.mp4	0.0	114.15744996070862	0.10048604011535645
13	93.59955286979675	fix_pre	0		120	11.0	2.5	/experiments/AOT/AOT_stimuli/rescaled_final/1873_fw.mp4	0.0	114.25793600082397	0.9994969367980957
13	94.59904980659485	movie	1		244	11.0	2.5	/experiments/AOT/AOT_stimuli/rescaled_final/1873_fw.mp4	0.0	115.25743293762207	2.500494956970215
13	94.98393297195435	pulse	1	t		11.0	2.5	/experiments/AOT/AOT_stimuli/rescaled_final/1873_fw.mp4	0.0	115.64231610298157	
13	96.58302998542786	pulse	1	t		11.0	2.5	/experiments/AOT/AOT_stimuli/rescaled_final/1873_fw.mp4	0.0	117.24141311645508	
13	97.09954476356506	fix_post	2		12	11.0	2.5	/experiments/AOT/AOT_stimuli/rescaled_final/1873_fw.mp4	0.0	117.75792789459229	0.09950017929077148
14	97.19904494285583	fix_pre	0		119	12.0	2.5	/experiments/AOT/AOT_stimuli/rescaled_final/1759_rv.mp4	0.0	117.85742807388306	0.9921309947967529
14	98.18313980102539	pulse	0	t		12.0	2.5	/experiments/AOT/AOT_stimuli/rescaled_final/1759_rv.mp4	0.0	118.84152293205261	
14	98.19117593765259	movie	1		245	12.0	2.5	/experiments/AOT/AOT_stimuli/rescaled_final/1759_rv.mp4	0.0	118.84955906867981	2.5082359313964844
14	99.78267884254456	pulse	1	t		12.0	2.5	/experiments/AOT/AOT_stimuli/rescaled_final/1759_rv.mp4	0.0	120.44106197357178	
14	100.69941186904907	fix_post	2		12	12.0	2.5	/experiments/AOT/AOT_stimuli/rescaled_final/1759_rv.mp4	0.0	121.3577950000763	0.10007500648498535
15	100.79948687553406	fix_pre	0		120	13.0	2.5	/experiments/AOT/AOT_stimuli/rescaled_final/1657_fw.mp4	0.0	121.45787000656128	0.9996209144592285
15	101.38257098197937	pulse	0	t		13.0	2.5	/experiments/AOT/AOT_stimuli/rescaled_final/1657_fw.mp4	0.0	122.04095411300659	
15	101.79910778999329	movie	1		243	13.0	2.5	/experiments/AOT/AOT_stimuli/rescaled_final/1657_fw.mp4	0.0	122.45749092102051	2.500310182571411
15	102.98314094543457	pulse	1	t		13.0	2.5	/experiments/AOT/AOT_stimuli/rescaled_final/1657_fw.mp4	0.0	123.64152407646179	
15	104.2994179725647	fix_post	2		12	13.0	2.5	/experiments/AOT/AOT_stimuli/rescaled_final/1657_fw.mp4	0.0	124.95780110359192	0.09998893737792969
16	104.39940690994263	fix_pre	0		120	14.0	2.5	blank	1.0	125.05779004096985	0.9997210502624512
16	104.5829119682312	pulse	0	t		14.0	2.5	blank	1.0	125.24129509925842	
16	105.39912796020508	movie	1		300	14.0	2.5	blank	1.0	126.0575110912323	2.500316858291626
16	106.18300199508667	pulse	1	t		14.0	2.5	blank	1.0	126.84138512611389	
16	107.78292798995972	pulse	1	t		14.0	2.5	blank	1.0	128.44131112098694	
16	107.8994448184967	fix_post	2		12	14.0	2.5	blank	1.0	128.55782794952393	0.10006999969482422
17	107.99951481819153	fix_pre	0		120	15.0	2.5	/experiments/AOT/AOT_stimuli/rescaled_final/0922_rv.mp4	0.0	128.65789794921875	0.9998409748077393
17	108.99935579299927	movie	1		246	15.0	2.5	/experiments/AOT/AOT_stimuli/rescaled_final/0922_rv.mp4	0.0	129.6577389240265	2.500042200088501
17	109.38273096084595	pulse	1	t		15.0	2.5	/experiments/AOT/AOT_stimuli/rescaled_final/0922_rv.mp4	0.0	130.04111409187317	
17	110.98295378684998	pulse	1	t		15.0	2.5	/experiments/AOT/AOT_stimuli/rescaled_final/0922_rv.mp4	0.0	131.6413369178772	
17	111.49939799308777	fix_post	2		12	15.0	2.5	/experiments/AOT/AOT_stimuli/rescaled_final/0922_rv.mp4	0.0	132.157781124115	0.09996700286865234
18	111.59936499595642	fix_pre	0		119	16.0	2.5	/experiments/AOT/AOT_stimuli/rescaled_final/1890_fw.mp4	0.0	132.25774812698364	0.9917089939117432
18	112.58283376693726	pulse	0	t		16.0	2.5	/experiments/AOT/AOT_stimuli/rescaled_final/1890_fw.mp4	0.0	133.24121689796448	
18	112.59107398986816	movie	1		246	16.0	2.5	/experiments/AOT/AOT_stimuli/rescaled_final/1890_fw.mp4	0.0	133.24945712089539	2.508328914642334
18	114.1824369430542	pulse	1	t		16.0	2.5	/experiments/AOT/AOT_stimuli/rescaled_final/1890_fw.mp4	0.0	134.84082007408142	
18	115.0994029045105	fix_post	2		12	16.0	2.5	/experiments/AOT/AOT_stimuli/rescaled_final/1890_fw.mp4	0.0	135.75778603553772	0.09996986389160156
19	115.1993727684021	fix_pre	0		120	17.0	2.5	/experiments/AOT/AOT_stimuli/rescaled_final/0901_fw.mp4	0.0	135.85775589942932	0.9995770454406738
19	115.78292298316956	pulse	0	t		17.0	2.5	/experiments/AOT/AOT_stimuli/rescaled_final/0901_fw.mp4	0.0	136.44130611419678	
19	116.19894981384277	movie	1		249	17.0	2.5	/experiments/AOT/AOT_stimuli/rescaled_final/0901_fw.mp4	0.0	136.85733294487	2.5003621578216553
19	117.38294696807861	pulse	1	t		17.0	2.5	/experiments/AOT/AOT_stimuli/rescaled_final/0901_fw.mp4	0.0	138.04133009910583	
19	118.69931197166443	fix_post	2		12	17.0	2.5	/experiments/AOT/AOT_stimuli/rescaled_final/0901_fw.mp4	0.0	139.35769510269165	0.10002779960632324
20	118.79933977127075	fix_pre	0		120	18.0	2.5	/experiments/AOT/AOT_stimuli/rescaled_final/0161_fw.mp4	0.0	139.45772290229797	1.0000591278076172
20	118.9828269481659	pulse	0	t		18.0	2.5	/experiments/AOT/AOT_stimuli/rescaled_final/0161_fw.mp4	0.0	139.64121007919312	
20	119.79939889907837	movie	1		243	18.0	2.5	/experiments/AOT/AOT_stimuli/rescaled_final/0161_fw.mp4	0.0	140.4577820301056	2.4999098777770996
20	120.58285999298096	pulse	1	t		18.0	2.5	/experiments/AOT/AOT_stimuli/rescaled_final/0161_fw.mp4	0.0	141.24124312400818	
20	122.18136096000671	pulse	1	t		18.0	2.5	/experiments/AOT/AOT_stimuli/rescaled_final/0161_fw.mp4	0.0	142.83974409103394	
20	122.29930877685547	fix_post	2		12	18.0	2.5	/experiments/AOT/AOT_stimuli/rescaled_final/0161_fw.mp4	0.0	142.9576919078827	0.10010814666748047
21	122.39941692352295	fix_pre	0		120	19.0	2.5	blank	1.0	143.05780005455017	0.9995079040527344
21	123.39892482757568	movie	1		300	19.0	2.5	blank	1.0	144.0573079586029	2.500368118286133
21	123.78286981582642	pulse	1	t		19.0	2.5	blank	1.0	144.44125294685364	
21	125.3828489780426	pulse	1	t		19.0	2.5	blank	1.0	146.04123210906982	
21	125.89929294586182	fix_post	2		12	19.0	2.5	blank	1.0	146.55767607688904	0.10004782676696777
22	125.99934077262878	fix_pre	0		119	20.0	2.5	/experiments/AOT/AOT_stimuli/rescaled_final/0280_rv.mp4	0.0	146.657723903656	0.9916660785675049
22	126.98288679122925	pulse	0	t		20.0	2.5	/experiments/AOT/AOT_stimuli/rescaled_final/0280_rv.mp4	0.0	147.64126992225647	
22	126.99100685119629	movie	1		245	20.0	2.5	/experiments/AOT/AOT_stimuli/rescaled_final/0280_rv.mp4	0.0	147.6493899822235	2.5083820819854736
22	128.58250284194946	pulse	1	t		20.0	2.5	/experiments/AOT/AOT_stimuli/rescaled_final/0280_rv.mp4	0.0	149.24088597297668	
22	129.49938893318176	fix_post	2		12	20.0	2.5	/experiments/AOT/AOT_stimuli/rescaled_final/0280_rv.mp4	0.0	150.15777206420898	0.09993791580200195
23	129.59932684898376	fix_pre	0		120	21.0	2.5	/experiments/AOT/AOT_stimuli/rescaled_final/1107_fw.mp4	0.0	150.257709980011	0.9999971389770508
23	130.1828169822693	pulse	0	t		21.0	2.5	/experiments/AOT/AOT_stimuli/rescaled_final/1107_fw.mp4	0.0	150.8412001132965	
23	130.59932398796082	movie	1		245	21.0	2.5	/experiments/AOT/AOT_stimuli/rescaled_final/1107_fw.mp4	0.0	151.25770711898804	2.4999468326568604
23	131.78280878067017	pulse	1	t		21.0	2.5	/experiments/AOT/AOT_stimuli/rescaled_final/1107_fw.mp4	0.0	152.4411919116974	
23	133.09927082061768	fix_post	2		12	21.0	2.5	/experiments/AOT/AOT_stimuli/rescaled_final/1107_fw.mp4	0.0	153.7576539516449	0.09999513626098633
24	133.19926595687866	fix_pre	0		120	22.0	2.5	/experiments/AOT/AOT_stimuli/rescaled_final/0455_rv.mp4	0.0	153.85764908790588	1.0001158714294434
24	133.38277983665466	pulse	0	t		22.0	2.5	/experiments/AOT/AOT_stimuli/rescaled_final/0455_rv.mp4	0.0	154.04116296768188	
24	134.1993818283081	movie	1		247	22.0	2.5	/experiments/AOT/AOT_stimuli/rescaled_final/0455_rv.mp4	0.0	154.85776495933533	2.4999141693115234
24	134.9827778339386	pulse	1	t		22.0	2.5	/experiments/AOT/AOT_stimuli/rescaled_final/0455_rv.mp4	0.0	155.64116096496582	
24	136.58277678489685	pulse	1	t		22.0	2.5	/experiments/AOT/AOT_stimuli/rescaled_final/0455_rv.mp4	0.0	157.24115991592407	
24	136.69929599761963	fix_post	2		12	22.0	2.5	/experiments/AOT/AOT_stimuli/rescaled_final/0455_rv.mp4	0.0	157.35767912864685	0.10001778602600098
25	136.79931378364563	fix_pre	0		120	23.0	2.5	/experiments/AOT/AOT_stimuli/rescaled_final/0800_fw.mp4	0.0	157.45769691467285	0.9996349811553955
25	137.79894876480103	movie	1		244	23.0	2.5	/experiments/AOT/AOT_stimuli/rescaled_final/0800_fw.mp4	0.0	158.45733189582825	2.499897003173828
25	138.18268394470215	pulse	1	t		23.0	2.5	/experiments/AOT/AOT_stimuli/rescaled_final/0800_fw.mp4	0.0	158.84106707572937	
25	139.78273582458496	pulse	1	t		23.0	2.5	/experiments/AOT/AOT_stimuli/rescaled_final/0800_fw.mp4	0.0	160.44111895561218	
25	140.29884576797485	fix_post	2		12	23.0	2.5	/experiments/AOT/AOT_stimuli/rescaled_final/0800_fw.mp4	0.0	160.95722889900208	0.1003580093383789
26	140.39920377731323	fix_pre	0		119	24.0	2.5	/experiments/AOT/AOT_stimuli/rescaled_final/0919_fw.mp4	0.0	161.05758690834045	0.9917151927947998
26	141.38282179832458	pulse	0	t		24.0	2.5	/experiments/AOT/AOT_stimuli/rescaled_final/0919_fw.mp4	0.0	162.0412049293518	
26	141.39091897010803	movie	1		244	24.0	2.5	/experiments/AOT/AOT_stimuli/rescaled_final/0919_fw.mp4	0.0	162.04930210113525	2.508327007293701
26	142.9825358390808	pulse	1	t		24.0	2.5	/experiments/AOT/AOT_stimuli/rescaled_final/0919_fw.mp4	0.0	163.64091897010803	
26	143.89924597740173	fix_post	2		12	24.0	2.5	/experiments/AOT/AOT_stimuli/rescaled_final/0919_fw.mp4	0.0	164.55762910842896	0.10000085830688477
27	143.99924683570862	fix_pre	0		120	25.0	2.5	/experiments/AOT/AOT_stimuli/rescaled_final/1110_rv.mp4	0.0	164.65762996673584	1.0000200271606445
27	144.5827419757843	pulse	0	t		25.0	2.5	/experiments/AOT/AOT_stimuli/rescaled_final/1110_rv.mp4	0.0	165.24112510681152	
27	144.99926686286926	movie	1		243	25.0	2.5	/experiments/AOT/AOT_stimuli/rescaled_final/1110_rv.mp4	0.0	165.65764999389648	2.499908924102783
27	146.18286395072937	pulse	1	t		25.0	2.5	/experiments/AOT/AOT_stimuli/rescaled_final/1110_rv.mp4	0.0	166.8412470817566	
27	147.49917578697205	fix_post	2		12	25.0	2.5	/experiments/AOT/AOT_stimuli/rescaled_final/1110_rv.mp4	0.0	168.15755891799927	0.10002899169921875
28	147.59920477867126	fix_pre	0		120	26.0	2.5	/experiments/AOT/AOT_stimuli/rescaled_final/0608_rv.mp4	0.0	168.2575879096985	1.0000081062316895
28	147.78275680541992	pulse	0	t		26.0	2.5	/experiments/AOT/AOT_stimuli/rescaled_final/0608_rv.mp4	0.0	168.44113993644714	
28	148.59921288490295	movie	1		243	26.0	2.5	/experiments/AOT/AOT_stimuli/rescaled_final/0608_rv.mp4	0.0	169.25759601593018	2.5000219345092773
28	149.3827679157257	pulse	1	t		26.0	2.5	/experiments/AOT/AOT_stimuli/rescaled_final/0608_rv.mp4	0.0	170.04115104675293	
28	150.9810848236084	pulse	1	t		26.0	2.5	/experiments/AOT/AOT_stimuli/rescaled_final/0608_rv.mp4	0.0	171.63946795463562	
28	151.09923481941223	fix_post	2		12	26.0	2.5	/experiments/AOT/AOT_stimuli/rescaled_final/0608_rv.mp4	0.0	171.75761795043945	0.09994316101074219
29	151.19917798042297	fix_pre	0		120	27.0	2.5	/experiments/AOT/AOT_stimuli/rescaled_final/1948_rv.mp4	0.0	171.8575611114502	0.9996459484100342
29	152.198823928833	movie	1		244	27.0	2.5	/experiments/AOT/AOT_stimuli/rescaled_final/1948_rv.mp4	0.0	172.85720705986023	2.5003490447998047
29	152.58283877372742	pulse	1	t		27.0	2.5	/experiments/AOT/AOT_stimuli/rescaled_final/1948_rv.mp4	0.0	173.24122190475464	
29	154.18269181251526	pulse	1	t		27.0	2.5	/experiments/AOT/AOT_stimuli/rescaled_final/1948_rv.mp4	0.0	174.84107494354248	
29	154.6991729736328	fix_post	2		12	27.0	2.5	/experiments/AOT/AOT_stimuli/rescaled_final/1948_rv.mp4	0.0	175.35755610466003	0.10002493858337402
30	154.7991979122162	fix_pre	0		119	28.0	2.5	blank	1.0	175.4575810432434	0.9917190074920654
30	155.7827479839325	pulse	0	t		28.0	2.5	blank	1.0	176.44113111495972	
30	155.79091691970825	movie	1		301	28.0	2.5	blank	1.0	176.44930005073547	2.5079948902130127
30	157.38225889205933	pulse	1	t		28.0	2.5	blank	1.0	178.04064202308655	
30	158.29891180992126	fix_post	2		12	28.0	2.5	blank	1.0	178.9572949409485	0.10007309913635254
31	158.39898490905762	fix_pre	0		120	29.0	2.5	/experiments/AOT/AOT_stimuli/rescaled_final/1836_fw.mp4	0.0	179.05736804008484	1.000472068786621
31	158.98284578323364	pulse	0	t		29.0	2.5	/experiments/AOT/AOT_stimuli/rescaled_final/1836_fw.mp4	0.0	179.64122891426086	
31	159.39945697784424	movie	1		245	29.0	2.5	/experiments/AOT/AOT_stimuli/rescaled_final/1836_fw.mp4	0.0	180.05784010887146	2.4997568130493164
31	160.58278393745422	pulse	1	t		29.0	2.5	/experiments/AOT/AOT_stimuli/rescaled_final/1836_fw.mp4	0.0	181.24116706848145	
31	161.89921379089355	fix_post	2		12	29.0	2.5	/experiments/AOT/AOT_stimuli/rescaled_final/1836_fw.mp4	0.0	182.55759692192078	0.10005712509155273
32	161.9992709159851	fix_pre	0		120	30.0	2.5	/experiments/AOT/AOT_stimuli/rescaled_final/1142_rv.mp4	0.0	182.65765404701233	0.9999289512634277
32	162.18268585205078	pulse	0	t		30.0	2.5	/experiments/AOT/AOT_stimuli/rescaled_final/1142_rv.mp4	0.0	182.841068983078	
32	162.99919986724854	movie	1		247	30.0	2.5	/experiments/AOT/AOT_stimuli/rescaled_final/1142_rv.mp4	0.0	183.65758299827576	2.499526023864746
32	163.7826588153839	pulse	1	t		30.0	2.5	/experiments/AOT/AOT_stimuli/rescaled_final/1142_rv.mp4	0.0	184.44104194641113	
32	165.38271284103394	pulse	1	t		30.0	2.5	/experiments/AOT/AOT_stimuli/rescaled_final/1142_rv.mp4	0.0	186.04109597206116	
32	165.49872589111328	fix_post	2		12	30.0	2.5	/experiments/AOT/AOT_stimuli/rescaled_final/1142_rv.mp4	0.0	186.1571090221405	0.10041499137878418
33	165.59914088249207	fix_pre	0		120	31.0	2.5	/experiments/AOT/AOT_stimuli/rescaled_final/2008_fw.mp4	0.0	186.2575240135193	0.9999270439147949
33	166.59906792640686	movie	1		244	31.0	2.5	/experiments/AOT/AOT_stimuli/rescaled_final/2008_fw.mp4	0.0	187.25745105743408	2.5000228881835938
33	166.9823088645935	pulse	1	t		31.0	2.5	/experiments/AOT/AOT_stimuli/rescaled_final/2008_fw.mp4	0.0	187.64069199562073	
33	168.58257699012756	pulse	1	t		31.0	2.5	/experiments/AOT/AOT_stimuli/rescaled_final/2008_fw.mp4	0.0	189.24096012115479	
33	169.09909081459045	fix_post	2		12	31.0	2.5	/experiments/AOT/AOT_stimuli/rescaled_final/2008_fw.mp4	0.0	189.75747394561768	0.10003399848937988
34	169.19912481307983	fix_pre	0		119	32.0	2.5	/experiments/AOT/AOT_stimuli/rescaled_final/1236_rv.mp4	0.0	189.85750794410706	0.9916520118713379
34	170.18261694908142	pulse	0	t		32.0	2.5	/experiments/AOT/AOT_stimuli/rescaled_final/1236_rv.mp4	0.0	190.84100008010864	
34	170.19077682495117	movie	1		244	32.0	2.5	/experiments/AOT/AOT_stimuli/rescaled_final/1236_rv.mp4	0.0	190.8491599559784	2.5078940391540527
34	171.782164812088	pulse	1	t		32.0	2.5	/experiments/AOT/AOT_stimuli/rescaled_final/1236_rv.mp4	0.0	192.44054794311523	
34	172.69867086410522	fix_post	2		12	32.0	2.5	/experiments/AOT/AOT_stimuli/rescaled_final/1236_rv.mp4	0.0	193.35705399513245	0.10053491592407227
35	172.7992057800293	fix_pre	0		120	33.0	2.5	blank	1.0	193.45758891105652	0.999871015548706
35	173.3825888633728	pulse	0	t		33.0	2.5	blank	1.0	194.04097199440002	
35	173.799076795578	movie	1		300	33.0	2.5	blank	1.0	194.45745992660522	2.5001790523529053
35	174.98274278640747	pulse	1	t		33.0	2.5	blank	1.0	195.6411259174347	
35	176.2992558479309	fix_post	2		12	33.0	2.5	blank	1.0	196.95763897895813	0.09980297088623047
36	176.39905881881714	fix_pre	0		120	34.0	2.5	/experiments/AOT/AOT_stimuli/rescaled_final/1283_fw.mp4	0.0	197.05744194984436	1.0001001358032227
36	176.5826449394226	pulse	0	t		34.0	2.5	/experiments/AOT/AOT_stimuli/rescaled_final/1283_fw.mp4	0.0	197.24102807044983	
36	177.39915895462036	movie	1		243	34.0	2.5	/experiments/AOT/AOT_stimuli/rescaled_final/1283_fw.mp4	0.0	198.05754208564758	2.499898910522461
36	178.1825819015503	pulse	1	t		34.0	2.5	/experiments/AOT/AOT_stimuli/rescaled_final/1283_fw.mp4	0.0	198.84096503257751	
36	179.78116989135742	pulse	1	t		34.0	2.5	/experiments/AOT/AOT_stimuli/rescaled_final/1283_fw.mp4	0.0	200.43955302238464	
36	179.89905786514282	fix_post	2		12	34.0	2.5	/experiments/AOT/AOT_stimuli/rescaled_final/1283_fw.mp4	0.0	200.55744099617004	0.10000300407409668
37	179.99906086921692	fix_pre	0		120	35.0	2.5	/experiments/AOT/AOT_stimuli/rescaled_final/1657_rv.mp4	0.0	200.65744400024414	0.999985933303833
37	180.99904680252075	movie	1		245	35.0	2.5	/experiments/AOT/AOT_stimuli/rescaled_final/1657_rv.mp4	0.0	201.65742993354797	2.5000271797180176
37	181.38290190696716	pulse	1	t		35.0	2.5	/experiments/AOT/AOT_stimuli/rescaled_final/1657_rv.mp4	0.0	202.04128503799438	
37	182.9825439453125	pulse	1	t		35.0	2.5	/experiments/AOT/AOT_stimuli/rescaled_final/1657_rv.mp4	0.0	203.64092707633972	
37	183.49907398223877	fix_post	2		12	35.0	2.5	/experiments/AOT/AOT_stimuli/rescaled_final/1657_rv.mp4	0.0	204.157457113266	0.09994387626647949
38	183.59901785850525	fix_pre	0		119	36.0	2.5	/experiments/AOT/AOT_stimuli/rescaled_final/1728_fw.mp4	0.0	204.25740098953247	0.9916880130767822
38	184.5825638771057	pulse	0	t		36.0	2.5	/experiments/AOT/AOT_stimuli/rescaled_final/1728_fw.mp4	0.0	205.24094700813293	
38	184.59070587158203	movie	1		244	36.0	2.5	/experiments/AOT/AOT_stimuli/rescaled_final/1728_fw.mp4	0.0	205.24908900260925	2.5083510875701904
38	186.1821939945221	pulse	1	t		36.0	2.5	/experiments/AOT/AOT_stimuli/rescaled_final/1728_fw.mp4	0.0	206.84057712554932	
38	187.09905695915222	fix_post	2		12	36.0	2.5	/experiments/AOT/AOT_stimuli/rescaled_final/1728_fw.mp4	0.0	207.75744009017944	0.09998083114624023
39	187.19903779029846	fix_pre	0		120	37.0	2.5	/experiments/AOT/AOT_stimuli/rescaled_final/0566_rv.mp4	0.0	207.85742092132568	0.9999539852142334
39	187.78257179260254	pulse	0	t		37.0	2.5	/experiments/AOT/AOT_stimuli/rescaled_final/0566_rv.mp4	0.0	208.44095492362976	
39	188.1989917755127	movie	1		244	37.0	2.5	/experiments/AOT/AOT_stimuli/rescaled_final/0566_rv.mp4	0.0	208.85737490653992	2.5000641345977783
39	189.38252687454224	pulse	1	t		37.0	2.5	/experiments/AOT/AOT_stimuli/rescaled_final/0566_rv.mp4	0.0	210.04091000556946	
39	190.69905591011047	fix_post	2		12	37.0	2.5	/experiments/AOT/AOT_stimuli/rescaled_final/0566_rv.mp4	0.0	211.3574390411377	0.09995508193969727
40	190.79901099205017	fix_pre	0		120	38.0	2.5	/experiments/AOT/AOT_stimuli/rescaled_final/0122_fw.mp4	0.0	211.4573941230774	1.0000410079956055
40	190.9824948310852	pulse	0	t		38.0	2.5	/experiments/AOT/AOT_stimuli/rescaled_final/0122_fw.mp4	0.0	211.64087796211243	
40	191.79905200004578	movie	1		243	38.0	2.5	/experiments/AOT/AOT_stimuli/rescaled_final/0122_fw.mp4	0.0	212.457435131073	2.49996280670166
40	192.58241987228394	pulse	1	t		38.0	2.5	/experiments/AOT/AOT_stimuli/rescaled_final/0122_fw.mp4	0.0	213.24080300331116	
40	194.18085980415344	pulse	1	t		38.0	2.5	/experiments/AOT/AOT_stimuli/rescaled_final/0122_fw.mp4	0.0	214.83924293518066	
40	194.29901480674744	fix_post	2		12	38.0	2.5	/experiments/AOT/AOT_stimuli/rescaled_final/0122_fw.mp4	0.0	214.95739793777466	0.09999704360961914
41	194.39901185035706	fix_pre	0		120	39.0	2.5	/experiments/AOT/AOT_stimuli/rescaled_final/1556_rv.mp4	0.0	215.05739498138428	0.9995889663696289
41	195.39860081672668	movie	1		245	39.0	2.5	/experiments/AOT/AOT_stimuli/rescaled_final/1556_rv.mp4	0.0	216.0569839477539	2.4999070167541504
41	195.78212094306946	pulse	1	t		39.0	2.5	/experiments/AOT/AOT_stimuli/rescaled_final/1556_rv.mp4	0.0	216.44050407409668	
41	197.38248491287231	pulse	1	t		39.0	2.5	/experiments/AOT/AOT_stimuli/rescaled_final/1556_rv.mp4	0.0	218.04086804389954	
41	197.89850783348083	fix_post	2		12	39.0	2.5	/experiments/AOT/AOT_stimuli/rescaled_final/1556_rv.mp4	0.0	218.55689096450806	0.1004641056060791
42	197.9989719390869	fix_pre	0		119	40.0	2.5	/experiments/AOT/AOT_stimuli/rescaled_final/0901_rv.mp4	0.0	218.65735507011414	0.9916558265686035
42	198.98252487182617	pulse	0	t		40.0	2.5	/experiments/AOT/AOT_stimuli/rescaled_final/0901_rv.mp4	0.0	219.6409080028534	
42	198.99062776565552	movie	1		250	40.0	2.5	/experiments/AOT/AOT_stimuli/rescaled_final/0901_rv.mp4	0.0	219.64901089668274	2.50789213180542
42	200.58194398880005	pulse	1	t		40.0	2.5	/experiments/AOT/AOT_stimuli/rescaled_final/0901_rv.mp4	0.0	221.24032711982727	
42	201.49851989746094	fix_post	2		12	40.0	2.5	/experiments/AOT/AOT_stimuli/rescaled_final/0901_rv.mp4	0.0	222.15690302848816	0.10044693946838379
43	201.59896683692932	fix_pre	0		120	41.0	2.5	/experiments/AOT/AOT_stimuli/rescaled_final/0441_fw.mp4	0.0	222.25734996795654	0.9999899864196777
43	202.18247985839844	pulse	0	t		41.0	2.5	/experiments/AOT/AOT_stimuli/rescaled_final/0441_fw.mp4	0.0	222.84086298942566	
43	202.598956823349	movie	1		243	41.0	2.5	/experiments/AOT/AOT_stimuli/rescaled_final/0441_fw.mp4	0.0	223.25733995437622	2.499997138977051
43	203.78253698349	pulse	1	t		41.0	2.5	/experiments/AOT/AOT_stimuli/rescaled_final/0441_fw.mp4	0.0	224.4409201145172	
43	205.09895396232605	fix_post	2		12	41.0	2.5	/experiments/AOT/AOT_stimuli/rescaled_final/0441_fw.mp4	0.0	225.75733709335327	0.09999990463256836
44	205.19895386695862	fix_pre	0		120	42.0	2.5	blank	1.0	225.85733699798584	1.0000379085540771
44	205.3825328350067	pulse	0	t		42.0	2.5	blank	1.0	226.04091596603394	
44	206.1989917755127	movie	1		300	42.0	2.5	blank	1.0	226.85737490653992	2.4999492168426514
44	206.98257994651794	pulse	1	t		42.0	2.5	blank	1.0	227.64096307754517	
44	208.58240485191345	pulse	1	t		42.0	2.5	blank	1.0	229.24078798294067	
44	208.69894099235535	fix_post	2		12	42.0	2.5	blank	1.0	229.35732412338257	0.09999990463256836
45	208.79894089698792	fix_pre	0		120	43.0	2.5	/experiments/AOT/AOT_stimuli/rescaled_final/0672_fw.mp4	0.0	229.45732402801514	0.999953031539917
45	209.79889392852783	movie	1		242	43.0	2.5	/experiments/AOT/AOT_stimuli/rescaled_final/0672_fw.mp4	0.0	230.45727705955505	2.4995899200439453
45	210.18222379684448	pulse	1	t		43.0	2.5	/experiments/AOT/AOT_stimuli/rescaled_final/0672_fw.mp4	0.0	230.8406069278717	
45	211.7823507785797	pulse	1	t		43.0	2.5	/experiments/AOT/AOT_stimuli/rescaled_final/0672_fw.mp4	0.0	232.44073390960693	
45	212.29848384857178	fix_post	2		12	43.0	2.5	/experiments/AOT/AOT_stimuli/rescaled_final/0672_fw.mp4	0.0	232.956866979599	0.10001111030578613
46	212.39849495887756	fix_pre	0		119	44.0	2.5	/experiments/AOT/AOT_stimuli/rescaled_final/1772_rv.mp4	0.0	233.05687808990479	0.9921259880065918
46	213.3821029663086	pulse	0	t		44.0	2.5	/experiments/AOT/AOT_stimuli/rescaled_final/1772_rv.mp4	0.0	234.04048609733582	
46	213.39062094688416	movie	1		244	44.0	2.5	/experiments/AOT/AOT_stimuli/rescaled_final/1772_rv.mp4	0.0	234.04900407791138	2.5083248615264893
46	214.98228979110718	pulse	1	t		44.0	2.5	/experiments/AOT/AOT_stimuli/rescaled_final/1772_rv.mp4	0.0	235.6406729221344	
46	215.89894580841064	fix_post	2		12	44.0	2.5	/experiments/AOT/AOT_stimuli/rescaled_final/1772_rv.mp4	0.0	236.55732893943787	0.09988617897033691
47	215.99883198738098	fix_pre	0		120	45.0	2.5	/experiments/AOT/AOT_stimuli/rescaled_final/1305_fw.mp4	0.0	236.6572151184082	1.000105857849121
47	216.5824329853058	pulse	0	t		45.0	2.5	/experiments/AOT/AOT_stimuli/rescaled_final/1305_fw.mp4	0.0	237.240816116333	
47	216.9989378452301	movie	1		244	45.0	2.5	/experiments/AOT/AOT_stimuli/rescaled_final/1305_fw.mp4	0.0	237.65732097625732	2.4995779991149902
47	218.18244981765747	pulse	1	t		45.0	2.5	/experiments/AOT/AOT_stimuli/rescaled_final/1305_fw.mp4	0.0	238.8408329486847	
47	219.4985158443451	fix_post	2		12	45.0	2.5	/experiments/AOT/AOT_stimuli/rescaled_final/1305_fw.mp4	0.0	240.15689897537231	0.10035514831542969
48	219.59887099266052	fix_pre	0		120	46.0	2.5	/experiments/AOT/AOT_stimuli/rescaled_final/0385_rv.mp4	0.0	240.25725412368774	1.0000197887420654
48	219.78255677223206	pulse	0	t		46.0	2.5	/experiments/AOT/AOT_stimuli/rescaled_final/0385_rv.mp4	0.0	240.44093990325928	
48	220.5988907814026	movie	1		246	46.0	2.5	/experiments/AOT/AOT_stimuli/rescaled_final/0385_rv.mp4	0.0	241.2572739124298	2.4999170303344727
48	221.38227891921997	pulse	1	t		46.0	2.5	/experiments/AOT/AOT_stimuli/rescaled_final/0385_rv.mp4	0.0	242.0406620502472	
48	222.98104977607727	pulse	1	t		46.0	2.5	/experiments/AOT/AOT_stimuli/rescaled_final/0385_rv.mp4	0.0	243.6394329071045	
48	223.09880781173706	fix_post	2		12	46.0	2.5	/experiments/AOT/AOT_stimuli/rescaled_final/0385_rv.mp4	0.0	243.75719094276428	0.10006499290466309
49	223.19887280464172	fix_pre	0		120	47.0	2.5	/experiments/AOT/AOT_stimuli/rescaled_final/2136_rv.mp4	0.0	243.85725593566895	0.999567985534668
49	224.1984407901764	movie	1		246	47.0	2.5	/experiments/AOT/AOT_stimuli/rescaled_final/2136_rv.mp4	0.0	244.8568239212036	2.500383138656616
49	224.58197379112244	pulse	1	t		47.0	2.5	/experiments/AOT/AOT_stimuli/rescaled_final/2136_rv.mp4	0.0	245.24035692214966	
49	226.18231296539307	pulse	1	t		47.0	2.5	/experiments/AOT/AOT_stimuli/rescaled_final/2136_rv.mp4	0.0	246.8406960964203	
49	226.698823928833	fix_post	2		12	47.0	2.5	/experiments/AOT/AOT_stimuli/rescaled_final/2136_rv.mp4	0.0	247.35720705986023	0.10021305084228516
50	226.7990369796753	fix_pre	0		119	48.0	2.5	blank	1.0	247.45742011070251	0.9915108680725098
50	227.7823247909546	pulse	0	t		48.0	2.5	blank	1.0	248.4407079219818	
50	227.7905478477478	movie	1		301	48.0	2.5	blank	1.0	248.44893097877502	2.5082221031188965
50	229.38229298591614	pulse	1	t		48.0	2.5	blank	1.0	250.04067611694336	
50	230.2987699508667	fix_post	2		12	48.0	2.5	blank	1.0	250.95715308189392	0.1000509262084961
51	230.3988208770752	fix_pre	0		120	49.0	2.5	/experiments/AOT/AOT_stimuli/rescaled_final/0124_fw.mp4	0.0	251.05720400810242	0.999967098236084
51	230.98237776756287	pulse	0	t		49.0	2.5	/experiments/AOT/AOT_stimuli/rescaled_final/0124_fw.mp4	0.0	251.6407608985901	
51	231.39878797531128	movie	1		243	49.0	2.5	/experiments/AOT/AOT_stimuli/rescaled_final/0124_fw.mp4	0.0	252.0571711063385	2.5000498294830322
51	232.58241891860962	pulse	1	t		49.0	2.5	/experiments/AOT/AOT_stimuli/rescaled_final/0124_fw.mp4	0.0	253.24080204963684	
51	233.8988378047943	fix_post	2		12	49.0	2.5	/experiments/AOT/AOT_stimuli/rescaled_final/0124_fw.mp4	0.0	254.55722093582153	0.09992504119873047
52	233.99876284599304	fix_pre	0		120	50.0	2.5	/experiments/AOT/AOT_stimuli/rescaled_final/1778_rv.mp4	0.0	254.65714597702026	1.0000529289245605
52	234.18233489990234	pulse	0	t		50.0	2.5	/experiments/AOT/AOT_stimuli/rescaled_final/1778_rv.mp4	0.0	254.84071803092957	
52	234.9988157749176	movie	1		244	50.0	2.5	/experiments/AOT/AOT_stimuli/rescaled_final/1778_rv.mp4	0.0	255.65719890594482	2.499528169631958
52	235.78236985206604	pulse	1	t		50.0	2.5	/experiments/AOT/AOT_stimuli/rescaled_final/1778_rv.mp4	0.0	256.44075298309326	
52	237.38103485107422	pulse	1	t		50.0	2.5	/experiments/AOT/AOT_stimuli/rescaled_final/1778_rv.mp4	0.0	258.03941798210144	
52	237.49834394454956	fix_post	2		12	50.0	2.5	/experiments/AOT/AOT_stimuli/rescaled_final/1778_rv.mp4	0.0	258.1567270755768	0.10046792030334473
53	237.5988118648529	fix_pre	0		120	51.0	2.5	/experiments/AOT/AOT_stimuli/rescaled_final/2127_rv.mp4	0.0	258.2571949958801	0.9999620914459229
53	238.59877395629883	movie	1		247	51.0	2.5	/experiments/AOT/AOT_stimuli/rescaled_final/2127_rv.mp4	0.0	259.25715708732605	2.500082015991211
53	238.98193287849426	pulse	1	t		51.0	2.5	/experiments/AOT/AOT_stimuli/rescaled_final/2127_rv.mp4	0.0	259.6403160095215	
53	240.58226585388184	pulse	1	t		51.0	2.5	/experiments/AOT/AOT_stimuli/rescaled_final/2127_rv.mp4	0.0	261.24064898490906	
53	241.09885597229004	fix_post	2		12	51.0	2.5	/experiments/AOT/AOT_stimuli/rescaled_final/2127_rv.mp4	0.0	261.75723910331726	0.09982585906982422
54	241.19868183135986	fix_pre	0		119	52.0	2.5	/experiments/AOT/AOT_stimuli/rescaled_final/0929_rv.mp4	0.0	261.8570649623871	0.9917459487915039
54	242.18217992782593	pulse	0	t		52.0	2.5	/experiments/AOT/AOT_stimuli/rescaled_final/0929_rv.mp4	0.0	262.84056305885315	
54	242.19042778015137	movie	1		249	52.0	2.5	/experiments/AOT/AOT_stimuli/rescaled_final/0929_rv.mp4	0.0	262.8488109111786	2.5078861713409424
54	243.78216791152954	pulse	1	t		52.0	2.5	/experiments/AOT/AOT_stimuli/rescaled_final/0929_rv.mp4	0.0	264.44055104255676	
54	244.6983139514923	fix_post	2		12	52.0	2.5	/experiments/AOT/AOT_stimuli/rescaled_final/0929_rv.mp4	0.0	265.35669708251953	0.10044503211975098
55	244.79875898361206	fix_pre	0		120	53.0	2.5	/experiments/AOT/AOT_stimuli/rescaled_final/1858_rv.mp4	0.0	265.4571421146393	1.0000178813934326
55	245.38350176811218	pulse	0	t		53.0	2.5	/experiments/AOT/AOT_stimuli/rescaled_final/1858_rv.mp4	0.0	266.0418848991394	
55	245.7987768650055	movie	1		244	53.0	2.5	/experiments/AOT/AOT_stimuli/rescaled_final/1858_rv.mp4	0.0	266.4571599960327	2.4995179176330566
55	246.98231887817383	pulse	1	t		53.0	2.5	/experiments/AOT/AOT_stimuli/rescaled_final/1858_rv.mp4	0.0	267.64070200920105	
55	248.29829478263855	fix_post	2		12	53.0	2.5	/experiments/AOT/AOT_stimuli/rescaled_final/1858_rv.mp4	0.0	268.95667791366577	0.1004781723022461
56	248.3987729549408	fix_pre	0		120	54.0	2.5	/experiments/AOT/AOT_stimuli/rescaled_final/1657_fw.mp4	0.0	269.057156085968	1.0000379085540771
56	248.58229398727417	pulse	0	t		54.0	2.5	/experiments/AOT/AOT_stimuli/rescaled_final/1657_fw.mp4	0.0	269.2406771183014	
56	249.39881086349487	movie	1		243	54.0	2.5	/experiments/AOT/AOT_stimuli/rescaled_final/1657_fw.mp4	0.0	270.0571939945221	2.4998700618743896
56	250.1821367740631	pulse	1	t		54.0	2.5	/experiments/AOT/AOT_stimuli/rescaled_final/1657_fw.mp4	0.0	270.84051990509033	
56	251.78057193756104	pulse	1	t		54.0	2.5	/experiments/AOT/AOT_stimuli/rescaled_final/1657_fw.mp4	0.0	272.43895506858826	
56	251.89868092536926	fix_post	2		12	54.0	2.5	/experiments/AOT/AOT_stimuli/rescaled_final/1657_fw.mp4	0.0	272.5570640563965	0.09999394416809082
57	251.99867486953735	fix_pre	0		120	55.0	2.5	/experiments/AOT/AOT_stimuli/rescaled_final/1630_fw.mp4	0.0	272.6570580005646	1.0001530647277832
57	252.99882793426514	movie	1		243	55.0	2.5	/experiments/AOT/AOT_stimuli/rescaled_final/1630_fw.mp4	0.0	273.65721106529236	2.49993896484375
57	253.38314080238342	pulse	1	t		55.0	2.5	/experiments/AOT/AOT_stimuli/rescaled_final/1630_fw.mp4	0.0	274.04152393341064	
57	254.98241782188416	pulse	1	t		55.0	2.5	/experiments/AOT/AOT_stimuli/rescaled_final/1630_fw.mp4	0.0	275.6408009529114	
57	255.4987668991089	fix_post	2		12	55.0	2.5	/experiments/AOT/AOT_stimuli/rescaled_final/1630_fw.mp4	0.0	276.1571500301361	0.09989500045776367
58	255.59866189956665	fix_pre	0		119	56.0	2.5	blank	1.0	276.2570450305939	0.9917519092559814
58	256.5822877883911	pulse	0	t		56.0	2.5	blank	1.0	277.24067091941833	
58	256.59041380882263	movie	1		301	56.0	2.5	blank	1.0	277.24879693984985	2.5083250999450684
58	258.1821928024292	pulse	1	t		56.0	2.5	blank	1.0	278.8405759334564	
58	259.0987389087677	fix_post	2		12	56.0	2.5	blank	1.0	279.7571220397949	0.09966802597045898
59	259.19840693473816	fix_pre	0		120	57.0	2.5	/experiments/AOT/AOT_stimuli/rescaled_final/1164_fw.mp4	0.0	279.8567900657654	1.0003280639648438
59	259.78221678733826	pulse	0	t		57.0	2.5	/experiments/AOT/AOT_stimuli/rescaled_final/1164_fw.mp4	0.0	280.4405999183655	
59	260.198734998703	movie	1		244	57.0	2.5	/experiments/AOT/AOT_stimuli/rescaled_final/1164_fw.mp4	0.0	280.8571181297302	2.4998369216918945
59	261.38223481178284	pulse	1	t		57.0	2.5	/experiments/AOT/AOT_stimuli/rescaled_final/1164_fw.mp4	0.0	282.04061794281006	
59	262.6985719203949	fix_post	2		12	57.0	2.5	/experiments/AOT/AOT_stimuli/rescaled_final/1164_fw.mp4	0.0	283.3569550514221	0.10012388229370117
60	262.7986958026886	fix_pre	0		120	58.0	2.5	/experiments/AOT/AOT_stimuli/rescaled_final/0672_rv.mp4	0.0	283.4570789337158	0.9999401569366455
60	262.9822509288788	pulse	0	t		58.0	2.5	/experiments/AOT/AOT_stimuli/rescaled_final/0672_rv.mp4	0.0	283.640634059906	
60	263.79863595962524	movie	1		243	58.0	2.5	/experiments/AOT/AOT_stimuli/rescaled_final/0672_rv.mp4	0.0	284.45701909065247	2.500074863433838
60	264.5821228027344	pulse	1	t		58.0	2.5	/experiments/AOT/AOT_stimuli/rescaled_final/0672_rv.mp4	0.0	285.2405059337616	
60	266.18047189712524	pulse	1	t		58.0	2.5	/experiments/AOT/AOT_stimuli/rescaled_final/0672_rv.mp4	0.0	286.83885502815247	
60	266.2987108230591	fix_post	2		12	58.0	2.5	/experiments/AOT/AOT_stimuli/rescaled_final/0672_rv.mp4	0.0	286.9570939540863	0.10003399848937988
61	266.39874482154846	fix_pre	0		120	59.0	2.5	/experiments/AOT/AOT_stimuli/rescaled_final/0936_fw.mp4	0.0	287.0571279525757	0.9999990463256836
61	267.39874386787415	movie	1		247	59.0	2.5	/experiments/AOT/AOT_stimuli/rescaled_final/0936_fw.mp4	0.0	288.05712699890137	2.4995429515838623
61	267.7817029953003	pulse	1	t		59.0	2.5	/experiments/AOT/AOT_stimuli/rescaled_final/0936_fw.mp4	0.0	288.4400861263275	
61	269.3816978931427	pulse	1	t		59.0	2.5	/experiments/AOT/AOT_stimuli/rescaled_final/0936_fw.mp4	0.0	290.0400810241699	
61	269.898286819458	fix_post	2		12	59.0	2.5	/experiments/AOT/AOT_stimuli/rescaled_final/0936_fw.mp4	0.0	290.55666995048523	0.10014915466308594
62	269.9984359741211	fix_pre	0		119	60.0	2.5	/experiments/AOT/AOT_stimuli/rescaled_final/1019_fw.mp4	0.0	290.6568191051483	0.9921669960021973
62	270.9823899269104	pulse	0	t		60.0	2.5	/experiments/AOT/AOT_stimuli/rescaled_final/1019_fw.mp4	0.0	291.6407730579376	
62	270.9906029701233	movie	1		247	60.0	2.5	/experiments/AOT/AOT_stimuli/rescaled_final/1019_fw.mp4	0.0	291.6489861011505	2.50809383392334
62	272.5818088054657	pulse	1	t		60.0	2.5	/experiments/AOT/AOT_stimuli/rescaled_final/1019_fw.mp4	0.0	293.2401919364929	
62	273.49869680404663	fix_post	2		12	60.0	2.5	/experiments/AOT/AOT_stimuli/rescaled_final/1019_fw.mp4	0.0	294.15707993507385	0.09998011589050293
63	273.59867691993713	fix_pre	0		120	61.0	2.5	/experiments/AOT/AOT_stimuli/rescaled_final/2167_fw.mp4	0.0	294.25706005096436	0.999992847442627
63	274.1821389198303	pulse	0	t		61.0	2.5	/experiments/AOT/AOT_stimuli/rescaled_final/2167_fw.mp4	0.0	294.84052205085754	
63	274.59866976737976	movie	1		245	61.0	2.5	/experiments/AOT/AOT_stimuli/rescaled_final/2167_fw.mp4	0.0	295.257052898407	2.499955177307129
63	275.7821078300476	pulse	1	t		61.0	2.5	/experiments/AOT/AOT_stimuli/rescaled_final/2167_fw.mp4	0.0	296.44049096107483	
63	277.0986249446869	fix_post	2		12	61.0	2.5	/experiments/AOT/AOT_stimuli/rescaled_final/2167_fw.mp4	0.0	297.7570080757141	0.09997797012329102
64	277.1986029148102	fix_pre	0		120	62.0	2.5	blank	1.0	297.8569860458374	1.0000050067901611
64	277.3820068836212	pulse	0	t		62.0	2.5	blank	1.0	298.04039001464844	
64	278.19860792160034	movie	1		300	62.0	2.5	blank	1.0	298.85699105262756	2.4995999336242676
64	278.9820718765259	pulse	1	t		62.0	2.5	blank	1.0	299.6404550075531	
64	280.58198285102844	pulse	1	t		62.0	2.5	blank	1.0	301.24036598205566	
64	280.6982078552246	fix_post	2		12	62.0	2.5	blank	1.0	301.35659098625183	0.1003720760345459
65	280.79857993125916	fix_pre	0		120	63.0	2.5	/experiments/AOT/AOT_stimuli/rescaled_final/2020_fw.mp4	0.0	301.4569630622864	1.0000569820404053
65	281.79863691329956	movie	1		242	63.0	2.5	/experiments/AOT/AOT_stimuli/rescaled_final/2020_fw.mp4	0.0	302.4570200443268	2.49995493888855
65	282.181587934494	pulse	1	t		63.0	2.5	/experiments/AOT/AOT_stimuli/rescaled_final/2020_fw.mp4	0.0	302.83997106552124	
65	283.78203082084656	pulse	1	t		63.0	2.5	/experiments/AOT/AOT_stimuli/rescaled_final/2020_fw.mp4	0.0	304.4404139518738	
65	284.2985918521881	fix_post	2		12	63.0	2.5	/experiments/AOT/AOT_stimuli/rescaled_final/2020_fw.mp4	0.0	304.95697498321533	0.10001707077026367
66	284.3986089229584	fix_pre	0		119	64.0	2.5	/experiments/AOT/AOT_stimuli/rescaled_final/1858_rv.mp4	0.0	305.0569920539856	0.9916238784790039
66	285.38203477859497	pulse	0	t		64.0	2.5	/experiments/AOT/AOT_stimuli/rescaled_final/1858_rv.mp4	0.0	306.0404179096222	
66	285.3902328014374	movie	1		244	64.0	2.5	/experiments/AOT/AOT_stimuli/rescaled_final/1858_rv.mp4	0.0	306.0486159324646	2.508308172225952
66	286.98167991638184	pulse	1	t		64.0	2.5	/experiments/AOT/AOT_stimuli/rescaled_final/1858_rv.mp4	0.0	307.64006304740906	
66	287.89854097366333	fix_post	2		12	64.0	2.5	/experiments/AOT/AOT_stimuli/rescaled_final/1858_rv.mp4	0.0	308.55692410469055	0.10000801086425781
67	287.9985489845276	fix_pre	0		120	65.0	2.5	/experiments/AOT/AOT_stimuli/rescaled_final/1386_fw.mp4	0.0	308.6569321155548	1.0000298023223877
67	288.5819659233093	pulse	0	t		65.0	2.5	/experiments/AOT/AOT_stimuli/rescaled_final/1386_fw.mp4	0.0	309.24034905433655	
67	288.99857878685	movie	1		244	65.0	2.5	/experiments/AOT/AOT_stimuli/rescaled_final/1386_fw.mp4	0.0	309.6569619178772	2.4995651245117188
67	290.1820948123932	pulse	1	t		65.0	2.5	/experiments/AOT/AOT_stimuli/rescaled_final/1386_fw.mp4	0.0	310.8404779434204	
67	291.4981439113617	fix_post	2		12	65.0	2.5	/experiments/AOT/AOT_stimuli/rescaled_final/1386_fw.mp4	0.0	312.1565270423889	0.10037088394165039
68	291.59851479530334	fix_pre	0		120	66.0	2.5	/experiments/AOT/AOT_stimuli/rescaled_final/1023_fw.mp4	0.0	312.25689792633057	1.0000782012939453
68	291.78206276893616	pulse	0	t		66.0	2.5	/experiments/AOT/AOT_stimuli/rescaled_final/1023_fw.mp4	0.0	312.4404458999634	
68	292.5985929965973	movie	1		243	66.0	2.5	/experiments/AOT/AOT_stimuli/rescaled_final/1023_fw.mp4	0.0	313.2569761276245	2.499910831451416
68	293.3820388317108	pulse	1	t		66.0	2.5	/experiments/AOT/AOT_stimuli/rescaled_final/1023_fw.mp4	0.0	314.04042196273804	
68	294.98060488700867	pulse	1	t		66.0	2.5	/experiments/AOT/AOT_stimuli/rescaled_final/1023_fw.mp4	0.0	315.6389880180359	
68	295.0985038280487	fix_post	2		12	66.0	2.5	/experiments/AOT/AOT_stimuli/rescaled_final/1023_fw.mp4	0.0	315.7568869590759	0.09991598129272461
69	295.19841980934143	fix_pre	0		120	67.0	2.5	/experiments/AOT/AOT_stimuli/rescaled_final/0263_fw.mp4	0.0	315.85680294036865	1.000133991241455
69	296.1985538005829	movie	1		244	67.0	2.5	/experiments/AOT/AOT_stimuli/rescaled_final/0263_fw.mp4	0.0	316.8569369316101	2.4994699954986572
69	296.5814697742462	pulse	1	t		67.0	2.5	/experiments/AOT/AOT_stimuli/rescaled_final/0263_fw.mp4	0.0	317.23985290527344	
69	298.1819999217987	pulse	1	t		67.0	2.5	/experiments/AOT/AOT_stimuli/rescaled_final/0263_fw.mp4	0.0	318.8403830528259	
69	298.69802379608154	fix_post	2		12	67.0	2.5	/experiments/AOT/AOT_stimuli/rescaled_final/0263_fw.mp4	0.0	319.35640692710876	0.10043716430664062
70	298.7984609603882	fix_pre	0		119	68.0	2.5	/experiments/AOT/AOT_stimuli/rescaled_final/0740_fw.mp4	0.0	319.4568440914154	0.9917700290679932
70	299.78193187713623	pulse	0	t		68.0	2.5	/experiments/AOT/AOT_stimuli/rescaled_final/0740_fw.mp4	0.0	320.44031500816345	
70	299.7902309894562	movie	1		247	68.0	2.5	/experiments/AOT/AOT_stimuli/rescaled_final/0740_fw.mp4	0.0	320.4486141204834	2.508283853530884
70	301.38194394111633	pulse	1	t		68.0	2.5	/experiments/AOT/AOT_stimuli/rescaled_final/0740_fw.mp4	0.0	322.04032707214355	
70	302.29851484298706	fix_post	2		12	68.0	2.5	/experiments/AOT/AOT_stimuli/rescaled_final/0740_fw.mp4	0.0	322.9568979740143	0.09994006156921387
71	302.3984549045563	fix_pre	0		120	69.0	2.5	blank	1.0	323.0568380355835	0.9999909400939941
71	302.9820809364319	pulse	0	t		69.0	2.5	blank	1.0	323.6404640674591	
71	303.39844584465027	movie	1		300	69.0	2.5	blank	1.0	324.0568289756775	2.5000240802764893
71	304.58203196525574	pulse	1	t		69.0	2.5	blank	1.0	325.24041509628296	
71	305.89846992492676	fix_post	2		12	69.0	2.5	blank	1.0	326.556853055954	0.09996986389160156
72	305.99843978881836	fix_pre	0		120	70.0	2.5	/experiments/AOT/AOT_stimuli/rescaled_final/0750_rv.mp4	0.0	326.6568229198456	1.0000581741333008
72	306.18201899528503	pulse	0	t		70.0	2.5	/experiments/AOT/AOT_stimuli/rescaled_final/0750_rv.mp4	0.0	326.84040212631226	
72	306.99849796295166	movie	1		246	70.0	2.5	/experiments/AOT/AOT_stimuli/rescaled_final/0750_rv.mp4	0.0	327.6568810939789	2.499562978744507
72	307.7819697856903	pulse	1	t		70.0	2.5	/experiments/AOT/AOT_stimuli/rescaled_final/0750_rv.mp4	0.0	328.44035291671753	
72	309.3804099559784	pulse	1	t		70.0	2.5	/experiments/AOT/AOT_stimuli/rescaled_final/0750_rv.mp4	0.0	330.0387930870056	
72	309.49806094169617	fix_post	2		12	70.0	2.5	/experiments/AOT/AOT_stimuli/rescaled_final/0750_rv.mp4	0.0	330.1564440727234	0.10045003890991211
73	309.5985109806061	fix_pre	0		120	71.0	2.5	/experiments/AOT/AOT_stimuli/rescaled_final/0936_rv.mp4	0.0	330.2568941116333	0.9999477863311768
73	310.59845876693726	movie	1		246	71.0	2.5	/experiments/AOT/AOT_stimuli/rescaled_final/0936_rv.mp4	0.0	331.2568418979645	2.499997138977051
73	310.9820227622986	pulse	1	t		71.0	2.5	/experiments/AOT/AOT_stimuli/rescaled_final/0936_rv.mp4	0.0	331.6404058933258	
73	312.5819718837738	pulse	1	t		71.0	2.5	/experiments/AOT/AOT_stimuli/rescaled_final/0936_rv.mp4	0.0	333.240355014801	
73	313.0984559059143	fix_post	2		12	71.0	2.5	/experiments/AOT/AOT_stimuli/rescaled_final/0936_rv.mp4	0.0	333.7568390369415	0.09988903999328613
74	313.1983449459076	fix_pre	0		119	72.0	2.5	/experiments/AOT/AOT_stimuli/rescaled_final/1415_rv.mp4	0.0	333.8567280769348	0.9917588233947754
74	314.18192076683044	pulse	0	t		72.0	2.5	/experiments/AOT/AOT_stimuli/rescaled_final/1415_rv.mp4	0.0	334.84030389785767	
74	314.19010376930237	movie	1		244	72.0	2.5	/experiments/AOT/AOT_stimuli/rescaled_final/1415_rv.mp4	0.0	334.8484869003296	2.5082380771636963
74	315.78231978416443	pulse	1	t		72.0	2.5	/experiments/AOT/AOT_stimuli/rescaled_final/1415_rv.mp4	0.0	336.44070291519165	
74	316.69834184646606	fix_post	2		12	72.0	2.5	/experiments/AOT/AOT_stimuli/rescaled_final/1415_rv.mp4	0.0	337.3567249774933	0.10013508796691895
75	316.798476934433	fix_pre	0		120	73.0	2.5	/experiments/AOT/AOT_stimuli/rescaled_final/1940_rv.mp4	0.0	337.4568600654602	0.9999668598175049
75	317.381942987442	pulse	0	t		73.0	2.5	/experiments/AOT/AOT_stimuli/rescaled_final/1940_rv.mp4	0.0	338.04032611846924	
75	317.7984437942505	movie	1		244	73.0	2.5	/experiments/AOT/AOT_stimuli/rescaled_final/1940_rv.mp4	0.0	338.4568269252777	2.4995319843292236
75	318.98194885253906	pulse	1	t		73.0	2.5	/experiments/AOT/AOT_stimuli/rescaled_final/1940_rv.mp4	0.0	339.6403319835663	
75	320.2979757785797	fix_post	2		12	73.0	2.5	/experiments/AOT/AOT_stimuli/rescaled_final/1940_rv.mp4	0.0	340.95635890960693	0.10045909881591797
76	320.39843487739563	fix_pre	0		120	74.0	2.5	/experiments/AOT/AOT_stimuli/rescaled_final/2020_rv.mp4	0.0	341.05681800842285	0.9995300769805908
76	320.58197689056396	pulse	0	t		74.0	2.5	/experiments/AOT/AOT_stimuli/rescaled_final/2020_rv.mp4	0.0	341.2403600215912	
76	321.3979649543762	movie	1		243	74.0	2.5	/experiments/AOT/AOT_stimuli/rescaled_final/2020_rv.mp4	0.0	342.05634808540344	2.500466823577881
76	322.181884765625	pulse	1	t		74.0	2.5	/experiments/AOT/AOT_stimuli/rescaled_final/2020_rv.mp4	0.0	342.8402678966522	
76	323.78043484687805	pulse	1	t		74.0	2.5	/experiments/AOT/AOT_stimuli/rescaled_final/2020_rv.mp4	0.0	344.4388179779053	
76	323.8984317779541	fix_post	2		12	74.0	2.5	/experiments/AOT/AOT_stimuli/rescaled_final/2020_rv.mp4	0.0	344.5568149089813	0.0999760627746582
77	323.99840784072876	fix_pre	0		120	75.0	2.5	/experiments/AOT/AOT_stimuli/rescaled_final/0547_fw.mp4	0.0	344.656790971756	0.9999549388885498
77	324.9983627796173	movie	1		245	75.0	2.5	/experiments/AOT/AOT_stimuli/rescaled_final/0547_fw.mp4	0.0	345.65674591064453	2.500319004058838
77	325.381071805954	pulse	1	t		75.0	2.5	/experiments/AOT/AOT_stimuli/rescaled_final/0547_fw.mp4	0.0	346.0394549369812	
77	326.98211193084717	pulse	1	t		75.0	2.5	/experiments/AOT/AOT_stimuli/rescaled_final/0547_fw.mp4	0.0	347.6404950618744	
77	327.49868178367615	fix_post	2		12	75.0	2.5	/experiments/AOT/AOT_stimuli/rescaled_final/0547_fw.mp4	0.0	348.15706491470337	0.09962320327758789
78	327.59830498695374	fix_pre	0		119	76.0	2.5	blank	1.0	348.25668811798096	0.9917018413543701
78	328.581937789917	pulse	0	t		76.0	2.5	blank	1.0	349.2403209209442	
78	328.5900068283081	movie	1		301	76.0	2.5	blank	1.0	349.2483899593353	2.50832200050354
78	330.181843996048	pulse	1	t		76.0	2.5	blank	1.0	350.8402271270752	
78	331.09832882881165	fix_post	2		12	76.0	2.5	blank	1.0	351.75671195983887	0.10008597373962402
79	331.19841480255127	fix_pre	0		120	77.0	2.5	/experiments/AOT/AOT_stimuli/rescaled_final/1797_fw.mp4	0.0	351.8567979335785	0.9999661445617676
79	331.78181982040405	pulse	0	t		77.0	2.5	/experiments/AOT/AOT_stimuli/rescaled_final/1797_fw.mp4	0.0	352.4402029514313	
79	332.19838094711304	movie	1		248	77.0	2.5	/experiments/AOT/AOT_stimuli/rescaled_final/1797_fw.mp4	0.0	352.85676407814026	2.4995310306549072
79	333.3818588256836	pulse	1	t		77.0	2.5	/experiments/AOT/AOT_stimuli/rescaled_final/1797_fw.mp4	0.0	354.0402419567108	
79	334.69791197776794	fix_post	2		12	77.0	2.5	/experiments/AOT/AOT_stimuli/rescaled_final/1797_fw.mp4	0.0	355.35629510879517	0.10040998458862305
80	334.79832196235657	fix_pre	0		120	78.0	2.5	/experiments/AOT/AOT_stimuli/rescaled_final/2123_fw.mp4	0.0	355.4567050933838	0.9999568462371826
80	334.9818618297577	pulse	0	t		78.0	2.5	/experiments/AOT/AOT_stimuli/rescaled_final/2123_fw.mp4	0.0	355.6402449607849	
80	335.79827880859375	movie	1		246	78.0	2.5	/experiments/AOT/AOT_stimuli/rescaled_final/2123_fw.mp4	0.0	356.456661939621	2.500040054321289
80	336.5817949771881	pulse	1	t		78.0	2.5	/experiments/AOT/AOT_stimuli/rescaled_final/2123_fw.mp4	0.0	357.24017810821533	
80	338.1806938648224	pulse	1	t		78.0	2.5	/experiments/AOT/AOT_stimuli/rescaled_final/2123_fw.mp4	0.0	358.8390769958496	
80	338.29831886291504	fix_post	2		12	78.0	2.5	/experiments/AOT/AOT_stimuli/rescaled_final/2123_fw.mp4	0.0	358.95670199394226	0.09951400756835938
81	338.3978328704834	fix_pre	0		120	79.0	2.5	/experiments/AOT/AOT_stimuli/rescaled_final/1433_rv.mp4	0.0	359.0562160015106	1.0004479885101318
81	339.39828085899353	movie	1		245	79.0	2.5	/experiments/AOT/AOT_stimuli/rescaled_final/1433_rv.mp4	0.0	360.05666399002075	2.499579906463623
81	339.7813699245453	pulse	1	t		79.0	2.5	/experiments/AOT/AOT_stimuli/rescaled_final/1433_rv.mp4	0.0	360.4397530555725	
81	341.3817708492279	pulse	1	t		79.0	2.5	/experiments/AOT/AOT_stimuli/rescaled_final/1433_rv.mp4	0.0	362.0401539802551	
81	341.89786076545715	fix_post	2		12	79.0	2.5	/experiments/AOT/AOT_stimuli/rescaled_final/1433_rv.mp4	0.0	362.5562438964844	0.10045909881591797
82	341.99831986427307	fix_pre	0		119	80.0	2.5	/experiments/AOT/AOT_stimuli/rescaled_final/1810_rv.mp4	0.0	362.6567029953003	0.9916369915008545
82	342.98175287246704	pulse	0	t		80.0	2.5	/experiments/AOT/AOT_stimuli/rescaled_final/1810_rv.mp4	0.0	363.64013600349426	
82	342.9899568557739	movie	1		245	80.0	2.5	/experiments/AOT/AOT_stimuli/rescaled_final/1810_rv.mp4	0.0	363.64833998680115	2.507939100265503
82	344.58125376701355	pulse	1	t		80.0	2.5	/experiments/AOT/AOT_stimuli/rescaled_final/1810_rv.mp4	0.0	365.23963689804077	
82	345.49789595603943	fix_post	2		12	80.0	2.5	/experiments/AOT/AOT_stimuli/rescaled_final/1810_rv.mp4	0.0	366.15627908706665	0.09995698928833008
83	345.59785294532776	fix_pre	0		120	81.0	2.5	/experiments/AOT/AOT_stimuli/rescaled_final/1705_fw.mp4	0.0	366.256236076355	1.000424861907959
83	346.1817789077759	pulse	0	t		81.0	2.5	/experiments/AOT/AOT_stimuli/rescaled_final/1705_fw.mp4	0.0	366.8401620388031	
83	346.5982778072357	movie	1		244	81.0	2.5	/experiments/AOT/AOT_stimuli/rescaled_final/1705_fw.mp4	0.0	367.25666093826294	2.499962091445923
83	347.78175497055054	pulse	1	t		81.0	2.5	/experiments/AOT/AOT_stimuli/rescaled_final/1705_fw.mp4	0.0	368.44013810157776	
83	349.09823989868164	fix_post	2		12	81.0	2.5	/experiments/AOT/AOT_stimuli/rescaled_final/1705_fw.mp4	0.0	369.75662302970886	0.09995198249816895
84	349.1981918811798	fix_pre	0		120	82.0	2.5	blank	1.0	369.85657501220703	1.0002400875091553
84	349.3817389011383	pulse	0	t		82.0	2.5	blank	1.0	370.0401220321655	
84	350.19843196868896	movie	1		300	82.0	2.5	blank	1.0	370.8568150997162	2.4998409748077393
84	350.98168182373047	pulse	1	t		82.0	2.5	blank	1.0	371.6400649547577	
84	352.58168387413025	pulse	1	t		82.0	2.5	blank	1.0	373.24006700515747	
84	352.6982729434967	fix_post	2		12	82.0	2.5	blank	1.0	373.3566560745239	0.10002493858337402
85	352.7982978820801	fix_pre	0		120	83.0	2.5	/experiments/AOT/AOT_stimuli/rescaled_final/1286_rv.mp4	0.0	373.4566810131073	1.0000081062316895
85	353.79830598831177	movie	1		247	83.0	2.5	/experiments/AOT/AOT_stimuli/rescaled_final/1286_rv.mp4	0.0	374.456689119339	2.4999279975891113
85	354.1813418865204	pulse	1	t		83.0	2.5	/experiments/AOT/AOT_stimuli/rescaled_final/1286_rv.mp4	0.0	374.8397250175476	
85	355.7817327976227	pulse	1	t		83.0	2.5	/experiments/AOT/AOT_stimuli/rescaled_final/1286_rv.mp4	0.0	376.4401159286499	
85	356.2982339859009	fix_post	2		12	83.0	2.5	/experiments/AOT/AOT_stimuli/rescaled_final/1286_rv.mp4	0.0	376.9566171169281	0.09995889663696289
87	356.39819288253784	stim	0		1716					377.05657601356506	14.299937963485718
87	357.3817489147186	pulse	0	t						378.04013204574585	
87	358.98168683052063	pulse	0	t						379.64006996154785	
87	360.5817058086395	pulse	0	t						381.24008893966675	
87	362.18180084228516	pulse	0	t						382.8401839733124	
87	363.7816858291626	pulse	0	t						384.4400689601898	
87	365.381618976593	pulse	0	t						386.04000210762024	
87	366.9816138744354	pulse	0	t						387.63999700546265	
87	368.58181977272034	pulse	0	t						389.24020290374756	
87	370.1816737651825	pulse	0	t						390.8400568962097	
