trial_nr	onset	event_type	phase	response	nr_frames	movie_index	movie_duration	movie_file	blank	onset_abs	duration
0	0.14992213249206543	stim	0		102					21.90767812728882	0.8500308990478516
0	0.9918479919433594	response	0	space						22.749603986740112	
1	0.999953031539917	stim	0		43100					22.75770902633667	359.16494512557983
1	360.1577949523926	pulse	0	t						381.91555094718933	
1	360.16489815711975	stim	1		1717					381.9226541519165	14.308401823043823
1	361.75668811798096	pulse	1	t						383.5144441127777	
1	363.3566470146179	pulse	1	t						385.1144030094147	
1	364.95666694641113	pulse	1	t						386.7144229412079	
1	366.5566899776459	pulse	1	t						388.3144459724426	
1	368.15664196014404	pulse	1	t						389.9143979549408	
1	369.756716966629	pulse	1	t						391.5144729614258	
1	371.35674715042114	pulse	1	t						393.1145031452179	
1	372.95619106292725	pulse	1	t						394.713947057724	
2	374.4732999801636	fix_pre	0		11	0.0	2.5	/experiments/AOT/AOT_stimuli/rescaled_final/0514_fw.mp4	0.0	396.2310559749603	0.09168815612792969
2	374.5567989349365	pulse	0	t		0.0	2.5	/experiments/AOT/AOT_stimuli/rescaled_final/0514_fw.mp4	0.0	396.3145549297333	
2	374.5649881362915	movie	1		244	0.0	2.5	/experiments/AOT/AOT_stimuli/rescaled_final/0514_fw.mp4	0.0	396.32274413108826	2.508241891860962
2	376.15622115135193	pulse	1	t		0.0	2.5	/experiments/AOT/AOT_stimuli/rescaled_final/0514_fw.mp4	0.0	397.9139771461487	
2	377.07323002815247	fix_post	2		12	0.0	2.5	/experiments/AOT/AOT_stimuli/rescaled_final/0514_fw.mp4	0.0	398.8309860229492	0.09995007514953613
3	377.173180103302	fix_pre	0		120	1.0	2.5	/experiments/AOT/AOT_stimuli/rescaled_final/2147_rv.mp4	0.0	398.93093609809875	0.9999690055847168
3	377.75661993026733	pulse	0	t		1.0	2.5	/experiments/AOT/AOT_stimuli/rescaled_final/2147_rv.mp4	0.0	399.5143759250641	
3	378.1731491088867	movie	1		245	1.0	2.5	/experiments/AOT/AOT_stimuli/rescaled_final/2147_rv.mp4	0.0	399.9309051036835	2.500005006790161
3	379.3566200733185	pulse	1	t		1.0	2.5	/experiments/AOT/AOT_stimuli/rescaled_final/2147_rv.mp4	0.0	401.11437606811523	
3	380.6731541156769	fix_post	2		12	1.0	2.5	/experiments/AOT/AOT_stimuli/rescaled_final/2147_rv.mp4	0.0	402.43091011047363	0.09989404678344727
4	380.7730481624603	fix_pre	0		120	2.0	2.5	/experiments/AOT/AOT_stimuli/rescaled_final/0814_fw.mp4	0.0	402.5308041572571	1.000025987625122
4	380.95662212371826	pulse	0	t		2.0	2.5	/experiments/AOT/AOT_stimuli/rescaled_final/0814_fw.mp4	0.0	402.714378118515	
4	381.77307415008545	movie	1		243	2.0	2.5	/experiments/AOT/AOT_stimuli/rescaled_final/0814_fw.mp4	0.0	403.5308301448822	2.4996118545532227
4	382.556587934494	pulse	1	t		2.0	2.5	/experiments/AOT/AOT_stimuli/rescaled_final/0814_fw.mp4	0.0	404.31434392929077	
4	384.1551730632782	pulse	1	t		2.0	2.5	/experiments/AOT/AOT_stimuli/rescaled_final/0814_fw.mp4	0.0	405.91292905807495	
4	384.2726860046387	fix_post	2		12	2.0	2.5	/experiments/AOT/AOT_stimuli/rescaled_final/0814_fw.mp4	0.0	406.0304419994354	0.10035395622253418
5	384.3730399608612	fix_pre	0		120	3.0	2.5	/experiments/AOT/AOT_stimuli/rescaled_final/1278_rv.mp4	0.0	406.13079595565796	0.9999439716339111
5	385.3729839324951	movie	1		244	3.0	2.5	/experiments/AOT/AOT_stimuli/rescaled_final/1278_rv.mp4	0.0	407.13073992729187	2.5000381469726562
5	385.7561950683594	pulse	1	t		3.0	2.5	/experiments/AOT/AOT_stimuli/rescaled_final/1278_rv.mp4	0.0	407.5139510631561	
5	387.3564820289612	pulse	1	t		3.0	2.5	/experiments/AOT/AOT_stimuli/rescaled_final/1278_rv.mp4	0.0	409.11423802375793	
5	387.8730220794678	fix_post	2		12	3.0	2.5	/experiments/AOT/AOT_stimuli/rescaled_final/1278_rv.mp4	0.0	409.6307780742645	0.10001897811889648
6	387.97304105758667	fix_pre	0		119	4.0	2.5	/experiments/AOT/AOT_stimuli/rescaled_final/0184_rv.mp4	0.0	409.7307970523834	0.9916949272155762
6	388.9566481113434	pulse	0	t		4.0	2.5	/experiments/AOT/AOT_stimuli/rescaled_final/0184_rv.mp4	0.0	410.71440410614014	
6	388.96473598480225	movie	1		245	4.0	2.5	/experiments/AOT/AOT_stimuli/rescaled_final/0184_rv.mp4	0.0	410.722491979599	2.508308172225952
6	390.5566680431366	pulse	1	t		4.0	2.5	/experiments/AOT/AOT_stimuli/rescaled_final/0184_rv.mp4	0.0	412.31442403793335	
6	391.4730441570282	fix_post	2		12	4.0	2.5	/experiments/AOT/AOT_stimuli/rescaled_final/0184_rv.mp4	0.0	413.23080015182495	0.10000395774841309
7	391.5730481147766	fix_pre	0		120	5.0	2.5	/experiments/AOT/AOT_stimuli/rescaled_final/0748_rv.mp4	0.0	413.33080410957336	0.9995880126953125
7	392.1565570831299	pulse	0	t		5.0	2.5	/experiments/AOT/AOT_stimuli/rescaled_final/0748_rv.mp4	0.0	413.91431307792664	
7	392.5726361274719	movie	1		245	5.0	2.5	/experiments/AOT/AOT_stimuli/rescaled_final/0748_rv.mp4	0.0	414.3303921222687	2.5003769397735596
7	393.75661301612854	pulse	1	t		5.0	2.5	/experiments/AOT/AOT_stimuli/rescaled_final/0748_rv.mp4	0.0	415.5143690109253	
7	395.0730130672455	fix_post	2		12	5.0	2.5	/experiments/AOT/AOT_stimuli/rescaled_final/0748_rv.mp4	0.0	416.83076906204224	0.09994888305664062
8	395.1729619503021	fix_pre	0		120	6.0	2.5	blank	1.0	416.9307179450989	0.9998040199279785
8	395.35654616355896	pulse	0	t		6.0	2.5	blank	1.0	417.1143021583557	
8	396.1727659702301	movie	1		300	6.0	2.5	blank	1.0	417.93052196502686	2.499958038330078
8	396.9565739631653	pulse	1	t		6.0	2.5	blank	1.0	418.71432995796204	
8	398.5564830303192	pulse	1	t		6.0	2.5	blank	1.0	420.31423902511597	
8	398.6727240085602	fix_post	2		12	6.0	2.5	blank	1.0	420.43048000335693	0.10024809837341309
9	398.7729721069336	fix_pre	0		120	7.0	2.5	/experiments/AOT/AOT_stimuli/rescaled_final/1035_fw.mp4	0.0	420.53072810173035	0.9999799728393555
9	399.77295207977295	movie	1		247	7.0	2.5	/experiments/AOT/AOT_stimuli/rescaled_final/1035_fw.mp4	0.0	421.5307080745697	2.500117063522339
9	400.15606713294983	pulse	1	t		7.0	2.5	/experiments/AOT/AOT_stimuli/rescaled_final/1035_fw.mp4	0.0	421.9138231277466	
9	401.7565231323242	pulse	1	t		7.0	2.5	/experiments/AOT/AOT_stimuli/rescaled_final/1035_fw.mp4	0.0	423.514279127121	
9	402.2730691432953	fix_post	2		12	7.0	2.5	/experiments/AOT/AOT_stimuli/rescaled_final/1035_fw.mp4	0.0	424.03082513809204	0.0999298095703125
10	402.3729989528656	fix_pre	0		119	8.0	2.5	/experiments/AOT/AOT_stimuli/rescaled_final/2147_fw.mp4	0.0	424.13075494766235	0.9916121959686279
10	403.35647416114807	pulse	0	t		8.0	2.5	/experiments/AOT/AOT_stimuli/rescaled_final/2147_fw.mp4	0.0	425.1142301559448	
10	403.36461114883423	movie	1		244	8.0	2.5	/experiments/AOT/AOT_stimuli/rescaled_final/2147_fw.mp4	0.0	425.122367143631	2.50837779045105
10	404.9565260410309	pulse	1	t		8.0	2.5	/experiments/AOT/AOT_stimuli/rescaled_final/2147_fw.mp4	0.0	426.71428203582764	
10	405.8729889392853	fix_post	2		12	8.0	2.5	/experiments/AOT/AOT_stimuli/rescaled_final/2147_fw.mp4	0.0	427.63074493408203	0.1000051498413086
11	405.9729940891266	fix_pre	0		120	9.0	2.5	/experiments/AOT/AOT_stimuli/rescaled_final/0081_rv.mp4	0.0	427.73075008392334	0.9995410442352295
11	406.55652594566345	pulse	0	t		9.0	2.5	/experiments/AOT/AOT_stimuli/rescaled_final/0081_rv.mp4	0.0	428.3142819404602	
11	406.9725351333618	movie	1		242	9.0	2.5	/experiments/AOT/AOT_stimuli/rescaled_final/0081_rv.mp4	0.0	428.73029112815857	2.5000369548797607
11	408.1565430164337	pulse	1	t		9.0	2.5	/experiments/AOT/AOT_stimuli/rescaled_final/0081_rv.mp4	0.0	429.91429901123047	
11	409.4725720882416	fix_post	2		12	9.0	2.5	/experiments/AOT/AOT_stimuli/rescaled_final/0081_rv.mp4	0.0	431.23032808303833	0.10040092468261719
12	409.5729730129242	fix_pre	0		120	10.0	2.5	/experiments/AOT/AOT_stimuli/rescaled_final/1308_rv.mp4	0.0	431.33072900772095	1.0000159740447998
12	409.75640201568604	pulse	0	t		10.0	2.5	/experiments/AOT/AOT_stimuli/rescaled_final/1308_rv.mp4	0.0	431.5141580104828	
12	410.572988986969	movie	1		244	10.0	2.5	/experiments/AOT/AOT_stimuli/rescaled_final/1308_rv.mp4	0.0	432.33074498176575	2.5000081062316895
12	411.356486082077	pulse	1	t		10.0	2.5	/experiments/AOT/AOT_stimuli/rescaled_final/1308_rv.mp4	0.0	433.1142420768738	
12	412.95499205589294	pulse	1	t		10.0	2.5	/experiments/AOT/AOT_stimuli/rescaled_final/1308_rv.mp4	0.0	434.7127480506897	
12	413.0729970932007	fix_post	2		12	10.0	2.5	/experiments/AOT/AOT_stimuli/rescaled_final/1308_rv.mp4	0.0	434.83075308799744	0.10002899169921875
13	413.1730260848999	fix_pre	0		120	11.0	2.5	/experiments/AOT/AOT_stimuli/rescaled_final/1922_rv.mp4	0.0	434.93078207969666	0.9999880790710449
13	414.17301416397095	movie	1		242	11.0	2.5	/experiments/AOT/AOT_stimuli/rescaled_final/1922_rv.mp4	0.0	435.9307701587677	2.499992847442627
13	414.5566511154175	pulse	1	t		11.0	2.5	/experiments/AOT/AOT_stimuli/rescaled_final/1922_rv.mp4	0.0	436.31440711021423	
13	416.15648794174194	pulse	1	t		11.0	2.5	/experiments/AOT/AOT_stimuli/rescaled_final/1922_rv.mp4	0.0	437.9142439365387	
13	416.6730070114136	fix_post	2		12	11.0	2.5	/experiments/AOT/AOT_stimuli/rescaled_final/1922_rv.mp4	0.0	438.4307630062103	0.10001301765441895
14	416.773020029068	fix_pre	0		119	12.0	2.5	/experiments/AOT/AOT_stimuli/rescaled_final/1670_rv.mp4	0.0	438.53077602386475	0.9914679527282715
14	417.7564470767975	pulse	0	t		12.0	2.5	/experiments/AOT/AOT_stimuli/rescaled_final/1670_rv.mp4	0.0	439.51420307159424	
14	417.76448798179626	movie	1		245	12.0	2.5	/experiments/AOT/AOT_stimuli/rescaled_final/1670_rv.mp4	0.0	439.522243976593	2.5083279609680176
14	419.3562560081482	pulse	1	t		12.0	2.5	/experiments/AOT/AOT_stimuli/rescaled_final/1670_rv.mp4	0.0	441.11401200294495	
14	420.2728159427643	fix_post	2		12	12.0	2.5	/experiments/AOT/AOT_stimuli/rescaled_final/1670_rv.mp4	0.0	442.03057193756104	0.10012316703796387
15	420.37293910980225	fix_pre	0		120	13.0	2.5	blank	1.0	442.130695104599	0.9999058246612549
15	420.95640110969543	pulse	0	t		13.0	2.5	blank	1.0	442.7141571044922	
15	421.3728449344635	movie	1		300	13.0	2.5	blank	1.0	443.13060092926025	2.5001261234283447
15	422.55643701553345	pulse	1	t		13.0	2.5	blank	1.0	444.3141930103302	
15	423.87297105789185	fix_post	2		12	13.0	2.5	blank	1.0	445.6307270526886	0.09997296333312988
16	423.972944021225	fix_pre	0		120	14.0	2.5	/experiments/AOT/AOT_stimuli/rescaled_final/0187_fw.mp4	0.0	445.73070001602173	0.9999151229858398
16	424.1564419269562	pulse	0	t		14.0	2.5	/experiments/AOT/AOT_stimuli/rescaled_final/0187_fw.mp4	0.0	445.91419792175293	
16	424.9728591442108	movie	1		244	14.0	2.5	/experiments/AOT/AOT_stimuli/rescaled_final/0187_fw.mp4	0.0	446.73061513900757	2.4995880126953125
16	425.7564480304718	pulse	1	t		14.0	2.5	/experiments/AOT/AOT_stimuli/rescaled_final/0187_fw.mp4	0.0	447.51420402526855	
16	427.35520100593567	pulse	1	t		14.0	2.5	/experiments/AOT/AOT_stimuli/rescaled_final/0187_fw.mp4	0.0	449.1129570007324	
16	427.4724471569061	fix_post	2		12	14.0	2.5	/experiments/AOT/AOT_stimuli/rescaled_final/0187_fw.mp4	0.0	449.2302031517029	0.10047078132629395
17	427.5729179382324	fix_pre	0		120	15.0	2.5	/experiments/AOT/AOT_stimuli/rescaled_final/2097_rv.mp4	0.0	449.3306739330292	0.999535083770752
17	428.5724530220032	movie	1		243	15.0	2.5	/experiments/AOT/AOT_stimuli/rescaled_final/2097_rv.mp4	0.0	450.3302090167999	2.500304937362671
17	428.9556510448456	pulse	1	t		15.0	2.5	/experiments/AOT/AOT_stimuli/rescaled_final/2097_rv.mp4	0.0	450.71340703964233	
17	430.5560419559479	pulse	1	t		15.0	2.5	/experiments/AOT/AOT_stimuli/rescaled_final/2097_rv.mp4	0.0	452.31379795074463	
17	431.07275795936584	fix_post	2		12	15.0	2.5	/experiments/AOT/AOT_stimuli/rescaled_final/2097_rv.mp4	0.0	452.8305139541626	0.10039901733398438
18	431.17315697669983	fix_pre	0		119	16.0	2.5	/experiments/AOT/AOT_stimuli/rescaled_final/1361_rv.mp4	0.0	452.9309129714966	0.9913861751556396
18	432.1564350128174	pulse	0	t		16.0	2.5	/experiments/AOT/AOT_stimuli/rescaled_final/1361_rv.mp4	0.0	453.91419100761414	
18	432.16454315185547	movie	1		244	16.0	2.5	/experiments/AOT/AOT_stimuli/rescaled_final/1361_rv.mp4	0.0	453.9222991466522	2.508342981338501
18	433.7559039592743	pulse	1	t		16.0	2.5	/experiments/AOT/AOT_stimuli/rescaled_final/1361_rv.mp4	0.0	455.51365995407104	
18	434.67288613319397	fix_post	2		12	16.0	2.5	/experiments/AOT/AOT_stimuli/rescaled_final/1361_rv.mp4	0.0	456.4306421279907	0.09996700286865234
19	434.7728531360626	fix_pre	0		120	17.0	2.5	/experiments/AOT/AOT_stimuli/rescaled_final/1805_fw.mp4	0.0	456.5306091308594	0.9999399185180664
19	435.35628294944763	pulse	0	t		17.0	2.5	/experiments/AOT/AOT_stimuli/rescaled_final/1805_fw.mp4	0.0	457.1140389442444	
19	435.7727930545807	movie	1		244	17.0	2.5	/experiments/AOT/AOT_stimuli/rescaled_final/1805_fw.mp4	0.0	457.53054904937744	2.5000219345092773
19	436.95633697509766	pulse	1	t		17.0	2.5	/experiments/AOT/AOT_stimuli/rescaled_final/1805_fw.mp4	0.0	458.7140929698944	
19	438.27281498908997	fix_post	2		12	17.0	2.5	/experiments/AOT/AOT_stimuli/rescaled_final/1805_fw.mp4	0.0	460.0305709838867	0.0999300479888916
20	438.37274503707886	fix_pre	0		120	18.0	2.5	/experiments/AOT/AOT_stimuli/rescaled_final/0321_fw.mp4	0.0	460.1305010318756	1.0000770092010498
20	438.55630016326904	pulse	0	t		18.0	2.5	/experiments/AOT/AOT_stimuli/rescaled_final/0321_fw.mp4	0.0	460.3140561580658	
20	439.3728220462799	movie	1		244	18.0	2.5	/experiments/AOT/AOT_stimuli/rescaled_final/0321_fw.mp4	0.0	461.13057804107666	2.4999520778656006
20	440.15626311302185	pulse	1	t		18.0	2.5	/experiments/AOT/AOT_stimuli/rescaled_final/0321_fw.mp4	0.0	461.9140191078186	
20	441.7546000480652	pulse	1	t		18.0	2.5	/experiments/AOT/AOT_stimuli/rescaled_final/0321_fw.mp4	0.0	463.51235604286194	
20	441.8727741241455	fix_post	2		12	18.0	2.5	/experiments/AOT/AOT_stimuli/rescaled_final/0321_fw.mp4	0.0	463.63053011894226	0.10003781318664551
21	441.97281193733215	fix_pre	0		120	19.0	2.5	/experiments/AOT/AOT_stimuli/rescaled_final/2163_fw.mp4	0.0	463.7305679321289	0.9999771118164062
21	442.97278904914856	movie	1		246	19.0	2.5	/experiments/AOT/AOT_stimuli/rescaled_final/2163_fw.mp4	0.0	464.7305450439453	2.500009059906006
21	443.35581612586975	pulse	1	t		19.0	2.5	/experiments/AOT/AOT_stimuli/rescaled_final/2163_fw.mp4	0.0	465.1135721206665	
21	444.95625615119934	pulse	1	t		19.0	2.5	/experiments/AOT/AOT_stimuli/rescaled_final/2163_fw.mp4	0.0	466.7140121459961	
21	445.47279810905457	fix_post	2		12	19.0	2.5	/experiments/AOT/AOT_stimuli/rescaled_final/2163_fw.mp4	0.0	467.2305541038513	0.09993386268615723
22	445.5727319717407	fix_pre	0		119	20.0	2.5	blank	1.0	467.3304879665375	0.9917349815368652
22	446.55634808540344	pulse	0	t		20.0	2.5	blank	1.0	468.3141040802002	
22	446.5644669532776	movie	1		301	20.0	2.5	blank	1.0	468.32222294807434	2.5083231925964355
22	448.1562831401825	pulse	1	t		20.0	2.5	blank	1.0	469.91403913497925	
22	449.072790145874	fix_post	2		12	20.0	2.5	blank	1.0	470.8305461406708	0.0999748706817627
23	449.1727650165558	fix_pre	0		120	21.0	2.5	/experiments/AOT/AOT_stimuli/rescaled_final/1874_rv.mp4	0.0	470.93052101135254	0.9999120235443115
23	449.75633907318115	pulse	0	t		21.0	2.5	/experiments/AOT/AOT_stimuli/rescaled_final/1874_rv.mp4	0.0	471.5140950679779	
23	450.1726770401001	movie	1		245	21.0	2.5	/experiments/AOT/AOT_stimuli/rescaled_final/1874_rv.mp4	0.0	471.93043303489685	2.499645948410034
23	451.3563301563263	pulse	1	t		21.0	2.5	/experiments/AOT/AOT_stimuli/rescaled_final/1874_rv.mp4	0.0	473.11408615112305	
23	452.67232298851013	fix_post	2		12	21.0	2.5	/experiments/AOT/AOT_stimuli/rescaled_final/1874_rv.mp4	0.0	474.4300789833069	0.10040116310119629
24	452.7727241516113	fix_pre	0		120	22.0	2.5	/experiments/AOT/AOT_stimuli/rescaled_final/0793_rv.mp4	0.0	474.5304801464081	1.0000848770141602
24	452.956237077713	pulse	0	t		22.0	2.5	/experiments/AOT/AOT_stimuli/rescaled_final/0793_rv.mp4	0.0	474.71399307250977	
24	453.7728090286255	movie	1		243	22.0	2.5	/experiments/AOT/AOT_stimuli/rescaled_final/0793_rv.mp4	0.0	475.53056502342224	2.4995570182800293
24	454.5562789440155	pulse	1	t		22.0	2.5	/experiments/AOT/AOT_stimuli/rescaled_final/0793_rv.mp4	0.0	476.31403493881226	
24	456.15448093414307	pulse	1	t		22.0	2.5	/experiments/AOT/AOT_stimuli/rescaled_final/0793_rv.mp4	0.0	477.9122369289398	
24	456.2723660469055	fix_post	2		12	22.0	2.5	/experiments/AOT/AOT_stimuli/rescaled_final/0793_rv.mp4	0.0	478.03012204170227	0.10030889511108398
25	456.3726749420166	fix_pre	0		120	23.0	2.5	/experiments/AOT/AOT_stimuli/rescaled_final/0636_fw.mp4	0.0	478.13043093681335	1.0000331401824951
25	457.3727080821991	movie	1		244	23.0	2.5	/experiments/AOT/AOT_stimuli/rescaled_final/0636_fw.mp4	0.0	479.13046407699585	2.500020980834961
25	457.75577306747437	pulse	1	t		23.0	2.5	/experiments/AOT/AOT_stimuli/rescaled_final/0636_fw.mp4	0.0	479.5135290622711	
25	459.356290102005	pulse	1	t		23.0	2.5	/experiments/AOT/AOT_stimuli/rescaled_final/0636_fw.mp4	0.0	481.11404609680176	
25	459.87272906303406	fix_post	2		12	23.0	2.5	/experiments/AOT/AOT_stimuli/rescaled_final/0636_fw.mp4	0.0	481.6304850578308	0.10010600090026855
26	459.9728350639343	fix_pre	0		119	24.0	2.5	/experiments/AOT/AOT_stimuli/rescaled_final/2086_fw.mp4	0.0	481.7305910587311	0.9915740489959717
26	460.9562771320343	pulse	0	t		24.0	2.5	/experiments/AOT/AOT_stimuli/rescaled_final/2086_fw.mp4	0.0	482.71403312683105	
26	460.9644091129303	movie	1		246	24.0	2.5	/experiments/AOT/AOT_stimuli/rescaled_final/2086_fw.mp4	0.0	482.72216510772705	2.507938861846924
26	462.55590295791626	pulse	1	t		24.0	2.5	/experiments/AOT/AOT_stimuli/rescaled_final/2086_fw.mp4	0.0	484.313658952713	
26	463.4723479747772	fix_post	2		12	24.0	2.5	/experiments/AOT/AOT_stimuli/rescaled_final/2086_fw.mp4	0.0	485.230103969574	0.1002509593963623
27	463.5725989341736	fix_pre	0		120	25.0	2.5	/experiments/AOT/AOT_stimuli/rescaled_final/0022_fw.mp4	0.0	485.33035492897034	1.0001871585845947
27	464.15614914894104	pulse	0	t		25.0	2.5	/experiments/AOT/AOT_stimuli/rescaled_final/0022_fw.mp4	0.0	485.9139051437378	
27	464.5727860927582	movie	1		249	25.0	2.5	/experiments/AOT/AOT_stimuli/rescaled_final/0022_fw.mp4	0.0	486.33054208755493	2.4998619556427
27	465.75623893737793	pulse	1	t		25.0	2.5	/experiments/AOT/AOT_stimuli/rescaled_final/0022_fw.mp4	0.0	487.5139949321747	
27	467.0726480484009	fix_post	2		12	25.0	2.5	/experiments/AOT/AOT_stimuli/rescaled_final/0022_fw.mp4	0.0	488.83040404319763	0.09959888458251953
28	467.1722469329834	fix_pre	0		120	26.0	2.5	/experiments/AOT/AOT_stimuli/rescaled_final/0843_rv.mp4	0.0	488.93000292778015	1.00046706199646
28	467.3561980724335	pulse	0	t		26.0	2.5	/experiments/AOT/AOT_stimuli/rescaled_final/0843_rv.mp4	0.0	489.1139540672302	
28	468.17271399497986	movie	1		245	26.0	2.5	/experiments/AOT/AOT_stimuli/rescaled_final/0843_rv.mp4	0.0	489.9304699897766	2.500082015991211
28	468.9562420845032	pulse	1	t		26.0	2.5	/experiments/AOT/AOT_stimuli/rescaled_final/0843_rv.mp4	0.0	490.7139980792999	
28	470.55477595329285	pulse	1	t		26.0	2.5	/experiments/AOT/AOT_stimuli/rescaled_final/0843_rv.mp4	0.0	492.3125319480896	
28	470.67279601097107	fix_post	2		12	26.0	2.5	/experiments/AOT/AOT_stimuli/rescaled_final/0843_rv.mp4	0.0	492.4305520057678	0.09982705116271973
29	470.7726230621338	fix_pre	0		120	27.0	2.5	/experiments/AOT/AOT_stimuli/rescaled_final/1303_fw.mp4	0.0	492.53037905693054	1.000067949295044
29	471.77269101142883	movie	1		244	27.0	2.5	/experiments/AOT/AOT_stimuli/rescaled_final/1303_fw.mp4	0.0	493.5304470062256	2.4999420642852783
29	472.1573851108551	pulse	1	t		27.0	2.5	/experiments/AOT/AOT_stimuli/rescaled_final/1303_fw.mp4	0.0	493.91514110565186	
29	473.75613594055176	pulse	1	t		27.0	2.5	/experiments/AOT/AOT_stimuli/rescaled_final/1303_fw.mp4	0.0	495.5138919353485	
29	474.2726330757141	fix_post	2		12	27.0	2.5	/experiments/AOT/AOT_stimuli/rescaled_final/1303_fw.mp4	0.0	496.03038907051086	0.10004687309265137
30	474.37267994880676	fix_pre	0		119	28.0	2.5	blank	1.0	496.1304359436035	0.9916369915008545
30	475.35609912872314	pulse	0	t		28.0	2.5	blank	1.0	497.1138551235199	
30	475.3643169403076	movie	1		301	28.0	2.5	blank	1.0	497.12207293510437	2.5083580017089844
30	476.95609402656555	pulse	1	t		28.0	2.5	blank	1.0	498.7138500213623	
30	477.8726749420166	fix_post	2		12	28.0	2.5	blank	1.0	499.63043093681335	0.09997320175170898
31	477.9726481437683	fix_pre	0		120	29.0	2.5	/experiments/AOT/AOT_stimuli/rescaled_final/2029_rv.mp4	0.0	499.73040413856506	0.9999380111694336
31	478.5561201572418	pulse	0	t		29.0	2.5	/experiments/AOT/AOT_stimuli/rescaled_final/2029_rv.mp4	0.0	500.3138761520386	
31	478.97258615493774	movie	1		243	29.0	2.5	/experiments/AOT/AOT_stimuli/rescaled_final/2029_rv.mp4	0.0	500.7303421497345	2.5001189708709717
31	480.1561119556427	pulse	1	t		29.0	2.5	/experiments/AOT/AOT_stimuli/rescaled_final/2029_rv.mp4	0.0	501.91386795043945	
31	481.4727051258087	fix_post	2		12	29.0	2.5	/experiments/AOT/AOT_stimuli/rescaled_final/2029_rv.mp4	0.0	503.23046112060547	0.099822998046875
32	481.5725281238556	fix_pre	0		120	30.0	2.5	/experiments/AOT/AOT_stimuli/rescaled_final/0564_rv.mp4	0.0	503.33028411865234	1.0002059936523438
32	481.75621604919434	pulse	0	t		30.0	2.5	/experiments/AOT/AOT_stimuli/rescaled_final/0564_rv.mp4	0.0	503.5139720439911	
32	482.57273411750793	movie	1		245	30.0	2.5	/experiments/AOT/AOT_stimuli/rescaled_final/0564_rv.mp4	0.0	504.3304901123047	2.4994969367980957
32	483.3561120033264	pulse	1	t		30.0	2.5	/experiments/AOT/AOT_stimuli/rescaled_final/0564_rv.mp4	0.0	505.11386799812317	
32	484.95414996147156	pulse	1	t		30.0	2.5	/experiments/AOT/AOT_stimuli/rescaled_final/0564_rv.mp4	0.0	506.7119059562683	
32	485.07223105430603	fix_post	2		12	30.0	2.5	/experiments/AOT/AOT_stimuli/rescaled_final/0564_rv.mp4	0.0	506.8299870491028	0.1005408763885498
33	485.1727719306946	fix_pre	0		120	31.0	2.5	/experiments/AOT/AOT_stimuli/rescaled_final/0364_fw.mp4	0.0	506.93052792549133	1.0000340938568115
33	486.1728060245514	movie	1		246	31.0	2.5	/experiments/AOT/AOT_stimuli/rescaled_final/0364_fw.mp4	0.0	507.93056201934814	2.499866008758545
33	486.55588698387146	pulse	1	t		31.0	2.5	/experiments/AOT/AOT_stimuli/rescaled_final/0364_fw.mp4	0.0	508.3136429786682	
33	488.1561119556427	pulse	1	t		31.0	2.5	/experiments/AOT/AOT_stimuli/rescaled_final/0364_fw.mp4	0.0	509.91386795043945	
33	488.67267203330994	fix_post	2		12	31.0	2.5	/experiments/AOT/AOT_stimuli/rescaled_final/0364_fw.mp4	0.0	510.4304280281067	0.09991192817687988
34	488.7725839614868	fix_pre	0		119	32.0	2.5	/experiments/AOT/AOT_stimuli/rescaled_final/0675_rv.mp4	0.0	510.53033995628357	0.9917261600494385
34	489.7561161518097	pulse	0	t		32.0	2.5	/experiments/AOT/AOT_stimuli/rescaled_final/0675_rv.mp4	0.0	511.51387214660645	
34	489.76431012153625	movie	1		246	32.0	2.5	/experiments/AOT/AOT_stimuli/rescaled_final/0675_rv.mp4	0.0	511.522066116333	2.5077948570251465
34	491.35549998283386	pulse	1	t		32.0	2.5	/experiments/AOT/AOT_stimuli/rescaled_final/0675_rv.mp4	0.0	513.1132559776306	
34	492.2721049785614	fix_post	2		12	32.0	2.5	/experiments/AOT/AOT_stimuli/rescaled_final/0675_rv.mp4	0.0	514.0298609733582	0.10038113594055176
35	492.37248611450195	fix_pre	0		120	33.0	2.5	/experiments/AOT/AOT_stimuli/rescaled_final/0734_rv.mp4	0.0	514.1302421092987	1.0001499652862549
35	492.9559760093689	pulse	0	t		33.0	2.5	/experiments/AOT/AOT_stimuli/rescaled_final/0734_rv.mp4	0.0	514.7137320041656	
35	493.3726360797882	movie	1		246	33.0	2.5	/experiments/AOT/AOT_stimuli/rescaled_final/0734_rv.mp4	0.0	515.130392074585	2.499876022338867
35	494.5561640262604	pulse	1	t		33.0	2.5	/experiments/AOT/AOT_stimuli/rescaled_final/0734_rv.mp4	0.0	516.3139200210571	
35	495.8725121021271	fix_post	2		12	33.0	2.5	/experiments/AOT/AOT_stimuli/rescaled_final/0734_rv.mp4	0.0	517.6302680969238	0.10005903244018555
36	495.97257113456726	fix_pre	0		120	34.0	2.5	/experiments/AOT/AOT_stimuli/rescaled_final/1805_rv.mp4	0.0	517.730327129364	0.9999508857727051
36	496.156054019928	pulse	0	t		34.0	2.5	/experiments/AOT/AOT_stimuli/rescaled_final/1805_rv.mp4	0.0	517.9138100147247	
36	496.97252202033997	movie	1		245	34.0	2.5	/experiments/AOT/AOT_stimuli/rescaled_final/1805_rv.mp4	0.0	518.7302780151367	2.4996659755706787
36	497.7559759616852	pulse	1	t		34.0	2.5	/experiments/AOT/AOT_stimuli/rescaled_final/1805_rv.mp4	0.0	519.5137319564819	
36	499.3545341491699	pulse	1	t		34.0	2.5	/experiments/AOT/AOT_stimuli/rescaled_final/1805_rv.mp4	0.0	521.1122901439667	
36	499.47218799591064	fix_post	2		12	34.0	2.5	/experiments/AOT/AOT_stimuli/rescaled_final/1805_rv.mp4	0.0	521.2299439907074	0.10035514831542969
37	499.5725431442261	fix_pre	0		120	35.0	2.5	blank	1.0	521.3302991390228	1.0000050067901611
37	500.57254815101624	movie	1		300	35.0	2.5	blank	1.0	522.330304145813	2.499980926513672
37	500.9560339450836	pulse	1	t		35.0	2.5	blank	1.0	522.7137899398804	
37	502.5560200214386	pulse	1	t		35.0	2.5	blank	1.0	524.3137760162354	
37	503.0725290775299	fix_post	2		12	35.0	2.5	blank	1.0	524.8302850723267	0.09995794296264648
38	503.17248702049255	fix_pre	0		119	36.0	2.5	/experiments/AOT/AOT_stimuli/rescaled_final/0552_fw.mp4	0.0	524.9302430152893	0.9916949272155762
38	504.1560311317444	pulse	0	t		36.0	2.5	/experiments/AOT/AOT_stimuli/rescaled_final/0552_fw.mp4	0.0	525.9137871265411	
38	504.16418194770813	movie	1		247	36.0	2.5	/experiments/AOT/AOT_stimuli/rescaled_final/0552_fw.mp4	0.0	525.9219379425049	2.5083141326904297
38	505.7556960582733	pulse	1	t		36.0	2.5	/experiments/AOT/AOT_stimuli/rescaled_final/0552_fw.mp4	0.0	527.5134520530701	
38	506.67249608039856	fix_post	2		12	36.0	2.5	/experiments/AOT/AOT_stimuli/rescaled_final/0552_fw.mp4	0.0	528.4302520751953	0.1000518798828125
39	506.7725479602814	fix_pre	0		120	37.0	2.5	/experiments/AOT/AOT_stimuli/rescaled_final/1901_rv.mp4	0.0	528.5303039550781	0.9998500347137451
39	507.35599994659424	pulse	0	t		37.0	2.5	/experiments/AOT/AOT_stimuli/rescaled_final/1901_rv.mp4	0.0	529.113755941391	
39	507.7723979949951	movie	1		246	37.0	2.5	/experiments/AOT/AOT_stimuli/rescaled_final/1901_rv.mp4	0.0	529.5301539897919	2.500049114227295
39	508.95609307289124	pulse	1	t		37.0	2.5	/experiments/AOT/AOT_stimuli/rescaled_final/1901_rv.mp4	0.0	530.713849067688	
39	510.2724471092224	fix_post	2		12	37.0	2.5	/experiments/AOT/AOT_stimuli/rescaled_final/1901_rv.mp4	0.0	532.0302031040192	0.10001802444458008
40	510.372465133667	fix_pre	0		120	38.0	2.5	/experiments/AOT/AOT_stimuli/rescaled_final/1128_fw.mp4	0.0	532.1302211284637	1.000018835067749
40	510.5560121536255	pulse	0	t		38.0	2.5	/experiments/AOT/AOT_stimuli/rescaled_final/1128_fw.mp4	0.0	532.3137681484222	
40	511.37248396873474	movie	1		246	38.0	2.5	/experiments/AOT/AOT_stimuli/rescaled_final/1128_fw.mp4	0.0	533.1302399635315	2.4995641708374023
40	512.1560070514679	pulse	1	t		38.0	2.5	/experiments/AOT/AOT_stimuli/rescaled_final/1128_fw.mp4	0.0	533.9137630462646	
40	513.7543771266937	pulse	1	t		38.0	2.5	/experiments/AOT/AOT_stimuli/rescaled_final/1128_fw.mp4	0.0	535.5121331214905	
40	513.8720481395721	fix_post	2		12	38.0	2.5	/experiments/AOT/AOT_stimuli/rescaled_final/1128_fw.mp4	0.0	535.6298041343689	0.10039997100830078
41	513.9724481105804	fix_pre	0		120	39.0	2.5	/experiments/AOT/AOT_stimuli/rescaled_final/1915_fw.mp4	0.0	535.7302041053772	0.9999709129333496
41	514.9724190235138	movie	1		244	39.0	2.5	/experiments/AOT/AOT_stimuli/rescaled_final/1915_fw.mp4	0.0	536.7301750183105	2.500005006790161
41	515.3556170463562	pulse	1	t		39.0	2.5	/experiments/AOT/AOT_stimuli/rescaled_final/1915_fw.mp4	0.0	537.113373041153	
41	516.9559969902039	pulse	1	t		39.0	2.5	/experiments/AOT/AOT_stimuli/rescaled_final/1915_fw.mp4	0.0	538.7137529850006	
41	517.472424030304	fix_post	2		12	39.0	2.5	/experiments/AOT/AOT_stimuli/rescaled_final/1915_fw.mp4	0.0	539.2301800251007	0.09996199607849121
42	517.5723860263824	fix_pre	0		119	40.0	2.5	blank	1.0	539.3301420211792	0.9917290210723877
42	518.5559720993042	pulse	0	t		40.0	2.5	blank	1.0	540.313728094101	
42	518.5641150474548	movie	1		301	40.0	2.5	blank	1.0	540.3218710422516	2.508275032043457
42	520.1559450626373	pulse	1	t		40.0	2.5	blank	1.0	541.9137010574341	
42	521.0723900794983	fix_post	2		12	40.0	2.5	blank	1.0	542.830146074295	0.09995388984680176
43	521.1723439693451	fix_pre	0		120	41.0	2.5	/experiments/AOT/AOT_stimuli/rescaled_final/0258_rv.mp4	0.0	542.9300999641418	1.0000741481781006
43	521.7559440135956	pulse	0	t		41.0	2.5	/experiments/AOT/AOT_stimuli/rescaled_final/0258_rv.mp4	0.0	543.5137000083923	
43	522.1724181175232	movie	1		244	41.0	2.5	/experiments/AOT/AOT_stimuli/rescaled_final/0258_rv.mp4	0.0	543.93017411232	2.4999849796295166
43	523.3560080528259	pulse	1	t		41.0	2.5	/experiments/AOT/AOT_stimuli/rescaled_final/0258_rv.mp4	0.0	545.1137640476227	
43	524.6724030971527	fix_post	2		12	41.0	2.5	/experiments/AOT/AOT_stimuli/rescaled_final/0258_rv.mp4	0.0	546.4301590919495	0.10001087188720703
44	524.7724139690399	fix_pre	0		120	42.0	2.5	/experiments/AOT/AOT_stimuli/rescaled_final/0028_fw.mp4	0.0	546.5301699638367	0.9999899864196777
44	524.9559941291809	pulse	0	t		42.0	2.5	/experiments/AOT/AOT_stimuli/rescaled_final/0028_fw.mp4	0.0	546.7137501239777	
44	525.7724039554596	movie	1		244	42.0	2.5	/experiments/AOT/AOT_stimuli/rescaled_final/0028_fw.mp4	0.0	547.5301599502563	2.5000240802764893
44	526.5559630393982	pulse	1	t		42.0	2.5	/experiments/AOT/AOT_stimuli/rescaled_final/0028_fw.mp4	0.0	548.313719034195	
44	528.1540880203247	pulse	1	t		42.0	2.5	/experiments/AOT/AOT_stimuli/rescaled_final/0028_fw.mp4	0.0	549.9118440151215	
44	528.2724280357361	fix_post	2		12	42.0	2.5	/experiments/AOT/AOT_stimuli/rescaled_final/0028_fw.mp4	0.0	550.0301840305328	0.09995508193969727
45	528.3723831176758	fix_pre	0		120	43.0	2.5	/experiments/AOT/AOT_stimuli/rescaled_final/1278_rv.mp4	0.0	550.1301391124725	0.9999368190765381
45	529.3723199367523	movie	1		244	43.0	2.5	/experiments/AOT/AOT_stimuli/rescaled_final/1278_rv.mp4	0.0	551.1300759315491	2.500129222869873
45	529.7557311058044	pulse	1	t		43.0	2.5	/experiments/AOT/AOT_stimuli/rescaled_final/1278_rv.mp4	0.0	551.5134871006012	
45	531.3559060096741	pulse	1	t		43.0	2.5	/experiments/AOT/AOT_stimuli/rescaled_final/1278_rv.mp4	0.0	553.1136620044708	
45	531.8724491596222	fix_post	2		12	43.0	2.5	/experiments/AOT/AOT_stimuli/rescaled_final/1278_rv.mp4	0.0	553.630205154419	0.09984183311462402
46	531.9722909927368	fix_pre	0		119	44.0	2.5	/experiments/AOT/AOT_stimuli/rescaled_final/2097_rv.mp4	0.0	553.7300469875336	0.9917621612548828
46	532.9559471607208	pulse	0	t		44.0	2.5	/experiments/AOT/AOT_stimuli/rescaled_final/2097_rv.mp4	0.0	554.7137031555176	
46	532.9640531539917	movie	1		244	44.0	2.5	/experiments/AOT/AOT_stimuli/rescaled_final/2097_rv.mp4	0.0	554.7218091487885	2.5082898139953613
46	534.555596113205	pulse	1	t		44.0	2.5	/experiments/AOT/AOT_stimuli/rescaled_final/2097_rv.mp4	0.0	556.3133521080017	
46	535.4723429679871	fix_post	2		12	44.0	2.5	/experiments/AOT/AOT_stimuli/rescaled_final/2097_rv.mp4	0.0	557.2300989627838	0.09996509552001953
47	535.5723080635071	fix_pre	0		120	45.0	2.5	/experiments/AOT/AOT_stimuli/rescaled_final/1857_fw.mp4	0.0	557.3300640583038	1.0000860691070557
47	536.1558620929718	pulse	0	t		45.0	2.5	/experiments/AOT/AOT_stimuli/rescaled_final/1857_fw.mp4	0.0	557.9136180877686	
47	536.5723941326141	movie	1		244	45.0	2.5	/experiments/AOT/AOT_stimuli/rescaled_final/1857_fw.mp4	0.0	558.3301501274109	2.500001907348633
47	537.756021976471	pulse	1	t		45.0	2.5	/experiments/AOT/AOT_stimuli/rescaled_final/1857_fw.mp4	0.0	559.5137779712677	
47	539.0723960399628	fix_post	2		12	45.0	2.5	/experiments/AOT/AOT_stimuli/rescaled_final/1857_fw.mp4	0.0	560.8301520347595	0.09998106956481934
48	539.1723771095276	fix_pre	0		120	46.0	2.5	/experiments/AOT/AOT_stimuli/rescaled_final/0629_rv.mp4	0.0	560.9301331043243	1.0001330375671387
48	539.3557870388031	pulse	0	t		46.0	2.5	/experiments/AOT/AOT_stimuli/rescaled_final/0629_rv.mp4	0.0	561.1135430335999	
48	540.1725101470947	movie	1		244	46.0	2.5	/experiments/AOT/AOT_stimuli/rescaled_final/0629_rv.mp4	0.0	561.9302661418915	2.499689817428589
48	540.9553661346436	pulse	1	t		46.0	2.5	/experiments/AOT/AOT_stimuli/rescaled_final/0629_rv.mp4	0.0	562.7131221294403	
48	542.5561120510101	pulse	1	t		46.0	2.5	/experiments/AOT/AOT_stimuli/rescaled_final/0629_rv.mp4	0.0	564.3138680458069	
48	542.6721999645233	fix_post	2		12	46.0	2.5	/experiments/AOT/AOT_stimuli/rescaled_final/0629_rv.mp4	0.0	564.4299559593201	0.10035419464111328
49	542.7725541591644	fix_pre	0		120	47.0	2.5	/experiments/AOT/AOT_stimuli/rescaled_final/0217_rv.mp4	0.0	564.5303101539612	0.9997098445892334
49	543.7722640037537	movie	1		244	47.0	2.5	/experiments/AOT/AOT_stimuli/rescaled_final/0217_rv.mp4	0.0	565.5300199985504	2.5000929832458496
49	544.1558620929718	pulse	1	t		47.0	2.5	/experiments/AOT/AOT_stimuli/rescaled_final/0217_rv.mp4	0.0	565.9136180877686	
49	545.755823135376	pulse	1	t		47.0	2.5	/experiments/AOT/AOT_stimuli/rescaled_final/0217_rv.mp4	0.0	567.5135791301727	
49	546.2723569869995	fix_post	2		12	47.0	2.5	/experiments/AOT/AOT_stimuli/rescaled_final/0217_rv.mp4	0.0	568.0301129817963	0.09993505477905273
50	546.3722920417786	fix_pre	0		119	48.0	2.5	/experiments/AOT/AOT_stimuli/rescaled_final/1142_fw.mp4	0.0	568.1300480365753	0.9916629791259766
50	547.3557779788971	pulse	0	t		48.0	2.5	/experiments/AOT/AOT_stimuli/rescaled_final/1142_fw.mp4	0.0	569.1135339736938	
50	547.3639550209045	movie	1		245	48.0	2.5	/experiments/AOT/AOT_stimuli/rescaled_final/1142_fw.mp4	0.0	569.1217110157013	2.508296012878418
50	548.9555101394653	pulse	1	t		48.0	2.5	/experiments/AOT/AOT_stimuli/rescaled_final/1142_fw.mp4	0.0	570.7132661342621	
50	549.872251033783	fix_post	2		12	48.0	2.5	/experiments/AOT/AOT_stimuli/rescaled_final/1142_fw.mp4	0.0	571.6300070285797	0.10004210472106934
51	549.972293138504	fix_pre	0		120	49.0	2.5	blank	1.0	571.7300491333008	0.9999618530273438
51	550.5557761192322	pulse	0	t		49.0	2.5	blank	1.0	572.3135321140289	
51	550.9722549915314	movie	1		300	49.0	2.5	blank	1.0	572.7300109863281	2.4999260902404785
51	552.1557230949402	pulse	1	t		49.0	2.5	blank	1.0	573.9134790897369	
51	553.4721810817719	fix_post	2		12	49.0	2.5	blank	1.0	575.2299370765686	0.10001397132873535
52	553.5721950531006	fix_pre	0		120	50.0	2.5	/experiments/AOT/AOT_stimuli/rescaled_final/1420_rv.mp4	0.0	575.3299510478973	0.9996368885040283
52	553.7557399272919	pulse	0	t		50.0	2.5	/experiments/AOT/AOT_stimuli/rescaled_final/1420_rv.mp4	0.0	575.5134959220886	
52	554.5718319416046	movie	1		246	50.0	2.5	/experiments/AOT/AOT_stimuli/rescaled_final/1420_rv.mp4	0.0	576.3295879364014	2.500105142593384
52	555.3558261394501	pulse	1	t		50.0	2.5	/experiments/AOT/AOT_stimuli/rescaled_final/1420_rv.mp4	0.0	577.1135821342468	
52	556.9545321464539	pulse	1	t		50.0	2.5	/experiments/AOT/AOT_stimuli/rescaled_final/1420_rv.mp4	0.0	578.7122881412506	
52	557.071937084198	fix_post	2		12	50.0	2.5	/experiments/AOT/AOT_stimuli/rescaled_final/1420_rv.mp4	0.0	578.8296930789948	0.10026097297668457
53	557.1721980571747	fix_pre	0		120	51.0	2.5	/experiments/AOT/AOT_stimuli/rescaled_final/1281_rv.mp4	0.0	578.9299540519714	1.000108003616333
53	558.172306060791	movie	1		245	51.0	2.5	/experiments/AOT/AOT_stimuli/rescaled_final/1281_rv.mp4	0.0	579.9300620555878	2.4999330043792725
53	558.555438041687	pulse	1	t		51.0	2.5	/experiments/AOT/AOT_stimuli/rescaled_final/1281_rv.mp4	0.0	580.3131940364838	
53	560.1556611061096	pulse	1	t		51.0	2.5	/experiments/AOT/AOT_stimuli/rescaled_final/1281_rv.mp4	0.0	581.9134171009064	
53	560.6722390651703	fix_post	2		12	51.0	2.5	/experiments/AOT/AOT_stimuli/rescaled_final/1281_rv.mp4	0.0	582.429995059967	0.09996390342712402
54	560.7722029685974	fix_pre	0		119	52.0	2.5	/experiments/AOT/AOT_stimuli/rescaled_final/0334_fw.mp4	0.0	582.5299589633942	0.9916470050811768
54	561.7557120323181	pulse	0	t		52.0	2.5	/experiments/AOT/AOT_stimuli/rescaled_final/0334_fw.mp4	0.0	583.5134680271149	
54	561.7638499736786	movie	1		246	52.0	2.5	/experiments/AOT/AOT_stimuli/rescaled_final/0334_fw.mp4	0.0	583.5216059684753	2.5083940029144287
54	563.3552939891815	pulse	1	t		52.0	2.5	/experiments/AOT/AOT_stimuli/rescaled_final/0334_fw.mp4	0.0	585.1130499839783	
54	564.272243976593	fix_post	2		12	52.0	2.5	/experiments/AOT/AOT_stimuli/rescaled_final/0334_fw.mp4	0.0	586.0299999713898	0.09992408752441406
55	564.3721680641174	fix_pre	0		120	53.0	2.5	/experiments/AOT/AOT_stimuli/rescaled_final/1927_rv.mp4	0.0	586.1299240589142	1.000072956085205
55	564.9557070732117	pulse	0	t		53.0	2.5	/experiments/AOT/AOT_stimuli/rescaled_final/1927_rv.mp4	0.0	586.7134630680084	
55	565.3722410202026	movie	1		244	53.0	2.5	/experiments/AOT/AOT_stimuli/rescaled_final/1927_rv.mp4	0.0	587.1299970149994	2.499500036239624
55	566.5557930469513	pulse	1	t		53.0	2.5	/experiments/AOT/AOT_stimuli/rescaled_final/1927_rv.mp4	0.0	588.313549041748	
55	567.8717410564423	fix_post	2		12	53.0	2.5	/experiments/AOT/AOT_stimuli/rescaled_final/1927_rv.mp4	0.0	589.629497051239	0.10045099258422852
56	567.9721920490265	fix_pre	0		120	54.0	2.5	/experiments/AOT/AOT_stimuli/rescaled_final/1420_fw.mp4	0.0	589.7299480438232	0.9999659061431885
56	568.1557760238647	pulse	0	t		54.0	2.5	/experiments/AOT/AOT_stimuli/rescaled_final/1420_fw.mp4	0.0	589.9135320186615	
56	568.9721579551697	movie	1		244	54.0	2.5	/experiments/AOT/AOT_stimuli/rescaled_final/1420_fw.mp4	0.0	590.7299139499664	2.500054121017456
56	569.7557530403137	pulse	1	t		54.0	2.5	/experiments/AOT/AOT_stimuli/rescaled_final/1420_fw.mp4	0.0	591.5135090351105	
56	571.3542759418488	pulse	1	t		54.0	2.5	/experiments/AOT/AOT_stimuli/rescaled_final/1420_fw.mp4	0.0	593.1120319366455	
56	571.4722120761871	fix_post	2		12	54.0	2.5	/experiments/AOT/AOT_stimuli/rescaled_final/1420_fw.mp4	0.0	593.2299680709839	0.09987401962280273
57	571.5720860958099	fix_pre	0		120	55.0	2.5	/experiments/AOT/AOT_stimuli/rescaled_final/0355_rv.mp4	0.0	593.3298420906067	0.9996969699859619
57	572.5717830657959	movie	1		245	55.0	2.5	/experiments/AOT/AOT_stimuli/rescaled_final/0355_rv.mp4	0.0	594.3295390605927	2.50032901763916
57	572.9550950527191	pulse	1	t		55.0	2.5	/experiments/AOT/AOT_stimuli/rescaled_final/0355_rv.mp4	0.0	594.7128510475159	
57	574.5556869506836	pulse	1	t		55.0	2.5	/experiments/AOT/AOT_stimuli/rescaled_final/0355_rv.mp4	0.0	596.3134429454803	
57	575.0721120834351	fix_post	2		12	55.0	2.5	/experiments/AOT/AOT_stimuli/rescaled_final/0355_rv.mp4	0.0	596.8298680782318	0.10005497932434082
58	575.1721670627594	fix_pre	0		119	56.0	2.5	blank	1.0	596.9299230575562	0.9916810989379883
58	576.1556639671326	pulse	0	t		56.0	2.5	blank	1.0	597.9134199619293	
58	576.1638481616974	movie	1		301	56.0	2.5	blank	1.0	597.9216041564941	2.508258819580078
58	577.7556929588318	pulse	1	t		56.0	2.5	blank	1.0	599.5134489536285	
58	578.6721069812775	fix_post	2		12	56.0	2.5	blank	1.0	600.4298629760742	0.10005617141723633
59	578.7721631526947	fix_pre	0		120	57.0	2.5	/experiments/AOT/AOT_stimuli/rescaled_final/2012_fw.mp4	0.0	600.5299191474915	1.0000028610229492
59	579.3557391166687	pulse	0	t		57.0	2.5	/experiments/AOT/AOT_stimuli/rescaled_final/2012_fw.mp4	0.0	601.1134951114655	
59	579.7721660137177	movie	1		243	57.0	2.5	/experiments/AOT/AOT_stimuli/rescaled_final/2012_fw.mp4	0.0	601.5299220085144	2.4996039867401123
59	580.955708026886	pulse	1	t		57.0	2.5	/experiments/AOT/AOT_stimuli/rescaled_final/2012_fw.mp4	0.0	602.7134640216827	
59	582.2717700004578	fix_post	2		12	57.0	2.5	/experiments/AOT/AOT_stimuli/rescaled_final/2012_fw.mp4	0.0	604.0295259952545	0.1004481315612793
60	582.372218132019	fix_pre	0		120	58.0	2.5	/experiments/AOT/AOT_stimuli/rescaled_final/1585_fw.mp4	0.0	604.1299741268158	0.9998898506164551
60	582.5555920600891	pulse	0	t		58.0	2.5	/experiments/AOT/AOT_stimuli/rescaled_final/1585_fw.mp4	0.0	604.3133480548859	
60	583.3721079826355	movie	1		243	58.0	2.5	/experiments/AOT/AOT_stimuli/rescaled_final/1585_fw.mp4	0.0	605.1298639774323	2.5000109672546387
60	584.1556539535522	pulse	1	t		58.0	2.5	/experiments/AOT/AOT_stimuli/rescaled_final/1585_fw.mp4	0.0	605.913409948349	
60	585.7540669441223	pulse	1	t		58.0	2.5	/experiments/AOT/AOT_stimuli/rescaled_final/1585_fw.mp4	0.0	607.5118229389191	
60	585.8721189498901	fix_post	2		12	58.0	2.5	/experiments/AOT/AOT_stimuli/rescaled_final/1585_fw.mp4	0.0	607.6298749446869	0.10001611709594727
61	585.9721350669861	fix_pre	0		120	59.0	2.5	/experiments/AOT/AOT_stimuli/rescaled_final/1307_rv.mp4	0.0	607.7298910617828	0.9995908737182617
61	586.9717259407043	movie	1		244	59.0	2.5	/experiments/AOT/AOT_stimuli/rescaled_final/1307_rv.mp4	0.0	608.7294819355011	2.5004711151123047
61	587.355721950531	pulse	1	t		59.0	2.5	/experiments/AOT/AOT_stimuli/rescaled_final/1307_rv.mp4	0.0	609.1134779453278	
61	588.9556040763855	pulse	1	t		59.0	2.5	/experiments/AOT/AOT_stimuli/rescaled_final/1307_rv.mp4	0.0	610.7133600711823	
61	589.4721970558167	fix_post	2		12	59.0	2.5	/experiments/AOT/AOT_stimuli/rescaled_final/1307_rv.mp4	0.0	611.2299530506134	0.09987306594848633
62	589.5720701217651	fix_pre	0		119	60.0	2.5	/experiments/AOT/AOT_stimuli/rescaled_final/0022_fw.mp4	0.0	611.3298261165619	0.9917738437652588
62	590.555536031723	pulse	0	t		60.0	2.5	/experiments/AOT/AOT_stimuli/rescaled_final/0022_fw.mp4	0.0	612.3132920265198	
62	590.5638439655304	movie	1		247	60.0	2.5	/experiments/AOT/AOT_stimuli/rescaled_final/0022_fw.mp4	0.0	612.3215999603271	2.508319139480591
62	592.1550660133362	pulse	1	t		60.0	2.5	/experiments/AOT/AOT_stimuli/rescaled_final/0022_fw.mp4	0.0	613.9128220081329	
62	593.072163105011	fix_post	2		12	60.0	2.5	/experiments/AOT/AOT_stimuli/rescaled_final/0022_fw.mp4	0.0	614.8299190998077	0.09996986389160156
63	593.1721329689026	fix_pre	0		120	61.0	2.5	/experiments/AOT/AOT_stimuli/rescaled_final/1308_fw.mp4	0.0	614.9298889636993	1.000049114227295
63	593.7555170059204	pulse	0	t		61.0	2.5	/experiments/AOT/AOT_stimuli/rescaled_final/1308_fw.mp4	0.0	615.5132730007172	
63	594.1721820831299	movie	1		245	61.0	2.5	/experiments/AOT/AOT_stimuli/rescaled_final/1308_fw.mp4	0.0	615.9299380779266	2.4994468688964844
63	595.3555490970612	pulse	1	t		61.0	2.5	/experiments/AOT/AOT_stimuli/rescaled_final/1308_fw.mp4	0.0	617.1133050918579	
63	596.6716289520264	fix_post	2		12	61.0	2.5	/experiments/AOT/AOT_stimuli/rescaled_final/1308_fw.mp4	0.0	618.4293849468231	0.1000211238861084
64	596.7716500759125	fix_pre	0		120	62.0	2.5	blank	1.0	618.5294060707092	1.0001440048217773
64	596.9551169872284	pulse	0	t		62.0	2.5	blank	1.0	618.7128729820251	
64	597.7717940807343	movie	1		300	62.0	2.5	blank	1.0	619.529550075531	2.500316858291626
64	598.555722951889	pulse	1	t		62.0	2.5	blank	1.0	620.3134789466858	
64	600.1555421352386	pulse	1	t		62.0	2.5	blank	1.0	621.9132981300354	
64	600.2721109390259	fix_post	2		12	62.0	2.5	blank	1.0	622.0298669338226	0.09995007514953613
65	600.3720610141754	fix_pre	0		120	63.0	2.5	/experiments/AOT/AOT_stimuli/rescaled_final/1641_rv.mp4	0.0	622.1298170089722	0.99953293800354
65	601.371593952179	movie	1		244	63.0	2.5	/experiments/AOT/AOT_stimuli/rescaled_final/1641_rv.mp4	0.0	623.1293499469757	2.4999911785125732
65	601.7548670768738	pulse	1	t		63.0	2.5	/experiments/AOT/AOT_stimuli/rescaled_final/1641_rv.mp4	0.0	623.5126230716705	
65	603.3554501533508	pulse	1	t		63.0	2.5	/experiments/AOT/AOT_stimuli/rescaled_final/1641_rv.mp4	0.0	625.1132061481476	
65	603.8715851306915	fix_post	2		12	63.0	2.5	/experiments/AOT/AOT_stimuli/rescaled_final/1641_rv.mp4	0.0	625.6293411254883	0.10036182403564453
66	603.9719469547272	fix_pre	0		119	64.0	2.5	/experiments/AOT/AOT_stimuli/rescaled_final/1441_fw.mp4	0.0	625.7297029495239	0.9917030334472656
66	604.9555671215057	pulse	0	t		64.0	2.5	/experiments/AOT/AOT_stimuli/rescaled_final/1441_fw.mp4	0.0	626.7133231163025	
66	604.9636499881744	movie	1		244	64.0	2.5	/experiments/AOT/AOT_stimuli/rescaled_final/1441_fw.mp4	0.0	626.7214059829712	2.5084800720214844
66	606.5552780628204	pulse	1	t		64.0	2.5	/experiments/AOT/AOT_stimuli/rescaled_final/1441_fw.mp4	0.0	628.3130340576172	
66	607.4721300601959	fix_post	2		12	64.0	2.5	/experiments/AOT/AOT_stimuli/rescaled_final/1441_fw.mp4	0.0	629.2298860549927	0.09984803199768066
67	607.5719780921936	fix_pre	0		120	65.0	2.5	/experiments/AOT/AOT_stimuli/rescaled_final/0654_rv.mp4	0.0	629.3297340869904	0.9999969005584717
67	608.1554560661316	pulse	0	t		65.0	2.5	/experiments/AOT/AOT_stimuli/rescaled_final/0654_rv.mp4	0.0	629.9132120609283	
67	608.5719749927521	movie	1		243	65.0	2.5	/experiments/AOT/AOT_stimuli/rescaled_final/0654_rv.mp4	0.0	630.3297309875488	2.4999711513519287
67	609.7555179595947	pulse	1	t		65.0	2.5	/experiments/AOT/AOT_stimuli/rescaled_final/0654_rv.mp4	0.0	631.5132739543915	
67	611.071946144104	fix_post	2		12	65.0	2.5	/experiments/AOT/AOT_stimuli/rescaled_final/0654_rv.mp4	0.0	632.8297021389008	0.10001587867736816
68	611.1719620227814	fix_pre	0		120	66.0	2.5	/experiments/AOT/AOT_stimuli/rescaled_final/0431_fw.mp4	0.0	632.9297180175781	1.0000331401824951
68	611.3554170131683	pulse	0	t		66.0	2.5	/experiments/AOT/AOT_stimuli/rescaled_final/0431_fw.mp4	0.0	633.1131730079651	
68	612.1719951629639	movie	1		242	66.0	2.5	/experiments/AOT/AOT_stimuli/rescaled_final/0431_fw.mp4	0.0	633.9297511577606	2.4995408058166504
68	612.9554109573364	pulse	1	t		66.0	2.5	/experiments/AOT/AOT_stimuli/rescaled_final/0431_fw.mp4	0.0	634.7131669521332	
68	614.5540339946747	pulse	1	t		66.0	2.5	/experiments/AOT/AOT_stimuli/rescaled_final/0431_fw.mp4	0.0	636.3117899894714	
68	614.6715359687805	fix_post	2		12	66.0	2.5	/experiments/AOT/AOT_stimuli/rescaled_final/0431_fw.mp4	0.0	636.4292919635773	0.10049104690551758
69	614.772027015686	fix_pre	0		120	67.0	2.5	/experiments/AOT/AOT_stimuli/rescaled_final/0521_fw.mp4	0.0	636.5297830104828	0.9999470710754395
69	615.7719740867615	movie	1		243	67.0	2.5	/experiments/AOT/AOT_stimuli/rescaled_final/0521_fw.mp4	0.0	637.5297300815582	2.499969959259033
69	616.1552391052246	pulse	1	t		67.0	2.5	/experiments/AOT/AOT_stimuli/rescaled_final/0521_fw.mp4	0.0	637.9129951000214	
69	617.7554290294647	pulse	1	t		67.0	2.5	/experiments/AOT/AOT_stimuli/rescaled_final/0521_fw.mp4	0.0	639.5131850242615	
69	618.2719440460205	fix_post	2		12	67.0	2.5	/experiments/AOT/AOT_stimuli/rescaled_final/0521_fw.mp4	0.0	640.0297000408173	0.09998893737792969
70	618.3719329833984	fix_pre	0		119	68.0	2.5	blank	1.0	640.1296889781952	0.9916520118713379
70	619.3554430007935	pulse	0	t		68.0	2.5	blank	1.0	641.1131989955902	
70	619.3635849952698	movie	1		301	68.0	2.5	blank	1.0	641.1213409900665	2.5082931518554688
70	620.955384016037	pulse	1	t		68.0	2.5	blank	1.0	642.7131400108337	
70	621.8718781471252	fix_post	2		12	68.0	2.5	blank	1.0	643.629634141922	0.10008978843688965
71	621.9719679355621	fix_pre	0		120	69.0	2.5	/experiments/AOT/AOT_stimuli/rescaled_final/2066_fw.mp4	0.0	643.7297239303589	0.9999330043792725
71	622.5554029941559	pulse	0	t		69.0	2.5	/experiments/AOT/AOT_stimuli/rescaled_final/2066_fw.mp4	0.0	644.3131589889526	
71	622.9719009399414	movie	1		244	69.0	2.5	/experiments/AOT/AOT_stimuli/rescaled_final/2066_fw.mp4	0.0	644.7296569347382	2.500068187713623
71	624.1555261611938	pulse	1	t		69.0	2.5	/experiments/AOT/AOT_stimuli/rescaled_final/2066_fw.mp4	0.0	645.9132821559906	
71	625.471969127655	fix_post	2		12	69.0	2.5	/experiments/AOT/AOT_stimuli/rescaled_final/2066_fw.mp4	0.0	647.2297251224518	0.09995794296264648
72	625.5719270706177	fix_pre	0		120	70.0	2.5	/experiments/AOT/AOT_stimuli/rescaled_final/1660_rv.mp4	0.0	647.3296830654144	1.0000019073486328
72	625.7553899288177	pulse	0	t		70.0	2.5	/experiments/AOT/AOT_stimuli/rescaled_final/1660_rv.mp4	0.0	647.5131459236145	
72	626.5719289779663	movie	1		245	70.0	2.5	/experiments/AOT/AOT_stimuli/rescaled_final/1660_rv.mp4	0.0	648.3296849727631	2.500046968460083
72	627.3554110527039	pulse	1	t		70.0	2.5	/experiments/AOT/AOT_stimuli/rescaled_final/1660_rv.mp4	0.0	649.1131670475006	
72	628.9554920196533	pulse	1	t		70.0	2.5	/experiments/AOT/AOT_stimuli/rescaled_final/1660_rv.mp4	0.0	650.7132480144501	
72	629.0719759464264	fix_post	2		12	70.0	2.5	/experiments/AOT/AOT_stimuli/rescaled_final/1660_rv.mp4	0.0	650.8297319412231	0.09991121292114258
73	629.1718871593475	fix_pre	0		120	71.0	2.5	/experiments/AOT/AOT_stimuli/rescaled_final/0997_rv.mp4	0.0	650.9296431541443	1.000018835067749
73	630.1719059944153	movie	1		243	71.0	2.5	/experiments/AOT/AOT_stimuli/rescaled_final/0997_rv.mp4	0.0	651.929661989212	2.4999189376831055
73	630.5554780960083	pulse	1	t		71.0	2.5	/experiments/AOT/AOT_stimuli/rescaled_final/0997_rv.mp4	0.0	652.313234090805	
73	632.1554310321808	pulse	1	t		71.0	2.5	/experiments/AOT/AOT_stimuli/rescaled_final/0997_rv.mp4	0.0	653.9131870269775	
73	632.6718249320984	fix_post	2		12	71.0	2.5	/experiments/AOT/AOT_stimuli/rescaled_final/0997_rv.mp4	0.0	654.4295809268951	0.10004615783691406
74	632.7718710899353	fix_pre	0		119	72.0	2.5	/experiments/AOT/AOT_stimuli/rescaled_final/0132_fw.mp4	0.0	654.529627084732	0.9916870594024658
74	633.755448102951	pulse	0	t		72.0	2.5	/experiments/AOT/AOT_stimuli/rescaled_final/0132_fw.mp4	0.0	655.5132040977478	
74	633.7635581493378	movie	1		244	72.0	2.5	/experiments/AOT/AOT_stimuli/rescaled_final/0132_fw.mp4	0.0	655.5213141441345	2.5078887939453125
74	635.355437040329	pulse	1	t		72.0	2.5	/experiments/AOT/AOT_stimuli/rescaled_final/0132_fw.mp4	0.0	657.1131930351257	
74	636.2714469432831	fix_post	2		12	72.0	2.5	/experiments/AOT/AOT_stimuli/rescaled_final/0132_fw.mp4	0.0	658.0292029380798	0.1004791259765625
75	636.3719260692596	fix_pre	0		120	73.0	2.5	/experiments/AOT/AOT_stimuli/rescaled_final/0172_rv.mp4	0.0	658.1296820640564	0.9998428821563721
75	636.9553511142731	pulse	0	t		73.0	2.5	/experiments/AOT/AOT_stimuli/rescaled_final/0172_rv.mp4	0.0	658.7131071090698	
75	637.371768951416	movie	1		244	73.0	2.5	/experiments/AOT/AOT_stimuli/rescaled_final/0172_rv.mp4	0.0	659.1295249462128	2.5001771450042725
75	638.5554299354553	pulse	1	t		73.0	2.5	/experiments/AOT/AOT_stimuli/rescaled_final/0172_rv.mp4	0.0	660.3131859302521	
75	639.8719460964203	fix_post	2		12	73.0	2.5	/experiments/AOT/AOT_stimuli/rescaled_final/0172_rv.mp4	0.0	661.629702091217	0.09991598129272461
76	639.971862077713	fix_pre	0		120	74.0	2.5	/experiments/AOT/AOT_stimuli/rescaled_final/0391_rv.mp4	0.0	661.7296180725098	0.9999499320983887
76	640.1554510593414	pulse	0	t		74.0	2.5	/experiments/AOT/AOT_stimuli/rescaled_final/0391_rv.mp4	0.0	661.9132070541382	
76	640.9718120098114	movie	1		243	74.0	2.5	/experiments/AOT/AOT_stimuli/rescaled_final/0391_rv.mp4	0.0	662.7295680046082	2.499969005584717
76	641.7553870677948	pulse	1	t		74.0	2.5	/experiments/AOT/AOT_stimuli/rescaled_final/0391_rv.mp4	0.0	663.5131430625916	
76	643.3538601398468	pulse	1	t		74.0	2.5	/experiments/AOT/AOT_stimuli/rescaled_final/0391_rv.mp4	0.0	665.1116161346436	
76	643.4717810153961	fix_post	2		12	74.0	2.5	/experiments/AOT/AOT_stimuli/rescaled_final/0391_rv.mp4	0.0	665.2295370101929	0.0999901294708252
77	643.571771144867	fix_pre	0		120	75.0	2.5	/experiments/AOT/AOT_stimuli/rescaled_final/1142_rv.mp4	0.0	665.3295271396637	1.0000050067901611
77	644.5717761516571	movie	1		244	75.0	2.5	/experiments/AOT/AOT_stimuli/rescaled_final/1142_rv.mp4	0.0	666.3295321464539	2.499983787536621
77	644.9549140930176	pulse	1	t		75.0	2.5	/experiments/AOT/AOT_stimuli/rescaled_final/1142_rv.mp4	0.0	666.7126700878143	
77	646.5553240776062	pulse	1	t		75.0	2.5	/experiments/AOT/AOT_stimuli/rescaled_final/1142_rv.mp4	0.0	668.313080072403	
77	647.0717599391937	fix_post	2		12	75.0	2.5	/experiments/AOT/AOT_stimuli/rescaled_final/1142_rv.mp4	0.0	668.8295159339905	0.10008406639099121
78	647.1718440055847	fix_pre	0		119	76.0	2.5	blank	1.0	668.9296000003815	0.9916760921478271
78	648.1553671360016	pulse	0	t		76.0	2.5	blank	1.0	669.9131231307983	
78	648.1635200977325	movie	1		301	76.0	2.5	blank	1.0	669.9212760925293	2.5082809925079346
78	649.7553379535675	pulse	1	t		76.0	2.5	blank	1.0	671.5130939483643	
78	650.6718010902405	fix_post	2		12	76.0	2.5	blank	1.0	672.4295570850372	0.10008406639099121
79	650.7718851566315	fix_pre	0		120	77.0	2.5	/experiments/AOT/AOT_stimuli/rescaled_final/0806_rv.mp4	0.0	672.5296411514282	0.9999988079071045
79	651.354875087738	pulse	0	t		77.0	2.5	/experiments/AOT/AOT_stimuli/rescaled_final/0806_rv.mp4	0.0	673.1126310825348	
79	651.7718839645386	movie	1		244	77.0	2.5	/experiments/AOT/AOT_stimuli/rescaled_final/0806_rv.mp4	0.0	673.5296399593353	2.5001790523529053
79	652.9549570083618	pulse	1	t		77.0	2.5	/experiments/AOT/AOT_stimuli/rescaled_final/0806_rv.mp4	0.0	674.7127130031586	
79	654.2720630168915	fix_post	2		12	77.0	2.5	/experiments/AOT/AOT_stimuli/rescaled_final/0806_rv.mp4	0.0	676.0298190116882	0.09999704360961914
80	654.3720600605011	fix_pre	0		120	78.0	2.5	/experiments/AOT/AOT_stimuli/rescaled_final/1670_fw.mp4	0.0	676.1298160552979	0.9997930526733398
80	654.5555601119995	pulse	0	t		78.0	2.5	/experiments/AOT/AOT_stimuli/rescaled_final/1670_fw.mp4	0.0	676.3133161067963	
80	655.3718531131744	movie	1		243	78.0	2.5	/experiments/AOT/AOT_stimuli/rescaled_final/1670_fw.mp4	0.0	677.1296091079712	2.4998910427093506
80	656.1553781032562	pulse	1	t		78.0	2.5	/experiments/AOT/AOT_stimuli/rescaled_final/1670_fw.mp4	0.0	677.913134098053	
80	657.7554039955139	pulse	1	t		78.0	2.5	/experiments/AOT/AOT_stimuli/rescaled_final/1670_fw.mp4	0.0	679.5131599903107	
80	657.8717441558838	fix_post	2		12	78.0	2.5	/experiments/AOT/AOT_stimuli/rescaled_final/1670_fw.mp4	0.0	679.6295001506805	0.09999585151672363
81	657.9717400074005	fix_pre	0		120	79.0	2.5	/experiments/AOT/AOT_stimuli/rescaled_final/1760_rv.mp4	0.0	679.7294960021973	0.9999549388885498
81	658.9716949462891	movie	1		243	79.0	2.5	/experiments/AOT/AOT_stimuli/rescaled_final/1760_rv.mp4	0.0	680.7294509410858	2.4999940395355225
81	659.3562641143799	pulse	1	t		79.0	2.5	/experiments/AOT/AOT_stimuli/rescaled_final/1760_rv.mp4	0.0	681.1140201091766	
81	660.955155134201	pulse	1	t		79.0	2.5	/experiments/AOT/AOT_stimuli/rescaled_final/1760_rv.mp4	0.0	682.7129111289978	
81	661.4716889858246	fix_post	2		12	79.0	2.5	/experiments/AOT/AOT_stimuli/rescaled_final/1760_rv.mp4	0.0	683.2294449806213	0.10003113746643066
82	661.571720123291	fix_pre	0		119	80.0	2.5	/experiments/AOT/AOT_stimuli/rescaled_final/1881_fw.mp4	0.0	683.3294761180878	0.991663932800293
82	662.5552251338959	pulse	0	t		80.0	2.5	/experiments/AOT/AOT_stimuli/rescaled_final/1881_fw.mp4	0.0	684.3129811286926	
82	662.5633840560913	movie	1		244	80.0	2.5	/experiments/AOT/AOT_stimuli/rescaled_final/1881_fw.mp4	0.0	684.3211400508881	2.5083348751068115
82	664.1554100513458	pulse	1	t		80.0	2.5	/experiments/AOT/AOT_stimuli/rescaled_final/1881_fw.mp4	0.0	685.9131660461426	
82	665.0717189311981	fix_post	2		12	80.0	2.5	/experiments/AOT/AOT_stimuli/rescaled_final/1881_fw.mp4	0.0	686.8294749259949	0.10004520416259766
83	665.1717641353607	fix_pre	0		120	81.0	2.5	/experiments/AOT/AOT_stimuli/rescaled_final/2069_fw.mp4	0.0	686.9295201301575	0.9999349117279053
83	665.7551810741425	pulse	0	t		81.0	2.5	/experiments/AOT/AOT_stimuli/rescaled_final/2069_fw.mp4	0.0	687.5129370689392	
83	666.1716990470886	movie	1		243	81.0	2.5	/experiments/AOT/AOT_stimuli/rescaled_final/2069_fw.mp4	0.0	687.9294550418854	2.500019073486328
83	667.3552219867706	pulse	1	t		81.0	2.5	/experiments/AOT/AOT_stimuli/rescaled_final/2069_fw.mp4	0.0	689.1129779815674	
83	668.671718120575	fix_post	2		12	81.0	2.5	/experiments/AOT/AOT_stimuli/rescaled_final/2069_fw.mp4	0.0	690.4294741153717	0.09993481636047363
84	668.7716529369354	fix_pre	0		120	82.0	2.5	/experiments/AOT/AOT_stimuli/rescaled_final/0734_rv.mp4	0.0	690.5294089317322	1.0000600814819336
84	668.9551799297333	pulse	0	t		82.0	2.5	/experiments/AOT/AOT_stimuli/rescaled_final/0734_rv.mp4	0.0	690.71293592453	
84	669.7717130184174	movie	1		245	82.0	2.5	/experiments/AOT/AOT_stimuli/rescaled_final/0734_rv.mp4	0.0	691.5294690132141	2.5000319480895996
84	670.5551331043243	pulse	1	t		82.0	2.5	/experiments/AOT/AOT_stimuli/rescaled_final/0734_rv.mp4	0.0	692.3128890991211	
84	672.1543729305267	pulse	1	t		82.0	2.5	/experiments/AOT/AOT_stimuli/rescaled_final/0734_rv.mp4	0.0	693.9121289253235	
84	672.271744966507	fix_post	2		12	82.0	2.5	/experiments/AOT/AOT_stimuli/rescaled_final/0734_rv.mp4	0.0	694.0295009613037	0.10001802444458008
85	672.3717629909515	fix_pre	0		120	83.0	2.5	blank	1.0	694.1295189857483	0.9999620914459229
85	673.3717250823975	movie	1		300	83.0	2.5	blank	1.0	695.1294810771942	2.4999918937683105
85	673.755156993866	pulse	1	t		83.0	2.5	blank	1.0	695.5129129886627	
85	675.3552060127258	pulse	1	t		83.0	2.5	blank	1.0	697.1129620075226	
85	675.8717169761658	fix_post	2		12	83.0	2.5	blank	1.0	697.6294729709625	0.09990215301513672
87	675.9716191291809	stim	0		1716					697.7293751239777	14.300006866455078
87	676.9552049636841	pulse	0	t						698.7129609584808	
87	678.5550999641418	pulse	0	t						700.3128559589386	
87	680.155030965805	pulse	0	t						701.9127869606018	
87	681.7551500797272	pulse	0	t						703.5129060745239	
87	683.3550939559937	pulse	0	t						705.1128499507904	
87	684.9550890922546	pulse	0	t						706.7128450870514	
87	686.5551109313965	pulse	0	t						708.3128669261932	
87	688.155112028122	pulse	0	t						709.9128680229187	
87	689.7550480365753	pulse	0	t						711.5128040313721	
