trial_nr	onset	event_type	phase	response	nr_frames	movie_index	movie_duration	movie_file	blank	onset_abs	duration
0	0.17485737800598145	stim	0		5					18.62566113471985	0.041556596755981445
0	0.2084794044494629	response	0	space						18.65928316116333	
1	0.2164139747619629	stim	0		4894					18.66721773147583	40.80038070678711
1	41.00748085975647	pulse	0	t						59.45828461647034	
1	41.01679468154907	stim	1		1716					59.46759843826294	14.307987928390503
1	42.5980122089386	pulse	1	t						61.048815965652466	
1	44.19824552536011	pulse	1	t						62.649049282073975	
1	45.79852747917175	pulse	1	t						64.24933123588562	
1	47.39179611206055	pulse	1	t						65.84259986877441	
1	48.99183630943298	pulse	1	t						67.44264006614685	
1	50.59135937690735	pulse	1	t						69.04216313362122	
1	52.19166684150696	pulse	1	t						70.64247059822083	
1	53.79176950454712	pulse	1	t						72.24257326126099	
2	55.324782609939575	fix_pre	0		9	0.0	2.5	/experiments/knapen_AOT/AOT_stimuli/rescaled_final/1871_rv.mp4	0.0	73.77558636665344	0.09178018569946289
2	55.391602754592896	pulse	0	t		0.0	2.5	/experiments/knapen_AOT/AOT_stimuli/rescaled_final/1871_rv.mp4	0.0	73.84240651130676	
2	55.41656279563904	movie	1		281	0.0	2.5	/experiments/knapen_AOT/AOT_stimuli/rescaled_final/1871_rv.mp4	0.0	73.8673665523529	2.4918854236602783
2	56.99195623397827	pulse	1	t		0.0	2.5	/experiments/knapen_AOT/AOT_stimuli/rescaled_final/1871_rv.mp4	0.0	75.44275999069214	
2	57.908448219299316	fix_post	2		12	0.0	2.5	/experiments/knapen_AOT/AOT_stimuli/rescaled_final/1871_rv.mp4	0.0	76.35925197601318	0.1000661849975586
3	58.008514404296875	fix_pre	0		120	1.0	2.5	/experiments/knapen_AOT/AOT_stimuli/rescaled_final/1731_fw.mp4	0.0	76.45931816101074	1.0084314346313477
3	58.592201232910156	pulse	0	t		1.0	2.5	/experiments/knapen_AOT/AOT_stimuli/rescaled_final/1731_fw.mp4	0.0	77.04300498962402	
3	59.01694583892822	movie	1		272	1.0	2.5	/experiments/knapen_AOT/AOT_stimuli/rescaled_final/1731_fw.mp4	0.0	77.46774959564209	2.4921531677246094
3	60.19234824180603	pulse	1	t		1.0	2.5	/experiments/knapen_AOT/AOT_stimuli/rescaled_final/1731_fw.mp4	0.0	78.6431519985199	
3	61.50909900665283	fix_post	2		12	1.0	2.5	/experiments/knapen_AOT/AOT_stimuli/rescaled_final/1731_fw.mp4	0.0	79.9599027633667	0.09991645812988281
4	61.609015464782715	fix_pre	0		120	2.0	2.5	/experiments/knapen_AOT/AOT_stimuli/rescaled_final/0333_rv.mp4	0.0	80.05981922149658	1.0086250305175781
4	61.79265594482422	pulse	0	t		2.0	2.5	/experiments/knapen_AOT/AOT_stimuli/rescaled_final/0333_rv.mp4	0.0	80.24345970153809	
4	62.61764049530029	movie	1		275	2.0	2.5	/experiments/knapen_AOT/AOT_stimuli/rescaled_final/0333_rv.mp4	0.0	81.06844425201416	2.491889476776123
4	63.39281344413757	pulse	1	t		2.0	2.5	/experiments/knapen_AOT/AOT_stimuli/rescaled_final/0333_rv.mp4	0.0	81.84361720085144	
4	64.99317908287048	pulse	1	t		2.0	2.5	/experiments/knapen_AOT/AOT_stimuli/rescaled_final/0333_rv.mp4	0.0	83.44398283958435	
4	65.10952997207642	fix_post	2		12	2.0	2.5	/experiments/knapen_AOT/AOT_stimuli/rescaled_final/0333_rv.mp4	0.0	83.56033372879028	0.10001945495605469
5	65.20954942703247	fix_pre	0		120	3.0	2.5	/experiments/knapen_AOT/AOT_stimuli/rescaled_final/2138_fw.mp4	0.0	83.66035318374634	1.008512258529663
5	66.21806168556213	movie	1		274	3.0	2.5	/experiments/knapen_AOT/AOT_stimuli/rescaled_final/2138_fw.mp4	0.0	84.668865442276	2.4921348094940186
5	66.59330129623413	pulse	1	t		3.0	2.5	/experiments/knapen_AOT/AOT_stimuli/rescaled_final/2138_fw.mp4	0.0	85.044105052948	
5	68.19354319572449	pulse	1	t		3.0	2.5	/experiments/knapen_AOT/AOT_stimuli/rescaled_final/2138_fw.mp4	0.0	86.64434695243835	
5	68.71019649505615	fix_post	2		12	3.0	2.5	/experiments/knapen_AOT/AOT_stimuli/rescaled_final/2138_fw.mp4	0.0	87.16100025177002	0.10003447532653809
6	68.81023097038269	fix_pre	0		119	4.0	2.5	/experiments/knapen_AOT/AOT_stimuli/rescaled_final/0667_rv.mp4	0.0	87.26103472709656	1.000049352645874
6	69.79410982131958	pulse	0	t		4.0	2.5	/experiments/knapen_AOT/AOT_stimuli/rescaled_final/0667_rv.mp4	0.0	88.24491357803345	
6	69.81028032302856	movie	1		275	4.0	2.5	/experiments/knapen_AOT/AOT_stimuli/rescaled_final/0667_rv.mp4	0.0	88.26108407974243	2.5003206729888916
6	71.39460635185242	pulse	1	t		4.0	2.5	/experiments/knapen_AOT/AOT_stimuli/rescaled_final/0667_rv.mp4	0.0	89.84541010856628	
6	72.31060099601746	fix_post	2		12	4.0	2.5	/experiments/knapen_AOT/AOT_stimuli/rescaled_final/0667_rv.mp4	0.0	90.76140475273132	0.100067138671875
7	72.41066813468933	fix_pre	0		120	5.0	2.5	/experiments/knapen_AOT/AOT_stimuli/rescaled_final/1388_fw.mp4	0.0	90.8614718914032	1.0085949897766113
7	72.99430346488953	pulse	0	t		5.0	2.5	/experiments/knapen_AOT/AOT_stimuli/rescaled_final/1388_fw.mp4	0.0	91.4451072216034	
7	73.41926312446594	movie	1		278	5.0	2.5	/experiments/knapen_AOT/AOT_stimuli/rescaled_final/1388_fw.mp4	0.0	91.87006688117981	2.4919042587280273
7	74.59376883506775	pulse	1	t		5.0	2.5	/experiments/knapen_AOT/AOT_stimuli/rescaled_final/1388_fw.mp4	0.0	93.04457259178162	
7	75.91116738319397	fix_post	2		12	5.0	2.5	/experiments/knapen_AOT/AOT_stimuli/rescaled_final/1388_fw.mp4	0.0	94.36197113990784	0.10011887550354004
8	76.01128625869751	fix_pre	0		120	6.0	2.5	/experiments/knapen_AOT/AOT_stimuli/rescaled_final/2113_fw.mp4	0.0	94.46209001541138	1.0084033012390137
8	76.19476389884949	pulse	0	t		6.0	2.5	/experiments/knapen_AOT/AOT_stimuli/rescaled_final/2113_fw.mp4	0.0	94.64556765556335	
8	77.01968955993652	movie	1		277	6.0	2.5	/experiments/knapen_AOT/AOT_stimuli/rescaled_final/2113_fw.mp4	0.0	95.47049331665039	2.492034435272217
8	77.79302906990051	pulse	1	t		6.0	2.5	/experiments/knapen_AOT/AOT_stimuli/rescaled_final/2113_fw.mp4	0.0	96.24383282661438	
8	79.39486026763916	pulse	1	t		6.0	2.5	/experiments/knapen_AOT/AOT_stimuli/rescaled_final/2113_fw.mp4	0.0	97.84566402435303	
8	79.51172399520874	fix_post	2		12	6.0	2.5	/experiments/knapen_AOT/AOT_stimuli/rescaled_final/2113_fw.mp4	0.0	97.96252775192261	0.10002994537353516
9	79.61175394058228	fix_pre	0		120	7.0	2.5	blank	1.0	98.06255769729614	1.0001649856567383
9	80.61191892623901	movie	1		300	7.0	2.5	blank	1.0	99.06272268295288	2.5003292560577393
9	80.99548125267029	pulse	1	t		7.0	2.5	blank	1.0	99.44628500938416	
9	82.59567928314209	pulse	1	t		7.0	2.5	blank	1.0	101.04648303985596	
9	83.11224818229675	fix_post	2		12	7.0	2.5	blank	1.0	101.56305193901062	0.09999513626098633
10	83.21224331855774	fix_pre	0		119	8.0	2.5	/experiments/knapen_AOT/AOT_stimuli/rescaled_final/2081_rv.mp4	0.0	101.6630470752716	1.000171422958374
10	84.1960220336914	pulse	0	t		8.0	2.5	/experiments/knapen_AOT/AOT_stimuli/rescaled_final/2081_rv.mp4	0.0	102.64682579040527	
10	84.21241474151611	movie	1		286	8.0	2.5	/experiments/knapen_AOT/AOT_stimuli/rescaled_final/2081_rv.mp4	0.0	102.66321849822998	2.5003609657287598
10	85.79467487335205	pulse	1	t		8.0	2.5	/experiments/knapen_AOT/AOT_stimuli/rescaled_final/2081_rv.mp4	0.0	104.24547863006592	
10	86.71277570724487	fix_post	2		12	8.0	2.5	/experiments/knapen_AOT/AOT_stimuli/rescaled_final/2081_rv.mp4	0.0	105.16357946395874	0.10006833076477051
11	86.81284403800964	fix_pre	0		120	9.0	2.5	/experiments/knapen_AOT/AOT_stimuli/rescaled_final/0238_fw.mp4	0.0	105.26364779472351	1.0085370540618896
11	87.39652347564697	pulse	0	t		9.0	2.5	/experiments/knapen_AOT/AOT_stimuli/rescaled_final/0238_fw.mp4	0.0	105.84732723236084	
11	87.82138109207153	movie	1		284	9.0	2.5	/experiments/knapen_AOT/AOT_stimuli/rescaled_final/0238_fw.mp4	0.0	106.2721848487854	2.4919381141662598
11	88.99486303329468	pulse	1	t		9.0	2.5	/experiments/knapen_AOT/AOT_stimuli/rescaled_final/0238_fw.mp4	0.0	107.44566679000854	
11	90.3133192062378	fix_post	2		12	9.0	2.5	/experiments/knapen_AOT/AOT_stimuli/rescaled_final/0238_fw.mp4	0.0	108.76412296295166	0.1000206470489502
12	90.41333985328674	fix_pre	0		120	10.0	2.5	/experiments/knapen_AOT/AOT_stimuli/rescaled_final/1579_rv.mp4	0.0	108.86414361000061	1.008528232574463
12	90.5971372127533	pulse	0	t		10.0	2.5	/experiments/knapen_AOT/AOT_stimuli/rescaled_final/1579_rv.mp4	0.0	109.04794096946716	
12	91.4218680858612	movie	1		280	10.0	2.5	/experiments/knapen_AOT/AOT_stimuli/rescaled_final/1579_rv.mp4	0.0	109.87267184257507	2.4920156002044678
12	92.1950032711029	pulse	1	t		10.0	2.5	/experiments/knapen_AOT/AOT_stimuli/rescaled_final/1579_rv.mp4	0.0	110.64580702781677	
12	93.79535460472107	pulse	1	t		10.0	2.5	/experiments/knapen_AOT/AOT_stimuli/rescaled_final/1579_rv.mp4	0.0	112.24615836143494	
12	93.91388368606567	fix_post	2		12	10.0	2.5	/experiments/knapen_AOT/AOT_stimuli/rescaled_final/1579_rv.mp4	0.0	112.36468744277954	0.0999908447265625
13	94.01387453079224	fix_pre	0		120	11.0	2.5	/experiments/knapen_AOT/AOT_stimuli/rescaled_final/0647_fw.mp4	0.0	112.4646782875061	1.0085225105285645
13	95.0223970413208	movie	1		283	11.0	2.5	/experiments/knapen_AOT/AOT_stimuli/rescaled_final/0647_fw.mp4	0.0	113.47320079803467	2.4920008182525635
13	95.39616823196411	pulse	1	t		11.0	2.5	/experiments/knapen_AOT/AOT_stimuli/rescaled_final/0647_fw.mp4	0.0	113.84697198867798	
13	96.99650931358337	pulse	1	t		11.0	2.5	/experiments/knapen_AOT/AOT_stimuli/rescaled_final/0647_fw.mp4	0.0	115.44731307029724	
13	97.51439785957336	fix_post	2		12	11.0	2.5	/experiments/knapen_AOT/AOT_stimuli/rescaled_final/0647_fw.mp4	0.0	115.96520161628723	0.10004448890686035
14	97.61444234848022	fix_pre	0		119	12.0	2.5	/experiments/knapen_AOT/AOT_stimuli/rescaled_final/1285_fw.mp4	0.0	116.06524610519409	1.000152349472046
14	98.59857392311096	pulse	0	t		12.0	2.5	/experiments/knapen_AOT/AOT_stimuli/rescaled_final/1285_fw.mp4	0.0	117.04937767982483	
14	98.61459469795227	movie	1		272	12.0	2.5	/experiments/knapen_AOT/AOT_stimuli/rescaled_final/1285_fw.mp4	0.0	117.06539845466614	2.5003488063812256
14	100.19785928726196	pulse	1	t		12.0	2.5	/experiments/knapen_AOT/AOT_stimuli/rescaled_final/1285_fw.mp4	0.0	118.64866304397583	
14	101.1149435043335	fix_post	2		12	12.0	2.5	/experiments/knapen_AOT/AOT_stimuli/rescaled_final/1285_fw.mp4	0.0	119.56574726104736	0.10002970695495605
15	101.21497321128845	fix_pre	0		120	13.0	2.5	/experiments/knapen_AOT/AOT_stimuli/rescaled_final/1813_rv.mp4	0.0	119.66577696800232	1.0084867477416992
15	101.79136753082275	pulse	0	t		13.0	2.5	/experiments/knapen_AOT/AOT_stimuli/rescaled_final/1813_rv.mp4	0.0	120.24217128753662	
15	102.22345995903015	movie	1		284	13.0	2.5	/experiments/knapen_AOT/AOT_stimuli/rescaled_final/1813_rv.mp4	0.0	120.67426371574402	2.492041826248169
15	103.39679622650146	pulse	1	t		13.0	2.5	/experiments/knapen_AOT/AOT_stimuli/rescaled_final/1813_rv.mp4	0.0	121.84759998321533	
15	104.71550178527832	fix_post	2		12	13.0	2.5	/experiments/knapen_AOT/AOT_stimuli/rescaled_final/1813_rv.mp4	0.0	123.16630554199219	0.10000014305114746
16	104.81550192832947	fix_pre	0		120	14.0	2.5	blank	1.0	123.26630568504333	1.0001325607299805
16	104.9909257888794	pulse	0	t		14.0	2.5	blank	1.0	123.44172954559326	
16	105.81563448905945	movie	1		300	14.0	2.5	blank	1.0	124.26643824577332	2.5004212856292725
16	106.59101462364197	pulse	1	t		14.0	2.5	blank	1.0	125.04181838035583	
16	108.19122171401978	pulse	1	t		14.0	2.5	blank	1.0	126.64202547073364	
16	108.31605577468872	fix_post	2		12	14.0	2.5	blank	1.0	126.76685953140259	0.10000276565551758
17	108.41605854034424	fix_pre	0		120	15.0	2.5	/experiments/knapen_AOT/AOT_stimuli/rescaled_final/1071_rv.mp4	0.0	126.8668622970581	1.008469820022583
17	109.42452836036682	movie	1		281	15.0	2.5	/experiments/knapen_AOT/AOT_stimuli/rescaled_final/1071_rv.mp4	0.0	127.87533211708069	2.492035150527954
17	109.79150652885437	pulse	1	t		15.0	2.5	/experiments/knapen_AOT/AOT_stimuli/rescaled_final/1071_rv.mp4	0.0	128.24231028556824	
17	111.3917088508606	pulse	1	t		15.0	2.5	/experiments/knapen_AOT/AOT_stimuli/rescaled_final/1071_rv.mp4	0.0	129.84251260757446	
17	111.91656351089478	fix_post	2		12	15.0	2.5	/experiments/knapen_AOT/AOT_stimuli/rescaled_final/1071_rv.mp4	0.0	130.36736726760864	0.10019898414611816
18	112.0167624950409	fix_pre	0		118	16.0	2.5	/experiments/knapen_AOT/AOT_stimuli/rescaled_final/1231_fw.mp4	0.0	130.46756625175476	1.000030279159546
18	112.99205803871155	pulse	0	t		16.0	2.5	/experiments/knapen_AOT/AOT_stimuli/rescaled_final/1231_fw.mp4	0.0	131.44286179542542	
18	113.01679277420044	movie	1		284	16.0	2.5	/experiments/knapen_AOT/AOT_stimuli/rescaled_final/1231_fw.mp4	0.0	131.4675965309143	2.4919838905334473
18	114.59119868278503	pulse	1	t		16.0	2.5	/experiments/knapen_AOT/AOT_stimuli/rescaled_final/1231_fw.mp4	0.0	133.0420024394989	
18	115.50877666473389	fix_post	2		12	16.0	2.5	/experiments/knapen_AOT/AOT_stimuli/rescaled_final/1231_fw.mp4	0.0	133.95958042144775	0.10001134872436523
19	115.60878801345825	fix_pre	0		120	17.0	2.5	/experiments/knapen_AOT/AOT_stimuli/rescaled_final/1437_rv.mp4	0.0	134.05959177017212	1.0085010528564453
19	116.19241118431091	pulse	0	t		17.0	2.5	/experiments/knapen_AOT/AOT_stimuli/rescaled_final/1437_rv.mp4	0.0	134.64321494102478	
19	116.6172890663147	movie	1		271	17.0	2.5	/experiments/knapen_AOT/AOT_stimuli/rescaled_final/1437_rv.mp4	0.0	135.06809282302856	2.49202299118042
19	117.79269027709961	pulse	1	t		17.0	2.5	/experiments/knapen_AOT/AOT_stimuli/rescaled_final/1437_rv.mp4	0.0	136.24349403381348	
19	119.10931205749512	fix_post	2		12	17.0	2.5	/experiments/knapen_AOT/AOT_stimuli/rescaled_final/1437_rv.mp4	0.0	137.56011581420898	0.10014486312866211
20	119.20945692062378	fix_pre	0		120	18.0	2.5	/experiments/knapen_AOT/AOT_stimuli/rescaled_final/0105_rv.mp4	0.0	137.66026067733765	1.0083670616149902
20	119.39289021492004	pulse	0	t		18.0	2.5	/experiments/knapen_AOT/AOT_stimuli/rescaled_final/0105_rv.mp4	0.0	137.8436939716339	
20	120.21782398223877	movie	1		277	18.0	2.5	/experiments/knapen_AOT/AOT_stimuli/rescaled_final/0105_rv.mp4	0.0	138.66862773895264	2.4920284748077393
20	120.99330639839172	pulse	1	t		18.0	2.5	/experiments/knapen_AOT/AOT_stimuli/rescaled_final/0105_rv.mp4	0.0	139.4441101551056	
20	122.59148836135864	pulse	1	t		18.0	2.5	/experiments/knapen_AOT/AOT_stimuli/rescaled_final/0105_rv.mp4	0.0	141.0422921180725	
20	122.70985245704651	fix_post	2		12	18.0	2.5	/experiments/knapen_AOT/AOT_stimuli/rescaled_final/0105_rv.mp4	0.0	141.16065621376038	0.10002255439758301
21	122.80987501144409	fix_pre	0		120	19.0	2.5	/experiments/knapen_AOT/AOT_stimuli/rescaled_final/1559_rv.mp4	0.0	141.26067876815796	1.0085015296936035
21	123.8183765411377	movie	1		279	19.0	2.5	/experiments/knapen_AOT/AOT_stimuli/rescaled_final/1559_rv.mp4	0.0	142.26918029785156	2.4920952320098877
21	124.19201588630676	pulse	1	t		19.0	2.5	/experiments/knapen_AOT/AOT_stimuli/rescaled_final/1559_rv.mp4	0.0	142.64281964302063	
21	125.79208111763	pulse	1	t		19.0	2.5	/experiments/knapen_AOT/AOT_stimuli/rescaled_final/1559_rv.mp4	0.0	144.24288487434387	
21	126.31047177314758	fix_post	2		12	19.0	2.5	/experiments/knapen_AOT/AOT_stimuli/rescaled_final/1559_rv.mp4	0.0	144.76127552986145	0.10005569458007812
22	126.41052746772766	fix_pre	0		119	20.0	2.5	/experiments/knapen_AOT/AOT_stimuli/rescaled_final/0361_fw.mp4	0.0	144.86133122444153	1.00022554397583
22	127.39411902427673	pulse	0	t		20.0	2.5	/experiments/knapen_AOT/AOT_stimuli/rescaled_final/0361_fw.mp4	0.0	145.8449227809906	
22	127.41075301170349	movie	1		287	20.0	2.5	/experiments/knapen_AOT/AOT_stimuli/rescaled_final/0361_fw.mp4	0.0	145.86155676841736	2.5001814365386963
22	128.9926164150238	pulse	1	t		20.0	2.5	/experiments/knapen_AOT/AOT_stimuli/rescaled_final/0361_fw.mp4	0.0	147.44342017173767	
22	129.9109344482422	fix_post	2		12	20.0	2.5	/experiments/knapen_AOT/AOT_stimuli/rescaled_final/0361_fw.mp4	0.0	148.36173820495605	0.10002017021179199
23	130.01095461845398	fix_pre	0		120	21.0	2.5	blank	1.0	148.46175837516785	1.0002696514129639
23	130.59461450576782	pulse	0	t		21.0	2.5	blank	1.0	149.0454182624817	
23	131.01122426986694	movie	1		300	21.0	2.5	blank	1.0	149.4620280265808	2.500275135040283
23	132.19481992721558	pulse	1	t		21.0	2.5	blank	1.0	150.64562368392944	
23	133.51149940490723	fix_post	2		12	21.0	2.5	blank	1.0	151.9623031616211	0.10000109672546387
24	133.6115005016327	fix_pre	0		120	22.0	2.5	/experiments/knapen_AOT/AOT_stimuli/rescaled_final/0516_fw.mp4	0.0	152.06230425834656	1.0084724426269531
24	133.7950472831726	pulse	0	t		22.0	2.5	/experiments/knapen_AOT/AOT_stimuli/rescaled_final/0516_fw.mp4	0.0	152.24585103988647	
24	134.61997294425964	movie	1		273	22.0	2.5	/experiments/knapen_AOT/AOT_stimuli/rescaled_final/0516_fw.mp4	0.0	153.0707767009735	2.4920482635498047
24	135.3933515548706	pulse	1	t		22.0	2.5	/experiments/knapen_AOT/AOT_stimuli/rescaled_final/0516_fw.mp4	0.0	153.84415531158447	
24	136.9955735206604	pulse	1	t		22.0	2.5	/experiments/knapen_AOT/AOT_stimuli/rescaled_final/0516_fw.mp4	0.0	155.44637727737427	
24	137.11202120780945	fix_post	2		12	22.0	2.5	/experiments/knapen_AOT/AOT_stimuli/rescaled_final/0516_fw.mp4	0.0	155.56282496452332	0.1000220775604248
25	137.21204328536987	fix_pre	0		120	23.0	2.5	/experiments/knapen_AOT/AOT_stimuli/rescaled_final/1045_rv.mp4	0.0	155.66284704208374	1.0085482597351074
25	138.22059154510498	movie	1		278	23.0	2.5	/experiments/knapen_AOT/AOT_stimuli/rescaled_final/1045_rv.mp4	0.0	156.67139530181885	2.4919514656066895
25	138.5947241783142	pulse	1	t		23.0	2.5	/experiments/knapen_AOT/AOT_stimuli/rescaled_final/1045_rv.mp4	0.0	157.04552793502808	
25	140.1951777935028	pulse	1	t		23.0	2.5	/experiments/knapen_AOT/AOT_stimuli/rescaled_final/1045_rv.mp4	0.0	158.64598155021667	
25	140.71254301071167	fix_post	2		12	23.0	2.5	/experiments/knapen_AOT/AOT_stimuli/rescaled_final/1045_rv.mp4	0.0	159.16334676742554	0.10003376007080078
26	140.81257677078247	fix_pre	0		119	24.0	2.5	/experiments/knapen_AOT/AOT_stimuli/rescaled_final/1579_fw.mp4	0.0	159.26338052749634	1.0085177421569824
26	141.7962625026703	pulse	0	t		24.0	2.5	/experiments/knapen_AOT/AOT_stimuli/rescaled_final/1579_fw.mp4	0.0	160.24706625938416	
26	141.82109451293945	movie	1		281	24.0	2.5	/experiments/knapen_AOT/AOT_stimuli/rescaled_final/1579_fw.mp4	0.0	160.27189826965332	2.4920217990875244
26	143.39550352096558	pulse	1	t		24.0	2.5	/experiments/knapen_AOT/AOT_stimuli/rescaled_final/1579_fw.mp4	0.0	161.84630727767944	
26	144.31311631202698	fix_post	2		12	24.0	2.5	/experiments/knapen_AOT/AOT_stimuli/rescaled_final/1579_fw.mp4	0.0	162.76392006874084	0.10000801086425781
27	144.41312432289124	fix_pre	0		120	25.0	2.5	/experiments/knapen_AOT/AOT_stimuli/rescaled_final/0594_fw.mp4	0.0	162.8639280796051	1.008490800857544
27	144.99681305885315	pulse	0	t		25.0	2.5	/experiments/knapen_AOT/AOT_stimuli/rescaled_final/0594_fw.mp4	0.0	163.44761681556702	
27	145.42161512374878	movie	1		280	25.0	2.5	/experiments/knapen_AOT/AOT_stimuli/rescaled_final/0594_fw.mp4	0.0	163.87241888046265	2.4920318126678467
27	146.59512591362	pulse	1	t		25.0	2.5	/experiments/knapen_AOT/AOT_stimuli/rescaled_final/0594_fw.mp4	0.0	165.04592967033386	
27	147.91364693641663	fix_post	2		12	25.0	2.5	/experiments/knapen_AOT/AOT_stimuli/rescaled_final/0594_fw.mp4	0.0	166.3644506931305	0.10003066062927246
28	148.0136775970459	fix_pre	0		120	26.0	2.5	blank	1.0	166.46448135375977	1.0001351833343506
28	148.19728589057922	pulse	0	t		26.0	2.5	blank	1.0	166.6480896472931	
28	149.01381278038025	movie	1		300	26.0	2.5	blank	1.0	167.46461653709412	2.5003631114959717
28	149.79754853248596	pulse	1	t		26.0	2.5	blank	1.0	168.24835228919983	
28	151.39771342277527	pulse	1	t		26.0	2.5	blank	1.0	169.84851717948914	
28	151.51417589187622	fix_post	2		12	26.0	2.5	blank	1.0	169.9649796485901	0.1000213623046875
29	151.6141972541809	fix_pre	0		120	27.0	2.5	/experiments/knapen_AOT/AOT_stimuli/rescaled_final/1546_rv.mp4	0.0	170.06500101089478	1.0084893703460693
29	152.62268662452698	movie	1		281	27.0	2.5	/experiments/knapen_AOT/AOT_stimuli/rescaled_final/1546_rv.mp4	0.0	171.07349038124084	2.4920620918273926
29	152.9983615875244	pulse	1	t		27.0	2.5	/experiments/knapen_AOT/AOT_stimuli/rescaled_final/1546_rv.mp4	0.0	171.44916534423828	
29	154.59614086151123	pulse	1	t		27.0	2.5	/experiments/knapen_AOT/AOT_stimuli/rescaled_final/1546_rv.mp4	0.0	173.0469446182251	
29	155.11474871635437	fix_post	2		12	27.0	2.5	/experiments/knapen_AOT/AOT_stimuli/rescaled_final/1546_rv.mp4	0.0	173.56555247306824	0.1000204086303711
30	155.21476912498474	fix_pre	0		119	28.0	2.5	/experiments/knapen_AOT/AOT_stimuli/rescaled_final/1325_rv.mp4	0.0	173.6655728816986	1.0001211166381836
30	156.19849157333374	pulse	0	t		28.0	2.5	/experiments/knapen_AOT/AOT_stimuli/rescaled_final/1325_rv.mp4	0.0	174.6492953300476	
30	156.21489024162292	movie	1		291	28.0	2.5	/experiments/knapen_AOT/AOT_stimuli/rescaled_final/1325_rv.mp4	0.0	174.6656939983368	2.500373363494873
30	157.79685401916504	pulse	1	t		28.0	2.5	/experiments/knapen_AOT/AOT_stimuli/rescaled_final/1325_rv.mp4	0.0	176.2476577758789	
30	158.7152636051178	fix_post	2		12	28.0	2.5	/experiments/knapen_AOT/AOT_stimuli/rescaled_final/1325_rv.mp4	0.0	177.16606736183167	0.10001373291015625
31	158.81527733802795	fix_pre	0		120	29.0	2.5	/experiments/knapen_AOT/AOT_stimuli/rescaled_final/1560_rv.mp4	0.0	177.26608109474182	1.008549451828003
31	159.3990306854248	pulse	0	t		29.0	2.5	/experiments/knapen_AOT/AOT_stimuli/rescaled_final/1560_rv.mp4	0.0	177.84983444213867	
31	159.82382678985596	movie	1		295	29.0	2.5	/experiments/knapen_AOT/AOT_stimuli/rescaled_final/1560_rv.mp4	0.0	178.27463054656982	2.4920055866241455
31	160.99708318710327	pulse	1	t		29.0	2.5	/experiments/knapen_AOT/AOT_stimuli/rescaled_final/1560_rv.mp4	0.0	179.44788694381714	
31	162.3158323764801	fix_post	2		12	29.0	2.5	/experiments/knapen_AOT/AOT_stimuli/rescaled_final/1560_rv.mp4	0.0	180.76663613319397	0.1000051498413086
32	162.4158375263214	fix_pre	0		120	30.0	2.5	/experiments/knapen_AOT/AOT_stimuli/rescaled_final/1871_fw.mp4	0.0	180.86664128303528	1.0085341930389404
32	162.5913429260254	pulse	0	t		30.0	2.5	/experiments/knapen_AOT/AOT_stimuli/rescaled_final/1871_fw.mp4	0.0	181.04214668273926	
32	163.42437171936035	movie	1		292	30.0	2.5	/experiments/knapen_AOT/AOT_stimuli/rescaled_final/1871_fw.mp4	0.0	181.87517547607422	2.4920599460601807
32	164.19135904312134	pulse	1	t		30.0	2.5	/experiments/knapen_AOT/AOT_stimuli/rescaled_final/1871_fw.mp4	0.0	182.6421627998352	
32	165.79162669181824	pulse	1	t		30.0	2.5	/experiments/knapen_AOT/AOT_stimuli/rescaled_final/1871_fw.mp4	0.0	184.2424304485321	
32	165.91643166542053	fix_post	2		12	30.0	2.5	/experiments/knapen_AOT/AOT_stimuli/rescaled_final/1871_fw.mp4	0.0	184.3672354221344	0.09999203681945801
33	166.01642370224	fix_pre	0		120	31.0	2.5	/experiments/knapen_AOT/AOT_stimuli/rescaled_final/1511_rv.mp4	0.0	184.46722745895386	1.008434534072876
33	167.02485823631287	movie	1		286	31.0	2.5	/experiments/knapen_AOT/AOT_stimuli/rescaled_final/1511_rv.mp4	0.0	185.47566199302673	2.4920268058776855
33	167.39188742637634	pulse	1	t		31.0	2.5	/experiments/knapen_AOT/AOT_stimuli/rescaled_final/1511_rv.mp4	0.0	185.8426911830902	
33	168.99213004112244	pulse	1	t		31.0	2.5	/experiments/knapen_AOT/AOT_stimuli/rescaled_final/1511_rv.mp4	0.0	187.4429337978363	
33	169.51688504219055	fix_post	2		12	31.0	2.5	/experiments/knapen_AOT/AOT_stimuli/rescaled_final/1511_rv.mp4	0.0	187.96768879890442	0.10001063346862793
34	169.61689567565918	fix_pre	0		118	32.0	2.5	/experiments/knapen_AOT/AOT_stimuli/rescaled_final/0518_rv.mp4	0.0	188.06769943237305	0.9918386936187744
34	170.5923216342926	pulse	0	t		32.0	2.5	/experiments/knapen_AOT/AOT_stimuli/rescaled_final/0518_rv.mp4	0.0	189.04312539100647	
34	170.60873436927795	movie	1		280	32.0	2.5	/experiments/knapen_AOT/AOT_stimuli/rescaled_final/0518_rv.mp4	0.0	189.05953812599182	2.5004160404205322
34	172.19260787963867	pulse	1	t		32.0	2.5	/experiments/knapen_AOT/AOT_stimuli/rescaled_final/0518_rv.mp4	0.0	190.64341163635254	
34	173.1091504096985	fix_post	2		12	32.0	2.5	/experiments/knapen_AOT/AOT_stimuli/rescaled_final/0518_rv.mp4	0.0	191.55995416641235	0.09997940063476562
35	173.20912981033325	fix_pre	0		120	33.0	2.5	/experiments/knapen_AOT/AOT_stimuli/rescaled_final/1919_rv.mp4	0.0	191.65993356704712	1.0084888935089111
35	173.7927267551422	pulse	0	t		33.0	2.5	/experiments/knapen_AOT/AOT_stimuli/rescaled_final/1919_rv.mp4	0.0	192.24353051185608	
35	174.21761870384216	movie	1		278	33.0	2.5	/experiments/knapen_AOT/AOT_stimuli/rescaled_final/1919_rv.mp4	0.0	192.66842246055603	2.4920756816864014
35	175.39293384552002	pulse	1	t		33.0	2.5	/experiments/knapen_AOT/AOT_stimuli/rescaled_final/1919_rv.mp4	0.0	193.8437376022339	
35	176.70969438552856	fix_post	2		12	33.0	2.5	/experiments/knapen_AOT/AOT_stimuli/rescaled_final/1919_rv.mp4	0.0	195.16049814224243	0.09996366500854492
36	176.8096580505371	fix_pre	0		120	34.0	2.5	blank	1.0	195.26046180725098	1.000164270401001
36	176.9932520389557	pulse	0	t		34.0	2.5	blank	1.0	195.44405579566956	
36	177.8098223209381	movie	1		300	34.0	2.5	blank	1.0	196.26062607765198	2.5004396438598633
36	178.59345483779907	pulse	1	t		34.0	2.5	blank	1.0	197.04425859451294	
36	180.19366598129272	pulse	1	t		34.0	2.5	blank	1.0	198.6444697380066	
36	180.31026196479797	fix_post	2		12	34.0	2.5	blank	1.0	198.76106572151184	0.09998917579650879
37	180.41025114059448	fix_pre	0		120	35.0	2.5	/experiments/knapen_AOT/AOT_stimuli/rescaled_final/1092_rv.mp4	0.0	198.86105489730835	1.0085537433624268
37	181.4188048839569	movie	1		272	35.0	2.5	/experiments/knapen_AOT/AOT_stimuli/rescaled_final/1092_rv.mp4	0.0	199.86960864067078	2.491936206817627
37	181.79285192489624	pulse	1	t		35.0	2.5	/experiments/knapen_AOT/AOT_stimuli/rescaled_final/1092_rv.mp4	0.0	200.2436556816101	
37	183.39217066764832	pulse	1	t		35.0	2.5	/experiments/knapen_AOT/AOT_stimuli/rescaled_final/1092_rv.mp4	0.0	201.84297442436218	
37	183.91074109077454	fix_post	2		12	35.0	2.5	/experiments/knapen_AOT/AOT_stimuli/rescaled_final/1092_rv.mp4	0.0	202.3615448474884	0.10000300407409668
38	184.01074409484863	fix_pre	0		119	36.0	2.5	/experiments/knapen_AOT/AOT_stimuli/rescaled_final/2138_fw.mp4	0.0	202.4615478515625	1.0001795291900635
38	184.99447584152222	pulse	0	t		36.0	2.5	/experiments/knapen_AOT/AOT_stimuli/rescaled_final/2138_fw.mp4	0.0	203.44527959823608	
38	185.0109236240387	movie	1		277	36.0	2.5	/experiments/knapen_AOT/AOT_stimuli/rescaled_final/2138_fw.mp4	0.0	203.46172738075256	2.500333786010742
38	186.5930995941162	pulse	1	t		36.0	2.5	/experiments/knapen_AOT/AOT_stimuli/rescaled_final/2138_fw.mp4	0.0	205.04390335083008	
38	187.51125741004944	fix_post	2		12	36.0	2.5	/experiments/knapen_AOT/AOT_stimuli/rescaled_final/2138_fw.mp4	0.0	205.9620611667633	0.10002875328063965
39	187.61128616333008	fix_pre	0		120	37.0	2.5	/experiments/knapen_AOT/AOT_stimuli/rescaled_final/1045_fw.mp4	0.0	206.06208992004395	1.0085639953613281
39	188.19489240646362	pulse	0	t		37.0	2.5	/experiments/knapen_AOT/AOT_stimuli/rescaled_final/1045_fw.mp4	0.0	206.6456961631775	
39	188.6198501586914	movie	1		272	37.0	2.5	/experiments/knapen_AOT/AOT_stimuli/rescaled_final/1045_fw.mp4	0.0	207.07065391540527	2.491950511932373
39	189.793847322464	pulse	1	t		37.0	2.5	/experiments/knapen_AOT/AOT_stimuli/rescaled_final/1045_fw.mp4	0.0	208.24465107917786	
39	191.11180067062378	fix_post	2		12	37.0	2.5	/experiments/knapen_AOT/AOT_stimuli/rescaled_final/1045_fw.mp4	0.0	209.56260442733765	0.10001969337463379
40	191.2118203639984	fix_pre	0		120	38.0	2.5	/experiments/knapen_AOT/AOT_stimuli/rescaled_final/1852_rv.mp4	0.0	209.66262412071228	1.0085277557373047
40	191.39537000656128	pulse	0	t		38.0	2.5	/experiments/knapen_AOT/AOT_stimuli/rescaled_final/1852_rv.mp4	0.0	209.84617376327515	
40	192.22034811973572	movie	1		282	38.0	2.5	/experiments/knapen_AOT/AOT_stimuli/rescaled_final/1852_rv.mp4	0.0	210.67115187644958	2.491999626159668
40	192.99344086647034	pulse	1	t		38.0	2.5	/experiments/knapen_AOT/AOT_stimuli/rescaled_final/1852_rv.mp4	0.0	211.4442446231842	
40	194.59601187705994	pulse	1	t		38.0	2.5	/experiments/knapen_AOT/AOT_stimuli/rescaled_final/1852_rv.mp4	0.0	213.0468156337738	
40	194.71234774589539	fix_post	2		12	38.0	2.5	/experiments/knapen_AOT/AOT_stimuli/rescaled_final/1852_rv.mp4	0.0	213.16315150260925	0.10000324249267578
41	194.81235098838806	fix_pre	0		120	39.0	2.5	/experiments/knapen_AOT/AOT_stimuli/rescaled_final/2172_rv.mp4	0.0	213.26315474510193	1.0085365772247314
41	195.8208875656128	movie	1		277	39.0	2.5	/experiments/knapen_AOT/AOT_stimuli/rescaled_final/2172_rv.mp4	0.0	214.27169132232666	2.4919819831848145
41	196.19531440734863	pulse	1	t		39.0	2.5	/experiments/knapen_AOT/AOT_stimuli/rescaled_final/2172_rv.mp4	0.0	214.6461181640625	
41	197.79611802101135	pulse	1	t		39.0	2.5	/experiments/knapen_AOT/AOT_stimuli/rescaled_final/2172_rv.mp4	0.0	216.24692177772522	
41	198.3128695487976	fix_post	2		12	39.0	2.5	/experiments/knapen_AOT/AOT_stimuli/rescaled_final/2172_rv.mp4	0.0	216.76367330551147	0.1000368595123291
42	198.41290640830994	fix_pre	0		119	40.0	2.5	/experiments/knapen_AOT/AOT_stimuli/rescaled_final/1010_fw.mp4	0.0	216.8637101650238	1.0001494884490967
42	199.3966314792633	pulse	0	t		40.0	2.5	/experiments/knapen_AOT/AOT_stimuli/rescaled_final/1010_fw.mp4	0.0	217.84743523597717	
42	199.41305589675903	movie	1		284	40.0	2.5	/experiments/knapen_AOT/AOT_stimuli/rescaled_final/1010_fw.mp4	0.0	217.8638596534729	2.5004050731658936
42	200.99529814720154	pulse	1	t		40.0	2.5	/experiments/knapen_AOT/AOT_stimuli/rescaled_final/1010_fw.mp4	0.0	219.4461019039154	
42	201.91346096992493	fix_post	2		12	40.0	2.5	/experiments/knapen_AOT/AOT_stimuli/rescaled_final/1010_fw.mp4	0.0	220.3642647266388	0.10000467300415039
43	202.01346564292908	fix_pre	0		120	41.0	2.5	blank	1.0	220.46426939964294	1.000124454498291
43	202.59709644317627	pulse	0	t		41.0	2.5	blank	1.0	221.04790019989014	
43	203.01359009742737	movie	1		300	41.0	2.5	blank	1.0	221.46439385414124	2.5003573894500732
43	204.19733357429504	pulse	1	t		41.0	2.5	blank	1.0	222.6481373310089	
43	205.51394748687744	fix_post	2		12	41.0	2.5	blank	1.0	223.9647512435913	0.10002517700195312
44	205.6139726638794	fix_pre	0		120	42.0	2.5	/experiments/knapen_AOT/AOT_stimuli/rescaled_final/0650_fw.mp4	0.0	224.06477642059326	1.0085041522979736
44	205.79756498336792	pulse	0	t		42.0	2.5	/experiments/knapen_AOT/AOT_stimuli/rescaled_final/0650_fw.mp4	0.0	224.2483687400818	
44	206.62247681617737	movie	1		283	42.0	2.5	/experiments/knapen_AOT/AOT_stimuli/rescaled_final/0650_fw.mp4	0.0	225.07328057289124	2.4920177459716797
44	207.39678120613098	pulse	1	t		42.0	2.5	/experiments/knapen_AOT/AOT_stimuli/rescaled_final/0650_fw.mp4	0.0	225.84758496284485	
44	208.99718117713928	pulse	1	t		42.0	2.5	/experiments/knapen_AOT/AOT_stimuli/rescaled_final/0650_fw.mp4	0.0	227.44798493385315	
44	209.11449456214905	fix_post	2		12	42.0	2.5	/experiments/knapen_AOT/AOT_stimuli/rescaled_final/0650_fw.mp4	0.0	227.56529831886292	0.10011005401611328
45	209.21460461616516	fix_pre	0		120	43.0	2.5	/experiments/knapen_AOT/AOT_stimuli/rescaled_final/0650_rv.mp4	0.0	227.66540837287903	1.0084540843963623
45	210.22305870056152	movie	1		279	43.0	2.5	/experiments/knapen_AOT/AOT_stimuli/rescaled_final/0650_rv.mp4	0.0	228.6738624572754	2.492053985595703
45	210.5979516506195	pulse	1	t		43.0	2.5	/experiments/knapen_AOT/AOT_stimuli/rescaled_final/0650_rv.mp4	0.0	229.04875540733337	
45	212.19668841362	pulse	1	t		43.0	2.5	/experiments/knapen_AOT/AOT_stimuli/rescaled_final/0650_rv.mp4	0.0	230.64749217033386	
45	212.71511268615723	fix_post	2		12	43.0	2.5	/experiments/knapen_AOT/AOT_stimuli/rescaled_final/0650_rv.mp4	0.0	231.1659164428711	0.09995603561401367
46	212.81506872177124	fix_pre	0		119	44.0	2.5	/experiments/knapen_AOT/AOT_stimuli/rescaled_final/0878_fw.mp4	0.0	231.2658724784851	1.0001957416534424
46	213.7987620830536	pulse	0	t		44.0	2.5	/experiments/knapen_AOT/AOT_stimuli/rescaled_final/0878_fw.mp4	0.0	232.24956583976746	
46	213.81526446342468	movie	1		280	44.0	2.5	/experiments/knapen_AOT/AOT_stimuli/rescaled_final/0878_fw.mp4	0.0	232.26606822013855	2.5003228187561035
46	215.39719438552856	pulse	1	t		44.0	2.5	/experiments/knapen_AOT/AOT_stimuli/rescaled_final/0878_fw.mp4	0.0	233.84799814224243	
46	216.3155872821808	fix_post	2		12	44.0	2.5	/experiments/knapen_AOT/AOT_stimuli/rescaled_final/0878_fw.mp4	0.0	234.76639103889465	0.10000872611999512
47	216.41559600830078	fix_pre	0		120	45.0	2.5	/experiments/knapen_AOT/AOT_stimuli/rescaled_final/0251_rv.mp4	0.0	234.86639976501465	1.0085570812225342
47	216.99951219558716	pulse	0	t		45.0	2.5	/experiments/knapen_AOT/AOT_stimuli/rescaled_final/0251_rv.mp4	0.0	235.45031595230103	
47	217.42415308952332	movie	1		262	45.0	2.5	/experiments/knapen_AOT/AOT_stimuli/rescaled_final/0251_rv.mp4	0.0	235.87495684623718	2.491981029510498
47	218.59813690185547	pulse	1	t		45.0	2.5	/experiments/knapen_AOT/AOT_stimuli/rescaled_final/0251_rv.mp4	0.0	237.04894065856934	
47	219.9161341190338	fix_post	2		12	45.0	2.5	/experiments/knapen_AOT/AOT_stimuli/rescaled_final/0251_rv.mp4	0.0	238.36693787574768	0.10001802444458008
48	220.0161521434784	fix_pre	0		120	46.0	2.5	/experiments/knapen_AOT/AOT_stimuli/rescaled_final/0915_rv.mp4	0.0	238.46695590019226	1.0084781646728516
48	220.19173002243042	pulse	0	t		46.0	2.5	/experiments/knapen_AOT/AOT_stimuli/rescaled_final/0915_rv.mp4	0.0	238.6425337791443	
48	221.02463030815125	movie	1		285	46.0	2.5	/experiments/knapen_AOT/AOT_stimuli/rescaled_final/0915_rv.mp4	0.0	239.4754340648651	2.492042064666748
48	221.79176259040833	pulse	1	t		46.0	2.5	/experiments/knapen_AOT/AOT_stimuli/rescaled_final/0915_rv.mp4	0.0	240.2425663471222	
48	223.39187049865723	pulse	1	t		46.0	2.5	/experiments/knapen_AOT/AOT_stimuli/rescaled_final/0915_rv.mp4	0.0	241.8426742553711	
48	223.516672372818	fix_post	2		12	46.0	2.5	/experiments/knapen_AOT/AOT_stimuli/rescaled_final/0915_rv.mp4	0.0	241.96747612953186	0.10002303123474121
49	223.61669540405273	fix_pre	0		120	47.0	2.5	/experiments/knapen_AOT/AOT_stimuli/rescaled_final/1872_fw.mp4	0.0	242.0674991607666	1.0085220336914062
49	224.62521743774414	movie	1		278	47.0	2.5	/experiments/knapen_AOT/AOT_stimuli/rescaled_final/1872_fw.mp4	0.0	243.076021194458	2.491992712020874
49	224.9921338558197	pulse	1	t		47.0	2.5	/experiments/knapen_AOT/AOT_stimuli/rescaled_final/1872_fw.mp4	0.0	243.44293761253357	
49	226.592604637146	pulse	1	t		47.0	2.5	/experiments/knapen_AOT/AOT_stimuli/rescaled_final/1872_fw.mp4	0.0	245.04340839385986	
49	227.11721014976501	fix_post	2		12	47.0	2.5	/experiments/knapen_AOT/AOT_stimuli/rescaled_final/1872_fw.mp4	0.0	245.56801390647888	0.10001420974731445
50	227.21722435951233	fix_pre	0		118	48.0	2.5	blank	1.0	245.6680281162262	0.9834654331207275
50	228.19257068634033	pulse	0	t		48.0	2.5	blank	1.0	246.6433744430542	
50	228.20068979263306	movie	1		301	48.0	2.5	blank	1.0	246.65149354934692	2.508734941482544
50	229.79279398918152	pulse	1	t		48.0	2.5	blank	1.0	248.24359774589539	
50	230.7094247341156	fix_post	2		12	48.0	2.5	blank	1.0	249.16022849082947	0.1000664234161377
51	230.80949115753174	fix_pre	0		120	49.0	2.5	/experiments/knapen_AOT/AOT_stimuli/rescaled_final/1475_fw.mp4	0.0	249.2602949142456	1.0084996223449707
51	231.39309906959534	pulse	0	t		49.0	2.5	/experiments/knapen_AOT/AOT_stimuli/rescaled_final/1475_fw.mp4	0.0	249.8439028263092	
51	231.8179907798767	movie	1		289	49.0	2.5	/experiments/knapen_AOT/AOT_stimuli/rescaled_final/1475_fw.mp4	0.0	250.26879453659058	2.4920246601104736
51	232.9933567047119	pulse	1	t		49.0	2.5	/experiments/knapen_AOT/AOT_stimuli/rescaled_final/1475_fw.mp4	0.0	251.44416046142578	
51	234.31001543998718	fix_post	2		12	49.0	2.5	/experiments/knapen_AOT/AOT_stimuli/rescaled_final/1475_fw.mp4	0.0	252.76081919670105	0.1000070571899414
52	234.41002249717712	fix_pre	0		120	50.0	2.5	/experiments/knapen_AOT/AOT_stimuli/rescaled_final/0866_rv.mp4	0.0	252.860826253891	1.0084617137908936
52	234.5935389995575	pulse	0	t		50.0	2.5	/experiments/knapen_AOT/AOT_stimuli/rescaled_final/0866_rv.mp4	0.0	253.04434275627136	
52	235.41848421096802	movie	1		284	50.0	2.5	/experiments/knapen_AOT/AOT_stimuli/rescaled_final/0866_rv.mp4	0.0	253.86928796768188	2.4920241832733154
52	236.19271063804626	pulse	1	t		50.0	2.5	/experiments/knapen_AOT/AOT_stimuli/rescaled_final/0866_rv.mp4	0.0	254.64351439476013	
52	237.79248571395874	pulse	1	t		50.0	2.5	/experiments/knapen_AOT/AOT_stimuli/rescaled_final/0866_rv.mp4	0.0	256.2432894706726	
52	237.91050839424133	fix_post	2		12	50.0	2.5	/experiments/knapen_AOT/AOT_stimuli/rescaled_final/0866_rv.mp4	0.0	256.3613121509552	0.10000348091125488
53	238.0105118751526	fix_pre	0		120	51.0	2.5	/experiments/knapen_AOT/AOT_stimuli/rescaled_final/1653_fw.mp4	0.0	256.46131563186646	1.0085647106170654
53	239.01907658576965	movie	1		285	51.0	2.5	/experiments/knapen_AOT/AOT_stimuli/rescaled_final/1653_fw.mp4	0.0	257.4698803424835	2.491983413696289
53	239.39278078079224	pulse	1	t		51.0	2.5	/experiments/knapen_AOT/AOT_stimuli/rescaled_final/1653_fw.mp4	0.0	257.8435845375061	
53	240.99233675003052	pulse	1	t		51.0	2.5	/experiments/knapen_AOT/AOT_stimuli/rescaled_final/1653_fw.mp4	0.0	259.4431405067444	
53	241.51105999946594	fix_post	2		12	51.0	2.5	/experiments/knapen_AOT/AOT_stimuli/rescaled_final/1653_fw.mp4	0.0	259.9618637561798	0.10003972053527832
54	241.61109972000122	fix_pre	0		119	52.0	2.5	/experiments/knapen_AOT/AOT_stimuli/rescaled_final/1842_fw.mp4	0.0	260.0619034767151	1.0001564025878906
54	242.59479141235352	pulse	0	t		52.0	2.5	/experiments/knapen_AOT/AOT_stimuli/rescaled_final/1842_fw.mp4	0.0	261.0455951690674	
54	242.6112561225891	movie	1		282	52.0	2.5	/experiments/knapen_AOT/AOT_stimuli/rescaled_final/1842_fw.mp4	0.0	261.062059879303	2.500323534011841
54	244.19349145889282	pulse	1	t		52.0	2.5	/experiments/knapen_AOT/AOT_stimuli/rescaled_final/1842_fw.mp4	0.0	262.6442952156067	
54	245.11157965660095	fix_post	2		12	52.0	2.5	/experiments/knapen_AOT/AOT_stimuli/rescaled_final/1842_fw.mp4	0.0	263.5623834133148	0.10004067420959473
55	245.21162033081055	fix_pre	0		120	53.0	2.5	/experiments/knapen_AOT/AOT_stimuli/rescaled_final/0938_rv.mp4	0.0	263.6624240875244	1.0085642337799072
55	245.79524517059326	pulse	0	t		53.0	2.5	/experiments/knapen_AOT/AOT_stimuli/rescaled_final/0938_rv.mp4	0.0	264.24604892730713	
55	246.22018456459045	movie	1		286	53.0	2.5	/experiments/knapen_AOT/AOT_stimuli/rescaled_final/0938_rv.mp4	0.0	264.6709883213043	2.4919488430023193
55	247.39446330070496	pulse	1	t		53.0	2.5	/experiments/knapen_AOT/AOT_stimuli/rescaled_final/0938_rv.mp4	0.0	265.8452670574188	
55	248.71213340759277	fix_post	2		12	53.0	2.5	/experiments/knapen_AOT/AOT_stimuli/rescaled_final/0938_rv.mp4	0.0	267.16293716430664	0.10004782676696777
56	248.81218123435974	fix_pre	0		120	54.0	2.5	/experiments/knapen_AOT/AOT_stimuli/rescaled_final/1981_rv.mp4	0.0	267.2629849910736	1.0084586143493652
56	248.99570870399475	pulse	0	t		54.0	2.5	/experiments/knapen_AOT/AOT_stimuli/rescaled_final/1981_rv.mp4	0.0	267.4465124607086	
56	249.8206398487091	movie	1		287	54.0	2.5	/experiments/knapen_AOT/AOT_stimuli/rescaled_final/1981_rv.mp4	0.0	268.271443605423	2.4920599460601807
56	250.59454989433289	pulse	1	t		54.0	2.5	/experiments/knapen_AOT/AOT_stimuli/rescaled_final/1981_rv.mp4	0.0	269.04535365104675	
56	252.19428968429565	pulse	1	t		54.0	2.5	/experiments/knapen_AOT/AOT_stimuli/rescaled_final/1981_rv.mp4	0.0	270.6450934410095	
56	252.3126997947693	fix_post	2		12	54.0	2.5	/experiments/knapen_AOT/AOT_stimuli/rescaled_final/1981_rv.mp4	0.0	270.76350355148315	0.09999251365661621
57	252.4126923084259	fix_pre	0		120	55.0	2.5	blank	1.0	270.86349606513977	1.0001258850097656
57	253.41281819343567	movie	1		300	55.0	2.5	blank	1.0	271.86362195014954	2.5003950595855713
57	253.7964243888855	pulse	1	t		55.0	2.5	blank	1.0	272.24722814559937	
57	255.39675378799438	pulse	1	t		55.0	2.5	blank	1.0	273.84755754470825	
57	255.91321325302124	fix_post	2		12	55.0	2.5	blank	1.0	274.3640170097351	0.10003328323364258
58	256.0132465362549	fix_pre	0		119	56.0	2.5	/experiments/knapen_AOT/AOT_stimuli/rescaled_final/0137_fw.mp4	0.0	274.46405029296875	1.0001130104064941
58	256.9969139099121	pulse	0	t		56.0	2.5	/experiments/knapen_AOT/AOT_stimuli/rescaled_final/0137_fw.mp4	0.0	275.447717666626	
58	257.0133595466614	movie	1		293	56.0	2.5	/experiments/knapen_AOT/AOT_stimuli/rescaled_final/0137_fw.mp4	0.0	275.46416330337524	2.500401020050049
58	258.5961012840271	pulse	1	t		56.0	2.5	/experiments/knapen_AOT/AOT_stimuli/rescaled_final/0137_fw.mp4	0.0	277.04690504074097	
58	259.5137605667114	fix_post	2		12	56.0	2.5	/experiments/knapen_AOT/AOT_stimuli/rescaled_final/0137_fw.mp4	0.0	277.9645643234253	0.10000300407409668
59	259.6137635707855	fix_pre	0		120	57.0	2.5	/experiments/knapen_AOT/AOT_stimuli/rescaled_final/0433_rv.mp4	0.0	278.0645673274994	1.0085701942443848
59	260.1973989009857	pulse	0	t		57.0	2.5	/experiments/knapen_AOT/AOT_stimuli/rescaled_final/0433_rv.mp4	0.0	278.6482026576996	
59	260.6223337650299	movie	1		282	57.0	2.5	/experiments/knapen_AOT/AOT_stimuli/rescaled_final/0433_rv.mp4	0.0	279.0731375217438	2.491966485977173
59	261.79593086242676	pulse	1	t		57.0	2.5	/experiments/knapen_AOT/AOT_stimuli/rescaled_final/0433_rv.mp4	0.0	280.2467346191406	
59	263.1143002510071	fix_post	2		12	57.0	2.5	/experiments/knapen_AOT/AOT_stimuli/rescaled_final/0433_rv.mp4	0.0	281.56510400772095	0.10000920295715332
60	263.21430945396423	fix_pre	0		120	58.0	2.5	/experiments/knapen_AOT/AOT_stimuli/rescaled_final/1610_fw.mp4	0.0	281.6651132106781	1.0085501670837402
60	263.397912979126	pulse	0	t		58.0	2.5	/experiments/knapen_AOT/AOT_stimuli/rescaled_final/1610_fw.mp4	0.0	281.84871673583984	
60	264.222859621048	movie	1		284	58.0	2.5	/experiments/knapen_AOT/AOT_stimuli/rescaled_final/1610_fw.mp4	0.0	282.67366337776184	2.491978883743286
60	264.99589252471924	pulse	1	t		58.0	2.5	/experiments/knapen_AOT/AOT_stimuli/rescaled_final/1610_fw.mp4	0.0	283.4466962814331	
60	266.5963296890259	pulse	1	t		58.0	2.5	/experiments/knapen_AOT/AOT_stimuli/rescaled_final/1610_fw.mp4	0.0	285.04713344573975	
60	266.71483850479126	fix_post	2		12	58.0	2.5	/experiments/knapen_AOT/AOT_stimuli/rescaled_final/1610_fw.mp4	0.0	285.1656422615051	0.10004901885986328
61	266.8148875236511	fix_pre	0		120	59.0	2.5	/experiments/knapen_AOT/AOT_stimuli/rescaled_final/1920_fw.mp4	0.0	285.265691280365	1.008514642715454
61	267.8234021663666	movie	1		282	59.0	2.5	/experiments/knapen_AOT/AOT_stimuli/rescaled_final/1920_fw.mp4	0.0	286.27420592308044	2.491983652114868
61	268.1985561847687	pulse	1	t		59.0	2.5	/experiments/knapen_AOT/AOT_stimuli/rescaled_final/1920_fw.mp4	0.0	286.64935994148254	
61	269.7980377674103	pulse	1	t		59.0	2.5	/experiments/knapen_AOT/AOT_stimuli/rescaled_final/1920_fw.mp4	0.0	288.24884152412415	
61	270.31538581848145	fix_post	2		12	59.0	2.5	/experiments/knapen_AOT/AOT_stimuli/rescaled_final/1920_fw.mp4	0.0	288.7661895751953	0.09999346733093262
62	270.4153792858124	fix_pre	0		118	60.0	2.5	/experiments/knapen_AOT/AOT_stimuli/rescaled_final/1731_rv.mp4	0.0	288.86618304252625	0.991816520690918
62	271.3911521434784	pulse	0	t		60.0	2.5	/experiments/knapen_AOT/AOT_stimuli/rescaled_final/1731_rv.mp4	0.0	289.84195590019226	
62	271.4071958065033	movie	1		290	60.0	2.5	/experiments/knapen_AOT/AOT_stimuli/rescaled_final/1731_rv.mp4	0.0	289.85799956321716	2.5004446506500244
62	272.9911422729492	pulse	1	t		60.0	2.5	/experiments/knapen_AOT/AOT_stimuli/rescaled_final/1731_rv.mp4	0.0	291.4419460296631	
62	273.9076404571533	fix_post	2		12	60.0	2.5	/experiments/knapen_AOT/AOT_stimuli/rescaled_final/1731_rv.mp4	0.0	292.3584442138672	0.09998130798339844
63	274.0076217651367	fix_pre	0		120	61.0	2.5	/experiments/knapen_AOT/AOT_stimuli/rescaled_final/1325_fw.mp4	0.0	292.4584255218506	1.0084874629974365
63	274.59125661849976	pulse	0	t		61.0	2.5	/experiments/knapen_AOT/AOT_stimuli/rescaled_final/1325_fw.mp4	0.0	293.0420603752136	
63	275.01610922813416	movie	1		280	61.0	2.5	/experiments/knapen_AOT/AOT_stimuli/rescaled_final/1325_fw.mp4	0.0	293.466912984848	2.492223024368286
63	276.1915121078491	pulse	1	t		61.0	2.5	/experiments/knapen_AOT/AOT_stimuli/rescaled_final/1325_fw.mp4	0.0	294.642315864563	
63	277.50833225250244	fix_post	2		12	61.0	2.5	/experiments/knapen_AOT/AOT_stimuli/rescaled_final/1325_fw.mp4	0.0	295.9591360092163	0.09980273246765137
64	277.6081349849701	fix_pre	0		120	62.0	2.5	blank	1.0	296.05893874168396	1.000227689743042
64	277.7921929359436	pulse	0	t		62.0	2.5	blank	1.0	296.24299669265747	
64	278.60836267471313	movie	1		300	62.0	2.5	blank	1.0	297.059166431427	2.5003223419189453
64	279.3922543525696	pulse	1	t		62.0	2.5	blank	1.0	297.84305810928345	
64	280.99235582351685	pulse	1	t		62.0	2.5	blank	1.0	299.4431595802307	
64	281.1086850166321	fix_post	2		12	62.0	2.5	blank	1.0	299.55948877334595	0.10003042221069336
65	281.2087154388428	fix_pre	0		120	63.0	2.5	/experiments/knapen_AOT/AOT_stimuli/rescaled_final/1231_rv.mp4	0.0	299.65951919555664	1.0084834098815918
65	282.21719884872437	movie	1		291	63.0	2.5	/experiments/knapen_AOT/AOT_stimuli/rescaled_final/1231_rv.mp4	0.0	300.66800260543823	2.4920005798339844
65	282.59235978126526	pulse	1	t		63.0	2.5	/experiments/knapen_AOT/AOT_stimuli/rescaled_final/1231_rv.mp4	0.0	301.0431635379791	
65	284.193195104599	pulse	1	t		63.0	2.5	/experiments/knapen_AOT/AOT_stimuli/rescaled_final/1231_rv.mp4	0.0	302.64399886131287	
65	284.70919942855835	fix_post	2		12	63.0	2.5	/experiments/knapen_AOT/AOT_stimuli/rescaled_final/1231_rv.mp4	0.0	303.1600031852722	0.10000300407409668
66	284.80920243263245	fix_pre	0		119	64.0	2.5	/experiments/knapen_AOT/AOT_stimuli/rescaled_final/2039_rv.mp4	0.0	303.2600061893463	1.0002164840698242
66	285.79321694374084	pulse	0	t		64.0	2.5	/experiments/knapen_AOT/AOT_stimuli/rescaled_final/2039_rv.mp4	0.0	304.2440207004547	
66	285.80941891670227	movie	1		295	64.0	2.5	/experiments/knapen_AOT/AOT_stimuli/rescaled_final/2039_rv.mp4	0.0	304.26022267341614	2.5003795623779297
66	287.39172315597534	pulse	1	t		64.0	2.5	/experiments/knapen_AOT/AOT_stimuli/rescaled_final/2039_rv.mp4	0.0	305.8425269126892	
66	288.3097984790802	fix_post	2		12	64.0	2.5	/experiments/knapen_AOT/AOT_stimuli/rescaled_final/2039_rv.mp4	0.0	306.76060223579407	0.10000967979431152
67	288.4098081588745	fix_pre	0		120	65.0	2.5	/experiments/knapen_AOT/AOT_stimuli/rescaled_final/0919_fw.mp4	0.0	306.8606119155884	1.008500576019287
67	288.99359107017517	pulse	0	t		65.0	2.5	/experiments/knapen_AOT/AOT_stimuli/rescaled_final/0919_fw.mp4	0.0	307.44439482688904	
67	289.4183087348938	movie	1		287	65.0	2.5	/experiments/knapen_AOT/AOT_stimuli/rescaled_final/0919_fw.mp4	0.0	307.86911249160767	2.491978168487549
67	290.59171772003174	pulse	1	t		65.0	2.5	/experiments/knapen_AOT/AOT_stimuli/rescaled_final/0919_fw.mp4	0.0	309.0425214767456	
67	291.91028690338135	fix_post	2		12	65.0	2.5	/experiments/knapen_AOT/AOT_stimuli/rescaled_final/0919_fw.mp4	0.0	310.3610906600952	0.10001516342163086
68	292.010302066803	fix_pre	0		120	66.0	2.5	/experiments/knapen_AOT/AOT_stimuli/rescaled_final/0462_rv.mp4	0.0	310.46110582351685	1.0085914134979248
68	292.19379711151123	pulse	0	t		66.0	2.5	/experiments/knapen_AOT/AOT_stimuli/rescaled_final/0462_rv.mp4	0.0	310.6446008682251	
68	293.0188934803009	movie	1		282	66.0	2.5	/experiments/knapen_AOT/AOT_stimuli/rescaled_final/0462_rv.mp4	0.0	311.46969723701477	2.4919722080230713
68	293.7934205532074	pulse	1	t		66.0	2.5	/experiments/knapen_AOT/AOT_stimuli/rescaled_final/0462_rv.mp4	0.0	312.24422430992126	
68	295.3930404186249	pulse	1	t		66.0	2.5	/experiments/knapen_AOT/AOT_stimuli/rescaled_final/0462_rv.mp4	0.0	313.84384417533875	
68	295.510865688324	fix_post	2		12	66.0	2.5	/experiments/knapen_AOT/AOT_stimuli/rescaled_final/0462_rv.mp4	0.0	313.96166944503784	0.0999901294708252
69	295.6108558177948	fix_pre	0		120	67.0	2.5	/experiments/knapen_AOT/AOT_stimuli/rescaled_final/0137_fw.mp4	0.0	314.06165957450867	1.0084919929504395
69	296.61934781074524	movie	1		285	67.0	2.5	/experiments/knapen_AOT/AOT_stimuli/rescaled_final/0137_fw.mp4	0.0	315.0701515674591	2.4920125007629395
69	296.9930737018585	pulse	1	t		67.0	2.5	/experiments/knapen_AOT/AOT_stimuli/rescaled_final/0137_fw.mp4	0.0	315.4438774585724	
69	298.5937180519104	pulse	1	t		67.0	2.5	/experiments/knapen_AOT/AOT_stimuli/rescaled_final/0137_fw.mp4	0.0	317.04452180862427	
69	299.1113603115082	fix_post	2		12	67.0	2.5	/experiments/knapen_AOT/AOT_stimuli/rescaled_final/0137_fw.mp4	0.0	317.56216406822205	0.10002303123474121
70	299.2113833427429	fix_pre	0		119	68.0	2.5	blank	1.0	317.6621870994568	0.9918122291564941
70	300.1951639652252	pulse	0	t		68.0	2.5	blank	1.0	318.6459677219391	
70	300.2031955718994	movie	1		301	68.0	2.5	blank	1.0	318.6539993286133	2.508768320083618
70	301.7953085899353	pulse	1	t		68.0	2.5	blank	1.0	320.24611234664917	
70	302.71196389198303	fix_post	2		12	68.0	2.5	blank	1.0	321.1627676486969	0.10000371932983398
71	302.81196761131287	fix_pre	0		120	69.0	2.5	/experiments/knapen_AOT/AOT_stimuli/rescaled_final/0182_fw.mp4	0.0	321.26277136802673	1.0084314346313477
71	303.395539522171	pulse	0	t		69.0	2.5	/experiments/knapen_AOT/AOT_stimuli/rescaled_final/0182_fw.mp4	0.0	321.8463432788849	
71	303.8203990459442	movie	1		282	69.0	2.5	/experiments/knapen_AOT/AOT_stimuli/rescaled_final/0182_fw.mp4	0.0	322.2712028026581	2.4921658039093018
71	304.9941551685333	pulse	1	t		69.0	2.5	/experiments/knapen_AOT/AOT_stimuli/rescaled_final/0182_fw.mp4	0.0	323.4449589252472	
71	306.3125648498535	fix_post	2		12	69.0	2.5	/experiments/knapen_AOT/AOT_stimuli/rescaled_final/0182_fw.mp4	0.0	324.7633686065674	0.09989786148071289
72	306.41246271133423	fix_pre	0		120	70.0	2.5	/experiments/knapen_AOT/AOT_stimuli/rescaled_final/1017_rv.mp4	0.0	324.8632664680481	1.0085840225219727
72	306.5961797237396	pulse	0	t		70.0	2.5	/experiments/knapen_AOT/AOT_stimuli/rescaled_final/1017_rv.mp4	0.0	325.0469834804535	
72	307.4210467338562	movie	1		291	70.0	2.5	/experiments/knapen_AOT/AOT_stimuli/rescaled_final/1017_rv.mp4	0.0	325.87185049057007	2.4920079708099365
72	308.194388628006	pulse	1	t		70.0	2.5	/experiments/knapen_AOT/AOT_stimuli/rescaled_final/1017_rv.mp4	0.0	326.64519238471985	
72	309.7944405078888	pulse	1	t		70.0	2.5	/experiments/knapen_AOT/AOT_stimuli/rescaled_final/1017_rv.mp4	0.0	328.24524426460266	
72	309.91305470466614	fix_post	2		12	70.0	2.5	/experiments/knapen_AOT/AOT_stimuli/rescaled_final/1017_rv.mp4	0.0	328.36385846138	0.09997820854187012
73	310.013032913208	fix_pre	0		120	71.0	2.5	/experiments/knapen_AOT/AOT_stimuli/rescaled_final/0327_fw.mp4	0.0	328.4638366699219	1.008458137512207
73	311.0214910507202	movie	1		280	71.0	2.5	/experiments/knapen_AOT/AOT_stimuli/rescaled_final/0327_fw.mp4	0.0	329.4722948074341	2.492051839828491
73	311.3958125114441	pulse	1	t		71.0	2.5	/experiments/knapen_AOT/AOT_stimuli/rescaled_final/0327_fw.mp4	0.0	329.84661626815796	
73	312.9957950115204	pulse	1	t		71.0	2.5	/experiments/knapen_AOT/AOT_stimuli/rescaled_final/0327_fw.mp4	0.0	331.44659876823425	
73	313.5135428905487	fix_post	2		12	71.0	2.5	/experiments/knapen_AOT/AOT_stimuli/rescaled_final/0327_fw.mp4	0.0	331.9643466472626	0.10011601448059082
74	313.6136589050293	fix_pre	0		119	72.0	2.5	/experiments/knapen_AOT/AOT_stimuli/rescaled_final/1610_fw.mp4	0.0	332.06446266174316	1.0000677108764648
74	314.5973837375641	pulse	0	t		72.0	2.5	/experiments/knapen_AOT/AOT_stimuli/rescaled_final/1610_fw.mp4	0.0	333.04818749427795	
74	314.61372661590576	movie	1		282	72.0	2.5	/experiments/knapen_AOT/AOT_stimuli/rescaled_final/1610_fw.mp4	0.0	333.06453037261963	2.50040602684021
74	316.1956641674042	pulse	1	t		72.0	2.5	/experiments/knapen_AOT/AOT_stimuli/rescaled_final/1610_fw.mp4	0.0	334.64646792411804	
74	317.114132642746	fix_post	2		12	72.0	2.5	/experiments/knapen_AOT/AOT_stimuli/rescaled_final/1610_fw.mp4	0.0	335.56493639945984	0.10000109672546387
75	317.21413373947144	fix_pre	0		120	73.0	2.5	/experiments/knapen_AOT/AOT_stimuli/rescaled_final/0182_fw.mp4	0.0	335.6649374961853	1.0084660053253174
75	317.7977104187012	pulse	0	t		73.0	2.5	/experiments/knapen_AOT/AOT_stimuli/rescaled_final/0182_fw.mp4	0.0	336.24851417541504	
75	318.22259974479675	movie	1		289	73.0	2.5	/experiments/knapen_AOT/AOT_stimuli/rescaled_final/0182_fw.mp4	0.0	336.6734035015106	2.492056369781494
75	319.3980715274811	pulse	1	t		73.0	2.5	/experiments/knapen_AOT/AOT_stimuli/rescaled_final/0182_fw.mp4	0.0	337.84887528419495	
75	320.71465611457825	fix_post	2		12	73.0	2.5	/experiments/knapen_AOT/AOT_stimuli/rescaled_final/0182_fw.mp4	0.0	339.1654598712921	0.09997367858886719
76	320.8146297931671	fix_pre	0		120	74.0	2.5	/experiments/knapen_AOT/AOT_stimuli/rescaled_final/0333_fw.mp4	0.0	339.265433549881	1.0085868835449219
76	320.9985089302063	pulse	0	t		74.0	2.5	/experiments/knapen_AOT/AOT_stimuli/rescaled_final/0333_fw.mp4	0.0	339.44931268692017	
76	321.82321667671204	movie	1		285	74.0	2.5	/experiments/knapen_AOT/AOT_stimuli/rescaled_final/0333_fw.mp4	0.0	340.2740204334259	2.4919826984405518
76	322.5964560508728	pulse	1	t		74.0	2.5	/experiments/knapen_AOT/AOT_stimuli/rescaled_final/0333_fw.mp4	0.0	341.04725980758667	
76	324.19691133499146	pulse	1	t		74.0	2.5	/experiments/knapen_AOT/AOT_stimuli/rescaled_final/0333_fw.mp4	0.0	342.6477150917053	
76	324.3151993751526	fix_post	2		11	74.0	2.5	/experiments/knapen_AOT/AOT_stimuli/rescaled_final/0333_fw.mp4	0.0	342.76600313186646	0.10001444816589355
77	324.4152138233185	fix_pre	0		120	75.0	2.5	/experiments/knapen_AOT/AOT_stimuli/rescaled_final/0299_rv.mp4	0.0	342.86601758003235	1.0084619522094727
77	325.42367577552795	movie	1		288	75.0	2.5	/experiments/knapen_AOT/AOT_stimuli/rescaled_final/0299_rv.mp4	0.0	343.8744795322418	2.4920058250427246
77	325.79740619659424	pulse	1	t		75.0	2.5	/experiments/knapen_AOT/AOT_stimuli/rescaled_final/0299_rv.mp4	0.0	344.2482099533081	
77	327.39736461639404	pulse	1	t		75.0	2.5	/experiments/knapen_AOT/AOT_stimuli/rescaled_final/0299_rv.mp4	0.0	345.8481683731079	
77	327.9156816005707	fix_post	2		12	75.0	2.5	/experiments/knapen_AOT/AOT_stimuli/rescaled_final/0299_rv.mp4	0.0	346.36648535728455	0.10003209114074707
78	328.0157136917114	fix_pre	0		119	76.0	2.5	/experiments/knapen_AOT/AOT_stimuli/rescaled_final/0851_fw.mp4	0.0	346.4665174484253	1.0002286434173584
78	328.99211406707764	pulse	0	t		76.0	2.5	/experiments/knapen_AOT/AOT_stimuli/rescaled_final/0851_fw.mp4	0.0	347.4429178237915	
78	329.0159423351288	movie	1		278	76.0	2.5	/experiments/knapen_AOT/AOT_stimuli/rescaled_final/0851_fw.mp4	0.0	347.46674609184265	2.5002851486206055
78	330.5922040939331	pulse	1	t		76.0	2.5	/experiments/knapen_AOT/AOT_stimuli/rescaled_final/0851_fw.mp4	0.0	349.043007850647	
78	331.5162274837494	fix_post	2		12	76.0	2.5	/experiments/knapen_AOT/AOT_stimuli/rescaled_final/0851_fw.mp4	0.0	349.96703124046326	0.10008406639099121
79	331.6163115501404	fix_pre	0		120	77.0	2.5	blank	1.0	350.06711530685425	1.000079870223999
79	332.1915600299835	pulse	0	t		77.0	2.5	blank	1.0	350.6423637866974	
79	332.6163914203644	movie	1		300	77.0	2.5	blank	1.0	351.06719517707825	2.500453233718872
79	333.79177713394165	pulse	1	t		77.0	2.5	blank	1.0	352.2425808906555	
79	335.11684465408325	fix_post	2		12	77.0	2.5	blank	1.0	353.5676484107971	0.10000038146972656
80	335.216845035553	fix_pre	0		120	78.0	2.5	/experiments/knapen_AOT/AOT_stimuli/rescaled_final/1871_rv.mp4	0.0	353.66764879226685	1.0084552764892578
80	335.3921685218811	pulse	0	t		78.0	2.5	/experiments/knapen_AOT/AOT_stimuli/rescaled_final/1871_rv.mp4	0.0	353.84297227859497	
80	336.22530031204224	movie	1		274	78.0	2.5	/experiments/knapen_AOT/AOT_stimuli/rescaled_final/1871_rv.mp4	0.0	354.6761040687561	2.4920718669891357
80	336.99243998527527	pulse	1	t		78.0	2.5	/experiments/knapen_AOT/AOT_stimuli/rescaled_final/1871_rv.mp4	0.0	355.44324374198914	
80	338.5924756526947	pulse	1	t		78.0	2.5	/experiments/knapen_AOT/AOT_stimuli/rescaled_final/1871_rv.mp4	0.0	357.04327940940857	
80	338.7173721790314	fix_post	2		12	78.0	2.5	/experiments/knapen_AOT/AOT_stimuli/rescaled_final/1871_rv.mp4	0.0	357.16817593574524	0.10006403923034668
81	338.8174362182617	fix_pre	0		120	79.0	2.5	/experiments/knapen_AOT/AOT_stimuli/rescaled_final/0327_rv.mp4	0.0	357.2682399749756	1.0083808898925781
81	339.8258171081543	movie	1		279	79.0	2.5	/experiments/knapen_AOT/AOT_stimuli/rescaled_final/0327_rv.mp4	0.0	358.27662086486816	2.4920437335968018
81	340.1928505897522	pulse	1	t		79.0	2.5	/experiments/knapen_AOT/AOT_stimuli/rescaled_final/0327_rv.mp4	0.0	358.64365434646606	
81	341.7930693626404	pulse	1	t		79.0	2.5	/experiments/knapen_AOT/AOT_stimuli/rescaled_final/0327_rv.mp4	0.0	360.24387311935425	
81	342.3178608417511	fix_post	2		12	79.0	2.5	/experiments/knapen_AOT/AOT_stimuli/rescaled_final/0327_rv.mp4	0.0	360.76866459846497	0.10004901885986328
82	342.41790986061096	fix_pre	0		118	80.0	2.5	/experiments/knapen_AOT/AOT_stimuli/rescaled_final/0567_rv.mp4	0.0	360.86871361732483	0.9918220043182373
82	343.3933427333832	pulse	0	t		80.0	2.5	/experiments/knapen_AOT/AOT_stimuli/rescaled_final/0567_rv.mp4	0.0	361.84414649009705	
82	343.4097318649292	movie	1		287	80.0	2.5	/experiments/knapen_AOT/AOT_stimuli/rescaled_final/0567_rv.mp4	0.0	361.86053562164307	2.500345468521118
82	344.99227571487427	pulse	1	t		80.0	2.5	/experiments/knapen_AOT/AOT_stimuli/rescaled_final/0567_rv.mp4	0.0	363.44307947158813	
82	345.9100773334503	fix_post	2		12	80.0	2.5	/experiments/knapen_AOT/AOT_stimuli/rescaled_final/0567_rv.mp4	0.0	364.3608810901642	0.10003924369812012
83	346.01011657714844	fix_pre	0		120	81.0	2.5	/experiments/knapen_AOT/AOT_stimuli/rescaled_final/0057_fw.mp4	0.0	364.4609203338623	1.008460521697998
83	346.59369921684265	pulse	0	t		81.0	2.5	/experiments/knapen_AOT/AOT_stimuli/rescaled_final/0057_fw.mp4	0.0	365.0445029735565	
83	347.01857709884644	movie	1		279	81.0	2.5	/experiments/knapen_AOT/AOT_stimuli/rescaled_final/0057_fw.mp4	0.0	365.4693808555603	2.4920623302459717
83	348.19197154045105	pulse	1	t		81.0	2.5	/experiments/knapen_AOT/AOT_stimuli/rescaled_final/0057_fw.mp4	0.0	366.6427752971649	
83	349.5106394290924	fix_post	2		12	81.0	2.5	/experiments/knapen_AOT/AOT_stimuli/rescaled_final/0057_fw.mp4	0.0	367.9614431858063	0.10001778602600098
84	349.6106572151184	fix_pre	0		120	82.0	2.5	blank	1.0	368.0614609718323	1.0001084804534912
84	349.794513463974	pulse	0	t		82.0	2.5	blank	1.0	368.24531722068787	
84	350.6107656955719	movie	1		300	82.0	2.5	blank	1.0	369.06156945228577	2.5003926753997803
84	351.39444065093994	pulse	1	t		82.0	2.5	blank	1.0	369.8452444076538	
84	352.9946234226227	pulse	1	t		82.0	2.5	blank	1.0	371.44542717933655	
84	353.1111583709717	fix_post	2		12	82.0	2.5	blank	1.0	371.56196212768555	0.10002756118774414
85	353.2111859321594	fix_pre	0		120	83.0	2.5	/experiments/knapen_AOT/AOT_stimuli/rescaled_final/0306_fw.mp4	0.0	371.6619896888733	1.0084583759307861
85	354.2196443080902	movie	1		274	83.0	2.5	/experiments/knapen_AOT/AOT_stimuli/rescaled_final/0306_fw.mp4	0.0	372.6704480648041	2.492060422897339
85	354.593519449234	pulse	1	t		83.0	2.5	/experiments/knapen_AOT/AOT_stimuli/rescaled_final/0306_fw.mp4	0.0	373.0443232059479	
85	356.1944468021393	pulse	1	t		83.0	2.5	/experiments/knapen_AOT/AOT_stimuli/rescaled_final/0306_fw.mp4	0.0	374.64525055885315	
85	356.71170473098755	fix_post	2		12	83.0	2.5	/experiments/knapen_AOT/AOT_stimuli/rescaled_final/0306_fw.mp4	0.0	375.1625084877014	0.10003781318664551
87	356.8117425441742	stim	0		1715					375.26254630088806	14.293774604797363
87	357.79540967941284	pulse	0	t						376.2462134361267	
87	359.39564085006714	pulse	0	t						377.846444606781	
87	360.99586749076843	pulse	0	t						379.4466712474823	
87	362.5961410999298	pulse	0	t						381.0469448566437	
87	364.1963095664978	pulse	0	t						382.64711332321167	
87	365.79660725593567	pulse	0	t						384.24741101264954	
87	367.39685821533203	pulse	0	t						385.8476619720459	
87	368.99724555015564	pulse	0	t						387.4480493068695	
87	370.5973081588745	pulse	0	t						389.0481119155884	
