trial_nr	onset	event_type	phase	response	nr_frames	movie_index	movie_duration	movie_file	blank	onset_abs	duration
0	0.1583409309387207	stim	0		160					39.49931502342224	1.3332140445709229
0	1.4763720035552979	response	0	space						40.81734609603882	
1	1.4915549755096436	stim	0		13977					40.832529067993164	116.47448587417603
1	117.96168804168701	pulse	0	t						157.30266213417053	
1	117.96604084968567	stim	1		1717					157.3070149421692	14.308281183242798
1	119.55782699584961	pulse	1	t						158.89880108833313	
1	121.15792083740234	pulse	1	t						160.49889492988586	
1	122.75781083106995	pulse	1	t						162.09878492355347	
1	124.35782384872437	pulse	1	t						163.69879794120789	
1	125.95783591270447	pulse	1	t						165.298810005188	
1	127.557776927948	pulse	1	t						166.89875102043152	
1	129.15769600868225	pulse	1	t						168.49867010116577	
1	130.75773787498474	pulse	1	t						170.09871196746826	
2	132.27432203292847	fix_pre	0		11	0.0	2.5	/experiments/AOT/AOT_stimuli/rescaled_final/1150_fw.mp4	0.0	171.615296125412	0.09170103073120117
2	132.35777497291565	pulse	0	t		0.0	2.5	/experiments/AOT/AOT_stimuli/rescaled_final/1150_fw.mp4	0.0	171.69874906539917	
2	132.36602306365967	movie	1		244	0.0	2.5	/experiments/AOT/AOT_stimuli/rescaled_final/1150_fw.mp4	0.0	171.7069971561432	2.5078558921813965
2	133.95715188980103	pulse	1	t		0.0	2.5	/experiments/AOT/AOT_stimuli/rescaled_final/1150_fw.mp4	0.0	173.29812598228455	
2	134.87387895584106	fix_post	2		12	0.0	2.5	/experiments/AOT/AOT_stimuli/rescaled_final/1150_fw.mp4	0.0	174.21485304832458	0.10046005249023438
3	134.9743390083313	fix_pre	0		120	1.0	2.5	/experiments/AOT/AOT_stimuli/rescaled_final/1757_fw.mp4	0.0	174.31531310081482	1.000114917755127
3	135.55778789520264	pulse	0	t		1.0	2.5	/experiments/AOT/AOT_stimuli/rescaled_final/1757_fw.mp4	0.0	174.89876198768616	
3	135.97445392608643	movie	1		242	1.0	2.5	/experiments/AOT/AOT_stimuli/rescaled_final/1757_fw.mp4	0.0	175.31542801856995	2.4994380474090576
3	137.15787291526794	pulse	1	t		1.0	2.5	/experiments/AOT/AOT_stimuli/rescaled_final/1757_fw.mp4	0.0	176.49884700775146	
3	138.47389197349548	fix_post	2		12	1.0	2.5	/experiments/AOT/AOT_stimuli/rescaled_final/1757_fw.mp4	0.0	177.814866065979	0.10041308403015137
4	138.57430505752563	fix_pre	0		120	2.0	2.5	/experiments/AOT/AOT_stimuli/rescaled_final/0365_fw.mp4	0.0	177.91527915000916	1.0000028610229492
4	138.75781393051147	pulse	0	t		2.0	2.5	/experiments/AOT/AOT_stimuli/rescaled_final/0365_fw.mp4	0.0	178.098788022995	
4	139.57430791854858	movie	1		246	2.0	2.5	/experiments/AOT/AOT_stimuli/rescaled_final/0365_fw.mp4	0.0	178.9152820110321	2.500014066696167
4	140.35774183273315	pulse	1	t		2.0	2.5	/experiments/AOT/AOT_stimuli/rescaled_final/0365_fw.mp4	0.0	179.69871592521667	
4	141.95388102531433	pulse	1	t		2.0	2.5	/experiments/AOT/AOT_stimuli/rescaled_final/0365_fw.mp4	0.0	181.29485511779785	
4	142.07432198524475	fix_post	2		12	2.0	2.5	/experiments/AOT/AOT_stimuli/rescaled_final/0365_fw.mp4	0.0	181.41529607772827	0.09998297691345215
5	142.1743049621582	fix_pre	0		120	3.0	2.5	/experiments/AOT/AOT_stimuli/rescaled_final/0297_rv.mp4	0.0	181.51527905464172	1.0000178813934326
5	143.17432284355164	movie	1		243	3.0	2.5	/experiments/AOT/AOT_stimuli/rescaled_final/0297_rv.mp4	0.0	182.51529693603516	2.499937057495117
5	143.55732583999634	pulse	1	t		3.0	2.5	/experiments/AOT/AOT_stimuli/rescaled_final/0297_rv.mp4	0.0	182.89829993247986	
5	145.15778303146362	pulse	1	t		3.0	2.5	/experiments/AOT/AOT_stimuli/rescaled_final/0297_rv.mp4	0.0	184.49875712394714	
5	145.67425990104675	fix_post	2		12	3.0	2.5	/experiments/AOT/AOT_stimuli/rescaled_final/0297_rv.mp4	0.0	185.01523399353027	0.10011005401611328
6	145.77436995506287	fix_pre	0		119	4.0	2.5	/experiments/AOT/AOT_stimuli/rescaled_final/1437_rv.mp4	0.0	185.1153440475464	0.9914870262145996
6	146.75767397880554	pulse	0	t		4.0	2.5	/experiments/AOT/AOT_stimuli/rescaled_final/1437_rv.mp4	0.0	186.09864807128906	
6	146.76585698127747	movie	1		244	4.0	2.5	/experiments/AOT/AOT_stimuli/rescaled_final/1437_rv.mp4	0.0	186.106831073761	2.5079848766326904
6	148.35772585868835	pulse	1	t		4.0	2.5	/experiments/AOT/AOT_stimuli/rescaled_final/1437_rv.mp4	0.0	187.69869995117188	
6	149.27384185791016	fix_post	2		12	4.0	2.5	/experiments/AOT/AOT_stimuli/rescaled_final/1437_rv.mp4	0.0	188.61481595039368	0.1004190444946289
7	149.37426090240479	fix_pre	0		120	5.0	2.5	/experiments/AOT/AOT_stimuli/rescaled_final/0368_rv.mp4	0.0	188.7152349948883	1.0000231266021729
7	149.95775198936462	pulse	0	t		5.0	2.5	/experiments/AOT/AOT_stimuli/rescaled_final/0368_rv.mp4	0.0	189.29872608184814	
7	150.37428402900696	movie	1		244	5.0	2.5	/experiments/AOT/AOT_stimuli/rescaled_final/0368_rv.mp4	0.0	189.71525812149048	2.4995808601379395
7	151.55777502059937	pulse	1	t		5.0	2.5	/experiments/AOT/AOT_stimuli/rescaled_final/0368_rv.mp4	0.0	190.89874911308289	
7	152.8738648891449	fix_post	2		12	5.0	2.5	/experiments/AOT/AOT_stimuli/rescaled_final/0368_rv.mp4	0.0	192.21483898162842	0.10039615631103516
8	152.97426104545593	fix_pre	0		120	6.0	2.5	blank	1.0	192.31523513793945	0.9996209144592285
8	153.1572949886322	pulse	0	t		6.0	2.5	blank	1.0	192.49826908111572	
8	153.97388195991516	movie	1		300	6.0	2.5	blank	1.0	193.31485605239868	2.4999799728393555
8	154.7579128742218	pulse	1	t		6.0	2.5	blank	1.0	194.09888696670532	
8	156.35764598846436	pulse	1	t		6.0	2.5	blank	1.0	195.69862008094788	
8	156.47386193275452	fix_post	2		12	6.0	2.5	blank	1.0	195.81483602523804	0.10049104690551758
9	156.57435297966003	fix_pre	0		120	7.0	2.5	/experiments/AOT/AOT_stimuli/rescaled_final/1869_rv.mp4	0.0	195.91532707214355	0.999891996383667
9	157.5742449760437	movie	1		243	7.0	2.5	/experiments/AOT/AOT_stimuli/rescaled_final/1869_rv.mp4	0.0	196.91521906852722	2.4999210834503174
9	157.95734095573425	pulse	1	t		7.0	2.5	/experiments/AOT/AOT_stimuli/rescaled_final/1869_rv.mp4	0.0	197.29831504821777	
9	159.55770993232727	pulse	1	t		7.0	2.5	/experiments/AOT/AOT_stimuli/rescaled_final/1869_rv.mp4	0.0	198.8986840248108	
9	160.07416605949402	fix_post	2		12	7.0	2.5	/experiments/AOT/AOT_stimuli/rescaled_final/1869_rv.mp4	0.0	199.41514015197754	0.10001993179321289
10	160.17418599128723	fix_pre	0		119	8.0	2.5	/experiments/AOT/AOT_stimuli/rescaled_final/0969_fw.mp4	0.0	199.51516008377075	0.9916679859161377
10	161.15764498710632	pulse	0	t		8.0	2.5	/experiments/AOT/AOT_stimuli/rescaled_final/0969_fw.mp4	0.0	200.49861907958984	
10	161.16585397720337	movie	1		246	8.0	2.5	/experiments/AOT/AOT_stimuli/rescaled_final/0969_fw.mp4	0.0	200.5068280696869	2.5078890323638916
10	162.75701999664307	pulse	1	t		8.0	2.5	/experiments/AOT/AOT_stimuli/rescaled_final/0969_fw.mp4	0.0	202.0979940891266	
10	163.67374300956726	fix_post	2		12	8.0	2.5	/experiments/AOT/AOT_stimuli/rescaled_final/0969_fw.mp4	0.0	203.01471710205078	0.10037684440612793
11	163.7741198539734	fix_pre	0		120	9.0	2.5	/experiments/AOT/AOT_stimuli/rescaled_final/0961_rv.mp4	0.0	203.1150939464569	1.0000450611114502
11	164.35768294334412	pulse	0	t		9.0	2.5	/experiments/AOT/AOT_stimuli/rescaled_final/0961_rv.mp4	0.0	203.69865703582764	
11	164.77416491508484	movie	1		243	9.0	2.5	/experiments/AOT/AOT_stimuli/rescaled_final/0961_rv.mp4	0.0	204.11513900756836	2.499920129776001
11	165.95766401290894	pulse	1	t		9.0	2.5	/experiments/AOT/AOT_stimuli/rescaled_final/0961_rv.mp4	0.0	205.29863810539246	
11	167.27408504486084	fix_post	2		12	9.0	2.5	/experiments/AOT/AOT_stimuli/rescaled_final/0961_rv.mp4	0.0	206.61505913734436	0.10011482238769531
12	167.37419986724854	fix_pre	0		120	10.0	2.5	/experiments/AOT/AOT_stimuli/rescaled_final/1755_rv.mp4	0.0	206.71517395973206	0.9999270439147949
12	167.55762791633606	pulse	0	t		10.0	2.5	/experiments/AOT/AOT_stimuli/rescaled_final/1755_rv.mp4	0.0	206.89860200881958	
12	168.37412691116333	movie	1		242	10.0	2.5	/experiments/AOT/AOT_stimuli/rescaled_final/1755_rv.mp4	0.0	207.71510100364685	2.4996190071105957
12	169.15759587287903	pulse	1	t		10.0	2.5	/experiments/AOT/AOT_stimuli/rescaled_final/1755_rv.mp4	0.0	208.49856996536255	
12	170.75587487220764	pulse	1	t		10.0	2.5	/experiments/AOT/AOT_stimuli/rescaled_final/1755_rv.mp4	0.0	210.09684896469116	
12	170.87374591827393	fix_post	2		12	10.0	2.5	/experiments/AOT/AOT_stimuli/rescaled_final/1755_rv.mp4	0.0	210.21472001075745	0.10033297538757324
13	170.9740788936615	fix_pre	0		120	11.0	2.5	/experiments/AOT/AOT_stimuli/rescaled_final/0969_fw.mp4	0.0	210.31505298614502	0.9995980262756348
13	171.97367691993713	movie	1		244	11.0	2.5	/experiments/AOT/AOT_stimuli/rescaled_final/0969_fw.mp4	0.0	211.31465101242065	2.5003600120544434
13	172.35684990882874	pulse	1	t		11.0	2.5	/experiments/AOT/AOT_stimuli/rescaled_final/0969_fw.mp4	0.0	211.69782400131226	
13	173.95761489868164	pulse	1	t		11.0	2.5	/experiments/AOT/AOT_stimuli/rescaled_final/0969_fw.mp4	0.0	213.29858899116516	
13	174.47403693199158	fix_post	2		12	11.0	2.5	/experiments/AOT/AOT_stimuli/rescaled_final/0969_fw.mp4	0.0	213.8150110244751	0.1000211238861084
14	174.57405805587769	fix_pre	0		119	12.0	2.5	/experiments/AOT/AOT_stimuli/rescaled_final/1098_fw.mp4	0.0	213.9150321483612	0.9917159080505371
14	175.55765795707703	pulse	0	t		12.0	2.5	/experiments/AOT/AOT_stimuli/rescaled_final/1098_fw.mp4	0.0	214.89863204956055	
14	175.56577396392822	movie	1		248	12.0	2.5	/experiments/AOT/AOT_stimuli/rescaled_final/1098_fw.mp4	0.0	214.90674805641174	2.5083088874816895
14	177.1571068763733	pulse	1	t		12.0	2.5	/experiments/AOT/AOT_stimuli/rescaled_final/1098_fw.mp4	0.0	216.4980809688568	
14	178.0740828514099	fix_post	2		12	12.0	2.5	/experiments/AOT/AOT_stimuli/rescaled_final/1098_fw.mp4	0.0	217.41505694389343	0.10001206398010254
15	178.17409491539001	fix_pre	0		120	13.0	2.5	blank	1.0	217.51506900787354	0.999993085861206
15	178.75775384902954	pulse	0	t		13.0	2.5	blank	1.0	218.09872794151306	
15	179.17408800125122	movie	1		300	13.0	2.5	blank	1.0	218.51506209373474	2.5000460147857666
15	180.35757088661194	pulse	1	t		13.0	2.5	blank	1.0	219.69854497909546	
15	181.674134016037	fix_post	2		12	13.0	2.5	blank	1.0	221.0151081085205	0.0999610424041748
16	181.77409505844116	fix_pre	0		120	14.0	2.5	/experiments/AOT/AOT_stimuli/rescaled_final/2149_fw.mp4	0.0	221.11506915092468	1.0000548362731934
16	181.95763397216797	pulse	0	t		14.0	2.5	/experiments/AOT/AOT_stimuli/rescaled_final/2149_fw.mp4	0.0	221.2986080646515	
16	182.77414989471436	movie	1		243	14.0	2.5	/experiments/AOT/AOT_stimuli/rescaled_final/2149_fw.mp4	0.0	222.11512398719788	2.499917984008789
16	183.5575749874115	pulse	1	t		14.0	2.5	/experiments/AOT/AOT_stimuli/rescaled_final/2149_fw.mp4	0.0	222.89854907989502	
16	185.15598487854004	pulse	1	t		14.0	2.5	/experiments/AOT/AOT_stimuli/rescaled_final/2149_fw.mp4	0.0	224.49695897102356	
16	185.27406787872314	fix_post	2		12	14.0	2.5	/experiments/AOT/AOT_stimuli/rescaled_final/2149_fw.mp4	0.0	224.61504197120667	0.09994697570800781
17	185.37401485443115	fix_pre	0		120	15.0	2.5	/experiments/AOT/AOT_stimuli/rescaled_final/1296_fw.mp4	0.0	224.71498894691467	1.0000081062316895
17	186.37402296066284	movie	1		244	15.0	2.5	/experiments/AOT/AOT_stimuli/rescaled_final/1296_fw.mp4	0.0	225.71499705314636	2.4999969005584717
17	186.7576458454132	pulse	1	t		15.0	2.5	/experiments/AOT/AOT_stimuli/rescaled_final/1296_fw.mp4	0.0	226.09861993789673	
17	188.3575530052185	pulse	1	t		15.0	2.5	/experiments/AOT/AOT_stimuli/rescaled_final/1296_fw.mp4	0.0	227.69852709770203	
17	188.8740198612213	fix_post	2		12	15.0	2.5	/experiments/AOT/AOT_stimuli/rescaled_final/1296_fw.mp4	0.0	228.21499395370483	0.09998011589050293
18	188.97399997711182	fix_pre	0		119	16.0	2.5	/experiments/AOT/AOT_stimuli/rescaled_final/1356_rv.mp4	0.0	228.31497406959534	0.9918029308319092
18	189.95761704444885	pulse	0	t		16.0	2.5	/experiments/AOT/AOT_stimuli/rescaled_final/1356_rv.mp4	0.0	229.29859113693237	
18	189.96580290794373	movie	1		244	16.0	2.5	/experiments/AOT/AOT_stimuli/rescaled_final/1356_rv.mp4	0.0	229.30677700042725	2.5082030296325684
18	191.5570878982544	pulse	1	t		16.0	2.5	/experiments/AOT/AOT_stimuli/rescaled_final/1356_rv.mp4	0.0	230.89806199073792	
18	192.4740059375763	fix_post	2		12	16.0	2.5	/experiments/AOT/AOT_stimuli/rescaled_final/1356_rv.mp4	0.0	231.81498003005981	0.10004711151123047
19	192.57405304908752	fix_pre	0		120	17.0	2.5	/experiments/AOT/AOT_stimuli/rescaled_final/0067_fw.mp4	0.0	231.91502714157104	1.0000147819519043
19	193.1574718952179	pulse	0	t		17.0	2.5	/experiments/AOT/AOT_stimuli/rescaled_final/0067_fw.mp4	0.0	232.49844598770142	
19	193.57406783103943	movie	1		246	17.0	2.5	/experiments/AOT/AOT_stimuli/rescaled_final/0067_fw.mp4	0.0	232.91504192352295	2.4999120235443115
19	194.7575399875641	pulse	1	t		17.0	2.5	/experiments/AOT/AOT_stimuli/rescaled_final/0067_fw.mp4	0.0	234.0985140800476	
19	196.07397985458374	fix_post	2		12	17.0	2.5	/experiments/AOT/AOT_stimuli/rescaled_final/0067_fw.mp4	0.0	235.41495394706726	0.10009503364562988
20	196.17407488822937	fix_pre	0		120	18.0	2.5	/experiments/AOT/AOT_stimuli/rescaled_final/1223_fw.mp4	0.0	235.5150489807129	0.9999711513519287
20	196.3575599193573	pulse	0	t		18.0	2.5	/experiments/AOT/AOT_stimuli/rescaled_final/1223_fw.mp4	0.0	235.69853401184082	
20	197.1740460395813	movie	1		244	18.0	2.5	/experiments/AOT/AOT_stimuli/rescaled_final/1223_fw.mp4	0.0	236.51502013206482	2.499994993209839
20	197.95746302604675	pulse	1	t		18.0	2.5	/experiments/AOT/AOT_stimuli/rescaled_final/1223_fw.mp4	0.0	237.29843711853027	
20	199.55593705177307	pulse	1	t		18.0	2.5	/experiments/AOT/AOT_stimuli/rescaled_final/1223_fw.mp4	0.0	238.8969111442566	
20	199.67404103279114	fix_post	2		12	18.0	2.5	/experiments/AOT/AOT_stimuli/rescaled_final/1223_fw.mp4	0.0	239.01501512527466	0.0999917984008789
21	199.77403283119202	fix_pre	0		120	19.0	2.5	/experiments/AOT/AOT_stimuli/rescaled_final/1720_rv.mp4	0.0	239.11500692367554	0.9994912147521973
21	200.7735240459442	movie	1		243	19.0	2.5	/experiments/AOT/AOT_stimuli/rescaled_final/1720_rv.mp4	0.0	240.11449813842773	2.5005288124084473
21	201.15689301490784	pulse	1	t		19.0	2.5	/experiments/AOT/AOT_stimuli/rescaled_final/1720_rv.mp4	0.0	240.49786710739136	
21	202.75742101669312	pulse	1	t		19.0	2.5	/experiments/AOT/AOT_stimuli/rescaled_final/1720_rv.mp4	0.0	242.09839510917664	
21	203.27405285835266	fix_post	2		12	19.0	2.5	/experiments/AOT/AOT_stimuli/rescaled_final/1720_rv.mp4	0.0	242.61502695083618	0.09997105598449707
22	203.37402391433716	fix_pre	0		119	20.0	2.5	blank	1.0	242.71499800682068	0.9916770458221436
22	204.3575279712677	pulse	0	t		20.0	2.5	blank	1.0	243.69850206375122	
22	204.3657009601593	movie	1		301	20.0	2.5	blank	1.0	243.70667505264282	2.5083560943603516
22	205.95760703086853	pulse	1	t		20.0	2.5	blank	1.0	245.29858112335205	
22	206.87405705451965	fix_post	2		12	20.0	2.5	blank	1.0	246.21503114700317	0.09995794296264648
23	206.9740149974823	fix_pre	0		120	21.0	2.5	/experiments/AOT/AOT_stimuli/rescaled_final/0165_fw.mp4	0.0	246.31498908996582	0.9999308586120605
23	207.55752205848694	pulse	0	t		21.0	2.5	/experiments/AOT/AOT_stimuli/rescaled_final/0165_fw.mp4	0.0	246.89849615097046	
23	207.97394585609436	movie	1		242	21.0	2.5	/experiments/AOT/AOT_stimuli/rescaled_final/0165_fw.mp4	0.0	247.31491994857788	2.500580072402954
23	209.1571090221405	pulse	1	t		21.0	2.5	/experiments/AOT/AOT_stimuli/rescaled_final/0165_fw.mp4	0.0	248.49808311462402	
23	210.47452592849731	fix_post	2		12	21.0	2.5	/experiments/AOT/AOT_stimuli/rescaled_final/0165_fw.mp4	0.0	249.81550002098083	0.09959697723388672
24	210.5741229057312	fix_pre	0		120	22.0	2.5	/experiments/AOT/AOT_stimuli/rescaled_final/1781_fw.mp4	0.0	249.91509699821472	1.0001721382141113
24	210.75763583183289	pulse	0	t		22.0	2.5	/experiments/AOT/AOT_stimuli/rescaled_final/1781_fw.mp4	0.0	250.0986099243164	
24	211.5742950439453	movie	1		244	22.0	2.5	/experiments/AOT/AOT_stimuli/rescaled_final/1781_fw.mp4	0.0	250.91526913642883	2.4992430210113525
24	212.35744500160217	pulse	1	t		22.0	2.5	/experiments/AOT/AOT_stimuli/rescaled_final/1781_fw.mp4	0.0	251.6984190940857	
24	213.9559030532837	pulse	1	t		22.0	2.5	/experiments/AOT/AOT_stimuli/rescaled_final/1781_fw.mp4	0.0	253.2968771457672	
24	214.07353806495667	fix_post	2		12	22.0	2.5	/experiments/AOT/AOT_stimuli/rescaled_final/1781_fw.mp4	0.0	253.41451215744019	0.10045981407165527
25	214.17399787902832	fix_pre	0		120	23.0	2.5	/experiments/AOT/AOT_stimuli/rescaled_final/1799_rv.mp4	0.0	253.51497197151184	0.9999191761016846
25	215.17391705513	movie	1		243	23.0	2.5	/experiments/AOT/AOT_stimuli/rescaled_final/1799_rv.mp4	0.0	254.51489114761353	2.4996747970581055
25	215.5585708618164	pulse	1	t		23.0	2.5	/experiments/AOT/AOT_stimuli/rescaled_final/1799_rv.mp4	0.0	254.89954495429993	
25	217.15734195709229	pulse	1	t		23.0	2.5	/experiments/AOT/AOT_stimuli/rescaled_final/1799_rv.mp4	0.0	256.4983160495758	
25	217.6735918521881	fix_post	2		12	23.0	2.5	/experiments/AOT/AOT_stimuli/rescaled_final/1799_rv.mp4	0.0	257.01456594467163	0.10036206245422363
26	217.77395391464233	fix_pre	0		119	24.0	2.5	/experiments/AOT/AOT_stimuli/rescaled_final/1126_fw.mp4	0.0	257.11492800712585	0.9915800094604492
26	218.75745797157288	pulse	0	t		24.0	2.5	/experiments/AOT/AOT_stimuli/rescaled_final/1126_fw.mp4	0.0	258.0984320640564	
26	218.76553392410278	movie	1		247	24.0	2.5	/experiments/AOT/AOT_stimuli/rescaled_final/1126_fw.mp4	0.0	258.1065080165863	2.5083069801330566
26	220.35841703414917	pulse	1	t		24.0	2.5	/experiments/AOT/AOT_stimuli/rescaled_final/1126_fw.mp4	0.0	259.6993911266327	
26	221.27384090423584	fix_post	2		12	24.0	2.5	/experiments/AOT/AOT_stimuli/rescaled_final/1126_fw.mp4	0.0	260.61481499671936	0.1000509262084961
27	221.37389183044434	fix_pre	0		120	25.0	2.5	/experiments/AOT/AOT_stimuli/rescaled_final/1946_fw.mp4	0.0	260.71486592292786	0.9999840259552002
27	221.95738291740417	pulse	0	t		25.0	2.5	/experiments/AOT/AOT_stimuli/rescaled_final/1946_fw.mp4	0.0	261.2983570098877	
27	222.37387585639954	movie	1		246	25.0	2.5	/experiments/AOT/AOT_stimuli/rescaled_final/1946_fw.mp4	0.0	261.71484994888306	2.5000030994415283
27	223.55748391151428	pulse	1	t		25.0	2.5	/experiments/AOT/AOT_stimuli/rescaled_final/1946_fw.mp4	0.0	262.8984580039978	
27	224.87387895584106	fix_post	2		12	25.0	2.5	/experiments/AOT/AOT_stimuli/rescaled_final/1946_fw.mp4	0.0	264.2148530483246	0.10007405281066895
28	224.97395300865173	fix_pre	0		120	26.0	2.5	/experiments/AOT/AOT_stimuli/rescaled_final/1256_rv.mp4	0.0	264.31492710113525	0.9999768733978271
28	225.1573989391327	pulse	0	t		26.0	2.5	/experiments/AOT/AOT_stimuli/rescaled_final/1256_rv.mp4	0.0	264.4983730316162	
28	225.97392988204956	movie	1		247	26.0	2.5	/experiments/AOT/AOT_stimuli/rescaled_final/1256_rv.mp4	0.0	265.3149039745331	2.499988079071045
28	226.75740385055542	pulse	1	t		26.0	2.5	/experiments/AOT/AOT_stimuli/rescaled_final/1256_rv.mp4	0.0	266.09837794303894	
28	228.35705995559692	pulse	1	t		26.0	2.5	/experiments/AOT/AOT_stimuli/rescaled_final/1256_rv.mp4	0.0	267.69803404808044	
28	228.4739179611206	fix_post	2		12	26.0	2.5	/experiments/AOT/AOT_stimuli/rescaled_final/1256_rv.mp4	0.0	267.8148920536041	0.09953999519348145
29	228.5734579563141	fix_pre	0		120	27.0	2.5	/experiments/AOT/AOT_stimuli/rescaled_final/1394_rv.mp4	0.0	267.9144320487976	1.0004959106445312
29	229.57395386695862	movie	1		244	27.0	2.5	/experiments/AOT/AOT_stimuli/rescaled_final/1394_rv.mp4	0.0	268.91492795944214	2.499979019165039
29	229.95702004432678	pulse	1	t		27.0	2.5	/experiments/AOT/AOT_stimuli/rescaled_final/1394_rv.mp4	0.0	269.2979941368103	
29	231.55735397338867	pulse	1	t		27.0	2.5	/experiments/AOT/AOT_stimuli/rescaled_final/1394_rv.mp4	0.0	270.8983280658722	
29	232.07393288612366	fix_post	2		12	27.0	2.5	/experiments/AOT/AOT_stimuli/rescaled_final/1394_rv.mp4	0.0	271.4149069786072	0.10002613067626953
30	232.17395901679993	fix_pre	0		119	28.0	2.5	blank	1.0	271.51493310928345	0.9915359020233154
30	233.15737986564636	pulse	0	t		28.0	2.5	blank	1.0	272.4983539581299	
30	233.16549491882324	movie	1		301	28.0	2.5	blank	1.0	272.50646901130676	2.508394956588745
30	234.75734400749207	pulse	1	t		28.0	2.5	blank	1.0	274.0983180999756	
30	235.673889875412	fix_post	2		12	28.0	2.5	blank	1.0	275.0148639678955	0.0999751091003418
31	235.77386498451233	fix_pre	0		120	29.0	2.5	/experiments/AOT/AOT_stimuli/rescaled_final/1540_fw.mp4	0.0	275.11483907699585	0.9999890327453613
31	236.357351064682	pulse	0	t		29.0	2.5	/experiments/AOT/AOT_stimuli/rescaled_final/1540_fw.mp4	0.0	275.6983251571655	
31	236.7738540172577	movie	1		244	29.0	2.5	/experiments/AOT/AOT_stimuli/rescaled_final/1540_fw.mp4	0.0	276.1148281097412	2.5000078678131104
31	237.95761704444885	pulse	1	t		29.0	2.5	/experiments/AOT/AOT_stimuli/rescaled_final/1540_fw.mp4	0.0	277.2985911369324	
31	239.2738618850708	fix_post	2		12	29.0	2.5	/experiments/AOT/AOT_stimuli/rescaled_final/1540_fw.mp4	0.0	278.6148359775543	0.09990906715393066
32	239.37377095222473	fix_pre	0		120	30.0	2.5	/experiments/AOT/AOT_stimuli/rescaled_final/1256_fw.mp4	0.0	278.71474504470825	1.0000200271606445
32	239.55742692947388	pulse	0	t		30.0	2.5	/experiments/AOT/AOT_stimuli/rescaled_final/1256_fw.mp4	0.0	278.8984010219574	
32	240.37379097938538	movie	1		245	30.0	2.5	/experiments/AOT/AOT_stimuli/rescaled_final/1256_fw.mp4	0.0	279.7147650718689	2.50010085105896
32	241.15734100341797	pulse	1	t		30.0	2.5	/experiments/AOT/AOT_stimuli/rescaled_final/1256_fw.mp4	0.0	280.4983150959015	
32	242.75692105293274	pulse	1	t		30.0	2.5	/experiments/AOT/AOT_stimuli/rescaled_final/1256_fw.mp4	0.0	282.09789514541626	
32	242.87389183044434	fix_post	2		12	30.0	2.5	/experiments/AOT/AOT_stimuli/rescaled_final/1256_fw.mp4	0.0	282.21486592292786	0.09958720207214355
33	242.97347903251648	fix_pre	0		120	31.0	2.5	/experiments/AOT/AOT_stimuli/rescaled_final/1437_fw.mp4	0.0	282.314453125	1.000349998474121
33	243.9738290309906	movie	1		244	31.0	2.5	/experiments/AOT/AOT_stimuli/rescaled_final/1437_fw.mp4	0.0	283.3148031234741	2.499997854232788
33	244.3583688735962	pulse	1	t		31.0	2.5	/experiments/AOT/AOT_stimuli/rescaled_final/1437_fw.mp4	0.0	283.6993429660797	
33	245.9572639465332	pulse	1	t		31.0	2.5	/experiments/AOT/AOT_stimuli/rescaled_final/1437_fw.mp4	0.0	285.2982380390167	
33	246.4738268852234	fix_post	2		12	31.0	2.5	/experiments/AOT/AOT_stimuli/rescaled_final/1437_fw.mp4	0.0	285.8148009777069	0.100006103515625
34	246.573832988739	fix_pre	0		119	32.0	2.5	/experiments/AOT/AOT_stimuli/rescaled_final/1130_rv.mp4	0.0	285.91480708122253	0.991663932800293
34	247.5573010444641	pulse	0	t		32.0	2.5	/experiments/AOT/AOT_stimuli/rescaled_final/1130_rv.mp4	0.0	286.89827513694763	
34	247.5654969215393	movie	1		247	32.0	2.5	/experiments/AOT/AOT_stimuli/rescaled_final/1130_rv.mp4	0.0	286.9064710140228	2.5083329677581787
34	249.15831899642944	pulse	1	t		32.0	2.5	/experiments/AOT/AOT_stimuli/rescaled_final/1130_rv.mp4	0.0	288.49929308891296	
34	250.07382988929749	fix_post	2		12	32.0	2.5	/experiments/AOT/AOT_stimuli/rescaled_final/1130_rv.mp4	0.0	289.414803981781	0.09990715980529785
35	250.17373704910278	fix_pre	0		120	33.0	2.5	/experiments/AOT/AOT_stimuli/rescaled_final/0733_rv.mp4	0.0	289.5147111415863	1.0001389980316162
35	250.75728106498718	pulse	0	t		33.0	2.5	/experiments/AOT/AOT_stimuli/rescaled_final/0733_rv.mp4	0.0	290.0982551574707	
35	251.1738760471344	movie	1		247	33.0	2.5	/experiments/AOT/AOT_stimuli/rescaled_final/0733_rv.mp4	0.0	290.5148501396179	2.4997968673706055
35	252.35742592811584	pulse	1	t		33.0	2.5	/experiments/AOT/AOT_stimuli/rescaled_final/0733_rv.mp4	0.0	291.69840002059937	
35	253.673672914505	fix_post	2		12	33.0	2.5	/experiments/AOT/AOT_stimuli/rescaled_final/0733_rv.mp4	0.0	293.0146470069885	0.10012102127075195
36	253.77379393577576	fix_pre	0		120	34.0	2.5	blank	1.0	293.1147680282593	0.9999740123748779
36	253.95725297927856	pulse	0	t		34.0	2.5	blank	1.0	293.2982270717621	
36	254.77376794815063	movie	1		300	34.0	2.5	blank	1.0	294.11474204063416	2.499955892562866
36	255.55722999572754	pulse	1	t		34.0	2.5	blank	1.0	294.89820408821106	
36	257.15722489356995	pulse	1	t		34.0	2.5	blank	1.0	296.49819898605347	
36	257.2737238407135	fix_post	2		12	34.0	2.5	blank	1.0	296.614697933197	0.1000821590423584
37	257.37380599975586	fix_pre	0		120	35.0	2.5	/experiments/AOT/AOT_stimuli/rescaled_final/1394_rv.mp4	0.0	296.7147800922394	0.9999220371246338
37	258.3737280368805	movie	1		243	35.0	2.5	/experiments/AOT/AOT_stimuli/rescaled_final/1394_rv.mp4	0.0	297.714702129364	2.500030994415283
37	258.7566719055176	pulse	1	t		35.0	2.5	/experiments/AOT/AOT_stimuli/rescaled_final/1394_rv.mp4	0.0	298.0976459980011	
37	260.35728096961975	pulse	1	t		35.0	2.5	/experiments/AOT/AOT_stimuli/rescaled_final/1394_rv.mp4	0.0	299.69825506210327	
37	260.8737590312958	fix_post	2		12	35.0	2.5	/experiments/AOT/AOT_stimuli/rescaled_final/1394_rv.mp4	0.0	300.2147331237793	0.0999748706817627
38	260.97373390197754	fix_pre	0		119	36.0	2.5	/experiments/AOT/AOT_stimuli/rescaled_final/2149_rv.mp4	0.0	300.31470799446106	0.9916160106658936
38	261.957172870636	pulse	0	t		36.0	2.5	/experiments/AOT/AOT_stimuli/rescaled_final/2149_rv.mp4	0.0	301.2981469631195	
38	261.96534991264343	movie	1		246	36.0	2.5	/experiments/AOT/AOT_stimuli/rescaled_final/2149_rv.mp4	0.0	301.30632400512695	2.508366107940674
38	263.5570180416107	pulse	1	t		36.0	2.5	/experiments/AOT/AOT_stimuli/rescaled_final/2149_rv.mp4	0.0	302.89799213409424	
38	264.4737160205841	fix_post	2		12	36.0	2.5	/experiments/AOT/AOT_stimuli/rescaled_final/2149_rv.mp4	0.0	303.8146901130676	0.0996239185333252
39	264.57333993911743	fix_pre	0		120	37.0	2.5	/experiments/AOT/AOT_stimuli/rescaled_final/0373_fw.mp4	0.0	303.91431403160095	1.0000569820404053
39	265.1572439670563	pulse	0	t		37.0	2.5	/experiments/AOT/AOT_stimuli/rescaled_final/0373_fw.mp4	0.0	304.4982180595398	
39	265.57339692115784	movie	1		244	37.0	2.5	/experiments/AOT/AOT_stimuli/rescaled_final/0373_fw.mp4	0.0	304.91437101364136	2.500370979309082
39	266.7574510574341	pulse	1	t		37.0	2.5	/experiments/AOT/AOT_stimuli/rescaled_final/0373_fw.mp4	0.0	306.0984251499176	
39	268.0737679004669	fix_post	2		12	37.0	2.5	/experiments/AOT/AOT_stimuli/rescaled_final/0373_fw.mp4	0.0	307.41474199295044	0.0999150276184082
40	268.1736829280853	fix_pre	0		120	38.0	2.5	/experiments/AOT/AOT_stimuli/rescaled_final/0014_rv.mp4	0.0	307.51465702056885	1.0000901222229004
40	268.3572609424591	pulse	0	t		38.0	2.5	/experiments/AOT/AOT_stimuli/rescaled_final/0014_rv.mp4	0.0	307.6982350349426	
40	269.1737730503082	movie	1		246	38.0	2.5	/experiments/AOT/AOT_stimuli/rescaled_final/0014_rv.mp4	0.0	308.51474714279175	2.4998998641967773
40	269.95715594291687	pulse	1	t		38.0	2.5	/experiments/AOT/AOT_stimuli/rescaled_final/0014_rv.mp4	0.0	309.2981300354004	
40	271.5563819408417	pulse	1	t		38.0	2.5	/experiments/AOT/AOT_stimuli/rescaled_final/0014_rv.mp4	0.0	310.8973560333252	
40	271.673672914505	fix_post	2		12	38.0	2.5	/experiments/AOT/AOT_stimuli/rescaled_final/0014_rv.mp4	0.0	311.0146470069885	0.10001611709594727
41	271.77368903160095	fix_pre	0		120	39.0	2.5	/experiments/AOT/AOT_stimuli/rescaled_final/1182_fw.mp4	0.0	311.1146631240845	0.9999120235443115
41	272.77360105514526	movie	1		243	39.0	2.5	/experiments/AOT/AOT_stimuli/rescaled_final/1182_fw.mp4	0.0	312.1145751476288	2.5000410079956055
41	273.158264875412	pulse	1	t		39.0	2.5	/experiments/AOT/AOT_stimuli/rescaled_final/1182_fw.mp4	0.0	312.4992389678955	
41	274.7571280002594	pulse	1	t		39.0	2.5	/experiments/AOT/AOT_stimuli/rescaled_final/1182_fw.mp4	0.0	314.0981020927429	
41	275.27364206314087	fix_post	2		12	39.0	2.5	/experiments/AOT/AOT_stimuli/rescaled_final/1182_fw.mp4	0.0	314.6146161556244	0.09995388984680176
42	275.37359595298767	fix_pre	0		119	40.0	2.5	/experiments/AOT/AOT_stimuli/rescaled_final/1425_rv.mp4	0.0	314.7145700454712	0.9916648864746094
42	276.3570969104767	pulse	0	t		40.0	2.5	/experiments/AOT/AOT_stimuli/rescaled_final/1425_rv.mp4	0.0	315.6980710029602	
42	276.3652608394623	movie	1		248	40.0	2.5	/experiments/AOT/AOT_stimuli/rescaled_final/1425_rv.mp4	0.0	315.7062349319458	2.508355140686035
42	277.9566299915314	pulse	1	t		40.0	2.5	/experiments/AOT/AOT_stimuli/rescaled_final/1425_rv.mp4	0.0	317.2976040840149	
42	278.8736159801483	fix_post	2		12	40.0	2.5	/experiments/AOT/AOT_stimuli/rescaled_final/1425_rv.mp4	0.0	318.21459007263184	0.09997391700744629
43	278.97358989715576	fix_pre	0		120	41.0	2.5	/experiments/AOT/AOT_stimuli/rescaled_final/0365_fw.mp4	0.0	318.3145639896393	0.9999840259552002
43	279.55715703964233	pulse	0	t		41.0	2.5	/experiments/AOT/AOT_stimuli/rescaled_final/0365_fw.mp4	0.0	318.89813113212585	
43	279.97357392311096	movie	1		245	41.0	2.5	/experiments/AOT/AOT_stimuli/rescaled_final/0365_fw.mp4	0.0	319.3145480155945	2.5000641345977783
43	281.1571888923645	pulse	1	t		41.0	2.5	/experiments/AOT/AOT_stimuli/rescaled_final/0365_fw.mp4	0.0	320.498162984848	
43	282.47363805770874	fix_post	2		12	41.0	2.5	/experiments/AOT/AOT_stimuli/rescaled_final/0365_fw.mp4	0.0	321.81461215019226	0.09998083114624023
44	282.573618888855	fix_pre	0		120	42.0	2.5	blank	1.0	321.9145929813385	0.9999330043792725
44	282.7570939064026	pulse	0	t		42.0	2.5	blank	1.0	322.0980679988861	
44	283.57355189323425	movie	1		300	42.0	2.5	blank	1.0	322.9145259857178	2.500046968460083
44	284.35712695121765	pulse	1	t		42.0	2.5	blank	1.0	323.6981010437012	
44	285.9570789337158	pulse	1	t		42.0	2.5	blank	1.0	325.29805302619934	
44	286.07359886169434	fix_post	2		12	42.0	2.5	blank	1.0	325.41457295417786	0.0999910831451416
45	286.1735899448395	fix_pre	0		120	43.0	2.5	/experiments/AOT/AOT_stimuli/rescaled_final/0368_rv.mp4	0.0	325.514564037323	0.9999740123748779
45	287.17356395721436	movie	1		245	43.0	2.5	/experiments/AOT/AOT_stimuli/rescaled_final/0368_rv.mp4	0.0	326.5145380496979	2.5000510215759277
45	287.55676889419556	pulse	1	t		43.0	2.5	/experiments/AOT/AOT_stimuli/rescaled_final/0368_rv.mp4	0.0	326.8977429866791	
45	289.1570749282837	pulse	1	t		43.0	2.5	/experiments/AOT/AOT_stimuli/rescaled_final/0368_rv.mp4	0.0	328.4980490207672	
45	289.6736149787903	fix_post	2		12	43.0	2.5	/experiments/AOT/AOT_stimuli/rescaled_final/0368_rv.mp4	0.0	329.0145890712738	0.09993290901184082
46	289.7735478878021	fix_pre	0		119	44.0	2.5	/experiments/AOT/AOT_stimuli/rescaled_final/1014_fw.mp4	0.0	329.11452198028564	0.9916861057281494
46	290.7571060657501	pulse	0	t		44.0	2.5	/experiments/AOT/AOT_stimuli/rescaled_final/1014_fw.mp4	0.0	330.09808015823364	
46	290.7652339935303	movie	1		245	44.0	2.5	/experiments/AOT/AOT_stimuli/rescaled_final/1014_fw.mp4	0.0	330.1062080860138	2.5083858966827393
46	292.3585648536682	pulse	1	t		44.0	2.5	/experiments/AOT/AOT_stimuli/rescaled_final/1014_fw.mp4	0.0	331.69953894615173	
46	293.273619890213	fix_post	2		12	44.0	2.5	/experiments/AOT/AOT_stimuli/rescaled_final/1014_fw.mp4	0.0	332.61459398269653	0.10000300407409668
47	293.3736228942871	fix_pre	0		120	45.0	2.5	/experiments/AOT/AOT_stimuli/rescaled_final/2115_fw.mp4	0.0	332.71459698677063	1.0000460147857666
47	293.9571089744568	pulse	0	t		45.0	2.5	/experiments/AOT/AOT_stimuli/rescaled_final/2115_fw.mp4	0.0	333.2980830669403	
47	294.3736689090729	movie	1		245	45.0	2.5	/experiments/AOT/AOT_stimuli/rescaled_final/2115_fw.mp4	0.0	333.7146430015564	2.4999380111694336
47	295.5572159290314	pulse	1	t		45.0	2.5	/experiments/AOT/AOT_stimuli/rescaled_final/2115_fw.mp4	0.0	334.8981900215149	
47	296.8736069202423	fix_post	2		12	45.0	2.5	/experiments/AOT/AOT_stimuli/rescaled_final/2115_fw.mp4	0.0	336.21458101272583	0.10000205039978027
48	296.9736089706421	fix_pre	0		120	46.0	2.5	/experiments/AOT/AOT_stimuli/rescaled_final/1354_rv.mp4	0.0	336.3145830631256	0.9999639987945557
48	297.1570658683777	pulse	0	t		46.0	2.5	/experiments/AOT/AOT_stimuli/rescaled_final/1354_rv.mp4	0.0	336.4980399608612	
48	297.97357296943665	movie	1		243	46.0	2.5	/experiments/AOT/AOT_stimuli/rescaled_final/1354_rv.mp4	0.0	337.31454706192017	2.499535083770752
48	298.75705003738403	pulse	1	t		46.0	2.5	/experiments/AOT/AOT_stimuli/rescaled_final/1354_rv.mp4	0.0	338.09802412986755	
48	300.35535287857056	pulse	1	t		46.0	2.5	/experiments/AOT/AOT_stimuli/rescaled_final/1354_rv.mp4	0.0	339.6963269710541	
48	300.4731080532074	fix_post	2		12	46.0	2.5	/experiments/AOT/AOT_stimuli/rescaled_final/1354_rv.mp4	0.0	339.8140821456909	0.10054278373718262
49	300.5736508369446	fix_pre	0		120	47.0	2.5	blank	1.0	339.9146249294281	0.9998371601104736
49	301.57348799705505	movie	1		300	47.0	2.5	blank	1.0	340.9144620895386	2.5000929832458496
49	301.95704984664917	pulse	1	t		47.0	2.5	blank	1.0	341.2980239391327	
49	303.5570938587189	pulse	1	t		47.0	2.5	blank	1.0	342.8980679512024	
49	304.0735809803009	fix_post	2		12	47.0	2.5	blank	1.0	343.4145550727844	0.09990286827087402
50	304.1734838485718	fix_pre	0		119	48.0	2.5	/experiments/AOT/AOT_stimuli/rescaled_final/0117_fw.mp4	0.0	343.5144579410553	0.99173903465271
50	305.1570370197296	pulse	0	t		48.0	2.5	/experiments/AOT/AOT_stimuli/rescaled_final/0117_fw.mp4	0.0	344.49801111221313	
50	305.1652228832245	movie	1		244	48.0	2.5	/experiments/AOT/AOT_stimuli/rescaled_final/0117_fw.mp4	0.0	344.506196975708	2.5082499980926514
50	306.7569718360901	pulse	1	t		48.0	2.5	/experiments/AOT/AOT_stimuli/rescaled_final/0117_fw.mp4	0.0	346.0979459285736	
50	307.67347288131714	fix_post	2		12	48.0	2.5	/experiments/AOT/AOT_stimuli/rescaled_final/0117_fw.mp4	0.0	347.01444697380066	0.10002613067626953
51	307.7734990119934	fix_pre	0		120	49.0	2.5	/experiments/AOT/AOT_stimuli/rescaled_final/1468_rv.mp4	0.0	347.11447310447693	1.0000460147857666
51	308.35701298713684	pulse	0	t		49.0	2.5	/experiments/AOT/AOT_stimuli/rescaled_final/1468_rv.mp4	0.0	347.69798707962036	
51	308.7735450267792	movie	1		243	49.0	2.5	/experiments/AOT/AOT_stimuli/rescaled_final/1468_rv.mp4	0.0	348.1145191192627	2.4999070167541504
51	309.957083940506	pulse	1	t		49.0	2.5	/experiments/AOT/AOT_stimuli/rescaled_final/1468_rv.mp4	0.0	349.2980580329895	
51	311.2734520435333	fix_post	2		12	49.0	2.5	/experiments/AOT/AOT_stimuli/rescaled_final/1468_rv.mp4	0.0	350.61442613601685	0.10009098052978516
52	311.3735430240631	fix_pre	0		120	50.0	2.5	/experiments/AOT/AOT_stimuli/rescaled_final/0185_fw.mp4	0.0	350.71451711654663	0.9999649524688721
52	311.55697298049927	pulse	0	t		50.0	2.5	/experiments/AOT/AOT_stimuli/rescaled_final/0185_fw.mp4	0.0	350.8979470729828	
52	312.373507976532	movie	1		244	50.0	2.5	/experiments/AOT/AOT_stimuli/rescaled_final/0185_fw.mp4	0.0	351.7144820690155	2.500035047531128
52	313.1569969654083	pulse	1	t		50.0	2.5	/experiments/AOT/AOT_stimuli/rescaled_final/0185_fw.mp4	0.0	352.49797105789185	
52	314.75556993484497	pulse	1	t		50.0	2.5	/experiments/AOT/AOT_stimuli/rescaled_final/0185_fw.mp4	0.0	354.0965440273285	
52	314.8735430240631	fix_post	2		12	50.0	2.5	/experiments/AOT/AOT_stimuli/rescaled_final/0185_fw.mp4	0.0	354.21451711654663	0.09999895095825195
53	314.97354197502136	fix_pre	0		120	51.0	2.5	/experiments/AOT/AOT_stimuli/rescaled_final/1540_rv.mp4	0.0	354.3145160675049	0.9999890327453613
53	315.9735310077667	movie	1		244	51.0	2.5	/experiments/AOT/AOT_stimuli/rescaled_final/1540_rv.mp4	0.0	355.31450510025024	2.4998788833618164
53	316.3566029071808	pulse	1	t		51.0	2.5	/experiments/AOT/AOT_stimuli/rescaled_final/1540_rv.mp4	0.0	355.6975769996643	
53	317.95696997642517	pulse	1	t		51.0	2.5	/experiments/AOT/AOT_stimuli/rescaled_final/1540_rv.mp4	0.0	357.2979440689087	
53	318.47340989112854	fix_post	2		12	51.0	2.5	/experiments/AOT/AOT_stimuli/rescaled_final/1540_rv.mp4	0.0	357.81438398361206	0.10011410713195801
54	318.5735239982605	fix_pre	0		119	52.0	2.5	/experiments/AOT/AOT_stimuli/rescaled_final/2028_fw.mp4	0.0	357.914498090744	0.9916009902954102
54	319.5569360256195	pulse	0	t		52.0	2.5	/experiments/AOT/AOT_stimuli/rescaled_final/2028_fw.mp4	0.0	358.897910118103	
54	319.5651249885559	movie	1		246	52.0	2.5	/experiments/AOT/AOT_stimuli/rescaled_final/2028_fw.mp4	0.0	358.90609908103943	2.5084140300750732
54	321.1559159755707	pulse	1	t		52.0	2.5	/experiments/AOT/AOT_stimuli/rescaled_final/2028_fw.mp4	0.0	360.4968900680542	
54	322.073539018631	fix_post	2		12	52.0	2.5	/experiments/AOT/AOT_stimuli/rescaled_final/2028_fw.mp4	0.0	361.4145131111145	0.09968900680541992
55	322.1732280254364	fix_pre	0		120	53.0	2.5	/experiments/AOT/AOT_stimuli/rescaled_final/1863_rv.mp4	0.0	361.5142021179199	1.000586986541748
55	322.75684094429016	pulse	0	t		53.0	2.5	/experiments/AOT/AOT_stimuli/rescaled_final/1863_rv.mp4	0.0	362.0978150367737	
55	323.17381501197815	movie	1		247	53.0	2.5	/experiments/AOT/AOT_stimuli/rescaled_final/1863_rv.mp4	0.0	362.51478910446167	2.499619960784912
55	324.356999874115	pulse	1	t		53.0	2.5	/experiments/AOT/AOT_stimuli/rescaled_final/1863_rv.mp4	0.0	363.6979739665985	
55	325.67343497276306	fix_post	2		12	53.0	2.5	/experiments/AOT/AOT_stimuli/rescaled_final/1863_rv.mp4	0.0	365.0144090652466	0.09998607635498047
56	325.77342104911804	fix_pre	0		120	54.0	2.5	/experiments/AOT/AOT_stimuli/rescaled_final/0827_rv.mp4	0.0	365.11439514160156	1.0002069473266602
56	325.95691204071045	pulse	0	t		54.0	2.5	/experiments/AOT/AOT_stimuli/rescaled_final/0827_rv.mp4	0.0	365.29788613319397	
56	326.7736279964447	movie	1		246	54.0	2.5	/experiments/AOT/AOT_stimuli/rescaled_final/0827_rv.mp4	0.0	366.1146020889282	2.4993338584899902
56	327.55688405036926	pulse	1	t		54.0	2.5	/experiments/AOT/AOT_stimuli/rescaled_final/0827_rv.mp4	0.0	366.8978581428528	
56	329.15285205841064	pulse	1	t		54.0	2.5	/experiments/AOT/AOT_stimuli/rescaled_final/0827_rv.mp4	0.0	368.49382615089417	
56	329.2729618549347	fix_post	2		12	54.0	2.5	/experiments/AOT/AOT_stimuli/rescaled_final/0827_rv.mp4	0.0	368.6139359474182	0.1004941463470459
57	329.37345600128174	fix_pre	0		120	55.0	2.5	blank	1.0	368.71443009376526	0.9999048709869385
57	330.3733608722687	movie	1		300	55.0	2.5	blank	1.0	369.7143349647522	2.50003719329834
57	330.7568328380585	pulse	1	t		55.0	2.5	blank	1.0	370.097806930542	
57	332.35688996315	pulse	1	t		55.0	2.5	blank	1.0	371.69786405563354	
57	332.873398065567	fix_post	2		12	55.0	2.5	blank	1.0	372.21437215805054	0.0999457836151123
58	332.97334384918213	fix_pre	0		119	56.0	2.5	/experiments/AOT/AOT_stimuli/rescaled_final/0335_rv.mp4	0.0	372.31431794166565	0.9917161464691162
58	333.9568660259247	pulse	0	t		56.0	2.5	/experiments/AOT/AOT_stimuli/rescaled_final/0335_rv.mp4	0.0	373.2978401184082	
58	333.96505999565125	movie	1		245	56.0	2.5	/experiments/AOT/AOT_stimuli/rescaled_final/0335_rv.mp4	0.0	373.30603408813477	2.5083508491516113
58	335.5563440322876	pulse	1	t		56.0	2.5	/experiments/AOT/AOT_stimuli/rescaled_final/0335_rv.mp4	0.0	374.8973181247711	
58	336.47341084480286	fix_post	2		12	56.0	2.5	/experiments/AOT/AOT_stimuli/rescaled_final/0335_rv.mp4	0.0	375.8143849372864	0.0998990535736084
59	336.57330989837646	fix_pre	0		120	57.0	2.5	/experiments/AOT/AOT_stimuli/rescaled_final/1180_rv.mp4	0.0	375.91428399086	1.0000801086425781
59	337.1568410396576	pulse	0	t		57.0	2.5	/experiments/AOT/AOT_stimuli/rescaled_final/1180_rv.mp4	0.0	376.4978151321411	
59	337.57339000701904	movie	1		244	57.0	2.5	/experiments/AOT/AOT_stimuli/rescaled_final/1180_rv.mp4	0.0	376.91436409950256	2.4999349117279053
59	338.7569260597229	pulse	1	t		57.0	2.5	/experiments/AOT/AOT_stimuli/rescaled_final/1180_rv.mp4	0.0	378.0979001522064	
59	340.07332491874695	fix_post	2		12	57.0	2.5	/experiments/AOT/AOT_stimuli/rescaled_final/1180_rv.mp4	0.0	379.41429901123047	0.10002613067626953
60	340.1733510494232	fix_pre	0		120	58.0	2.5	/experiments/AOT/AOT_stimuli/rescaled_final/1346_rv.mp4	0.0	379.51432514190674	0.9999399185180664
60	340.35678005218506	pulse	0	t		58.0	2.5	/experiments/AOT/AOT_stimuli/rescaled_final/1346_rv.mp4	0.0	379.6977541446686	
60	341.1732909679413	movie	1		244	58.0	2.5	/experiments/AOT/AOT_stimuli/rescaled_final/1346_rv.mp4	0.0	380.5142650604248	2.500009059906006
60	341.9568040370941	pulse	1	t		58.0	2.5	/experiments/AOT/AOT_stimuli/rescaled_final/1346_rv.mp4	0.0	381.29777812957764	
60	343.55520486831665	pulse	1	t		58.0	2.5	/experiments/AOT/AOT_stimuli/rescaled_final/1346_rv.mp4	0.0	382.89617896080017	
60	343.6733000278473	fix_post	2		12	58.0	2.5	/experiments/AOT/AOT_stimuli/rescaled_final/1346_rv.mp4	0.0	383.0142741203308	0.10006093978881836
61	343.7733609676361	fix_pre	0		120	59.0	2.5	/experiments/AOT/AOT_stimuli/rescaled_final/1182_rv.mp4	0.0	383.11433506011963	0.9999730587005615
61	344.77333402633667	movie	1		243	59.0	2.5	/experiments/AOT/AOT_stimuli/rescaled_final/1182_rv.mp4	0.0	384.1143081188202	2.499959945678711
61	345.1568510532379	pulse	1	t		59.0	2.5	/experiments/AOT/AOT_stimuli/rescaled_final/1182_rv.mp4	0.0	384.49782514572144	
61	346.7568168640137	pulse	1	t		59.0	2.5	/experiments/AOT/AOT_stimuli/rescaled_final/1182_rv.mp4	0.0	386.0977909564972	
61	347.2732939720154	fix_post	2		12	59.0	2.5	/experiments/AOT/AOT_stimuli/rescaled_final/1182_rv.mp4	0.0	386.6142680644989	0.09999895095825195
62	347.37329292297363	fix_pre	0		119	60.0	2.5	/experiments/AOT/AOT_stimuli/rescaled_final/0563_rv.mp4	0.0	386.71426701545715	0.9916410446166992
62	348.3567500114441	pulse	0	t		60.0	2.5	/experiments/AOT/AOT_stimuli/rescaled_final/0563_rv.mp4	0.0	387.6977241039276	
62	348.36493396759033	movie	1		244	60.0	2.5	/experiments/AOT/AOT_stimuli/rescaled_final/0563_rv.mp4	0.0	387.70590806007385	2.5079028606414795
62	349.9563510417938	pulse	1	t		60.0	2.5	/experiments/AOT/AOT_stimuli/rescaled_final/0563_rv.mp4	0.0	389.29732513427734	
62	350.8728368282318	fix_post	2		12	60.0	2.5	/experiments/AOT/AOT_stimuli/rescaled_final/0563_rv.mp4	0.0	390.21381092071533	0.10044407844543457
63	350.97328090667725	fix_pre	0		120	61.0	2.5	/experiments/AOT/AOT_stimuli/rescaled_final/0097_rv.mp4	0.0	390.31425499916077	0.9999761581420898
63	351.556813955307	pulse	0	t		61.0	2.5	/experiments/AOT/AOT_stimuli/rescaled_final/0097_rv.mp4	0.0	390.8977880477905	
63	351.97325706481934	movie	1		245	61.0	2.5	/experiments/AOT/AOT_stimuli/rescaled_final/0097_rv.mp4	0.0	391.31423115730286	2.5000879764556885
63	353.156858921051	pulse	1	t		61.0	2.5	/experiments/AOT/AOT_stimuli/rescaled_final/0097_rv.mp4	0.0	392.49783301353455	
63	354.473345041275	fix_post	2		12	61.0	2.5	/experiments/AOT/AOT_stimuli/rescaled_final/0097_rv.mp4	0.0	393.81431913375854	0.09986090660095215
64	354.573205947876	fix_pre	0		120	62.0	2.5	blank	1.0	393.9141800403595	1.0000340938568115
64	354.7567038536072	pulse	0	t		62.0	2.5	blank	1.0	394.0976779460907	
64	355.5732400417328	movie	1		300	62.0	2.5	blank	1.0	394.9142141342163	2.5000557899475098
64	356.3567728996277	pulse	1	t		62.0	2.5	blank	1.0	395.6977469921112	
64	357.95674896240234	pulse	1	t		62.0	2.5	blank	1.0	397.29772305488586	
64	358.0732958316803	fix_post	2		12	62.0	2.5	blank	1.0	397.4142699241638	0.09996509552001953
65	358.1732609272003	fix_pre	0		120	63.0	2.5	/experiments/AOT/AOT_stimuli/rescaled_final/0794_rv.mp4	0.0	397.51423501968384	1.0000441074371338
65	359.17330503463745	movie	1		245	63.0	2.5	/experiments/AOT/AOT_stimuli/rescaled_final/0794_rv.mp4	0.0	398.514279127121	2.499490976333618
65	359.5561158657074	pulse	1	t		63.0	2.5	/experiments/AOT/AOT_stimuli/rescaled_final/0794_rv.mp4	0.0	398.8970899581909	
65	361.1567108631134	pulse	1	t		63.0	2.5	/experiments/AOT/AOT_stimuli/rescaled_final/0794_rv.mp4	0.0	400.4976849555969	
65	361.67279601097107	fix_post	2		12	63.0	2.5	/experiments/AOT/AOT_stimuli/rescaled_final/0794_rv.mp4	0.0	401.0137701034546	0.10054492950439453
66	361.77334094047546	fix_pre	0		119	64.0	2.5	/experiments/AOT/AOT_stimuli/rescaled_final/0163_fw.mp4	0.0	401.114315032959	0.9915180206298828
66	362.7567629814148	pulse	0	t		64.0	2.5	/experiments/AOT/AOT_stimuli/rescaled_final/0163_fw.mp4	0.0	402.0977370738983	
66	362.76485896110535	movie	1		246	64.0	2.5	/experiments/AOT/AOT_stimuli/rescaled_final/0163_fw.mp4	0.0	402.10583305358887	2.5083069801330566
66	364.3563230037689	pulse	1	t		64.0	2.5	/experiments/AOT/AOT_stimuli/rescaled_final/0163_fw.mp4	0.0	403.69729709625244	
66	365.2731659412384	fix_post	2		12	64.0	2.5	/experiments/AOT/AOT_stimuli/rescaled_final/0163_fw.mp4	0.0	404.6141400337219	0.10002899169921875
67	365.3731949329376	fix_pre	0		120	65.0	2.5	/experiments/AOT/AOT_stimuli/rescaled_final/0681_fw.mp4	0.0	404.71416902542114	1.0000739097595215
67	365.9567530155182	pulse	0	t		65.0	2.5	/experiments/AOT/AOT_stimuli/rescaled_final/0681_fw.mp4	0.0	405.2977271080017	
67	366.37326884269714	movie	1		244	65.0	2.5	/experiments/AOT/AOT_stimuli/rescaled_final/0681_fw.mp4	0.0	405.71424293518066	2.49997615814209
67	367.556823015213	pulse	1	t		65.0	2.5	/experiments/AOT/AOT_stimuli/rescaled_final/0681_fw.mp4	0.0	406.89779710769653	
67	368.87324500083923	fix_post	2		12	65.0	2.5	/experiments/AOT/AOT_stimuli/rescaled_final/0681_fw.mp4	0.0	408.21421909332275	0.10002803802490234
68	368.97327303886414	fix_pre	0		120	66.0	2.5	/experiments/AOT/AOT_stimuli/rescaled_final/0716_fw.mp4	0.0	408.31424713134766	0.9998760223388672
68	369.1566958427429	pulse	0	t		66.0	2.5	/experiments/AOT/AOT_stimuli/rescaled_final/0716_fw.mp4	0.0	408.49766993522644	
68	369.973149061203	movie	1		243	66.0	2.5	/experiments/AOT/AOT_stimuli/rescaled_final/0716_fw.mp4	0.0	409.3141231536865	2.500119924545288
68	370.7567050457001	pulse	1	t		66.0	2.5	/experiments/AOT/AOT_stimuli/rescaled_final/0716_fw.mp4	0.0	410.0976791381836	
68	372.3552119731903	pulse	1	t		66.0	2.5	/experiments/AOT/AOT_stimuli/rescaled_final/0716_fw.mp4	0.0	411.6961860656738	
68	372.4732689857483	fix_post	2		12	66.0	2.5	/experiments/AOT/AOT_stimuli/rescaled_final/0716_fw.mp4	0.0	411.8142430782318	0.09995889663696289
69	372.57322788238525	fix_pre	0		120	67.0	2.5	/experiments/AOT/AOT_stimuli/rescaled_final/1946_rv.mp4	0.0	411.9142019748688	0.9999611377716064
69	373.57318902015686	movie	1		247	67.0	2.5	/experiments/AOT/AOT_stimuli/rescaled_final/1946_rv.mp4	0.0	412.9141631126404	2.4995899200439453
69	373.9562590122223	pulse	1	t		67.0	2.5	/experiments/AOT/AOT_stimuli/rescaled_final/1946_rv.mp4	0.0	413.2972331047058	
69	375.55618596076965	pulse	1	t		67.0	2.5	/experiments/AOT/AOT_stimuli/rescaled_final/1946_rv.mp4	0.0	414.8971600532532	
69	376.0727789402008	fix_post	2		12	67.0	2.5	/experiments/AOT/AOT_stimuli/rescaled_final/1946_rv.mp4	0.0	415.4137530326843	0.10050201416015625
70	376.17328095436096	fix_pre	0		119	68.0	2.5	/experiments/AOT/AOT_stimuli/rescaled_final/1354_fw.mp4	0.0	415.5142550468445	0.9911611080169678
70	377.156259059906	pulse	0	t		68.0	2.5	/experiments/AOT/AOT_stimuli/rescaled_final/1354_fw.mp4	0.0	416.4972331523895	
70	377.16444206237793	movie	1		244	68.0	2.5	/experiments/AOT/AOT_stimuli/rescaled_final/1354_fw.mp4	0.0	416.50541615486145	2.5087549686431885
70	378.7570240497589	pulse	1	t		68.0	2.5	/experiments/AOT/AOT_stimuli/rescaled_final/1354_fw.mp4	0.0	418.09799814224243	
70	379.6731970310211	fix_post	2		12	68.0	2.5	/experiments/AOT/AOT_stimuli/rescaled_final/1354_fw.mp4	0.0	419.01417112350464	0.09998893737792969
71	379.77318596839905	fix_pre	0		120	69.0	2.5	/experiments/AOT/AOT_stimuli/rescaled_final/0117_rv.mp4	0.0	419.11416006088257	1.0001029968261719
71	380.35667300224304	pulse	0	t		69.0	2.5	/experiments/AOT/AOT_stimuli/rescaled_final/0117_rv.mp4	0.0	419.69764709472656	
71	380.7732889652252	movie	1		245	69.0	2.5	/experiments/AOT/AOT_stimuli/rescaled_final/0117_rv.mp4	0.0	420.11426305770874	2.499814987182617
71	381.9566569328308	pulse	1	t		69.0	2.5	/experiments/AOT/AOT_stimuli/rescaled_final/0117_rv.mp4	0.0	421.29763102531433	
71	383.27310395240784	fix_post	2		12	69.0	2.5	/experiments/AOT/AOT_stimuli/rescaled_final/0117_rv.mp4	0.0	422.61407804489136	0.10008406639099121
72	383.3731880187988	fix_pre	0		120	70.0	2.5	blank	1.0	422.71416211128235	0.9999198913574219
72	383.55665493011475	pulse	0	t		70.0	2.5	blank	1.0	422.89762902259827	
72	384.37310791015625	movie	1		300	70.0	2.5	blank	1.0	423.71408200263977	2.4999430179595947
72	385.15647292137146	pulse	1	t		70.0	2.5	blank	1.0	424.497447013855	
72	386.7564799785614	pulse	1	t		70.0	2.5	blank	1.0	426.0974540710449	
72	386.87305092811584	fix_post	2		12	70.0	2.5	blank	1.0	426.21402502059937	0.10001707077026367
73	386.9730679988861	fix_pre	0		120	71.0	2.5	/experiments/AOT/AOT_stimuli/rescaled_final/1309_rv.mp4	0.0	426.31404209136963	1.0000150203704834
73	387.9730830192566	movie	1		244	71.0	2.5	/experiments/AOT/AOT_stimuli/rescaled_final/1309_rv.mp4	0.0	427.3140571117401	2.5000429153442383
73	388.3565218448639	pulse	1	t		71.0	2.5	/experiments/AOT/AOT_stimuli/rescaled_final/1309_rv.mp4	0.0	427.6974959373474	
73	389.9565360546112	pulse	1	t		71.0	2.5	/experiments/AOT/AOT_stimuli/rescaled_final/1309_rv.mp4	0.0	429.2975101470947	
73	390.47312593460083	fix_post	2		12	71.0	2.5	/experiments/AOT/AOT_stimuli/rescaled_final/1309_rv.mp4	0.0	429.81410002708435	0.09990191459655762
74	390.5730278491974	fix_pre	0		119	72.0	2.5	/experiments/AOT/AOT_stimuli/rescaled_final/0744_fw.mp4	0.0	429.9140019416809	0.9917311668395996
74	391.55656003952026	pulse	0	t		72.0	2.5	/experiments/AOT/AOT_stimuli/rescaled_final/0744_fw.mp4	0.0	430.8975341320038	
74	391.564759016037	movie	1		247	72.0	2.5	/experiments/AOT/AOT_stimuli/rescaled_final/0744_fw.mp4	0.0	430.9057331085205	2.508297920227051
74	393.1560728549957	pulse	1	t		72.0	2.5	/experiments/AOT/AOT_stimuli/rescaled_final/0744_fw.mp4	0.0	432.49704694747925	
74	394.07305693626404	fix_post	2		12	72.0	2.5	/experiments/AOT/AOT_stimuli/rescaled_final/0744_fw.mp4	0.0	433.41403102874756	0.10001492500305176
75	394.1730718612671	fix_pre	0		120	73.0	2.5	/experiments/AOT/AOT_stimuli/rescaled_final/1211_rv.mp4	0.0	433.5140459537506	1.0000030994415283
75	394.75660705566406	pulse	0	t		73.0	2.5	/experiments/AOT/AOT_stimuli/rescaled_final/1211_rv.mp4	0.0	434.0975811481476	
75	395.1730749607086	movie	1		244	73.0	2.5	/experiments/AOT/AOT_stimuli/rescaled_final/1211_rv.mp4	0.0	434.51404905319214	2.499976873397827
75	396.3566379547119	pulse	1	t		73.0	2.5	/experiments/AOT/AOT_stimuli/rescaled_final/1211_rv.mp4	0.0	435.69761204719543	
75	397.67305183410645	fix_post	2		12	73.0	2.5	/experiments/AOT/AOT_stimuli/rescaled_final/1211_rv.mp4	0.0	437.01402592658997	0.10000014305114746
76	397.7730519771576	fix_pre	0		120	74.0	2.5	/experiments/AOT/AOT_stimuli/rescaled_final/0902_fw.mp4	0.0	437.1140260696411	1.0000920295715332
76	397.95647406578064	pulse	0	t		74.0	2.5	/experiments/AOT/AOT_stimuli/rescaled_final/0902_fw.mp4	0.0	437.29744815826416	
76	398.7731440067291	movie	1		246	74.0	2.5	/experiments/AOT/AOT_stimuli/rescaled_final/0902_fw.mp4	0.0	438.11411809921265	2.4999639987945557
76	399.5566279888153	pulse	1	t		74.0	2.5	/experiments/AOT/AOT_stimuli/rescaled_final/0902_fw.mp4	0.0	438.8976020812988	
76	401.15614104270935	pulse	1	t		74.0	2.5	/experiments/AOT/AOT_stimuli/rescaled_final/0902_fw.mp4	0.0	440.49711513519287	
76	401.2731080055237	fix_post	2		12	74.0	2.5	/experiments/AOT/AOT_stimuli/rescaled_final/0902_fw.mp4	0.0	440.6140820980072	0.09996294975280762
77	401.3730709552765	fix_pre	0		120	75.0	2.5	/experiments/AOT/AOT_stimuli/rescaled_final/0594_rv.mp4	0.0	440.71404504776	0.9996840953826904
77	402.3727550506592	movie	1		244	75.0	2.5	/experiments/AOT/AOT_stimuli/rescaled_final/0594_rv.mp4	0.0	441.7137291431427	2.4999029636383057
77	402.75620698928833	pulse	1	t		75.0	2.5	/experiments/AOT/AOT_stimuli/rescaled_final/0594_rv.mp4	0.0	442.09718108177185	
77	404.35661482810974	pulse	1	t		75.0	2.5	/experiments/AOT/AOT_stimuli/rescaled_final/0594_rv.mp4	0.0	443.69758892059326	
77	404.8726580142975	fix_post	2		12	75.0	2.5	/experiments/AOT/AOT_stimuli/rescaled_final/0594_rv.mp4	0.0	444.213632106781	0.1003880500793457
78	404.97304606437683	fix_pre	0		119	76.0	2.5	/experiments/AOT/AOT_stimuli/rescaled_final/0185_fw.mp4	0.0	444.31402015686035	0.9915778636932373
78	405.9565579891205	pulse	0	t		76.0	2.5	/experiments/AOT/AOT_stimuli/rescaled_final/0185_fw.mp4	0.0	445.297532081604	
78	405.96462392807007	movie	1		246	76.0	2.5	/experiments/AOT/AOT_stimuli/rescaled_final/0185_fw.mp4	0.0	445.3055980205536	2.5084381103515625
78	407.556184053421	pulse	1	t		76.0	2.5	/experiments/AOT/AOT_stimuli/rescaled_final/0185_fw.mp4	0.0	446.89715814590454	
78	408.47306203842163	fix_post	2		12	76.0	2.5	/experiments/AOT/AOT_stimuli/rescaled_final/0185_fw.mp4	0.0	447.81403613090515	0.09995698928833008
79	408.57301902770996	fix_pre	0		120	77.0	2.5	blank	1.0	447.9139931201935	1.0000460147857666
79	409.1565568447113	pulse	0	t		77.0	2.5	blank	1.0	448.4975309371948	
79	409.5730650424957	movie	1		300	77.0	2.5	blank	1.0	448.91403913497925	2.4998857975006104
79	410.7565059661865	pulse	1	t		77.0	2.5	blank	1.0	450.09748005867004	
79	412.07295083999634	fix_post	2		12	77.0	2.5	blank	1.0	451.41392493247986	0.10001420974731445
80	412.17296504974365	fix_pre	0		120	78.0	2.5	/experiments/AOT/AOT_stimuli/rescaled_final/0302_rv.mp4	0.0	451.5139391422272	0.999614953994751
80	412.3565499782562	pulse	0	t		78.0	2.5	/experiments/AOT/AOT_stimuli/rescaled_final/0302_rv.mp4	0.0	451.69752407073975	
80	413.1725800037384	movie	1		243	78.0	2.5	/experiments/AOT/AOT_stimuli/rescaled_final/0302_rv.mp4	0.0	452.5135540962219	2.5004630088806152
80	413.95652890205383	pulse	1	t		78.0	2.5	/experiments/AOT/AOT_stimuli/rescaled_final/0302_rv.mp4	0.0	453.29750299453735	
80	415.55486583709717	pulse	1	t		78.0	2.5	/experiments/AOT/AOT_stimuli/rescaled_final/0302_rv.mp4	0.0	454.8958399295807	
80	415.673043012619	fix_post	2		12	78.0	2.5	/experiments/AOT/AOT_stimuli/rescaled_final/0302_rv.mp4	0.0	455.01401710510254	0.0999000072479248
81	415.77294301986694	fix_pre	0		120	79.0	2.5	/experiments/AOT/AOT_stimuli/rescaled_final/0297_rv.mp4	0.0	455.11391711235046	1.0000660419464111
81	416.77300906181335	movie	1		243	79.0	2.5	/experiments/AOT/AOT_stimuli/rescaled_final/0297_rv.mp4	0.0	456.1139831542969	2.50010085105896
81	417.15609192848206	pulse	1	t		79.0	2.5	/experiments/AOT/AOT_stimuli/rescaled_final/0297_rv.mp4	0.0	456.4970660209656	
81	418.75650000572205	pulse	1	t		79.0	2.5	/experiments/AOT/AOT_stimuli/rescaled_final/0297_rv.mp4	0.0	458.09747409820557	
81	419.2731099128723	fix_post	2		12	79.0	2.5	/experiments/AOT/AOT_stimuli/rescaled_final/0297_rv.mp4	0.0	458.61408400535583	0.09983205795288086
82	419.3729419708252	fix_pre	0		119	80.0	2.5	/experiments/AOT/AOT_stimuli/rescaled_final/0950_fw.mp4	0.0	458.7139160633087	0.9917140007019043
82	420.3564889431	pulse	0	t		80.0	2.5	/experiments/AOT/AOT_stimuli/rescaled_final/0950_fw.mp4	0.0	459.6974630355835	
82	420.3646559715271	movie	1		244	80.0	2.5	/experiments/AOT/AOT_stimuli/rescaled_final/0950_fw.mp4	0.0	459.7056300640106	2.508310079574585
82	421.956081867218	pulse	1	t		80.0	2.5	/experiments/AOT/AOT_stimuli/rescaled_final/0950_fw.mp4	0.0	461.29705595970154	
82	422.8729660511017	fix_post	2		12	80.0	2.5	/experiments/AOT/AOT_stimuli/rescaled_final/0950_fw.mp4	0.0	462.2139401435852	0.09994697570800781
83	422.9729130268097	fix_pre	0		120	81.0	2.5	/experiments/AOT/AOT_stimuli/rescaled_final/1893_fw.mp4	0.0	462.3138871192932	1.0000498294830322
83	423.5565049648285	pulse	0	t		81.0	2.5	/experiments/AOT/AOT_stimuli/rescaled_final/1893_fw.mp4	0.0	462.897479057312	
83	423.9729628562927	movie	1		244	81.0	2.5	/experiments/AOT/AOT_stimuli/rescaled_final/1893_fw.mp4	0.0	463.31393694877625	2.500012159347534
83	425.1565098762512	pulse	1	t		81.0	2.5	/experiments/AOT/AOT_stimuli/rescaled_final/1893_fw.mp4	0.0	464.49748396873474	
83	426.47297501564026	fix_post	2		12	81.0	2.5	/experiments/AOT/AOT_stimuli/rescaled_final/1893_fw.mp4	0.0	465.8139491081238	0.09996700286865234
84	426.5729420185089	fix_pre	0		120	82.0	2.5	blank	1.0	465.91391611099243	1.0000419616699219
84	426.7564778327942	pulse	0	t		82.0	2.5	blank	1.0	466.0974519252777	
84	427.57298398017883	movie	1		300	82.0	2.5	blank	1.0	466.91395807266235	2.500001907348633
84	428.35634684562683	pulse	1	t		82.0	2.5	blank	1.0	467.69732093811035	
84	429.9564719200134	pulse	1	t		82.0	2.5	blank	1.0	469.29744601249695	
84	430.07298588752747	fix_post	2		12	82.0	2.5	blank	1.0	469.413959980011	0.09999513626098633
85	430.17298102378845	fix_pre	0		120	83.0	2.5	/experiments/AOT/AOT_stimuli/rescaled_final/0895_rv.mp4	0.0	469.513955116272	0.9999539852142334
85	431.1729350090027	movie	1		245	83.0	2.5	/experiments/AOT/AOT_stimuli/rescaled_final/0895_rv.mp4	0.0	470.5139091014862	2.500121831893921
85	431.5561408996582	pulse	1	t		83.0	2.5	/experiments/AOT/AOT_stimuli/rescaled_final/0895_rv.mp4	0.0	470.8971149921417	
85	433.15592789649963	pulse	1	t		83.0	2.5	/experiments/AOT/AOT_stimuli/rescaled_final/0895_rv.mp4	0.0	472.49690198898315	
85	433.6730568408966	fix_post	2		12	83.0	2.5	/experiments/AOT/AOT_stimuli/rescaled_final/0895_rv.mp4	0.0	473.0140309333801	0.1000361442565918
87	433.7730929851532	stim	0		1716					473.1140670776367	14.29979395866394
87	434.7562358379364	pulse	0	t						474.0972099304199	
87	436.35647797584534	pulse	0	t						475.69745206832886	
87	437.95640683174133	pulse	0	t						477.29738092422485	
87	439.5565040111542	pulse	0	t						478.8974781036377	
87	441.1562969684601	pulse	0	t						480.4972710609436	
87	442.7562999725342	pulse	0	t						482.0972740650177	
87	444.35635590553284	pulse	0	t						483.69732999801636	
87	445.9562659263611	pulse	0	t						485.2972400188446	
87	447.5562160015106	pulse	0	t						486.89719009399414	
