trial_nr	onset	event_type	phase	response	nr_frames	movie_index	movie_duration	movie_file	blank	onset_abs	duration
0	0.1749129295349121	stim	0		23					127.5342628955841	0.19161510467529297
0	0.3513329029083252	response	0	space						127.71068286895752	
1	0.3665280342102051	stim	0		4384					127.7258780002594	36.549052000045776
1	36.905694007873535	pulse	0	t						164.26504397392273	
1	36.91558003425598	stim	1		1715					164.27493000030518	14.300225019454956
1	38.49747085571289	pulse	1	t						165.85682082176208	
1	40.097792863845825	pulse	1	t						167.45714282989502	
1	41.690402030944824	pulse	1	t						169.04975199699402	
1	43.290693044662476	pulse	1	t						170.65004301071167	
1	44.890872955322266	pulse	1	t						172.25022292137146	
1	46.491013050079346	pulse	1	t						173.85036301612854	
1	48.090502977371216	pulse	1	t						175.4498529434204	
1	49.69064283370972	pulse	1	t						177.0499927997589	
2	51.21580505371094	fix_pre	0		10	0.0	2.5	/experiments/knapen_AOT/AOT_stimuli/rescaled_final/2155_rv.mp4	0.0	178.57515501976013	0.08329296112060547
2	51.291000843048096	pulse	0	t		0.0	2.5	/experiments/knapen_AOT/AOT_stimuli/rescaled_final/2155_rv.mp4	0.0	178.6503508090973	
2	51.29909801483154	movie	1		244	0.0	2.5	/experiments/knapen_AOT/AOT_stimuli/rescaled_final/2155_rv.mp4	0.0	178.65844798088074	2.50871205329895
2	52.89250588417053	pulse	1	t		0.0	2.5	/experiments/knapen_AOT/AOT_stimuli/rescaled_final/2155_rv.mp4	0.0	180.25185585021973	
2	53.80781006813049	fix_post	2		12	0.0	2.5	/experiments/knapen_AOT/AOT_stimuli/rescaled_final/2155_rv.mp4	0.0	181.1671600341797	0.10003089904785156
3	53.907840967178345	fix_pre	0		120	1.0	2.5	/experiments/knapen_AOT/AOT_stimuli/rescaled_final/0365_rv.mp4	0.0	181.26719093322754	1.0001680850982666
3	54.49146103858948	pulse	0	t		1.0	2.5	/experiments/knapen_AOT/AOT_stimuli/rescaled_final/0365_rv.mp4	0.0	181.85081100463867	
3	54.90800905227661	movie	1		245	1.0	2.5	/experiments/knapen_AOT/AOT_stimuli/rescaled_final/0365_rv.mp4	0.0	182.2673590183258	2.500427007675171
3	56.09178900718689	pulse	1	t		1.0	2.5	/experiments/knapen_AOT/AOT_stimuli/rescaled_final/0365_rv.mp4	0.0	183.45113897323608	
3	57.40843605995178	fix_post	2		12	1.0	2.5	/experiments/knapen_AOT/AOT_stimuli/rescaled_final/0365_rv.mp4	0.0	184.76778602600098	0.09990096092224121
4	57.50833702087402	fix_pre	0		120	2.0	2.5	/experiments/knapen_AOT/AOT_stimuli/rescaled_final/0559_fw.mp4	0.0	184.86768698692322	1.000201940536499
4	57.691985845565796	pulse	0	t		2.0	2.5	/experiments/knapen_AOT/AOT_stimuli/rescaled_final/0559_fw.mp4	0.0	185.051335811615	
4	58.50853896141052	movie	1		243	2.0	2.5	/experiments/knapen_AOT/AOT_stimuli/rescaled_final/0559_fw.mp4	0.0	185.86788892745972	2.500319004058838
4	59.292136907577515	pulse	1	t		2.0	2.5	/experiments/knapen_AOT/AOT_stimuli/rescaled_final/0559_fw.mp4	0.0	186.6514868736267	
4	60.89252591133118	pulse	1	t		2.0	2.5	/experiments/knapen_AOT/AOT_stimuli/rescaled_final/0559_fw.mp4	0.0	188.25187587738037	
4	61.00885796546936	fix_post	2		12	2.0	2.5	/experiments/knapen_AOT/AOT_stimuli/rescaled_final/0559_fw.mp4	0.0	188.36820793151855	0.10006904602050781
5	61.10892701148987	fix_pre	0		120	3.0	2.5	/experiments/knapen_AOT/AOT_stimuli/rescaled_final/1011_fw.mp4	0.0	188.46827697753906	1.00010085105896
5	62.10902786254883	movie	1		243	3.0	2.5	/experiments/knapen_AOT/AOT_stimuli/rescaled_final/1011_fw.mp4	0.0	189.46837782859802	2.492077112197876
5	62.493226051330566	pulse	1	t		3.0	2.5	/experiments/knapen_AOT/AOT_stimuli/rescaled_final/1011_fw.mp4	0.0	189.85257601737976	
5	64.0929958820343	pulse	1	t		3.0	2.5	/experiments/knapen_AOT/AOT_stimuli/rescaled_final/1011_fw.mp4	0.0	191.4523458480835	
5	64.6011049747467	fix_post	2		12	3.0	2.5	/experiments/knapen_AOT/AOT_stimuli/rescaled_final/1011_fw.mp4	0.0	191.9604549407959	0.10000395774841309
6	64.70110893249512	fix_pre	0		120	4.0	2.5	/experiments/knapen_AOT/AOT_stimuli/rescaled_final/0149_rv.mp4	0.0	192.0604588985443	1.0001471042633057
6	65.69310092926025	pulse	0	t		4.0	2.5	/experiments/knapen_AOT/AOT_stimuli/rescaled_final/0149_rv.mp4	0.0	193.05245089530945	
6	65.70125603675842	movie	1		245	4.0	2.5	/experiments/knapen_AOT/AOT_stimuli/rescaled_final/0149_rv.mp4	0.0	193.06060600280762	2.508678913116455
6	67.29398083686829	pulse	1	t		4.0	2.5	/experiments/knapen_AOT/AOT_stimuli/rescaled_final/0149_rv.mp4	0.0	194.65333080291748	
6	68.20993494987488	fix_post	2		12	4.0	2.5	/experiments/knapen_AOT/AOT_stimuli/rescaled_final/0149_rv.mp4	0.0	195.56928491592407	0.10011410713195801
7	68.31004905700684	fix_pre	0		120	5.0	2.5	/experiments/knapen_AOT/AOT_stimuli/rescaled_final/0361_rv.mp4	0.0	195.66939902305603	1.000074863433838
7	68.89363694190979	pulse	0	t		5.0	2.5	/experiments/knapen_AOT/AOT_stimuli/rescaled_final/0361_rv.mp4	0.0	196.25298690795898	
7	69.31012392044067	movie	1		244	5.0	2.5	/experiments/knapen_AOT/AOT_stimuli/rescaled_final/0361_rv.mp4	0.0	196.66947388648987	2.5003650188446045
7	70.49398589134216	pulse	1	t		5.0	2.5	/experiments/knapen_AOT/AOT_stimuli/rescaled_final/0361_rv.mp4	0.0	197.85333585739136	
7	71.81048893928528	fix_post	2		12	5.0	2.5	/experiments/knapen_AOT/AOT_stimuli/rescaled_final/0361_rv.mp4	0.0	199.16983890533447	0.10001707077026367
8	71.91050601005554	fix_pre	0		120	6.0	2.5	blank	1.0	199.26985597610474	1.0001518726348877
8	72.09414005279541	pulse	0	t		6.0	2.5	blank	1.0	199.4534900188446	
8	72.91065788269043	movie	1		300	6.0	2.5	blank	1.0	200.27000784873962	2.5004160404205322
8	73.69435596466064	pulse	1	t		6.0	2.5	blank	1.0	201.05370593070984	
8	75.2946150302887	pulse	1	t		6.0	2.5	blank	1.0	202.6539649963379	
8	75.41107392311096	fix_post	2		12	6.0	2.5	blank	1.0	202.77042388916016	0.09998106956481934
9	75.51105499267578	fix_pre	0		120	7.0	2.5	/experiments/knapen_AOT/AOT_stimuli/rescaled_final/0640_fw.mp4	0.0	202.87040495872498	1.0001988410949707
9	76.51125383377075	movie	1		242	7.0	2.5	/experiments/knapen_AOT/AOT_stimuli/rescaled_final/0640_fw.mp4	0.0	203.87060379981995	2.4923551082611084
9	76.8955340385437	pulse	1	t		7.0	2.5	/experiments/knapen_AOT/AOT_stimuli/rescaled_final/0640_fw.mp4	0.0	204.2548840045929	
9	78.49503302574158	pulse	1	t		7.0	2.5	/experiments/knapen_AOT/AOT_stimuli/rescaled_final/0640_fw.mp4	0.0	205.85438299179077	
9	79.00360894203186	fix_post	2		10	7.0	2.5	/experiments/knapen_AOT/AOT_stimuli/rescaled_final/0640_fw.mp4	0.0	206.36295890808105	0.09964609146118164
10	79.10325503349304	fix_pre	0		120	8.0	2.5	/experiments/knapen_AOT/AOT_stimuli/rescaled_final/1882_rv.mp4	0.0	206.46260499954224	1.000173807144165
10	80.09530806541443	pulse	0	t		8.0	2.5	/experiments/knapen_AOT/AOT_stimuli/rescaled_final/1882_rv.mp4	0.0	207.45465803146362	
10	80.1034288406372	movie	1		244	8.0	2.5	/experiments/knapen_AOT/AOT_stimuli/rescaled_final/1882_rv.mp4	0.0	207.4627788066864	2.5087389945983887
10	81.69605588912964	pulse	1	t		8.0	2.5	/experiments/knapen_AOT/AOT_stimuli/rescaled_final/1882_rv.mp4	0.0	209.05540585517883	
10	82.6121678352356	fix_post	2		12	8.0	2.5	/experiments/knapen_AOT/AOT_stimuli/rescaled_final/1882_rv.mp4	0.0	209.9715178012848	0.0999760627746582
11	82.71214389801025	fix_pre	0		120	9.0	2.5	/experiments/knapen_AOT/AOT_stimuli/rescaled_final/1330_rv.mp4	0.0	210.07149386405945	1.000162124633789
11	83.29572892189026	pulse	0	t		9.0	2.5	/experiments/knapen_AOT/AOT_stimuli/rescaled_final/1330_rv.mp4	0.0	210.65507888793945	
11	83.71230602264404	movie	1		243	9.0	2.5	/experiments/knapen_AOT/AOT_stimuli/rescaled_final/1330_rv.mp4	0.0	211.07165598869324	2.5002899169921875
11	84.89610290527344	pulse	1	t		9.0	2.5	/experiments/knapen_AOT/AOT_stimuli/rescaled_final/1330_rv.mp4	0.0	212.25545287132263	
11	86.21259593963623	fix_post	2		12	9.0	2.5	/experiments/knapen_AOT/AOT_stimuli/rescaled_final/1330_rv.mp4	0.0	213.57194590568542	0.10006308555603027
12	86.31265902519226	fix_pre	0		120	10.0	2.5	/experiments/knapen_AOT/AOT_stimuli/rescaled_final/2144_rv.mp4	0.0	213.67200899124146	1.00016188621521
12	86.49630403518677	pulse	0	t		10.0	2.5	/experiments/knapen_AOT/AOT_stimuli/rescaled_final/2144_rv.mp4	0.0	213.85565400123596	
12	87.31282091140747	movie	1		244	10.0	2.5	/experiments/knapen_AOT/AOT_stimuli/rescaled_final/2144_rv.mp4	0.0	214.67217087745667	2.5003440380096436
12	88.0966169834137	pulse	1	t		10.0	2.5	/experiments/knapen_AOT/AOT_stimuli/rescaled_final/2144_rv.mp4	0.0	215.4559669494629	
12	89.69688987731934	pulse	1	t		10.0	2.5	/experiments/knapen_AOT/AOT_stimuli/rescaled_final/2144_rv.mp4	0.0	217.05623984336853	
12	89.81316494941711	fix_post	2		12	10.0	2.5	/experiments/knapen_AOT/AOT_stimuli/rescaled_final/2144_rv.mp4	0.0	217.1725149154663	0.10004997253417969
13	89.9132149219513	fix_pre	0		120	11.0	2.5	/experiments/knapen_AOT/AOT_stimuli/rescaled_final/1535_rv.mp4	0.0	217.2725648880005	1.0001220703125
13	90.9133369922638	movie	1		242	11.0	2.5	/experiments/knapen_AOT/AOT_stimuli/rescaled_final/1535_rv.mp4	0.0	218.272686958313	2.492105007171631
13	91.29719495773315	pulse	1	t		11.0	2.5	/experiments/knapen_AOT/AOT_stimuli/rescaled_final/1535_rv.mp4	0.0	218.65654492378235	
13	92.89716792106628	pulse	1	t		11.0	2.5	/experiments/knapen_AOT/AOT_stimuli/rescaled_final/1535_rv.mp4	0.0	220.25651788711548	
13	93.40544199943542	fix_post	2		12	11.0	2.5	/experiments/knapen_AOT/AOT_stimuli/rescaled_final/1535_rv.mp4	0.0	220.76479196548462	0.09998893737792969
14	93.50543093681335	fix_pre	0		120	12.0	2.5	blank	1.0	220.86478090286255	1.0001130104064941
14	94.49752402305603	pulse	0	t		12.0	2.5	blank	1.0	221.85687398910522	
14	94.50554394721985	movie	1		301	12.0	2.5	blank	1.0	221.86489391326904	2.508707046508789
14	96.09030103683472	pulse	1	t		12.0	2.5	blank	1.0	223.4496510028839	
14	97.01425099372864	fix_post	2		12	12.0	2.5	blank	1.0	224.37360095977783	0.10011005401611328
15	97.11436104774475	fix_pre	0		120	13.0	2.5	/experiments/knapen_AOT/AOT_stimuli/rescaled_final/2155_fw.mp4	0.0	224.47371101379395	1.0001089572906494
15	97.69042491912842	pulse	0	t		13.0	2.5	/experiments/knapen_AOT/AOT_stimuli/rescaled_final/2155_fw.mp4	0.0	225.0497748851776	
15	98.1144700050354	movie	1		244	13.0	2.5	/experiments/knapen_AOT/AOT_stimuli/rescaled_final/2155_fw.mp4	0.0	225.4738199710846	2.5003159046173096
15	99.29030704498291	pulse	1	t		13.0	2.5	/experiments/knapen_AOT/AOT_stimuli/rescaled_final/2155_fw.mp4	0.0	226.6496570110321	
15	100.61478590965271	fix_post	2		12	13.0	2.5	/experiments/knapen_AOT/AOT_stimuli/rescaled_final/2155_fw.mp4	0.0	227.9741358757019	0.10003304481506348
16	100.71481895446777	fix_pre	0		120	14.0	2.5	/experiments/knapen_AOT/AOT_stimuli/rescaled_final/1936_fw.mp4	0.0	228.07416892051697	1.0001389980316162
16	100.89016699790955	pulse	0	t		14.0	2.5	/experiments/knapen_AOT/AOT_stimuli/rescaled_final/1936_fw.mp4	0.0	228.24951696395874	
16	101.71495795249939	movie	1		245	14.0	2.5	/experiments/knapen_AOT/AOT_stimuli/rescaled_final/1936_fw.mp4	0.0	229.07430791854858	2.500417947769165
16	102.49029302597046	pulse	1	t		14.0	2.5	/experiments/knapen_AOT/AOT_stimuli/rescaled_final/1936_fw.mp4	0.0	229.84964299201965	
16	104.0904769897461	pulse	1	t		14.0	2.5	/experiments/knapen_AOT/AOT_stimuli/rescaled_final/1936_fw.mp4	0.0	231.4498269557953	
16	104.21537590026855	fix_post	2		12	14.0	2.5	/experiments/knapen_AOT/AOT_stimuli/rescaled_final/1936_fw.mp4	0.0	231.57472586631775	0.09996700286865234
17	104.3153429031372	fix_pre	0		120	15.0	2.5	/experiments/knapen_AOT/AOT_stimuli/rescaled_final/1598_fw.mp4	0.0	231.6746928691864	1.0003321170806885
17	105.3156750202179	movie	1		242	15.0	2.5	/experiments/knapen_AOT/AOT_stimuli/rescaled_final/1598_fw.mp4	0.0	232.6750249862671	2.491925001144409
17	105.69088292121887	pulse	1	t		15.0	2.5	/experiments/knapen_AOT/AOT_stimuli/rescaled_final/1598_fw.mp4	0.0	233.05023288726807	
17	107.29104590415955	pulse	1	t		15.0	2.5	/experiments/knapen_AOT/AOT_stimuli/rescaled_final/1598_fw.mp4	0.0	234.65039587020874	
17	107.8076000213623	fix_post	2		12	15.0	2.5	/experiments/knapen_AOT/AOT_stimuli/rescaled_final/1598_fw.mp4	0.0	235.1669499874115	0.09996294975280762
18	107.90756297111511	fix_pre	0		119	16.0	2.5	/experiments/knapen_AOT/AOT_stimuli/rescaled_final/1503_fw.mp4	0.0	235.2669129371643	0.9918169975280762
18	108.89120888710022	pulse	0	t		16.0	2.5	/experiments/knapen_AOT/AOT_stimuli/rescaled_final/1503_fw.mp4	0.0	236.2505588531494	
18	108.89937996864319	movie	1		245	16.0	2.5	/experiments/knapen_AOT/AOT_stimuli/rescaled_final/1503_fw.mp4	0.0	236.25872993469238	2.5086560249328613
18	110.49196600914001	pulse	1	t		16.0	2.5	/experiments/knapen_AOT/AOT_stimuli/rescaled_final/1503_fw.mp4	0.0	237.8513159751892	
18	111.40803599357605	fix_post	2		12	16.0	2.5	/experiments/knapen_AOT/AOT_stimuli/rescaled_final/1503_fw.mp4	0.0	238.76738595962524	0.0999908447265625
19	111.50802683830261	fix_pre	0		120	17.0	2.5	/experiments/knapen_AOT/AOT_stimuli/rescaled_final/1529_rv.mp4	0.0	238.8673768043518	1.0002341270446777
19	112.09169387817383	pulse	0	t		17.0	2.5	/experiments/knapen_AOT/AOT_stimuli/rescaled_final/1529_rv.mp4	0.0	239.45104384422302	
19	112.50826096534729	movie	1		243	17.0	2.5	/experiments/knapen_AOT/AOT_stimuli/rescaled_final/1529_rv.mp4	0.0	239.86761093139648	2.5003409385681152
19	113.6920838356018	pulse	1	t		17.0	2.5	/experiments/knapen_AOT/AOT_stimuli/rescaled_final/1529_rv.mp4	0.0	241.051433801651	
19	115.0086019039154	fix_post	2		12	17.0	2.5	/experiments/knapen_AOT/AOT_stimuli/rescaled_final/1529_rv.mp4	0.0	242.3679518699646	0.1000211238861084
20	115.10862302780151	fix_pre	0		120	18.0	2.5	/experiments/knapen_AOT/AOT_stimuli/rescaled_final/0322_rv.mp4	0.0	242.4679729938507	1.0001568794250488
20	115.29211688041687	pulse	0	t		18.0	2.5	/experiments/knapen_AOT/AOT_stimuli/rescaled_final/0322_rv.mp4	0.0	242.65146684646606	
20	116.10877990722656	movie	1		244	18.0	2.5	/experiments/knapen_AOT/AOT_stimuli/rescaled_final/0322_rv.mp4	0.0	243.46812987327576	2.5003349781036377
20	116.8924970626831	pulse	1	t		18.0	2.5	/experiments/knapen_AOT/AOT_stimuli/rescaled_final/0322_rv.mp4	0.0	244.2518470287323	
20	118.49262285232544	pulse	1	t		18.0	2.5	/experiments/knapen_AOT/AOT_stimuli/rescaled_final/0322_rv.mp4	0.0	245.85197281837463	
20	118.6091148853302	fix_post	2		12	18.0	2.5	/experiments/knapen_AOT/AOT_stimuli/rescaled_final/0322_rv.mp4	0.0	245.9684648513794	0.10003209114074707
21	118.70914697647095	fix_pre	0		119	19.0	2.5	blank	1.0	246.06849694252014	0.9918029308319092
21	119.70094990730286	movie	1		300	19.0	2.5	blank	1.0	247.06029987335205	2.5004019737243652
21	120.09289002418518	pulse	1	t		19.0	2.5	blank	1.0	247.45223999023438	
21	121.69305396080017	pulse	1	t		19.0	2.5	blank	1.0	249.05240392684937	
21	122.20135188102722	fix_post	2		12	19.0	2.5	blank	1.0	249.56070184707642	0.1000361442565918
22	122.30138802528381	fix_pre	0		120	20.0	2.5	/experiments/knapen_AOT/AOT_stimuli/rescaled_final/1292_fw.mp4	0.0	249.660737991333	1.0001578330993652
22	123.29333686828613	pulse	0	t		20.0	2.5	/experiments/knapen_AOT/AOT_stimuli/rescaled_final/1292_fw.mp4	0.0	250.65268683433533	
22	123.30154585838318	movie	1		245	20.0	2.5	/experiments/knapen_AOT/AOT_stimuli/rescaled_final/1292_fw.mp4	0.0	250.66089582443237	2.5086710453033447
22	124.8955249786377	pulse	1	t		20.0	2.5	/experiments/knapen_AOT/AOT_stimuli/rescaled_final/1292_fw.mp4	0.0	252.2548749446869	
22	125.81021690368652	fix_post	2		12	20.0	2.5	/experiments/knapen_AOT/AOT_stimuli/rescaled_final/1292_fw.mp4	0.0	253.16956686973572	0.1000361442565918
23	125.91025304794312	fix_pre	0		120	21.0	2.5	/experiments/knapen_AOT/AOT_stimuli/rescaled_final/2144_rv.mp4	0.0	253.2696030139923	1.0001277923583984
23	126.49400806427002	pulse	0	t		21.0	2.5	/experiments/knapen_AOT/AOT_stimuli/rescaled_final/2144_rv.mp4	0.0	253.8533580303192	
23	126.91038084030151	movie	1		244	21.0	2.5	/experiments/knapen_AOT/AOT_stimuli/rescaled_final/2144_rv.mp4	0.0	254.2697308063507	2.50040602684021
23	128.09419202804565	pulse	1	t		21.0	2.5	/experiments/knapen_AOT/AOT_stimuli/rescaled_final/2144_rv.mp4	0.0	255.45354199409485	
23	129.41078686714172	fix_post	2		12	21.0	2.5	/experiments/knapen_AOT/AOT_stimuli/rescaled_final/2144_rv.mp4	0.0	256.7701368331909	0.09999608993530273
24	129.51078295707703	fix_pre	0		120	22.0	2.5	/experiments/knapen_AOT/AOT_stimuli/rescaled_final/1562_rv.mp4	0.0	256.8701329231262	1.0001471042633057
24	129.69428396224976	pulse	0	t		22.0	2.5	/experiments/knapen_AOT/AOT_stimuli/rescaled_final/1562_rv.mp4	0.0	257.05363392829895	
24	130.51093006134033	movie	1		244	22.0	2.5	/experiments/knapen_AOT/AOT_stimuli/rescaled_final/1562_rv.mp4	0.0	257.8702800273895	2.500365972518921
24	131.29483103752136	pulse	1	t		22.0	2.5	/experiments/knapen_AOT/AOT_stimuli/rescaled_final/1562_rv.mp4	0.0	258.65418100357056	
24	132.89462995529175	pulse	1	t		22.0	2.5	/experiments/knapen_AOT/AOT_stimuli/rescaled_final/1562_rv.mp4	0.0	260.25397992134094	
24	133.01129603385925	fix_post	2		12	22.0	2.5	/experiments/knapen_AOT/AOT_stimuli/rescaled_final/1562_rv.mp4	0.0	260.37064599990845	0.10000395774841309
25	133.11129999160767	fix_pre	0		120	23.0	2.5	/experiments/knapen_AOT/AOT_stimuli/rescaled_final/0498_fw.mp4	0.0	260.47064995765686	1.0001559257507324
25	134.1114559173584	movie	1		243	23.0	2.5	/experiments/knapen_AOT/AOT_stimuli/rescaled_final/0498_fw.mp4	0.0	261.4708058834076	2.4920849800109863
25	134.49562096595764	pulse	1	t		23.0	2.5	/experiments/knapen_AOT/AOT_stimuli/rescaled_final/0498_fw.mp4	0.0	261.85497093200684	
25	136.0952980518341	pulse	1	t		23.0	2.5	/experiments/knapen_AOT/AOT_stimuli/rescaled_final/0498_fw.mp4	0.0	263.4546480178833	
25	136.60354089736938	fix_post	2		12	23.0	2.5	/experiments/knapen_AOT/AOT_stimuli/rescaled_final/0498_fw.mp4	0.0	263.9628908634186	0.09996199607849121
26	136.70350289344788	fix_pre	0		120	24.0	2.5	/experiments/knapen_AOT/AOT_stimuli/rescaled_final/1754_fw.mp4	0.0	264.06285285949707	1.0001730918884277
26	137.6955599784851	pulse	0	t		24.0	2.5	/experiments/knapen_AOT/AOT_stimuli/rescaled_final/1754_fw.mp4	0.0	265.0549099445343	
26	137.7036759853363	movie	1		246	24.0	2.5	/experiments/knapen_AOT/AOT_stimuli/rescaled_final/1754_fw.mp4	0.0	265.0630259513855	2.508697032928467
26	139.29626989364624	pulse	1	t		24.0	2.5	/experiments/knapen_AOT/AOT_stimuli/rescaled_final/1754_fw.mp4	0.0	266.65561985969543	
26	140.21237301826477	fix_post	2		12	24.0	2.5	/experiments/knapen_AOT/AOT_stimuli/rescaled_final/1754_fw.mp4	0.0	267.57172298431396	0.10007190704345703
27	140.31244492530823	fix_pre	0		120	25.0	2.5	/experiments/knapen_AOT/AOT_stimuli/rescaled_final/0224_rv.mp4	0.0	267.6717948913574	1.0001261234283447
27	140.8960418701172	pulse	0	t		25.0	2.5	/experiments/knapen_AOT/AOT_stimuli/rescaled_final/0224_rv.mp4	0.0	268.2553918361664	
27	141.31257104873657	movie	1		244	25.0	2.5	/experiments/knapen_AOT/AOT_stimuli/rescaled_final/0224_rv.mp4	0.0	268.67192101478577	2.5004608631134033
27	142.49195504188538	pulse	1	t		25.0	2.5	/experiments/knapen_AOT/AOT_stimuli/rescaled_final/0224_rv.mp4	0.0	269.85130500793457	
27	143.81303191184998	fix_post	2		12	25.0	2.5	/experiments/knapen_AOT/AOT_stimuli/rescaled_final/0224_rv.mp4	0.0	271.17238187789917	0.09987998008728027
28	143.91291189193726	fix_pre	0		120	26.0	2.5	blank	1.0	271.27226185798645	1.0001640319824219
28	144.09645891189575	pulse	0	t		26.0	2.5	blank	1.0	271.45580887794495	
28	144.91307592391968	movie	1		300	26.0	2.5	blank	1.0	272.2724258899689	2.500364065170288
28	145.69682383537292	pulse	1	t		26.0	2.5	blank	1.0	273.0561738014221	
28	147.2969720363617	pulse	1	t		26.0	2.5	blank	1.0	274.6563220024109	
28	147.41343998908997	fix_post	2		12	26.0	2.5	blank	1.0	274.77278995513916	0.10000896453857422
29	147.51344895362854	fix_pre	0		120	27.0	2.5	/experiments/knapen_AOT/AOT_stimuli/rescaled_final/1625_rv.mp4	0.0	274.87279891967773	1.0001559257507324
29	148.51360487937927	movie	1		243	27.0	2.5	/experiments/knapen_AOT/AOT_stimuli/rescaled_final/1625_rv.mp4	0.0	275.87295484542847	2.4920389652252197
29	148.89766001701355	pulse	1	t		27.0	2.5	/experiments/knapen_AOT/AOT_stimuli/rescaled_final/1625_rv.mp4	0.0	276.25700998306274	
29	150.49007201194763	pulse	1	t		27.0	2.5	/experiments/knapen_AOT/AOT_stimuli/rescaled_final/1625_rv.mp4	0.0	277.8494219779968	
29	151.0056438446045	fix_post	2		12	27.0	2.5	/experiments/knapen_AOT/AOT_stimuli/rescaled_final/1625_rv.mp4	0.0	278.3649938106537	0.10000014305114746
30	151.10564398765564	fix_pre	0		120	28.0	2.5	/experiments/knapen_AOT/AOT_stimuli/rescaled_final/1884_rv.mp4	0.0	278.46499395370483	1.0001740455627441
30	152.09023690223694	pulse	0	t		28.0	2.5	/experiments/knapen_AOT/AOT_stimuli/rescaled_final/1884_rv.mp4	0.0	279.44958686828613	
30	152.10581803321838	movie	1		245	28.0	2.5	/experiments/knapen_AOT/AOT_stimuli/rescaled_final/1884_rv.mp4	0.0	279.4651679992676	2.5086958408355713
30	153.69851803779602	pulse	1	t		28.0	2.5	/experiments/knapen_AOT/AOT_stimuli/rescaled_final/1884_rv.mp4	0.0	281.0578680038452	
30	154.61451387405396	fix_post	2		12	28.0	2.5	/experiments/knapen_AOT/AOT_stimuli/rescaled_final/1884_rv.mp4	0.0	281.97386384010315	0.100006103515625
31	154.71451997756958	fix_pre	0		120	29.0	2.5	/experiments/knapen_AOT/AOT_stimuli/rescaled_final/1112_fw.mp4	0.0	282.0738699436188	1.0001659393310547
31	155.2899739742279	pulse	0	t		29.0	2.5	/experiments/knapen_AOT/AOT_stimuli/rescaled_final/1112_fw.mp4	0.0	282.6493239402771	
31	155.71468591690063	movie	1		243	29.0	2.5	/experiments/knapen_AOT/AOT_stimuli/rescaled_final/1112_fw.mp4	0.0	283.07403588294983	2.500364065170288
31	156.8915250301361	pulse	1	t		29.0	2.5	/experiments/knapen_AOT/AOT_stimuli/rescaled_final/1112_fw.mp4	0.0	284.2508749961853	
31	158.21504998207092	fix_post	2		12	29.0	2.5	/experiments/knapen_AOT/AOT_stimuli/rescaled_final/1112_fw.mp4	0.0	285.5743999481201	0.10006189346313477
32	158.31511187553406	fix_pre	0		120	30.0	2.5	/experiments/knapen_AOT/AOT_stimuli/rescaled_final/1250_fw.mp4	0.0	285.67446184158325	1.0001239776611328
32	158.49030590057373	pulse	0	t		30.0	2.5	/experiments/knapen_AOT/AOT_stimuli/rescaled_final/1250_fw.mp4	0.0	285.8496558666229	
32	159.3152358531952	movie	1		245	30.0	2.5	/experiments/knapen_AOT/AOT_stimuli/rescaled_final/1250_fw.mp4	0.0	286.6745858192444	2.5003130435943604
32	160.09061098098755	pulse	1	t		30.0	2.5	/experiments/knapen_AOT/AOT_stimuli/rescaled_final/1250_fw.mp4	0.0	287.44996094703674	
32	161.6908679008484	pulse	1	t		30.0	2.5	/experiments/knapen_AOT/AOT_stimuli/rescaled_final/1250_fw.mp4	0.0	289.0502178668976	
32	161.81554889678955	fix_post	2		11	30.0	2.5	/experiments/knapen_AOT/AOT_stimuli/rescaled_final/1250_fw.mp4	0.0	289.17489886283875	0.09170794486999512
33	161.90725684165955	fix_pre	0		120	31.0	2.5	/experiments/knapen_AOT/AOT_stimuli/rescaled_final/1767_rv.mp4	0.0	289.26660680770874	1.0001561641693115
33	162.90741300582886	movie	1		244	31.0	2.5	/experiments/knapen_AOT/AOT_stimuli/rescaled_final/1767_rv.mp4	0.0	290.26676297187805	2.500342845916748
33	163.29186296463013	pulse	1	t		31.0	2.5	/experiments/knapen_AOT/AOT_stimuli/rescaled_final/1767_rv.mp4	0.0	290.6512129306793	
33	164.89120197296143	pulse	1	t		31.0	2.5	/experiments/knapen_AOT/AOT_stimuli/rescaled_final/1767_rv.mp4	0.0	292.2505519390106	
33	165.4077558517456	fix_post	2		12	31.0	2.5	/experiments/knapen_AOT/AOT_stimuli/rescaled_final/1767_rv.mp4	0.0	292.7671058177948	0.10006117820739746
34	165.507817029953	fix_pre	0		119	32.0	2.5	/experiments/knapen_AOT/AOT_stimuli/rescaled_final/0327_rv.mp4	0.0	292.8671669960022	0.991844892501831
34	166.49158787727356	pulse	0	t		32.0	2.5	/experiments/knapen_AOT/AOT_stimuli/rescaled_final/0327_rv.mp4	0.0	293.85093784332275	
34	166.49966192245483	movie	1		245	32.0	2.5	/experiments/knapen_AOT/AOT_stimuli/rescaled_final/0327_rv.mp4	0.0	293.859011888504	2.5087029933929443
34	168.09325194358826	pulse	1	t		32.0	2.5	/experiments/knapen_AOT/AOT_stimuli/rescaled_final/0327_rv.mp4	0.0	295.45260190963745	
34	169.00836491584778	fix_post	2		12	32.0	2.5	/experiments/knapen_AOT/AOT_stimuli/rescaled_final/0327_rv.mp4	0.0	296.367714881897	0.10000395774841309
35	169.1083688735962	fix_pre	0		120	33.0	2.5	blank	1.0	296.4677188396454	1.0001161098480225
35	169.69201588630676	pulse	0	t		33.0	2.5	blank	1.0	297.05136585235596	
35	170.1084849834442	movie	1		300	33.0	2.5	blank	1.0	297.4678349494934	2.500361919403076
35	171.29215097427368	pulse	1	t		33.0	2.5	blank	1.0	298.6515009403229	
35	172.6088469028473	fix_post	2		12	33.0	2.5	blank	1.0	299.9681968688965	0.10001897811889648
36	172.7088658809662	fix_pre	0		120	34.0	2.5	/experiments/knapen_AOT/AOT_stimuli/rescaled_final/0283_fw.mp4	0.0	300.0682158470154	1.0001599788665771
36	172.89254784584045	pulse	0	t		34.0	2.5	/experiments/knapen_AOT/AOT_stimuli/rescaled_final/0283_fw.mp4	0.0	300.25189781188965	
36	173.70902585983276	movie	1		244	34.0	2.5	/experiments/knapen_AOT/AOT_stimuli/rescaled_final/0283_fw.mp4	0.0	301.06837582588196	2.5003790855407715
36	174.49274706840515	pulse	1	t		34.0	2.5	/experiments/knapen_AOT/AOT_stimuli/rescaled_final/0283_fw.mp4	0.0	301.85209703445435	
36	176.09300589561462	pulse	1	t		34.0	2.5	/experiments/knapen_AOT/AOT_stimuli/rescaled_final/0283_fw.mp4	0.0	303.4523558616638	
36	176.20940494537354	fix_post	2		12	34.0	2.5	/experiments/knapen_AOT/AOT_stimuli/rescaled_final/0283_fw.mp4	0.0	303.56875491142273	0.10001206398010254
37	176.30941700935364	fix_pre	0		120	35.0	2.5	/experiments/knapen_AOT/AOT_stimuli/rescaled_final/1625_fw.mp4	0.0	303.66876697540283	1.0001919269561768
37	177.30960893630981	movie	1		244	35.0	2.5	/experiments/knapen_AOT/AOT_stimuli/rescaled_final/1625_fw.mp4	0.0	304.668958902359	2.49196195602417
37	177.69440698623657	pulse	1	t		35.0	2.5	/experiments/knapen_AOT/AOT_stimuli/rescaled_final/1625_fw.mp4	0.0	305.05375695228577	
37	179.2935049533844	pulse	1	t		35.0	2.5	/experiments/knapen_AOT/AOT_stimuli/rescaled_final/1625_fw.mp4	0.0	306.6528549194336	
37	179.80157089233398	fix_post	2		12	35.0	2.5	/experiments/knapen_AOT/AOT_stimuli/rescaled_final/1625_fw.mp4	0.0	307.1609208583832	0.10004305839538574
38	179.90161395072937	fix_pre	0		120	36.0	2.5	/experiments/knapen_AOT/AOT_stimuli/rescaled_final/1767_fw.mp4	0.0	307.26096391677856	1.000166893005371
38	180.8937430381775	pulse	0	t		36.0	2.5	/experiments/knapen_AOT/AOT_stimuli/rescaled_final/1767_fw.mp4	0.0	308.2530930042267	
38	180.90178084373474	movie	1		245	36.0	2.5	/experiments/knapen_AOT/AOT_stimuli/rescaled_final/1767_fw.mp4	0.0	308.26113080978394	2.508700132369995
38	182.49435806274414	pulse	1	t		36.0	2.5	/experiments/knapen_AOT/AOT_stimuli/rescaled_final/1767_fw.mp4	0.0	309.85370802879333	
38	183.41048097610474	fix_post	2		12	36.0	2.5	/experiments/knapen_AOT/AOT_stimuli/rescaled_final/1767_fw.mp4	0.0	310.76983094215393	0.10002493858337402
39	183.5105059146881	fix_pre	0		120	37.0	2.5	/experiments/knapen_AOT/AOT_stimuli/rescaled_final/1131_fw.mp4	0.0	310.8698558807373	1.000119924545288
39	184.09406900405884	pulse	0	t		37.0	2.5	/experiments/knapen_AOT/AOT_stimuli/rescaled_final/1131_fw.mp4	0.0	311.45341897010803	
39	184.5106258392334	movie	1		244	37.0	2.5	/experiments/knapen_AOT/AOT_stimuli/rescaled_final/1131_fw.mp4	0.0	311.8699758052826	2.500340223312378
39	185.6945390701294	pulse	1	t		37.0	2.5	/experiments/knapen_AOT/AOT_stimuli/rescaled_final/1131_fw.mp4	0.0	313.0538890361786	
39	187.01096606254578	fix_post	2		12	37.0	2.5	/experiments/knapen_AOT/AOT_stimuli/rescaled_final/1131_fw.mp4	0.0	314.37031602859497	0.10006284713745117
40	187.11102890968323	fix_pre	0		120	38.0	2.5	/experiments/knapen_AOT/AOT_stimuli/rescaled_final/1119_rv.mp4	0.0	314.4703788757324	1.0001721382141113
40	187.29457306861877	pulse	0	t		38.0	2.5	/experiments/knapen_AOT/AOT_stimuli/rescaled_final/1119_rv.mp4	0.0	314.65392303466797	
40	188.11120104789734	movie	1		244	38.0	2.5	/experiments/knapen_AOT/AOT_stimuli/rescaled_final/1119_rv.mp4	0.0	315.47055101394653	2.500325918197632
40	188.89487504959106	pulse	1	t		38.0	2.5	/experiments/knapen_AOT/AOT_stimuli/rescaled_final/1119_rv.mp4	0.0	316.25422501564026	
40	190.4964258670807	pulse	1	t		38.0	2.5	/experiments/knapen_AOT/AOT_stimuli/rescaled_final/1119_rv.mp4	0.0	317.8557758331299	
40	190.61152696609497	fix_post	2		12	38.0	2.5	/experiments/knapen_AOT/AOT_stimuli/rescaled_final/1119_rv.mp4	0.0	317.97087693214417	0.10005903244018555
41	190.71158599853516	fix_pre	0		120	39.0	2.5	/experiments/knapen_AOT/AOT_stimuli/rescaled_final/1674_fw.mp4	0.0	318.07093596458435	1.0001840591430664
41	191.71177005767822	movie	1		243	39.0	2.5	/experiments/knapen_AOT/AOT_stimuli/rescaled_final/1674_fw.mp4	0.0	319.0711200237274	2.4919559955596924
41	192.0998718738556	pulse	1	t		39.0	2.5	/experiments/knapen_AOT/AOT_stimuli/rescaled_final/1674_fw.mp4	0.0	319.4592218399048	
41	193.69569993019104	pulse	1	t		39.0	2.5	/experiments/knapen_AOT/AOT_stimuli/rescaled_final/1674_fw.mp4	0.0	321.05504989624023	
41	194.20372605323792	fix_post	2		12	39.0	2.5	/experiments/knapen_AOT/AOT_stimuli/rescaled_final/1674_fw.mp4	0.0	321.5630760192871	0.1000359058380127
42	194.30376195907593	fix_pre	0		120	40.0	2.5	blank	1.0	321.6631119251251	1.0001459121704102
42	195.29590702056885	pulse	0	t		40.0	2.5	blank	1.0	322.65525698661804	
42	195.30390787124634	movie	1		301	40.0	2.5	blank	1.0	322.66325783729553	2.508726119995117
42	196.89603805541992	pulse	1	t		40.0	2.5	blank	1.0	324.2553880214691	
42	197.81263399124146	fix_post	2		12	40.0	2.5	blank	1.0	325.17198395729065	0.10006284713745117
43	197.9126968383789	fix_pre	0		118	41.0	2.5	/experiments/knapen_AOT/AOT_stimuli/rescaled_final/0624_rv.mp4	0.0	325.2720468044281	1.0000941753387451
43	198.49620485305786	pulse	0	t		41.0	2.5	/experiments/knapen_AOT/AOT_stimuli/rescaled_final/0624_rv.mp4	0.0	325.85555481910706	
43	198.91279101371765	movie	1		243	41.0	2.5	/experiments/knapen_AOT/AOT_stimuli/rescaled_final/0624_rv.mp4	0.0	326.27214097976685	2.5003979206085205
43	200.09666395187378	pulse	1	t		41.0	2.5	/experiments/knapen_AOT/AOT_stimuli/rescaled_final/0624_rv.mp4	0.0	327.456013917923	
43	201.41318893432617	fix_post	2		12	41.0	2.5	/experiments/knapen_AOT/AOT_stimuli/rescaled_final/0624_rv.mp4	0.0	328.77253890037537	0.09998798370361328
44	201.51317691802979	fix_pre	0		120	42.0	2.5	/experiments/knapen_AOT/AOT_stimuli/rescaled_final/1837_fw.mp4	0.0	328.872526884079	1.0001580715179443
44	201.69685697555542	pulse	0	t		42.0	2.5	/experiments/knapen_AOT/AOT_stimuli/rescaled_final/1837_fw.mp4	0.0	329.0562069416046	
44	202.51333498954773	movie	1		243	42.0	2.5	/experiments/knapen_AOT/AOT_stimuli/rescaled_final/1837_fw.mp4	0.0	329.8726849555969	2.500333070755005
44	203.29699301719666	pulse	1	t		42.0	2.5	/experiments/knapen_AOT/AOT_stimuli/rescaled_final/1837_fw.mp4	0.0	330.65634298324585	
44	204.89724206924438	pulse	1	t		42.0	2.5	/experiments/knapen_AOT/AOT_stimuli/rescaled_final/1837_fw.mp4	0.0	332.2565920352936	
44	205.01366806030273	fix_post	2		12	42.0	2.5	/experiments/knapen_AOT/AOT_stimuli/rescaled_final/1837_fw.mp4	0.0	332.37301802635193	0.10001993179321289
45	205.11368799209595	fix_pre	0		120	43.0	2.5	/experiments/knapen_AOT/AOT_stimuli/rescaled_final/0742_fw.mp4	0.0	332.47303795814514	1.0001418590545654
45	206.1138298511505	movie	1		242	43.0	2.5	/experiments/knapen_AOT/AOT_stimuli/rescaled_final/0742_fw.mp4	0.0	333.4731798171997	2.4920670986175537
45	206.49790906906128	pulse	1	t		43.0	2.5	/experiments/knapen_AOT/AOT_stimuli/rescaled_final/0742_fw.mp4	0.0	333.8572590351105	
45	208.0902988910675	pulse	1	t		43.0	2.5	/experiments/knapen_AOT/AOT_stimuli/rescaled_final/0742_fw.mp4	0.0	335.4496488571167	
45	208.60589694976807	fix_post	2		12	43.0	2.5	/experiments/knapen_AOT/AOT_stimuli/rescaled_final/0742_fw.mp4	0.0	335.96524691581726	0.10001611709594727
46	208.705913066864	fix_pre	0		120	44.0	2.5	/experiments/knapen_AOT/AOT_stimuli/rescaled_final/1354_fw.mp4	0.0	336.0652630329132	1.0001449584960938
46	209.69063305854797	pulse	0	t		44.0	2.5	/experiments/knapen_AOT/AOT_stimuli/rescaled_final/1354_fw.mp4	0.0	337.04998302459717	
46	209.7060580253601	movie	1		245	44.0	2.5	/experiments/knapen_AOT/AOT_stimuli/rescaled_final/1354_fw.mp4	0.0	337.0654079914093	2.5086920261383057
46	211.2994999885559	pulse	1	t		44.0	2.5	/experiments/knapen_AOT/AOT_stimuli/rescaled_final/1354_fw.mp4	0.0	338.6588499546051	
46	212.2147500514984	fix_post	2		12	44.0	2.5	/experiments/knapen_AOT/AOT_stimuli/rescaled_final/1354_fw.mp4	0.0	339.5741000175476	0.10004997253417969
47	212.3148000240326	fix_pre	0		120	45.0	2.5	/experiments/knapen_AOT/AOT_stimuli/rescaled_final/0603_fw.mp4	0.0	339.6741499900818	1.00016188621521
47	212.8909740447998	pulse	0	t		45.0	2.5	/experiments/knapen_AOT/AOT_stimuli/rescaled_final/0603_fw.mp4	0.0	340.250324010849	
47	213.3149619102478	movie	1		243	45.0	2.5	/experiments/knapen_AOT/AOT_stimuli/rescaled_final/0603_fw.mp4	0.0	340.674311876297	2.500322103500366
47	214.490660905838	pulse	1	t		45.0	2.5	/experiments/knapen_AOT/AOT_stimuli/rescaled_final/0603_fw.mp4	0.0	341.8500108718872	
47	215.81528401374817	fix_post	2		12	45.0	2.5	/experiments/knapen_AOT/AOT_stimuli/rescaled_final/0603_fw.mp4	0.0	343.17463397979736	0.10004496574401855
48	215.9153289794922	fix_pre	0		120	46.0	2.5	/experiments/knapen_AOT/AOT_stimuli/rescaled_final/1072_rv.mp4	0.0	343.2746789455414	1.000143051147461
48	216.09060096740723	pulse	0	t		46.0	2.5	/experiments/knapen_AOT/AOT_stimuli/rescaled_final/1072_rv.mp4	0.0	343.4499509334564	
48	216.91547203063965	movie	1		243	46.0	2.5	/experiments/knapen_AOT/AOT_stimuli/rescaled_final/1072_rv.mp4	0.0	344.27482199668884	2.5003468990325928
48	217.6907148361206	pulse	1	t		46.0	2.5	/experiments/knapen_AOT/AOT_stimuli/rescaled_final/1072_rv.mp4	0.0	345.0500648021698	
48	219.29098391532898	pulse	1	t		46.0	2.5	/experiments/knapen_AOT/AOT_stimuli/rescaled_final/1072_rv.mp4	0.0	346.6503338813782	
48	219.41581892967224	fix_post	2		12	46.0	2.5	/experiments/knapen_AOT/AOT_stimuli/rescaled_final/1072_rv.mp4	0.0	346.77516889572144	0.10002303123474121
49	219.51584196090698	fix_pre	0		119	47.0	2.5	/experiments/knapen_AOT/AOT_stimuli/rescaled_final/0662_rv.mp4	0.0	346.8751919269562	0.9917941093444824
49	220.50763607025146	movie	1		243	47.0	2.5	/experiments/knapen_AOT/AOT_stimuli/rescaled_final/0662_rv.mp4	0.0	347.86698603630066	2.500375986099243
49	220.8931360244751	pulse	1	t		47.0	2.5	/experiments/knapen_AOT/AOT_stimuli/rescaled_final/0662_rv.mp4	0.0	348.2524859905243	
49	222.49155187606812	pulse	1	t		47.0	2.5	/experiments/knapen_AOT/AOT_stimuli/rescaled_final/0662_rv.mp4	0.0	349.8509018421173	
49	223.0080120563507	fix_post	2		12	47.0	2.5	/experiments/knapen_AOT/AOT_stimuli/rescaled_final/0662_rv.mp4	0.0	350.3673620223999	0.09997677803039551
50	223.1079888343811	fix_pre	0		119	48.0	2.5	/experiments/knapen_AOT/AOT_stimuli/rescaled_final/1534_fw.mp4	0.0	350.4673388004303	0.9918501377105713
50	224.09184384346008	pulse	0	t		48.0	2.5	/experiments/knapen_AOT/AOT_stimuli/rescaled_final/1534_fw.mp4	0.0	351.4511938095093	
50	224.09983897209167	movie	1		244	48.0	2.5	/experiments/knapen_AOT/AOT_stimuli/rescaled_final/1534_fw.mp4	0.0	351.45918893814087	2.508720874786377
50	225.69239592552185	pulse	1	t		48.0	2.5	/experiments/knapen_AOT/AOT_stimuli/rescaled_final/1534_fw.mp4	0.0	353.05174589157104	
50	226.60855984687805	fix_post	2		12	48.0	2.5	/experiments/knapen_AOT/AOT_stimuli/rescaled_final/1534_fw.mp4	0.0	353.96790981292725	0.10003519058227539
51	226.70859503746033	fix_pre	0		120	49.0	2.5	blank	1.0	354.0679450035095	1.0001509189605713
51	227.292151927948	pulse	0	t		49.0	2.5	blank	1.0	354.6515018939972	
51	227.7087459564209	movie	1		300	49.0	2.5	blank	1.0	355.0680959224701	2.5003581047058105
51	228.89245200157166	pulse	1	t		49.0	2.5	blank	1.0	356.25180196762085	
51	230.2091040611267	fix_post	2		12	49.0	2.5	blank	1.0	357.5684540271759	0.10001993179321289
52	230.30912399291992	fix_pre	0		120	50.0	2.5	/experiments/knapen_AOT/AOT_stimuli/rescaled_final/0624_rv.mp4	0.0	357.6684739589691	1.000128984451294
52	230.49283504486084	pulse	0	t		50.0	2.5	/experiments/knapen_AOT/AOT_stimuli/rescaled_final/0624_rv.mp4	0.0	357.85218501091003	
52	231.30925297737122	movie	1		243	50.0	2.5	/experiments/knapen_AOT/AOT_stimuli/rescaled_final/0624_rv.mp4	0.0	358.6686029434204	2.5005688667297363
52	232.09300088882446	pulse	1	t		50.0	2.5	/experiments/knapen_AOT/AOT_stimuli/rescaled_final/0624_rv.mp4	0.0	359.45235085487366	
52	233.6931028366089	pulse	1	t		50.0	2.5	/experiments/knapen_AOT/AOT_stimuli/rescaled_final/0624_rv.mp4	0.0	361.0524528026581	
52	233.80982184410095	fix_post	2		12	50.0	2.5	/experiments/knapen_AOT/AOT_stimuli/rescaled_final/0624_rv.mp4	0.0	361.16917181015015	0.09985017776489258
53	233.90967202186584	fix_pre	0		120	51.0	2.5	/experiments/knapen_AOT/AOT_stimuli/rescaled_final/1374_rv.mp4	0.0	361.26902198791504	1.0001399517059326
53	234.90981197357178	movie	1		242	51.0	2.5	/experiments/knapen_AOT/AOT_stimuli/rescaled_final/1374_rv.mp4	0.0	362.269161939621	2.4920148849487305
53	235.2940330505371	pulse	1	t		51.0	2.5	/experiments/knapen_AOT/AOT_stimuli/rescaled_final/1374_rv.mp4	0.0	362.6533830165863	
53	236.89367198944092	pulse	1	t		51.0	2.5	/experiments/knapen_AOT/AOT_stimuli/rescaled_final/1374_rv.mp4	0.0	364.2530219554901	
53	237.4018268585205	fix_post	2		12	51.0	2.5	/experiments/knapen_AOT/AOT_stimuli/rescaled_final/1374_rv.mp4	0.0	364.7611768245697	0.10002708435058594
54	237.5018539428711	fix_pre	0		120	52.0	2.5	/experiments/knapen_AOT/AOT_stimuli/rescaled_final/0514_rv.mp4	0.0	364.8612039089203	1.000154972076416
54	238.49399495124817	pulse	0	t		52.0	2.5	/experiments/knapen_AOT/AOT_stimuli/rescaled_final/0514_rv.mp4	0.0	365.85334491729736	
54	238.5020089149475	movie	1		245	52.0	2.5	/experiments/knapen_AOT/AOT_stimuli/rescaled_final/0514_rv.mp4	0.0	365.8613588809967	2.5087101459503174
54	240.09497499465942	pulse	1	t		52.0	2.5	/experiments/knapen_AOT/AOT_stimuli/rescaled_final/0514_rv.mp4	0.0	367.4543249607086	
54	241.01071906089783	fix_post	2		12	52.0	2.5	/experiments/knapen_AOT/AOT_stimuli/rescaled_final/0514_rv.mp4	0.0	368.370069026947	0.10002589225769043
55	241.11074495315552	fix_pre	0		120	53.0	2.5	/experiments/knapen_AOT/AOT_stimuli/rescaled_final/1330_fw.mp4	0.0	368.4700949192047	1.0001471042633057
55	241.69439387321472	pulse	0	t		53.0	2.5	/experiments/knapen_AOT/AOT_stimuli/rescaled_final/1330_fw.mp4	0.0	369.0537438392639	
55	242.11089205741882	movie	1		243	53.0	2.5	/experiments/knapen_AOT/AOT_stimuli/rescaled_final/1330_fw.mp4	0.0	369.470242023468	2.5003628730773926
55	243.29471397399902	pulse	1	t		53.0	2.5	/experiments/knapen_AOT/AOT_stimuli/rescaled_final/1330_fw.mp4	0.0	370.6540639400482	
55	244.61125493049622	fix_post	2		12	53.0	2.5	/experiments/knapen_AOT/AOT_stimuli/rescaled_final/1330_fw.mp4	0.0	371.9706048965454	0.100006103515625
56	244.71126103401184	fix_pre	0		120	54.0	2.5	blank	1.0	372.07061100006104	1.0001699924468994
56	244.89496493339539	pulse	0	t		54.0	2.5	blank	1.0	372.2543148994446	
56	245.71143102645874	movie	1		300	54.0	2.5	blank	1.0	373.07078099250793	2.500361919403076
56	246.49508500099182	pulse	1	t		54.0	2.5	blank	1.0	373.854434967041	
56	248.09533405303955	pulse	1	t		54.0	2.5	blank	1.0	375.45468401908875	
56	248.21179294586182	fix_post	2		12	54.0	2.5	blank	1.0	375.571142911911	0.10001897811889648
57	248.3118119239807	fix_pre	0		120	55.0	2.5	/experiments/knapen_AOT/AOT_stimuli/rescaled_final/1535_fw.mp4	0.0	375.6711618900299	1.0001509189605713
57	249.31196284294128	movie	1		242	55.0	2.5	/experiments/knapen_AOT/AOT_stimuli/rescaled_final/1535_fw.mp4	0.0	376.6713128089905	2.4920601844787598
57	249.69678497314453	pulse	1	t		55.0	2.5	/experiments/knapen_AOT/AOT_stimuli/rescaled_final/1535_fw.mp4	0.0	377.0561349391937	
57	251.29580187797546	pulse	1	t		55.0	2.5	/experiments/knapen_AOT/AOT_stimuli/rescaled_final/1535_fw.mp4	0.0	378.65515184402466	
57	251.80402302742004	fix_post	2		12	55.0	2.5	/experiments/knapen_AOT/AOT_stimuli/rescaled_final/1535_fw.mp4	0.0	379.16337299346924	0.10001182556152344
58	251.90403485298157	fix_pre	0		120	56.0	2.5	/experiments/knapen_AOT/AOT_stimuli/rescaled_final/1499_fw.mp4	0.0	379.26338481903076	1.0001471042633057
58	252.89614486694336	pulse	0	t		56.0	2.5	/experiments/knapen_AOT/AOT_stimuli/rescaled_final/1499_fw.mp4	0.0	380.25549483299255	
58	252.90418195724487	movie	1		245	56.0	2.5	/experiments/knapen_AOT/AOT_stimuli/rescaled_final/1499_fw.mp4	0.0	380.26353192329407	2.508655071258545
58	254.500874042511	pulse	1	t		56.0	2.5	/experiments/knapen_AOT/AOT_stimuli/rescaled_final/1499_fw.mp4	0.0	381.8602240085602	
58	255.41283702850342	fix_post	2		12	56.0	2.5	/experiments/knapen_AOT/AOT_stimuli/rescaled_final/1499_fw.mp4	0.0	382.7721869945526	0.10004496574401855
59	255.51288199424744	fix_pre	0		120	57.0	2.5	/experiments/knapen_AOT/AOT_stimuli/rescaled_final/1925_rv.mp4	0.0	382.87223196029663	1.0001468658447266
59	256.0965528488159	pulse	0	t		57.0	2.5	/experiments/knapen_AOT/AOT_stimuli/rescaled_final/1925_rv.mp4	0.0	383.4559028148651	
59	256.51302886009216	movie	1		243	57.0	2.5	/experiments/knapen_AOT/AOT_stimuli/rescaled_final/1925_rv.mp4	0.0	383.87237882614136	2.500446081161499
59	257.69682598114014	pulse	1	t		57.0	2.5	/experiments/knapen_AOT/AOT_stimuli/rescaled_final/1925_rv.mp4	0.0	385.05617594718933	
59	259.01347494125366	fix_post	2		12	57.0	2.5	/experiments/knapen_AOT/AOT_stimuli/rescaled_final/1925_rv.mp4	0.0	386.37282490730286	0.09993910789489746
60	259.11341404914856	fix_pre	0		120	58.0	2.5	/experiments/knapen_AOT/AOT_stimuli/rescaled_final/1330_rv.mp4	0.0	386.47276401519775	1.0001440048217773
60	259.29702591896057	pulse	0	t		58.0	2.5	/experiments/knapen_AOT/AOT_stimuli/rescaled_final/1330_rv.mp4	0.0	386.65637588500977	
60	260.11355805397034	movie	1		243	58.0	2.5	/experiments/knapen_AOT/AOT_stimuli/rescaled_final/1330_rv.mp4	0.0	387.47290802001953	2.5003879070281982
60	260.89717292785645	pulse	1	t		58.0	2.5	/experiments/knapen_AOT/AOT_stimuli/rescaled_final/1330_rv.mp4	0.0	388.25652289390564	
60	262.4974088668823	pulse	1	t		58.0	2.5	/experiments/knapen_AOT/AOT_stimuli/rescaled_final/1330_rv.mp4	0.0	389.8567588329315	
60	262.61394596099854	fix_post	2		9	58.0	2.5	/experiments/knapen_AOT/AOT_stimuli/rescaled_final/1330_rv.mp4	0.0	389.97329592704773	0.10002803802490234
61	262.71397399902344	fix_pre	0		120	59.0	2.5	/experiments/knapen_AOT/AOT_stimuli/rescaled_final/1853_rv.mp4	0.0	390.07332396507263	1.0001518726348877
61	263.7141258716583	movie	1		243	59.0	2.5	/experiments/knapen_AOT/AOT_stimuli/rescaled_final/1853_rv.mp4	0.0	391.0734758377075	2.491990089416504
61	264.0984308719635	pulse	1	t		59.0	2.5	/experiments/knapen_AOT/AOT_stimuli/rescaled_final/1853_rv.mp4	0.0	391.4577808380127	
61	265.69079399108887	pulse	1	t		59.0	2.5	/experiments/knapen_AOT/AOT_stimuli/rescaled_final/1853_rv.mp4	0.0	393.05014395713806	
61	266.20611596107483	fix_post	2		12	59.0	2.5	/experiments/knapen_AOT/AOT_stimuli/rescaled_final/1853_rv.mp4	0.0	393.565465927124	0.10004687309265137
62	266.3061628341675	fix_pre	0		120	60.0	2.5	/experiments/knapen_AOT/AOT_stimuli/rescaled_final/0327_fw.mp4	0.0	393.6655128002167	1.0001771450042725
62	267.29071497917175	pulse	0	t		60.0	2.5	/experiments/knapen_AOT/AOT_stimuli/rescaled_final/0327_fw.mp4	0.0	394.65006494522095	
62	267.30633997917175	movie	1		245	60.0	2.5	/experiments/knapen_AOT/AOT_stimuli/rescaled_final/0327_fw.mp4	0.0	394.66568994522095	2.508643865585327
62	268.8902189731598	pulse	1	t		60.0	2.5	/experiments/knapen_AOT/AOT_stimuli/rescaled_final/0327_fw.mp4	0.0	396.249568939209	
62	269.8149838447571	fix_post	2		12	60.0	2.5	/experiments/knapen_AOT/AOT_stimuli/rescaled_final/0327_fw.mp4	0.0	397.1743338108063	0.10004615783691406
63	269.915030002594	fix_pre	0		120	61.0	2.5	/experiments/knapen_AOT/AOT_stimuli/rescaled_final/2046_rv.mp4	0.0	397.2743799686432	1.000148057937622
63	270.49029088020325	pulse	0	t		61.0	2.5	/experiments/knapen_AOT/AOT_stimuli/rescaled_final/2046_rv.mp4	0.0	397.84964084625244	
63	270.9151780605316	movie	1		244	61.0	2.5	/experiments/knapen_AOT/AOT_stimuli/rescaled_final/2046_rv.mp4	0.0	398.2745280265808	2.5003910064697266
63	272.0919449329376	pulse	1	t		61.0	2.5	/experiments/knapen_AOT/AOT_stimuli/rescaled_final/2046_rv.mp4	0.0	399.4512948989868	
63	273.41556906700134	fix_post	2		12	61.0	2.5	/experiments/knapen_AOT/AOT_stimuli/rescaled_final/2046_rv.mp4	0.0	400.77491903305054	0.0999898910522461
64	273.5155589580536	fix_pre	0		120	62.0	2.5	/experiments/knapen_AOT/AOT_stimuli/rescaled_final/0174_fw.mp4	0.0	400.8749089241028	1.0001270771026611
64	273.6908800601959	pulse	0	t		62.0	2.5	/experiments/knapen_AOT/AOT_stimuli/rescaled_final/0174_fw.mp4	0.0	401.0502300262451	
64	274.51568603515625	movie	1		244	62.0	2.5	/experiments/knapen_AOT/AOT_stimuli/rescaled_final/0174_fw.mp4	0.0	401.87503600120544	2.492025852203369
64	275.29098296165466	pulse	1	t		62.0	2.5	/experiments/knapen_AOT/AOT_stimuli/rescaled_final/0174_fw.mp4	0.0	402.65033292770386	
64	276.8912138938904	pulse	1	t		62.0	2.5	/experiments/knapen_AOT/AOT_stimuli/rescaled_final/0174_fw.mp4	0.0	404.2505638599396	
64	277.0077118873596	fix_post	2		12	62.0	2.5	/experiments/knapen_AOT/AOT_stimuli/rescaled_final/0174_fw.mp4	0.0	404.3670618534088	0.10007905960083008
65	277.10779094696045	fix_pre	0		120	63.0	2.5	blank	1.0	404.46714091300964	1.000143051147461
65	278.1079339981079	movie	1		300	63.0	2.5	blank	1.0	405.4672839641571	2.5003819465637207
65	278.49158787727356	pulse	1	t		63.0	2.5	blank	1.0	405.85093784332275	
65	280.0917880535126	pulse	1	t		63.0	2.5	blank	1.0	407.45113801956177	
65	280.60831594467163	fix_post	2		12	63.0	2.5	blank	1.0	407.9676659107208	0.09999990463256836
66	280.7083158493042	fix_pre	0		119	64.0	2.5	/experiments/knapen_AOT/AOT_stimuli/rescaled_final/1925_fw.mp4	0.0	408.0676658153534	0.9918520450592041
66	281.6919469833374	pulse	0	t		64.0	2.5	/experiments/knapen_AOT/AOT_stimuli/rescaled_final/1925_fw.mp4	0.0	409.0512969493866	
66	281.7001678943634	movie	1		244	64.0	2.5	/experiments/knapen_AOT/AOT_stimuli/rescaled_final/1925_fw.mp4	0.0	409.0595178604126	2.508798122406006
66	283.2927279472351	pulse	1	t		64.0	2.5	/experiments/knapen_AOT/AOT_stimuli/rescaled_final/1925_fw.mp4	0.0	410.6520779132843	
66	284.2089660167694	fix_post	2		12	64.0	2.5	/experiments/knapen_AOT/AOT_stimuli/rescaled_final/1925_fw.mp4	0.0	411.5683159828186	0.0999000072479248
67	284.30886602401733	fix_pre	0		120	65.0	2.5	/experiments/knapen_AOT/AOT_stimuli/rescaled_final/1254_rv.mp4	0.0	411.6682159900665	1.0001330375671387
67	284.89254784584045	pulse	0	t		65.0	2.5	/experiments/knapen_AOT/AOT_stimuli/rescaled_final/1254_rv.mp4	0.0	412.25189781188965	
67	285.3089990615845	movie	1		244	65.0	2.5	/experiments/knapen_AOT/AOT_stimuli/rescaled_final/1254_rv.mp4	0.0	412.66834902763367	2.5003178119659424
67	286.4928488731384	pulse	1	t		65.0	2.5	/experiments/knapen_AOT/AOT_stimuli/rescaled_final/1254_rv.mp4	0.0	413.8521988391876	
67	287.8093168735504	fix_post	2		12	65.0	2.5	/experiments/knapen_AOT/AOT_stimuli/rescaled_final/1254_rv.mp4	0.0	415.1686668395996	0.10002517700195312
68	287.90934205055237	fix_pre	0		120	66.0	2.5	/experiments/knapen_AOT/AOT_stimuli/rescaled_final/1487_fw.mp4	0.0	415.26869201660156	1.0002009868621826
68	288.09293699264526	pulse	0	t		66.0	2.5	/experiments/knapen_AOT/AOT_stimuli/rescaled_final/1487_fw.mp4	0.0	415.45228695869446	
68	288.90954303741455	movie	1		244	66.0	2.5	/experiments/knapen_AOT/AOT_stimuli/rescaled_final/1487_fw.mp4	0.0	416.26889300346375	2.500504970550537
68	289.69314193725586	pulse	1	t		66.0	2.5	/experiments/knapen_AOT/AOT_stimuli/rescaled_final/1487_fw.mp4	0.0	417.05249190330505	
68	291.29335284233093	pulse	1	t		66.0	2.5	/experiments/knapen_AOT/AOT_stimuli/rescaled_final/1487_fw.mp4	0.0	418.6527028083801	
68	291.4100480079651	fix_post	2		12	66.0	2.5	/experiments/knapen_AOT/AOT_stimuli/rescaled_final/1487_fw.mp4	0.0	418.7693979740143	0.09985804557800293
69	291.5099060535431	fix_pre	0		119	67.0	2.5	/experiments/knapen_AOT/AOT_stimuli/rescaled_final/0908_fw.mp4	0.0	418.8692560195923	0.991844892501831
69	292.5017509460449	movie	1		244	67.0	2.5	/experiments/knapen_AOT/AOT_stimuli/rescaled_final/0908_fw.mp4	0.0	419.8611009120941	2.5003230571746826
69	292.8937270641327	pulse	1	t		67.0	2.5	/experiments/knapen_AOT/AOT_stimuli/rescaled_final/0908_fw.mp4	0.0	420.2530770301819	
69	294.4939868450165	pulse	1	t		67.0	2.5	/experiments/knapen_AOT/AOT_stimuli/rescaled_final/0908_fw.mp4	0.0	421.8533368110657	
69	295.0020740032196	fix_post	2		12	67.0	2.5	/experiments/knapen_AOT/AOT_stimuli/rescaled_final/0908_fw.mp4	0.0	422.3614239692688	0.10003805160522461
70	295.10211205482483	fix_pre	0		120	68.0	2.5	/experiments/knapen_AOT/AOT_stimuli/rescaled_final/0984_fw.mp4	0.0	422.461462020874	1.0001678466796875
70	296.0941710472107	pulse	0	t		68.0	2.5	/experiments/knapen_AOT/AOT_stimuli/rescaled_final/0984_fw.mp4	0.0	423.4535210132599	
70	296.1022799015045	movie	1		246	68.0	2.5	/experiments/knapen_AOT/AOT_stimuli/rescaled_final/0984_fw.mp4	0.0	423.4616298675537	2.508661985397339
70	297.69470500946045	pulse	1	t		68.0	2.5	/experiments/knapen_AOT/AOT_stimuli/rescaled_final/0984_fw.mp4	0.0	425.05405497550964	
70	298.61094188690186	fix_post	2		12	68.0	2.5	/experiments/knapen_AOT/AOT_stimuli/rescaled_final/0984_fw.mp4	0.0	425.97029185295105	0.10004711151123047
71	298.7109889984131	fix_pre	0		120	69.0	2.5	blank	1.0	426.0703389644623	1.000148057937622
71	299.294713973999	pulse	0	t		69.0	2.5	blank	1.0	426.6540639400482	
71	299.7111370563507	movie	1		300	69.0	2.5	blank	1.0	427.0704870223999	2.5003738403320312
71	300.89498496055603	pulse	1	t		69.0	2.5	blank	1.0	428.2543349266052	
71	302.21151089668274	fix_post	2		12	69.0	2.5	blank	1.0	429.57086086273193	0.10003209114074707
72	302.3115429878235	fix_pre	0		120	70.0	2.5	/experiments/knapen_AOT/AOT_stimuli/rescaled_final/1177_fw.mp4	0.0	429.6708929538727	1.0001440048217773
72	302.4950659275055	pulse	0	t		70.0	2.5	/experiments/knapen_AOT/AOT_stimuli/rescaled_final/1177_fw.mp4	0.0	429.8544158935547	
72	303.31168699264526	movie	1		243	70.0	2.5	/experiments/knapen_AOT/AOT_stimuli/rescaled_final/1177_fw.mp4	0.0	430.67103695869446	2.500361919403076
72	304.09526205062866	pulse	1	t		70.0	2.5	/experiments/knapen_AOT/AOT_stimuli/rescaled_final/1177_fw.mp4	0.0	431.45461201667786	
72	305.69539499282837	pulse	1	t		70.0	2.5	/experiments/knapen_AOT/AOT_stimuli/rescaled_final/1177_fw.mp4	0.0	433.05474495887756	
72	305.81204891204834	fix_post	2		12	70.0	2.5	/experiments/knapen_AOT/AOT_stimuli/rescaled_final/1177_fw.mp4	0.0	433.17139887809753	0.1000211238861084
73	305.91207003593445	fix_pre	0		120	71.0	2.5	/experiments/knapen_AOT/AOT_stimuli/rescaled_final/0102_rv.mp4	0.0	433.27142000198364	1.000105857849121
73	306.91217589378357	movie	1		243	71.0	2.5	/experiments/knapen_AOT/AOT_stimuli/rescaled_final/0102_rv.mp4	0.0	434.27152585983276	2.4921650886535645
73	307.2964069843292	pulse	1	t		71.0	2.5	/experiments/knapen_AOT/AOT_stimuli/rescaled_final/0102_rv.mp4	0.0	434.6557569503784	
73	308.8960819244385	pulse	1	t		71.0	2.5	/experiments/knapen_AOT/AOT_stimuli/rescaled_final/0102_rv.mp4	0.0	436.25543189048767	
73	309.40434098243713	fix_post	2		12	71.0	2.5	/experiments/knapen_AOT/AOT_stimuli/rescaled_final/0102_rv.mp4	0.0	436.7636909484863	0.09989285469055176
74	309.5042338371277	fix_pre	0		120	72.0	2.5	/experiments/knapen_AOT/AOT_stimuli/rescaled_final/0087_rv.mp4	0.0	436.8635838031769	1.00018310546875
74	310.49623584747314	pulse	0	t		72.0	2.5	/experiments/knapen_AOT/AOT_stimuli/rescaled_final/0087_rv.mp4	0.0	437.85558581352234	
74	310.50441694259644	movie	1		245	72.0	2.5	/experiments/knapen_AOT/AOT_stimuli/rescaled_final/0087_rv.mp4	0.0	437.86376690864563	2.508665084838867
74	312.0967960357666	pulse	1	t		72.0	2.5	/experiments/knapen_AOT/AOT_stimuli/rescaled_final/0087_rv.mp4	0.0	439.4561460018158	
74	313.0130820274353	fix_post	2		12	72.0	2.5	/experiments/knapen_AOT/AOT_stimuli/rescaled_final/0087_rv.mp4	0.0	440.3724319934845	0.10003995895385742
75	313.11312198638916	fix_pre	0		120	73.0	2.5	/experiments/knapen_AOT/AOT_stimuli/rescaled_final/1118_rv.mp4	0.0	440.47247195243835	1.0001940727233887
75	313.6968379020691	pulse	0	t		73.0	2.5	/experiments/knapen_AOT/AOT_stimuli/rescaled_final/1118_rv.mp4	0.0	441.0561878681183	
75	314.11331605911255	movie	1		243	73.0	2.5	/experiments/knapen_AOT/AOT_stimuli/rescaled_final/1118_rv.mp4	0.0	441.47266602516174	2.500335931777954
75	315.29719400405884	pulse	1	t		73.0	2.5	/experiments/knapen_AOT/AOT_stimuli/rescaled_final/1118_rv.mp4	0.0	442.65654397010803	
75	316.6136519908905	fix_post	2		12	73.0	2.5	/experiments/knapen_AOT/AOT_stimuli/rescaled_final/1118_rv.mp4	0.0	443.9730019569397	0.10001897811889648
76	316.7136709690094	fix_pre	0		120	74.0	2.5	/experiments/knapen_AOT/AOT_stimuli/rescaled_final/1586_rv.mp4	0.0	444.0730209350586	1.0001649856567383
76	316.8971929550171	pulse	0	t		74.0	2.5	/experiments/knapen_AOT/AOT_stimuli/rescaled_final/1586_rv.mp4	0.0	444.2565429210663	
76	317.71383595466614	movie	1		244	74.0	2.5	/experiments/knapen_AOT/AOT_stimuli/rescaled_final/1586_rv.mp4	0.0	445.07318592071533	2.5003409385681152
76	318.497545003891	pulse	1	t		74.0	2.5	/experiments/knapen_AOT/AOT_stimuli/rescaled_final/1586_rv.mp4	0.0	445.8568949699402	
76	320.09763288497925	pulse	1	t		74.0	2.5	/experiments/knapen_AOT/AOT_stimuli/rescaled_final/1586_rv.mp4	0.0	447.45698285102844	
76	320.21417689323425	fix_post	2		12	74.0	2.5	/experiments/knapen_AOT/AOT_stimuli/rescaled_final/1586_rv.mp4	0.0	447.57352685928345	0.10002398490905762
77	320.3142008781433	fix_pre	0		117	75.0	2.5	/experiments/knapen_AOT/AOT_stimuli/rescaled_final/1817_fw.mp4	0.0	447.6735508441925	0.991832971572876
77	321.3060338497162	movie	1		244	75.0	2.5	/experiments/knapen_AOT/AOT_stimuli/rescaled_final/1817_fw.mp4	0.0	448.6653838157654	2.5003321170806885
77	321.6908700466156	pulse	1	t		75.0	2.5	/experiments/knapen_AOT/AOT_stimuli/rescaled_final/1817_fw.mp4	0.0	449.0502200126648	
77	323.2908499240875	pulse	1	t		75.0	2.5	/experiments/knapen_AOT/AOT_stimuli/rescaled_final/1817_fw.mp4	0.0	450.6501998901367	
77	323.8063659667969	fix_post	2		12	75.0	2.5	/experiments/knapen_AOT/AOT_stimuli/rescaled_final/1817_fw.mp4	0.0	451.16571593284607	0.10004401206970215
78	323.9064099788666	fix_pre	0		120	76.0	2.5	/experiments/knapen_AOT/AOT_stimuli/rescaled_final/0018_rv.mp4	0.0	451.26575994491577	1.0001590251922607
78	324.8909180164337	pulse	0	t		76.0	2.5	/experiments/knapen_AOT/AOT_stimuli/rescaled_final/0018_rv.mp4	0.0	452.2502679824829	
78	324.90656900405884	movie	1		245	76.0	2.5	/experiments/knapen_AOT/AOT_stimuli/rescaled_final/0018_rv.mp4	0.0	452.26591897010803	2.5087268352508545
78	326.499342918396	pulse	1	t		76.0	2.5	/experiments/knapen_AOT/AOT_stimuli/rescaled_final/0018_rv.mp4	0.0	453.8586928844452	
78	327.4152958393097	fix_post	2		12	76.0	2.5	/experiments/knapen_AOT/AOT_stimuli/rescaled_final/0018_rv.mp4	0.0	454.7746458053589	0.0999901294708252
79	327.5152859687805	fix_pre	0		120	77.0	2.5	blank	1.0	454.8746359348297	1.0001518726348877
79	328.0913028717041	pulse	0	t		77.0	2.5	blank	1.0	455.4506528377533	
79	328.5154378414154	movie	1		300	77.0	2.5	blank	1.0	455.8747878074646	2.5003981590270996
79	329.69090485572815	pulse	1	t		77.0	2.5	blank	1.0	457.05025482177734	
79	331.0158360004425	fix_post	2		12	77.0	2.5	blank	1.0	458.3751859664917	0.0999760627746582
80	331.11581206321716	fix_pre	0		120	78.0	2.5	/experiments/knapen_AOT/AOT_stimuli/rescaled_final/1518_rv.mp4	0.0	458.47516202926636	1.000119924545288
80	331.29096698760986	pulse	0	t		78.0	2.5	/experiments/knapen_AOT/AOT_stimuli/rescaled_final/1518_rv.mp4	0.0	458.65031695365906	
80	332.11593198776245	movie	1		242	78.0	2.5	/experiments/knapen_AOT/AOT_stimuli/rescaled_final/1518_rv.mp4	0.0	459.47528195381165	2.4921629428863525
80	332.8912489414215	pulse	1	t		78.0	2.5	/experiments/knapen_AOT/AOT_stimuli/rescaled_final/1518_rv.mp4	0.0	460.2505989074707	
80	334.4915449619293	pulse	1	t		78.0	2.5	/experiments/knapen_AOT/AOT_stimuli/rescaled_final/1518_rv.mp4	0.0	461.8508949279785	
80	334.6080949306488	fix_post	2		12	78.0	2.5	/experiments/knapen_AOT/AOT_stimuli/rescaled_final/1518_rv.mp4	0.0	461.967444896698	0.09992313385009766
81	334.7080180644989	fix_pre	0		120	79.0	2.5	/experiments/knapen_AOT/AOT_stimuli/rescaled_final/1969_fw.mp4	0.0	462.0673680305481	1.000133991241455
81	335.70815205574036	movie	1		244	79.0	2.5	/experiments/knapen_AOT/AOT_stimuli/rescaled_final/1969_fw.mp4	0.0	463.06750202178955	2.500513792037964
81	336.0932149887085	pulse	1	t		79.0	2.5	/experiments/knapen_AOT/AOT_stimuli/rescaled_final/1969_fw.mp4	0.0	463.4525649547577	
81	337.6920430660248	pulse	1	t		79.0	2.5	/experiments/knapen_AOT/AOT_stimuli/rescaled_final/1969_fw.mp4	0.0	465.051393032074	
81	338.2086658477783	fix_post	2		12	79.0	2.5	/experiments/knapen_AOT/AOT_stimuli/rescaled_final/1969_fw.mp4	0.0	465.5680158138275	0.09987807273864746
82	338.30854392051697	fix_pre	0		119	80.0	2.5	/experiments/knapen_AOT/AOT_stimuli/rescaled_final/0304_fw.mp4	0.0	465.66789388656616	0.9918279647827148
82	339.2921869754791	pulse	0	t		80.0	2.5	/experiments/knapen_AOT/AOT_stimuli/rescaled_final/0304_fw.mp4	0.0	466.6515369415283	
82	339.3003718852997	movie	1		245	80.0	2.5	/experiments/knapen_AOT/AOT_stimuli/rescaled_final/0304_fw.mp4	0.0	466.6597218513489	2.508810043334961
82	340.8978838920593	pulse	1	t		80.0	2.5	/experiments/knapen_AOT/AOT_stimuli/rescaled_final/0304_fw.mp4	0.0	468.2572338581085	
82	341.80918192863464	fix_post	2		12	80.0	2.5	/experiments/knapen_AOT/AOT_stimuli/rescaled_final/0304_fw.mp4	0.0	469.16853189468384	0.09986996650695801
83	341.9090518951416	fix_pre	0		120	81.0	2.5	/experiments/knapen_AOT/AOT_stimuli/rescaled_final/0742_rv.mp4	0.0	469.2684018611908	1.0001859664916992
83	342.49272894859314	pulse	0	t		81.0	2.5	/experiments/knapen_AOT/AOT_stimuli/rescaled_final/0742_rv.mp4	0.0	469.85207891464233	
83	342.9092378616333	movie	1		243	81.0	2.5	/experiments/knapen_AOT/AOT_stimuli/rescaled_final/0742_rv.mp4	0.0	470.2685878276825	2.5003790855407715
83	344.09316396713257	pulse	1	t		81.0	2.5	/experiments/knapen_AOT/AOT_stimuli/rescaled_final/0742_rv.mp4	0.0	471.45251393318176	
83	345.4096169471741	fix_post	2		12	81.0	2.5	/experiments/knapen_AOT/AOT_stimuli/rescaled_final/0742_rv.mp4	0.0	472.76896691322327	0.09999203681945801
84	345.50960898399353	fix_pre	0		120	82.0	2.5	blank	1.0	472.8689589500427	1.0001859664916992
84	345.69314098358154	pulse	0	t		82.0	2.5	blank	1.0	473.05249094963074	
84	346.50979495048523	movie	1		300	82.0	2.5	blank	1.0	473.8691449165344	2.500351905822754
84	347.29342699050903	pulse	1	t		82.0	2.5	blank	1.0	474.6527769565582	
84	348.8936629295349	pulse	1	t		82.0	2.5	blank	1.0	476.2530128955841	
84	349.010146856308	fix_post	2		12	82.0	2.5	blank	1.0	476.3694968223572	0.10000920295715332
85	349.11015605926514	fix_pre	0		120	83.0	2.5	/experiments/knapen_AOT/AOT_stimuli/rescaled_final/1853_fw.mp4	0.0	476.46950602531433	1.000152826309204
85	350.11030888557434	movie	1		242	83.0	2.5	/experiments/knapen_AOT/AOT_stimuli/rescaled_final/1853_fw.mp4	0.0	477.46965885162354	2.4920101165771484
85	350.4944169521332	pulse	1	t		83.0	2.5	/experiments/knapen_AOT/AOT_stimuli/rescaled_final/1853_fw.mp4	0.0	477.8537669181824	
85	352.09414196014404	pulse	1	t		83.0	2.5	/experiments/knapen_AOT/AOT_stimuli/rescaled_final/1853_fw.mp4	0.0	479.45349192619324	
85	352.6023190021515	fix_post	2		12	83.0	2.5	/experiments/knapen_AOT/AOT_stimuli/rescaled_final/1853_fw.mp4	0.0	479.9616689682007	0.10005593299865723
87	352.70237493515015	stim	0		1716					480.06172490119934	14.302240133285522
87	353.69447588920593	pulse	0	t						481.0538258552551	
87	355.2946710586548	pulse	0	t						482.654021024704	
87	356.8948450088501	pulse	0	t						484.2541949748993	
87	358.49515986442566	pulse	0	t						485.85450983047485	
87	360.09538102149963	pulse	0	t						487.4547309875488	
87	361.69559597969055	pulse	0	t						489.05494594573975	
87	363.2957639694214	pulse	0	t						490.6551139354706	
87	364.8959469795227	pulse	0	t						492.2552969455719	
87	366.49627685546875	pulse	0	t						493.85562682151794	
