trial_nr	onset	event_type	phase	response	nr_frames	movie_index	movie_duration	movie_file	blank	onset_abs	duration
0	0.15780401229858398	stim	0		91					20.979212999343872	0.7587080001831055
0	0.9084868431091309	response	0	space						21.72989583015442	
1	0.9165120124816895	stim	0		2813					21.737920999526978	23.441588878631592
1	24.350705862045288	pulse	0	t						45.172114849090576	
1	24.35810089111328	stim	1		1717					45.17950987815857	14.308182954788208
1	25.949909925460815	pulse	1	t						46.7713189125061	
1	27.549925804138184	pulse	1	t						48.37133479118347	
1	29.149935960769653	pulse	1	t						49.97134494781494	
1	30.749892950057983	pulse	1	t						51.57130193710327	
1	32.35000681877136	pulse	1	t						53.17141580581665	
1	33.94984793663025	pulse	1	t						54.77125692367554	
1	35.54942202568054	pulse	1	t						56.37083101272583	
1	37.149927854537964	pulse	1	t						57.97133684158325	
2	38.66628384590149	fix_pre	0		11	0.0	2.5	/experiments/AOT/AOT_stimuli/rescaled_final/0088_rv.mp4	0.0	59.48769283294678	0.09165310859680176
2	38.749926805496216	pulse	0	t		0.0	2.5	/experiments/AOT/AOT_stimuli/rescaled_final/0088_rv.mp4	0.0	59.571335792541504	
2	38.75793695449829	movie	1		244	0.0	2.5	/experiments/AOT/AOT_stimuli/rescaled_final/0088_rv.mp4	0.0	59.57934594154358	2.5084428787231445
2	40.34947490692139	pulse	1	t		0.0	2.5	/experiments/AOT/AOT_stimuli/rescaled_final/0088_rv.mp4	0.0	61.170883893966675	
2	41.266379833221436	fix_post	2		12	0.0	2.5	/experiments/AOT/AOT_stimuli/rescaled_final/0088_rv.mp4	0.0	62.087788820266724	0.10004520416259766
3	41.36642503738403	fix_pre	0		120	1.0	2.5	/experiments/AOT/AOT_stimuli/rescaled_final/0796_fw.mp4	0.0	62.18783402442932	0.9998748302459717
3	41.94980192184448	pulse	0	t		1.0	2.5	/experiments/AOT/AOT_stimuli/rescaled_final/0796_fw.mp4	0.0	62.77121090888977	
3	42.366299867630005	movie	1		243	1.0	2.5	/experiments/AOT/AOT_stimuli/rescaled_final/0796_fw.mp4	0.0	63.18770885467529	2.5000200271606445
3	43.54988980293274	pulse	1	t		1.0	2.5	/experiments/AOT/AOT_stimuli/rescaled_final/0796_fw.mp4	0.0	64.37129878997803	
3	44.86631989479065	fix_post	2		12	1.0	2.5	/experiments/AOT/AOT_stimuli/rescaled_final/0796_fw.mp4	0.0	65.68772888183594	0.1000509262084961
4	44.966370820999146	fix_pre	0		120	2.0	2.5	/experiments/AOT/AOT_stimuli/rescaled_final/0541_rv.mp4	0.0	65.78777980804443	0.999934196472168
4	45.14981698989868	pulse	0	t		2.0	2.5	/experiments/AOT/AOT_stimuli/rescaled_final/0541_rv.mp4	0.0	65.97122597694397	
4	45.96630501747131	movie	1		244	2.0	2.5	/experiments/AOT/AOT_stimuli/rescaled_final/0541_rv.mp4	0.0	66.7877140045166	2.499687910079956
4	46.74967694282532	pulse	1	t		2.0	2.5	/experiments/AOT/AOT_stimuli/rescaled_final/0541_rv.mp4	0.0	67.5710859298706	
4	48.345778942108154	pulse	1	t		2.0	2.5	/experiments/AOT/AOT_stimuli/rescaled_final/0541_rv.mp4	0.0	69.16718792915344	
4	48.46599292755127	fix_post	2		12	2.0	2.5	/experiments/AOT/AOT_stimuli/rescaled_final/0541_rv.mp4	0.0	69.28740191459656	0.10032391548156738
5	48.56631684303284	fix_pre	0		120	3.0	2.5	/experiments/AOT/AOT_stimuli/rescaled_final/1313_fw.mp4	0.0	69.38772583007812	0.999920129776001
5	49.56623697280884	movie	1		245	3.0	2.5	/experiments/AOT/AOT_stimuli/rescaled_final/1313_fw.mp4	0.0	70.38764595985413	2.4999818801879883
5	49.94945502281189	pulse	1	t		3.0	2.5	/experiments/AOT/AOT_stimuli/rescaled_final/1313_fw.mp4	0.0	70.77086400985718	
5	51.54969096183777	pulse	1	t		3.0	2.5	/experiments/AOT/AOT_stimuli/rescaled_final/1313_fw.mp4	0.0	72.37109994888306	
5	52.066218852996826	fix_post	2		12	3.0	2.5	/experiments/AOT/AOT_stimuli/rescaled_final/1313_fw.mp4	0.0	72.88762784004211	0.10009312629699707
6	52.16631197929382	fix_pre	0		119	4.0	2.5	/experiments/AOT/AOT_stimuli/rescaled_final/1586_fw.mp4	0.0	72.98772096633911	0.9916038513183594
6	53.1497859954834	pulse	0	t		4.0	2.5	/experiments/AOT/AOT_stimuli/rescaled_final/1586_fw.mp4	0.0	73.97119498252869	
6	53.15791583061218	movie	1		245	4.0	2.5	/experiments/AOT/AOT_stimuli/rescaled_final/1586_fw.mp4	0.0	73.97932481765747	2.5083019733428955
6	54.7500159740448	pulse	1	t		4.0	2.5	/experiments/AOT/AOT_stimuli/rescaled_final/1586_fw.mp4	0.0	75.57142496109009	
6	55.66621780395508	fix_post	2		12	4.0	2.5	/experiments/AOT/AOT_stimuli/rescaled_final/1586_fw.mp4	0.0	76.48762679100037	0.10006022453308105
7	55.76627802848816	fix_pre	0		120	5.0	2.5	blank	1.0	76.58768701553345	0.9999709129333496
7	56.349764823913574	pulse	0	t		5.0	2.5	blank	1.0	77.17117381095886	
7	56.76624894142151	movie	1		300	5.0	2.5	blank	1.0	77.5876579284668	2.5000669956207275
7	57.949774980545044	pulse	1	t		5.0	2.5	blank	1.0	78.77118396759033	
7	59.266315937042236	fix_post	2		12	5.0	2.5	blank	1.0	80.08772492408752	0.09999394416809082
8	59.36630988121033	fix_pre	0		120	6.0	2.5	/experiments/AOT/AOT_stimuli/rescaled_final/0229_fw.mp4	0.0	80.18771886825562	0.9999220371246338
8	59.5497989654541	pulse	0	t		6.0	2.5	/experiments/AOT/AOT_stimuli/rescaled_final/0229_fw.mp4	0.0	80.37120795249939	
8	60.36623191833496	movie	1		242	6.0	2.5	/experiments/AOT/AOT_stimuli/rescaled_final/0229_fw.mp4	0.0	81.18764090538025	2.5000228881835938
8	61.149688959121704	pulse	1	t		6.0	2.5	/experiments/AOT/AOT_stimuli/rescaled_final/0229_fw.mp4	0.0	81.97109794616699	
8	62.748111963272095	pulse	1	t		6.0	2.5	/experiments/AOT/AOT_stimuli/rescaled_final/0229_fw.mp4	0.0	83.56952095031738	
8	62.866254806518555	fix_post	2		12	6.0	2.5	/experiments/AOT/AOT_stimuli/rescaled_final/0229_fw.mp4	0.0	83.68766379356384	0.09996604919433594
9	62.96622085571289	fix_pre	0		120	7.0	2.5	/experiments/AOT/AOT_stimuli/rescaled_final/1536_fw.mp4	0.0	83.78762984275818	1.0001780986785889
9	63.96639895439148	movie	1		244	7.0	2.5	/experiments/AOT/AOT_stimuli/rescaled_final/1536_fw.mp4	0.0	84.78780794143677	2.4997758865356445
9	64.34930491447449	pulse	1	t		7.0	2.5	/experiments/AOT/AOT_stimuli/rescaled_final/1536_fw.mp4	0.0	85.17071390151978	
9	65.9497139453888	pulse	1	t		7.0	2.5	/experiments/AOT/AOT_stimuli/rescaled_final/1536_fw.mp4	0.0	86.77112293243408	
9	66.46617484092712	fix_post	2		12	7.0	2.5	/experiments/AOT/AOT_stimuli/rescaled_final/1536_fw.mp4	0.0	87.28758382797241	0.10006904602050781
10	66.56624388694763	fix_pre	0		119	8.0	2.5	/experiments/AOT/AOT_stimuli/rescaled_final/0098_fw.mp4	0.0	87.38765287399292	0.9916040897369385
10	67.54968690872192	pulse	0	t		8.0	2.5	/experiments/AOT/AOT_stimuli/rescaled_final/0098_fw.mp4	0.0	88.37109589576721	
10	67.55784797668457	movie	1		246	8.0	2.5	/experiments/AOT/AOT_stimuli/rescaled_final/0098_fw.mp4	0.0	88.37925696372986	2.5083179473876953
10	69.14934086799622	pulse	1	t		8.0	2.5	/experiments/AOT/AOT_stimuli/rescaled_final/0098_fw.mp4	0.0	89.9707498550415	
10	70.06616592407227	fix_post	2		12	8.0	2.5	/experiments/AOT/AOT_stimuli/rescaled_final/0098_fw.mp4	0.0	90.88757491111755	0.10001897811889648
11	70.16618490219116	fix_pre	0		120	9.0	2.5	/experiments/AOT/AOT_stimuli/rescaled_final/0761_fw.mp4	0.0	90.98759388923645	1.0000629425048828
11	70.74972486495972	pulse	0	t		9.0	2.5	/experiments/AOT/AOT_stimuli/rescaled_final/0761_fw.mp4	0.0	91.571133852005	
11	71.16624784469604	movie	1		246	9.0	2.5	/experiments/AOT/AOT_stimuli/rescaled_final/0761_fw.mp4	0.0	91.98765683174133	2.499997138977051
11	72.3497679233551	pulse	1	t		9.0	2.5	/experiments/AOT/AOT_stimuli/rescaled_final/0761_fw.mp4	0.0	93.17117691040039	
11	73.6662449836731	fix_post	2		12	9.0	2.5	/experiments/AOT/AOT_stimuli/rescaled_final/0761_fw.mp4	0.0	94.48765397071838	0.09986591339111328
12	73.76611089706421	fix_pre	0		120	10.0	2.5	/experiments/AOT/AOT_stimuli/rescaled_final/1734_rv.mp4	0.0	94.5875198841095	1.0001389980316162
12	73.94969296455383	pulse	0	t		10.0	2.5	/experiments/AOT/AOT_stimuli/rescaled_final/1734_rv.mp4	0.0	94.77110195159912	
12	74.76624989509583	movie	1		243	10.0	2.5	/experiments/AOT/AOT_stimuli/rescaled_final/1734_rv.mp4	0.0	95.58765888214111	2.499964952468872
12	75.54970383644104	pulse	1	t		10.0	2.5	/experiments/AOT/AOT_stimuli/rescaled_final/1734_rv.mp4	0.0	96.37111282348633	
12	77.14814782142639	pulse	1	t		10.0	2.5	/experiments/AOT/AOT_stimuli/rescaled_final/1734_rv.mp4	0.0	97.96955680847168	
12	77.2662148475647	fix_post	2		12	10.0	2.5	/experiments/AOT/AOT_stimuli/rescaled_final/1734_rv.mp4	0.0	98.08762383460999	0.10000109672546387
13	77.36621594429016	fix_pre	0		120	11.0	2.5	/experiments/AOT/AOT_stimuli/rescaled_final/1836_rv.mp4	0.0	98.18762493133545	0.9999980926513672
13	78.36621403694153	movie	1		243	11.0	2.5	/experiments/AOT/AOT_stimuli/rescaled_final/1836_rv.mp4	0.0	99.18762302398682	2.4999728202819824
13	78.74923801422119	pulse	1	t		11.0	2.5	/experiments/AOT/AOT_stimuli/rescaled_final/1836_rv.mp4	0.0	99.57064700126648	
13	80.34965801239014	pulse	1	t		11.0	2.5	/experiments/AOT/AOT_stimuli/rescaled_final/1836_rv.mp4	0.0	101.17106699943542	
13	80.86618685722351	fix_post	2		12	11.0	2.5	/experiments/AOT/AOT_stimuli/rescaled_final/1836_rv.mp4	0.0	101.6875958442688	0.09991312026977539
14	80.96609997749329	fix_pre	0		119	12.0	2.5	/experiments/AOT/AOT_stimuli/rescaled_final/1152_fw.mp4	0.0	101.78750896453857	0.991649866104126
14	81.94969701766968	pulse	0	t		12.0	2.5	/experiments/AOT/AOT_stimuli/rescaled_final/1152_fw.mp4	0.0	102.77110600471497	
14	81.95774984359741	movie	1		245	12.0	2.5	/experiments/AOT/AOT_stimuli/rescaled_final/1152_fw.mp4	0.0	102.7791588306427	2.5084309577941895
14	83.54915595054626	pulse	1	t		12.0	2.5	/experiments/AOT/AOT_stimuli/rescaled_final/1152_fw.mp4	0.0	104.37056493759155	
14	84.4661808013916	fix_post	2		12	12.0	2.5	/experiments/AOT/AOT_stimuli/rescaled_final/1152_fw.mp4	0.0	105.28758978843689	0.09993815422058105
15	84.56611895561218	fix_pre	0		120	13.0	2.5	blank	1.0	105.38752794265747	0.9999148845672607
15	85.14965081214905	pulse	0	t		13.0	2.5	blank	1.0	105.97105979919434	
15	85.56603384017944	movie	1		300	13.0	2.5	blank	1.0	106.38744282722473	2.5000970363616943
15	86.74965381622314	pulse	1	t		13.0	2.5	blank	1.0	107.57106280326843	
15	88.06613087654114	fix_post	2		12	13.0	2.5	blank	1.0	108.88753986358643	0.1000680923461914
16	88.16619896888733	fix_pre	0		120	14.0	2.5	/experiments/AOT/AOT_stimuli/rescaled_final/0496_fw.mp4	0.0	108.98760795593262	0.99993896484375
16	88.34968400001526	pulse	0	t		14.0	2.5	/experiments/AOT/AOT_stimuli/rescaled_final/0496_fw.mp4	0.0	109.17109298706055	
16	89.16613793373108	movie	1		243	14.0	2.5	/experiments/AOT/AOT_stimuli/rescaled_final/0496_fw.mp4	0.0	109.98754692077637	2.499932050704956
16	89.94963693618774	pulse	1	t		14.0	2.5	/experiments/AOT/AOT_stimuli/rescaled_final/0496_fw.mp4	0.0	110.77104592323303	
16	91.54775094985962	pulse	1	t		14.0	2.5	/experiments/AOT/AOT_stimuli/rescaled_final/0496_fw.mp4	0.0	112.36915993690491	
16	91.66606998443604	fix_post	2		12	14.0	2.5	/experiments/AOT/AOT_stimuli/rescaled_final/0496_fw.mp4	0.0	112.48747897148132	0.09961295127868652
17	91.76568293571472	fix_pre	0		120	15.0	2.5	/experiments/AOT/AOT_stimuli/rescaled_final/0835_rv.mp4	0.0	112.58709192276001	1.0000689029693604
17	92.76575183868408	movie	1		246	15.0	2.5	/experiments/AOT/AOT_stimuli/rescaled_final/0835_rv.mp4	0.0	113.58716082572937	2.500415086746216
17	93.14924597740173	pulse	1	t		15.0	2.5	/experiments/AOT/AOT_stimuli/rescaled_final/0835_rv.mp4	0.0	113.97065496444702	
17	94.74943685531616	pulse	1	t		15.0	2.5	/experiments/AOT/AOT_stimuli/rescaled_final/0835_rv.mp4	0.0	115.57084584236145	
17	95.2661669254303	fix_post	2		12	15.0	2.5	/experiments/AOT/AOT_stimuli/rescaled_final/0835_rv.mp4	0.0	116.08757591247559	0.09996891021728516
18	95.36613583564758	fix_pre	0		119	16.0	2.5	/experiments/AOT/AOT_stimuli/rescaled_final/0229_rv.mp4	0.0	116.18754482269287	0.9916441440582275
18	96.34958696365356	pulse	0	t		16.0	2.5	/experiments/AOT/AOT_stimuli/rescaled_final/0229_rv.mp4	0.0	117.17099595069885	
18	96.35777997970581	movie	1		245	16.0	2.5	/experiments/AOT/AOT_stimuli/rescaled_final/0229_rv.mp4	0.0	117.1791889667511	2.5078608989715576
18	97.949147939682	pulse	1	t		16.0	2.5	/experiments/AOT/AOT_stimuli/rescaled_final/0229_rv.mp4	0.0	118.7705569267273	
18	98.86564087867737	fix_post	2		12	16.0	2.5	/experiments/AOT/AOT_stimuli/rescaled_final/0229_rv.mp4	0.0	119.68704986572266	0.10038495063781738
19	98.96602582931519	fix_pre	0		120	17.0	2.5	/experiments/AOT/AOT_stimuli/rescaled_final/1373_rv.mp4	0.0	119.78743481636047	0.9999799728393555
19	99.54952883720398	pulse	0	t		17.0	2.5	/experiments/AOT/AOT_stimuli/rescaled_final/1373_rv.mp4	0.0	120.37093782424927	
19	99.96600580215454	movie	1		244	17.0	2.5	/experiments/AOT/AOT_stimuli/rescaled_final/1373_rv.mp4	0.0	120.78741478919983	2.5000250339508057
19	101.14960193634033	pulse	1	t		17.0	2.5	/experiments/AOT/AOT_stimuli/rescaled_final/1373_rv.mp4	0.0	121.97101092338562	
19	102.46603083610535	fix_post	2		12	17.0	2.5	/experiments/AOT/AOT_stimuli/rescaled_final/1373_rv.mp4	0.0	123.28743982315063	0.09997797012329102
20	102.56600880622864	fix_pre	0		120	18.0	2.5	/experiments/AOT/AOT_stimuli/rescaled_final/1674_fw.mp4	0.0	123.38741779327393	0.9999971389770508
20	102.74946093559265	pulse	0	t		18.0	2.5	/experiments/AOT/AOT_stimuli/rescaled_final/1674_fw.mp4	0.0	123.57086992263794	
20	103.56600594520569	movie	1		243	18.0	2.5	/experiments/AOT/AOT_stimuli/rescaled_final/1674_fw.mp4	0.0	124.38741493225098	2.4999489784240723
20	104.34955286979675	pulse	1	t		18.0	2.5	/experiments/AOT/AOT_stimuli/rescaled_final/1674_fw.mp4	0.0	125.17096185684204	
20	105.9482638835907	pulse	1	t		18.0	2.5	/experiments/AOT/AOT_stimuli/rescaled_final/1674_fw.mp4	0.0	126.76967287063599	
20	106.06595492362976	fix_post	2		12	18.0	2.5	/experiments/AOT/AOT_stimuli/rescaled_final/1674_fw.mp4	0.0	126.88736391067505	0.0996699333190918
21	106.16562485694885	fix_pre	0		120	19.0	2.5	blank	1.0	126.98703384399414	1.0003621578216553
21	107.16598701477051	movie	1		300	19.0	2.5	blank	1.0	127.9873960018158	2.50007700920105
21	107.5494909286499	pulse	1	t		19.0	2.5	blank	1.0	128.3708999156952	
21	109.14960098266602	pulse	1	t		19.0	2.5	blank	1.0	129.9710099697113	
21	109.66606402397156	fix_post	2		12	19.0	2.5	blank	1.0	130.48747301101685	0.09987783432006836
22	109.76594185829163	fix_pre	0		119	20.0	2.5	/experiments/AOT/AOT_stimuli/rescaled_final/2121_rv.mp4	0.0	130.5873508453369	0.991642951965332
22	110.74945783615112	pulse	0	t		20.0	2.5	/experiments/AOT/AOT_stimuli/rescaled_final/2121_rv.mp4	0.0	131.5708668231964	
22	110.75758481025696	movie	1		243	20.0	2.5	/experiments/AOT/AOT_stimuli/rescaled_final/2121_rv.mp4	0.0	131.57899379730225	2.508411169052124
22	112.35102701187134	pulse	1	t		20.0	2.5	/experiments/AOT/AOT_stimuli/rescaled_final/2121_rv.mp4	0.0	133.17243599891663	
22	113.26599597930908	fix_post	2		12	20.0	2.5	/experiments/AOT/AOT_stimuli/rescaled_final/2121_rv.mp4	0.0	134.08740496635437	0.10000991821289062
23	113.36600589752197	fix_pre	0		120	21.0	2.5	/experiments/AOT/AOT_stimuli/rescaled_final/0876_rv.mp4	0.0	134.18741488456726	1.000006914138794
23	113.949453830719	pulse	0	t		21.0	2.5	/experiments/AOT/AOT_stimuli/rescaled_final/0876_rv.mp4	0.0	134.77086281776428	
23	114.36601281166077	movie	1		245	21.0	2.5	/experiments/AOT/AOT_stimuli/rescaled_final/0876_rv.mp4	0.0	135.18742179870605	2.4999141693115234
23	115.54951596260071	pulse	1	t		21.0	2.5	/experiments/AOT/AOT_stimuli/rescaled_final/0876_rv.mp4	0.0	136.370924949646	
23	116.86592698097229	fix_post	2		12	21.0	2.5	/experiments/AOT/AOT_stimuli/rescaled_final/0876_rv.mp4	0.0	137.68733596801758	0.10007286071777344
24	116.96599984169006	fix_pre	0		120	22.0	2.5	/experiments/AOT/AOT_stimuli/rescaled_final/0142_fw.mp4	0.0	137.78740882873535	1.0000650882720947
24	117.14950585365295	pulse	0	t		22.0	2.5	/experiments/AOT/AOT_stimuli/rescaled_final/0142_fw.mp4	0.0	137.97091484069824	
24	117.96606492996216	movie	1		248	22.0	2.5	/experiments/AOT/AOT_stimuli/rescaled_final/0142_fw.mp4	0.0	138.78747391700745	2.4995059967041016
24	118.74946999549866	pulse	1	t		22.0	2.5	/experiments/AOT/AOT_stimuli/rescaled_final/0142_fw.mp4	0.0	139.57087898254395	
24	120.34558081626892	pulse	1	t		22.0	2.5	/experiments/AOT/AOT_stimuli/rescaled_final/0142_fw.mp4	0.0	141.1669898033142	
24	120.46557092666626	fix_post	2		12	22.0	2.5	/experiments/AOT/AOT_stimuli/rescaled_final/0142_fw.mp4	0.0	141.28697991371155	0.1004190444946289
25	120.56598997116089	fix_pre	0		120	23.0	2.5	/experiments/AOT/AOT_stimuli/rescaled_final/0039_rv.mp4	0.0	141.38739895820618	1.0000200271606445
25	121.56600999832153	movie	1		247	23.0	2.5	/experiments/AOT/AOT_stimuli/rescaled_final/0039_rv.mp4	0.0	142.38741898536682	2.49993896484375
25	121.94888591766357	pulse	1	t		23.0	2.5	/experiments/AOT/AOT_stimuli/rescaled_final/0039_rv.mp4	0.0	142.77029490470886	
25	123.54945087432861	pulse	1	t		23.0	2.5	/experiments/AOT/AOT_stimuli/rescaled_final/0039_rv.mp4	0.0	144.3708598613739	
25	124.06594896316528	fix_post	2		12	23.0	2.5	/experiments/AOT/AOT_stimuli/rescaled_final/0039_rv.mp4	0.0	144.88735795021057	0.10004901885986328
26	124.16599798202515	fix_pre	0		119	24.0	2.5	/experiments/AOT/AOT_stimuli/rescaled_final/0857_rv.mp4	0.0	144.98740696907043	0.9916830062866211
26	125.14947891235352	pulse	0	t		24.0	2.5	/experiments/AOT/AOT_stimuli/rescaled_final/0857_rv.mp4	0.0	145.9708878993988	
26	125.15768098831177	movie	1		246	24.0	2.5	/experiments/AOT/AOT_stimuli/rescaled_final/0857_rv.mp4	0.0	145.97908997535706	2.507941961288452
26	126.74947381019592	pulse	1	t		24.0	2.5	/experiments/AOT/AOT_stimuli/rescaled_final/0857_rv.mp4	0.0	147.5708827972412	
26	127.66562294960022	fix_post	2		12	24.0	2.5	/experiments/AOT/AOT_stimuli/rescaled_final/0857_rv.mp4	0.0	148.4870319366455	0.1003119945526123
27	127.76593494415283	fix_pre	0		120	25.0	2.5	/experiments/AOT/AOT_stimuli/rescaled_final/1627_rv.mp4	0.0	148.58734393119812	1.0000240802764893
27	128.3493950366974	pulse	0	t		25.0	2.5	/experiments/AOT/AOT_stimuli/rescaled_final/1627_rv.mp4	0.0	149.17080402374268	
27	128.76595902442932	movie	1		243	25.0	2.5	/experiments/AOT/AOT_stimuli/rescaled_final/1627_rv.mp4	0.0	149.5873680114746	2.500018835067749
27	129.9494650363922	pulse	1	t		25.0	2.5	/experiments/AOT/AOT_stimuli/rescaled_final/1627_rv.mp4	0.0	150.7708740234375	
27	131.26597785949707	fix_post	2		12	25.0	2.5	/experiments/AOT/AOT_stimuli/rescaled_final/1627_rv.mp4	0.0	152.08738684654236	0.09999608993530273
28	131.36597394943237	fix_pre	0		120	26.0	2.5	/experiments/AOT/AOT_stimuli/rescaled_final/2103_fw.mp4	0.0	152.18738293647766	1.0000050067901611
28	131.5494499206543	pulse	0	t		26.0	2.5	/experiments/AOT/AOT_stimuli/rescaled_final/2103_fw.mp4	0.0	152.37085890769958	
28	132.36597895622253	movie	1		243	26.0	2.5	/experiments/AOT/AOT_stimuli/rescaled_final/2103_fw.mp4	0.0	153.18738794326782	2.5000219345092773
28	133.1494059562683	pulse	1	t		26.0	2.5	/experiments/AOT/AOT_stimuli/rescaled_final/2103_fw.mp4	0.0	153.9708149433136	
28	134.74835181236267	pulse	1	t		26.0	2.5	/experiments/AOT/AOT_stimuli/rescaled_final/2103_fw.mp4	0.0	155.56976079940796	
28	134.8660008907318	fix_post	2		12	26.0	2.5	/experiments/AOT/AOT_stimuli/rescaled_final/2103_fw.mp4	0.0	155.6874098777771	0.10004997253417969
29	134.966050863266	fix_pre	0		120	27.0	2.5	/experiments/AOT/AOT_stimuli/rescaled_final/0496_rv.mp4	0.0	155.78745985031128	0.9998781681060791
29	135.96592903137207	movie	1		244	27.0	2.5	/experiments/AOT/AOT_stimuli/rescaled_final/0496_rv.mp4	0.0	156.78733801841736	2.499980926513672
29	136.34900283813477	pulse	1	t		27.0	2.5	/experiments/AOT/AOT_stimuli/rescaled_final/0496_rv.mp4	0.0	157.17041182518005	
29	137.9493978023529	pulse	1	t		27.0	2.5	/experiments/AOT/AOT_stimuli/rescaled_final/0496_rv.mp4	0.0	158.7708067893982	
29	138.46590995788574	fix_post	2		12	27.0	2.5	/experiments/AOT/AOT_stimuli/rescaled_final/0496_rv.mp4	0.0	159.28731894493103	0.09994292259216309
30	138.5658528804779	fix_pre	0		119	28.0	2.5	blank	1.0	159.3872618675232	0.9916441440582275
30	139.54950785636902	pulse	0	t		28.0	2.5	blank	1.0	160.3709168434143	
30	139.55749702453613	movie	1		301	28.0	2.5	blank	1.0	160.37890601158142	2.5084288120269775
30	141.14941787719727	pulse	1	t		28.0	2.5	blank	1.0	161.97082686424255	
30	142.0659258365631	fix_post	2		12	28.0	2.5	blank	1.0	162.8873348236084	0.09968209266662598
31	142.16560792922974	fix_pre	0		120	29.0	2.5	/experiments/AOT/AOT_stimuli/rescaled_final/0377_rv.mp4	0.0	162.98701691627502	1.000262975692749
31	142.74937200546265	pulse	0	t		29.0	2.5	/experiments/AOT/AOT_stimuli/rescaled_final/0377_rv.mp4	0.0	163.57078099250793	
31	143.16587090492249	movie	1		244	29.0	2.5	/experiments/AOT/AOT_stimuli/rescaled_final/0377_rv.mp4	0.0	163.98727989196777	2.499943971633911
31	144.34950494766235	pulse	1	t		29.0	2.5	/experiments/AOT/AOT_stimuli/rescaled_final/0377_rv.mp4	0.0	165.17091393470764	
31	145.6658148765564	fix_post	2		12	29.0	2.5	/experiments/AOT/AOT_stimuli/rescaled_final/0377_rv.mp4	0.0	166.48722386360168	0.10003995895385742
32	145.76585483551025	fix_pre	0		120	30.0	2.5	/experiments/AOT/AOT_stimuli/rescaled_final/1627_fw.mp4	0.0	166.58726382255554	1.0000450611114502
32	145.94936084747314	pulse	0	t		30.0	2.5	/experiments/AOT/AOT_stimuli/rescaled_final/1627_fw.mp4	0.0	166.77076983451843	
32	146.7658998966217	movie	1		244	30.0	2.5	/experiments/AOT/AOT_stimuli/rescaled_final/1627_fw.mp4	0.0	167.587308883667	2.500080108642578
32	147.5488498210907	pulse	1	t		30.0	2.5	/experiments/AOT/AOT_stimuli/rescaled_final/1627_fw.mp4	0.0	168.370258808136	
32	149.1475338935852	pulse	1	t		30.0	2.5	/experiments/AOT/AOT_stimuli/rescaled_final/1627_fw.mp4	0.0	169.9689428806305	
32	149.26598000526428	fix_post	2		12	30.0	2.5	/experiments/AOT/AOT_stimuli/rescaled_final/1627_fw.mp4	0.0	170.08738899230957	0.10004186630249023
33	149.36602187156677	fix_pre	0		120	31.0	2.5	/experiments/AOT/AOT_stimuli/rescaled_final/0057_rv.mp4	0.0	170.18743085861206	0.9997260570526123
33	150.36574792861938	movie	1		246	31.0	2.5	/experiments/AOT/AOT_stimuli/rescaled_final/0057_rv.mp4	0.0	171.18715691566467	2.500077962875366
33	150.7487599849701	pulse	1	t		31.0	2.5	/experiments/AOT/AOT_stimuli/rescaled_final/0057_rv.mp4	0.0	171.57016897201538	
33	152.3492510318756	pulse	1	t		31.0	2.5	/experiments/AOT/AOT_stimuli/rescaled_final/0057_rv.mp4	0.0	173.1706600189209	
33	152.86582589149475	fix_post	2		12	31.0	2.5	/experiments/AOT/AOT_stimuli/rescaled_final/0057_rv.mp4	0.0	173.68723487854004	0.09995412826538086
34	152.96578001976013	fix_pre	0		119	32.0	2.5	/experiments/AOT/AOT_stimuli/rescaled_final/1170_rv.mp4	0.0	173.78718900680542	0.9916718006134033
34	153.9493749141693	pulse	0	t		32.0	2.5	/experiments/AOT/AOT_stimuli/rescaled_final/1170_rv.mp4	0.0	174.7707839012146	
34	153.95745182037354	movie	1		244	32.0	2.5	/experiments/AOT/AOT_stimuli/rescaled_final/1170_rv.mp4	0.0	174.77886080741882	2.5083110332489014
34	155.54903292655945	pulse	1	t		32.0	2.5	/experiments/AOT/AOT_stimuli/rescaled_final/1170_rv.mp4	0.0	176.37044191360474	
34	156.46576285362244	fix_post	2		12	32.0	2.5	/experiments/AOT/AOT_stimuli/rescaled_final/1170_rv.mp4	0.0	177.28717184066772	0.09997797012329102
35	156.56574082374573	fix_pre	0		120	33.0	2.5	blank	1.0	177.38714981079102	0.9999880790710449
35	157.14927792549133	pulse	0	t		33.0	2.5	blank	1.0	177.97068691253662	
35	157.56572890281677	movie	1		300	33.0	2.5	blank	1.0	178.38713788986206	2.500062942504883
35	158.7492618560791	pulse	1	t		33.0	2.5	blank	1.0	179.5706708431244	
35	160.06579184532166	fix_post	2		12	33.0	2.5	blank	1.0	180.88720083236694	0.09992098808288574
36	160.16571283340454	fix_pre	0		120	34.0	2.5	/experiments/AOT/AOT_stimuli/rescaled_final/0188_rv.mp4	0.0	180.98712182044983	1.0000081062316895
36	160.34923601150513	pulse	0	t		34.0	2.5	/experiments/AOT/AOT_stimuli/rescaled_final/0188_rv.mp4	0.0	181.17064499855042	
36	161.16572093963623	movie	1		246	34.0	2.5	/experiments/AOT/AOT_stimuli/rescaled_final/0188_rv.mp4	0.0	181.98712992668152	2.4999849796295166
36	161.9492130279541	pulse	1	t		34.0	2.5	/experiments/AOT/AOT_stimuli/rescaled_final/0188_rv.mp4	0.0	182.7706220149994	
36	163.54817986488342	pulse	1	t		34.0	2.5	/experiments/AOT/AOT_stimuli/rescaled_final/0188_rv.mp4	0.0	184.3695888519287	
36	163.66570591926575	fix_post	2		12	34.0	2.5	/experiments/AOT/AOT_stimuli/rescaled_final/0188_rv.mp4	0.0	184.48711490631104	0.10004711151123047
37	163.76575303077698	fix_pre	0		120	35.0	2.5	/experiments/AOT/AOT_stimuli/rescaled_final/0783_rv.mp4	0.0	184.58716201782227	0.9999818801879883
37	164.76573491096497	movie	1		247	35.0	2.5	/experiments/AOT/AOT_stimuli/rescaled_final/0783_rv.mp4	0.0	185.58714389801025	2.4999430179595947
37	165.14875292778015	pulse	1	t		35.0	2.5	/experiments/AOT/AOT_stimuli/rescaled_final/0783_rv.mp4	0.0	185.97016191482544	
37	166.74921584129333	pulse	1	t		35.0	2.5	/experiments/AOT/AOT_stimuli/rescaled_final/0783_rv.mp4	0.0	187.57062482833862	
37	167.26567792892456	fix_post	2		12	35.0	2.5	/experiments/AOT/AOT_stimuli/rescaled_final/0783_rv.mp4	0.0	188.08708691596985	0.1000680923461914
38	167.36574602127075	fix_pre	0		119	36.0	2.5	/experiments/AOT/AOT_stimuli/rescaled_final/1674_fw.mp4	0.0	188.18715500831604	0.9916038513183594
38	168.3491518497467	pulse	0	t		36.0	2.5	/experiments/AOT/AOT_stimuli/rescaled_final/1674_fw.mp4	0.0	189.170560836792	
38	168.3573498725891	movie	1		246	36.0	2.5	/experiments/AOT/AOT_stimuli/rescaled_final/1674_fw.mp4	0.0	189.1787588596344	2.508389949798584
38	169.94903802871704	pulse	1	t		36.0	2.5	/experiments/AOT/AOT_stimuli/rescaled_final/1674_fw.mp4	0.0	190.77044701576233	
38	170.8657398223877	fix_post	2		12	36.0	2.5	/experiments/AOT/AOT_stimuli/rescaled_final/1674_fw.mp4	0.0	191.68714880943298	0.09990310668945312
39	170.96564292907715	fix_pre	0		120	37.0	2.5	/experiments/AOT/AOT_stimuli/rescaled_final/0835_fw.mp4	0.0	191.78705191612244	1.0000369548797607
39	171.54923486709595	pulse	0	t		37.0	2.5	/experiments/AOT/AOT_stimuli/rescaled_final/0835_fw.mp4	0.0	192.37064385414124	
39	171.9656798839569	movie	1		244	37.0	2.5	/experiments/AOT/AOT_stimuli/rescaled_final/0835_fw.mp4	0.0	192.7870888710022	2.5001559257507324
39	173.1493628025055	pulse	1	t		37.0	2.5	/experiments/AOT/AOT_stimuli/rescaled_final/0835_fw.mp4	0.0	193.97077178955078	
39	174.46583580970764	fix_post	2		12	37.0	2.5	/experiments/AOT/AOT_stimuli/rescaled_final/0835_fw.mp4	0.0	195.28724479675293	0.09985017776489258
40	174.56568598747253	fix_pre	0		120	38.0	2.5	/experiments/AOT/AOT_stimuli/rescaled_final/1606_fw.mp4	0.0	195.38709497451782	1.0000669956207275
40	174.74933981895447	pulse	0	t		38.0	2.5	/experiments/AOT/AOT_stimuli/rescaled_final/1606_fw.mp4	0.0	195.57074880599976	
40	175.56575298309326	movie	1		243	38.0	2.5	/experiments/AOT/AOT_stimuli/rescaled_final/1606_fw.mp4	0.0	196.38716197013855	2.499903917312622
40	176.34907484054565	pulse	1	t		38.0	2.5	/experiments/AOT/AOT_stimuli/rescaled_final/1606_fw.mp4	0.0	197.17048382759094	
40	177.9475200176239	pulse	1	t		38.0	2.5	/experiments/AOT/AOT_stimuli/rescaled_final/1606_fw.mp4	0.0	198.7689290046692	
40	178.06565690040588	fix_post	2		12	38.0	2.5	/experiments/AOT/AOT_stimuli/rescaled_final/1606_fw.mp4	0.0	198.88706588745117	0.10002803802490234
41	178.1656849384308	fix_pre	0		120	39.0	2.5	/experiments/AOT/AOT_stimuli/rescaled_final/0450_fw.mp4	0.0	198.98709392547607	0.9995260238647461
41	179.16521096229553	movie	1		244	39.0	2.5	/experiments/AOT/AOT_stimuli/rescaled_final/0450_fw.mp4	0.0	199.98661994934082	2.5004589557647705
41	179.549400806427	pulse	1	t		39.0	2.5	/experiments/AOT/AOT_stimuli/rescaled_final/0450_fw.mp4	0.0	200.3708097934723	
41	181.14915084838867	pulse	1	t		39.0	2.5	/experiments/AOT/AOT_stimuli/rescaled_final/0450_fw.mp4	0.0	201.97055983543396	
41	181.6656699180603	fix_post	2		12	39.0	2.5	/experiments/AOT/AOT_stimuli/rescaled_final/0450_fw.mp4	0.0	202.4870789051056	0.10003900527954102
42	181.76570892333984	fix_pre	0		119	40.0	2.5	blank	1.0	202.58711791038513	0.9916539192199707
42	182.74917602539062	pulse	0	t		40.0	2.5	blank	1.0	203.5705850124359	
42	182.75736284255981	movie	1		301	40.0	2.5	blank	1.0	203.5787718296051	2.5083069801330566
42	184.34914183616638	pulse	1	t		40.0	2.5	blank	1.0	205.17055082321167	
42	185.26566982269287	fix_post	2		12	40.0	2.5	blank	1.0	206.08707880973816	0.10001206398010254
43	185.36568188667297	fix_pre	0		120	41.0	2.5	/experiments/AOT/AOT_stimuli/rescaled_final/1606_fw.mp4	0.0	206.18709087371826	0.9999790191650391
43	185.9491138458252	pulse	0	t		41.0	2.5	/experiments/AOT/AOT_stimuli/rescaled_final/1606_fw.mp4	0.0	206.77052283287048	
43	186.365660905838	movie	1		245	41.0	2.5	/experiments/AOT/AOT_stimuli/rescaled_final/1606_fw.mp4	0.0	207.1870698928833	2.499969005584717
43	187.54932284355164	pulse	1	t		41.0	2.5	/experiments/AOT/AOT_stimuli/rescaled_final/1606_fw.mp4	0.0	208.37073183059692	
43	188.86562991142273	fix_post	2		12	41.0	2.5	/experiments/AOT/AOT_stimuli/rescaled_final/1606_fw.mp4	0.0	209.68703889846802	0.10005998611450195
44	188.96568989753723	fix_pre	0		120	42.0	2.5	/experiments/AOT/AOT_stimuli/rescaled_final/1438_fw.mp4	0.0	209.78709888458252	0.9999611377716064
44	189.14914989471436	pulse	0	t		42.0	2.5	/experiments/AOT/AOT_stimuli/rescaled_final/1438_fw.mp4	0.0	209.97055888175964	
44	189.96565103530884	movie	1		246	42.0	2.5	/experiments/AOT/AOT_stimuli/rescaled_final/1438_fw.mp4	0.0	210.78706002235413	2.500002861022949
44	190.7490839958191	pulse	1	t		42.0	2.5	/experiments/AOT/AOT_stimuli/rescaled_final/1438_fw.mp4	0.0	211.57049298286438	
44	192.34806394577026	pulse	1	t		42.0	2.5	/experiments/AOT/AOT_stimuli/rescaled_final/1438_fw.mp4	0.0	213.16947293281555	
44	192.4656538963318	fix_post	2		12	42.0	2.5	/experiments/AOT/AOT_stimuli/rescaled_final/1438_fw.mp4	0.0	213.28706288337708	0.09989690780639648
45	192.56555080413818	fix_pre	0		120	43.0	2.5	/experiments/AOT/AOT_stimuli/rescaled_final/2171_rv.mp4	0.0	213.38695979118347	0.9996352195739746
45	193.56518602371216	movie	1		244	43.0	2.5	/experiments/AOT/AOT_stimuli/rescaled_final/2171_rv.mp4	0.0	214.38659501075745	2.5004398822784424
45	193.94925093650818	pulse	1	t		43.0	2.5	/experiments/AOT/AOT_stimuli/rescaled_final/2171_rv.mp4	0.0	214.77065992355347	
45	195.54909586906433	pulse	1	t		43.0	2.5	/experiments/AOT/AOT_stimuli/rescaled_final/2171_rv.mp4	0.0	216.37050485610962	
45	196.0656259059906	fix_post	2		12	43.0	2.5	/experiments/AOT/AOT_stimuli/rescaled_final/2171_rv.mp4	0.0	216.8870348930359	0.10000300407409668
46	196.1656289100647	fix_pre	0		119	44.0	2.5	/experiments/AOT/AOT_stimuli/rescaled_final/1774_fw.mp4	0.0	216.98703789710999	0.9915618896484375
46	197.14905786514282	pulse	0	t		44.0	2.5	/experiments/AOT/AOT_stimuli/rescaled_final/1774_fw.mp4	0.0	217.9704668521881	
46	197.15719079971313	movie	1		245	44.0	2.5	/experiments/AOT/AOT_stimuli/rescaled_final/1774_fw.mp4	0.0	217.97859978675842	2.508409023284912
46	198.74872994422913	pulse	1	t		44.0	2.5	/experiments/AOT/AOT_stimuli/rescaled_final/1774_fw.mp4	0.0	219.5701389312744	
46	199.66559982299805	fix_post	2		12	44.0	2.5	/experiments/AOT/AOT_stimuli/rescaled_final/1774_fw.mp4	0.0	220.48700881004333	0.09995818138122559
47	199.76555800437927	fix_pre	0		120	45.0	2.5	/experiments/AOT/AOT_stimuli/rescaled_final/1306_fw.mp4	0.0	220.58696699142456	1.0000078678131104
47	200.3491039276123	pulse	0	t		45.0	2.5	/experiments/AOT/AOT_stimuli/rescaled_final/1306_fw.mp4	0.0	221.1705129146576	
47	200.76556587219238	movie	1		244	45.0	2.5	/experiments/AOT/AOT_stimuli/rescaled_final/1306_fw.mp4	0.0	221.58697485923767	2.499598979949951
47	201.94919800758362	pulse	1	t		45.0	2.5	/experiments/AOT/AOT_stimuli/rescaled_final/1306_fw.mp4	0.0	222.7706069946289	
47	203.26516485214233	fix_post	2		12	45.0	2.5	/experiments/AOT/AOT_stimuli/rescaled_final/1306_fw.mp4	0.0	224.08657383918762	0.09999608993530273
48	203.36516094207764	fix_pre	0		120	46.0	2.5	/experiments/AOT/AOT_stimuli/rescaled_final/0631_rv.mp4	0.0	224.18656992912292	1.000459909439087
48	203.54869294166565	pulse	0	t		46.0	2.5	/experiments/AOT/AOT_stimuli/rescaled_final/0631_rv.mp4	0.0	224.37010192871094	
48	204.36562085151672	movie	1		244	46.0	2.5	/experiments/AOT/AOT_stimuli/rescaled_final/0631_rv.mp4	0.0	225.187029838562	2.4999380111694336
48	205.14923882484436	pulse	1	t		46.0	2.5	/experiments/AOT/AOT_stimuli/rescaled_final/0631_rv.mp4	0.0	225.97064781188965	
48	206.74898195266724	pulse	1	t		46.0	2.5	/experiments/AOT/AOT_stimuli/rescaled_final/0631_rv.mp4	0.0	227.57039093971252	
48	206.86555886268616	fix_post	2		12	46.0	2.5	/experiments/AOT/AOT_stimuli/rescaled_final/0631_rv.mp4	0.0	227.68696784973145	0.10002017021179199
49	206.96557903289795	fix_pre	0		120	47.0	2.5	blank	1.0	227.78698801994324	0.9999768733978271
49	207.96555590629578	movie	1		300	47.0	2.5	blank	1.0	228.78696489334106	2.4999899864196777
49	208.34905791282654	pulse	1	t		47.0	2.5	blank	1.0	229.17046689987183	
49	209.9491159915924	pulse	1	t		47.0	2.5	blank	1.0	230.7705249786377	
49	210.46554589271545	fix_post	2		12	47.0	2.5	blank	1.0	231.28695487976074	0.09997892379760742
50	210.56552481651306	fix_pre	0		119	48.0	2.5	/experiments/AOT/AOT_stimuli/rescaled_final/1884_fw.mp4	0.0	231.38693380355835	0.9916090965270996
50	211.54894089698792	pulse	0	t		48.0	2.5	/experiments/AOT/AOT_stimuli/rescaled_final/1884_fw.mp4	0.0	232.3703498840332	
50	211.55713391304016	movie	1		247	48.0	2.5	/experiments/AOT/AOT_stimuli/rescaled_final/1884_fw.mp4	0.0	232.37854290008545	2.5083389282226562
50	213.14864802360535	pulse	1	t		48.0	2.5	/experiments/AOT/AOT_stimuli/rescaled_final/1884_fw.mp4	0.0	233.97005701065063	
50	214.06547284126282	fix_post	2		12	48.0	2.5	/experiments/AOT/AOT_stimuli/rescaled_final/1884_fw.mp4	0.0	234.8868818283081	0.10001111030578613
51	214.1654839515686	fix_pre	0		120	49.0	2.5	/experiments/AOT/AOT_stimuli/rescaled_final/0988_fw.mp4	0.0	234.9868929386139	1.0000579357147217
51	214.74890780448914	pulse	0	t		49.0	2.5	/experiments/AOT/AOT_stimuli/rescaled_final/0988_fw.mp4	0.0	235.57031679153442	
51	215.16554188728333	movie	1		243	49.0	2.5	/experiments/AOT/AOT_stimuli/rescaled_final/0988_fw.mp4	0.0	235.9869508743286	2.4999420642852783
51	216.34904599189758	pulse	1	t		49.0	2.5	/experiments/AOT/AOT_stimuli/rescaled_final/0988_fw.mp4	0.0	237.17045497894287	
51	217.6654839515686	fix_post	2		12	49.0	2.5	/experiments/AOT/AOT_stimuli/rescaled_final/0988_fw.mp4	0.0	238.4868929386139	0.10010004043579102
52	217.7655839920044	fix_pre	0		120	50.0	2.5	/experiments/AOT/AOT_stimuli/rescaled_final/2171_fw.mp4	0.0	238.58699297904968	0.9998939037322998
52	217.94902086257935	pulse	0	t		50.0	2.5	/experiments/AOT/AOT_stimuli/rescaled_final/2171_fw.mp4	0.0	238.77042984962463	
52	218.7654778957367	movie	1		243	50.0	2.5	/experiments/AOT/AOT_stimuli/rescaled_final/2171_fw.mp4	0.0	239.58688688278198	2.500140905380249
52	219.5488998889923	pulse	1	t		50.0	2.5	/experiments/AOT/AOT_stimuli/rescaled_final/2171_fw.mp4	0.0	240.3703088760376	
52	221.14738583564758	pulse	1	t		50.0	2.5	/experiments/AOT/AOT_stimuli/rescaled_final/2171_fw.mp4	0.0	241.96879482269287	
52	221.26561880111694	fix_post	2		12	50.0	2.5	/experiments/AOT/AOT_stimuli/rescaled_final/2171_fw.mp4	0.0	242.08702778816223	0.09983515739440918
53	221.36545395851135	fix_pre	0		120	51.0	2.5	/experiments/AOT/AOT_stimuli/rescaled_final/1954_fw.mp4	0.0	242.18686294555664	1.0001220703125
53	222.36557602882385	movie	1		243	51.0	2.5	/experiments/AOT/AOT_stimuli/rescaled_final/1954_fw.mp4	0.0	243.18698501586914	2.4998278617858887
53	222.74878883361816	pulse	1	t		51.0	2.5	/experiments/AOT/AOT_stimuli/rescaled_final/1954_fw.mp4	0.0	243.57019782066345	
53	224.34895181655884	pulse	1	t		51.0	2.5	/experiments/AOT/AOT_stimuli/rescaled_final/1954_fw.mp4	0.0	245.17036080360413	
53	224.86540389060974	fix_post	2		12	51.0	2.5	/experiments/AOT/AOT_stimuli/rescaled_final/1954_fw.mp4	0.0	245.68681287765503	0.1000211238861084
54	224.96542501449585	fix_pre	0		119	52.0	2.5	/experiments/AOT/AOT_stimuli/rescaled_final/1814_fw.mp4	0.0	245.78683400154114	0.9916608333587646
54	225.94899201393127	pulse	0	t		52.0	2.5	/experiments/AOT/AOT_stimuli/rescaled_final/1814_fw.mp4	0.0	246.77040100097656	
54	225.95708584785461	movie	1		245	52.0	2.5	/experiments/AOT/AOT_stimuli/rescaled_final/1814_fw.mp4	0.0	246.7784948348999	2.508394956588745
54	227.54887890815735	pulse	1	t		52.0	2.5	/experiments/AOT/AOT_stimuli/rescaled_final/1814_fw.mp4	0.0	248.37028789520264	
54	228.46548080444336	fix_post	2		12	52.0	2.5	/experiments/AOT/AOT_stimuli/rescaled_final/1814_fw.mp4	0.0	249.28688979148865	0.10000109672546387
55	228.56548190116882	fix_pre	0		120	53.0	2.5	/experiments/AOT/AOT_stimuli/rescaled_final/1954_fw.mp4	0.0	249.3868908882141	1.0000460147857666
55	229.14891982078552	pulse	0	t		53.0	2.5	/experiments/AOT/AOT_stimuli/rescaled_final/1954_fw.mp4	0.0	249.9703288078308	
55	229.5655279159546	movie	1		245	53.0	2.5	/experiments/AOT/AOT_stimuli/rescaled_final/1954_fw.mp4	0.0	250.38693690299988	2.4998960494995117
55	230.74900603294373	pulse	1	t		53.0	2.5	/experiments/AOT/AOT_stimuli/rescaled_final/1954_fw.mp4	0.0	251.570415019989	
55	232.0654239654541	fix_post	2		12	53.0	2.5	/experiments/AOT/AOT_stimuli/rescaled_final/1954_fw.mp4	0.0	252.8868329524994	0.09992790222167969
56	232.16535186767578	fix_pre	0		120	54.0	2.5	/experiments/AOT/AOT_stimuli/rescaled_final/1814_rv.mp4	0.0	252.98676085472107	1.0000579357147217
56	232.34886384010315	pulse	0	t		54.0	2.5	/experiments/AOT/AOT_stimuli/rescaled_final/1814_rv.mp4	0.0	253.17027282714844	
56	233.1654098033905	movie	1		246	54.0	2.5	/experiments/AOT/AOT_stimuli/rescaled_final/1814_rv.mp4	0.0	253.9868187904358	2.499958038330078
56	233.94896984100342	pulse	1	t		54.0	2.5	/experiments/AOT/AOT_stimuli/rescaled_final/1814_rv.mp4	0.0	254.7703788280487	
56	235.54741883277893	pulse	1	t		54.0	2.5	/experiments/AOT/AOT_stimuli/rescaled_final/1814_rv.mp4	0.0	256.3688278198242	
56	235.66536784172058	fix_post	2		12	54.0	2.5	/experiments/AOT/AOT_stimuli/rescaled_final/1814_rv.mp4	0.0	256.48677682876587	0.10003519058227539
57	235.76540303230286	fix_pre	0		120	55.0	2.5	blank	1.0	256.58681201934814	1.0000038146972656
57	236.76540684700012	movie	1		300	55.0	2.5	blank	1.0	257.5868158340454	2.500012159347534
57	237.1488218307495	pulse	1	t		55.0	2.5	blank	1.0	257.9702308177948	
57	238.74888396263123	pulse	1	t		55.0	2.5	blank	1.0	259.5702929496765	
57	239.26541900634766	fix_post	2		12	55.0	2.5	blank	1.0	260.08682799339294	0.1000058650970459
58	239.3654248714447	fix_pre	0		119	56.0	2.5	/experiments/AOT/AOT_stimuli/rescaled_final/0871_rv.mp4	0.0	260.18683385849	0.991584062576294
58	240.34886002540588	pulse	0	t		56.0	2.5	/experiments/AOT/AOT_stimuli/rescaled_final/0871_rv.mp4	0.0	261.1702690124512	
58	240.357008934021	movie	1		245	56.0	2.5	/experiments/AOT/AOT_stimuli/rescaled_final/0871_rv.mp4	0.0	261.1784179210663	2.508362054824829
58	241.94976782798767	pulse	1	t		56.0	2.5	/experiments/AOT/AOT_stimuli/rescaled_final/0871_rv.mp4	0.0	262.77117681503296	
58	242.86537098884583	fix_post	2		12	56.0	2.5	/experiments/AOT/AOT_stimuli/rescaled_final/0871_rv.mp4	0.0	263.6867799758911	0.10002589225769043
59	242.96539688110352	fix_pre	0		120	57.0	2.5	/experiments/AOT/AOT_stimuli/rescaled_final/1681_fw.mp4	0.0	263.7868058681488	1.000049114227295
59	243.5487928390503	pulse	0	t		57.0	2.5	/experiments/AOT/AOT_stimuli/rescaled_final/1681_fw.mp4	0.0	264.3702018260956	
59	243.9654459953308	movie	1		243	57.0	2.5	/experiments/AOT/AOT_stimuli/rescaled_final/1681_fw.mp4	0.0	264.7868549823761	2.50007700920105
59	245.14893889427185	pulse	1	t		57.0	2.5	/experiments/AOT/AOT_stimuli/rescaled_final/1681_fw.mp4	0.0	265.97034788131714	
59	246.46552300453186	fix_post	2		12	57.0	2.5	/experiments/AOT/AOT_stimuli/rescaled_final/1681_fw.mp4	0.0	267.28693199157715	0.09980201721191406
60	246.56532502174377	fix_pre	0		120	58.0	2.5	/experiments/AOT/AOT_stimuli/rescaled_final/1606_rv.mp4	0.0	267.38673400878906	1.0000889301300049
60	246.74878692626953	pulse	0	t		58.0	2.5	/experiments/AOT/AOT_stimuli/rescaled_final/1606_rv.mp4	0.0	267.5701959133148	
60	247.56541395187378	movie	1		243	58.0	2.5	/experiments/AOT/AOT_stimuli/rescaled_final/1606_rv.mp4	0.0	268.38682293891907	2.5000109672546387
60	248.34879302978516	pulse	1	t		58.0	2.5	/experiments/AOT/AOT_stimuli/rescaled_final/1606_rv.mp4	0.0	269.17020201683044	
60	249.9473419189453	pulse	1	t		58.0	2.5	/experiments/AOT/AOT_stimuli/rescaled_final/1606_rv.mp4	0.0	270.7687509059906	
60	250.06542491912842	fix_post	2		12	58.0	2.5	/experiments/AOT/AOT_stimuli/rescaled_final/1606_rv.mp4	0.0	270.8868339061737	0.0998690128326416
61	250.16529393196106	fix_pre	0		120	59.0	2.5	/experiments/AOT/AOT_stimuli/rescaled_final/1262_rv.mp4	0.0	270.98670291900635	1.0000500679016113
61	251.16534399986267	movie	1		244	59.0	2.5	/experiments/AOT/AOT_stimuli/rescaled_final/1262_rv.mp4	0.0	271.98675298690796	2.4998979568481445
61	251.54837489128113	pulse	1	t		59.0	2.5	/experiments/AOT/AOT_stimuli/rescaled_final/1262_rv.mp4	0.0	272.3697838783264	
61	253.14880299568176	pulse	1	t		59.0	2.5	/experiments/AOT/AOT_stimuli/rescaled_final/1262_rv.mp4	0.0	273.97021198272705	
61	253.66524195671082	fix_post	2		12	59.0	2.5	/experiments/AOT/AOT_stimuli/rescaled_final/1262_rv.mp4	0.0	274.4866509437561	0.10012006759643555
62	253.76536202430725	fix_pre	0		119	60.0	2.5	/experiments/AOT/AOT_stimuli/rescaled_final/1804_rv.mp4	0.0	274.58677101135254	0.9915869235992432
62	254.74876594543457	pulse	0	t		60.0	2.5	/experiments/AOT/AOT_stimuli/rescaled_final/1804_rv.mp4	0.0	275.57017493247986	
62	254.7569489479065	movie	1		247	60.0	2.5	/experiments/AOT/AOT_stimuli/rescaled_final/1804_rv.mp4	0.0	275.5783579349518	2.5083999633789062
62	256.34836602211	pulse	1	t		60.0	2.5	/experiments/AOT/AOT_stimuli/rescaled_final/1804_rv.mp4	0.0	277.1697750091553	
62	257.2653489112854	fix_post	2		12	60.0	2.5	/experiments/AOT/AOT_stimuli/rescaled_final/1804_rv.mp4	0.0	278.0867578983307	0.09997200965881348
63	257.3653209209442	fix_pre	0		120	61.0	2.5	blank	1.0	278.1867299079895	1.000049114227295
63	257.95009088516235	pulse	0	t		61.0	2.5	blank	1.0	278.77149987220764	
63	258.3653700351715	movie	1		300	61.0	2.5	blank	1.0	279.1867790222168	2.500025987625122
63	259.5483818054199	pulse	1	t		61.0	2.5	blank	1.0	280.3697907924652	
63	260.86539602279663	fix_post	2		12	61.0	2.5	blank	1.0	281.6868050098419	0.10004878044128418
64	260.9654448032379	fix_pre	0		120	62.0	2.5	/experiments/AOT/AOT_stimuli/rescaled_final/0450_rv.mp4	0.0	281.7868537902832	0.9997081756591797
64	261.1489748954773	pulse	0	t		62.0	2.5	/experiments/AOT/AOT_stimuli/rescaled_final/0450_rv.mp4	0.0	281.9703838825226	
64	261.9651529788971	movie	1		244	62.0	2.5	/experiments/AOT/AOT_stimuli/rescaled_final/0450_rv.mp4	0.0	282.7865619659424	2.500174045562744
64	262.7489628791809	pulse	1	t		62.0	2.5	/experiments/AOT/AOT_stimuli/rescaled_final/0450_rv.mp4	0.0	283.5703718662262	
64	264.34736680984497	pulse	1	t		62.0	2.5	/experiments/AOT/AOT_stimuli/rescaled_final/0450_rv.mp4	0.0	285.16877579689026	
64	264.46532702445984	fix_post	2		12	62.0	2.5	/experiments/AOT/AOT_stimuli/rescaled_final/0450_rv.mp4	0.0	285.2867360115051	0.09997200965881348
65	264.56529903411865	fix_pre	0		120	63.0	2.5	/experiments/AOT/AOT_stimuli/rescaled_final/1419_rv.mp4	0.0	285.38670802116394	0.9995269775390625
65	265.5648260116577	movie	1		245	63.0	2.5	/experiments/AOT/AOT_stimuli/rescaled_final/1419_rv.mp4	0.0	286.386234998703	2.5003819465637207
65	265.9486849308014	pulse	1	t		63.0	2.5	/experiments/AOT/AOT_stimuli/rescaled_final/1419_rv.mp4	0.0	286.7700939178467	
65	267.54868483543396	pulse	1	t		63.0	2.5	/experiments/AOT/AOT_stimuli/rescaled_final/1419_rv.mp4	0.0	288.37009382247925	
65	268.06520795822144	fix_post	2		12	63.0	2.5	/experiments/AOT/AOT_stimuli/rescaled_final/1419_rv.mp4	0.0	288.8866169452667	0.10003995895385742
66	268.1652479171753	fix_pre	0		119	64.0	2.5	/experiments/AOT/AOT_stimuli/rescaled_final/0924_rv.mp4	0.0	288.9866569042206	0.991710901260376
66	269.14870285987854	pulse	0	t		64.0	2.5	/experiments/AOT/AOT_stimuli/rescaled_final/0924_rv.mp4	0.0	289.9701118469238	
66	269.15695881843567	movie	1		245	64.0	2.5	/experiments/AOT/AOT_stimuli/rescaled_final/0924_rv.mp4	0.0	289.97836780548096	2.5082621574401855
66	270.7481789588928	pulse	1	t		64.0	2.5	/experiments/AOT/AOT_stimuli/rescaled_final/0924_rv.mp4	0.0	291.5695879459381	
66	271.66522097587585	fix_post	2		12	64.0	2.5	/experiments/AOT/AOT_stimuli/rescaled_final/0924_rv.mp4	0.0	292.48662996292114	0.09991097450256348
67	271.7651319503784	fix_pre	0		120	65.0	2.5	/experiments/AOT/AOT_stimuli/rescaled_final/1186_rv.mp4	0.0	292.5865409374237	1.000166893005371
67	272.34875988960266	pulse	0	t		65.0	2.5	/experiments/AOT/AOT_stimuli/rescaled_final/1186_rv.mp4	0.0	293.17016887664795	
67	272.7652988433838	movie	1		245	65.0	2.5	/experiments/AOT/AOT_stimuli/rescaled_final/1186_rv.mp4	0.0	293.5867078304291	2.499906063079834
67	273.94885301589966	pulse	1	t		65.0	2.5	/experiments/AOT/AOT_stimuli/rescaled_final/1186_rv.mp4	0.0	294.77026200294495	
67	275.2652049064636	fix_post	2		12	65.0	2.5	/experiments/AOT/AOT_stimuli/rescaled_final/1186_rv.mp4	0.0	296.0866138935089	0.10001397132873535
68	275.36521887779236	fix_pre	0		120	66.0	2.5	/experiments/AOT/AOT_stimuli/rescaled_final/1636_fw.mp4	0.0	296.18662786483765	0.999985933303833
68	275.5486798286438	pulse	0	t		66.0	2.5	/experiments/AOT/AOT_stimuli/rescaled_final/1636_fw.mp4	0.0	296.3700888156891	
68	276.3652048110962	movie	1		247	66.0	2.5	/experiments/AOT/AOT_stimuli/rescaled_final/1636_fw.mp4	0.0	297.1866137981415	2.5000061988830566
68	277.1487169265747	pulse	1	t		66.0	2.5	/experiments/AOT/AOT_stimuli/rescaled_final/1636_fw.mp4	0.0	297.97012591362	
68	278.74870681762695	pulse	1	t		66.0	2.5	/experiments/AOT/AOT_stimuli/rescaled_final/1636_fw.mp4	0.0	299.57011580467224	
68	278.86521100997925	fix_post	2		12	66.0	2.5	/experiments/AOT/AOT_stimuli/rescaled_final/1636_fw.mp4	0.0	299.68661999702454	0.09996986389160156
69	278.96518087387085	fix_pre	0		120	67.0	2.5	/experiments/AOT/AOT_stimuli/rescaled_final/0507_fw.mp4	0.0	299.78658986091614	1.000082015991211
69	279.96526288986206	movie	1		245	67.0	2.5	/experiments/AOT/AOT_stimuli/rescaled_final/0507_fw.mp4	0.0	300.78667187690735	2.4999399185180664
69	280.34839391708374	pulse	1	t		67.0	2.5	/experiments/AOT/AOT_stimuli/rescaled_final/0507_fw.mp4	0.0	301.169802904129	
69	281.948734998703	pulse	1	t		67.0	2.5	/experiments/AOT/AOT_stimuli/rescaled_final/0507_fw.mp4	0.0	302.7701439857483	
69	282.4652028083801	fix_post	2		12	67.0	2.5	/experiments/AOT/AOT_stimuli/rescaled_final/0507_fw.mp4	0.0	303.2866117954254	0.0999600887298584
70	282.56516289711	fix_pre	0		119	68.0	2.5	blank	1.0	303.3865718841553	0.9916300773620605
70	283.54866194725037	pulse	0	t		68.0	2.5	blank	1.0	304.37007093429565	
70	283.55679297447205	movie	1		301	68.0	2.5	blank	1.0	304.37820196151733	2.5083799362182617
70	285.14868783950806	pulse	1	t		68.0	2.5	blank	1.0	305.97009682655334	
70	286.0651729106903	fix_post	2		12	68.0	2.5	blank	1.0	306.8865818977356	0.09995102882385254
71	286.16512393951416	fix_pre	0		120	69.0	2.5	/experiments/AOT/AOT_stimuli/rescaled_final/2084_fw.mp4	0.0	306.98653292655945	1.0000200271606445
71	286.74867582321167	pulse	0	t		69.0	2.5	/experiments/AOT/AOT_stimuli/rescaled_final/2084_fw.mp4	0.0	307.57008481025696	
71	287.1651439666748	movie	1		243	69.0	2.5	/experiments/AOT/AOT_stimuli/rescaled_final/2084_fw.mp4	0.0	307.9865529537201	2.5000479221343994
71	288.3486919403076	pulse	1	t		69.0	2.5	/experiments/AOT/AOT_stimuli/rescaled_final/2084_fw.mp4	0.0	309.1701009273529	
71	289.6651918888092	fix_post	2		12	69.0	2.5	/experiments/AOT/AOT_stimuli/rescaled_final/2084_fw.mp4	0.0	310.4866008758545	0.09996700286865234
72	289.76515889167786	fix_pre	0		120	70.0	2.5	/experiments/AOT/AOT_stimuli/rescaled_final/1248_rv.mp4	0.0	310.58656787872314	0.9999580383300781
72	289.9485778808594	pulse	0	t		70.0	2.5	/experiments/AOT/AOT_stimuli/rescaled_final/1248_rv.mp4	0.0	310.76998686790466	
72	290.76511693000793	movie	1		244	70.0	2.5	/experiments/AOT/AOT_stimuli/rescaled_final/1248_rv.mp4	0.0	311.5865259170532	2.500048875808716
72	291.5487208366394	pulse	1	t		70.0	2.5	/experiments/AOT/AOT_stimuli/rescaled_final/1248_rv.mp4	0.0	312.3701298236847	
72	293.14722990989685	pulse	1	t		70.0	2.5	/experiments/AOT/AOT_stimuli/rescaled_final/1248_rv.mp4	0.0	313.96863889694214	
72	293.26516580581665	fix_post	2		12	70.0	2.5	/experiments/AOT/AOT_stimuli/rescaled_final/1248_rv.mp4	0.0	314.08657479286194	0.10000300407409668
73	293.36516880989075	fix_pre	0		120	71.0	2.5	/experiments/AOT/AOT_stimuli/rescaled_final/1774_rv.mp4	0.0	314.18657779693604	1.0000250339508057
73	294.36519384384155	movie	1		245	71.0	2.5	/experiments/AOT/AOT_stimuli/rescaled_final/1774_rv.mp4	0.0	315.18660283088684	2.499972105026245
73	294.7489218711853	pulse	1	t		71.0	2.5	/experiments/AOT/AOT_stimuli/rescaled_final/1774_rv.mp4	0.0	315.5703308582306	
73	296.3485789299011	pulse	1	t		71.0	2.5	/experiments/AOT/AOT_stimuli/rescaled_final/1774_rv.mp4	0.0	317.1699879169464	
73	296.8651659488678	fix_post	2		12	71.0	2.5	/experiments/AOT/AOT_stimuli/rescaled_final/1774_rv.mp4	0.0	317.6865749359131	0.10001206398010254
74	296.9651780128479	fix_pre	0		119	72.0	2.5	/experiments/AOT/AOT_stimuli/rescaled_final/1248_rv.mp4	0.0	317.7865869998932	0.9916129112243652
74	297.94862389564514	pulse	0	t		72.0	2.5	/experiments/AOT/AOT_stimuli/rescaled_final/1248_rv.mp4	0.0	318.77003288269043	
74	297.95679092407227	movie	1		246	72.0	2.5	/experiments/AOT/AOT_stimuli/rescaled_final/1248_rv.mp4	0.0	318.77819991111755	2.508312940597534
74	299.54836201667786	pulse	1	t		72.0	2.5	/experiments/AOT/AOT_stimuli/rescaled_final/1248_rv.mp4	0.0	320.36977100372314	
74	300.4651038646698	fix_post	2		12	72.0	2.5	/experiments/AOT/AOT_stimuli/rescaled_final/1248_rv.mp4	0.0	321.2865128517151	0.09992814064025879
75	300.56503200531006	fix_pre	0		120	73.0	2.5	/experiments/AOT/AOT_stimuli/rescaled_final/0759_rv.mp4	0.0	321.38644099235535	1.0000319480895996
75	301.14863181114197	pulse	0	t		73.0	2.5	/experiments/AOT/AOT_stimuli/rescaled_final/0759_rv.mp4	0.0	321.97004079818726	
75	301.56506395339966	movie	1		248	73.0	2.5	/experiments/AOT/AOT_stimuli/rescaled_final/0759_rv.mp4	0.0	322.38647294044495	2.499614953994751
75	302.7486939430237	pulse	1	t		73.0	2.5	/experiments/AOT/AOT_stimuli/rescaled_final/0759_rv.mp4	0.0	323.57010293006897	
75	304.0646789073944	fix_post	2		12	73.0	2.5	/experiments/AOT/AOT_stimuli/rescaled_final/0759_rv.mp4	0.0	324.8860878944397	0.10044193267822266
76	304.16512084007263	fix_pre	0		120	74.0	2.5	/experiments/AOT/AOT_stimuli/rescaled_final/0410_rv.mp4	0.0	324.9865298271179	0.9999749660491943
76	304.34862303733826	pulse	0	t		74.0	2.5	/experiments/AOT/AOT_stimuli/rescaled_final/0410_rv.mp4	0.0	325.17003202438354	
76	305.1650958061218	movie	1		245	74.0	2.5	/experiments/AOT/AOT_stimuli/rescaled_final/0410_rv.mp4	0.0	325.9865047931671	2.5000221729278564
76	305.9485638141632	pulse	1	t		74.0	2.5	/experiments/AOT/AOT_stimuli/rescaled_final/0410_rv.mp4	0.0	326.7699728012085	
76	307.5485429763794	pulse	1	t		74.0	2.5	/experiments/AOT/AOT_stimuli/rescaled_final/0410_rv.mp4	0.0	328.3699519634247	
76	307.6651179790497	fix_post	2		12	74.0	2.5	/experiments/AOT/AOT_stimuli/rescaled_final/0410_rv.mp4	0.0	328.48652696609497	0.10001587867736816
77	307.76513385772705	fix_pre	0		120	75.0	2.5	blank	1.0	328.58654284477234	0.999885082244873
77	308.7650189399719	movie	1		300	75.0	2.5	blank	1.0	329.5864279270172	2.5001180171966553
77	309.1485438346863	pulse	1	t		75.0	2.5	blank	1.0	329.96995282173157	
77	310.74855279922485	pulse	1	t		75.0	2.5	blank	1.0	331.56996178627014	
77	311.2651369571686	fix_post	2		12	75.0	2.5	blank	1.0	332.08654594421387	0.0999288558959961
78	311.3650658130646	fix_pre	0		119	76.0	2.5	/experiments/AOT/AOT_stimuli/rescaled_final/0162_fw.mp4	0.0	332.18647480010986	0.9915711879730225
78	312.3485448360443	pulse	0	t		76.0	2.5	/experiments/AOT/AOT_stimuli/rescaled_final/0162_fw.mp4	0.0	333.1699538230896	
78	312.3566370010376	movie	1		248	76.0	2.5	/experiments/AOT/AOT_stimuli/rescaled_final/0162_fw.mp4	0.0	333.1780459880829	2.507999897003174
78	313.9483468532562	pulse	1	t		76.0	2.5	/experiments/AOT/AOT_stimuli/rescaled_final/0162_fw.mp4	0.0	334.7697558403015	
78	314.86463689804077	fix_post	2		12	76.0	2.5	/experiments/AOT/AOT_stimuli/rescaled_final/0162_fw.mp4	0.0	335.68604588508606	0.10001206398010254
79	314.9646489620209	fix_pre	0		120	77.0	2.5	/experiments/AOT/AOT_stimuli/rescaled_final/1081_rv.mp4	0.0	335.78605794906616	1.0000488758087158
79	315.54857182502747	pulse	0	t		77.0	2.5	/experiments/AOT/AOT_stimuli/rescaled_final/1081_rv.mp4	0.0	336.36998081207275	
79	315.9646978378296	movie	1		245	77.0	2.5	/experiments/AOT/AOT_stimuli/rescaled_final/1081_rv.mp4	0.0	336.7861068248749	2.5003740787506104
79	317.1487720012665	pulse	1	t		77.0	2.5	/experiments/AOT/AOT_stimuli/rescaled_final/1081_rv.mp4	0.0	337.97018098831177	
79	318.4650719165802	fix_post	2		12	77.0	2.5	/experiments/AOT/AOT_stimuli/rescaled_final/1081_rv.mp4	0.0	339.2864809036255	0.09995603561401367
80	318.5650279521942	fix_pre	0		120	78.0	2.5	/experiments/AOT/AOT_stimuli/rescaled_final/0271_rv.mp4	0.0	339.3864369392395	0.9999949932098389
80	318.7485280036926	pulse	0	t		78.0	2.5	/experiments/AOT/AOT_stimuli/rescaled_final/0271_rv.mp4	0.0	339.5699369907379	
80	319.56502294540405	movie	1		245	78.0	2.5	/experiments/AOT/AOT_stimuli/rescaled_final/0271_rv.mp4	0.0	340.38643193244934	2.499891996383667
80	320.3484528064728	pulse	1	t		78.0	2.5	/experiments/AOT/AOT_stimuli/rescaled_final/0271_rv.mp4	0.0	341.16986179351807	
80	321.9468958377838	pulse	1	t		78.0	2.5	/experiments/AOT/AOT_stimuli/rescaled_final/0271_rv.mp4	0.0	342.7683048248291	
80	322.0649149417877	fix_post	2		12	78.0	2.5	/experiments/AOT/AOT_stimuli/rescaled_final/0271_rv.mp4	0.0	342.886323928833	0.10006093978881836
81	322.16497588157654	fix_pre	0		120	79.0	2.5	/experiments/AOT/AOT_stimuli/rescaled_final/1342_rv.mp4	0.0	342.9863848686218	1.0000150203704834
81	323.164990901947	movie	1		247	79.0	2.5	/experiments/AOT/AOT_stimuli/rescaled_final/1342_rv.mp4	0.0	343.9863998889923	2.4996449947357178
81	323.54829382896423	pulse	1	t		79.0	2.5	/experiments/AOT/AOT_stimuli/rescaled_final/1342_rv.mp4	0.0	344.3697028160095	
81	325.1484088897705	pulse	1	t		79.0	2.5	/experiments/AOT/AOT_stimuli/rescaled_final/1342_rv.mp4	0.0	345.9698178768158	
81	325.66463589668274	fix_post	2		12	79.0	2.5	/experiments/AOT/AOT_stimuli/rescaled_final/1342_rv.mp4	0.0	346.486044883728	0.10033512115478516
82	325.7649710178375	fix_pre	0		119	80.0	2.5	/experiments/AOT/AOT_stimuli/rescaled_final/1069_fw.mp4	0.0	346.5863800048828	0.9916768074035645
82	326.74853587150574	pulse	0	t		80.0	2.5	/experiments/AOT/AOT_stimuli/rescaled_final/1069_fw.mp4	0.0	347.569944858551	
82	326.7566478252411	movie	1		246	80.0	2.5	/experiments/AOT/AOT_stimuli/rescaled_final/1069_fw.mp4	0.0	347.5780568122864	2.5082621574401855
82	328.3481240272522	pulse	1	t		80.0	2.5	/experiments/AOT/AOT_stimuli/rescaled_final/1069_fw.mp4	0.0	349.1695330142975	
82	329.2649099826813	fix_post	2		12	80.0	2.5	/experiments/AOT/AOT_stimuli/rescaled_final/1069_fw.mp4	0.0	350.08631896972656	0.10006594657897949
83	329.36497592926025	fix_pre	0		120	81.0	2.5	/experiments/AOT/AOT_stimuli/rescaled_final/1318_rv.mp4	0.0	350.18638491630554	0.9999730587005615
83	329.9484498500824	pulse	0	t		81.0	2.5	/experiments/AOT/AOT_stimuli/rescaled_final/1318_rv.mp4	0.0	350.7698588371277	
83	330.3649489879608	movie	1		243	81.0	2.5	/experiments/AOT/AOT_stimuli/rescaled_final/1318_rv.mp4	0.0	351.1863579750061	2.5000479221343994
83	331.54849791526794	pulse	1	t		81.0	2.5	/experiments/AOT/AOT_stimuli/rescaled_final/1318_rv.mp4	0.0	352.36990690231323	
83	332.8649969100952	fix_post	2		12	81.0	2.5	/experiments/AOT/AOT_stimuli/rescaled_final/1318_rv.mp4	0.0	353.6864058971405	0.09992194175720215
84	332.9649188518524	fix_pre	0		120	82.0	2.5	blank	1.0	353.7863278388977	1.0000009536743164
84	333.1484429836273	pulse	0	t		82.0	2.5	blank	1.0	353.9698519706726	
84	333.96491980552673	movie	1		300	82.0	2.5	blank	1.0	354.786328792572	2.4995830059051514
84	334.7483489513397	pulse	1	t		82.0	2.5	blank	1.0	355.569757938385	
84	336.34843397140503	pulse	1	t		82.0	2.5	blank	1.0	357.1698429584503	
84	336.4645028114319	fix_post	2		12	82.0	2.5	blank	1.0	357.2859117984772	0.10050702095031738
85	336.5650098323822	fix_pre	0		120	83.0	2.5	/experiments/AOT/AOT_stimuli/rescaled_final/2141_rv.mp4	0.0	357.3864188194275	0.9998691082000732
85	337.5648789405823	movie	1		245	83.0	2.5	/experiments/AOT/AOT_stimuli/rescaled_final/2141_rv.mp4	0.0	358.38628792762756	2.4996120929718018
85	337.94790482521057	pulse	1	t		83.0	2.5	/experiments/AOT/AOT_stimuli/rescaled_final/2141_rv.mp4	0.0	358.76931381225586	
85	339.5484359264374	pulse	1	t		83.0	2.5	/experiments/AOT/AOT_stimuli/rescaled_final/2141_rv.mp4	0.0	360.36984491348267	
85	340.0644910335541	fix_post	2		12	83.0	2.5	/experiments/AOT/AOT_stimuli/rescaled_final/2141_rv.mp4	0.0	360.88590002059937	0.1003258228302002
87	340.1648168563843	stim	0		1716					360.98622584342957	14.300063133239746
87	341.1483588218689	pulse	0	t						361.9697678089142	
87	342.7483928203583	pulse	0	t						363.56980180740356	
87	344.34840393066406	pulse	0	t						365.16981291770935	
87	345.9484050273895	pulse	0	t						366.7698140144348	
87	347.54835081100464	pulse	0	t						368.3697597980499	
87	349.14835500717163	pulse	0	t						369.9697639942169	
87	350.7483389377594	pulse	0	t						371.5697479248047	
87	352.3484089374542	pulse	0	t						373.1698179244995	
87	353.94827699661255	pulse	0	t						374.76968598365784	
