trial_nr	onset	event_type	phase	response	nr_frames	movie_index	movie_duration	movie_file	blank	onset_abs	duration
0	0.1582634449005127	stim	0		72					13.685154676437378	0.5999529361724854
0	0.7501561641693115	response	0	space						14.277047395706177	
1	0.758216381072998	stim	0		4496					14.285107612609863	37.48186945915222
1	38.23027014732361	pulse	0	t						51.757161378860474	
1	38.24008584022522	stim	1		1716					51.766977071762085	14.300930261611938
1	39.82253551483154	pulse	1	t						53.34942674636841	
1	41.42278599739075	pulse	1	t						54.94967722892761	
1	43.014851093292236	pulse	1	t						56.5417423248291	
1	44.614943981170654	pulse	1	t						58.14183521270752	
1	46.21522641181946	pulse	1	t						59.74211764335632	
1	47.81538963317871	pulse	1	t						61.342280864715576	
1	49.41563010215759	pulse	1	t						62.94252133369446	
1	51.01599955558777	pulse	1	t						64.54289078712463	
2	52.54101610183716	fix_pre	0		10	0.0	2.5	/experiments/Knapen_AOT/AOT_stimuli/rescaled_final/0073_fw.mp4	0.0	66.06790733337402	0.09168553352355957
2	52.61614656448364	pulse	0	t		0.0	2.5	/experiments/Knapen_AOT/AOT_stimuli/rescaled_final/0073_fw.mp4	0.0	66.14303779602051	
2	52.63270163536072	movie	1		300	0.0	2.5	/experiments/Knapen_AOT/AOT_stimuli/rescaled_final/0073_fw.mp4	0.0	66.15959286689758	2.500366449356079
2	54.216487884521484	pulse	1	t		0.0	2.5	/experiments/Knapen_AOT/AOT_stimuli/rescaled_final/0073_fw.mp4	0.0	67.74337911605835	
2	55.1330680847168	fix_post	2		12	0.0	2.5	/experiments/Knapen_AOT/AOT_stimuli/rescaled_final/0073_fw.mp4	0.0	68.65995931625366	0.10002613067626953
3	55.233094215393066	fix_pre	0		120	1.0	2.5	/experiments/Knapen_AOT/AOT_stimuli/rescaled_final/1149_rv.mp4	0.0	68.75998544692993	1.0001564025878906
3	55.816720962524414	pulse	0	t		1.0	2.5	/experiments/Knapen_AOT/AOT_stimuli/rescaled_final/1149_rv.mp4	0.0	69.34361219406128	
3	56.23325061798096	movie	1		300	1.0	2.5	/experiments/Knapen_AOT/AOT_stimuli/rescaled_final/1149_rv.mp4	0.0	69.76014184951782	2.500365972518921
3	57.416974782943726	pulse	1	t		1.0	2.5	/experiments/Knapen_AOT/AOT_stimuli/rescaled_final/1149_rv.mp4	0.0	70.94386601448059	
3	58.73361659049988	fix_post	2		12	1.0	2.5	/experiments/Knapen_AOT/AOT_stimuli/rescaled_final/1149_rv.mp4	0.0	72.26050782203674	0.10000801086425781
4	58.833624601364136	fix_pre	0		120	2.0	2.5	/experiments/Knapen_AOT/AOT_stimuli/rescaled_final/0739_rv.mp4	0.0	72.360515832901	1.0001723766326904
4	59.017165422439575	pulse	0	t		2.0	2.5	/experiments/Knapen_AOT/AOT_stimuli/rescaled_final/0739_rv.mp4	0.0	72.54405665397644	
4	59.833796977996826	movie	1		300	2.0	2.5	/experiments/Knapen_AOT/AOT_stimuli/rescaled_final/0739_rv.mp4	0.0	73.36068820953369	2.5003502368927
4	60.61735796928406	pulse	1	t		2.0	2.5	/experiments/Knapen_AOT/AOT_stimuli/rescaled_final/0739_rv.mp4	0.0	74.14424920082092	
4	62.2176456451416	pulse	1	t		2.0	2.5	/experiments/Knapen_AOT/AOT_stimuli/rescaled_final/0739_rv.mp4	0.0	75.74453687667847	
4	62.334147214889526	fix_post	2		12	2.0	2.5	/experiments/Knapen_AOT/AOT_stimuli/rescaled_final/0739_rv.mp4	0.0	75.86103844642639	0.10001873970031738
5	62.434165954589844	fix_pre	0		120	3.0	2.5	/experiments/Knapen_AOT/AOT_stimuli/rescaled_final/0865_fw.mp4	0.0	75.96105718612671	1.0001778602600098
5	63.43434381484985	movie	1		299	3.0	2.5	/experiments/Knapen_AOT/AOT_stimuli/rescaled_final/0865_fw.mp4	0.0	76.96123504638672	2.492029905319214
5	63.81786823272705	pulse	1	t		3.0	2.5	/experiments/Knapen_AOT/AOT_stimuli/rescaled_final/0865_fw.mp4	0.0	77.34475946426392	
5	65.41813635826111	pulse	1	t		3.0	2.5	/experiments/Knapen_AOT/AOT_stimuli/rescaled_final/0865_fw.mp4	0.0	78.94502758979797	
5	65.92637372016907	fix_post	2		12	3.0	2.5	/experiments/Knapen_AOT/AOT_stimuli/rescaled_final/0865_fw.mp4	0.0	79.45326495170593	0.10002517700195312
6	66.02639889717102	fix_pre	0		120	4.0	2.5	/experiments/Knapen_AOT/AOT_stimuli/rescaled_final/0090_rv.mp4	0.0	79.55329012870789	1.000352144241333
6	67.01837754249573	pulse	0	t		4.0	2.5	/experiments/Knapen_AOT/AOT_stimuli/rescaled_final/0090_rv.mp4	0.0	80.54526877403259	
6	67.02675104141235	movie	1		301	4.0	2.5	/experiments/Knapen_AOT/AOT_stimuli/rescaled_final/0090_rv.mp4	0.0	80.55364227294922	2.508472442626953
6	68.61859035491943	pulse	1	t		4.0	2.5	/experiments/Knapen_AOT/AOT_stimuli/rescaled_final/0090_rv.mp4	0.0	82.1454815864563	
6	69.5352234840393	fix_post	2		12	4.0	2.5	/experiments/Knapen_AOT/AOT_stimuli/rescaled_final/0090_rv.mp4	0.0	83.06211471557617	0.1000211238861084
7	69.63524460792542	fix_pre	0		120	5.0	2.5	/experiments/Knapen_AOT/AOT_stimuli/rescaled_final/1489_rv.mp4	0.0	83.16213583946228	1.0001881122589111
7	70.21889162063599	pulse	0	t		5.0	2.5	/experiments/Knapen_AOT/AOT_stimuli/rescaled_final/1489_rv.mp4	0.0	83.74578285217285	
7	70.63543272018433	movie	1		299	5.0	2.5	/experiments/Knapen_AOT/AOT_stimuli/rescaled_final/1489_rv.mp4	0.0	84.16232395172119	2.500352144241333
7	71.81915020942688	pulse	1	t		5.0	2.5	/experiments/Knapen_AOT/AOT_stimuli/rescaled_final/1489_rv.mp4	0.0	85.34604144096375	
7	73.13578486442566	fix_post	2		12	5.0	2.5	/experiments/Knapen_AOT/AOT_stimuli/rescaled_final/1489_rv.mp4	0.0	86.66267609596252	0.10003280639648438
8	73.23581767082214	fix_pre	0		120	6.0	2.5	/experiments/Knapen_AOT/AOT_stimuli/rescaled_final/1630_rv.mp4	0.0	86.76270890235901	1.0001254081726074
8	73.4193172454834	pulse	0	t		6.0	2.5	/experiments/Knapen_AOT/AOT_stimuli/rescaled_final/1630_rv.mp4	0.0	86.94620847702026	
8	74.23594307899475	movie	1		300	6.0	2.5	/experiments/Knapen_AOT/AOT_stimuli/rescaled_final/1630_rv.mp4	0.0	87.76283431053162	2.500361919403076
8	75.01524758338928	pulse	1	t		6.0	2.5	/experiments/Knapen_AOT/AOT_stimuli/rescaled_final/1630_rv.mp4	0.0	88.54213881492615	
8	76.61544156074524	pulse	1	t		6.0	2.5	/experiments/Knapen_AOT/AOT_stimuli/rescaled_final/1630_rv.mp4	0.0	90.1423327922821	
8	76.73630499839783	fix_post	2		12	6.0	2.5	/experiments/Knapen_AOT/AOT_stimuli/rescaled_final/1630_rv.mp4	0.0	90.26319622993469	0.1000218391418457
9	76.83632683753967	fix_pre	0		120	7.0	2.5	blank	1.0	90.36321806907654	1.000145673751831
9	77.8364725112915	movie	1		299	7.0	2.5	blank	1.0	91.36336374282837	2.4920523166656494
9	78.22007083892822	pulse	1	t		7.0	2.5	blank	1.0	91.74696207046509	
9	79.82025814056396	pulse	1	t		7.0	2.5	blank	1.0	93.34714937210083	
9	80.32852482795715	fix_post	2		12	7.0	2.5	blank	1.0	93.85541605949402	0.10000753402709961
10	80.42853236198425	fix_pre	0		120	8.0	2.5	/experiments/Knapen_AOT/AOT_stimuli/rescaled_final/1138_fw.mp4	0.0	93.95542359352112	1.0084962844848633
10	81.42047166824341	pulse	0	t		8.0	2.5	/experiments/Knapen_AOT/AOT_stimuli/rescaled_final/1138_fw.mp4	0.0	94.94736289978027	
10	81.43702864646912	movie	1		300	8.0	2.5	/experiments/Knapen_AOT/AOT_stimuli/rescaled_final/1138_fw.mp4	0.0	94.96391987800598	2.5004613399505615
10	83.01777172088623	pulse	1	t		8.0	2.5	/experiments/Knapen_AOT/AOT_stimuli/rescaled_final/1138_fw.mp4	0.0	96.5446629524231	
10	83.93748998641968	fix_post	2		12	8.0	2.5	/experiments/Knapen_AOT/AOT_stimuli/rescaled_final/1138_fw.mp4	0.0	97.46438121795654	0.09992361068725586
11	84.03741359710693	fix_pre	0		120	9.0	2.5	/experiments/Knapen_AOT/AOT_stimuli/rescaled_final/0526_fw.mp4	0.0	97.5643048286438	1.0001239776611328
11	84.62095284461975	pulse	0	t		9.0	2.5	/experiments/Knapen_AOT/AOT_stimuli/rescaled_final/0526_fw.mp4	0.0	98.14784407615662	
11	85.03753757476807	movie	1		300	9.0	2.5	/experiments/Knapen_AOT/AOT_stimuli/rescaled_final/0526_fw.mp4	0.0	98.56442880630493	2.500417947769165
11	86.21715593338013	pulse	1	t		9.0	2.5	/experiments/Knapen_AOT/AOT_stimuli/rescaled_final/0526_fw.mp4	0.0	99.74404716491699	
11	87.53795552253723	fix_post	2		12	9.0	2.5	/experiments/Knapen_AOT/AOT_stimuli/rescaled_final/0526_fw.mp4	0.0	101.0648467540741	0.09999656677246094
12	87.63795208930969	fix_pre	0		120	10.0	2.5	/experiments/Knapen_AOT/AOT_stimuli/rescaled_final/0540_rv.mp4	0.0	101.16484332084656	1.0001513957977295
12	87.82144737243652	pulse	0	t		10.0	2.5	/experiments/Knapen_AOT/AOT_stimuli/rescaled_final/0540_rv.mp4	0.0	101.34833860397339	
12	88.63810348510742	movie	1		300	10.0	2.5	/experiments/Knapen_AOT/AOT_stimuli/rescaled_final/0540_rv.mp4	0.0	102.16499471664429	2.500375986099243
12	89.41728520393372	pulse	1	t		10.0	2.5	/experiments/Knapen_AOT/AOT_stimuli/rescaled_final/0540_rv.mp4	0.0	102.94417643547058	
12	91.01758408546448	pulse	1	t		10.0	2.5	/experiments/Knapen_AOT/AOT_stimuli/rescaled_final/0540_rv.mp4	0.0	104.54447531700134	
12	91.13847947120667	fix_post	2		12	10.0	2.5	/experiments/Knapen_AOT/AOT_stimuli/rescaled_final/0540_rv.mp4	0.0	104.66537070274353	0.10001683235168457
13	91.23849630355835	fix_pre	0		120	11.0	2.5	/experiments/Knapen_AOT/AOT_stimuli/rescaled_final/0809_fw.mp4	0.0	104.76538753509521	1.0001442432403564
13	92.2386405467987	movie	1		299	11.0	2.5	/experiments/Knapen_AOT/AOT_stimuli/rescaled_final/0809_fw.mp4	0.0	105.76553177833557	2.4920294284820557
13	92.61827564239502	pulse	1	t		11.0	2.5	/experiments/Knapen_AOT/AOT_stimuli/rescaled_final/0809_fw.mp4	0.0	106.14516687393188	
13	94.21822309494019	pulse	1	t		11.0	2.5	/experiments/Knapen_AOT/AOT_stimuli/rescaled_final/0809_fw.mp4	0.0	107.74511432647705	
13	94.73066997528076	fix_post	2		12	11.0	2.5	/experiments/Knapen_AOT/AOT_stimuli/rescaled_final/0809_fw.mp4	0.0	108.25756120681763	0.10001850128173828
14	94.8306884765625	fix_pre	0		120	12.0	2.5	blank	1.0	108.35757970809937	1.0001575946807861
14	95.82264423370361	pulse	0	t		12.0	2.5	blank	1.0	109.34953546524048	
14	95.83084607124329	movie	1		301	12.0	2.5	blank	1.0	109.35773730278015	2.5087084770202637
14	97.42287063598633	pulse	1	t		12.0	2.5	blank	1.0	110.9497618675232	
14	98.33955454826355	fix_post	2		12	12.0	2.5	blank	1.0	111.86644577980042	0.10002493858337402
15	98.43957948684692	fix_pre	0		120	13.0	2.5	/experiments/Knapen_AOT/AOT_stimuli/rescaled_final/1858_rv.mp4	0.0	111.96647071838379	1.0003697872161865
15	99.02328968048096	pulse	0	t		13.0	2.5	/experiments/Knapen_AOT/AOT_stimuli/rescaled_final/1858_rv.mp4	0.0	112.55018091201782	
15	99.43994927406311	movie	1		300	13.0	2.5	/experiments/Knapen_AOT/AOT_stimuli/rescaled_final/1858_rv.mp4	0.0	112.96684050559998	2.500185966491699
15	100.61916065216064	pulse	1	t		13.0	2.5	/experiments/Knapen_AOT/AOT_stimuli/rescaled_final/1858_rv.mp4	0.0	114.14605188369751	
15	101.94013524055481	fix_post	2		12	13.0	2.5	/experiments/Knapen_AOT/AOT_stimuli/rescaled_final/1858_rv.mp4	0.0	115.46702647209167	0.09998917579650879
16	102.04012441635132	fix_pre	0		120	14.0	2.5	/experiments/Knapen_AOT/AOT_stimuli/rescaled_final/0094_rv.mp4	0.0	115.56701564788818	1.0001401901245117
16	102.21550369262695	pulse	0	t		14.0	2.5	/experiments/Knapen_AOT/AOT_stimuli/rescaled_final/0094_rv.mp4	0.0	115.74239492416382	
16	103.04026460647583	movie	1		300	14.0	2.5	/experiments/Knapen_AOT/AOT_stimuli/rescaled_final/0094_rv.mp4	0.0	116.5671558380127	2.5003864765167236
16	103.81553339958191	pulse	1	t		14.0	2.5	/experiments/Knapen_AOT/AOT_stimuli/rescaled_final/0094_rv.mp4	0.0	117.34242463111877	
16	105.41578388214111	pulse	1	t		14.0	2.5	/experiments/Knapen_AOT/AOT_stimuli/rescaled_final/0094_rv.mp4	0.0	118.94267511367798	
16	105.54065108299255	fix_post	2		12	14.0	2.5	/experiments/Knapen_AOT/AOT_stimuli/rescaled_final/0094_rv.mp4	0.0	119.06754231452942	0.10001111030578613
17	105.64066219329834	fix_pre	0		120	15.0	2.5	/experiments/Knapen_AOT/AOT_stimuli/rescaled_final/0063_fw.mp4	0.0	119.1675534248352	1.0001797676086426
17	106.64084196090698	movie	1		299	15.0	2.5	/experiments/Knapen_AOT/AOT_stimuli/rescaled_final/0063_fw.mp4	0.0	120.16773319244385	2.492011785507202
17	107.01611828804016	pulse	1	t		15.0	2.5	/experiments/Knapen_AOT/AOT_stimuli/rescaled_final/0063_fw.mp4	0.0	120.54300951957703	
17	108.6162428855896	pulse	1	t		15.0	2.5	/experiments/Knapen_AOT/AOT_stimuli/rescaled_final/0063_fw.mp4	0.0	122.14313411712646	
17	109.13285374641418	fix_post	2		12	15.0	2.5	/experiments/Knapen_AOT/AOT_stimuli/rescaled_final/0063_fw.mp4	0.0	122.65974497795105	0.10001659393310547
18	109.23287034034729	fix_pre	0		119	16.0	2.5	/experiments/Knapen_AOT/AOT_stimuli/rescaled_final/1988_fw.mp4	0.0	122.75976157188416	0.9918878078460693
18	110.21650290489197	pulse	0	t		16.0	2.5	/experiments/Knapen_AOT/AOT_stimuli/rescaled_final/1988_fw.mp4	0.0	123.74339413642883	
18	110.22475814819336	movie	1		301	16.0	2.5	/experiments/Knapen_AOT/AOT_stimuli/rescaled_final/1988_fw.mp4	0.0	123.75164937973022	2.5086376667022705
18	111.81686115264893	pulse	1	t		16.0	2.5	/experiments/Knapen_AOT/AOT_stimuli/rescaled_final/1988_fw.mp4	0.0	125.34375238418579	
18	112.73339581489563	fix_post	2		12	16.0	2.5	/experiments/Knapen_AOT/AOT_stimuli/rescaled_final/1988_fw.mp4	0.0	126.2602870464325	0.10002279281616211
19	112.83341860771179	fix_pre	0		120	17.0	2.5	/experiments/Knapen_AOT/AOT_stimuli/rescaled_final/1322_rv.mp4	0.0	126.36030983924866	1.00014328956604
19	113.41698241233826	pulse	0	t		17.0	2.5	/experiments/Knapen_AOT/AOT_stimuli/rescaled_final/1322_rv.mp4	0.0	126.94387364387512	
19	113.83356189727783	movie	1		300	17.0	2.5	/experiments/Knapen_AOT/AOT_stimuli/rescaled_final/1322_rv.mp4	0.0	127.3604531288147	2.5003864765167236
19	115.01722598075867	pulse	1	t		17.0	2.5	/experiments/Knapen_AOT/AOT_stimuli/rescaled_final/1322_rv.mp4	0.0	128.54411721229553	
19	116.33394837379456	fix_post	2		12	17.0	2.5	/experiments/Knapen_AOT/AOT_stimuli/rescaled_final/1322_rv.mp4	0.0	129.86083960533142	0.10001039505004883
20	116.4339587688446	fix_pre	0		120	18.0	2.5	/experiments/Knapen_AOT/AOT_stimuli/rescaled_final/1306_fw.mp4	0.0	129.96085000038147	1.000145435333252
20	116.61744451522827	pulse	0	t		18.0	2.5	/experiments/Knapen_AOT/AOT_stimuli/rescaled_final/1306_fw.mp4	0.0	130.14433574676514	
20	117.43410420417786	movie	1		300	18.0	2.5	/experiments/Knapen_AOT/AOT_stimuli/rescaled_final/1306_fw.mp4	0.0	130.96099543571472	2.5003786087036133
20	118.21775603294373	pulse	1	t		18.0	2.5	/experiments/Knapen_AOT/AOT_stimuli/rescaled_final/1306_fw.mp4	0.0	131.7446472644806	
20	119.81800508499146	pulse	1	t		18.0	2.5	/experiments/Knapen_AOT/AOT_stimuli/rescaled_final/1306_fw.mp4	0.0	133.34489631652832	
20	119.93448281288147	fix_post	2		12	18.0	2.5	/experiments/Knapen_AOT/AOT_stimuli/rescaled_final/1306_fw.mp4	0.0	133.46137404441833	0.10003089904785156
21	120.03451371192932	fix_pre	0		120	19.0	2.5	/experiments/Knapen_AOT/AOT_stimuli/rescaled_final/2132_fw.mp4	0.0	133.5614049434662	1.0001351833343506
21	121.03464889526367	movie	1		299	19.0	2.5	/experiments/Knapen_AOT/AOT_stimuli/rescaled_final/2132_fw.mp4	0.0	134.56154012680054	2.492063522338867
21	121.41833162307739	pulse	1	t		19.0	2.5	/experiments/Knapen_AOT/AOT_stimuli/rescaled_final/2132_fw.mp4	0.0	134.94522285461426	
21	123.01841115951538	pulse	1	t		19.0	2.5	/experiments/Knapen_AOT/AOT_stimuli/rescaled_final/2132_fw.mp4	0.0	136.54530239105225	
21	123.52671241760254	fix_post	2		12	19.0	2.5	/experiments/Knapen_AOT/AOT_stimuli/rescaled_final/2132_fw.mp4	0.0	137.0536036491394	0.09999418258666992
22	123.62670660018921	fix_pre	0		120	20.0	2.5	blank	1.0	137.15359783172607	1.0001552104949951
22	124.6186466217041	pulse	0	t		20.0	2.5	blank	1.0	138.14553785324097	
22	124.6268618106842	movie	1		301	20.0	2.5	blank	1.0	138.15375304222107	2.5086991786956787
22	126.21889615058899	pulse	1	t		20.0	2.5	blank	1.0	139.74578738212585	
22	127.13556098937988	fix_post	2		12	20.0	2.5	blank	1.0	140.66245222091675	0.10002946853637695
23	127.23559045791626	fix_pre	0		120	21.0	2.5	/experiments/Knapen_AOT/AOT_stimuli/rescaled_final/1861_fw.mp4	0.0	140.76248168945312	1.00016450881958
23	127.81912183761597	pulse	0	t		21.0	2.5	/experiments/Knapen_AOT/AOT_stimuli/rescaled_final/1861_fw.mp4	0.0	141.34601306915283	
23	128.23575496673584	movie	1		300	21.0	2.5	/experiments/Knapen_AOT/AOT_stimuli/rescaled_final/1861_fw.mp4	0.0	141.7626461982727	2.5003561973571777
23	129.41943836212158	pulse	1	t		21.0	2.5	/experiments/Knapen_AOT/AOT_stimuli/rescaled_final/1861_fw.mp4	0.0	142.94632959365845	
23	130.73611116409302	fix_post	2		12	21.0	2.5	/experiments/Knapen_AOT/AOT_stimuli/rescaled_final/1861_fw.mp4	0.0	144.26300239562988	0.10001873970031738
24	130.83612990379333	fix_pre	0		120	22.0	2.5	/experiments/Knapen_AOT/AOT_stimuli/rescaled_final/1719_fw.mp4	0.0	144.3630211353302	1.0001184940338135
24	131.01960682868958	pulse	0	t		22.0	2.5	/experiments/Knapen_AOT/AOT_stimuli/rescaled_final/1719_fw.mp4	0.0	144.54649806022644	
24	131.83624839782715	movie	1		300	22.0	2.5	/experiments/Knapen_AOT/AOT_stimuli/rescaled_final/1719_fw.mp4	0.0	145.363139629364	2.5003907680511475
24	132.61987614631653	pulse	1	t		22.0	2.5	/experiments/Knapen_AOT/AOT_stimuli/rescaled_final/1719_fw.mp4	0.0	146.1467673778534	
24	134.21591973304749	pulse	1	t		22.0	2.5	/experiments/Knapen_AOT/AOT_stimuli/rescaled_final/1719_fw.mp4	0.0	147.74281096458435	
24	134.3366391658783	fix_post	2		12	22.0	2.5	/experiments/Knapen_AOT/AOT_stimuli/rescaled_final/1719_fw.mp4	0.0	147.86353039741516	0.10005617141723633
25	134.43669533729553	fix_pre	0		120	23.0	2.5	/experiments/Knapen_AOT/AOT_stimuli/rescaled_final/1936_fw.mp4	0.0	147.9635865688324	1.000119924545288
25	135.43681526184082	movie	1		298	23.0	2.5	/experiments/Knapen_AOT/AOT_stimuli/rescaled_final/1936_fw.mp4	0.0	148.96370649337769	2.4920384883880615
25	135.8164677619934	pulse	1	t		23.0	2.5	/experiments/Knapen_AOT/AOT_stimuli/rescaled_final/1936_fw.mp4	0.0	149.34335899353027	
25	137.4160566329956	pulse	1	t		23.0	2.5	/experiments/Knapen_AOT/AOT_stimuli/rescaled_final/1936_fw.mp4	0.0	150.94294786453247	
25	137.92885375022888	fix_post	2		12	23.0	2.5	/experiments/Knapen_AOT/AOT_stimuli/rescaled_final/1936_fw.mp4	0.0	151.45574498176575	0.10002422332763672
26	138.02887797355652	fix_pre	0		120	24.0	2.5	/experiments/Knapen_AOT/AOT_stimuli/rescaled_final/0918_rv.mp4	0.0	151.55576920509338	1.0004611015319824
26	139.02080583572388	pulse	0	t		24.0	2.5	/experiments/Knapen_AOT/AOT_stimuli/rescaled_final/0918_rv.mp4	0.0	152.54769706726074	
26	139.0293390750885	movie	1		301	24.0	2.5	/experiments/Knapen_AOT/AOT_stimuli/rescaled_final/0918_rv.mp4	0.0	152.55623030662537	2.508392333984375
26	140.61729049682617	pulse	1	t		24.0	2.5	/experiments/Knapen_AOT/AOT_stimuli/rescaled_final/0918_rv.mp4	0.0	154.14418172836304	
26	141.53773140907288	fix_post	2		12	24.0	2.5	/experiments/Knapen_AOT/AOT_stimuli/rescaled_final/0918_rv.mp4	0.0	155.06462264060974	0.10001754760742188
27	141.6377489566803	fix_pre	0		120	25.0	2.5	/experiments/Knapen_AOT/AOT_stimuli/rescaled_final/2178_rv.mp4	0.0	155.16464018821716	1.0001587867736816
27	142.22128176689148	pulse	0	t		25.0	2.5	/experiments/Knapen_AOT/AOT_stimuli/rescaled_final/2178_rv.mp4	0.0	155.74817299842834	
27	142.63790774345398	movie	1		300	25.0	2.5	/experiments/Knapen_AOT/AOT_stimuli/rescaled_final/2178_rv.mp4	0.0	156.16479897499084	2.500370740890503
27	143.81734418869019	pulse	1	t		25.0	2.5	/experiments/Knapen_AOT/AOT_stimuli/rescaled_final/2178_rv.mp4	0.0	157.34423542022705	
27	145.13827848434448	fix_post	2		12	25.0	2.5	/experiments/Knapen_AOT/AOT_stimuli/rescaled_final/2178_rv.mp4	0.0	158.66516971588135	0.10003304481506348
28	145.23831152915955	fix_pre	0		120	26.0	2.5	blank	1.0	158.7652027606964	1.000131607055664
28	145.42176389694214	pulse	0	t		26.0	2.5	blank	1.0	158.948655128479	
28	146.2384431362152	movie	1		300	26.0	2.5	blank	1.0	159.76533436775208	2.500377655029297
28	147.02202367782593	pulse	1	t		26.0	2.5	blank	1.0	160.5489149093628	
28	148.62235951423645	pulse	1	t		26.0	2.5	blank	1.0	162.14925074577332	
28	148.7388207912445	fix_post	2		12	26.0	2.5	blank	1.0	162.26571202278137	0.10006475448608398
29	148.8388855457306	fix_pre	0		120	27.0	2.5	/experiments/Knapen_AOT/AOT_stimuli/rescaled_final/1719_rv.mp4	0.0	162.36577677726746	1.0002057552337646
29	149.83909130096436	movie	1		298	27.0	2.5	/experiments/Knapen_AOT/AOT_stimuli/rescaled_final/1719_rv.mp4	0.0	163.36598253250122	2.492004156112671
29	150.21863532066345	pulse	1	t		27.0	2.5	/experiments/Knapen_AOT/AOT_stimuli/rescaled_final/1719_rv.mp4	0.0	163.74552655220032	
29	151.81831073760986	pulse	1	t		27.0	2.5	/experiments/Knapen_AOT/AOT_stimuli/rescaled_final/1719_rv.mp4	0.0	165.34520196914673	
29	152.33109545707703	fix_post	2		12	27.0	2.5	/experiments/Knapen_AOT/AOT_stimuli/rescaled_final/1719_rv.mp4	0.0	165.8579866886139	0.09994196891784668
30	152.43103742599487	fix_pre	0		120	28.0	2.5	/experiments/Knapen_AOT/AOT_stimuli/rescaled_final/1774_rv.mp4	0.0	165.95792865753174	1.0085361003875732
30	153.42297792434692	pulse	0	t		28.0	2.5	/experiments/Knapen_AOT/AOT_stimuli/rescaled_final/1774_rv.mp4	0.0	166.9498691558838	
30	153.43957352638245	movie	1		300	28.0	2.5	/experiments/Knapen_AOT/AOT_stimuli/rescaled_final/1774_rv.mp4	0.0	166.9664647579193	2.5003302097320557
30	155.0195596218109	pulse	1	t		28.0	2.5	/experiments/Knapen_AOT/AOT_stimuli/rescaled_final/1774_rv.mp4	0.0	168.54645085334778	
30	155.9399037361145	fix_post	2		12	28.0	2.5	/experiments/Knapen_AOT/AOT_stimuli/rescaled_final/1774_rv.mp4	0.0	169.46679496765137	0.10003256797790527
31	156.0399363040924	fix_pre	0		120	29.0	2.5	/experiments/Knapen_AOT/AOT_stimuli/rescaled_final/0929_rv.mp4	0.0	169.56682753562927	1.0001394748687744
31	156.615140914917	pulse	0	t		29.0	2.5	/experiments/Knapen_AOT/AOT_stimuli/rescaled_final/0929_rv.mp4	0.0	170.14203214645386	
31	157.04007577896118	movie	1		300	29.0	2.5	/experiments/Knapen_AOT/AOT_stimuli/rescaled_final/0929_rv.mp4	0.0	170.56696701049805	2.500365972518921
31	158.2154130935669	pulse	1	t		29.0	2.5	/experiments/Knapen_AOT/AOT_stimuli/rescaled_final/0929_rv.mp4	0.0	171.74230432510376	
31	159.5404417514801	fix_post	2		12	29.0	2.5	/experiments/Knapen_AOT/AOT_stimuli/rescaled_final/0929_rv.mp4	0.0	173.06733298301697	0.10001778602600098
32	159.6404595375061	fix_pre	0		120	30.0	2.5	/experiments/Knapen_AOT/AOT_stimuli/rescaled_final/0517_rv.mp4	0.0	173.16735076904297	1.0001604557037354
32	159.8239507675171	pulse	0	t		30.0	2.5	/experiments/Knapen_AOT/AOT_stimuli/rescaled_final/0517_rv.mp4	0.0	173.35084199905396	
32	160.64061999320984	movie	1		300	30.0	2.5	/experiments/Knapen_AOT/AOT_stimuli/rescaled_final/0517_rv.mp4	0.0	174.1675112247467	2.5003628730773926
32	161.4158878326416	pulse	1	t		30.0	2.5	/experiments/Knapen_AOT/AOT_stimuli/rescaled_final/0517_rv.mp4	0.0	174.94277906417847	
32	163.01622653007507	pulse	1	t		30.0	2.5	/experiments/Knapen_AOT/AOT_stimuli/rescaled_final/0517_rv.mp4	0.0	176.54311776161194	
32	163.14098286628723	fix_post	2		12	30.0	2.5	/experiments/Knapen_AOT/AOT_stimuli/rescaled_final/0517_rv.mp4	0.0	176.6678740978241	0.10001730918884277
33	163.24100017547607	fix_pre	0		120	31.0	2.5	/experiments/Knapen_AOT/AOT_stimuli/rescaled_final/1524_rv.mp4	0.0	176.76789140701294	1.0001459121704102
33	164.24114608764648	movie	1		299	31.0	2.5	/experiments/Knapen_AOT/AOT_stimuli/rescaled_final/1524_rv.mp4	0.0	177.76803731918335	2.4920549392700195
33	164.6164209842682	pulse	1	t		31.0	2.5	/experiments/Knapen_AOT/AOT_stimuli/rescaled_final/1524_rv.mp4	0.0	178.14331221580505	
33	166.2165868282318	pulse	1	t		31.0	2.5	/experiments/Knapen_AOT/AOT_stimuli/rescaled_final/1524_rv.mp4	0.0	179.74347805976868	
33	166.7332010269165	fix_post	2		12	31.0	2.5	/experiments/Knapen_AOT/AOT_stimuli/rescaled_final/1524_rv.mp4	0.0	180.26009225845337	0.10002303123474121
34	166.83322405815125	fix_pre	0		119	32.0	2.5	/experiments/Knapen_AOT/AOT_stimuli/rescaled_final/0079_fw.mp4	0.0	180.3601152896881	1.0001795291900635
34	167.81685996055603	pulse	0	t		32.0	2.5	/experiments/Knapen_AOT/AOT_stimuli/rescaled_final/0079_fw.mp4	0.0	181.3437511920929	
34	167.8334035873413	movie	1		300	32.0	2.5	/experiments/Knapen_AOT/AOT_stimuli/rescaled_final/0079_fw.mp4	0.0	181.36029481887817	2.5003409385681152
34	169.41713094711304	pulse	1	t		32.0	2.5	/experiments/Knapen_AOT/AOT_stimuli/rescaled_final/0079_fw.mp4	0.0	182.9440221786499	
34	170.33374452590942	fix_post	2		12	32.0	2.5	/experiments/Knapen_AOT/AOT_stimuli/rescaled_final/0079_fw.mp4	0.0	183.8606357574463	0.10003185272216797
35	170.4337763786316	fix_pre	0		120	33.0	2.5	/experiments/Knapen_AOT/AOT_stimuli/rescaled_final/0324_rv.mp4	0.0	183.96066761016846	1.0001306533813477
35	171.017320394516	pulse	0	t		33.0	2.5	/experiments/Knapen_AOT/AOT_stimuli/rescaled_final/0324_rv.mp4	0.0	184.54421162605286	
35	171.43390703201294	movie	1		300	33.0	2.5	/experiments/Knapen_AOT/AOT_stimuli/rescaled_final/0324_rv.mp4	0.0	184.9607982635498	2.5003671646118164
35	172.61755776405334	pulse	1	t		33.0	2.5	/experiments/Knapen_AOT/AOT_stimuli/rescaled_final/0324_rv.mp4	0.0	186.1444489955902	
35	173.93427419662476	fix_post	2		12	33.0	2.5	/experiments/Knapen_AOT/AOT_stimuli/rescaled_final/0324_rv.mp4	0.0	187.46116542816162	0.10005402565002441
36	174.03432822227478	fix_pre	0		120	34.0	2.5	/experiments/Knapen_AOT/AOT_stimuli/rescaled_final/0140_fw.mp4	0.0	187.56121945381165	1.0001180171966553
36	174.21780467033386	pulse	0	t		34.0	2.5	/experiments/Knapen_AOT/AOT_stimuli/rescaled_final/0140_fw.mp4	0.0	187.74469590187073	
36	175.03444623947144	movie	1		300	34.0	2.5	/experiments/Knapen_AOT/AOT_stimuli/rescaled_final/0140_fw.mp4	0.0	188.5613374710083	2.500377655029297
36	175.81804585456848	pulse	1	t		34.0	2.5	/experiments/Knapen_AOT/AOT_stimuli/rescaled_final/0140_fw.mp4	0.0	189.34493708610535	
36	177.4182653427124	pulse	1	t		34.0	2.5	/experiments/Knapen_AOT/AOT_stimuli/rescaled_final/0140_fw.mp4	0.0	190.94515657424927	
36	177.53482389450073	fix_post	2		12	34.0	2.5	/experiments/Knapen_AOT/AOT_stimuli/rescaled_final/0140_fw.mp4	0.0	191.0617151260376	0.10001659393310547
37	177.63484048843384	fix_pre	0		120	35.0	2.5	blank	1.0	191.1617317199707	1.000206470489502
37	178.63504695892334	movie	1		300	35.0	2.5	blank	1.0	192.1619381904602	2.5003130435943604
37	179.01849460601807	pulse	1	t		35.0	2.5	blank	1.0	192.54538583755493	
37	180.61873865127563	pulse	1	t		35.0	2.5	blank	1.0	194.1456298828125	
37	181.1353600025177	fix_post	2		12	35.0	2.5	blank	1.0	194.66225123405457	0.10001969337463379
38	181.23537969589233	fix_pre	0		119	36.0	2.5	/experiments/Knapen_AOT/AOT_stimuli/rescaled_final/0539_fw.mp4	0.0	194.7622709274292	1.00016188621521
38	182.2190227508545	pulse	0	t		36.0	2.5	/experiments/Knapen_AOT/AOT_stimuli/rescaled_final/0539_fw.mp4	0.0	195.74591398239136	
38	182.23554158210754	movie	1		300	36.0	2.5	/experiments/Knapen_AOT/AOT_stimuli/rescaled_final/0539_fw.mp4	0.0	195.7624328136444	2.5003702640533447
38	183.81554412841797	pulse	1	t		36.0	2.5	/experiments/Knapen_AOT/AOT_stimuli/rescaled_final/0539_fw.mp4	0.0	197.34243535995483	
38	184.7359118461609	fix_post	2		12	36.0	2.5	/experiments/Knapen_AOT/AOT_stimuli/rescaled_final/0539_fw.mp4	0.0	198.26280307769775	0.10002303123474121
39	184.83593487739563	fix_pre	0		120	37.0	2.5	/experiments/Knapen_AOT/AOT_stimuli/rescaled_final/1497_fw.mp4	0.0	198.3628261089325	1.0001335144042969
39	185.41952443122864	pulse	0	t		37.0	2.5	/experiments/Knapen_AOT/AOT_stimuli/rescaled_final/1497_fw.mp4	0.0	198.9464156627655	
39	185.83606839179993	movie	1		300	37.0	2.5	/experiments/Knapen_AOT/AOT_stimuli/rescaled_final/1497_fw.mp4	0.0	199.3629596233368	2.5004830360412598
39	187.015691280365	pulse	1	t		37.0	2.5	/experiments/Knapen_AOT/AOT_stimuli/rescaled_final/1497_fw.mp4	0.0	200.54258251190186	
39	188.3365514278412	fix_post	2		12	37.0	2.5	/experiments/Knapen_AOT/AOT_stimuli/rescaled_final/1497_fw.mp4	0.0	201.86344265937805	0.09992313385009766
40	188.43647456169128	fix_pre	0		120	38.0	2.5	/experiments/Knapen_AOT/AOT_stimuli/rescaled_final/0866_fw.mp4	0.0	201.96336579322815	1.000206470489502
40	188.6200029850006	pulse	0	t		38.0	2.5	/experiments/Knapen_AOT/AOT_stimuli/rescaled_final/0866_fw.mp4	0.0	202.14689421653748	
40	189.4366810321808	movie	1		300	38.0	2.5	/experiments/Knapen_AOT/AOT_stimuli/rescaled_final/0866_fw.mp4	0.0	202.96357226371765	2.5003156661987305
40	190.21578741073608	pulse	1	t		38.0	2.5	/experiments/Knapen_AOT/AOT_stimuli/rescaled_final/0866_fw.mp4	0.0	203.74267864227295	
40	191.81617426872253	pulse	1	t		38.0	2.5	/experiments/Knapen_AOT/AOT_stimuli/rescaled_final/0866_fw.mp4	0.0	205.3430655002594	
40	191.93699669837952	fix_post	2		12	38.0	2.5	/experiments/Knapen_AOT/AOT_stimuli/rescaled_final/0866_fw.mp4	0.0	205.46388792991638	0.10001683235168457
41	192.0370135307312	fix_pre	0		120	39.0	2.5	/experiments/Knapen_AOT/AOT_stimuli/rescaled_final/1904_fw.mp4	0.0	205.56390476226807	1.0001287460327148
41	193.03714227676392	movie	1		299	39.0	2.5	/experiments/Knapen_AOT/AOT_stimuli/rescaled_final/1904_fw.mp4	0.0	206.56403350830078	2.4920473098754883
41	193.41660046577454	pulse	1	t		39.0	2.5	/experiments/Knapen_AOT/AOT_stimuli/rescaled_final/1904_fw.mp4	0.0	206.9434916973114	
41	195.01658487319946	pulse	1	t		39.0	2.5	/experiments/Knapen_AOT/AOT_stimuli/rescaled_final/1904_fw.mp4	0.0	208.54347610473633	
41	195.5291895866394	fix_post	2		12	39.0	2.5	/experiments/Knapen_AOT/AOT_stimuli/rescaled_final/1904_fw.mp4	0.0	209.05608081817627	0.10000991821289062
42	195.6291995048523	fix_pre	0		120	40.0	2.5	/experiments/Knapen_AOT/AOT_stimuli/rescaled_final/1398_fw.mp4	0.0	209.15609073638916	1.000561237335205
42	196.6212136745453	pulse	0	t		40.0	2.5	/experiments/Knapen_AOT/AOT_stimuli/rescaled_final/1398_fw.mp4	0.0	210.14810490608215	
42	196.6297607421875	movie	1		301	40.0	2.5	/experiments/Knapen_AOT/AOT_stimuli/rescaled_final/1398_fw.mp4	0.0	210.15665197372437	2.5083162784576416
42	198.21762681007385	pulse	1	t		40.0	2.5	/experiments/Knapen_AOT/AOT_stimuli/rescaled_final/1398_fw.mp4	0.0	211.74451804161072	
42	199.13807702064514	fix_post	2		12	40.0	2.5	/experiments/Knapen_AOT/AOT_stimuli/rescaled_final/1398_fw.mp4	0.0	212.664968252182	0.10008454322814941
43	199.2381615638733	fix_pre	0		120	41.0	2.5	/experiments/Knapen_AOT/AOT_stimuli/rescaled_final/1522_rv.mp4	0.0	212.76505279541016	1.000077724456787
43	199.821622133255	pulse	0	t		41.0	2.5	/experiments/Knapen_AOT/AOT_stimuli/rescaled_final/1522_rv.mp4	0.0	213.34851336479187	
43	200.23823928833008	movie	1		300	41.0	2.5	/experiments/Knapen_AOT/AOT_stimuli/rescaled_final/1522_rv.mp4	0.0	213.76513051986694	2.5003747940063477
43	201.4177052974701	pulse	1	t		41.0	2.5	/experiments/Knapen_AOT/AOT_stimuli/rescaled_final/1522_rv.mp4	0.0	214.94459652900696	
43	202.73861408233643	fix_post	2		12	41.0	2.5	/experiments/Knapen_AOT/AOT_stimuli/rescaled_final/1522_rv.mp4	0.0	216.2655053138733	0.10003256797790527
44	202.83864665031433	fix_pre	0		120	42.0	2.5	blank	1.0	216.3655378818512	1.0001282691955566
44	203.0221290588379	pulse	0	t		42.0	2.5	blank	1.0	216.54902029037476	
44	203.8387749195099	movie	1		300	42.0	2.5	blank	1.0	217.36566615104675	2.500389575958252
44	204.62238836288452	pulse	1	t		42.0	2.5	blank	1.0	218.1492795944214	
44	206.2226414680481	pulse	1	t		42.0	2.5	blank	1.0	219.74953269958496	
44	206.33916449546814	fix_post	2		12	42.0	2.5	blank	1.0	219.866055727005	0.10000896453857422
45	206.4391734600067	fix_pre	0		120	43.0	2.5	/experiments/Knapen_AOT/AOT_stimuli/rescaled_final/1035_fw.mp4	0.0	219.96606469154358	1.0001449584960938
45	207.4393184185028	movie	1		299	43.0	2.5	/experiments/Knapen_AOT/AOT_stimuli/rescaled_final/1035_fw.mp4	0.0	220.96620965003967	2.4920260906219482
45	207.81899523735046	pulse	1	t		43.0	2.5	/experiments/Knapen_AOT/AOT_stimuli/rescaled_final/1035_fw.mp4	0.0	221.34588646888733	
45	209.41872191429138	pulse	1	t		43.0	2.5	/experiments/Knapen_AOT/AOT_stimuli/rescaled_final/1035_fw.mp4	0.0	222.94561314582825	
45	209.93134450912476	fix_post	2		12	43.0	2.5	/experiments/Knapen_AOT/AOT_stimuli/rescaled_final/1035_fw.mp4	0.0	223.45823574066162	0.10003852844238281
46	210.03138303756714	fix_pre	0		120	44.0	2.5	/experiments/Knapen_AOT/AOT_stimuli/rescaled_final/1974_rv.mp4	0.0	223.558274269104	1.008528470993042
46	211.0153501033783	pulse	0	t		44.0	2.5	/experiments/Knapen_AOT/AOT_stimuli/rescaled_final/1974_rv.mp4	0.0	224.54224133491516	
46	211.03991150856018	movie	1		288	44.0	2.5	/experiments/Knapen_AOT/AOT_stimuli/rescaled_final/1974_rv.mp4	0.0	224.56680274009705	2.5003418922424316
46	212.6153724193573	pulse	1	t		44.0	2.5	/experiments/Knapen_AOT/AOT_stimuli/rescaled_final/1974_rv.mp4	0.0	226.14226365089417	
46	213.5402534008026	fix_post	2		12	44.0	2.5	/experiments/Knapen_AOT/AOT_stimuli/rescaled_final/1974_rv.mp4	0.0	227.06714463233948	0.10005497932434082
47	213.64030838012695	fix_pre	0		120	45.0	2.5	/experiments/Knapen_AOT/AOT_stimuli/rescaled_final/1050_fw.mp4	0.0	227.16719961166382	1.000098466873169
47	214.21550035476685	pulse	0	t		45.0	2.5	/experiments/Knapen_AOT/AOT_stimuli/rescaled_final/1050_fw.mp4	0.0	227.7423915863037	
47	214.64040684700012	movie	1		300	45.0	2.5	/experiments/Knapen_AOT/AOT_stimuli/rescaled_final/1050_fw.mp4	0.0	228.167298078537	2.5003745555877686
47	215.81573104858398	pulse	1	t		45.0	2.5	/experiments/Knapen_AOT/AOT_stimuli/rescaled_final/1050_fw.mp4	0.0	229.34262228012085	
47	217.1407814025879	fix_post	2		12	45.0	2.5	/experiments/Knapen_AOT/AOT_stimuli/rescaled_final/1050_fw.mp4	0.0	230.66767263412476	0.10001516342163086
48	217.24079656600952	fix_pre	0		120	46.0	2.5	/experiments/Knapen_AOT/AOT_stimuli/rescaled_final/0918_rv.mp4	0.0	230.7676877975464	1.000171422958374
48	217.4159450531006	pulse	0	t		46.0	2.5	/experiments/Knapen_AOT/AOT_stimuli/rescaled_final/0918_rv.mp4	0.0	230.94283628463745	
48	218.2409679889679	movie	1		300	46.0	2.5	/experiments/Knapen_AOT/AOT_stimuli/rescaled_final/0918_rv.mp4	0.0	231.76785922050476	2.5003716945648193
48	219.01620173454285	pulse	1	t		46.0	2.5	/experiments/Knapen_AOT/AOT_stimuli/rescaled_final/0918_rv.mp4	0.0	232.5430929660797	
48	220.61650800704956	pulse	1	t		46.0	2.5	/experiments/Knapen_AOT/AOT_stimuli/rescaled_final/0918_rv.mp4	0.0	234.14339923858643	
48	220.74133968353271	fix_post	2		12	46.0	2.5	/experiments/Knapen_AOT/AOT_stimuli/rescaled_final/0918_rv.mp4	0.0	234.26823091506958	0.09999275207519531
49	220.8413324356079	fix_pre	0		119	47.0	2.5	/experiments/Knapen_AOT/AOT_stimuli/rescaled_final/2051_fw.mp4	0.0	234.36822366714478	0.991814374923706
49	221.83314681053162	movie	1		300	47.0	2.5	/experiments/Knapen_AOT/AOT_stimuli/rescaled_final/2051_fw.mp4	0.0	235.36003804206848	2.500448226928711
49	222.2167191505432	pulse	1	t		47.0	2.5	/experiments/Knapen_AOT/AOT_stimuli/rescaled_final/2051_fw.mp4	0.0	235.74361038208008	
49	223.8169379234314	pulse	1	t		47.0	2.5	/experiments/Knapen_AOT/AOT_stimuli/rescaled_final/2051_fw.mp4	0.0	237.34382915496826	
49	224.33359503746033	fix_post	2		12	47.0	2.5	/experiments/Knapen_AOT/AOT_stimuli/rescaled_final/2051_fw.mp4	0.0	237.8604862689972	0.10000324249267578
50	224.433598279953	fix_pre	0		119	48.0	2.5	blank	1.0	237.96048951148987	0.9917793273925781
50	225.41714715957642	pulse	0	t		48.0	2.5	blank	1.0	238.94403839111328	
50	225.42537760734558	movie	1		301	48.0	2.5	blank	1.0	238.95226883888245	2.5086920261383057
50	227.01739358901978	pulse	1	t		48.0	2.5	blank	1.0	240.54428482055664	
50	227.9340696334839	fix_post	2		12	48.0	2.5	blank	1.0	241.46096086502075	0.10001516342163086
51	228.03408479690552	fix_pre	0		120	49.0	2.5	/experiments/Knapen_AOT/AOT_stimuli/rescaled_final/0276_rv.mp4	0.0	241.56097602844238	1.0004208087921143
51	228.61767530441284	pulse	0	t		49.0	2.5	/experiments/Knapen_AOT/AOT_stimuli/rescaled_final/0276_rv.mp4	0.0	242.1445665359497	
51	229.03450560569763	movie	1		300	49.0	2.5	/experiments/Knapen_AOT/AOT_stimuli/rescaled_final/0276_rv.mp4	0.0	242.5613968372345	2.5001673698425293
51	230.21791052818298	pulse	1	t		49.0	2.5	/experiments/Knapen_AOT/AOT_stimuli/rescaled_final/0276_rv.mp4	0.0	243.74480175971985	
51	231.53467297554016	fix_post	2		12	49.0	2.5	/experiments/Knapen_AOT/AOT_stimuli/rescaled_final/0276_rv.mp4	0.0	245.06156420707703	0.10000133514404297
52	231.6346743106842	fix_pre	0		120	50.0	2.5	/experiments/Knapen_AOT/AOT_stimuli/rescaled_final/1426_rv.mp4	0.0	245.16156554222107	1.0001096725463867
52	231.81826496124268	pulse	0	t		50.0	2.5	/experiments/Knapen_AOT/AOT_stimuli/rescaled_final/1426_rv.mp4	0.0	245.34515619277954	
52	232.6347839832306	movie	1		300	50.0	2.5	/experiments/Knapen_AOT/AOT_stimuli/rescaled_final/1426_rv.mp4	0.0	246.16167521476746	2.5003914833068848
52	233.41837072372437	pulse	1	t		50.0	2.5	/experiments/Knapen_AOT/AOT_stimuli/rescaled_final/1426_rv.mp4	0.0	246.94526195526123	
52	235.0186710357666	pulse	1	t		50.0	2.5	/experiments/Knapen_AOT/AOT_stimuli/rescaled_final/1426_rv.mp4	0.0	248.54556226730347	
52	235.13517546653748	fix_post	2		12	50.0	2.5	/experiments/Knapen_AOT/AOT_stimuli/rescaled_final/1426_rv.mp4	0.0	248.66206669807434	0.10001254081726074
53	235.23518800735474	fix_pre	0		120	51.0	2.5	/experiments/Knapen_AOT/AOT_stimuli/rescaled_final/2051_rv.mp4	0.0	248.7620792388916	1.00016450881958
53	236.23535251617432	movie	1		300	51.0	2.5	/experiments/Knapen_AOT/AOT_stimuli/rescaled_final/2051_rv.mp4	0.0	249.76224374771118	2.5004310607910156
53	236.61895608901978	pulse	1	t		51.0	2.5	/experiments/Knapen_AOT/AOT_stimuli/rescaled_final/2051_rv.mp4	0.0	250.14584732055664	
53	238.21913862228394	pulse	1	t		51.0	2.5	/experiments/Knapen_AOT/AOT_stimuli/rescaled_final/2051_rv.mp4	0.0	251.7460298538208	
53	238.73578357696533	fix_post	2		12	51.0	2.5	/experiments/Knapen_AOT/AOT_stimuli/rescaled_final/2051_rv.mp4	0.0	252.2626748085022	0.09997224807739258
54	238.83575582504272	fix_pre	0		119	52.0	2.5	/experiments/Knapen_AOT/AOT_stimuli/rescaled_final/0972_rv.mp4	0.0	252.3626470565796	0.9917962551116943
54	239.81933856010437	pulse	0	t		52.0	2.5	/experiments/Knapen_AOT/AOT_stimuli/rescaled_final/0972_rv.mp4	0.0	253.34622979164124	
54	239.82755208015442	movie	1		301	52.0	2.5	/experiments/Knapen_AOT/AOT_stimuli/rescaled_final/0972_rv.mp4	0.0	253.35444331169128	2.508690357208252
54	241.41573452949524	pulse	1	t		52.0	2.5	/experiments/Knapen_AOT/AOT_stimuli/rescaled_final/0972_rv.mp4	0.0	254.9426257610321	
54	242.33624243736267	fix_post	2		12	52.0	2.5	/experiments/Knapen_AOT/AOT_stimuli/rescaled_final/0972_rv.mp4	0.0	255.86313366889954	0.10001468658447266
55	242.43625712394714	fix_pre	0		120	53.0	2.5	/experiments/Knapen_AOT/AOT_stimuli/rescaled_final/1050_fw.mp4	0.0	255.963148355484	1.0003206729888916
55	243.01981687545776	pulse	0	t		53.0	2.5	/experiments/Knapen_AOT/AOT_stimuli/rescaled_final/1050_fw.mp4	0.0	256.54670810699463	
55	243.43657779693604	movie	1		300	53.0	2.5	/experiments/Knapen_AOT/AOT_stimuli/rescaled_final/1050_fw.mp4	0.0	256.9634690284729	2.5002713203430176
55	244.61579513549805	pulse	1	t		53.0	2.5	/experiments/Knapen_AOT/AOT_stimuli/rescaled_final/1050_fw.mp4	0.0	258.1426863670349	
55	245.93684911727905	fix_post	2		12	53.0	2.5	/experiments/Knapen_AOT/AOT_stimuli/rescaled_final/1050_fw.mp4	0.0	259.4637403488159	0.1000070571899414
56	246.036856174469	fix_pre	0		120	54.0	2.5	/experiments/Knapen_AOT/AOT_stimuli/rescaled_final/1348_fw.mp4	0.0	259.56374740600586	1.0000848770141602
56	246.22027969360352	pulse	0	t		54.0	2.5	/experiments/Knapen_AOT/AOT_stimuli/rescaled_final/1348_fw.mp4	0.0	259.7471709251404	
56	247.03694105148315	movie	1		300	54.0	2.5	/experiments/Knapen_AOT/AOT_stimuli/rescaled_final/1348_fw.mp4	0.0	260.56383228302	2.5003821849823
56	247.81629633903503	pulse	1	t		54.0	2.5	/experiments/Knapen_AOT/AOT_stimuli/rescaled_final/1348_fw.mp4	0.0	261.3431875705719	
56	249.41656851768494	pulse	1	t		54.0	2.5	/experiments/Knapen_AOT/AOT_stimuli/rescaled_final/1348_fw.mp4	0.0	262.9434597492218	
56	249.53732323646545	fix_post	2		12	54.0	2.5	/experiments/Knapen_AOT/AOT_stimuli/rescaled_final/1348_fw.mp4	0.0	263.0642144680023	0.10001993179321289
57	249.63734316825867	fix_pre	0		120	55.0	2.5	blank	1.0	263.16423439979553	1.000150203704834
57	250.6374933719635	movie	1		299	55.0	2.5	blank	1.0	264.16438460350037	2.492029905319214
57	251.02105808258057	pulse	1	t		55.0	2.5	blank	1.0	264.54794931411743	
57	252.62121605873108	pulse	1	t		55.0	2.5	blank	1.0	266.14810729026794	
57	253.12952327728271	fix_post	2		12	55.0	2.5	blank	1.0	266.6564145088196	0.10002660751342773
58	253.22954988479614	fix_pre	0		120	56.0	2.5	/experiments/Knapen_AOT/AOT_stimuli/rescaled_final/1094_rv.mp4	0.0	266.756441116333	1.0085163116455078
58	254.2215337753296	pulse	0	t		56.0	2.5	/experiments/Knapen_AOT/AOT_stimuli/rescaled_final/1094_rv.mp4	0.0	267.74842500686646	
58	254.23806619644165	movie	1		299	56.0	2.5	/experiments/Knapen_AOT/AOT_stimuli/rescaled_final/1094_rv.mp4	0.0	267.7649574279785	2.5003390312194824
58	255.8181450366974	pulse	1	t		56.0	2.5	/experiments/Knapen_AOT/AOT_stimuli/rescaled_final/1094_rv.mp4	0.0	269.34503626823425	
58	256.73840522766113	fix_post	2		12	56.0	2.5	/experiments/Knapen_AOT/AOT_stimuli/rescaled_final/1094_rv.mp4	0.0	270.265296459198	0.10003662109375
59	256.8384418487549	fix_pre	0		120	57.0	2.5	/experiments/Knapen_AOT/AOT_stimuli/rescaled_final/1023_fw.mp4	0.0	270.36533308029175	1.000215768814087
59	257.4220390319824	pulse	0	t		57.0	2.5	/experiments/Knapen_AOT/AOT_stimuli/rescaled_final/1023_fw.mp4	0.0	270.9489302635193	
59	257.83865761756897	movie	1		300	57.0	2.5	/experiments/Knapen_AOT/AOT_stimuli/rescaled_final/1023_fw.mp4	0.0	271.36554884910583	2.500347375869751
59	259.0181188583374	pulse	1	t		57.0	2.5	/experiments/Knapen_AOT/AOT_stimuli/rescaled_final/1023_fw.mp4	0.0	272.54501008987427	
59	260.3390049934387	fix_post	2		12	57.0	2.5	/experiments/Knapen_AOT/AOT_stimuli/rescaled_final/1023_fw.mp4	0.0	273.8658962249756	0.10003256797790527
60	260.4390375614166	fix_pre	0		120	58.0	2.5	/experiments/Knapen_AOT/AOT_stimuli/rescaled_final/0517_rv.mp4	0.0	273.9659287929535	1.0000698566436768
60	260.622447013855	pulse	0	t		58.0	2.5	/experiments/Knapen_AOT/AOT_stimuli/rescaled_final/0517_rv.mp4	0.0	274.14933824539185	
60	261.4391074180603	movie	1		300	58.0	2.5	/experiments/Knapen_AOT/AOT_stimuli/rescaled_final/0517_rv.mp4	0.0	274.96599864959717	2.5003867149353027
60	262.21831369400024	pulse	1	t		58.0	2.5	/experiments/Knapen_AOT/AOT_stimuli/rescaled_final/0517_rv.mp4	0.0	275.7452049255371	
60	263.8187050819397	pulse	1	t		58.0	2.5	/experiments/Knapen_AOT/AOT_stimuli/rescaled_final/0517_rv.mp4	0.0	277.34559631347656	
60	263.9394941329956	fix_post	2		12	58.0	2.5	/experiments/Knapen_AOT/AOT_stimuli/rescaled_final/0517_rv.mp4	0.0	277.46638536453247	0.10002493858337402
61	264.039519071579	fix_pre	0		120	59.0	2.5	/experiments/Knapen_AOT/AOT_stimuli/rescaled_final/0946_rv.mp4	0.0	277.56641030311584	1.0001637935638428
61	265.0396828651428	movie	1		299	59.0	2.5	/experiments/Knapen_AOT/AOT_stimuli/rescaled_final/0946_rv.mp4	0.0	278.5665740966797	2.4920055866241455
61	265.41927313804626	pulse	1	t		59.0	2.5	/experiments/Knapen_AOT/AOT_stimuli/rescaled_final/0946_rv.mp4	0.0	278.94616436958313	
61	267.01919174194336	pulse	1	t		59.0	2.5	/experiments/Knapen_AOT/AOT_stimuli/rescaled_final/0946_rv.mp4	0.0	280.5460829734802	
61	267.53168845176697	fix_post	2		12	59.0	2.5	/experiments/Knapen_AOT/AOT_stimuli/rescaled_final/0946_rv.mp4	0.0	281.05857968330383	0.10003304481506348
62	267.63172149658203	fix_pre	0		120	60.0	2.5	/experiments/Knapen_AOT/AOT_stimuli/rescaled_final/1281_fw.mp4	0.0	281.1586127281189	1.0084948539733887
62	268.6157474517822	pulse	0	t		60.0	2.5	/experiments/Knapen_AOT/AOT_stimuli/rescaled_final/1281_fw.mp4	0.0	282.1426386833191	
62	268.6402163505554	movie	1		300	60.0	2.5	/experiments/Knapen_AOT/AOT_stimuli/rescaled_final/1281_fw.mp4	0.0	282.1671075820923	2.500364065170288
62	270.2202844619751	pulse	1	t		60.0	2.5	/experiments/Knapen_AOT/AOT_stimuli/rescaled_final/1281_fw.mp4	0.0	283.74717569351196	
62	271.1405804157257	fix_post	2		12	60.0	2.5	/experiments/Knapen_AOT/AOT_stimuli/rescaled_final/1281_fw.mp4	0.0	284.6674716472626	0.10002684593200684
63	271.2406072616577	fix_pre	0		120	61.0	2.5	/experiments/Knapen_AOT/AOT_stimuli/rescaled_final/0539_fw.mp4	0.0	284.7674984931946	1.0001330375671387
63	271.81578516960144	pulse	0	t		61.0	2.5	/experiments/Knapen_AOT/AOT_stimuli/rescaled_final/0539_fw.mp4	0.0	285.3426764011383	
63	272.24074029922485	movie	1		300	61.0	2.5	/experiments/Knapen_AOT/AOT_stimuli/rescaled_final/0539_fw.mp4	0.0	285.7676315307617	2.5003812313079834
63	273.4160969257355	pulse	1	t		61.0	2.5	/experiments/Knapen_AOT/AOT_stimuli/rescaled_final/0539_fw.mp4	0.0	286.94298815727234	
63	274.74112153053284	fix_post	2		12	61.0	2.5	/experiments/Knapen_AOT/AOT_stimuli/rescaled_final/0539_fw.mp4	0.0	288.2680127620697	0.10007619857788086
64	274.8411977291107	fix_pre	0		120	62.0	2.5	blank	1.0	288.3680889606476	1.0000813007354736
64	275.01631784439087	pulse	0	t		62.0	2.5	blank	1.0	288.54320907592773	
64	275.8412790298462	movie	1		300	62.0	2.5	blank	1.0	289.36817026138306	2.5003745555877686
64	276.6165108680725	pulse	1	t		62.0	2.5	blank	1.0	290.1434020996094	
64	278.2167270183563	pulse	1	t		62.0	2.5	blank	1.0	291.7436182498932	
64	278.34165358543396	fix_post	2		12	62.0	2.5	blank	1.0	291.8685448169708	0.10003376007080078
65	278.44168734550476	fix_pre	0		120	63.0	2.5	/experiments/Knapen_AOT/AOT_stimuli/rescaled_final/0037_rv.mp4	0.0	291.9685785770416	1.0002515316009521
65	279.4419388771057	movie	1		298	63.0	2.5	/experiments/Knapen_AOT/AOT_stimuli/rescaled_final/0037_rv.mp4	0.0	292.9688301086426	2.491929531097412
65	279.8170835971832	pulse	1	t		63.0	2.5	/experiments/Knapen_AOT/AOT_stimuli/rescaled_final/0037_rv.mp4	0.0	293.3439748287201	
65	281.4172627925873	pulse	1	t		63.0	2.5	/experiments/Knapen_AOT/AOT_stimuli/rescaled_final/0037_rv.mp4	0.0	294.94415402412415	
65	281.9338684082031	fix_post	2		12	63.0	2.5	/experiments/Knapen_AOT/AOT_stimuli/rescaled_final/0037_rv.mp4	0.0	295.46075963974	0.1000661849975586
66	282.0339345932007	fix_pre	0		119	64.0	2.5	/experiments/Knapen_AOT/AOT_stimuli/rescaled_final/0388_rv.mp4	0.0	295.56082582473755	1.0001499652862549
66	283.01749205589294	pulse	0	t		64.0	2.5	/experiments/Knapen_AOT/AOT_stimuli/rescaled_final/0388_rv.mp4	0.0	296.5443832874298	
66	283.03408455848694	movie	1		300	64.0	2.5	/experiments/Knapen_AOT/AOT_stimuli/rescaled_final/0388_rv.mp4	0.0	296.5609757900238	2.5003151893615723
66	284.6178159713745	pulse	1	t		64.0	2.5	/experiments/Knapen_AOT/AOT_stimuli/rescaled_final/0388_rv.mp4	0.0	298.1447072029114	
66	285.5343997478485	fix_post	2		12	64.0	2.5	/experiments/Knapen_AOT/AOT_stimuli/rescaled_final/0388_rv.mp4	0.0	299.0612909793854	0.10003542900085449
67	285.63443517684937	fix_pre	0		120	65.0	2.5	/experiments/Knapen_AOT/AOT_stimuli/rescaled_final/1625_fw.mp4	0.0	299.16132640838623	1.0001394748687744
67	286.21796011924744	pulse	0	t		65.0	2.5	/experiments/Knapen_AOT/AOT_stimuli/rescaled_final/1625_fw.mp4	0.0	299.7448513507843	
67	286.63457465171814	movie	1		300	65.0	2.5	/experiments/Knapen_AOT/AOT_stimuli/rescaled_final/1625_fw.mp4	0.0	300.161465883255	2.500366687774658
67	287.8182532787323	pulse	1	t		65.0	2.5	/experiments/Knapen_AOT/AOT_stimuli/rescaled_final/1625_fw.mp4	0.0	301.34514451026917	
67	289.1349413394928	fix_post	2		12	65.0	2.5	/experiments/Knapen_AOT/AOT_stimuli/rescaled_final/1625_fw.mp4	0.0	302.66183257102966	0.10005068778991699
68	289.2349920272827	fix_pre	0		120	66.0	2.5	/experiments/Knapen_AOT/AOT_stimuli/rescaled_final/0061_fw.mp4	0.0	302.7618832588196	1.0001466274261475
68	289.41847801208496	pulse	0	t		66.0	2.5	/experiments/Knapen_AOT/AOT_stimuli/rescaled_final/0061_fw.mp4	0.0	302.9453692436218	
68	290.23513865470886	movie	1		300	66.0	2.5	/experiments/Knapen_AOT/AOT_stimuli/rescaled_final/0061_fw.mp4	0.0	303.7620298862457	2.5003550052642822
68	291.0187072753906	pulse	1	t		66.0	2.5	/experiments/Knapen_AOT/AOT_stimuli/rescaled_final/0061_fw.mp4	0.0	304.5455985069275	
68	292.6189498901367	pulse	1	t		66.0	2.5	/experiments/Knapen_AOT/AOT_stimuli/rescaled_final/0061_fw.mp4	0.0	306.1458411216736	
68	292.73549365997314	fix_post	2		12	66.0	2.5	/experiments/Knapen_AOT/AOT_stimuli/rescaled_final/0061_fw.mp4	0.0	306.26238489151	0.10002517700195312
69	292.8355188369751	fix_pre	0		120	67.0	2.5	/experiments/Knapen_AOT/AOT_stimuli/rescaled_final/0079_fw.mp4	0.0	306.36241006851196	1.0001482963562012
69	293.8356671333313	movie	1		299	67.0	2.5	/experiments/Knapen_AOT/AOT_stimuli/rescaled_final/0079_fw.mp4	0.0	307.36255836486816	2.4920735359191895
69	294.2192018032074	pulse	1	t		67.0	2.5	/experiments/Knapen_AOT/AOT_stimuli/rescaled_final/0079_fw.mp4	0.0	307.74609303474426	
69	295.8194262981415	pulse	1	t		67.0	2.5	/experiments/Knapen_AOT/AOT_stimuli/rescaled_final/0079_fw.mp4	0.0	309.34631752967834	
69	296.3277406692505	fix_post	2		12	67.0	2.5	/experiments/Knapen_AOT/AOT_stimuli/rescaled_final/0079_fw.mp4	0.0	309.85463190078735	0.0999758243560791
70	296.42771649360657	fix_pre	0		120	68.0	2.5	blank	1.0	309.95460772514343	1.000173568725586
70	297.4196572303772	pulse	0	t		68.0	2.5	blank	1.0	310.94654846191406	
70	297.42789006233215	movie	1		301	68.0	2.5	blank	1.0	310.954781293869	2.5086874961853027
70	299.0199453830719	pulse	1	t		68.0	2.5	blank	1.0	312.54683661460876	
70	299.93657755851746	fix_post	2		12	68.0	2.5	blank	1.0	313.4634687900543	0.10002946853637695
71	300.03660702705383	fix_pre	0		120	69.0	2.5	/experiments/Knapen_AOT/AOT_stimuli/rescaled_final/0128_fw.mp4	0.0	313.5634982585907	1.0001351833343506
71	300.62016105651855	pulse	0	t		69.0	2.5	/experiments/Knapen_AOT/AOT_stimuli/rescaled_final/0128_fw.mp4	0.0	314.1470522880554	
71	301.0367422103882	movie	1		300	69.0	2.5	/experiments/Knapen_AOT/AOT_stimuli/rescaled_final/0128_fw.mp4	0.0	314.56363344192505	2.500373125076294
71	302.2161808013916	pulse	1	t		69.0	2.5	/experiments/Knapen_AOT/AOT_stimuli/rescaled_final/0128_fw.mp4	0.0	315.74307203292847	
71	303.5371153354645	fix_post	2		12	69.0	2.5	/experiments/Knapen_AOT/AOT_stimuli/rescaled_final/0128_fw.mp4	0.0	317.06400656700134	0.1000208854675293
72	303.637136220932	fix_pre	0		120	70.0	2.5	/experiments/Knapen_AOT/AOT_stimuli/rescaled_final/1805_fw.mp4	0.0	317.1640274524689	1.000154733657837
72	303.820675611496	pulse	0	t		70.0	2.5	/experiments/Knapen_AOT/AOT_stimuli/rescaled_final/1805_fw.mp4	0.0	317.34756684303284	
72	304.63729095458984	movie	1		300	70.0	2.5	/experiments/Knapen_AOT/AOT_stimuli/rescaled_final/1805_fw.mp4	0.0	318.1641821861267	2.5003652572631836
72	305.416396856308	pulse	1	t		70.0	2.5	/experiments/Knapen_AOT/AOT_stimuli/rescaled_final/1805_fw.mp4	0.0	318.94328808784485	
72	307.01677346229553	pulse	1	t		70.0	2.5	/experiments/Knapen_AOT/AOT_stimuli/rescaled_final/1805_fw.mp4	0.0	320.5436646938324	
72	307.137656211853	fix_post	2		12	70.0	2.5	/experiments/Knapen_AOT/AOT_stimuli/rescaled_final/1805_fw.mp4	0.0	320.6645474433899	0.10004663467407227
73	307.2377028465271	fix_pre	0		120	71.0	2.5	/experiments/Knapen_AOT/AOT_stimuli/rescaled_final/0725_fw.mp4	0.0	320.76459407806396	1.000096082687378
73	308.2377989292145	movie	1		299	71.0	2.5	/experiments/Knapen_AOT/AOT_stimuli/rescaled_final/0725_fw.mp4	0.0	321.76469016075134	2.4920568466186523
73	308.61723613739014	pulse	1	t		71.0	2.5	/experiments/Knapen_AOT/AOT_stimuli/rescaled_final/0725_fw.mp4	0.0	322.144127368927	
73	310.217148065567	pulse	1	t		71.0	2.5	/experiments/Knapen_AOT/AOT_stimuli/rescaled_final/0725_fw.mp4	0.0	323.7440392971039	
73	310.72985577583313	fix_post	2		12	71.0	2.5	/experiments/Knapen_AOT/AOT_stimuli/rescaled_final/0725_fw.mp4	0.0	324.25674700737	0.10002493858337402
74	310.8298807144165	fix_pre	0		120	72.0	2.5	/experiments/Knapen_AOT/AOT_stimuli/rescaled_final/0539_rv.mp4	0.0	324.35677194595337	1.0002100467681885
74	311.82182216644287	pulse	0	t		72.0	2.5	/experiments/Knapen_AOT/AOT_stimuli/rescaled_final/0539_rv.mp4	0.0	325.34871339797974	
74	311.8300907611847	movie	1		301	72.0	2.5	/experiments/Knapen_AOT/AOT_stimuli/rescaled_final/0539_rv.mp4	0.0	325.35698199272156	2.5086610317230225
74	313.41830611228943	pulse	1	t		72.0	2.5	/experiments/Knapen_AOT/AOT_stimuli/rescaled_final/0539_rv.mp4	0.0	326.9451973438263	
74	314.3387517929077	fix_post	2		12	72.0	2.5	/experiments/Knapen_AOT/AOT_stimuli/rescaled_final/0539_rv.mp4	0.0	327.8656430244446	0.10000371932983398
75	314.43875551223755	fix_pre	0		120	73.0	2.5	/experiments/Knapen_AOT/AOT_stimuli/rescaled_final/2097_fw.mp4	0.0	327.9656467437744	1.0001633167266846
75	315.022292137146	pulse	0	t		73.0	2.5	/experiments/Knapen_AOT/AOT_stimuli/rescaled_final/2097_fw.mp4	0.0	328.54918336868286	
75	315.43891882896423	movie	1		300	73.0	2.5	/experiments/Knapen_AOT/AOT_stimuli/rescaled_final/2097_fw.mp4	0.0	328.9658100605011	2.5003750324249268
75	316.6183352470398	pulse	1	t		73.0	2.5	/experiments/Knapen_AOT/AOT_stimuli/rescaled_final/2097_fw.mp4	0.0	330.14522647857666	
75	317.93929386138916	fix_post	2		12	73.0	2.5	/experiments/Knapen_AOT/AOT_stimuli/rescaled_final/2097_fw.mp4	0.0	331.466185092926	0.10005426406860352
76	318.03934812545776	fix_pre	0		120	74.0	2.5	/experiments/Knapen_AOT/AOT_stimuli/rescaled_final/0928_rv.mp4	0.0	331.56623935699463	1.0001084804534912
76	318.2228558063507	pulse	0	t		74.0	2.5	/experiments/Knapen_AOT/AOT_stimuli/rescaled_final/0928_rv.mp4	0.0	331.7497470378876	
76	319.03945660591125	movie	1		300	74.0	2.5	/experiments/Knapen_AOT/AOT_stimuli/rescaled_final/0928_rv.mp4	0.0	332.5663478374481	2.500369071960449
76	319.81863617897034	pulse	1	t		74.0	2.5	/experiments/Knapen_AOT/AOT_stimuli/rescaled_final/0928_rv.mp4	0.0	333.3455274105072	
76	321.4191038608551	pulse	1	t		74.0	2.5	/experiments/Knapen_AOT/AOT_stimuli/rescaled_final/0928_rv.mp4	0.0	334.94599509239197	
76	321.5398256778717	fix_post	2		12	74.0	2.5	/experiments/Knapen_AOT/AOT_stimuli/rescaled_final/0928_rv.mp4	0.0	335.06671690940857	0.10001730918884277
77	321.63984298706055	fix_pre	0		120	75.0	2.5	blank	1.0	335.1667342185974	1.000152826309204
77	322.63999581336975	movie	1		299	75.0	2.5	blank	1.0	336.1668870449066	2.492037296295166
77	323.02350401878357	pulse	1	t		75.0	2.5	blank	1.0	336.55039525032043	
77	324.615442276001	pulse	1	t		75.0	2.5	blank	1.0	338.14233350753784	
77	325.1320331096649	fix_post	2		12	75.0	2.5	blank	1.0	338.6589243412018	0.10001683235168457
78	325.2320499420166	fix_pre	0		120	76.0	2.5	/experiments/Knapen_AOT/AOT_stimuli/rescaled_final/0278_fw.mp4	0.0	338.75894117355347	1.0085210800170898
78	326.22400999069214	pulse	0	t		76.0	2.5	/experiments/Knapen_AOT/AOT_stimuli/rescaled_final/0278_fw.mp4	0.0	339.750901222229	
78	326.2405710220337	movie	1		300	76.0	2.5	/experiments/Knapen_AOT/AOT_stimuli/rescaled_final/0278_fw.mp4	0.0	339.76746225357056	2.5003435611724854
78	327.8160171508789	pulse	1	t		76.0	2.5	/experiments/Knapen_AOT/AOT_stimuli/rescaled_final/0278_fw.mp4	0.0	341.34290838241577	
78	328.7409145832062	fix_post	2		12	76.0	2.5	/experiments/Knapen_AOT/AOT_stimuli/rescaled_final/0278_fw.mp4	0.0	342.26780581474304	0.10001516342163086
79	328.8409297466278	fix_pre	0		120	77.0	2.5	/experiments/Knapen_AOT/AOT_stimuli/rescaled_final/1226_fw.mp4	0.0	342.3678209781647	1.0002048015594482
79	329.4161515235901	pulse	0	t		77.0	2.5	/experiments/Knapen_AOT/AOT_stimuli/rescaled_final/1226_fw.mp4	0.0	342.94304275512695	
79	329.84113454818726	movie	1		300	77.0	2.5	/experiments/Knapen_AOT/AOT_stimuli/rescaled_final/1226_fw.mp4	0.0	343.3680257797241	2.5003151893615723
79	331.0164318084717	pulse	1	t		77.0	2.5	/experiments/Knapen_AOT/AOT_stimuli/rescaled_final/1226_fw.mp4	0.0	344.54332304000854	
79	332.3414497375488	fix_post	2		12	77.0	2.5	/experiments/Knapen_AOT/AOT_stimuli/rescaled_final/1226_fw.mp4	0.0	345.8683409690857	0.10001993179321289
80	332.44146966934204	fix_pre	0		120	78.0	2.5	/experiments/Knapen_AOT/AOT_stimuli/rescaled_final/0308_rv.mp4	0.0	345.9683609008789	1.0001554489135742
80	332.61667490005493	pulse	0	t		78.0	2.5	/experiments/Knapen_AOT/AOT_stimuli/rescaled_final/0308_rv.mp4	0.0	346.1435661315918	
80	333.4416251182556	movie	1		300	78.0	2.5	/experiments/Knapen_AOT/AOT_stimuli/rescaled_final/0308_rv.mp4	0.0	346.9685163497925	2.50039005279541
80	334.2168803215027	pulse	1	t		78.0	2.5	/experiments/Knapen_AOT/AOT_stimuli/rescaled_final/0308_rv.mp4	0.0	347.74377155303955	
80	335.8172423839569	pulse	1	t		78.0	2.5	/experiments/Knapen_AOT/AOT_stimuli/rescaled_final/0308_rv.mp4	0.0	349.3441336154938	
80	335.942015171051	fix_post	2		12	78.0	2.5	/experiments/Knapen_AOT/AOT_stimuli/rescaled_final/0308_rv.mp4	0.0	349.4689064025879	0.09998822212219238
81	336.0420033931732	fix_pre	0		120	79.0	2.5	/experiments/Knapen_AOT/AOT_stimuli/rescaled_final/2040_fw.mp4	0.0	349.5688946247101	1.00016450881958
81	337.0421679019928	movie	1		300	79.0	2.5	/experiments/Knapen_AOT/AOT_stimuli/rescaled_final/2040_fw.mp4	0.0	350.56905913352966	2.500363349914551
81	337.417507648468	pulse	1	t		79.0	2.5	/experiments/Knapen_AOT/AOT_stimuli/rescaled_final/2040_fw.mp4	0.0	350.9443988800049	
81	339.0175976753235	pulse	1	t		79.0	2.5	/experiments/Knapen_AOT/AOT_stimuli/rescaled_final/2040_fw.mp4	0.0	352.54448890686035	
81	339.54253125190735	fix_post	2		11	79.0	2.5	/experiments/Knapen_AOT/AOT_stimuli/rescaled_final/2040_fw.mp4	0.0	353.0694224834442	0.09169816970825195
82	339.6342294216156	fix_pre	0		119	80.0	2.5	/experiments/Knapen_AOT/AOT_stimuli/rescaled_final/1522_fw.mp4	0.0	353.16112065315247	1.0001521110534668
82	340.61782217025757	pulse	0	t		80.0	2.5	/experiments/Knapen_AOT/AOT_stimuli/rescaled_final/1522_fw.mp4	0.0	354.14471340179443	
82	340.63438153266907	movie	1		300	80.0	2.5	/experiments/Knapen_AOT/AOT_stimuli/rescaled_final/1522_fw.mp4	0.0	354.16127276420593	2.5003721714019775
82	342.21818947792053	pulse	1	t		80.0	2.5	/experiments/Knapen_AOT/AOT_stimuli/rescaled_final/1522_fw.mp4	0.0	355.7450807094574	
82	343.13475370407104	fix_post	2		12	80.0	2.5	/experiments/Knapen_AOT/AOT_stimuli/rescaled_final/1522_fw.mp4	0.0	356.6616449356079	0.10005521774291992
83	343.23480892181396	fix_pre	0		120	81.0	2.5	/experiments/Knapen_AOT/AOT_stimuli/rescaled_final/0866_fw.mp4	0.0	356.76170015335083	1.0000979900360107
83	343.81833267211914	pulse	0	t		81.0	2.5	/experiments/Knapen_AOT/AOT_stimuli/rescaled_final/0866_fw.mp4	0.0	357.345223903656	
83	344.23490691185	movie	1		300	81.0	2.5	/experiments/Knapen_AOT/AOT_stimuli/rescaled_final/0866_fw.mp4	0.0	357.76179814338684	2.50036883354187
83	345.4186408519745	pulse	1	t		81.0	2.5	/experiments/Knapen_AOT/AOT_stimuli/rescaled_final/0866_fw.mp4	0.0	358.94553208351135	
83	346.73527574539185	fix_post	2		12	81.0	2.5	/experiments/Knapen_AOT/AOT_stimuli/rescaled_final/0866_fw.mp4	0.0	360.2621669769287	0.10002589225769043
84	346.83530163764954	fix_pre	0		120	82.0	2.5	/experiments/Knapen_AOT/AOT_stimuli/rescaled_final/1216_fw.mp4	0.0	360.3621928691864	1.0001311302185059
84	347.01878023147583	pulse	0	t		82.0	2.5	/experiments/Knapen_AOT/AOT_stimuli/rescaled_final/1216_fw.mp4	0.0	360.5456714630127	
84	347.83543276786804	movie	1		299	82.0	2.5	/experiments/Knapen_AOT/AOT_stimuli/rescaled_final/1216_fw.mp4	0.0	361.3623239994049	2.50042986869812
84	348.61908197402954	pulse	1	t		82.0	2.5	/experiments/Knapen_AOT/AOT_stimuli/rescaled_final/1216_fw.mp4	0.0	362.1459732055664	
84	350.2192988395691	pulse	1	t		82.0	2.5	/experiments/Knapen_AOT/AOT_stimuli/rescaled_final/1216_fw.mp4	0.0	363.74619007110596	
84	350.33586263656616	fix_post	2		12	82.0	2.5	/experiments/Knapen_AOT/AOT_stimuli/rescaled_final/1216_fw.mp4	0.0	363.862753868103	0.10001063346862793
85	350.4358732700348	fix_pre	0		120	83.0	2.5	blank	1.0	363.96276450157166	1.0001258850097656
85	351.43599915504456	movie	1		299	83.0	2.5	blank	1.0	364.9628903865814	2.4920358657836914
85	351.81949281692505	pulse	1	t		83.0	2.5	blank	1.0	365.3463840484619	
85	353.4197266101837	pulse	1	t		83.0	2.5	blank	1.0	366.9466178417206	
85	353.92803502082825	fix_post	2		12	83.0	2.5	blank	1.0	367.4549262523651	0.10007929801940918
87	354.02811431884766	stim	0		1716					367.5550055503845	14.302111625671387
87	355.01998496055603	pulse	0	t						368.5468761920929	
87	356.6203010082245	pulse	0	t						370.14719223976135	
87	358.2204749584198	pulse	0	t						371.74736618995667	
87	359.82069158554077	pulse	0	t						373.34758281707764	
87	361.42095375061035	pulse	0	t						374.9478449821472	
87	363.02120637893677	pulse	0	t						376.54809761047363	
87	364.6214027404785	pulse	0	t						378.1482939720154	
87	366.22164130210876	pulse	0	t						379.74853253364563	
87	367.82189679145813	pulse	0	t						381.348788022995	
