trial_nr	onset	event_type	phase	response	nr_frames	movie_index	movie_duration	movie_file	blank	onset_abs	duration
0	0.10831308364868164	stim	0		86					45.60544204711914	0.7166788578033447
0	0.8170619010925293	response	0	space						46.31419086456299	
1	0.8249919414520264	stim	0		5006					46.322120904922485	41.716493129730225
1	42.53659796714783	pulse	0	t						88.03372693061829	
1	42.54148507118225	stim	1		1717					88.03861403465271	14.30824899673462
1	44.13338112831116	pulse	1	t						89.63051009178162	
1	45.73335909843445	pulse	1	t						91.23048806190491	
1	47.32572793960571	pulse	1	t						92.82285690307617	
1	48.92574596405029	pulse	1	t						94.42287492752075	
1	50.525784969329834	pulse	1	t						96.0229139328003	
1	52.12572503089905	pulse	1	t						97.6228539943695	
1	53.733295917510986	pulse	1	t						99.23042488098145	
1	55.33334994316101	pulse	1	t						100.83047890663147	
2	56.84973406791687	fix_pre	0		11	0.0	2.5	/experiments/AOT/AOT_stimuli/rescaled_final/0357_rv.mp4	0.0	102.34686303138733	0.09169697761535645
2	56.933274030685425	pulse	0	t		0.0	2.5	/experiments/AOT/AOT_stimuli/rescaled_final/0357_rv.mp4	0.0	102.43040299415588	
2	56.94143104553223	movie	1		244	0.0	2.5	/experiments/AOT/AOT_stimuli/rescaled_final/0357_rv.mp4	0.0	102.43856000900269	2.507974863052368
2	58.53310489654541	pulse	1	t		0.0	2.5	/experiments/AOT/AOT_stimuli/rescaled_final/0357_rv.mp4	0.0	104.03023386001587	
2	59.449405908584595	fix_post	2		12	0.0	2.5	/experiments/AOT/AOT_stimuli/rescaled_final/0357_rv.mp4	0.0	104.94653487205505	0.10036301612854004
3	59.549768924713135	fix_pre	0		120	1.0	2.5	/experiments/AOT/AOT_stimuli/rescaled_final/1230_fw.mp4	0.0	105.0468978881836	0.999981164932251
3	60.133342027664185	pulse	0	t		1.0	2.5	/experiments/AOT/AOT_stimuli/rescaled_final/1230_fw.mp4	0.0	105.63047099113464	
3	60.549750089645386	movie	1		247	1.0	2.5	/experiments/AOT/AOT_stimuli/rescaled_final/1230_fw.mp4	0.0	106.04687905311584	2.500070810317993
3	61.733407974243164	pulse	1	t		1.0	2.5	/experiments/AOT/AOT_stimuli/rescaled_final/1230_fw.mp4	0.0	107.23053693771362	
3	63.04982089996338	fix_post	2		12	1.0	2.5	/experiments/AOT/AOT_stimuli/rescaled_final/1230_fw.mp4	0.0	108.54694986343384	0.0998830795288086
4	63.14970397949219	fix_pre	0		120	2.0	2.5	/experiments/AOT/AOT_stimuli/rescaled_final/0194_rv.mp4	0.0	108.64683294296265	1.0001280307769775
4	63.33328700065613	pulse	0	t		2.0	2.5	/experiments/AOT/AOT_stimuli/rescaled_final/0194_rv.mp4	0.0	108.83041596412659	
4	64.14983201026917	movie	1		246	2.0	2.5	/experiments/AOT/AOT_stimuli/rescaled_final/0194_rv.mp4	0.0	109.64696097373962	2.499933958053589
4	64.93331599235535	pulse	1	t		2.0	2.5	/experiments/AOT/AOT_stimuli/rescaled_final/0194_rv.mp4	0.0	110.4304449558258	
4	66.52572298049927	pulse	1	t		2.0	2.5	/experiments/AOT/AOT_stimuli/rescaled_final/0194_rv.mp4	0.0	112.02285194396973	
4	66.64976596832275	fix_post	2		12	2.0	2.5	/experiments/AOT/AOT_stimuli/rescaled_final/0194_rv.mp4	0.0	112.14689493179321	0.09993910789489746
5	66.74970507621765	fix_pre	0		120	3.0	2.5	/experiments/AOT/AOT_stimuli/rescaled_final/1372_rv.mp4	0.0	112.24683403968811	0.9999790191650391
5	67.74968409538269	movie	1		244	3.0	2.5	/experiments/AOT/AOT_stimuli/rescaled_final/1372_rv.mp4	0.0	113.24681305885315	2.500088930130005
5	68.13288497924805	pulse	1	t		3.0	2.5	/experiments/AOT/AOT_stimuli/rescaled_final/1372_rv.mp4	0.0	113.6300139427185	
5	69.73327708244324	pulse	1	t		3.0	2.5	/experiments/AOT/AOT_stimuli/rescaled_final/1372_rv.mp4	0.0	115.2304060459137	
5	70.2497730255127	fix_post	2		12	3.0	2.5	/experiments/AOT/AOT_stimuli/rescaled_final/1372_rv.mp4	0.0	115.74690198898315	0.09992289543151855
6	70.34969592094421	fix_pre	0		119	4.0	2.5	/experiments/AOT/AOT_stimuli/rescaled_final/0416_rv.mp4	0.0	115.84682488441467	0.9917831420898438
6	71.33332395553589	pulse	0	t		4.0	2.5	/experiments/AOT/AOT_stimuli/rescaled_final/0416_rv.mp4	0.0	116.83045291900635	
6	71.34147906303406	movie	1		245	4.0	2.5	/experiments/AOT/AOT_stimuli/rescaled_final/0416_rv.mp4	0.0	116.83860802650452	2.507844924926758
6	72.93439102172852	pulse	1	t		4.0	2.5	/experiments/AOT/AOT_stimuli/rescaled_final/0416_rv.mp4	0.0	118.43151998519897	
6	73.84932398796082	fix_post	2		12	4.0	2.5	/experiments/AOT/AOT_stimuli/rescaled_final/0416_rv.mp4	0.0	119.34645295143127	0.10001802444458008
7	73.9493420124054	fix_pre	0		120	5.0	2.5	/experiments/AOT/AOT_stimuli/rescaled_final/2005_fw.mp4	0.0	119.44647097587585	1.0003769397735596
7	74.53319191932678	pulse	0	t		5.0	2.5	/experiments/AOT/AOT_stimuli/rescaled_final/2005_fw.mp4	0.0	120.03032088279724	
7	74.94971895217896	movie	1		248	5.0	2.5	/experiments/AOT/AOT_stimuli/rescaled_final/2005_fw.mp4	0.0	120.44684791564941	2.4999749660491943
7	76.13327598571777	pulse	1	t		5.0	2.5	/experiments/AOT/AOT_stimuli/rescaled_final/2005_fw.mp4	0.0	121.63040494918823	
7	77.44969391822815	fix_post	2		12	5.0	2.5	/experiments/AOT/AOT_stimuli/rescaled_final/2005_fw.mp4	0.0	122.94682288169861	0.0999901294708252
8	77.54968404769897	fix_pre	0		120	6.0	2.5	blank	1.0	123.04681301116943	1.0000269412994385
8	77.73331689834595	pulse	0	t		6.0	2.5	blank	1.0	123.2304458618164	
8	78.54971098899841	movie	1		300	6.0	2.5	blank	1.0	124.04683995246887	2.5000319480895996
8	79.33324790000916	pulse	1	t		6.0	2.5	blank	1.0	124.83037686347961	
8	80.93318796157837	pulse	1	t		6.0	2.5	blank	1.0	126.43031692504883	
8	81.04974293708801	fix_post	2		12	6.0	2.5	blank	1.0	126.54687190055847	0.09994697570800781
9	81.14968991279602	fix_pre	0		120	7.0	2.5	/experiments/AOT/AOT_stimuli/rescaled_final/0400_rv.mp4	0.0	126.64681887626648	0.999629020690918
9	82.14931893348694	movie	1		245	7.0	2.5	/experiments/AOT/AOT_stimuli/rescaled_final/0400_rv.mp4	0.0	127.6464478969574	2.500324010848999
9	82.53300905227661	pulse	1	t		7.0	2.5	/experiments/AOT/AOT_stimuli/rescaled_final/0400_rv.mp4	0.0	128.03013801574707	
9	84.12612390518188	pulse	1	t		7.0	2.5	/experiments/AOT/AOT_stimuli/rescaled_final/0400_rv.mp4	0.0	129.62325286865234	
9	84.64964294433594	fix_post	2		12	7.0	2.5	/experiments/AOT/AOT_stimuli/rescaled_final/0400_rv.mp4	0.0	130.1467719078064	0.09998202323913574
10	84.74962496757507	fix_pre	0		119	8.0	2.5	/experiments/AOT/AOT_stimuli/rescaled_final/0011_rv.mp4	0.0	130.24675393104553	0.9917759895324707
10	85.73333501815796	pulse	0	t		8.0	2.5	/experiments/AOT/AOT_stimuli/rescaled_final/0011_rv.mp4	0.0	131.23046398162842	
10	85.74140095710754	movie	1		246	8.0	2.5	/experiments/AOT/AOT_stimuli/rescaled_final/0011_rv.mp4	0.0	131.238529920578	2.5082881450653076
10	87.33271789550781	pulse	1	t		8.0	2.5	/experiments/AOT/AOT_stimuli/rescaled_final/0011_rv.mp4	0.0	132.82984685897827	
10	88.24968910217285	fix_post	2		12	8.0	2.5	/experiments/AOT/AOT_stimuli/rescaled_final/0011_rv.mp4	0.0	133.7468180656433	0.10006880760192871
11	88.34975790977478	fix_pre	0		120	9.0	2.5	/experiments/AOT/AOT_stimuli/rescaled_final/1039_rv.mp4	0.0	133.84688687324524	0.9999279975891113
11	88.93324995040894	pulse	0	t		9.0	2.5	/experiments/AOT/AOT_stimuli/rescaled_final/1039_rv.mp4	0.0	134.4303789138794	
11	89.34968590736389	movie	1		243	9.0	2.5	/experiments/AOT/AOT_stimuli/rescaled_final/1039_rv.mp4	0.0	134.84681487083435	2.499882221221924
11	90.53322005271912	pulse	1	t		9.0	2.5	/experiments/AOT/AOT_stimuli/rescaled_final/1039_rv.mp4	0.0	136.03034901618958	
11	91.84956812858582	fix_post	2		12	9.0	2.5	/experiments/AOT/AOT_stimuli/rescaled_final/1039_rv.mp4	0.0	137.34669709205627	0.10004186630249023
12	91.9496099948883	fix_pre	0		120	10.0	2.5	/experiments/AOT/AOT_stimuli/rescaled_final/1376_rv.mp4	0.0	137.44673895835876	0.999579906463623
12	92.13312411308289	pulse	0	t		10.0	2.5	/experiments/AOT/AOT_stimuli/rescaled_final/1376_rv.mp4	0.0	137.63025307655334	
12	92.94918990135193	movie	1		244	10.0	2.5	/experiments/AOT/AOT_stimuli/rescaled_final/1376_rv.mp4	0.0	138.4463188648224	2.500441074371338
12	93.73313212394714	pulse	1	t		10.0	2.5	/experiments/AOT/AOT_stimuli/rescaled_final/1376_rv.mp4	0.0	139.2302610874176	
12	95.3313341140747	pulse	1	t		10.0	2.5	/experiments/AOT/AOT_stimuli/rescaled_final/1376_rv.mp4	0.0	140.82846307754517	
12	95.44963097572327	fix_post	2		12	10.0	2.5	/experiments/AOT/AOT_stimuli/rescaled_final/1376_rv.mp4	0.0	140.94675993919373	0.099945068359375
13	95.54957604408264	fix_pre	0		120	11.0	2.5	/experiments/AOT/AOT_stimuli/rescaled_final/1332_fw.mp4	0.0	141.0467050075531	1.000011920928955
13	96.5495879650116	movie	1		243	11.0	2.5	/experiments/AOT/AOT_stimuli/rescaled_final/1332_fw.mp4	0.0	142.04671692848206	2.4999630451202393
13	96.93278908729553	pulse	1	t		11.0	2.5	/experiments/AOT/AOT_stimuli/rescaled_final/1332_fw.mp4	0.0	142.429918050766	
13	98.53315210342407	pulse	1	t		11.0	2.5	/experiments/AOT/AOT_stimuli/rescaled_final/1332_fw.mp4	0.0	144.03028106689453	
13	99.04955101013184	fix_post	2		12	11.0	2.5	/experiments/AOT/AOT_stimuli/rescaled_final/1332_fw.mp4	0.0	144.5466799736023	0.10004591941833496
14	99.14959692955017	fix_pre	0		119	12.0	2.5	blank	1.0	144.64672589302063	0.9916989803314209
14	100.13316106796265	pulse	0	t		12.0	2.5	blank	1.0	145.6302900314331	
14	100.14129590988159	movie	1		301	12.0	2.5	blank	1.0	145.63842487335205	2.508287191390991
14	101.73312497138977	pulse	1	t		12.0	2.5	blank	1.0	147.23025393486023	
14	102.64958310127258	fix_post	2		12	12.0	2.5	blank	1.0	148.14671206474304	0.09999299049377441
15	102.74957609176636	fix_pre	0		120	13.0	2.5	/experiments/AOT/AOT_stimuli/rescaled_final/1590_fw.mp4	0.0	148.24670505523682	1.0000560283660889
15	103.33306002616882	pulse	0	t		13.0	2.5	/experiments/AOT/AOT_stimuli/rescaled_final/1590_fw.mp4	0.0	148.83018898963928	
15	103.74963212013245	movie	1		245	13.0	2.5	/experiments/AOT/AOT_stimuli/rescaled_final/1590_fw.mp4	0.0	149.2467610836029	2.4999308586120605
15	104.93317294120789	pulse	1	t		13.0	2.5	/experiments/AOT/AOT_stimuli/rescaled_final/1590_fw.mp4	0.0	150.43030190467834	
15	106.2495629787445	fix_post	2		12	13.0	2.5	/experiments/AOT/AOT_stimuli/rescaled_final/1590_fw.mp4	0.0	151.74669194221497	0.09999895095825195
16	106.34956192970276	fix_pre	0		120	14.0	2.5	/experiments/AOT/AOT_stimuli/rescaled_final/0033_fw.mp4	0.0	151.84669089317322	0.9999420642852783
16	106.53310894966125	pulse	0	t		14.0	2.5	/experiments/AOT/AOT_stimuli/rescaled_final/0033_fw.mp4	0.0	152.0302379131317	
16	107.34950399398804	movie	1		247	14.0	2.5	/experiments/AOT/AOT_stimuli/rescaled_final/0033_fw.mp4	0.0	152.8466329574585	2.4996540546417236
16	108.1331000328064	pulse	1	t		14.0	2.5	/experiments/AOT/AOT_stimuli/rescaled_final/0033_fw.mp4	0.0	153.63022899627686	
16	109.72928500175476	pulse	1	t		14.0	2.5	/experiments/AOT/AOT_stimuli/rescaled_final/0033_fw.mp4	0.0	155.22641396522522	
16	109.84915804862976	fix_post	2		12	14.0	2.5	/experiments/AOT/AOT_stimuli/rescaled_final/0033_fw.mp4	0.0	155.34628701210022	0.10041594505310059
17	109.94957399368286	fix_pre	0		120	15.0	2.5	/experiments/AOT/AOT_stimuli/rescaled_final/2143_rv.mp4	0.0	155.44670295715332	0.9999990463256836
17	110.94957304000854	movie	1		243	15.0	2.5	/experiments/AOT/AOT_stimuli/rescaled_final/2143_rv.mp4	0.0	156.446702003479	2.4995079040527344
17	111.33409404754639	pulse	1	t		15.0	2.5	/experiments/AOT/AOT_stimuli/rescaled_final/2143_rv.mp4	0.0	156.83122301101685	
17	112.93297791481018	pulse	1	t		15.0	2.5	/experiments/AOT/AOT_stimuli/rescaled_final/2143_rv.mp4	0.0	158.43010687828064	
17	113.44908094406128	fix_post	2		12	15.0	2.5	/experiments/AOT/AOT_stimuli/rescaled_final/2143_rv.mp4	0.0	158.94620990753174	0.10045218467712402
18	113.5495331287384	fix_pre	0		119	16.0	2.5	/experiments/AOT/AOT_stimuli/rescaled_final/1757_rv.mp4	0.0	159.04666209220886	0.9918928146362305
18	114.53307104110718	pulse	0	t		16.0	2.5	/experiments/AOT/AOT_stimuli/rescaled_final/1757_rv.mp4	0.0	160.03020000457764	
18	114.54142594337463	movie	1		246	16.0	2.5	/experiments/AOT/AOT_stimuli/rescaled_final/1757_rv.mp4	0.0	160.0385549068451	2.5076730251312256
18	116.13244009017944	pulse	1	t		16.0	2.5	/experiments/AOT/AOT_stimuli/rescaled_final/1757_rv.mp4	0.0	161.6295690536499	
18	117.04909896850586	fix_post	2		12	16.0	2.5	/experiments/AOT/AOT_stimuli/rescaled_final/1757_rv.mp4	0.0	162.54622793197632	0.10044002532958984
19	117.14953899383545	fix_pre	0		120	17.0	2.5	/experiments/AOT/AOT_stimuli/rescaled_final/0501_fw.mp4	0.0	162.6466679573059	1.0000629425048828
19	117.73309707641602	pulse	0	t		17.0	2.5	/experiments/AOT/AOT_stimuli/rescaled_final/0501_fw.mp4	0.0	163.23022603988647	
19	118.14960193634033	movie	1		243	17.0	2.5	/experiments/AOT/AOT_stimuli/rescaled_final/0501_fw.mp4	0.0	163.6467308998108	2.499967098236084
19	119.33310508728027	pulse	1	t		17.0	2.5	/experiments/AOT/AOT_stimuli/rescaled_final/0501_fw.mp4	0.0	164.83023405075073	
19	120.64956903457642	fix_post	2		12	17.0	2.5	/experiments/AOT/AOT_stimuli/rescaled_final/0501_fw.mp4	0.0	166.14669799804688	0.09998202323913574
20	120.74955105781555	fix_pre	0		120	18.0	2.5	/experiments/AOT/AOT_stimuli/rescaled_final/1926_fw.mp4	0.0	166.246680021286	0.9999499320983887
20	120.93303799629211	pulse	0	t		18.0	2.5	/experiments/AOT/AOT_stimuli/rescaled_final/1926_fw.mp4	0.0	166.43016695976257	
20	121.74950098991394	movie	1		246	18.0	2.5	/experiments/AOT/AOT_stimuli/rescaled_final/1926_fw.mp4	0.0	167.2466299533844	2.4999759197235107
20	122.53303098678589	pulse	1	t		18.0	2.5	/experiments/AOT/AOT_stimuli/rescaled_final/1926_fw.mp4	0.0	168.03015995025635	
20	124.13256311416626	pulse	1	t		18.0	2.5	/experiments/AOT/AOT_stimuli/rescaled_final/1926_fw.mp4	0.0	169.62969207763672	
20	124.24947690963745	fix_post	2		12	18.0	2.5	/experiments/AOT/AOT_stimuli/rescaled_final/1926_fw.mp4	0.0	169.7466058731079	0.10002803802490234
21	124.34950494766235	fix_pre	0		120	19.0	2.5	blank	1.0	169.8466339111328	1.0000500679016113
21	125.34955501556396	movie	1		300	19.0	2.5	blank	1.0	170.84668397903442	2.499936103820801
21	125.7330961227417	pulse	1	t		19.0	2.5	blank	1.0	171.23022508621216	
21	127.33302593231201	pulse	1	t		19.0	2.5	blank	1.0	172.83015489578247	
21	127.84949111938477	fix_post	2		12	19.0	2.5	blank	1.0	173.34662008285522	0.10000085830688477
22	127.94949197769165	fix_pre	0		119	20.0	2.5	/experiments/AOT/AOT_stimuli/rescaled_final/0155_fw.mp4	0.0	173.4466209411621	0.9917030334472656
22	128.93305897712708	pulse	0	t		20.0	2.5	/experiments/AOT/AOT_stimuli/rescaled_final/0155_fw.mp4	0.0	174.43018794059753	
22	128.94119501113892	movie	1		244	20.0	2.5	/experiments/AOT/AOT_stimuli/rescaled_final/0155_fw.mp4	0.0	174.43832397460938	2.5082969665527344
22	130.53405094146729	pulse	1	t		20.0	2.5	/experiments/AOT/AOT_stimuli/rescaled_final/0155_fw.mp4	0.0	176.03117990493774	
22	131.44949197769165	fix_post	2		12	20.0	2.5	/experiments/AOT/AOT_stimuli/rescaled_final/0155_fw.mp4	0.0	176.9466209411621	0.10000109672546387
23	131.54949307441711	fix_pre	0		120	21.0	2.5	/experiments/AOT/AOT_stimuli/rescaled_final/0982_rv.mp4	0.0	177.04662203788757	0.9999949932098389
23	132.13304710388184	pulse	0	t		21.0	2.5	/experiments/AOT/AOT_stimuli/rescaled_final/0982_rv.mp4	0.0	177.6301760673523	
23	132.54948806762695	movie	1		243	21.0	2.5	/experiments/AOT/AOT_stimuli/rescaled_final/0982_rv.mp4	0.0	178.0466170310974	2.5000200271606445
23	133.73306798934937	pulse	1	t		21.0	2.5	/experiments/AOT/AOT_stimuli/rescaled_final/0982_rv.mp4	0.0	179.23019695281982	
23	135.0495080947876	fix_post	2		12	21.0	2.5	/experiments/AOT/AOT_stimuli/rescaled_final/0982_rv.mp4	0.0	180.54663705825806	0.0999608039855957
24	135.1494688987732	fix_pre	0		120	22.0	2.5	/experiments/AOT/AOT_stimuli/rescaled_final/0347_rv.mp4	0.0	180.64659786224365	1.0000112056732178
24	135.33307790756226	pulse	0	t		22.0	2.5	/experiments/AOT/AOT_stimuli/rescaled_final/0347_rv.mp4	0.0	180.83020687103271	
24	136.1494801044464	movie	1		244	22.0	2.5	/experiments/AOT/AOT_stimuli/rescaled_final/0347_rv.mp4	0.0	181.64660906791687	2.4996938705444336
24	136.9325029850006	pulse	1	t		22.0	2.5	/experiments/AOT/AOT_stimuli/rescaled_final/0347_rv.mp4	0.0	182.42963194847107	
24	138.53109693527222	pulse	1	t		22.0	2.5	/experiments/AOT/AOT_stimuli/rescaled_final/0347_rv.mp4	0.0	184.02822589874268	
24	138.64917397499084	fix_post	2		12	22.0	2.5	/experiments/AOT/AOT_stimuli/rescaled_final/0347_rv.mp4	0.0	184.1463029384613	0.09996700286865234
25	138.7491409778595	fix_pre	0		120	23.0	2.5	/experiments/AOT/AOT_stimuli/rescaled_final/0618_rv.mp4	0.0	184.24626994132996	1.000581979751587
25	139.74972295761108	movie	1		245	23.0	2.5	/experiments/AOT/AOT_stimuli/rescaled_final/0618_rv.mp4	0.0	185.24685192108154	2.4997060298919678
25	140.1337239742279	pulse	1	t		23.0	2.5	/experiments/AOT/AOT_stimuli/rescaled_final/0618_rv.mp4	0.0	185.63085293769836	
25	141.73291206359863	pulse	1	t		23.0	2.5	/experiments/AOT/AOT_stimuli/rescaled_final/0618_rv.mp4	0.0	187.2300410270691	
25	142.24942898750305	fix_post	2		12	23.0	2.5	/experiments/AOT/AOT_stimuli/rescaled_final/0618_rv.mp4	0.0	187.7465579509735	0.10003995895385742
26	142.3494689464569	fix_pre	0		119	24.0	2.5	/experiments/AOT/AOT_stimuli/rescaled_final/1835_rv.mp4	0.0	187.84659790992737	0.9917111396789551
26	143.33297300338745	pulse	0	t		24.0	2.5	/experiments/AOT/AOT_stimuli/rescaled_final/1835_rv.mp4	0.0	188.8301019668579	
26	143.34118008613586	movie	1		244	24.0	2.5	/experiments/AOT/AOT_stimuli/rescaled_final/1835_rv.mp4	0.0	188.83830904960632	2.5085079669952393
26	144.9325931072235	pulse	1	t		24.0	2.5	/experiments/AOT/AOT_stimuli/rescaled_final/1835_rv.mp4	0.0	190.42972207069397	
26	145.8496880531311	fix_post	2		12	24.0	2.5	/experiments/AOT/AOT_stimuli/rescaled_final/1835_rv.mp4	0.0	191.34681701660156	0.09975099563598633
27	145.9494390487671	fix_pre	0		120	25.0	2.5	/experiments/AOT/AOT_stimuli/rescaled_final/0381_rv.mp4	0.0	191.44656801223755	0.9995589256286621
27	146.53289198875427	pulse	0	t		25.0	2.5	/experiments/AOT/AOT_stimuli/rescaled_final/0381_rv.mp4	0.0	192.03002095222473	
27	146.94899797439575	movie	1		245	25.0	2.5	/experiments/AOT/AOT_stimuli/rescaled_final/0381_rv.mp4	0.0	192.4461269378662	2.500438928604126
27	148.13300895690918	pulse	1	t		25.0	2.5	/experiments/AOT/AOT_stimuli/rescaled_final/0381_rv.mp4	0.0	193.63013792037964	
27	149.44943690299988	fix_post	2		12	25.0	2.5	/experiments/AOT/AOT_stimuli/rescaled_final/0381_rv.mp4	0.0	194.94656586647034	0.09988713264465332
28	149.54932403564453	fix_pre	0		120	26.0	2.5	/experiments/AOT/AOT_stimuli/rescaled_final/0330_fw.mp4	0.0	195.046452999115	1.000166893005371
28	149.7329740524292	pulse	0	t		26.0	2.5	/experiments/AOT/AOT_stimuli/rescaled_final/0330_fw.mp4	0.0	195.23010301589966	
28	150.5494909286499	movie	1		244	26.0	2.5	/experiments/AOT/AOT_stimuli/rescaled_final/0330_fw.mp4	0.0	196.04661989212036	2.4994699954986572
28	151.33283400535583	pulse	1	t		26.0	2.5	/experiments/AOT/AOT_stimuli/rescaled_final/0330_fw.mp4	0.0	196.8299629688263	
28	152.93142199516296	pulse	1	t		26.0	2.5	/experiments/AOT/AOT_stimuli/rescaled_final/0330_fw.mp4	0.0	198.42855095863342	
28	153.04896092414856	fix_post	2		12	26.0	2.5	/experiments/AOT/AOT_stimuli/rescaled_final/0330_fw.mp4	0.0	198.54608988761902	0.10042214393615723
29	153.14938306808472	fix_pre	0		120	27.0	2.5	blank	1.0	198.64651203155518	1.0000300407409668
29	154.14941310882568	movie	1		300	27.0	2.5	blank	1.0	199.64654207229614	2.5000038146972656
29	154.53295612335205	pulse	1	t		27.0	2.5	blank	1.0	200.0300850868225	
29	156.1328730583191	pulse	1	t		27.0	2.5	blank	1.0	201.63000202178955	
29	156.64941692352295	fix_post	2		12	27.0	2.5	blank	1.0	202.1465458869934	0.10001301765441895
30	156.74942994117737	fix_pre	0		119	28.0	2.5	/experiments/AOT/AOT_stimuli/rescaled_final/1520_rv.mp4	0.0	202.24655890464783	0.9916491508483887
30	157.73298001289368	pulse	0	t		28.0	2.5	/experiments/AOT/AOT_stimuli/rescaled_final/1520_rv.mp4	0.0	203.23010897636414	
30	157.74107909202576	movie	1		245	28.0	2.5	/experiments/AOT/AOT_stimuli/rescaled_final/1520_rv.mp4	0.0	203.23820805549622	2.5083699226379395
30	159.33289504051208	pulse	1	t		28.0	2.5	/experiments/AOT/AOT_stimuli/rescaled_final/1520_rv.mp4	0.0	204.83002400398254	
30	160.2494490146637	fix_post	2		12	28.0	2.5	/experiments/AOT/AOT_stimuli/rescaled_final/1520_rv.mp4	0.0	205.74657797813416	0.09996700286865234
31	160.34941601753235	fix_pre	0		120	29.0	2.5	/experiments/AOT/AOT_stimuli/rescaled_final/1031_fw.mp4	0.0	205.8465449810028	1.0000100135803223
31	160.9328920841217	pulse	0	t		29.0	2.5	/experiments/AOT/AOT_stimuli/rescaled_final/1031_fw.mp4	0.0	206.43002104759216	
31	161.34942603111267	movie	1		244	29.0	2.5	/experiments/AOT/AOT_stimuli/rescaled_final/1031_fw.mp4	0.0	206.84655499458313	2.49950909614563
31	162.5329110622406	pulse	1	t		29.0	2.5	/experiments/AOT/AOT_stimuli/rescaled_final/1031_fw.mp4	0.0	208.03004002571106	
31	163.8489351272583	fix_post	2		12	29.0	2.5	/experiments/AOT/AOT_stimuli/rescaled_final/1031_fw.mp4	0.0	209.34606409072876	0.10045886039733887
32	163.94939398765564	fix_pre	0		120	30.0	2.5	/experiments/AOT/AOT_stimuli/rescaled_final/0407_fw.mp4	0.0	209.4465229511261	0.9999411106109619
32	164.13282895088196	pulse	0	t		30.0	2.5	/experiments/AOT/AOT_stimuli/rescaled_final/0407_fw.mp4	0.0	209.62995791435242	
32	164.9493350982666	movie	1		244	30.0	2.5	/experiments/AOT/AOT_stimuli/rescaled_final/0407_fw.mp4	0.0	210.44646406173706	2.4996140003204346
32	165.7328929901123	pulse	1	t		30.0	2.5	/experiments/AOT/AOT_stimuli/rescaled_final/0407_fw.mp4	0.0	211.23002195358276	
32	167.33123803138733	pulse	1	t		30.0	2.5	/experiments/AOT/AOT_stimuli/rescaled_final/0407_fw.mp4	0.0	212.8283669948578	
32	167.44894909858704	fix_post	2		12	30.0	2.5	/experiments/AOT/AOT_stimuli/rescaled_final/0407_fw.mp4	0.0	212.9460780620575	0.10041093826293945
33	167.54936003684998	fix_pre	0		120	31.0	2.5	/experiments/AOT/AOT_stimuli/rescaled_final/0752_fw.mp4	0.0	213.04648900032043	1.0000710487365723
33	168.54943108558655	movie	1		245	31.0	2.5	/experiments/AOT/AOT_stimuli/rescaled_final/0752_fw.mp4	0.0	214.046560049057	2.4999239444732666
33	168.93260312080383	pulse	1	t		31.0	2.5	/experiments/AOT/AOT_stimuli/rescaled_final/0752_fw.mp4	0.0	214.4297320842743	
33	170.5327889919281	pulse	1	t		31.0	2.5	/experiments/AOT/AOT_stimuli/rescaled_final/0752_fw.mp4	0.0	216.02991795539856	
33	171.04935503005981	fix_post	2		12	31.0	2.5	/experiments/AOT/AOT_stimuli/rescaled_final/0752_fw.mp4	0.0	216.54648399353027	0.10001707077026367
34	171.14937210083008	fix_pre	0		119	32.0	2.5	/experiments/AOT/AOT_stimuli/rescaled_final/1122_rv.mp4	0.0	216.64650106430054	0.9917058944702148
34	172.1328580379486	pulse	0	t		32.0	2.5	/experiments/AOT/AOT_stimuli/rescaled_final/1122_rv.mp4	0.0	217.62998700141907	
34	172.1410779953003	movie	1		246	32.0	2.5	/experiments/AOT/AOT_stimuli/rescaled_final/1122_rv.mp4	0.0	217.63820695877075	2.508194923400879
34	173.73252391815186	pulse	1	t		32.0	2.5	/experiments/AOT/AOT_stimuli/rescaled_final/1122_rv.mp4	0.0	219.22965288162231	
34	174.64927291870117	fix_post	2		12	32.0	2.5	/experiments/AOT/AOT_stimuli/rescaled_final/1122_rv.mp4	0.0	220.14640188217163	0.09999299049377441
35	174.74926590919495	fix_pre	0		120	33.0	2.5	/experiments/AOT/AOT_stimuli/rescaled_final/0651_fw.mp4	0.0	220.2463948726654	1.0000560283660889
35	175.33284497261047	pulse	0	t		33.0	2.5	/experiments/AOT/AOT_stimuli/rescaled_final/0651_fw.mp4	0.0	220.82997393608093	
35	175.74932193756104	movie	1		244	33.0	2.5	/experiments/AOT/AOT_stimuli/rescaled_final/0651_fw.mp4	0.0	221.2464509010315	2.499680995941162
35	176.93283891677856	pulse	1	t		33.0	2.5	/experiments/AOT/AOT_stimuli/rescaled_final/0651_fw.mp4	0.0	222.42996788024902	
35	178.2490029335022	fix_post	2		12	33.0	2.5	/experiments/AOT/AOT_stimuli/rescaled_final/0651_fw.mp4	0.0	223.74613189697266	0.10036706924438477
36	178.34937000274658	fix_pre	0		120	34.0	2.5	/experiments/AOT/AOT_stimuli/rescaled_final/1054_rv.mp4	0.0	223.84649896621704	0.9999151229858398
36	178.5328299999237	pulse	0	t		34.0	2.5	/experiments/AOT/AOT_stimuli/rescaled_final/1054_rv.mp4	0.0	224.02995896339417	
36	179.34928512573242	movie	1		244	34.0	2.5	/experiments/AOT/AOT_stimuli/rescaled_final/1054_rv.mp4	0.0	224.84641408920288	2.4995617866516113
36	180.13290691375732	pulse	1	t		34.0	2.5	/experiments/AOT/AOT_stimuli/rescaled_final/1054_rv.mp4	0.0	225.63003587722778	
36	181.73115706443787	pulse	1	t		34.0	2.5	/experiments/AOT/AOT_stimuli/rescaled_final/1054_rv.mp4	0.0	227.22828602790833	
36	181.84884691238403	fix_post	2		12	34.0	2.5	/experiments/AOT/AOT_stimuli/rescaled_final/1054_rv.mp4	0.0	227.3459758758545	0.10038304328918457
37	181.94922995567322	fix_pre	0		120	35.0	2.5	blank	1.0	227.44635891914368	0.9996500015258789
37	182.9488799571991	movie	1		300	35.0	2.5	blank	1.0	228.44600892066956	2.499933958053589
37	183.33285093307495	pulse	1	t		35.0	2.5	blank	1.0	228.8299798965454	
37	184.93276000022888	pulse	1	t		35.0	2.5	blank	1.0	230.42988896369934	
37	185.44881391525269	fix_post	2		12	35.0	2.5	blank	1.0	230.94594287872314	0.10046005249023438
38	185.54927396774292	fix_pre	0		119	36.0	2.5	/experiments/AOT/AOT_stimuli/rescaled_final/0832_rv.mp4	0.0	231.04640293121338	0.9916870594024658
38	186.53272008895874	pulse	0	t		36.0	2.5	/experiments/AOT/AOT_stimuli/rescaled_final/0832_rv.mp4	0.0	232.0298490524292	
38	186.54096102714539	movie	1		244	36.0	2.5	/experiments/AOT/AOT_stimuli/rescaled_final/0832_rv.mp4	0.0	232.03808999061584	2.508272886276245
38	188.13419604301453	pulse	1	t		36.0	2.5	/experiments/AOT/AOT_stimuli/rescaled_final/0832_rv.mp4	0.0	233.63132500648499	
38	189.04923391342163	fix_post	2		12	36.0	2.5	/experiments/AOT/AOT_stimuli/rescaled_final/0832_rv.mp4	0.0	234.5463628768921	0.10011816024780273
39	189.14935207366943	fix_pre	0		120	37.0	2.5	/experiments/AOT/AOT_stimuli/rescaled_final/0136_rv.mp4	0.0	234.6464810371399	1.0000288486480713
39	189.73276090621948	pulse	0	t		37.0	2.5	/experiments/AOT/AOT_stimuli/rescaled_final/0136_rv.mp4	0.0	235.22988986968994	
39	190.1493809223175	movie	1		244	37.0	2.5	/experiments/AOT/AOT_stimuli/rescaled_final/0136_rv.mp4	0.0	235.64650988578796	2.4999120235443115
39	191.33279395103455	pulse	1	t		37.0	2.5	/experiments/AOT/AOT_stimuli/rescaled_final/0136_rv.mp4	0.0	236.829922914505	
39	192.64929294586182	fix_post	2		12	37.0	2.5	/experiments/AOT/AOT_stimuli/rescaled_final/0136_rv.mp4	0.0	238.14642190933228	0.1000370979309082
40	192.74933004379272	fix_pre	0		120	38.0	2.5	/experiments/AOT/AOT_stimuli/rescaled_final/0244_fw.mp4	0.0	238.24645900726318	0.9995059967041016
40	192.93272304534912	pulse	0	t		38.0	2.5	/experiments/AOT/AOT_stimuli/rescaled_final/0244_fw.mp4	0.0	238.42985200881958	
40	193.74883604049683	movie	1		244	38.0	2.5	/experiments/AOT/AOT_stimuli/rescaled_final/0244_fw.mp4	0.0	239.24596500396729	2.500391960144043
40	194.53275203704834	pulse	1	t		38.0	2.5	/experiments/AOT/AOT_stimuli/rescaled_final/0244_fw.mp4	0.0	240.0298810005188	
40	196.13135504722595	pulse	1	t		38.0	2.5	/experiments/AOT/AOT_stimuli/rescaled_final/0244_fw.mp4	0.0	241.6284840106964	
40	196.24922800064087	fix_post	2		12	38.0	2.5	/experiments/AOT/AOT_stimuli/rescaled_final/0244_fw.mp4	0.0	241.74635696411133	0.10033297538757324
41	196.34956097602844	fix_pre	0		120	39.0	2.5	/experiments/AOT/AOT_stimuli/rescaled_final/0470_rv.mp4	0.0	241.8466899394989	0.9997649192810059
41	197.34932589530945	movie	1		245	39.0	2.5	/experiments/AOT/AOT_stimuli/rescaled_final/0470_rv.mp4	0.0	242.8464548587799	2.499901056289673
41	197.73375010490417	pulse	1	t		39.0	2.5	/experiments/AOT/AOT_stimuli/rescaled_final/0470_rv.mp4	0.0	243.23087906837463	
41	199.33265209197998	pulse	1	t		39.0	2.5	/experiments/AOT/AOT_stimuli/rescaled_final/0470_rv.mp4	0.0	244.82978105545044	
41	199.84922695159912	fix_post	2		12	39.0	2.5	/experiments/AOT/AOT_stimuli/rescaled_final/0470_rv.mp4	0.0	245.34635591506958	0.09999895095825195
42	199.94922590255737	fix_pre	0		119	40.0	2.5	/experiments/AOT/AOT_stimuli/rescaled_final/0186_rv.mp4	0.0	245.44635486602783	0.9915900230407715
42	200.93269109725952	pulse	0	t		40.0	2.5	/experiments/AOT/AOT_stimuli/rescaled_final/0186_rv.mp4	0.0	246.42982006072998	
42	200.94081592559814	movie	1		247	40.0	2.5	/experiments/AOT/AOT_stimuli/rescaled_final/0186_rv.mp4	0.0	246.4379448890686	2.5083940029144287
42	202.53234601020813	pulse	1	t		40.0	2.5	/experiments/AOT/AOT_stimuli/rescaled_final/0186_rv.mp4	0.0	248.0294749736786	
42	203.44920992851257	fix_post	2		12	40.0	2.5	/experiments/AOT/AOT_stimuli/rescaled_final/0186_rv.mp4	0.0	248.94633889198303	0.10004019737243652
43	203.549250125885	fix_pre	0		120	41.0	2.5	blank	1.0	249.04637908935547	0.9999377727508545
43	204.1326720714569	pulse	0	t		41.0	2.5	blank	1.0	249.62980103492737	
43	204.54918789863586	movie	1		300	41.0	2.5	blank	1.0	250.04631686210632	2.4999451637268066
43	205.73267602920532	pulse	1	t		41.0	2.5	blank	1.0	251.22980499267578	
43	207.04913306236267	fix_post	2		12	41.0	2.5	blank	1.0	252.54626202583313	0.10004496574401855
44	207.1491780281067	fix_pre	0		120	42.0	2.5	/experiments/AOT/AOT_stimuli/rescaled_final/1907_fw.mp4	0.0	252.64630699157715	1.0000300407409668
44	207.33265709877014	pulse	0	t		42.0	2.5	/experiments/AOT/AOT_stimuli/rescaled_final/1907_fw.mp4	0.0	252.8297860622406	
44	208.14920806884766	movie	1		244	42.0	2.5	/experiments/AOT/AOT_stimuli/rescaled_final/1907_fw.mp4	0.0	253.64633703231812	2.4995429515838623
44	208.9326310157776	pulse	1	t		42.0	2.5	/experiments/AOT/AOT_stimuli/rescaled_final/1907_fw.mp4	0.0	254.42975997924805	
44	210.53130197525024	pulse	1	t		42.0	2.5	/experiments/AOT/AOT_stimuli/rescaled_final/1907_fw.mp4	0.0	256.0284309387207	
44	210.64875102043152	fix_post	2		12	42.0	2.5	/experiments/AOT/AOT_stimuli/rescaled_final/1907_fw.mp4	0.0	256.145879983902	0.09997892379760742
45	210.74872994422913	fix_pre	0		120	43.0	2.5	/experiments/AOT/AOT_stimuli/rescaled_final/0362_fw.mp4	0.0	256.2458589076996	1.0000131130218506
45	211.74874305725098	movie	1		244	43.0	2.5	/experiments/AOT/AOT_stimuli/rescaled_final/0362_fw.mp4	0.0	257.24587202072144	2.4999730587005615
45	212.13217210769653	pulse	1	t		43.0	2.5	/experiments/AOT/AOT_stimuli/rescaled_final/0362_fw.mp4	0.0	257.629301071167	
45	213.73264503479004	pulse	1	t		43.0	2.5	/experiments/AOT/AOT_stimuli/rescaled_final/0362_fw.mp4	0.0	259.2297739982605	
45	214.24871611595154	fix_post	2		12	43.0	2.5	/experiments/AOT/AOT_stimuli/rescaled_final/0362_fw.mp4	0.0	259.745845079422	0.10040783882141113
46	214.34912395477295	fix_pre	0		119	44.0	2.5	/experiments/AOT/AOT_stimuli/rescaled_final/2124_fw.mp4	0.0	259.8462529182434	0.9917030334472656
46	215.33259105682373	pulse	0	t		44.0	2.5	/experiments/AOT/AOT_stimuli/rescaled_final/2124_fw.mp4	0.0	260.8297200202942	
46	215.34082698822021	movie	1		246	44.0	2.5	/experiments/AOT/AOT_stimuli/rescaled_final/2124_fw.mp4	0.0	260.8379559516907	2.507887125015259
46	216.93195700645447	pulse	1	t		44.0	2.5	/experiments/AOT/AOT_stimuli/rescaled_final/2124_fw.mp4	0.0	262.4290859699249	
46	217.84871411323547	fix_post	2		12	44.0	2.5	/experiments/AOT/AOT_stimuli/rescaled_final/2124_fw.mp4	0.0	263.34584307670593	0.10040593147277832
47	217.94912004470825	fix_pre	0		120	45.0	2.5	/experiments/AOT/AOT_stimuli/rescaled_final/0331_fw.mp4	0.0	263.4462490081787	0.9995899200439453
47	218.53260707855225	pulse	0	t		45.0	2.5	/experiments/AOT/AOT_stimuli/rescaled_final/0331_fw.mp4	0.0	264.0297360420227	
47	218.9487099647522	movie	1		246	45.0	2.5	/experiments/AOT/AOT_stimuli/rescaled_final/0331_fw.mp4	0.0	264.44583892822266	2.5004401206970215
47	220.13270092010498	pulse	1	t		45.0	2.5	/experiments/AOT/AOT_stimuli/rescaled_final/0331_fw.mp4	0.0	265.62982988357544	
47	221.44915008544922	fix_post	2		12	45.0	2.5	/experiments/AOT/AOT_stimuli/rescaled_final/0331_fw.mp4	0.0	266.9462790489197	0.09996986389160156
48	221.54911994934082	fix_pre	0		120	46.0	2.5	/experiments/AOT/AOT_stimuli/rescaled_final/0377_fw.mp4	0.0	267.0462489128113	0.9999551773071289
48	221.73263692855835	pulse	0	t		46.0	2.5	/experiments/AOT/AOT_stimuli/rescaled_final/0377_fw.mp4	0.0	267.2297658920288	
48	222.54907512664795	movie	1		248	46.0	2.5	/experiments/AOT/AOT_stimuli/rescaled_final/0377_fw.mp4	0.0	268.0462040901184	2.499600887298584
48	223.33263993263245	pulse	1	t		46.0	2.5	/experiments/AOT/AOT_stimuli/rescaled_final/0377_fw.mp4	0.0	268.8297688961029	
48	224.92874312400818	pulse	1	t		46.0	2.5	/experiments/AOT/AOT_stimuli/rescaled_final/0377_fw.mp4	0.0	270.42587208747864	
48	225.04867601394653	fix_post	2		12	46.0	2.5	/experiments/AOT/AOT_stimuli/rescaled_final/0377_fw.mp4	0.0	270.545804977417	0.10044288635253906
49	225.14911890029907	fix_pre	0		120	47.0	2.5	blank	1.0	270.64624786376953	0.9999091625213623
49	226.14902806282043	movie	1		300	47.0	2.5	blank	1.0	271.6461570262909	2.500113010406494
49	226.5326189994812	pulse	1	t		47.0	2.5	blank	1.0	272.02974796295166	
49	228.13262295722961	pulse	1	t		47.0	2.5	blank	1.0	273.6297519207001	
49	228.64914107322693	fix_post	2		12	47.0	2.5	blank	1.0	274.1462700366974	0.09993195533752441
50	228.74907302856445	fix_pre	0		119	48.0	2.5	/experiments/AOT/AOT_stimuli/rescaled_final/1926_fw.mp4	0.0	274.2462019920349	0.9916229248046875
50	229.73267912864685	pulse	0	t		48.0	2.5	/experiments/AOT/AOT_stimuli/rescaled_final/1926_fw.mp4	0.0	275.2298080921173	
50	229.74069595336914	movie	1		247	48.0	2.5	/experiments/AOT/AOT_stimuli/rescaled_final/1926_fw.mp4	0.0	275.2378249168396	2.508358955383301
50	231.33225989341736	pulse	1	t		48.0	2.5	/experiments/AOT/AOT_stimuli/rescaled_final/1926_fw.mp4	0.0	276.8293888568878	
50	232.24905490875244	fix_post	2		12	48.0	2.5	/experiments/AOT/AOT_stimuli/rescaled_final/1926_fw.mp4	0.0	277.7461838722229	0.10003018379211426
51	232.34908509254456	fix_pre	0		120	49.0	2.5	/experiments/AOT/AOT_stimuli/rescaled_final/2030_rv.mp4	0.0	277.846214056015	0.9999430179595947
51	232.93368101119995	pulse	0	t		49.0	2.5	/experiments/AOT/AOT_stimuli/rescaled_final/2030_rv.mp4	0.0	278.4308099746704	
51	233.34902811050415	movie	1		243	49.0	2.5	/experiments/AOT/AOT_stimuli/rescaled_final/2030_rv.mp4	0.0	278.8461570739746	2.5000360012054443
51	234.53271007537842	pulse	1	t		49.0	2.5	/experiments/AOT/AOT_stimuli/rescaled_final/2030_rv.mp4	0.0	280.0298390388489	
51	235.8490641117096	fix_post	2		12	49.0	2.5	/experiments/AOT/AOT_stimuli/rescaled_final/2030_rv.mp4	0.0	281.34619307518005	0.09999489784240723
52	235.949059009552	fix_pre	0		120	50.0	2.5	/experiments/AOT/AOT_stimuli/rescaled_final/1485_rv.mp4	0.0	281.44618797302246	0.9995551109313965
52	236.13255405426025	pulse	0	t		50.0	2.5	/experiments/AOT/AOT_stimuli/rescaled_final/1485_rv.mp4	0.0	281.6296830177307	
52	236.9486141204834	movie	1		244	50.0	2.5	/experiments/AOT/AOT_stimuli/rescaled_final/1485_rv.mp4	0.0	282.44574308395386	2.499976873397827
52	237.73256301879883	pulse	1	t		50.0	2.5	/experiments/AOT/AOT_stimuli/rescaled_final/1485_rv.mp4	0.0	283.2296919822693	
52	239.33116102218628	pulse	1	t		50.0	2.5	/experiments/AOT/AOT_stimuli/rescaled_final/1485_rv.mp4	0.0	284.82828998565674	
52	239.44859099388123	fix_post	2		12	50.0	2.5	/experiments/AOT/AOT_stimuli/rescaled_final/1485_rv.mp4	0.0	284.9457199573517	0.10045194625854492
53	239.54904294013977	fix_pre	0		120	51.0	2.5	/experiments/AOT/AOT_stimuli/rescaled_final/0711_rv.mp4	0.0	285.04617190361023	0.9999651908874512
53	240.54900813102722	movie	1		245	51.0	2.5	/experiments/AOT/AOT_stimuli/rescaled_final/0711_rv.mp4	0.0	286.0461370944977	2.4999639987945557
53	240.9318540096283	pulse	1	t		51.0	2.5	/experiments/AOT/AOT_stimuli/rescaled_final/0711_rv.mp4	0.0	286.42898297309875	
53	242.532546043396	pulse	1	t		51.0	2.5	/experiments/AOT/AOT_stimuli/rescaled_final/0711_rv.mp4	0.0	288.02967500686646	
53	243.04897212982178	fix_post	2		12	51.0	2.5	/experiments/AOT/AOT_stimuli/rescaled_final/0711_rv.mp4	0.0	288.54610109329224	0.10000777244567871
54	243.14897990226746	fix_pre	0		119	52.0	2.5	/experiments/AOT/AOT_stimuli/rescaled_final/1499_fw.mp4	0.0	288.6461088657379	0.9916810989379883
54	244.1325659751892	pulse	0	t		52.0	2.5	/experiments/AOT/AOT_stimuli/rescaled_final/1499_fw.mp4	0.0	289.62969493865967	
54	244.14066100120544	movie	1		245	52.0	2.5	/experiments/AOT/AOT_stimuli/rescaled_final/1499_fw.mp4	0.0	289.6377899646759	2.5079710483551025
54	245.7338240146637	pulse	1	t		52.0	2.5	/experiments/AOT/AOT_stimuli/rescaled_final/1499_fw.mp4	0.0	291.23095297813416	
54	246.64863204956055	fix_post	2		12	52.0	2.5	/experiments/AOT/AOT_stimuli/rescaled_final/1499_fw.mp4	0.0	292.145761013031	0.10037684440612793
55	246.74900889396667	fix_pre	0		120	53.0	2.5	/experiments/AOT/AOT_stimuli/rescaled_final/0572_rv.mp4	0.0	292.24613785743713	0.999953031539917
55	247.332612991333	pulse	0	t		53.0	2.5	/experiments/AOT/AOT_stimuli/rescaled_final/0572_rv.mp4	0.0	292.82974195480347	
55	247.7489619255066	movie	1		248	53.0	2.5	/experiments/AOT/AOT_stimuli/rescaled_final/0572_rv.mp4	0.0	293.24609088897705	2.4997479915618896
55	248.93215799331665	pulse	1	t		53.0	2.5	/experiments/AOT/AOT_stimuli/rescaled_final/0572_rv.mp4	0.0	294.4292869567871	
55	250.24870991706848	fix_post	2		12	53.0	2.5	/experiments/AOT/AOT_stimuli/rescaled_final/0572_rv.mp4	0.0	295.74583888053894	0.09993505477905273
56	250.34864497184753	fix_pre	0		120	54.0	2.5	/experiments/AOT/AOT_stimuli/rescaled_final/1986_rv.mp4	0.0	295.845773935318	1.0002529621124268
56	250.53217196464539	pulse	0	t		54.0	2.5	/experiments/AOT/AOT_stimuli/rescaled_final/1986_rv.mp4	0.0	296.02930092811584	
56	251.34889793395996	movie	1		244	54.0	2.5	/experiments/AOT/AOT_stimuli/rescaled_final/1986_rv.mp4	0.0	296.8460268974304	2.500141143798828
56	252.13239908218384	pulse	1	t		54.0	2.5	/experiments/AOT/AOT_stimuli/rescaled_final/1986_rv.mp4	0.0	297.6295280456543	
56	253.7311189174652	pulse	1	t		54.0	2.5	/experiments/AOT/AOT_stimuli/rescaled_final/1986_rv.mp4	0.0	299.22824788093567	
56	253.8490390777588	fix_post	2		12	54.0	2.5	/experiments/AOT/AOT_stimuli/rescaled_final/1986_rv.mp4	0.0	299.34616804122925	0.1000058650970459
57	253.94904494285583	fix_pre	0		120	55.0	2.5	blank	1.0	299.4461739063263	0.9999091625213623
57	254.9489541053772	movie	1		300	55.0	2.5	blank	1.0	300.44608306884766	2.5000150203704834
57	255.33247995376587	pulse	1	t		55.0	2.5	blank	1.0	300.8296089172363	
57	256.93245792388916	pulse	1	t		55.0	2.5	blank	1.0	302.4295868873596	
57	257.4489691257477	fix_post	2		12	55.0	2.5	blank	1.0	302.94609808921814	0.09998679161071777
58	257.5489559173584	fix_pre	0		119	56.0	2.5	/experiments/AOT/AOT_stimuli/rescaled_final/1246_fw.mp4	0.0	303.04608488082886	0.9916691780090332
58	258.53246307373047	pulse	0	t		56.0	2.5	/experiments/AOT/AOT_stimuli/rescaled_final/1246_fw.mp4	0.0	304.0295920372009	
58	258.54062509536743	movie	1		246	56.0	2.5	/experiments/AOT/AOT_stimuli/rescaled_final/1246_fw.mp4	0.0	304.0377540588379	2.5083398818969727
58	260.13396191596985	pulse	1	t		56.0	2.5	/experiments/AOT/AOT_stimuli/rescaled_final/1246_fw.mp4	0.0	305.6310908794403	
58	261.0489649772644	fix_post	2		12	56.0	2.5	/experiments/AOT/AOT_stimuli/rescaled_final/1246_fw.mp4	0.0	306.54609394073486	0.09967708587646484
59	261.14864206314087	fix_pre	0		120	57.0	2.5	/experiments/AOT/AOT_stimuli/rescaled_final/0864_fw.mp4	0.0	306.6457710266113	0.9999439716339111
59	261.732458114624	pulse	0	t		57.0	2.5	/experiments/AOT/AOT_stimuli/rescaled_final/0864_fw.mp4	0.0	307.2295870780945	
59	262.1485860347748	movie	1		246	57.0	2.5	/experiments/AOT/AOT_stimuli/rescaled_final/0864_fw.mp4	0.0	307.64571499824524	2.500062942504883
59	263.33250308036804	pulse	1	t		57.0	2.5	/experiments/AOT/AOT_stimuli/rescaled_final/0864_fw.mp4	0.0	308.8296320438385	
59	264.64864897727966	fix_post	2		12	57.0	2.5	/experiments/AOT/AOT_stimuli/rescaled_final/0864_fw.mp4	0.0	310.1457779407501	0.1003119945526123
60	264.7489609718323	fix_pre	0		120	58.0	2.5	/experiments/AOT/AOT_stimuli/rescaled_final/1656_fw.mp4	0.0	310.24608993530273	0.9999511241912842
60	264.9324390888214	pulse	0	t		58.0	2.5	/experiments/AOT/AOT_stimuli/rescaled_final/1656_fw.mp4	0.0	310.42956805229187	
60	265.74891209602356	movie	1		244	58.0	2.5	/experiments/AOT/AOT_stimuli/rescaled_final/1656_fw.mp4	0.0	311.246041059494	2.5000739097595215
60	266.53238892555237	pulse	1	t		58.0	2.5	/experiments/AOT/AOT_stimuli/rescaled_final/1656_fw.mp4	0.0	312.0295178890228	
60	268.13081312179565	pulse	1	t		58.0	2.5	/experiments/AOT/AOT_stimuli/rescaled_final/1656_fw.mp4	0.0	313.6279420852661	
60	268.2489860057831	fix_post	2		12	58.0	2.5	/experiments/AOT/AOT_stimuli/rescaled_final/1656_fw.mp4	0.0	313.74611496925354	0.09998202323913574
61	268.3489680290222	fix_pre	0		120	59.0	2.5	/experiments/AOT/AOT_stimuli/rescaled_final/1892_rv.mp4	0.0	313.8460969924927	0.9999420642852783
61	269.3489100933075	movie	1		245	59.0	2.5	/experiments/AOT/AOT_stimuli/rescaled_final/1892_rv.mp4	0.0	314.84603905677795	2.5000438690185547
61	269.7321779727936	pulse	1	t		59.0	2.5	/experiments/AOT/AOT_stimuli/rescaled_final/1892_rv.mp4	0.0	315.22930693626404	
61	271.33238196372986	pulse	1	t		59.0	2.5	/experiments/AOT/AOT_stimuli/rescaled_final/1892_rv.mp4	0.0	316.8295109272003	
61	271.84895396232605	fix_post	2		12	59.0	2.5	/experiments/AOT/AOT_stimuli/rescaled_final/1892_rv.mp4	0.0	317.3460829257965	0.09990596771240234
62	271.94885993003845	fix_pre	0		119	60.0	2.5	/experiments/AOT/AOT_stimuli/rescaled_final/0172_rv.mp4	0.0	317.4459888935089	0.9917221069335938
62	272.932382106781	pulse	0	t		60.0	2.5	/experiments/AOT/AOT_stimuli/rescaled_final/0172_rv.mp4	0.0	318.42951107025146	
62	272.94058203697205	movie	1		246	60.0	2.5	/experiments/AOT/AOT_stimuli/rescaled_final/0172_rv.mp4	0.0	318.4377110004425	2.508358955383301
62	274.53173995018005	pulse	1	t		60.0	2.5	/experiments/AOT/AOT_stimuli/rescaled_final/0172_rv.mp4	0.0	320.0288689136505	
62	275.44894099235535	fix_post	2		12	60.0	2.5	/experiments/AOT/AOT_stimuli/rescaled_final/0172_rv.mp4	0.0	320.9460699558258	0.10011410713195801
63	275.5490550994873	fix_pre	0		120	61.0	2.5	blank	1.0	321.04618406295776	0.9994208812713623
63	276.13234305381775	pulse	0	t		61.0	2.5	blank	1.0	321.6294720172882	
63	276.54847598075867	movie	1		300	61.0	2.5	blank	1.0	322.0456049442291	2.5004310607910156
63	277.73236989974976	pulse	1	t		61.0	2.5	blank	1.0	323.2294988632202	
63	279.0489070415497	fix_post	2		12	61.0	2.5	blank	1.0	324.54603600502014	0.09993791580200195
64	279.1488449573517	fix_pre	0		120	62.0	2.5	/experiments/AOT/AOT_stimuli/rescaled_final/0933_rv.mp4	0.0	324.64597392082214	1.0000791549682617
64	279.33234691619873	pulse	0	t		62.0	2.5	/experiments/AOT/AOT_stimuli/rescaled_final/0933_rv.mp4	0.0	324.8294758796692	
64	280.14892411231995	movie	1		245	62.0	2.5	/experiments/AOT/AOT_stimuli/rescaled_final/0933_rv.mp4	0.0	325.6460530757904	2.4998629093170166
64	280.9323880672455	pulse	1	t		62.0	2.5	/experiments/AOT/AOT_stimuli/rescaled_final/0933_rv.mp4	0.0	326.42951703071594	
64	282.5313639640808	pulse	1	t		62.0	2.5	/experiments/AOT/AOT_stimuli/rescaled_final/0933_rv.mp4	0.0	328.02849292755127	
64	282.64878702163696	fix_post	2		12	62.0	2.5	/experiments/AOT/AOT_stimuli/rescaled_final/0933_rv.mp4	0.0	328.1459159851074	0.10002589225769043
65	282.74881291389465	fix_pre	0		120	63.0	2.5	/experiments/AOT/AOT_stimuli/rescaled_final/2005_fw.mp4	0.0	328.2459418773651	0.99996018409729
65	283.74877309799194	movie	1		251	63.0	2.5	/experiments/AOT/AOT_stimuli/rescaled_final/2005_fw.mp4	0.0	329.2459020614624	2.5000669956207275
65	284.13246512413025	pulse	1	t		63.0	2.5	/experiments/AOT/AOT_stimuli/rescaled_final/2005_fw.mp4	0.0	329.6295940876007	
65	285.7323589324951	pulse	1	t		63.0	2.5	/experiments/AOT/AOT_stimuli/rescaled_final/2005_fw.mp4	0.0	331.2294878959656	
65	286.24884009361267	fix_post	2		12	63.0	2.5	/experiments/AOT/AOT_stimuli/rescaled_final/2005_fw.mp4	0.0	331.74596905708313	0.10004687309265137
66	286.3488869667053	fix_pre	0		119	64.0	2.5	/experiments/AOT/AOT_stimuli/rescaled_final/1413_fw.mp4	0.0	331.8460159301758	0.9916350841522217
66	287.33234190940857	pulse	0	t		64.0	2.5	/experiments/AOT/AOT_stimuli/rescaled_final/1413_fw.mp4	0.0	332.829470872879	
66	287.34052205085754	movie	1		247	64.0	2.5	/experiments/AOT/AOT_stimuli/rescaled_final/1413_fw.mp4	0.0	332.837651014328	2.5083558559417725
66	288.9317650794983	pulse	1	t		64.0	2.5	/experiments/AOT/AOT_stimuli/rescaled_final/1413_fw.mp4	0.0	334.42889404296875	
66	289.8488779067993	fix_post	2		12	64.0	2.5	/experiments/AOT/AOT_stimuli/rescaled_final/1413_fw.mp4	0.0	335.3460068702698	0.09997105598449707
67	289.9488489627838	fix_pre	0		120	65.0	2.5	/experiments/AOT/AOT_stimuli/rescaled_final/0011_fw.mp4	0.0	335.4459779262543	0.9999730587005615
67	290.5323660373688	pulse	0	t		65.0	2.5	/experiments/AOT/AOT_stimuli/rescaled_final/0011_fw.mp4	0.0	336.02949500083923	
67	290.9488220214844	movie	1		245	65.0	2.5	/experiments/AOT/AOT_stimuli/rescaled_final/0011_fw.mp4	0.0	336.44595098495483	2.499983072280884
67	292.13239097595215	pulse	1	t		65.0	2.5	/experiments/AOT/AOT_stimuli/rescaled_final/0011_fw.mp4	0.0	337.6295199394226	
67	293.44880509376526	fix_post	2		12	65.0	2.5	/experiments/AOT/AOT_stimuli/rescaled_final/0011_fw.mp4	0.0	338.9459340572357	0.09999680519104004
68	293.5488018989563	fix_pre	0		120	66.0	2.5	/experiments/AOT/AOT_stimuli/rescaled_final/0461_rv.mp4	0.0	339.04593086242676	1.0000860691070557
68	293.73235392570496	pulse	0	t		66.0	2.5	/experiments/AOT/AOT_stimuli/rescaled_final/0461_rv.mp4	0.0	339.2294828891754	
68	294.54888796806335	movie	1		244	66.0	2.5	/experiments/AOT/AOT_stimuli/rescaled_final/0461_rv.mp4	0.0	340.0460169315338	2.4998581409454346
68	295.3322820663452	pulse	1	t		66.0	2.5	/experiments/AOT/AOT_stimuli/rescaled_final/0461_rv.mp4	0.0	340.8294110298157	
68	296.93155789375305	pulse	1	t		66.0	2.5	/experiments/AOT/AOT_stimuli/rescaled_final/0461_rv.mp4	0.0	342.4286868572235	
68	297.0487461090088	fix_post	2		12	66.0	2.5	/experiments/AOT/AOT_stimuli/rescaled_final/0461_rv.mp4	0.0	342.54587507247925	0.10000491142272949
69	297.1487510204315	fix_pre	0		120	67.0	2.5	/experiments/AOT/AOT_stimuli/rescaled_final/1986_rv.mp4	0.0	342.645879983902	1.0000510215759277
69	298.14880204200745	movie	1		244	67.0	2.5	/experiments/AOT/AOT_stimuli/rescaled_final/1986_rv.mp4	0.0	343.6459310054779	2.4999709129333496
69	298.53195810317993	pulse	1	t		67.0	2.5	/experiments/AOT/AOT_stimuli/rescaled_final/1986_rv.mp4	0.0	344.0290870666504	
69	300.1322910785675	pulse	1	t		67.0	2.5	/experiments/AOT/AOT_stimuli/rescaled_final/1986_rv.mp4	0.0	345.62942004203796	
69	300.6487729549408	fix_post	2		12	67.0	2.5	/experiments/AOT/AOT_stimuli/rescaled_final/1986_rv.mp4	0.0	346.14590191841125	0.10002708435058594
70	300.7488000392914	fix_pre	0		119	68.0	2.5	/experiments/AOT/AOT_stimuli/rescaled_final/1921_fw.mp4	0.0	346.24592900276184	0.9916958808898926
70	301.7323360443115	pulse	0	t		68.0	2.5	/experiments/AOT/AOT_stimuli/rescaled_final/1921_fw.mp4	0.0	347.229465007782	
70	301.7404959201813	movie	1		246	68.0	2.5	/experiments/AOT/AOT_stimuli/rescaled_final/1921_fw.mp4	0.0	347.23762488365173	2.5079121589660645
70	303.33235907554626	pulse	1	t		68.0	2.5	/experiments/AOT/AOT_stimuli/rescaled_final/1921_fw.mp4	0.0	348.8294880390167	
70	304.24840807914734	fix_post	2		12	68.0	2.5	/experiments/AOT/AOT_stimuli/rescaled_final/1921_fw.mp4	0.0	349.7455370426178	0.10037493705749512
71	304.34878301620483	fix_pre	0		120	69.0	2.5	/experiments/AOT/AOT_stimuli/rescaled_final/2121_fw.mp4	0.0	349.8459119796753	0.9995861053466797
71	304.9318690299988	pulse	0	t		69.0	2.5	/experiments/AOT/AOT_stimuli/rescaled_final/2121_fw.mp4	0.0	350.42899799346924	
71	305.3483691215515	movie	1		243	69.0	2.5	/experiments/AOT/AOT_stimuli/rescaled_final/2121_fw.mp4	0.0	350.845498085022	2.5006978511810303
71	306.53196597099304	pulse	1	t		69.0	2.5	/experiments/AOT/AOT_stimuli/rescaled_final/2121_fw.mp4	0.0	352.0290949344635	
71	307.84906697273254	fix_post	2		12	69.0	2.5	/experiments/AOT/AOT_stimuli/rescaled_final/2121_fw.mp4	0.0	353.346195936203	0.09965014457702637
72	307.94871711730957	fix_pre	0		120	70.0	2.5	blank	1.0	353.44584608078003	0.9999909400939941
72	308.1322751045227	pulse	0	t		70.0	2.5	blank	1.0	353.62940406799316	
72	308.94870805740356	movie	1		300	70.0	2.5	blank	1.0	354.445837020874	2.4996299743652344
72	309.7322430610657	pulse	1	t		70.0	2.5	blank	1.0	355.22937202453613	
72	311.3321840763092	pulse	1	t		70.0	2.5	blank	1.0	356.82931303977966	
72	311.4483380317688	fix_post	2		12	70.0	2.5	blank	1.0	356.94546699523926	0.10037708282470703
73	311.5487151145935	fix_pre	0		120	71.0	2.5	/experiments/AOT/AOT_stimuli/rescaled_final/1541_rv.mp4	0.0	357.04584407806396	0.9996368885040283
73	312.54835200309753	movie	1		246	71.0	2.5	/experiments/AOT/AOT_stimuli/rescaled_final/1541_rv.mp4	0.0	358.045480966568	2.4999659061431885
73	312.9319100379944	pulse	1	t		71.0	2.5	/experiments/AOT/AOT_stimuli/rescaled_final/1541_rv.mp4	0.0	358.42903900146484	
73	314.53221702575684	pulse	1	t		71.0	2.5	/experiments/AOT/AOT_stimuli/rescaled_final/1541_rv.mp4	0.0	360.0293459892273	
73	315.0483179092407	fix_post	2		12	71.0	2.5	/experiments/AOT/AOT_stimuli/rescaled_final/1541_rv.mp4	0.0	360.5454468727112	0.10036015510559082
74	315.1486780643463	fix_pre	0		119	72.0	2.5	/experiments/AOT/AOT_stimuli/rescaled_final/2143_fw.mp4	0.0	360.6458070278168	0.9916839599609375
74	316.13218903541565	pulse	0	t		72.0	2.5	/experiments/AOT/AOT_stimuli/rescaled_final/2143_fw.mp4	0.0	361.6293179988861	
74	316.14036202430725	movie	1		244	72.0	2.5	/experiments/AOT/AOT_stimuli/rescaled_final/2143_fw.mp4	0.0	361.6374909877777	2.5082809925079346
74	317.73186707496643	pulse	1	t		72.0	2.5	/experiments/AOT/AOT_stimuli/rescaled_final/2143_fw.mp4	0.0	363.2289960384369	
74	318.6486430168152	fix_post	2		12	72.0	2.5	/experiments/AOT/AOT_stimuli/rescaled_final/2143_fw.mp4	0.0	364.14577198028564	0.10002994537353516
75	318.7486729621887	fix_pre	0		120	73.0	2.5	/experiments/AOT/AOT_stimuli/rescaled_final/0264_rv.mp4	0.0	364.2458019256592	0.9999561309814453
75	319.3322288990021	pulse	0	t		73.0	2.5	/experiments/AOT/AOT_stimuli/rescaled_final/0264_rv.mp4	0.0	364.82935786247253	
75	319.74862909317017	movie	1		243	73.0	2.5	/experiments/AOT/AOT_stimuli/rescaled_final/0264_rv.mp4	0.0	365.2457580566406	2.499635934829712
75	320.9322590827942	pulse	1	t		73.0	2.5	/experiments/AOT/AOT_stimuli/rescaled_final/0264_rv.mp4	0.0	366.42938804626465	
75	322.2482650279999	fix_post	2		12	73.0	2.5	/experiments/AOT/AOT_stimuli/rescaled_final/0264_rv.mp4	0.0	367.74539399147034	0.10048699378967285
76	322.34875202178955	fix_pre	0		120	74.0	2.5	/experiments/AOT/AOT_stimuli/rescaled_final/0053_fw.mp4	0.0	367.84588098526	0.9999449253082275
76	322.5322139263153	pulse	0	t		74.0	2.5	/experiments/AOT/AOT_stimuli/rescaled_final/0053_fw.mp4	0.0	368.02934288978577	
76	323.3486969470978	movie	1		244	74.0	2.5	/experiments/AOT/AOT_stimuli/rescaled_final/0053_fw.mp4	0.0	368.84582591056824	2.499993085861206
76	324.13213896751404	pulse	1	t		74.0	2.5	/experiments/AOT/AOT_stimuli/rescaled_final/0053_fw.mp4	0.0	369.6292679309845	
76	325.73081612586975	pulse	1	t		74.0	2.5	/experiments/AOT/AOT_stimuli/rescaled_final/0053_fw.mp4	0.0	371.2279450893402	
76	325.848690032959	fix_post	2		12	74.0	2.5	/experiments/AOT/AOT_stimuli/rescaled_final/0053_fw.mp4	0.0	371.34581899642944	0.09969401359558105
77	325.94838404655457	fix_pre	0		120	75.0	2.5	/experiments/AOT/AOT_stimuli/rescaled_final/1402_rv.mp4	0.0	371.445513010025	0.999845027923584
77	326.94822907447815	movie	1		243	75.0	2.5	/experiments/AOT/AOT_stimuli/rescaled_final/1402_rv.mp4	0.0	372.4453580379486	2.500391960144043
77	327.33200693130493	pulse	1	t		75.0	2.5	/experiments/AOT/AOT_stimuli/rescaled_final/1402_rv.mp4	0.0	372.8291358947754	
77	328.93214893341064	pulse	1	t		75.0	2.5	/experiments/AOT/AOT_stimuli/rescaled_final/1402_rv.mp4	0.0	374.4292778968811	
77	329.4486210346222	fix_post	2		12	75.0	2.5	/experiments/AOT/AOT_stimuli/rescaled_final/1402_rv.mp4	0.0	374.94574999809265	0.1000070571899414
78	329.54862809181213	fix_pre	0		119	76.0	2.5	blank	1.0	375.0457570552826	0.991649866104126
78	330.5322160720825	pulse	0	t		76.0	2.5	blank	1.0	376.029345035553	
78	330.54027795791626	movie	1		301	76.0	2.5	blank	1.0	376.0374069213867	2.5084080696105957
78	332.13212490081787	pulse	1	t		76.0	2.5	blank	1.0	377.62925386428833	
78	333.04868602752686	fix_post	2		12	76.0	2.5	blank	1.0	378.5458149909973	0.09994292259216309
79	333.148628950119	fix_pre	0		120	77.0	2.5	/experiments/AOT/AOT_stimuli/rescaled_final/1912_rv.mp4	0.0	378.6457579135895	1.0000300407409668
79	333.732115983963	pulse	0	t		77.0	2.5	/experiments/AOT/AOT_stimuli/rescaled_final/1912_rv.mp4	0.0	379.2292449474335	
79	334.14865899086	movie	1		247	77.0	2.5	/experiments/AOT/AOT_stimuli/rescaled_final/1912_rv.mp4	0.0	379.64578795433044	2.499485969543457
79	335.33212900161743	pulse	1	t		77.0	2.5	/experiments/AOT/AOT_stimuli/rescaled_final/1912_rv.mp4	0.0	380.8292579650879	
79	336.64814496040344	fix_post	2		12	77.0	2.5	/experiments/AOT/AOT_stimuli/rescaled_final/1912_rv.mp4	0.0	382.1452739238739	0.10050606727600098
80	336.74865102767944	fix_pre	0		120	78.0	2.5	/experiments/AOT/AOT_stimuli/rescaled_final/1590_fw.mp4	0.0	382.2457799911499	0.9995179176330566
80	336.93215894699097	pulse	0	t		78.0	2.5	/experiments/AOT/AOT_stimuli/rescaled_final/1590_fw.mp4	0.0	382.4292879104614	
80	337.7481689453125	movie	1		244	78.0	2.5	/experiments/AOT/AOT_stimuli/rescaled_final/1590_fw.mp4	0.0	383.24529790878296	2.500481128692627
80	338.5321590900421	pulse	1	t		78.0	2.5	/experiments/AOT/AOT_stimuli/rescaled_final/1590_fw.mp4	0.0	384.0292880535126	
80	340.13071393966675	pulse	1	t		78.0	2.5	/experiments/AOT/AOT_stimuli/rescaled_final/1590_fw.mp4	0.0	385.6278429031372	
80	340.2486500740051	fix_post	2		12	78.0	2.5	/experiments/AOT/AOT_stimuli/rescaled_final/1590_fw.mp4	0.0	385.7457790374756	0.09999299049377441
81	340.3486430644989	fix_pre	0		120	79.0	2.5	/experiments/AOT/AOT_stimuli/rescaled_final/0618_rv.mp4	0.0	385.84577202796936	0.9999799728393555
81	341.34862303733826	movie	1		246	79.0	2.5	/experiments/AOT/AOT_stimuli/rescaled_final/0618_rv.mp4	0.0	386.8457520008087	2.4999730587005615
81	341.7318880558014	pulse	1	t		79.0	2.5	/experiments/AOT/AOT_stimuli/rescaled_final/0618_rv.mp4	0.0	387.22901701927185	
81	343.3320999145508	pulse	1	t		79.0	2.5	/experiments/AOT/AOT_stimuli/rescaled_final/0618_rv.mp4	0.0	388.82922887802124	
81	343.8485960960388	fix_post	2		12	79.0	2.5	/experiments/AOT/AOT_stimuli/rescaled_final/0618_rv.mp4	0.0	389.3457250595093	0.09991598129272461
82	343.94851207733154	fix_pre	0		119	80.0	2.5	/experiments/AOT/AOT_stimuli/rescaled_final/2039_rv.mp4	0.0	389.445641040802	0.9918210506439209
82	344.9323539733887	pulse	0	t		80.0	2.5	/experiments/AOT/AOT_stimuli/rescaled_final/2039_rv.mp4	0.0	390.42948293685913	
82	344.94033312797546	movie	1		244	80.0	2.5	/experiments/AOT/AOT_stimuli/rescaled_final/2039_rv.mp4	0.0	390.4374620914459	2.5082387924194336
82	346.5334749221802	pulse	1	t		80.0	2.5	/experiments/AOT/AOT_stimuli/rescaled_final/2039_rv.mp4	0.0	392.03060388565063	
82	347.4485719203949	fix_post	2		12	80.0	2.5	/experiments/AOT/AOT_stimuli/rescaled_final/2039_rv.mp4	0.0	392.94570088386536	0.1000661849975586
83	347.54863810539246	fix_pre	0		120	81.0	2.5	/experiments/AOT/AOT_stimuli/rescaled_final/0316_rv.mp4	0.0	393.0457670688629	0.99947190284729
83	348.1321051120758	pulse	0	t		81.0	2.5	/experiments/AOT/AOT_stimuli/rescaled_final/0316_rv.mp4	0.0	393.62923407554626	
83	348.54811000823975	movie	1		245	81.0	2.5	/experiments/AOT/AOT_stimuli/rescaled_final/0316_rv.mp4	0.0	394.0452389717102	2.500498056411743
83	349.732136964798	pulse	1	t		81.0	2.5	/experiments/AOT/AOT_stimuli/rescaled_final/0316_rv.mp4	0.0	395.22926592826843	
83	351.0486080646515	fix_post	2		12	81.0	2.5	/experiments/AOT/AOT_stimuli/rescaled_final/0316_rv.mp4	0.0	396.54573702812195	0.09961795806884766
84	351.14822602272034	fix_pre	0		120	82.0	2.5	/experiments/AOT/AOT_stimuli/rescaled_final/1471_rv.mp4	0.0	396.6453549861908	0.9999399185180664
84	351.33208203315735	pulse	0	t		82.0	2.5	/experiments/AOT/AOT_stimuli/rescaled_final/1471_rv.mp4	0.0	396.8292109966278	
84	352.1481659412384	movie	1		244	82.0	2.5	/experiments/AOT/AOT_stimuli/rescaled_final/1471_rv.mp4	0.0	397.64529490470886	2.500324010848999
84	352.93200302124023	pulse	1	t		82.0	2.5	/experiments/AOT/AOT_stimuli/rescaled_final/1471_rv.mp4	0.0	398.4291319847107	
84	354.53085803985596	pulse	1	t		82.0	2.5	/experiments/AOT/AOT_stimuli/rescaled_final/1471_rv.mp4	0.0	400.0279870033264	
84	354.6484899520874	fix_post	2		12	82.0	2.5	/experiments/AOT/AOT_stimuli/rescaled_final/1471_rv.mp4	0.0	400.14561891555786	0.10009407997131348
85	354.7485840320587	fix_pre	0		120	83.0	2.5	blank	1.0	400.2457129955292	0.9999709129333496
85	355.74855494499207	movie	1		300	83.0	2.5	blank	1.0	401.2456839084625	2.4999799728393555
85	356.1320450305939	pulse	1	t		83.0	2.5	blank	1.0	401.62917399406433	
85	357.73203206062317	pulse	1	t		83.0	2.5	blank	1.0	403.2291610240936	
85	358.2485349178314	fix_post	2		12	83.0	2.5	blank	1.0	403.7456638813019	0.10003113746643066
87	358.34856605529785	stim	0		1716					403.8456950187683	14.299840927124023
87	359.332111120224	pulse	0	t						404.82924008369446	
87	360.93158507347107	pulse	0	t						406.4287140369415	
87	362.5321431159973	pulse	0	t						408.0292720794678	
87	364.1320049762726	pulse	0	t						409.62913393974304	
87	365.7319929599762	pulse	0	t						411.22912192344666	
87	367.3319580554962	pulse	0	t						412.8290870189667	
87	368.93185806274414	pulse	0	t						414.4289870262146	
87	370.5319380760193	pulse	0	t						416.02906703948975	
87	372.13187408447266	pulse	0	t						417.6290030479431	
