trial_nr	onset	event_type	phase	response	nr_frames	movie_index	movie_duration	movie_file	blank	onset_abs	duration
0	0.20820903778076172	stim	0		1					90.96203994750977	0.008382081985473633
0	0.2047581672668457	response	0	space						90.95858907699585	
1	0.21659111976623535	stim	0		4657					90.97042202949524	38.82583403587341
1	39.027650117874146	pulse	0	t						129.78148102760315	
1	39.04242515563965	stim	1		1715					129.79625606536865	14.298802852630615
1	40.62277412414551	pulse	1	t						131.3766050338745	
1	42.22294521331787	pulse	1	t						132.97677612304688	
1	43.823243141174316	pulse	1	t						134.57707405090332	
1	45.42354607582092	pulse	1	t						136.17737698554993	
1	47.01619219779968	pulse	1	t						137.7700231075287	
1	48.61640810966492	pulse	1	t						139.37023901939392	
1	50.216567039489746	pulse	1	t						140.97039794921875	
1	51.81676912307739	pulse	1	t						142.5706000328064	
2	53.341228008270264	fix_pre	0		10	0.0	2.5	/experiments/knapen_AOT/AOT_stimuli/rescaled_final/1487_rv.mp4	0.0	144.09505891799927	0.08330321311950684
2	53.41637110710144	pulse	0	t		0.0	2.5	/experiments/knapen_AOT/AOT_stimuli/rescaled_final/1487_rv.mp4	0.0	144.17020201683044	
2	53.42453122138977	movie	1		243	0.0	2.5	/experiments/knapen_AOT/AOT_stimuli/rescaled_final/1487_rv.mp4	0.0	144.17836213111877	2.5086967945098877
2	55.02053618431091	pulse	1	t		0.0	2.5	/experiments/knapen_AOT/AOT_stimuli/rescaled_final/1487_rv.mp4	0.0	145.77436709403992	
2	55.93322801589966	fix_post	2		12	0.0	2.5	/experiments/knapen_AOT/AOT_stimuli/rescaled_final/1487_rv.mp4	0.0	146.68705892562866	0.10001707077026367
3	56.03324508666992	fix_pre	0		120	1.0	2.5	/experiments/knapen_AOT/AOT_stimuli/rescaled_final/0108_rv.mp4	0.0	146.78707599639893	1.0001120567321777
3	56.61692810058594	pulse	0	t		1.0	2.5	/experiments/knapen_AOT/AOT_stimuli/rescaled_final/0108_rv.mp4	0.0	147.37075901031494	
3	57.0333571434021	movie	1		245	1.0	2.5	/experiments/knapen_AOT/AOT_stimuli/rescaled_final/0108_rv.mp4	0.0	147.7871880531311	2.500377893447876
3	58.2170832157135	pulse	1	t		1.0	2.5	/experiments/knapen_AOT/AOT_stimuli/rescaled_final/0108_rv.mp4	0.0	148.9709141254425	
3	59.533735036849976	fix_post	2		12	1.0	2.5	/experiments/knapen_AOT/AOT_stimuli/rescaled_final/0108_rv.mp4	0.0	150.28756594657898	0.0999910831451416
4	59.63372611999512	fix_pre	0		120	2.0	2.5	/experiments/knapen_AOT/AOT_stimuli/rescaled_final/1296_rv.mp4	0.0	150.38755702972412	1.0001449584960938
4	59.81735610961914	pulse	0	t		2.0	2.5	/experiments/knapen_AOT/AOT_stimuli/rescaled_final/1296_rv.mp4	0.0	150.57118701934814	
4	60.63387107849121	movie	1		243	2.0	2.5	/experiments/knapen_AOT/AOT_stimuli/rescaled_final/1296_rv.mp4	0.0	151.38770198822021	2.5005431175231934
4	61.417553186416626	pulse	1	t		2.0	2.5	/experiments/knapen_AOT/AOT_stimuli/rescaled_final/1296_rv.mp4	0.0	152.17138409614563	
4	63.01770901679993	pulse	1	t		2.0	2.5	/experiments/knapen_AOT/AOT_stimuli/rescaled_final/1296_rv.mp4	0.0	153.77153992652893	
4	63.134414196014404	fix_post	2		12	2.0	2.5	/experiments/knapen_AOT/AOT_stimuli/rescaled_final/1296_rv.mp4	0.0	153.8882451057434	0.09993100166320801
5	63.23434519767761	fix_pre	0		120	3.0	2.5	/experiments/knapen_AOT/AOT_stimuli/rescaled_final/2145_rv.mp4	0.0	153.98817610740662	1.0001449584960938
5	64.2344901561737	movie	1		241	3.0	2.5	/experiments/knapen_AOT/AOT_stimuli/rescaled_final/2145_rv.mp4	0.0	154.9883210659027	2.4922749996185303
5	64.61854100227356	pulse	1	t		3.0	2.5	/experiments/knapen_AOT/AOT_stimuli/rescaled_final/2145_rv.mp4	0.0	155.37237191200256	
5	66.21822023391724	pulse	1	t		3.0	2.5	/experiments/knapen_AOT/AOT_stimuli/rescaled_final/2145_rv.mp4	0.0	156.97205114364624	
5	66.72676515579224	fix_post	2		12	3.0	2.5	/experiments/knapen_AOT/AOT_stimuli/rescaled_final/2145_rv.mp4	0.0	157.48059606552124	0.09974884986877441
6	66.82651400566101	fix_pre	0		120	4.0	2.5	/experiments/knapen_AOT/AOT_stimuli/rescaled_final/1044_rv.mp4	0.0	157.58034491539001	1.0001201629638672
6	67.81858801841736	pulse	0	t		4.0	2.5	/experiments/knapen_AOT/AOT_stimuli/rescaled_final/1044_rv.mp4	0.0	158.57241892814636	
6	67.82663416862488	movie	1		244	4.0	2.5	/experiments/knapen_AOT/AOT_stimuli/rescaled_final/1044_rv.mp4	0.0	158.58046507835388	2.508723020553589
6	69.41918921470642	pulse	1	t		4.0	2.5	/experiments/knapen_AOT/AOT_stimuli/rescaled_final/1044_rv.mp4	0.0	160.17302012443542	
6	70.33535718917847	fix_post	2		12	4.0	2.5	/experiments/knapen_AOT/AOT_stimuli/rescaled_final/1044_rv.mp4	0.0	161.08918809890747	0.0999898910522461
7	70.43534708023071	fix_pre	0		120	5.0	2.5	/experiments/knapen_AOT/AOT_stimuli/rescaled_final/1127_fw.mp4	0.0	161.18917798995972	1.0001649856567383
7	71.01891613006592	pulse	0	t		5.0	2.5	/experiments/knapen_AOT/AOT_stimuli/rescaled_final/1127_fw.mp4	0.0	161.77274703979492	
7	71.43551206588745	movie	1		243	5.0	2.5	/experiments/knapen_AOT/AOT_stimuli/rescaled_final/1127_fw.mp4	0.0	162.18934297561646	2.5004210472106934
7	72.61923718452454	pulse	1	t		5.0	2.5	/experiments/knapen_AOT/AOT_stimuli/rescaled_final/1127_fw.mp4	0.0	163.37306809425354	
7	73.93593311309814	fix_post	2		12	5.0	2.5	/experiments/knapen_AOT/AOT_stimuli/rescaled_final/1127_fw.mp4	0.0	164.68976402282715	0.09993791580200195
8	74.03587102890015	fix_pre	0		120	6.0	2.5	blank	1.0	164.78970193862915	1.0001521110534668
8	74.21955013275146	pulse	0	t		6.0	2.5	blank	1.0	164.97338104248047	
8	75.03602313995361	movie	1		300	6.0	2.5	blank	1.0	165.78985404968262	2.5004420280456543
8	75.8198070526123	pulse	1	t		6.0	2.5	blank	1.0	166.5736379623413	
8	77.41999006271362	pulse	1	t		6.0	2.5	blank	1.0	168.17382097244263	
8	77.53646516799927	fix_post	2		12	6.0	2.5	blank	1.0	168.29029607772827	0.09995603561401367
9	77.63642120361328	fix_pre	0		120	7.0	2.5	/experiments/knapen_AOT/AOT_stimuli/rescaled_final/1209_fw.mp4	0.0	168.39025211334229	1.000213861465454
9	78.63663506507874	movie	1		242	7.0	2.5	/experiments/knapen_AOT/AOT_stimuli/rescaled_final/1209_fw.mp4	0.0	169.39046597480774	2.4921369552612305
9	79.0208580493927	pulse	1	t		7.0	2.5	/experiments/knapen_AOT/AOT_stimuli/rescaled_final/1209_fw.mp4	0.0	169.7746889591217	
9	80.62041115760803	pulse	1	t		7.0	2.5	/experiments/knapen_AOT/AOT_stimuli/rescaled_final/1209_fw.mp4	0.0	171.37424206733704	
9	81.12877202033997	fix_post	2		12	7.0	2.5	/experiments/knapen_AOT/AOT_stimuli/rescaled_final/1209_fw.mp4	0.0	171.88260293006897	0.09993720054626465
10	81.22870922088623	fix_pre	0		120	8.0	2.5	/experiments/knapen_AOT/AOT_stimuli/rescaled_final/0412_fw.mp4	0.0	171.98254013061523	1.0001239776611328
10	82.22072720527649	pulse	0	t		8.0	2.5	/experiments/knapen_AOT/AOT_stimuli/rescaled_final/0412_fw.mp4	0.0	172.9745581150055	
10	82.22883319854736	movie	1		244	8.0	2.5	/experiments/knapen_AOT/AOT_stimuli/rescaled_final/0412_fw.mp4	0.0	172.98266410827637	2.5087168216705322
10	83.8215172290802	pulse	1	t		8.0	2.5	/experiments/knapen_AOT/AOT_stimuli/rescaled_final/0412_fw.mp4	0.0	174.5753481388092	
10	84.7375500202179	fix_post	2		12	8.0	2.5	/experiments/knapen_AOT/AOT_stimuli/rescaled_final/0412_fw.mp4	0.0	175.4913809299469	0.09998607635498047
11	84.83753609657288	fix_pre	0		120	9.0	2.5	/experiments/knapen_AOT/AOT_stimuli/rescaled_final/1331_rv.mp4	0.0	175.59136700630188	1.0001070499420166
11	85.42113614082336	pulse	0	t		9.0	2.5	/experiments/knapen_AOT/AOT_stimuli/rescaled_final/1331_rv.mp4	0.0	176.17496705055237	
11	85.83764314651489	movie	1		244	9.0	2.5	/experiments/knapen_AOT/AOT_stimuli/rescaled_final/1331_rv.mp4	0.0	176.5914740562439	2.5003910064697266
11	87.0214102268219	pulse	1	t		9.0	2.5	/experiments/knapen_AOT/AOT_stimuli/rescaled_final/1331_rv.mp4	0.0	177.7752411365509	
11	88.33803415298462	fix_post	2		12	9.0	2.5	/experiments/knapen_AOT/AOT_stimuli/rescaled_final/1331_rv.mp4	0.0	179.09186506271362	0.10003399848937988
12	88.438068151474	fix_pre	0		120	10.0	2.5	/experiments/knapen_AOT/AOT_stimuli/rescaled_final/0250_fw.mp4	0.0	179.191899061203	1.0001320838928223
12	88.62166619300842	pulse	0	t		10.0	2.5	/experiments/knapen_AOT/AOT_stimuli/rescaled_final/0250_fw.mp4	0.0	179.37549710273743	
12	89.43820023536682	movie	1		240	10.0	2.5	/experiments/knapen_AOT/AOT_stimuli/rescaled_final/0250_fw.mp4	0.0	180.19203114509583	2.5005388259887695
12	90.22198605537415	pulse	1	t		10.0	2.5	/experiments/knapen_AOT/AOT_stimuli/rescaled_final/0250_fw.mp4	0.0	180.97581696510315	
12	91.82200217247009	pulse	1	t		10.0	2.5	/experiments/knapen_AOT/AOT_stimuli/rescaled_final/0250_fw.mp4	0.0	182.5758330821991	
12	91.93873906135559	fix_post	2		12	10.0	2.5	/experiments/knapen_AOT/AOT_stimuli/rescaled_final/0250_fw.mp4	0.0	182.6925699710846	0.0998849868774414
13	92.03862404823303	fix_pre	0		120	11.0	2.5	/experiments/knapen_AOT/AOT_stimuli/rescaled_final/1866_rv.mp4	0.0	182.79245495796204	1.0001220703125
13	93.03874611854553	movie	1		242	11.0	2.5	/experiments/knapen_AOT/AOT_stimuli/rescaled_final/1866_rv.mp4	0.0	183.79257702827454	2.492163896560669
13	93.42705512046814	pulse	1	t		11.0	2.5	/experiments/knapen_AOT/AOT_stimuli/rescaled_final/1866_rv.mp4	0.0	184.18088603019714	
13	95.02253603935242	pulse	1	t		11.0	2.5	/experiments/knapen_AOT/AOT_stimuli/rescaled_final/1866_rv.mp4	0.0	185.77636694908142	
13	95.5309100151062	fix_post	2		12	11.0	2.5	/experiments/knapen_AOT/AOT_stimuli/rescaled_final/1866_rv.mp4	0.0	186.2847409248352	0.09990620613098145
14	95.63081622123718	fix_pre	0		120	12.0	2.5	/experiments/knapen_AOT/AOT_stimuli/rescaled_final/1856_rv.mp4	0.0	186.3846471309662	1.0001378059387207
14	96.6227970123291	pulse	0	t		12.0	2.5	/experiments/knapen_AOT/AOT_stimuli/rescaled_final/1856_rv.mp4	0.0	187.3766279220581	
14	96.6309540271759	movie	1		243	12.0	2.5	/experiments/knapen_AOT/AOT_stimuli/rescaled_final/1856_rv.mp4	0.0	187.3847849369049	2.508711099624634
14	98.22469520568848	pulse	1	t		12.0	2.5	/experiments/knapen_AOT/AOT_stimuli/rescaled_final/1856_rv.mp4	0.0	188.97852611541748	
14	99.13966512680054	fix_post	2		12	12.0	2.5	/experiments/knapen_AOT/AOT_stimuli/rescaled_final/1856_rv.mp4	0.0	189.89349603652954	0.10001397132873535
15	99.23967909812927	fix_pre	0		120	13.0	2.5	/experiments/knapen_AOT/AOT_stimuli/rescaled_final/0179_rv.mp4	0.0	189.99351000785828	1.000119924545288
15	99.82335114479065	pulse	0	t		13.0	2.5	/experiments/knapen_AOT/AOT_stimuli/rescaled_final/0179_rv.mp4	0.0	190.57718205451965	
15	100.23979902267456	movie	1		242	13.0	2.5	/experiments/knapen_AOT/AOT_stimuli/rescaled_final/0179_rv.mp4	0.0	190.99362993240356	2.500615119934082
15	101.42357015609741	pulse	1	t		13.0	2.5	/experiments/knapen_AOT/AOT_stimuli/rescaled_final/0179_rv.mp4	0.0	192.17740106582642	
15	102.74041414260864	fix_post	2		12	13.0	2.5	/experiments/knapen_AOT/AOT_stimuli/rescaled_final/0179_rv.mp4	0.0	193.49424505233765	0.09987902641296387
16	102.8402931690216	fix_pre	0		120	14.0	2.5	blank	1.0	193.5941240787506	1.0000638961791992
16	103.02377009391785	pulse	0	t		14.0	2.5	blank	1.0	193.77760100364685	
16	103.8403570652008	movie	1		300	14.0	2.5	blank	1.0	194.5941879749298	2.500378131866455
16	104.62401223182678	pulse	1	t		14.0	2.5	blank	1.0	195.3778431415558	
16	106.21693515777588	pulse	1	t		14.0	2.5	blank	1.0	196.97076606750488	
16	106.34073519706726	fix_post	2		12	14.0	2.5	blank	1.0	197.09456610679626	0.10004091262817383
17	106.44077610969543	fix_pre	0		120	15.0	2.5	/experiments/knapen_AOT/AOT_stimuli/rescaled_final/1471_rv.mp4	0.0	197.19460701942444	1.0001308917999268
17	107.44090700149536	movie	1		241	15.0	2.5	/experiments/knapen_AOT/AOT_stimuli/rescaled_final/1471_rv.mp4	0.0	198.19473791122437	2.4920711517333984
17	107.82505106925964	pulse	1	t		15.0	2.5	/experiments/knapen_AOT/AOT_stimuli/rescaled_final/1471_rv.mp4	0.0	198.57888197898865	
17	109.41768407821655	pulse	1	t		15.0	2.5	/experiments/knapen_AOT/AOT_stimuli/rescaled_final/1471_rv.mp4	0.0	200.17151498794556	
17	109.93297815322876	fix_post	2		12	15.0	2.5	/experiments/knapen_AOT/AOT_stimuli/rescaled_final/1471_rv.mp4	0.0	200.68680906295776	0.09994792938232422
18	110.03292608261108	fix_pre	0		120	16.0	2.5	/experiments/knapen_AOT/AOT_stimuli/rescaled_final/1660_rv.mp4	0.0	200.7867569923401	1.0001730918884277
18	111.01742315292358	pulse	0	t		16.0	2.5	/experiments/knapen_AOT/AOT_stimuli/rescaled_final/1660_rv.mp4	0.0	201.7712540626526	
18	111.03309917449951	movie	1		244	16.0	2.5	/experiments/knapen_AOT/AOT_stimuli/rescaled_final/1660_rv.mp4	0.0	201.78693008422852	2.508723020553589
18	112.61698317527771	pulse	1	t		16.0	2.5	/experiments/knapen_AOT/AOT_stimuli/rescaled_final/1660_rv.mp4	0.0	203.3708140850067	
18	113.5418221950531	fix_post	2		12	16.0	2.5	/experiments/knapen_AOT/AOT_stimuli/rescaled_final/1660_rv.mp4	0.0	204.2956531047821	0.09997987747192383
19	113.64180207252502	fix_pre	0		120	17.0	2.5	/experiments/knapen_AOT/AOT_stimuli/rescaled_final/2058_fw.mp4	0.0	204.39563298225403	1.0001389980316162
19	114.21702909469604	pulse	0	t		17.0	2.5	/experiments/knapen_AOT/AOT_stimuli/rescaled_final/2058_fw.mp4	0.0	204.97086000442505	
19	114.64194107055664	movie	1		242	17.0	2.5	/experiments/knapen_AOT/AOT_stimuli/rescaled_final/2058_fw.mp4	0.0	205.39577198028564	2.500596046447754
19	115.8187301158905	pulse	1	t		17.0	2.5	/experiments/knapen_AOT/AOT_stimuli/rescaled_final/2058_fw.mp4	0.0	206.5725610256195	
19	117.1425371170044	fix_post	2		12	17.0	2.5	/experiments/knapen_AOT/AOT_stimuli/rescaled_final/2058_fw.mp4	0.0	207.8963680267334	0.09983396530151367
20	117.24237108230591	fix_pre	0		120	18.0	2.5	/experiments/knapen_AOT/AOT_stimuli/rescaled_final/0577_rv.mp4	0.0	207.9962019920349	1.0001239776611328
20	117.41762900352478	pulse	0	t		18.0	2.5	/experiments/knapen_AOT/AOT_stimuli/rescaled_final/0577_rv.mp4	0.0	208.17145991325378	
20	118.24249505996704	movie	1		242	18.0	2.5	/experiments/knapen_AOT/AOT_stimuli/rescaled_final/0577_rv.mp4	0.0	208.99632596969604	2.500427007675171
20	119.01777505874634	pulse	1	t		18.0	2.5	/experiments/knapen_AOT/AOT_stimuli/rescaled_final/0577_rv.mp4	0.0	209.77160596847534	
20	120.61804819107056	pulse	1	t		18.0	2.5	/experiments/knapen_AOT/AOT_stimuli/rescaled_final/0577_rv.mp4	0.0	211.37187910079956	
20	120.74292206764221	fix_post	2		12	18.0	2.5	/experiments/knapen_AOT/AOT_stimuli/rescaled_final/0577_rv.mp4	0.0	211.49675297737122	0.09994816780090332
21	120.84287023544312	fix_pre	0		119	19.0	2.5	/experiments/knapen_AOT/AOT_stimuli/rescaled_final/0872_rv.mp4	0.0	211.59670114517212	0.9917957782745361
21	121.83466601371765	movie	1		243	19.0	2.5	/experiments/knapen_AOT/AOT_stimuli/rescaled_final/0872_rv.mp4	0.0	212.58849692344666	2.5004780292510986
21	122.21946310997009	pulse	1	t		19.0	2.5	/experiments/knapen_AOT/AOT_stimuli/rescaled_final/0872_rv.mp4	0.0	212.9732940196991	
21	123.81850123405457	pulse	1	t		19.0	2.5	/experiments/knapen_AOT/AOT_stimuli/rescaled_final/0872_rv.mp4	0.0	214.57233214378357	
21	124.33514404296875	fix_post	2		12	19.0	2.5	/experiments/knapen_AOT/AOT_stimuli/rescaled_final/0872_rv.mp4	0.0	215.08897495269775	0.0999441146850586
22	124.43508815765381	fix_pre	0		119	20.0	2.5	blank	1.0	215.1889190673828	0.9918038845062256
22	125.41870403289795	pulse	0	t		20.0	2.5	blank	1.0	216.17253494262695	
22	125.42689204216003	movie	1		301	20.0	2.5	blank	1.0	216.18072295188904	2.5087220668792725
22	127.01899600028992	pulse	1	t		20.0	2.5	blank	1.0	217.77282691001892	
22	127.9356141090393	fix_post	2		12	20.0	2.5	blank	1.0	218.6894450187683	0.10005998611450195
23	128.0356740951538	fix_pre	0		120	21.0	2.5	/experiments/knapen_AOT/AOT_stimuli/rescaled_final/0573_fw.mp4	0.0	218.7895050048828	1.0001280307769775
23	128.61927318572998	pulse	0	t		21.0	2.5	/experiments/knapen_AOT/AOT_stimuli/rescaled_final/0573_fw.mp4	0.0	219.37310409545898	
23	129.0358021259308	movie	1		244	21.0	2.5	/experiments/knapen_AOT/AOT_stimuli/rescaled_final/0573_fw.mp4	0.0	219.7896330356598	2.500343084335327
23	130.2195601463318	pulse	1	t		21.0	2.5	/experiments/knapen_AOT/AOT_stimuli/rescaled_final/0573_fw.mp4	0.0	220.9733910560608	
23	131.5361452102661	fix_post	2		12	21.0	2.5	/experiments/knapen_AOT/AOT_stimuli/rescaled_final/0573_fw.mp4	0.0	222.28997611999512	0.10003900527954102
24	131.63618421554565	fix_pre	0		120	22.0	2.5	/experiments/knapen_AOT/AOT_stimuli/rescaled_final/0886_fw.mp4	0.0	222.39001512527466	1.0001318454742432
24	131.81966400146484	pulse	0	t		22.0	2.5	/experiments/knapen_AOT/AOT_stimuli/rescaled_final/0886_fw.mp4	0.0	222.57349491119385	
24	132.6363160610199	movie	1		243	22.0	2.5	/experiments/knapen_AOT/AOT_stimuli/rescaled_final/0886_fw.mp4	0.0	223.3901469707489	2.5003631114959717
24	133.41991806030273	pulse	1	t		22.0	2.5	/experiments/knapen_AOT/AOT_stimuli/rescaled_final/0886_fw.mp4	0.0	224.17374897003174	
24	135.02009320259094	pulse	1	t		22.0	2.5	/experiments/knapen_AOT/AOT_stimuli/rescaled_final/0886_fw.mp4	0.0	225.77392411231995	
24	135.13667917251587	fix_post	2		12	22.0	2.5	/experiments/knapen_AOT/AOT_stimuli/rescaled_final/0886_fw.mp4	0.0	225.89051008224487	0.10004496574401855
25	135.2367241382599	fix_pre	0		119	23.0	2.5	/experiments/knapen_AOT/AOT_stimuli/rescaled_final/1660_fw.mp4	0.0	225.9905550479889	0.9918370246887207
25	136.2285611629486	movie	1		243	23.0	2.5	/experiments/knapen_AOT/AOT_stimuli/rescaled_final/1660_fw.mp4	0.0	226.9823920726776	2.500342845916748
25	136.62062001228333	pulse	1	t		23.0	2.5	/experiments/knapen_AOT/AOT_stimuli/rescaled_final/1660_fw.mp4	0.0	227.37445092201233	
25	138.22074222564697	pulse	1	t		23.0	2.5	/experiments/knapen_AOT/AOT_stimuli/rescaled_final/1660_fw.mp4	0.0	228.97457313537598	
25	138.72890400886536	fix_post	2		12	23.0	2.5	/experiments/knapen_AOT/AOT_stimuli/rescaled_final/1660_fw.mp4	0.0	229.48273491859436	0.09998703002929688
26	138.82889103889465	fix_pre	0		120	24.0	2.5	/experiments/knapen_AOT/AOT_stimuli/rescaled_final/1209_rv.mp4	0.0	229.58272194862366	1.0001521110534668
26	139.82090711593628	pulse	0	t		24.0	2.5	/experiments/knapen_AOT/AOT_stimuli/rescaled_final/1209_rv.mp4	0.0	230.57473802566528	
26	139.82904314994812	movie	1		244	24.0	2.5	/experiments/knapen_AOT/AOT_stimuli/rescaled_final/1209_rv.mp4	0.0	230.58287405967712	2.5087010860443115
26	141.42245817184448	pulse	1	t		24.0	2.5	/experiments/knapen_AOT/AOT_stimuli/rescaled_final/1209_rv.mp4	0.0	232.1762890815735	
26	142.33774423599243	fix_post	2		12	24.0	2.5	/experiments/knapen_AOT/AOT_stimuli/rescaled_final/1209_rv.mp4	0.0	233.09157514572144	0.10002493858337402
27	142.4377691745758	fix_pre	0		120	25.0	2.5	/experiments/knapen_AOT/AOT_stimuli/rescaled_final/0051_fw.mp4	0.0	233.1916000843048	1.0001308917999268
27	143.02143907546997	pulse	0	t		25.0	2.5	/experiments/knapen_AOT/AOT_stimuli/rescaled_final/0051_fw.mp4	0.0	233.77526998519897	
27	143.43790006637573	movie	1		243	25.0	2.5	/experiments/knapen_AOT/AOT_stimuli/rescaled_final/0051_fw.mp4	0.0	234.19173097610474	2.500399112701416
27	144.62170100212097	pulse	1	t		25.0	2.5	/experiments/knapen_AOT/AOT_stimuli/rescaled_final/0051_fw.mp4	0.0	235.37553191184998	
27	145.93829917907715	fix_post	2		12	25.0	2.5	/experiments/knapen_AOT/AOT_stimuli/rescaled_final/0051_fw.mp4	0.0	236.69213008880615	0.10004091262817383
28	146.03834009170532	fix_pre	0		120	26.0	2.5	/experiments/knapen_AOT/AOT_stimuli/rescaled_final/0051_rv.mp4	0.0	236.79217100143433	1.0000979900360107
28	146.2219750881195	pulse	0	t		26.0	2.5	/experiments/knapen_AOT/AOT_stimuli/rescaled_final/0051_rv.mp4	0.0	236.9758059978485	
28	147.03843808174133	movie	1		242	26.0	2.5	/experiments/knapen_AOT/AOT_stimuli/rescaled_final/0051_rv.mp4	0.0	237.79226899147034	2.5193400382995605
28	147.822083234787	pulse	1	t		26.0	2.5	/experiments/knapen_AOT/AOT_stimuli/rescaled_final/0051_rv.mp4	0.0	238.575914144516	
28	149.42212009429932	pulse	1	t		26.0	2.5	/experiments/knapen_AOT/AOT_stimuli/rescaled_final/0051_rv.mp4	0.0	240.17595100402832	
28	149.5577781200409	fix_post	2		10	26.0	2.5	/experiments/knapen_AOT/AOT_stimuli/rescaled_final/0051_rv.mp4	0.0	240.3116090297699	0.0810539722442627
29	149.63883209228516	fix_pre	0		120	27.0	2.5	/experiments/knapen_AOT/AOT_stimuli/rescaled_final/0925_rv.mp4	0.0	240.39266300201416	1.0001559257507324
29	150.6389880180359	movie	1		242	27.0	2.5	/experiments/knapen_AOT/AOT_stimuli/rescaled_final/0925_rv.mp4	0.0	241.3928189277649	2.4920921325683594
29	151.02314615249634	pulse	1	t		27.0	2.5	/experiments/knapen_AOT/AOT_stimuli/rescaled_final/0925_rv.mp4	0.0	241.77697706222534	
29	152.62287306785583	pulse	1	t		27.0	2.5	/experiments/knapen_AOT/AOT_stimuli/rescaled_final/0925_rv.mp4	0.0	243.37670397758484	
29	153.13108015060425	fix_post	2		12	27.0	2.5	/experiments/knapen_AOT/AOT_stimuli/rescaled_final/0925_rv.mp4	0.0	243.88491106033325	0.10005807876586914
30	153.23113822937012	fix_pre	0		120	28.0	2.5	blank	1.0	243.98496913909912	1.000126838684082
30	154.2230520248413	pulse	0	t		28.0	2.5	blank	1.0	244.9768829345703	
30	154.2312650680542	movie	1		301	28.0	2.5	blank	1.0	244.9850959777832	2.5086231231689453
30	155.82325720787048	pulse	1	t		28.0	2.5	blank	1.0	246.5770881175995	
30	156.73988819122314	fix_post	2		12	28.0	2.5	blank	1.0	247.49371910095215	0.10001587867736816
31	156.8399040699005	fix_pre	0		120	29.0	2.5	/experiments/knapen_AOT/AOT_stimuli/rescaled_final/1669_fw.mp4	0.0	247.59373497962952	1.0001749992370605
31	157.42359519004822	pulse	0	t		29.0	2.5	/experiments/knapen_AOT/AOT_stimuli/rescaled_final/1669_fw.mp4	0.0	248.17742609977722	
31	157.84007906913757	movie	1		243	29.0	2.5	/experiments/knapen_AOT/AOT_stimuli/rescaled_final/1669_fw.mp4	0.0	248.59390997886658	2.5005221366882324
31	159.0238721370697	pulse	1	t		29.0	2.5	/experiments/knapen_AOT/AOT_stimuli/rescaled_final/1669_fw.mp4	0.0	249.7777030467987	
31	160.3406012058258	fix_post	2		12	29.0	2.5	/experiments/knapen_AOT/AOT_stimuli/rescaled_final/1669_fw.mp4	0.0	251.0944321155548	0.09989500045776367
32	160.44049620628357	fix_pre	0		120	30.0	2.5	/experiments/knapen_AOT/AOT_stimuli/rescaled_final/1999_rv.mp4	0.0	251.19432711601257	1.0001499652862549
32	160.61654806137085	pulse	0	t		30.0	2.5	/experiments/knapen_AOT/AOT_stimuli/rescaled_final/1999_rv.mp4	0.0	251.37037897109985	
32	161.44064617156982	movie	1		242	30.0	2.5	/experiments/knapen_AOT/AOT_stimuli/rescaled_final/1999_rv.mp4	0.0	252.19447708129883	2.5003960132598877
32	162.2168641090393	pulse	1	t		30.0	2.5	/experiments/knapen_AOT/AOT_stimuli/rescaled_final/1999_rv.mp4	0.0	252.9706950187683	
32	163.82427310943604	pulse	1	t		30.0	2.5	/experiments/knapen_AOT/AOT_stimuli/rescaled_final/1999_rv.mp4	0.0	254.57810401916504	
32	163.9410421848297	fix_post	2		12	30.0	2.5	/experiments/knapen_AOT/AOT_stimuli/rescaled_final/1999_rv.mp4	0.0	254.69487309455872	0.09993481636047363
33	164.04097700119019	fix_pre	0		119	31.0	2.5	/experiments/knapen_AOT/AOT_stimuli/rescaled_final/1375_fw.mp4	0.0	254.7948079109192	0.9918441772460938
33	165.03282117843628	movie	1		242	31.0	2.5	/experiments/knapen_AOT/AOT_stimuli/rescaled_final/1375_fw.mp4	0.0	255.78665208816528	2.5004429817199707
33	165.41758704185486	pulse	1	t		31.0	2.5	/experiments/knapen_AOT/AOT_stimuli/rescaled_final/1375_fw.mp4	0.0	256.17141795158386	
33	167.0166962146759	pulse	1	t		31.0	2.5	/experiments/knapen_AOT/AOT_stimuli/rescaled_final/1375_fw.mp4	0.0	257.7705271244049	
33	167.53326416015625	fix_post	2		12	31.0	2.5	/experiments/knapen_AOT/AOT_stimuli/rescaled_final/1375_fw.mp4	0.0	258.28709506988525	0.0999748706817627
34	167.633239030838	fix_pre	0		119	32.0	2.5	/experiments/knapen_AOT/AOT_stimuli/rescaled_final/2116_rv.mp4	0.0	258.387069940567	0.9917771816253662
34	168.6167860031128	pulse	0	t		32.0	2.5	/experiments/knapen_AOT/AOT_stimuli/rescaled_final/2116_rv.mp4	0.0	259.3706169128418	
34	168.62501621246338	movie	1		244	32.0	2.5	/experiments/knapen_AOT/AOT_stimuli/rescaled_final/2116_rv.mp4	0.0	259.3788471221924	2.5087687969207764
34	170.21830701828003	pulse	1	t		32.0	2.5	/experiments/knapen_AOT/AOT_stimuli/rescaled_final/2116_rv.mp4	0.0	260.97213792800903	
34	171.13378500938416	fix_post	2		12	32.0	2.5	/experiments/knapen_AOT/AOT_stimuli/rescaled_final/2116_rv.mp4	0.0	261.88761591911316	0.09999418258666992
35	171.23377919197083	fix_pre	0		120	33.0	2.5	/experiments/knapen_AOT/AOT_stimuli/rescaled_final/2143_fw.mp4	0.0	261.98761010169983	1.0001118183135986
35	171.817321062088	pulse	0	t		33.0	2.5	/experiments/knapen_AOT/AOT_stimuli/rescaled_final/2143_fw.mp4	0.0	262.571151971817	
35	172.23389101028442	movie	1		242	33.0	2.5	/experiments/knapen_AOT/AOT_stimuli/rescaled_final/2143_fw.mp4	0.0	262.9877219200134	2.500465154647827
35	173.41778206825256	pulse	1	t		33.0	2.5	/experiments/knapen_AOT/AOT_stimuli/rescaled_final/2143_fw.mp4	0.0	264.17161297798157	
35	174.73435616493225	fix_post	2		12	33.0	2.5	/experiments/knapen_AOT/AOT_stimuli/rescaled_final/2143_fw.mp4	0.0	265.48818707466125	0.10002493858337402
36	174.83438110351562	fix_pre	0		120	34.0	2.5	blank	1.0	265.58821201324463	1.000128984451294
36	175.01794505119324	pulse	0	t		34.0	2.5	blank	1.0	265.77177596092224	
36	175.83451008796692	movie	1		300	34.0	2.5	blank	1.0	266.5883409976959	2.500277042388916
36	176.61800718307495	pulse	1	t		34.0	2.5	blank	1.0	267.37183809280396	
36	178.21828508377075	pulse	1	t		34.0	2.5	blank	1.0	268.97211599349976	
36	178.33478713035583	fix_post	2		12	34.0	2.5	blank	1.0	269.08861804008484	0.10004305839538574
37	178.43483018875122	fix_pre	0		119	35.0	2.5	/experiments/knapen_AOT/AOT_stimuli/rescaled_final/1844_fw.mp4	0.0	269.1886610984802	0.991797924041748
37	179.42662811279297	movie	1		245	35.0	2.5	/experiments/knapen_AOT/AOT_stimuli/rescaled_final/1844_fw.mp4	0.0	270.180459022522	2.500401020050049
37	179.81863117218018	pulse	1	t		35.0	2.5	/experiments/knapen_AOT/AOT_stimuli/rescaled_final/1844_fw.mp4	0.0	270.5724620819092	
37	181.41888308525085	pulse	1	t		35.0	2.5	/experiments/knapen_AOT/AOT_stimuli/rescaled_final/1844_fw.mp4	0.0	272.17271399497986	
37	181.92702913284302	fix_post	2		12	35.0	2.5	/experiments/knapen_AOT/AOT_stimuli/rescaled_final/1844_fw.mp4	0.0	272.680860042572	0.09998488426208496
38	182.0270140171051	fix_pre	0		120	36.0	2.5	/experiments/knapen_AOT/AOT_stimuli/rescaled_final/1122_fw.mp4	0.0	272.7808449268341	1.0001990795135498
38	183.01908016204834	pulse	0	t		36.0	2.5	/experiments/knapen_AOT/AOT_stimuli/rescaled_final/1122_fw.mp4	0.0	273.77291107177734	
38	183.02721309661865	movie	1		244	36.0	2.5	/experiments/knapen_AOT/AOT_stimuli/rescaled_final/1122_fw.mp4	0.0	273.78104400634766	2.5086491107940674
38	184.61990809440613	pulse	1	t		36.0	2.5	/experiments/knapen_AOT/AOT_stimuli/rescaled_final/1122_fw.mp4	0.0	275.37373900413513	
38	185.53586220741272	fix_post	2		12	36.0	2.5	/experiments/knapen_AOT/AOT_stimuli/rescaled_final/1122_fw.mp4	0.0	276.2896931171417	0.10000181198120117
39	185.63586401939392	fix_pre	0		120	37.0	2.5	/experiments/knapen_AOT/AOT_stimuli/rescaled_final/0577_fw.mp4	0.0	276.3896949291229	1.0001740455627441
39	186.21946215629578	pulse	0	t		37.0	2.5	/experiments/knapen_AOT/AOT_stimuli/rescaled_final/0577_fw.mp4	0.0	276.9732930660248	
39	186.63603806495667	movie	1		242	37.0	2.5	/experiments/knapen_AOT/AOT_stimuli/rescaled_final/0577_fw.mp4	0.0	277.38986897468567	2.5003840923309326
39	187.81990504264832	pulse	1	t		37.0	2.5	/experiments/knapen_AOT/AOT_stimuli/rescaled_final/0577_fw.mp4	0.0	278.5737359523773	
39	189.1364221572876	fix_post	2		12	37.0	2.5	/experiments/knapen_AOT/AOT_stimuli/rescaled_final/0577_fw.mp4	0.0	279.8902530670166	0.10001492500305176
40	189.23643708229065	fix_pre	0		120	38.0	2.5	/experiments/knapen_AOT/AOT_stimuli/rescaled_final/0382_fw.mp4	0.0	279.99026799201965	1.000196933746338
40	189.4199731349945	pulse	0	t		38.0	2.5	/experiments/knapen_AOT/AOT_stimuli/rescaled_final/0382_fw.mp4	0.0	280.1738040447235	
40	190.236634016037	movie	1		243	38.0	2.5	/experiments/knapen_AOT/AOT_stimuli/rescaled_final/0382_fw.mp4	0.0	280.990464925766	2.500331163406372
40	191.02023220062256	pulse	1	t		38.0	2.5	/experiments/knapen_AOT/AOT_stimuli/rescaled_final/0382_fw.mp4	0.0	281.77406311035156	
40	192.6202690601349	pulse	1	t		38.0	2.5	/experiments/knapen_AOT/AOT_stimuli/rescaled_final/0382_fw.mp4	0.0	283.3740999698639	
40	192.73696517944336	fix_post	2		12	38.0	2.5	/experiments/knapen_AOT/AOT_stimuli/rescaled_final/0382_fw.mp4	0.0	283.49079608917236	0.09997987747192383
41	192.83694505691528	fix_pre	0		120	39.0	2.5	/experiments/knapen_AOT/AOT_stimuli/rescaled_final/0596_fw.mp4	0.0	283.5907759666443	1.0002460479736328
41	193.83719110488892	movie	1		242	39.0	2.5	/experiments/knapen_AOT/AOT_stimuli/rescaled_final/0596_fw.mp4	0.0	284.5910220146179	2.492119073867798
41	194.22165513038635	pulse	1	t		39.0	2.5	/experiments/knapen_AOT/AOT_stimuli/rescaled_final/0596_fw.mp4	0.0	284.97548604011536	
41	195.82107210159302	pulse	1	t		39.0	2.5	/experiments/knapen_AOT/AOT_stimuli/rescaled_final/0596_fw.mp4	0.0	286.574903011322	
41	196.3293101787567	fix_post	2		12	39.0	2.5	/experiments/knapen_AOT/AOT_stimuli/rescaled_final/0596_fw.mp4	0.0	287.0831410884857	0.09987902641296387
42	196.42918920516968	fix_pre	0		120	40.0	2.5	/experiments/knapen_AOT/AOT_stimuli/rescaled_final/1856_fw.mp4	0.0	287.1830201148987	1.0001418590545654
42	197.42111921310425	pulse	0	t		40.0	2.5	/experiments/knapen_AOT/AOT_stimuli/rescaled_final/1856_fw.mp4	0.0	288.17495012283325	
42	197.42933106422424	movie	1		243	40.0	2.5	/experiments/knapen_AOT/AOT_stimuli/rescaled_final/1856_fw.mp4	0.0	288.18316197395325	2.5086729526519775
42	199.02188920974731	pulse	1	t		40.0	2.5	/experiments/knapen_AOT/AOT_stimuli/rescaled_final/1856_fw.mp4	0.0	289.7757201194763	
42	199.93800401687622	fix_post	2		12	40.0	2.5	/experiments/knapen_AOT/AOT_stimuli/rescaled_final/1856_fw.mp4	0.0	290.6918349266052	0.10003900527954102
43	200.03804302215576	fix_pre	0		120	41.0	2.5	blank	1.0	290.79187393188477	1.0001959800720215
43	200.62169814109802	pulse	0	t		41.0	2.5	blank	1.0	291.375529050827	
43	201.03823900222778	movie	1		300	41.0	2.5	blank	1.0	291.7920699119568	2.5003530979156494
43	202.22196412086487	pulse	1	t		41.0	2.5	blank	1.0	292.9757950305939	
43	203.53859210014343	fix_post	2		12	41.0	2.5	blank	1.0	294.29242300987244	0.09998798370361328
44	203.63858008384705	fix_pre	0		120	42.0	2.5	/experiments/knapen_AOT/AOT_stimuli/rescaled_final/1055_rv.mp4	0.0	294.39241099357605	1.000265121459961
44	203.82208704948425	pulse	0	t		42.0	2.5	/experiments/knapen_AOT/AOT_stimuli/rescaled_final/1055_rv.mp4	0.0	294.57591795921326	
44	204.638845205307	movie	1		242	42.0	2.5	/experiments/knapen_AOT/AOT_stimuli/rescaled_final/1055_rv.mp4	0.0	295.392676115036	2.500311851501465
44	205.42240023612976	pulse	1	t		42.0	2.5	/experiments/knapen_AOT/AOT_stimuli/rescaled_final/1055_rv.mp4	0.0	296.17623114585876	
44	207.02272200584412	pulse	1	t		42.0	2.5	/experiments/knapen_AOT/AOT_stimuli/rescaled_final/1055_rv.mp4	0.0	297.7765529155731	
44	207.13915705680847	fix_post	2		12	42.0	2.5	/experiments/knapen_AOT/AOT_stimuli/rescaled_final/1055_rv.mp4	0.0	297.8929879665375	0.100006103515625
45	207.2391631603241	fix_pre	0		120	43.0	2.5	/experiments/knapen_AOT/AOT_stimuli/rescaled_final/0999_rv.mp4	0.0	297.9929940700531	1.0001239776611328
45	208.23928713798523	movie	1		242	43.0	2.5	/experiments/knapen_AOT/AOT_stimuli/rescaled_final/0999_rv.mp4	0.0	298.99311804771423	2.4921090602874756
45	208.623291015625	pulse	1	t		43.0	2.5	/experiments/knapen_AOT/AOT_stimuli/rescaled_final/0999_rv.mp4	0.0	299.377121925354	
45	210.22302317619324	pulse	1	t		43.0	2.5	/experiments/knapen_AOT/AOT_stimuli/rescaled_final/0999_rv.mp4	0.0	300.97685408592224	
45	210.7313961982727	fix_post	2		12	43.0	2.5	/experiments/knapen_AOT/AOT_stimuli/rescaled_final/0999_rv.mp4	0.0	301.4852271080017	0.10002589225769043
46	210.8314220905304	fix_pre	0		118	44.0	2.5	/experiments/knapen_AOT/AOT_stimuli/rescaled_final/1266_fw.mp4	0.0	301.5852530002594	1.000040054321289
46	211.82341122627258	pulse	0	t		44.0	2.5	/experiments/knapen_AOT/AOT_stimuli/rescaled_final/1266_fw.mp4	0.0	302.5772421360016	
46	211.83146214485168	movie	1		245	44.0	2.5	/experiments/knapen_AOT/AOT_stimuli/rescaled_final/1266_fw.mp4	0.0	302.5852930545807	2.508720874786377
46	213.42420506477356	pulse	1	t		44.0	2.5	/experiments/knapen_AOT/AOT_stimuli/rescaled_final/1266_fw.mp4	0.0	304.17803597450256	
46	214.34018301963806	fix_post	2		12	44.0	2.5	/experiments/knapen_AOT/AOT_stimuli/rescaled_final/1266_fw.mp4	0.0	305.09401392936707	0.09998416900634766
47	214.4401671886444	fix_pre	0		120	45.0	2.5	/experiments/knapen_AOT/AOT_stimuli/rescaled_final/1698_fw.mp4	0.0	305.1939980983734	1.0001740455627441
47	215.02380204200745	pulse	0	t		45.0	2.5	/experiments/knapen_AOT/AOT_stimuli/rescaled_final/1698_fw.mp4	0.0	305.77763295173645	
47	215.44034123420715	movie	1		243	45.0	2.5	/experiments/knapen_AOT/AOT_stimuli/rescaled_final/1698_fw.mp4	0.0	306.19417214393616	2.500393867492676
47	216.6242082118988	pulse	1	t		45.0	2.5	/experiments/knapen_AOT/AOT_stimuli/rescaled_final/1698_fw.mp4	0.0	307.3780391216278	
47	217.94073510169983	fix_post	2		12	45.0	2.5	/experiments/knapen_AOT/AOT_stimuli/rescaled_final/1698_fw.mp4	0.0	308.69456601142883	0.100006103515625
48	218.04074120521545	fix_pre	0		120	46.0	2.5	/experiments/knapen_AOT/AOT_stimuli/rescaled_final/0936_rv.mp4	0.0	308.79457211494446	1.000168800354004
48	218.22430515289307	pulse	0	t		46.0	2.5	/experiments/knapen_AOT/AOT_stimuli/rescaled_final/0936_rv.mp4	0.0	308.97813606262207	
48	219.04091000556946	movie	1		243	46.0	2.5	/experiments/knapen_AOT/AOT_stimuli/rescaled_final/0936_rv.mp4	0.0	309.79474091529846	2.5005011558532715
48	219.82464122772217	pulse	1	t		46.0	2.5	/experiments/knapen_AOT/AOT_stimuli/rescaled_final/0936_rv.mp4	0.0	310.5784721374512	
48	221.4246950149536	pulse	1	t		46.0	2.5	/experiments/knapen_AOT/AOT_stimuli/rescaled_final/0936_rv.mp4	0.0	312.1785259246826	
48	221.54141116142273	fix_post	2		12	46.0	2.5	/experiments/knapen_AOT/AOT_stimuli/rescaled_final/0936_rv.mp4	0.0	312.29524207115173	0.09989285469055176
49	221.64130401611328	fix_pre	0		120	47.0	2.5	/experiments/knapen_AOT/AOT_stimuli/rescaled_final/1608_fw.mp4	0.0	312.3951349258423	1.0001521110534668
49	222.64145612716675	movie	1		242	47.0	2.5	/experiments/knapen_AOT/AOT_stimuli/rescaled_final/1608_fw.mp4	0.0	313.39528703689575	2.492033004760742
49	223.02550506591797	pulse	1	t		47.0	2.5	/experiments/knapen_AOT/AOT_stimuli/rescaled_final/1608_fw.mp4	0.0	313.779335975647	
49	224.61786818504333	pulse	1	t		47.0	2.5	/experiments/knapen_AOT/AOT_stimuli/rescaled_final/1608_fw.mp4	0.0	315.37169909477234	
49	225.1334891319275	fix_post	2		12	47.0	2.5	/experiments/knapen_AOT/AOT_stimuli/rescaled_final/1608_fw.mp4	0.0	315.8873200416565	0.10002589225769043
50	225.23351502418518	fix_pre	0		120	48.0	2.5	blank	1.0	315.9873459339142	1.0001142024993896
50	226.21788215637207	pulse	0	t		48.0	2.5	blank	1.0	316.9717130661011	
50	226.23362922668457	movie	1		301	48.0	2.5	blank	1.0	316.9874601364136	2.5087649822235107
50	227.81750106811523	pulse	1	t		48.0	2.5	blank	1.0	318.57133197784424	
50	228.74239420890808	fix_post	2		12	48.0	2.5	blank	1.0	319.4962251186371	0.09997081756591797
51	228.842365026474	fix_pre	0		120	49.0	2.5	/experiments/knapen_AOT/AOT_stimuli/rescaled_final/1148_rv.mp4	0.0	319.596195936203	1.0001730918884277
51	229.4175591468811	pulse	0	t		49.0	2.5	/experiments/knapen_AOT/AOT_stimuli/rescaled_final/1148_rv.mp4	0.0	320.1713900566101	
51	229.84253811836243	movie	1		242	49.0	2.5	/experiments/knapen_AOT/AOT_stimuli/rescaled_final/1148_rv.mp4	0.0	320.59636902809143	2.500339984893799
51	231.0191400051117	pulse	1	t		49.0	2.5	/experiments/knapen_AOT/AOT_stimuli/rescaled_final/1148_rv.mp4	0.0	321.7729709148407	
51	232.34287810325623	fix_post	2		12	49.0	2.5	/experiments/knapen_AOT/AOT_stimuli/rescaled_final/1148_rv.mp4	0.0	323.09670901298523	0.1000211238861084
52	232.44289922714233	fix_pre	0		120	50.0	2.5	/experiments/knapen_AOT/AOT_stimuli/rescaled_final/1854_rv.mp4	0.0	323.19673013687134	1.0001418590545654
52	232.61802911758423	pulse	0	t		50.0	2.5	/experiments/knapen_AOT/AOT_stimuli/rescaled_final/1854_rv.mp4	0.0	323.37186002731323	
52	233.4430410861969	movie	1		242	50.0	2.5	/experiments/knapen_AOT/AOT_stimuli/rescaled_final/1854_rv.mp4	0.0	324.1968719959259	2.5005221366882324
52	234.21842122077942	pulse	1	t		50.0	2.5	/experiments/knapen_AOT/AOT_stimuli/rescaled_final/1854_rv.mp4	0.0	324.9722521305084	
52	235.81862020492554	pulse	1	t		50.0	2.5	/experiments/knapen_AOT/AOT_stimuli/rescaled_final/1854_rv.mp4	0.0	326.57245111465454	
52	235.94356322288513	fix_post	2		12	50.0	2.5	/experiments/knapen_AOT/AOT_stimuli/rescaled_final/1854_rv.mp4	0.0	326.69739413261414	0.09988188743591309
53	236.04344511032104	fix_pre	0		120	51.0	2.5	/experiments/knapen_AOT/AOT_stimuli/rescaled_final/1250_fw.mp4	0.0	326.79727602005005	1.0001790523529053
53	237.04362416267395	movie	1		242	51.0	2.5	/experiments/knapen_AOT/AOT_stimuli/rescaled_final/1250_fw.mp4	0.0	327.79745507240295	2.4921469688415527
53	237.41883611679077	pulse	1	t		51.0	2.5	/experiments/knapen_AOT/AOT_stimuli/rescaled_final/1250_fw.mp4	0.0	328.1726670265198	
53	239.0190691947937	pulse	1	t		51.0	2.5	/experiments/knapen_AOT/AOT_stimuli/rescaled_final/1250_fw.mp4	0.0	329.7729001045227	
53	239.5357711315155	fix_post	2		12	51.0	2.5	/experiments/knapen_AOT/AOT_stimuli/rescaled_final/1250_fw.mp4	0.0	330.2896020412445	0.09987187385559082
54	239.6356430053711	fix_pre	0		119	52.0	2.5	/experiments/knapen_AOT/AOT_stimuli/rescaled_final/1128_fw.mp4	0.0	330.3894739151001	0.9917690753936768
54	240.6192660331726	pulse	0	t		52.0	2.5	/experiments/knapen_AOT/AOT_stimuli/rescaled_final/1128_fw.mp4	0.0	331.3730969429016	
54	240.62741208076477	movie	1		244	52.0	2.5	/experiments/knapen_AOT/AOT_stimuli/rescaled_final/1128_fw.mp4	0.0	331.3812429904938	2.508777141571045
54	242.2198040485382	pulse	1	t		52.0	2.5	/experiments/knapen_AOT/AOT_stimuli/rescaled_final/1128_fw.mp4	0.0	332.9736349582672	
54	243.13618922233582	fix_post	2		12	52.0	2.5	/experiments/knapen_AOT/AOT_stimuli/rescaled_final/1128_fw.mp4	0.0	333.8900201320648	0.09993386268615723
55	243.23612308502197	fix_pre	0		120	53.0	2.5	/experiments/knapen_AOT/AOT_stimuli/rescaled_final/0686_fw.mp4	0.0	333.989953994751	1.0001890659332275
55	243.8198070526123	pulse	0	t		53.0	2.5	/experiments/knapen_AOT/AOT_stimuli/rescaled_final/0686_fw.mp4	0.0	334.5736379623413	
55	244.2363121509552	movie	1		243	53.0	2.5	/experiments/knapen_AOT/AOT_stimuli/rescaled_final/0686_fw.mp4	0.0	334.9901430606842	2.500527858734131
55	245.4201681613922	pulse	1	t		53.0	2.5	/experiments/knapen_AOT/AOT_stimuli/rescaled_final/0686_fw.mp4	0.0	336.1739990711212	
55	246.73684000968933	fix_post	2		12	53.0	2.5	/experiments/knapen_AOT/AOT_stimuli/rescaled_final/0686_fw.mp4	0.0	337.49067091941833	0.09990215301513672
56	246.83674216270447	fix_pre	0		120	54.0	2.5	/experiments/knapen_AOT/AOT_stimuli/rescaled_final/0265_fw.mp4	0.0	337.5905730724335	1.000079870223999
56	247.02022004127502	pulse	0	t		54.0	2.5	/experiments/knapen_AOT/AOT_stimuli/rescaled_final/0265_fw.mp4	0.0	337.774050951004	
56	247.83682203292847	movie	1		243	54.0	2.5	/experiments/knapen_AOT/AOT_stimuli/rescaled_final/0265_fw.mp4	0.0	338.59065294265747	2.5004680156707764
56	248.62059807777405	pulse	1	t		54.0	2.5	/experiments/knapen_AOT/AOT_stimuli/rescaled_final/0265_fw.mp4	0.0	339.37442898750305	
56	250.22051906585693	pulse	1	t		54.0	2.5	/experiments/knapen_AOT/AOT_stimuli/rescaled_final/0265_fw.mp4	0.0	340.97434997558594	
56	250.33729004859924	fix_post	2		12	54.0	2.5	/experiments/knapen_AOT/AOT_stimuli/rescaled_final/0265_fw.mp4	0.0	341.09112095832825	0.09999299049377441
57	250.43728303909302	fix_pre	0		120	55.0	2.5	/experiments/knapen_AOT/AOT_stimuli/rescaled_final/1715_fw.mp4	0.0	341.191113948822	1.0000829696655273
57	251.43736600875854	movie	1		244	55.0	2.5	/experiments/knapen_AOT/AOT_stimuli/rescaled_final/1715_fw.mp4	0.0	342.19119691848755	2.492025136947632
57	251.82140922546387	pulse	1	t		55.0	2.5	/experiments/knapen_AOT/AOT_stimuli/rescaled_final/1715_fw.mp4	0.0	342.57524013519287	
57	253.42118406295776	pulse	1	t		55.0	2.5	/experiments/knapen_AOT/AOT_stimuli/rescaled_final/1715_fw.mp4	0.0	344.17501497268677	
57	253.92939114570618	fix_post	2		12	55.0	2.5	/experiments/knapen_AOT/AOT_stimuli/rescaled_final/1715_fw.mp4	0.0	344.6832220554352	0.10008907318115234
58	254.02948021888733	fix_pre	0		120	56.0	2.5	blank	1.0	344.78331112861633	1.0001029968261719
58	255.02159714698792	pulse	0	t		56.0	2.5	blank	1.0	345.7754280567169	
58	255.0295832157135	movie	1		301	56.0	2.5	blank	1.0	345.7834141254425	2.508739948272705
58	256.6217451095581	pulse	1	t		56.0	2.5	blank	1.0	347.3755760192871	
58	257.5383231639862	fix_post	2		12	56.0	2.5	blank	1.0	348.2921540737152	0.10003995895385742
59	257.63836312294006	fix_pre	0		120	57.0	2.5	/experiments/knapen_AOT/AOT_stimuli/rescaled_final/0019_fw.mp4	0.0	348.39219403266907	1.0001509189605713
59	258.2219681739807	pulse	0	t		57.0	2.5	/experiments/knapen_AOT/AOT_stimuli/rescaled_final/0019_fw.mp4	0.0	348.9757990837097	
59	258.63851404190063	movie	1		244	57.0	2.5	/experiments/knapen_AOT/AOT_stimuli/rescaled_final/0019_fw.mp4	0.0	349.39234495162964	2.500310182571411
59	259.8221561908722	pulse	1	t		57.0	2.5	/experiments/knapen_AOT/AOT_stimuli/rescaled_final/0019_fw.mp4	0.0	350.5759871006012	
59	261.13882422447205	fix_post	2		12	57.0	2.5	/experiments/knapen_AOT/AOT_stimuli/rescaled_final/0019_fw.mp4	0.0	351.89265513420105	0.10004281997680664
60	261.23886704444885	fix_pre	0		120	58.0	2.5	/experiments/knapen_AOT/AOT_stimuli/rescaled_final/0822_rv.mp4	0.0	351.99269795417786	1.000096082687378
60	261.4223680496216	pulse	0	t		58.0	2.5	/experiments/knapen_AOT/AOT_stimuli/rescaled_final/0822_rv.mp4	0.0	352.1761989593506	
60	262.23896312713623	movie	1		243	58.0	2.5	/experiments/knapen_AOT/AOT_stimuli/rescaled_final/0822_rv.mp4	0.0	352.99279403686523	2.500555992126465
60	263.02270102500916	pulse	1	t		58.0	2.5	/experiments/knapen_AOT/AOT_stimuli/rescaled_final/0822_rv.mp4	0.0	353.77653193473816	
60	264.6229751110077	pulse	1	t		58.0	2.5	/experiments/knapen_AOT/AOT_stimuli/rescaled_final/0822_rv.mp4	0.0	355.3768060207367	
60	264.7395191192627	fix_post	2		12	58.0	2.5	/experiments/knapen_AOT/AOT_stimuli/rescaled_final/0822_rv.mp4	0.0	355.4933500289917	0.09992504119873047
61	264.8394441604614	fix_pre	0		120	59.0	2.5	/experiments/knapen_AOT/AOT_stimuli/rescaled_final/0574_fw.mp4	0.0	355.59327507019043	1.0001349449157715
61	265.8395791053772	movie	1		245	59.0	2.5	/experiments/knapen_AOT/AOT_stimuli/rescaled_final/0574_fw.mp4	0.0	356.5934100151062	2.500312089920044
61	266.22369623184204	pulse	1	t		59.0	2.5	/experiments/knapen_AOT/AOT_stimuli/rescaled_final/0574_fw.mp4	0.0	356.97752714157104	
61	267.82335209846497	pulse	1	t		59.0	2.5	/experiments/knapen_AOT/AOT_stimuli/rescaled_final/0574_fw.mp4	0.0	358.57718300819397	
61	268.33989119529724	fix_post	2		11	59.0	2.5	/experiments/knapen_AOT/AOT_stimuli/rescaled_final/0574_fw.mp4	0.0	359.09372210502625	0.09173703193664551
62	268.4316282272339	fix_pre	0		120	60.0	2.5	/experiments/knapen_AOT/AOT_stimuli/rescaled_final/0931_fw.mp4	0.0	359.1854591369629	1.0000889301300049
62	269.4235942363739	pulse	0	t		60.0	2.5	/experiments/knapen_AOT/AOT_stimuli/rescaled_final/0931_fw.mp4	0.0	360.1774251461029	
62	269.4317171573639	movie	1		244	60.0	2.5	/experiments/knapen_AOT/AOT_stimuli/rescaled_final/0931_fw.mp4	0.0	360.1855480670929	2.508769989013672
62	271.0242922306061	pulse	1	t		60.0	2.5	/experiments/knapen_AOT/AOT_stimuli/rescaled_final/0931_fw.mp4	0.0	361.7781231403351	
62	271.94048714637756	fix_post	2		12	60.0	2.5	/experiments/knapen_AOT/AOT_stimuli/rescaled_final/0931_fw.mp4	0.0	362.69431805610657	0.10004806518554688
63	272.0405352115631	fix_pre	0		118	61.0	2.5	/experiments/knapen_AOT/AOT_stimuli/rescaled_final/1397_fw.mp4	0.0	362.7943661212921	1.0000638961791992
63	272.6240921020508	pulse	0	t		61.0	2.5	/experiments/knapen_AOT/AOT_stimuli/rescaled_final/1397_fw.mp4	0.0	363.3779230117798	
63	273.0405991077423	movie	1		243	61.0	2.5	/experiments/knapen_AOT/AOT_stimuli/rescaled_final/1397_fw.mp4	0.0	363.7944300174713	2.5003480911254883
63	274.22451305389404	pulse	1	t		61.0	2.5	/experiments/knapen_AOT/AOT_stimuli/rescaled_final/1397_fw.mp4	0.0	364.97834396362305	
63	275.5409471988678	fix_post	2		12	61.0	2.5	/experiments/knapen_AOT/AOT_stimuli/rescaled_final/1397_fw.mp4	0.0	366.2947781085968	0.1000218391418457
64	275.64096903800964	fix_pre	0		120	62.0	2.5	/experiments/knapen_AOT/AOT_stimuli/rescaled_final/0270_fw.mp4	0.0	366.39479994773865	1.0002071857452393
64	275.81693720817566	pulse	0	t		62.0	2.5	/experiments/knapen_AOT/AOT_stimuli/rescaled_final/0270_fw.mp4	0.0	366.57076811790466	
64	276.6411762237549	movie	1		242	62.0	2.5	/experiments/knapen_AOT/AOT_stimuli/rescaled_final/0270_fw.mp4	0.0	367.3950071334839	2.5003387928009033
64	277.41729402542114	pulse	1	t		62.0	2.5	/experiments/knapen_AOT/AOT_stimuli/rescaled_final/0270_fw.mp4	0.0	368.17112493515015	
64	279.0248532295227	pulse	1	t		62.0	2.5	/experiments/knapen_AOT/AOT_stimuli/rescaled_final/0270_fw.mp4	0.0	369.7786841392517	
64	279.1415150165558	fix_post	2		12	62.0	2.5	/experiments/knapen_AOT/AOT_stimuli/rescaled_final/0270_fw.mp4	0.0	369.8953459262848	0.10010004043579102
65	279.2416150569916	fix_pre	0		120	63.0	2.5	blank	1.0	369.9954459667206	1.0000691413879395
65	280.2416841983795	movie	1		299	63.0	2.5	blank	1.0	370.9955151081085	2.4921388626098633
65	280.61767411231995	pulse	1	t		63.0	2.5	blank	1.0	371.37150502204895	
65	282.2170522212982	pulse	1	t		63.0	2.5	blank	1.0	372.9708831310272	
65	282.7338230609894	fix_post	2		12	63.0	2.5	blank	1.0	373.4876539707184	0.09994196891784668
66	282.8337650299072	fix_pre	0		119	64.0	2.5	/experiments/knapen_AOT/AOT_stimuli/rescaled_final/0348_rv.mp4	0.0	373.58759593963623	0.9918789863586426
66	283.81742811203003	pulse	0	t		64.0	2.5	/experiments/knapen_AOT/AOT_stimuli/rescaled_final/0348_rv.mp4	0.0	374.57125902175903	
66	283.82564401626587	movie	1		243	64.0	2.5	/experiments/knapen_AOT/AOT_stimuli/rescaled_final/0348_rv.mp4	0.0	374.5794749259949	2.508622169494629
66	285.41829204559326	pulse	1	t		64.0	2.5	/experiments/knapen_AOT/AOT_stimuli/rescaled_final/0348_rv.mp4	0.0	376.17212295532227	
66	286.3342661857605	fix_post	2		12	64.0	2.5	/experiments/knapen_AOT/AOT_stimuli/rescaled_final/0348_rv.mp4	0.0	377.0880970954895	0.10001993179321289
67	286.4342861175537	fix_pre	0		120	65.0	2.5	/experiments/knapen_AOT/AOT_stimuli/rescaled_final/1358_fw.mp4	0.0	377.1881170272827	1.0001180171966553
67	287.01796221733093	pulse	0	t		65.0	2.5	/experiments/knapen_AOT/AOT_stimuli/rescaled_final/1358_fw.mp4	0.0	377.77179312705994	
67	287.43440413475037	movie	1		242	65.0	2.5	/experiments/knapen_AOT/AOT_stimuli/rescaled_final/1358_fw.mp4	0.0	378.18823504447937	2.500532865524292
67	288.6181311607361	pulse	1	t		65.0	2.5	/experiments/knapen_AOT/AOT_stimuli/rescaled_final/1358_fw.mp4	0.0	379.3719620704651	
67	289.93493700027466	fix_post	2		12	65.0	2.5	/experiments/knapen_AOT/AOT_stimuli/rescaled_final/1358_fw.mp4	0.0	380.68876791000366	0.0999290943145752
68	290.03486609458923	fix_pre	0		120	66.0	2.5	/experiments/knapen_AOT/AOT_stimuli/rescaled_final/1837_fw.mp4	0.0	380.78869700431824	1.0001029968261719
68	290.2183611392975	pulse	0	t		66.0	2.5	/experiments/knapen_AOT/AOT_stimuli/rescaled_final/1837_fw.mp4	0.0	380.9721920490265	
68	291.0349690914154	movie	1		242	66.0	2.5	/experiments/knapen_AOT/AOT_stimuli/rescaled_final/1837_fw.mp4	0.0	381.7888000011444	2.5005640983581543
68	291.8187081813812	pulse	1	t		66.0	2.5	/experiments/knapen_AOT/AOT_stimuli/rescaled_final/1837_fw.mp4	0.0	382.57253909111023	
68	293.41884112358093	pulse	1	t		66.0	2.5	/experiments/knapen_AOT/AOT_stimuli/rescaled_final/1837_fw.mp4	0.0	384.17267203330994	
68	293.53553318977356	fix_post	2		12	66.0	2.5	/experiments/knapen_AOT/AOT_stimuli/rescaled_final/1837_fw.mp4	0.0	384.28936409950256	0.09985804557800293
69	293.63539123535156	fix_pre	0		120	67.0	2.5	/experiments/knapen_AOT/AOT_stimuli/rescaled_final/1431_rv.mp4	0.0	384.38922214508057	1.000126838684082
69	294.63551807403564	movie	1		243	67.0	2.5	/experiments/knapen_AOT/AOT_stimuli/rescaled_final/1431_rv.mp4	0.0	385.38934898376465	2.4919791221618652
69	295.0197010040283	pulse	1	t		67.0	2.5	/experiments/knapen_AOT/AOT_stimuli/rescaled_final/1431_rv.mp4	0.0	385.7735319137573	
69	296.6193871498108	pulse	1	t		67.0	2.5	/experiments/knapen_AOT/AOT_stimuli/rescaled_final/1431_rv.mp4	0.0	387.3732180595398	
69	297.1274971961975	fix_post	2		12	67.0	2.5	/experiments/knapen_AOT/AOT_stimuli/rescaled_final/1431_rv.mp4	0.0	387.8813281059265	0.10005784034729004
70	297.2275550365448	fix_pre	0		120	68.0	2.5	blank	1.0	387.9813859462738	1.000197172164917
70	298.2195270061493	pulse	0	t		68.0	2.5	blank	1.0	388.9733579158783	
70	298.2277522087097	movie	1		301	68.0	2.5	blank	1.0	388.9815831184387	2.5086419582366943
70	299.8197741508484	pulse	1	t		68.0	2.5	blank	1.0	390.5736050605774	
70	300.7363941669464	fix_post	2		12	68.0	2.5	blank	1.0	391.4902250766754	0.10006904602050781
71	300.8364632129669	fix_pre	0		120	69.0	2.5	/experiments/knapen_AOT/AOT_stimuli/rescaled_final/0086_rv.mp4	0.0	391.5902941226959	1.0001258850097656
71	301.4200460910797	pulse	0	t		69.0	2.5	/experiments/knapen_AOT/AOT_stimuli/rescaled_final/0086_rv.mp4	0.0	392.1738770008087	
71	301.8365890979767	movie	1		242	69.0	2.5	/experiments/knapen_AOT/AOT_stimuli/rescaled_final/0086_rv.mp4	0.0	392.5904200077057	2.500368118286133
71	303.02040815353394	pulse	1	t		69.0	2.5	/experiments/knapen_AOT/AOT_stimuli/rescaled_final/0086_rv.mp4	0.0	393.77423906326294	
71	304.3369572162628	fix_post	2		12	69.0	2.5	/experiments/knapen_AOT/AOT_stimuli/rescaled_final/0086_rv.mp4	0.0	395.0907881259918	0.09998488426208496
72	304.4369421005249	fix_pre	0		120	70.0	2.5	/experiments/knapen_AOT/AOT_stimuli/rescaled_final/1657_rv.mp4	0.0	395.1907730102539	1.0002179145812988
72	304.620619058609	pulse	0	t		70.0	2.5	/experiments/knapen_AOT/AOT_stimuli/rescaled_final/1657_rv.mp4	0.0	395.374449968338	
72	305.4371600151062	movie	1		242	70.0	2.5	/experiments/knapen_AOT/AOT_stimuli/rescaled_final/1657_rv.mp4	0.0	396.1909909248352	2.5005621910095215
72	306.2207930088043	pulse	1	t		70.0	2.5	/experiments/knapen_AOT/AOT_stimuli/rescaled_final/1657_rv.mp4	0.0	396.9746239185333	
72	307.8210871219635	pulse	1	t		70.0	2.5	/experiments/knapen_AOT/AOT_stimuli/rescaled_final/1657_rv.mp4	0.0	398.5749180316925	
72	307.9377222061157	fix_post	2		12	70.0	2.5	/experiments/knapen_AOT/AOT_stimuli/rescaled_final/1657_rv.mp4	0.0	398.6915531158447	0.09980392456054688
73	308.03752613067627	fix_pre	0		120	71.0	2.5	/experiments/knapen_AOT/AOT_stimuli/rescaled_final/1250_rv.mp4	0.0	398.7913570404053	1.0001189708709717
73	309.03764510154724	movie	1		243	71.0	2.5	/experiments/knapen_AOT/AOT_stimuli/rescaled_final/1250_rv.mp4	0.0	399.79147601127625	2.4920530319213867
73	309.42523312568665	pulse	1	t		71.0	2.5	/experiments/knapen_AOT/AOT_stimuli/rescaled_final/1250_rv.mp4	0.0	400.17906403541565	
73	311.0217270851135	pulse	1	t		71.0	2.5	/experiments/knapen_AOT/AOT_stimuli/rescaled_final/1250_rv.mp4	0.0	401.77555799484253	
73	311.5296981334686	fix_post	2		12	71.0	2.5	/experiments/knapen_AOT/AOT_stimuli/rescaled_final/1250_rv.mp4	0.0	402.28352904319763	0.0999910831451416
74	311.62968921661377	fix_pre	0		120	72.0	2.5	/experiments/knapen_AOT/AOT_stimuli/rescaled_final/1032_rv.mp4	0.0	402.3835201263428	1.000128984451294
74	312.62170910835266	pulse	0	t		72.0	2.5	/experiments/knapen_AOT/AOT_stimuli/rescaled_final/1032_rv.mp4	0.0	403.37554001808167	
74	312.62981820106506	movie	1		243	72.0	2.5	/experiments/knapen_AOT/AOT_stimuli/rescaled_final/1032_rv.mp4	0.0	403.38364911079407	2.5087339878082275
74	314.2225320339203	pulse	1	t		72.0	2.5	/experiments/knapen_AOT/AOT_stimuli/rescaled_final/1032_rv.mp4	0.0	404.9763629436493	
74	315.1385521888733	fix_post	2		12	72.0	2.5	/experiments/knapen_AOT/AOT_stimuli/rescaled_final/1032_rv.mp4	0.0	405.8923830986023	0.10004901885986328
75	315.23860120773315	fix_pre	0		120	73.0	2.5	/experiments/knapen_AOT/AOT_stimuli/rescaled_final/1309_rv.mp4	0.0	405.99243211746216	1.0000998973846436
75	315.82215118408203	pulse	0	t		73.0	2.5	/experiments/knapen_AOT/AOT_stimuli/rescaled_final/1309_rv.mp4	0.0	406.57598209381104	
75	316.2387011051178	movie	1		243	73.0	2.5	/experiments/knapen_AOT/AOT_stimuli/rescaled_final/1309_rv.mp4	0.0	406.9925320148468	2.500462055206299
75	317.4225800037384	pulse	1	t		73.0	2.5	/experiments/knapen_AOT/AOT_stimuli/rescaled_final/1309_rv.mp4	0.0	408.1764109134674	
75	318.7391631603241	fix_post	2		12	73.0	2.5	/experiments/knapen_AOT/AOT_stimuli/rescaled_final/1309_rv.mp4	0.0	409.4929940700531	0.10007405281066895
76	318.83923721313477	fix_pre	0		120	74.0	2.5	/experiments/knapen_AOT/AOT_stimuli/rescaled_final/0414_rv.mp4	0.0	409.59306812286377	1.0000319480895996
76	319.0226671695709	pulse	0	t		74.0	2.5	/experiments/knapen_AOT/AOT_stimuli/rescaled_final/0414_rv.mp4	0.0	409.7764980792999	
76	319.83926916122437	movie	1		242	74.0	2.5	/experiments/knapen_AOT/AOT_stimuli/rescaled_final/0414_rv.mp4	0.0	410.59310007095337	2.5013270378112793
76	320.6229190826416	pulse	1	t		74.0	2.5	/experiments/knapen_AOT/AOT_stimuli/rescaled_final/0414_rv.mp4	0.0	411.3767499923706	
76	322.22303009033203	pulse	1	t		74.0	2.5	/experiments/knapen_AOT/AOT_stimuli/rescaled_final/0414_rv.mp4	0.0	412.97686100006104	
76	322.34059619903564	fix_post	2		12	74.0	2.5	/experiments/knapen_AOT/AOT_stimuli/rescaled_final/0414_rv.mp4	0.0	413.09442710876465	0.09911799430847168
77	322.4397141933441	fix_pre	0		119	75.0	2.5	blank	1.0	413.1935451030731	0.9917528629302979
77	323.4314670562744	movie	1		300	75.0	2.5	blank	1.0	414.1852979660034	2.5003609657287598
77	323.8233551979065	pulse	1	t		75.0	2.5	blank	1.0	414.5771861076355	
77	325.4236090183258	pulse	1	t		75.0	2.5	blank	1.0	416.1774399280548	
77	325.9318280220032	fix_post	2		12	75.0	2.5	blank	1.0	416.6856589317322	0.09999513626098633
78	326.03182315826416	fix_pre	0		120	76.0	2.5	/experiments/knapen_AOT/AOT_stimuli/rescaled_final/1843_fw.mp4	0.0	416.78565406799316	1.0001840591430664
78	327.02389907836914	pulse	0	t		76.0	2.5	/experiments/knapen_AOT/AOT_stimuli/rescaled_final/1843_fw.mp4	0.0	417.77772998809814	
78	327.0320072174072	movie	1		243	76.0	2.5	/experiments/knapen_AOT/AOT_stimuli/rescaled_final/1843_fw.mp4	0.0	417.78583812713623	2.508708953857422
78	328.62823009490967	pulse	1	t		76.0	2.5	/experiments/knapen_AOT/AOT_stimuli/rescaled_final/1843_fw.mp4	0.0	419.3820610046387	
78	329.54071617126465	fix_post	2		12	76.0	2.5	/experiments/knapen_AOT/AOT_stimuli/rescaled_final/1843_fw.mp4	0.0	420.29454708099365	0.10002994537353516
79	329.6407461166382	fix_pre	0		120	77.0	2.5	/experiments/knapen_AOT/AOT_stimuli/rescaled_final/0541_fw.mp4	0.0	420.3945770263672	1.0001120567321777
79	330.2166860103607	pulse	0	t		77.0	2.5	/experiments/knapen_AOT/AOT_stimuli/rescaled_final/0541_fw.mp4	0.0	420.9705169200897	
79	330.64085817337036	movie	1		244	77.0	2.5	/experiments/knapen_AOT/AOT_stimuli/rescaled_final/0541_fw.mp4	0.0	421.39468908309937	2.5003769397735596
79	331.81670022010803	pulse	1	t		77.0	2.5	/experiments/knapen_AOT/AOT_stimuli/rescaled_final/0541_fw.mp4	0.0	422.57053112983704	
79	333.1412351131439	fix_post	2		12	77.0	2.5	/experiments/knapen_AOT/AOT_stimuli/rescaled_final/0541_fw.mp4	0.0	423.8950660228729	0.10000991821289062
80	333.2412450313568	fix_pre	0		120	78.0	2.5	/experiments/knapen_AOT/AOT_stimuli/rescaled_final/2143_fw.mp4	0.0	423.9950759410858	1.0001780986785889
80	333.41735911369324	pulse	0	t		78.0	2.5	/experiments/knapen_AOT/AOT_stimuli/rescaled_final/2143_fw.mp4	0.0	424.17119002342224	
80	334.2414231300354	movie	1		242	78.0	2.5	/experiments/knapen_AOT/AOT_stimuli/rescaled_final/2143_fw.mp4	0.0	424.9952540397644	2.500375986099243
80	335.0167660713196	pulse	1	t		78.0	2.5	/experiments/knapen_AOT/AOT_stimuli/rescaled_final/2143_fw.mp4	0.0	425.7705969810486	
80	336.6169102191925	pulse	1	t		78.0	2.5	/experiments/knapen_AOT/AOT_stimuli/rescaled_final/2143_fw.mp4	0.0	427.3707411289215	
80	336.74179911613464	fix_post	2		12	78.0	2.5	/experiments/knapen_AOT/AOT_stimuli/rescaled_final/2143_fw.mp4	0.0	427.49563002586365	0.10005998611450195
81	336.84185910224915	fix_pre	0		118	79.0	2.5	/experiments/knapen_AOT/AOT_stimuli/rescaled_final/0411_rv.mp4	0.0	427.59569001197815	1.0000789165496826
81	337.8419380187988	movie	1		242	79.0	2.5	/experiments/knapen_AOT/AOT_stimuli/rescaled_final/0411_rv.mp4	0.0	428.59576892852783	2.49206805229187
81	338.2170751094818	pulse	1	t		79.0	2.5	/experiments/knapen_AOT/AOT_stimuli/rescaled_final/0411_rv.mp4	0.0	428.9709060192108	
81	339.8175411224365	pulse	1	t		79.0	2.5	/experiments/knapen_AOT/AOT_stimuli/rescaled_final/0411_rv.mp4	0.0	430.5713720321655	
81	340.3340060710907	fix_post	2		12	79.0	2.5	/experiments/knapen_AOT/AOT_stimuli/rescaled_final/0411_rv.mp4	0.0	431.0878369808197	0.100006103515625
82	340.4340121746063	fix_pre	0		119	80.0	2.5	/experiments/knapen_AOT/AOT_stimuli/rescaled_final/0252_fw.mp4	0.0	431.1878430843353	0.991783857345581
82	341.4176912307739	pulse	0	t		80.0	2.5	/experiments/knapen_AOT/AOT_stimuli/rescaled_final/0252_fw.mp4	0.0	432.17152214050293	
82	341.4257960319519	movie	1		244	80.0	2.5	/experiments/knapen_AOT/AOT_stimuli/rescaled_final/0252_fw.mp4	0.0	432.1796269416809	2.50871205329895
82	343.0220801830292	pulse	1	t		80.0	2.5	/experiments/knapen_AOT/AOT_stimuli/rescaled_final/0252_fw.mp4	0.0	433.7759110927582	
82	343.93450808525085	fix_post	2		12	80.0	2.5	/experiments/knapen_AOT/AOT_stimuli/rescaled_final/0252_fw.mp4	0.0	434.68833899497986	0.1000680923461914
83	344.03457617759705	fix_pre	0		120	81.0	2.5	/experiments/knapen_AOT/AOT_stimuli/rescaled_final/0067_rv.mp4	0.0	434.78840708732605	1.0001468658447266
83	344.6180510520935	pulse	0	t		81.0	2.5	/experiments/knapen_AOT/AOT_stimuli/rescaled_final/0067_rv.mp4	0.0	435.3718819618225	
83	345.0347230434418	movie	1		244	81.0	2.5	/experiments/knapen_AOT/AOT_stimuli/rescaled_final/0067_rv.mp4	0.0	435.7885539531708	2.5003161430358887
83	346.2183952331543	pulse	1	t		81.0	2.5	/experiments/knapen_AOT/AOT_stimuli/rescaled_final/0067_rv.mp4	0.0	436.9722261428833	
83	347.53503918647766	fix_post	2		12	81.0	2.5	/experiments/knapen_AOT/AOT_stimuli/rescaled_final/0067_rv.mp4	0.0	438.28887009620667	0.10006403923034668
84	347.635103225708	fix_pre	0		120	82.0	2.5	/experiments/knapen_AOT/AOT_stimuli/rescaled_final/0666_fw.mp4	0.0	438.388934135437	1.0001099109649658
84	347.8186671733856	pulse	0	t		82.0	2.5	/experiments/knapen_AOT/AOT_stimuli/rescaled_final/0666_fw.mp4	0.0	438.5724980831146	
84	348.635213136673	movie	1		242	82.0	2.5	/experiments/knapen_AOT/AOT_stimuli/rescaled_final/0666_fw.mp4	0.0	439.389044046402	2.500549077987671
84	349.418808221817	pulse	1	t		82.0	2.5	/experiments/knapen_AOT/AOT_stimuli/rescaled_final/0666_fw.mp4	0.0	440.172639131546	
84	351.0201530456543	pulse	1	t		82.0	2.5	/experiments/knapen_AOT/AOT_stimuli/rescaled_final/0666_fw.mp4	0.0	441.7739839553833	
84	351.13576221466064	fix_post	2		12	82.0	2.5	/experiments/knapen_AOT/AOT_stimuli/rescaled_final/0666_fw.mp4	0.0	441.88959312438965	0.0998988151550293
85	351.2356610298157	fix_pre	0		120	83.0	2.5	blank	1.0	441.9894919395447	1.0000910758972168
85	352.2357521057129	movie	1		299	83.0	2.5	blank	1.0	442.9895830154419	2.492042064666748
85	352.6192741394043	pulse	1	t		83.0	2.5	blank	1.0	443.3731050491333	
85	354.2195930480957	pulse	1	t		83.0	2.5	blank	1.0	444.9734239578247	
85	354.72779417037964	fix_post	2		12	83.0	2.5	blank	1.0	445.48162508010864	0.10004687309265137
87	354.8278410434723	stim	0		1716					445.5816719532013	14.302103042602539
87	355.819895029068	pulse	0	t						446.573725938797	
87	357.42002415657043	pulse	0	t						448.17385506629944	
87	359.02019214630127	pulse	0	t						449.7740230560303	
87	360.62042808532715	pulse	0	t						451.37425899505615	
87	362.2207500934601	pulse	0	t						452.9745810031891	
87	363.82100105285645	pulse	0	t						454.57483196258545	
87	365.4211530685425	pulse	0	t						456.1749839782715	
87	367.02136421203613	pulse	0	t						457.77519512176514	
87	368.6216950416565	pulse	0	t						459.3755259513855	
