trial_nr	onset	event_type	phase	response	nr_frames	movie_index	movie_duration	movie_file	blank	onset_abs	duration
0	0.15043091773986816	stim	0		139					22.17402195930481	1.1583151817321777
0	1.3006260395050049	response	0	space						23.324217081069946	
1	1.308746099472046	stim	0		12305					23.332337141036987	102.54111289978027
1	103.8438549041748	pulse	0	t						125.86744594573975	
1	103.84985899925232	stim	1		1717					125.87345004081726	14.308351039886475
1	105.44168591499329	pulse	1	t						127.46527695655823	
1	107.04173302650452	pulse	1	t						129.06532406806946	
1	108.64171004295349	pulse	1	t						130.66530108451843	
1	110.24165511131287	pulse	1	t						132.2652461528778	
1	111.84167194366455	pulse	1	t						133.8652629852295	
1	113.44167304039001	pulse	1	t						135.46526408195496	
1	115.04163408279419	pulse	1	t						137.06522512435913	
1	116.64170408248901	pulse	1	t						138.66529512405396	
2	118.1582100391388	fix_pre	0		11	0.0	2.5	/experiments/AOT/AOT_stimuli/rescaled_final/0327_fw.mp4	0.0	140.18180108070374	0.09177088737487793
2	118.24177694320679	pulse	0	t		0.0	2.5	/experiments/AOT/AOT_stimuli/rescaled_final/0327_fw.mp4	0.0	140.26536798477173	
2	118.24998092651367	movie	1		245	0.0	2.5	/experiments/AOT/AOT_stimuli/rescaled_final/0327_fw.mp4	0.0	140.2735719680786	2.508255958557129
2	119.84128403663635	pulse	1	t		0.0	2.5	/experiments/AOT/AOT_stimuli/rescaled_final/0327_fw.mp4	0.0	141.8648750782013	
2	120.7582368850708	fix_post	2		12	0.0	2.5	/experiments/AOT/AOT_stimuli/rescaled_final/0327_fw.mp4	0.0	142.78182792663574	0.09993910789489746
3	120.8581759929657	fix_pre	0		120	1.0	2.5	/experiments/AOT/AOT_stimuli/rescaled_final/0460_rv.mp4	0.0	142.88176703453064	1.0000050067901611
3	121.44169902801514	pulse	0	t		1.0	2.5	/experiments/AOT/AOT_stimuli/rescaled_final/0460_rv.mp4	0.0	143.46529006958008	
3	121.85818099975586	movie	1		243	1.0	2.5	/experiments/AOT/AOT_stimuli/rescaled_final/0460_rv.mp4	0.0	143.8817720413208	2.49954891204834
3	123.04165291786194	pulse	1	t		1.0	2.5	/experiments/AOT/AOT_stimuli/rescaled_final/0460_rv.mp4	0.0	145.06524395942688	
3	124.3577299118042	fix_post	2		12	1.0	2.5	/experiments/AOT/AOT_stimuli/rescaled_final/0460_rv.mp4	0.0	146.38132095336914	0.10050797462463379
4	124.45823788642883	fix_pre	0		120	2.0	2.5	/experiments/AOT/AOT_stimuli/rescaled_final/0513_fw.mp4	0.0	146.48182892799377	0.999934196472168
4	124.64175605773926	pulse	0	t		2.0	2.5	/experiments/AOT/AOT_stimuli/rescaled_final/0513_fw.mp4	0.0	146.6653470993042	
4	125.458172082901	movie	1		245	2.0	2.5	/experiments/AOT/AOT_stimuli/rescaled_final/0513_fw.mp4	0.0	147.48176312446594	2.499917984008789
4	126.24154496192932	pulse	1	t		2.0	2.5	/experiments/AOT/AOT_stimuli/rescaled_final/0513_fw.mp4	0.0	148.26513600349426	
4	127.84003901481628	pulse	1	t		2.0	2.5	/experiments/AOT/AOT_stimuli/rescaled_final/0513_fw.mp4	0.0	149.86363005638123	
4	127.95809006690979	fix_post	2		12	2.0	2.5	/experiments/AOT/AOT_stimuli/rescaled_final/0513_fw.mp4	0.0	149.98168110847473	0.09996604919433594
5	128.05805611610413	fix_pre	0		120	3.0	2.5	/experiments/AOT/AOT_stimuli/rescaled_final/0655_rv.mp4	0.0	150.08164715766907	1.0000519752502441
5	129.05810809135437	movie	1		243	3.0	2.5	/experiments/AOT/AOT_stimuli/rescaled_final/0655_rv.mp4	0.0	151.0816991329193	2.5001869201660156
5	129.44273900985718	pulse	1	t		3.0	2.5	/experiments/AOT/AOT_stimuli/rescaled_final/0655_rv.mp4	0.0	151.46633005142212	
5	131.04185891151428	pulse	1	t		3.0	2.5	/experiments/AOT/AOT_stimuli/rescaled_final/0655_rv.mp4	0.0	153.06544995307922	
5	131.55829501152039	fix_post	2		12	3.0	2.5	/experiments/AOT/AOT_stimuli/rescaled_final/0655_rv.mp4	0.0	153.58188605308533	0.0998389720916748
6	131.65813398361206	fix_pre	0		119	4.0	2.5	/experiments/AOT/AOT_stimuli/rescaled_final/1329_fw.mp4	0.0	153.681725025177	0.9916839599609375
6	132.64157605171204	pulse	0	t		4.0	2.5	/experiments/AOT/AOT_stimuli/rescaled_final/1329_fw.mp4	0.0	154.66516709327698	
6	132.649817943573	movie	1		244	4.0	2.5	/experiments/AOT/AOT_stimuli/rescaled_final/1329_fw.mp4	0.0	154.67340898513794	2.508378028869629
6	134.24163007736206	pulse	1	t		4.0	2.5	/experiments/AOT/AOT_stimuli/rescaled_final/1329_fw.mp4	0.0	156.265221118927	
6	135.15819597244263	fix_post	2		12	4.0	2.5	/experiments/AOT/AOT_stimuli/rescaled_final/1329_fw.mp4	0.0	157.18178701400757	0.09987902641296387
7	135.2580749988556	fix_pre	0		120	5.0	2.5	blank	1.0	157.28166604042053	1.0000250339508057
7	135.8416121006012	pulse	0	t		5.0	2.5	blank	1.0	157.86520314216614	
7	136.2581000328064	movie	1		300	5.0	2.5	blank	1.0	158.28169107437134	2.499964952468872
7	137.44161891937256	pulse	1	t		5.0	2.5	blank	1.0	159.4652099609375	
7	138.75806498527527	fix_post	2		12	5.0	2.5	blank	1.0	160.7816560268402	0.10005807876586914
8	138.85812306404114	fix_pre	0		120	6.0	2.5	/experiments/AOT/AOT_stimuli/rescaled_final/1798_fw.mp4	0.0	160.88171410560608	1.0000269412994385
8	139.04156589508057	pulse	0	t		6.0	2.5	/experiments/AOT/AOT_stimuli/rescaled_final/1798_fw.mp4	0.0	161.0651569366455	
8	139.85815000534058	movie	1		243	6.0	2.5	/experiments/AOT/AOT_stimuli/rescaled_final/1798_fw.mp4	0.0	161.88174104690552	2.49985408782959
8	140.64160799980164	pulse	1	t		6.0	2.5	/experiments/AOT/AOT_stimuli/rescaled_final/1798_fw.mp4	0.0	162.66519904136658	
8	142.23988389968872	pulse	1	t		6.0	2.5	/experiments/AOT/AOT_stimuli/rescaled_final/1798_fw.mp4	0.0	164.26347494125366	
8	142.35800409317017	fix_post	2		12	6.0	2.5	/experiments/AOT/AOT_stimuli/rescaled_final/1798_fw.mp4	0.0	164.3815951347351	0.10003089904785156
9	142.45803499221802	fix_pre	0		120	7.0	2.5	/experiments/AOT/AOT_stimuli/rescaled_final/2099_rv.mp4	0.0	164.48162603378296	0.9999649524688721
9	143.4579999446869	movie	1		245	7.0	2.5	/experiments/AOT/AOT_stimuli/rescaled_final/2099_rv.mp4	0.0	165.48159098625183	2.500023126602173
9	143.8426969051361	pulse	1	t		7.0	2.5	/experiments/AOT/AOT_stimuli/rescaled_final/2099_rv.mp4	0.0	165.86628794670105	
9	145.44156789779663	pulse	1	t		7.0	2.5	/experiments/AOT/AOT_stimuli/rescaled_final/2099_rv.mp4	0.0	167.46515893936157	
9	145.95802307128906	fix_post	2		12	7.0	2.5	/experiments/AOT/AOT_stimuli/rescaled_final/2099_rv.mp4	0.0	167.981614112854	0.10005593299865723
10	146.05807900428772	fix_pre	0		119	8.0	2.5	/experiments/AOT/AOT_stimuli/rescaled_final/1589_rv.mp4	0.0	168.08167004585266	0.9915928840637207
10	147.04159498214722	pulse	0	t		8.0	2.5	/experiments/AOT/AOT_stimuli/rescaled_final/1589_rv.mp4	0.0	169.06518602371216	
10	147.04967188835144	movie	1		245	8.0	2.5	/experiments/AOT/AOT_stimuli/rescaled_final/1589_rv.mp4	0.0	169.07326292991638	2.5085060596466064
10	148.640939950943	pulse	1	t		8.0	2.5	/experiments/AOT/AOT_stimuli/rescaled_final/1589_rv.mp4	0.0	170.66453099250793	
10	149.55817794799805	fix_post	2		12	8.0	2.5	/experiments/AOT/AOT_stimuli/rescaled_final/1589_rv.mp4	0.0	171.581768989563	0.09989595413208008
11	149.65807390213013	fix_pre	0		120	9.0	2.5	/experiments/AOT/AOT_stimuli/rescaled_final/1025_fw.mp4	0.0	171.68166494369507	1.0000300407409668
11	150.24159789085388	pulse	0	t		9.0	2.5	/experiments/AOT/AOT_stimuli/rescaled_final/1025_fw.mp4	0.0	172.26518893241882	
11	150.6581039428711	movie	1		244	9.0	2.5	/experiments/AOT/AOT_stimuli/rescaled_final/1025_fw.mp4	0.0	172.68169498443604	2.4997780323028564
11	151.84117794036865	pulse	1	t		9.0	2.5	/experiments/AOT/AOT_stimuli/rescaled_final/1025_fw.mp4	0.0	173.8647689819336	
11	153.15788197517395	fix_post	2		12	9.0	2.5	/experiments/AOT/AOT_stimuli/rescaled_final/1025_fw.mp4	0.0	175.1814730167389	0.10031604766845703
12	153.2581980228424	fix_pre	0		120	10.0	2.5	/experiments/AOT/AOT_stimuli/rescaled_final/1452_fw.mp4	0.0	175.28178906440735	0.9997260570526123
12	153.44168496131897	pulse	0	t		10.0	2.5	/experiments/AOT/AOT_stimuli/rescaled_final/1452_fw.mp4	0.0	175.4652760028839	
12	154.25792407989502	movie	1		244	10.0	2.5	/experiments/AOT/AOT_stimuli/rescaled_final/1452_fw.mp4	0.0	176.28151512145996	2.500088930130005
12	155.04146909713745	pulse	1	t		10.0	2.5	/experiments/AOT/AOT_stimuli/rescaled_final/1452_fw.mp4	0.0	177.0650601387024	
12	156.63991594314575	pulse	1	t		10.0	2.5	/experiments/AOT/AOT_stimuli/rescaled_final/1452_fw.mp4	0.0	178.6635069847107	
12	156.75801301002502	fix_post	2		12	10.0	2.5	/experiments/AOT/AOT_stimuli/rescaled_final/1452_fw.mp4	0.0	178.78160405158997	0.09996294975280762
13	156.85797595977783	fix_pre	0		120	11.0	2.5	/experiments/AOT/AOT_stimuli/rescaled_final/1838_rv.mp4	0.0	178.88156700134277	1.0000381469726562
13	157.8580141067505	movie	1		243	11.0	2.5	/experiments/AOT/AOT_stimuli/rescaled_final/1838_rv.mp4	0.0	179.88160514831543	2.4999330043792725
13	158.24101090431213	pulse	1	t		11.0	2.5	/experiments/AOT/AOT_stimuli/rescaled_final/1838_rv.mp4	0.0	180.26460194587708	
13	159.84137511253357	pulse	1	t		11.0	2.5	/experiments/AOT/AOT_stimuli/rescaled_final/1838_rv.mp4	0.0	181.8649661540985	
13	160.35794711112976	fix_post	2		12	11.0	2.5	/experiments/AOT/AOT_stimuli/rescaled_final/1838_rv.mp4	0.0	182.3815381526947	0.09999394416809082
14	160.45794105529785	fix_pre	0		119	12.0	2.5	/experiments/AOT/AOT_stimuli/rescaled_final/0710_fw.mp4	0.0	182.4815320968628	0.9916858673095703
14	161.44154906272888	pulse	0	t		12.0	2.5	/experiments/AOT/AOT_stimuli/rescaled_final/0710_fw.mp4	0.0	183.46514010429382	
14	161.44962692260742	movie	1		245	12.0	2.5	/experiments/AOT/AOT_stimuli/rescaled_final/0710_fw.mp4	0.0	183.47321796417236	2.5082859992980957
14	163.04104804992676	pulse	1	t		12.0	2.5	/experiments/AOT/AOT_stimuli/rescaled_final/0710_fw.mp4	0.0	185.0646390914917	
14	163.95791292190552	fix_post	2		12	12.0	2.5	/experiments/AOT/AOT_stimuli/rescaled_final/0710_fw.mp4	0.0	185.98150396347046	0.09998607635498047
15	164.0578989982605	fix_pre	0		120	13.0	2.5	/experiments/AOT/AOT_stimuli/rescaled_final/0173_rv.mp4	0.0	186.08149003982544	1.0000250339508057
15	164.6414771080017	pulse	0	t		13.0	2.5	/experiments/AOT/AOT_stimuli/rescaled_final/0173_rv.mp4	0.0	186.66506814956665	
15	165.0579240322113	movie	1		245	13.0	2.5	/experiments/AOT/AOT_stimuli/rescaled_final/0173_rv.mp4	0.0	187.08151507377625	2.499600887298584
15	166.24150609970093	pulse	1	t		13.0	2.5	/experiments/AOT/AOT_stimuli/rescaled_final/0173_rv.mp4	0.0	188.26509714126587	
15	167.5575249195099	fix_post	2		12	13.0	2.5	/experiments/AOT/AOT_stimuli/rescaled_final/0173_rv.mp4	0.0	189.58111596107483	0.1003720760345459
16	167.65789699554443	fix_pre	0		120	14.0	2.5	blank	1.0	189.68148803710938	1.000006914138794
16	167.84140610694885	pulse	0	t		14.0	2.5	blank	1.0	189.8649971485138	
16	168.65790390968323	movie	1		300	14.0	2.5	blank	1.0	190.68149495124817	2.5000760555267334
16	169.44144010543823	pulse	1	t		14.0	2.5	blank	1.0	191.46503114700317	
16	171.04150009155273	pulse	1	t		14.0	2.5	blank	1.0	193.06509113311768	
16	171.15797996520996	fix_post	2		12	14.0	2.5	blank	1.0	193.1815710067749	0.09998607635498047
17	171.25796604156494	fix_pre	0		120	15.0	2.5	/experiments/AOT/AOT_stimuli/rescaled_final/1617_fw.mp4	0.0	193.28155708312988	0.9999518394470215
17	172.25791788101196	movie	1		242	15.0	2.5	/experiments/AOT/AOT_stimuli/rescaled_final/1617_fw.mp4	0.0	194.2815089225769	2.500462055206299
17	172.6412239074707	pulse	1	t		15.0	2.5	/experiments/AOT/AOT_stimuli/rescaled_final/1617_fw.mp4	0.0	194.66481494903564	
17	174.24132704734802	pulse	1	t		15.0	2.5	/experiments/AOT/AOT_stimuli/rescaled_final/1617_fw.mp4	0.0	196.26491808891296	
17	174.75837993621826	fix_post	2		12	15.0	2.5	/experiments/AOT/AOT_stimuli/rescaled_final/1617_fw.mp4	0.0	196.7819709777832	0.09950613975524902
18	174.8578860759735	fix_pre	0		119	16.0	2.5	/experiments/AOT/AOT_stimuli/rescaled_final/2174_rv.mp4	0.0	196.88147711753845	0.9916818141937256
18	175.84139204025269	pulse	0	t		16.0	2.5	/experiments/AOT/AOT_stimuli/rescaled_final/2174_rv.mp4	0.0	197.86498308181763	
18	175.84956789016724	movie	1		244	16.0	2.5	/experiments/AOT/AOT_stimuli/rescaled_final/2174_rv.mp4	0.0	197.87315893173218	2.5083091259002686
18	177.4409110546112	pulse	1	t		16.0	2.5	/experiments/AOT/AOT_stimuli/rescaled_final/2174_rv.mp4	0.0	199.46450209617615	
18	178.3578770160675	fix_post	2		12	16.0	2.5	/experiments/AOT/AOT_stimuli/rescaled_final/2174_rv.mp4	0.0	200.38146805763245	0.09999203681945801
19	178.45786905288696	fix_pre	0		120	17.0	2.5	/experiments/AOT/AOT_stimuli/rescaled_final/0519_fw.mp4	0.0	200.4814600944519	1.000011920928955
19	179.04139399528503	pulse	0	t		17.0	2.5	/experiments/AOT/AOT_stimuli/rescaled_final/0519_fw.mp4	0.0	201.06498503684998	
19	179.45788097381592	movie	1		243	17.0	2.5	/experiments/AOT/AOT_stimuli/rescaled_final/0519_fw.mp4	0.0	201.48147201538086	2.4996049404144287
19	180.64139699935913	pulse	1	t		17.0	2.5	/experiments/AOT/AOT_stimuli/rescaled_final/0519_fw.mp4	0.0	202.66498804092407	
19	181.95748591423035	fix_post	2		12	17.0	2.5	/experiments/AOT/AOT_stimuli/rescaled_final/0519_fw.mp4	0.0	203.9810769557953	0.10031318664550781
20	182.05779910087585	fix_pre	0		120	18.0	2.5	/experiments/AOT/AOT_stimuli/rescaled_final/2165_rv.mp4	0.0	204.0813901424408	1.0000388622283936
20	182.2412769794464	pulse	0	t		18.0	2.5	/experiments/AOT/AOT_stimuli/rescaled_final/2165_rv.mp4	0.0	204.26486802101135	
20	183.05783796310425	movie	1		243	18.0	2.5	/experiments/AOT/AOT_stimuli/rescaled_final/2165_rv.mp4	0.0	205.0814290046692	2.5000319480895996
20	183.84133100509644	pulse	1	t		18.0	2.5	/experiments/AOT/AOT_stimuli/rescaled_final/2165_rv.mp4	0.0	205.86492204666138	
20	185.43962407112122	pulse	1	t		18.0	2.5	/experiments/AOT/AOT_stimuli/rescaled_final/2165_rv.mp4	0.0	207.46321511268616	
20	185.55786991119385	fix_post	2		12	18.0	2.5	/experiments/AOT/AOT_stimuli/rescaled_final/2165_rv.mp4	0.0	207.5814609527588	0.09995412826538086
21	185.65782403945923	fix_pre	0		120	19.0	2.5	blank	1.0	207.68141508102417	1.0000450611114502
21	186.65786910057068	movie	1		300	19.0	2.5	blank	1.0	208.68146014213562	2.500091791152954
21	187.0413670539856	pulse	1	t		19.0	2.5	blank	1.0	209.06495809555054	
21	188.64125895500183	pulse	1	t		19.0	2.5	blank	1.0	210.66484999656677	
21	189.15796089172363	fix_post	2		12	19.0	2.5	blank	1.0	211.18155193328857	0.09989500045776367
22	189.2578558921814	fix_pre	0		119	20.0	2.5	/experiments/AOT/AOT_stimuli/rescaled_final/1675_rv.mp4	0.0	211.28144693374634	0.9916510581970215
22	190.24133205413818	pulse	0	t		20.0	2.5	/experiments/AOT/AOT_stimuli/rescaled_final/1675_rv.mp4	0.0	212.26492309570312	
22	190.24950695037842	movie	1		246	20.0	2.5	/experiments/AOT/AOT_stimuli/rescaled_final/1675_rv.mp4	0.0	212.27309799194336	2.5083611011505127
22	191.840882062912	pulse	1	t		20.0	2.5	/experiments/AOT/AOT_stimuli/rescaled_final/1675_rv.mp4	0.0	213.86447310447693	
22	192.75786805152893	fix_post	2		12	20.0	2.5	/experiments/AOT/AOT_stimuli/rescaled_final/1675_rv.mp4	0.0	214.78145909309387	0.0998990535736084
23	192.85776710510254	fix_pre	0		120	21.0	2.5	/experiments/AOT/AOT_stimuli/rescaled_final/0559_fw.mp4	0.0	214.88135814666748	1.000093936920166
23	193.44134998321533	pulse	0	t		21.0	2.5	/experiments/AOT/AOT_stimuli/rescaled_final/0559_fw.mp4	0.0	215.46494102478027	
23	193.8578610420227	movie	1		244	21.0	2.5	/experiments/AOT/AOT_stimuli/rescaled_final/0559_fw.mp4	0.0	215.88145208358765	2.500108003616333
23	195.04135298728943	pulse	1	t		21.0	2.5	/experiments/AOT/AOT_stimuli/rescaled_final/0559_fw.mp4	0.0	217.06494402885437	
23	196.35796904563904	fix_post	2		12	21.0	2.5	/experiments/AOT/AOT_stimuli/rescaled_final/0559_fw.mp4	0.0	218.38156008720398	0.09988188743591309
24	196.45785093307495	fix_pre	0		120	22.0	2.5	/experiments/AOT/AOT_stimuli/rescaled_final/0703_fw.mp4	0.0	218.4814419746399	0.9999980926513672
24	196.64137506484985	pulse	0	t		22.0	2.5	/experiments/AOT/AOT_stimuli/rescaled_final/0703_fw.mp4	0.0	218.6649661064148	
24	197.45784902572632	movie	1		245	22.0	2.5	/experiments/AOT/AOT_stimuli/rescaled_final/0703_fw.mp4	0.0	219.48144006729126	2.499990940093994
24	198.2413830757141	pulse	1	t		22.0	2.5	/experiments/AOT/AOT_stimuli/rescaled_final/0703_fw.mp4	0.0	220.26497411727905	
24	199.83993101119995	pulse	1	t		22.0	2.5	/experiments/AOT/AOT_stimuli/rescaled_final/0703_fw.mp4	0.0	221.8635220527649	
24	199.9578399658203	fix_post	2		12	22.0	2.5	/experiments/AOT/AOT_stimuli/rescaled_final/0703_fw.mp4	0.0	221.98143100738525	0.09993195533752441
25	200.05777192115784	fix_pre	0		120	23.0	2.5	/experiments/AOT/AOT_stimuli/rescaled_final/2165_rv.mp4	0.0	222.08136296272278	1.0000300407409668
25	201.0578019618988	movie	1		243	23.0	2.5	/experiments/AOT/AOT_stimuli/rescaled_final/2165_rv.mp4	0.0	223.08139300346375	2.500131130218506
25	201.44074392318726	pulse	1	t		23.0	2.5	/experiments/AOT/AOT_stimuli/rescaled_final/2165_rv.mp4	0.0	223.4643349647522	
25	203.0412859916687	pulse	1	t		23.0	2.5	/experiments/AOT/AOT_stimuli/rescaled_final/2165_rv.mp4	0.0	225.06487703323364	
25	203.5579330921173	fix_post	2		12	23.0	2.5	/experiments/AOT/AOT_stimuli/rescaled_final/2165_rv.mp4	0.0	225.58152413368225	0.09990191459655762
26	203.65783500671387	fix_pre	0		119	24.0	2.5	/experiments/AOT/AOT_stimuli/rescaled_final/0375_rv.mp4	0.0	225.6814260482788	0.9915459156036377
26	204.64135694503784	pulse	0	t		24.0	2.5	/experiments/AOT/AOT_stimuli/rescaled_final/0375_rv.mp4	0.0	226.66494798660278	
26	204.6493809223175	movie	1		245	24.0	2.5	/experiments/AOT/AOT_stimuli/rescaled_final/0375_rv.mp4	0.0	226.67297196388245	2.5084521770477295
26	206.24088406562805	pulse	1	t		24.0	2.5	/experiments/AOT/AOT_stimuli/rescaled_final/0375_rv.mp4	0.0	228.264475107193	
26	207.15783309936523	fix_post	2		12	24.0	2.5	/experiments/AOT/AOT_stimuli/rescaled_final/0375_rv.mp4	0.0	229.18142414093018	0.09951090812683105
27	207.25734400749207	fix_pre	0		120	25.0	2.5	/experiments/AOT/AOT_stimuli/rescaled_final/1353_rv.mp4	0.0	229.280935049057	1.0005090236663818
27	207.84122896194458	pulse	0	t		25.0	2.5	/experiments/AOT/AOT_stimuli/rescaled_final/1353_rv.mp4	0.0	229.86482000350952	
27	208.25785303115845	movie	1		244	25.0	2.5	/experiments/AOT/AOT_stimuli/rescaled_final/1353_rv.mp4	0.0	230.2814440727234	2.4999499320983887
27	209.44146299362183	pulse	1	t		25.0	2.5	/experiments/AOT/AOT_stimuli/rescaled_final/1353_rv.mp4	0.0	231.46505403518677	
27	210.75780296325684	fix_post	2		12	25.0	2.5	/experiments/AOT/AOT_stimuli/rescaled_final/1353_rv.mp4	0.0	232.78139400482178	0.0998680591583252
28	210.85767102241516	fix_pre	0		120	26.0	2.5	/experiments/AOT/AOT_stimuli/rescaled_final/1696_fw.mp4	0.0	232.8812620639801	1.000195026397705
28	211.04114294052124	pulse	0	t		26.0	2.5	/experiments/AOT/AOT_stimuli/rescaled_final/1696_fw.mp4	0.0	233.06473398208618	
28	211.85786604881287	movie	1		245	26.0	2.5	/experiments/AOT/AOT_stimuli/rescaled_final/1696_fw.mp4	0.0	233.8814570903778	2.4998738765716553
28	212.64116191864014	pulse	1	t		26.0	2.5	/experiments/AOT/AOT_stimuli/rescaled_final/1696_fw.mp4	0.0	234.66475296020508	
28	214.23941707611084	pulse	1	t		26.0	2.5	/experiments/AOT/AOT_stimuli/rescaled_final/1696_fw.mp4	0.0	236.26300811767578	
28	214.35773992538452	fix_post	2		12	26.0	2.5	/experiments/AOT/AOT_stimuli/rescaled_final/1696_fw.mp4	0.0	236.38133096694946	0.10008001327514648
29	214.45781993865967	fix_pre	0		120	27.0	2.5	/experiments/AOT/AOT_stimuli/rescaled_final/0623_fw.mp4	0.0	236.4814109802246	0.9994561672210693
29	215.45727610588074	movie	1		244	27.0	2.5	/experiments/AOT/AOT_stimuli/rescaled_final/0623_fw.mp4	0.0	237.48086714744568	2.500067949295044
29	215.8408260345459	pulse	1	t		27.0	2.5	/experiments/AOT/AOT_stimuli/rescaled_final/0623_fw.mp4	0.0	237.86441707611084	
29	217.44112491607666	pulse	1	t		27.0	2.5	/experiments/AOT/AOT_stimuli/rescaled_final/0623_fw.mp4	0.0	239.4647159576416	
29	217.95734405517578	fix_post	2		12	27.0	2.5	/experiments/AOT/AOT_stimuli/rescaled_final/0623_fw.mp4	0.0	239.98093509674072	0.10034489631652832
30	218.0576889514923	fix_pre	0		119	28.0	2.5	blank	1.0	240.08127999305725	0.991685152053833
30	219.0412220954895	pulse	0	t		28.0	2.5	blank	1.0	241.06481313705444	
30	219.04937410354614	movie	1		301	28.0	2.5	blank	1.0	241.07296514511108	2.508316993713379
30	220.6410961151123	pulse	1	t		28.0	2.5	blank	1.0	242.66468715667725	
30	221.55769109725952	fix_post	2		12	28.0	2.5	blank	1.0	243.58128213882446	0.10001492500305176
31	221.65770602226257	fix_pre	0		120	29.0	2.5	/experiments/AOT/AOT_stimuli/rescaled_final/0327_rv.mp4	0.0	243.68129706382751	0.9999630451202393
31	222.24125504493713	pulse	0	t		29.0	2.5	/experiments/AOT/AOT_stimuli/rescaled_final/0327_rv.mp4	0.0	244.26484608650208	
31	222.6576690673828	movie	1		244	29.0	2.5	/experiments/AOT/AOT_stimuli/rescaled_final/0327_rv.mp4	0.0	244.68126010894775	2.4999749660491943
31	223.8411979675293	pulse	1	t		29.0	2.5	/experiments/AOT/AOT_stimuli/rescaled_final/0327_rv.mp4	0.0	245.86478900909424	
31	225.157644033432	fix_post	2		12	29.0	2.5	/experiments/AOT/AOT_stimuli/rescaled_final/0327_rv.mp4	0.0	247.18123507499695	0.10002994537353516
32	225.25767397880554	fix_pre	0		120	30.0	2.5	/experiments/AOT/AOT_stimuli/rescaled_final/1723_rv.mp4	0.0	247.28126502037048	0.9999480247497559
32	225.4411859512329	pulse	0	t		30.0	2.5	/experiments/AOT/AOT_stimuli/rescaled_final/1723_rv.mp4	0.0	247.46477699279785	
32	226.2576220035553	movie	1		243	30.0	2.5	/experiments/AOT/AOT_stimuli/rescaled_final/1723_rv.mp4	0.0	248.28121304512024	2.4999899864196777
32	227.0411319732666	pulse	1	t		30.0	2.5	/experiments/AOT/AOT_stimuli/rescaled_final/1723_rv.mp4	0.0	249.06472301483154	
32	228.6395080089569	pulse	1	t		30.0	2.5	/experiments/AOT/AOT_stimuli/rescaled_final/1723_rv.mp4	0.0	250.66309905052185	
32	228.75761198997498	fix_post	2		12	30.0	2.5	/experiments/AOT/AOT_stimuli/rescaled_final/1723_rv.mp4	0.0	250.78120303153992	0.09998893737792969
33	228.8576009273529	fix_pre	0		120	31.0	2.5	/experiments/AOT/AOT_stimuli/rescaled_final/1097_fw.mp4	0.0	250.88119196891785	1.000014066696167
33	229.85761499404907	movie	1		245	31.0	2.5	/experiments/AOT/AOT_stimuli/rescaled_final/1097_fw.mp4	0.0	251.881206035614	2.5000739097595215
33	230.24231600761414	pulse	1	t		31.0	2.5	/experiments/AOT/AOT_stimuli/rescaled_final/1097_fw.mp4	0.0	252.26590704917908	
33	231.84122395515442	pulse	1	t		31.0	2.5	/experiments/AOT/AOT_stimuli/rescaled_final/1097_fw.mp4	0.0	253.86481499671936	
33	232.3576889038086	fix_post	2		12	31.0	2.5	/experiments/AOT/AOT_stimuli/rescaled_final/1097_fw.mp4	0.0	254.38127994537354	0.09994697570800781
34	232.4576358795166	fix_pre	0		119	32.0	2.5	/experiments/AOT/AOT_stimuli/rescaled_final/0228_rv.mp4	0.0	254.48122692108154	0.9916951656341553
34	233.4411039352417	pulse	0	t		32.0	2.5	/experiments/AOT/AOT_stimuli/rescaled_final/0228_rv.mp4	0.0	255.46469497680664	
34	233.44933104515076	movie	1		246	32.0	2.5	/experiments/AOT/AOT_stimuli/rescaled_final/0228_rv.mp4	0.0	255.4729220867157	2.5083260536193848
34	235.04108905792236	pulse	1	t		32.0	2.5	/experiments/AOT/AOT_stimuli/rescaled_final/0228_rv.mp4	0.0	257.0646800994873	
34	235.95765709877014	fix_post	2		12	32.0	2.5	/experiments/AOT/AOT_stimuli/rescaled_final/0228_rv.mp4	0.0	257.9812481403351	0.09997200965881348
35	236.05762910842896	fix_pre	0		120	33.0	2.5	/experiments/AOT/AOT_stimuli/rescaled_final/0703_rv.mp4	0.0	258.0812201499939	1.0000369548797607
35	236.6411600112915	pulse	0	t		33.0	2.5	/experiments/AOT/AOT_stimuli/rescaled_final/0703_rv.mp4	0.0	258.66475105285645	
35	237.05766606330872	movie	1		246	33.0	2.5	/experiments/AOT/AOT_stimuli/rescaled_final/0703_rv.mp4	0.0	259.08125710487366	2.499634027481079
35	238.24119997024536	pulse	1	t		33.0	2.5	/experiments/AOT/AOT_stimuli/rescaled_final/0703_rv.mp4	0.0	260.2647910118103	
35	239.5573000907898	fix_post	2		12	33.0	2.5	/experiments/AOT/AOT_stimuli/rescaled_final/0703_rv.mp4	0.0	261.58089113235474	0.10038590431213379
36	239.65768599510193	fix_pre	0		120	34.0	2.5	/experiments/AOT/AOT_stimuli/rescaled_final/1349_rv.mp4	0.0	261.68127703666687	1.0000500679016113
36	239.84114909172058	pulse	0	t		34.0	2.5	/experiments/AOT/AOT_stimuli/rescaled_final/1349_rv.mp4	0.0	261.8647401332855	
36	240.65773606300354	movie	1		245	34.0	2.5	/experiments/AOT/AOT_stimuli/rescaled_final/1349_rv.mp4	0.0	262.6813271045685	2.499884843826294
36	241.44111895561218	pulse	1	t		34.0	2.5	/experiments/AOT/AOT_stimuli/rescaled_final/1349_rv.mp4	0.0	263.4647099971771	
36	243.0397961139679	pulse	1	t		34.0	2.5	/experiments/AOT/AOT_stimuli/rescaled_final/1349_rv.mp4	0.0	265.06338715553284	
36	243.15762090682983	fix_post	2		12	34.0	2.5	/experiments/AOT/AOT_stimuli/rescaled_final/1349_rv.mp4	0.0	265.1812119483948	0.0998830795288086
37	243.25750398635864	fix_pre	0		120	35.0	2.5	blank	1.0	265.2810950279236	1.0000419616699219
37	244.25754594802856	movie	1		300	35.0	2.5	blank	1.0	266.2811369895935	2.500082015991211
37	244.64104104042053	pulse	1	t		35.0	2.5	blank	1.0	266.6646320819855	
37	246.2410750389099	pulse	1	t		35.0	2.5	blank	1.0	268.26466608047485	
37	246.75762796401978	fix_post	2		12	35.0	2.5	blank	1.0	268.7812190055847	0.09996294975280762
38	246.85759091377258	fix_pre	0		119	36.0	2.5	/experiments/AOT/AOT_stimuli/rescaled_final/0623_rv.mp4	0.0	268.8811819553375	0.9916360378265381
38	247.84097409248352	pulse	0	t		36.0	2.5	/experiments/AOT/AOT_stimuli/rescaled_final/0623_rv.mp4	0.0	269.86456513404846	
38	247.84922695159912	movie	1		244	36.0	2.5	/experiments/AOT/AOT_stimuli/rescaled_final/0623_rv.mp4	0.0	269.87281799316406	2.508424997329712
38	249.4408609867096	pulse	1	t		36.0	2.5	/experiments/AOT/AOT_stimuli/rescaled_final/0623_rv.mp4	0.0	271.46445202827454	
38	250.35765194892883	fix_post	2		12	36.0	2.5	/experiments/AOT/AOT_stimuli/rescaled_final/0623_rv.mp4	0.0	272.3812429904938	0.09995412826538086
39	250.4576060771942	fix_pre	0		120	37.0	2.5	/experiments/AOT/AOT_stimuli/rescaled_final/0123_fw.mp4	0.0	272.48119711875916	0.9999749660491943
39	251.04100489616394	pulse	0	t		37.0	2.5	/experiments/AOT/AOT_stimuli/rescaled_final/0123_fw.mp4	0.0	273.0645959377289	
39	251.4575810432434	movie	1		243	37.0	2.5	/experiments/AOT/AOT_stimuli/rescaled_final/0123_fw.mp4	0.0	273.48117208480835	2.4994659423828125
39	252.64112091064453	pulse	1	t		37.0	2.5	/experiments/AOT/AOT_stimuli/rescaled_final/0123_fw.mp4	0.0	274.6647119522095	
39	253.95704698562622	fix_post	2		12	37.0	2.5	/experiments/AOT/AOT_stimuli/rescaled_final/0123_fw.mp4	0.0	275.98063802719116	0.10057401657104492
40	254.05762100219727	fix_pre	0		120	38.0	2.5	/experiments/AOT/AOT_stimuli/rescaled_final/0700_rv.mp4	0.0	276.0812120437622	0.9998970031738281
40	254.24106907844543	pulse	0	t		38.0	2.5	/experiments/AOT/AOT_stimuli/rescaled_final/0700_rv.mp4	0.0	276.2646601200104	
40	255.0575180053711	movie	1		245	38.0	2.5	/experiments/AOT/AOT_stimuli/rescaled_final/0700_rv.mp4	0.0	277.08110904693604	2.5000219345092773
40	255.841059923172	pulse	1	t		38.0	2.5	/experiments/AOT/AOT_stimuli/rescaled_final/0700_rv.mp4	0.0	277.86465096473694	
40	257.43943309783936	pulse	1	t		38.0	2.5	/experiments/AOT/AOT_stimuli/rescaled_final/0700_rv.mp4	0.0	279.4630241394043	
40	257.55753993988037	fix_post	2		12	38.0	2.5	/experiments/AOT/AOT_stimuli/rescaled_final/0700_rv.mp4	0.0	279.5811309814453	0.09998202323913574
41	257.6575219631195	fix_pre	0		120	39.0	2.5	/experiments/AOT/AOT_stimuli/rescaled_final/1555_fw.mp4	0.0	279.68111300468445	1.0000309944152832
41	258.6575529575348	movie	1		244	39.0	2.5	/experiments/AOT/AOT_stimuli/rescaled_final/1555_fw.mp4	0.0	280.68114399909973	2.4999589920043945
41	259.0407199859619	pulse	1	t		39.0	2.5	/experiments/AOT/AOT_stimuli/rescaled_final/1555_fw.mp4	0.0	281.06431102752686	
41	260.6410319805145	pulse	1	t		39.0	2.5	/experiments/AOT/AOT_stimuli/rescaled_final/1555_fw.mp4	0.0	282.66462302207947	
41	261.1575119495392	fix_post	2		12	39.0	2.5	/experiments/AOT/AOT_stimuli/rescaled_final/1555_fw.mp4	0.0	283.1811029911041	0.09999394416809082
42	261.2575058937073	fix_pre	0		119	40.0	2.5	/experiments/AOT/AOT_stimuli/rescaled_final/1449_fw.mp4	0.0	283.2810969352722	0.99167799949646
42	262.2410500049591	pulse	0	t		40.0	2.5	/experiments/AOT/AOT_stimuli/rescaled_final/1449_fw.mp4	0.0	284.26464104652405	
42	262.24918389320374	movie	1		248	40.0	2.5	/experiments/AOT/AOT_stimuli/rescaled_final/1449_fw.mp4	0.0	284.2727749347687	2.50803804397583
42	263.84071588516235	pulse	1	t		40.0	2.5	/experiments/AOT/AOT_stimuli/rescaled_final/1449_fw.mp4	0.0	285.8643069267273	
42	264.75722193717957	fix_post	2		12	40.0	2.5	/experiments/AOT/AOT_stimuli/rescaled_final/1449_fw.mp4	0.0	286.7808129787445	0.10040807723999023
43	264.85763001441956	fix_pre	0		120	41.0	2.5	blank	1.0	286.8812210559845	1.0001089572906494
43	265.4407260417938	pulse	0	t		41.0	2.5	blank	1.0	287.46431708335876	
43	265.8577389717102	movie	1		300	41.0	2.5	blank	1.0	287.88133001327515	2.4998250007629395
43	267.04093289375305	pulse	1	t		41.0	2.5	blank	1.0	289.064523935318	
43	268.35756397247314	fix_post	2		12	41.0	2.5	blank	1.0	290.3811550140381	0.09990596771240234
44	268.45746994018555	fix_pre	0		120	42.0	2.5	/experiments/AOT/AOT_stimuli/rescaled_final/0623_fw.mp4	0.0	290.4810609817505	0.9999699592590332
44	268.64097905158997	pulse	0	t		42.0	2.5	/experiments/AOT/AOT_stimuli/rescaled_final/0623_fw.mp4	0.0	290.6645700931549	
44	269.4574398994446	movie	1		242	42.0	2.5	/experiments/AOT/AOT_stimuli/rescaled_final/0623_fw.mp4	0.0	291.4810309410095	2.4999802112579346
44	270.2408890724182	pulse	1	t		42.0	2.5	/experiments/AOT/AOT_stimuli/rescaled_final/0623_fw.mp4	0.0	292.26448011398315	
44	271.8393108844757	pulse	1	t		42.0	2.5	/experiments/AOT/AOT_stimuli/rescaled_final/0623_fw.mp4	0.0	293.86290192604065	
44	271.9574201107025	fix_post	2		12	42.0	2.5	/experiments/AOT/AOT_stimuli/rescaled_final/0623_fw.mp4	0.0	293.98101115226746	0.10001492500305176
45	272.05743503570557	fix_pre	0		120	43.0	2.5	/experiments/AOT/AOT_stimuli/rescaled_final/0422_rv.mp4	0.0	294.0810260772705	1.0000009536743164
45	273.0574359893799	movie	1		244	43.0	2.5	/experiments/AOT/AOT_stimuli/rescaled_final/0422_rv.mp4	0.0	295.0810270309448	2.499953031539917
45	273.4415879249573	pulse	1	t		43.0	2.5	/experiments/AOT/AOT_stimuli/rescaled_final/0422_rv.mp4	0.0	295.4651789665222	
45	275.0409619808197	pulse	1	t		43.0	2.5	/experiments/AOT/AOT_stimuli/rescaled_final/0422_rv.mp4	0.0	297.06455302238464	
45	275.5573890209198	fix_post	2		12	43.0	2.5	/experiments/AOT/AOT_stimuli/rescaled_final/0422_rv.mp4	0.0	297.58098006248474	0.09998393058776855
46	275.65737295150757	fix_pre	0		119	44.0	2.5	/experiments/AOT/AOT_stimuli/rescaled_final/1708_rv.mp4	0.0	297.6809639930725	0.9917149543762207
46	276.64085507392883	pulse	0	t		44.0	2.5	/experiments/AOT/AOT_stimuli/rescaled_final/1708_rv.mp4	0.0	298.6644461154938	
46	276.6490879058838	movie	1		247	44.0	2.5	/experiments/AOT/AOT_stimuli/rescaled_final/1708_rv.mp4	0.0	298.67267894744873	2.508352041244507
46	278.2403209209442	pulse	1	t		44.0	2.5	/experiments/AOT/AOT_stimuli/rescaled_final/1708_rv.mp4	0.0	300.26391196250916	
46	279.1574399471283	fix_post	2		12	44.0	2.5	/experiments/AOT/AOT_stimuli/rescaled_final/1708_rv.mp4	0.0	301.18103098869324	0.09996294975280762
47	279.2574028968811	fix_pre	0		120	45.0	2.5	/experiments/AOT/AOT_stimuli/rescaled_final/1162_rv.mp4	0.0	301.28099393844604	0.9999561309814453
47	279.8409080505371	pulse	0	t		45.0	2.5	/experiments/AOT/AOT_stimuli/rescaled_final/1162_rv.mp4	0.0	301.86449909210205	
47	280.25735902786255	movie	1		246	45.0	2.5	/experiments/AOT/AOT_stimuli/rescaled_final/1162_rv.mp4	0.0	302.2809500694275	2.5001609325408936
47	281.4410390853882	pulse	1	t		45.0	2.5	/experiments/AOT/AOT_stimuli/rescaled_final/1162_rv.mp4	0.0	303.4646301269531	
47	282.75751996040344	fix_post	2		12	45.0	2.5	/experiments/AOT/AOT_stimuli/rescaled_final/1162_rv.mp4	0.0	304.7811110019684	0.09982895851135254
48	282.8573489189148	fix_pre	0		120	46.0	2.5	/experiments/AOT/AOT_stimuli/rescaled_final/1291_fw.mp4	0.0	304.88093996047974	1.0001530647277832
48	283.04087591171265	pulse	0	t		46.0	2.5	/experiments/AOT/AOT_stimuli/rescaled_final/1291_fw.mp4	0.0	305.0644669532776	
48	283.8575019836426	movie	1		244	46.0	2.5	/experiments/AOT/AOT_stimuli/rescaled_final/1291_fw.mp4	0.0	305.8810930252075	2.4999349117279053
48	284.6408751010895	pulse	1	t		46.0	2.5	/experiments/AOT/AOT_stimuli/rescaled_final/1291_fw.mp4	0.0	306.6644661426544	
48	286.24172496795654	pulse	1	t		46.0	2.5	/experiments/AOT/AOT_stimuli/rescaled_final/1291_fw.mp4	0.0	308.2653160095215	
48	286.3574368953705	fix_post	2		12	46.0	2.5	/experiments/AOT/AOT_stimuli/rescaled_final/1291_fw.mp4	0.0	308.3810279369354	0.09993410110473633
49	286.4573709964752	fix_pre	0		120	47.0	2.5	blank	1.0	308.48096203804016	1.0000181198120117
49	287.45738911628723	movie	1		300	47.0	2.5	blank	1.0	309.4809801578522	2.500006914138794
49	287.84089708328247	pulse	1	t		47.0	2.5	blank	1.0	309.8644881248474	
49	289.4409279823303	pulse	1	t		47.0	2.5	blank	1.0	311.46451902389526	
49	289.957396030426	fix_post	2		12	47.0	2.5	blank	1.0	311.98098707199097	0.09950494766235352
50	290.0569009780884	fix_pre	0		119	48.0	2.5	/experiments/AOT/AOT_stimuli/rescaled_final/1575_fw.mp4	0.0	312.0804920196533	0.9921219348907471
50	291.04085302352905	pulse	0	t		48.0	2.5	/experiments/AOT/AOT_stimuli/rescaled_final/1575_fw.mp4	0.0	313.064444065094	
50	291.0490229129791	movie	1		245	48.0	2.5	/experiments/AOT/AOT_stimuli/rescaled_final/1575_fw.mp4	0.0	313.07261395454407	2.5082991123199463
50	292.64019203186035	pulse	1	t		48.0	2.5	/experiments/AOT/AOT_stimuli/rescaled_final/1575_fw.mp4	0.0	314.6637830734253	
50	293.5573220252991	fix_post	2		12	48.0	2.5	/experiments/AOT/AOT_stimuli/rescaled_final/1575_fw.mp4	0.0	315.580913066864	0.10007190704345703
51	293.65739393234253	fix_pre	0		120	49.0	2.5	/experiments/AOT/AOT_stimuli/rescaled_final/1830_rv.mp4	0.0	315.68098497390747	0.9999101161956787
51	294.24083709716797	pulse	0	t		49.0	2.5	/experiments/AOT/AOT_stimuli/rescaled_final/1830_rv.mp4	0.0	316.2644281387329	
51	294.6573040485382	movie	1		244	49.0	2.5	/experiments/AOT/AOT_stimuli/rescaled_final/1830_rv.mp4	0.0	316.68089509010315	2.500041961669922
51	295.84080505371094	pulse	1	t		49.0	2.5	/experiments/AOT/AOT_stimuli/rescaled_final/1830_rv.mp4	0.0	317.8643960952759	
51	297.15734601020813	fix_post	2		12	49.0	2.5	/experiments/AOT/AOT_stimuli/rescaled_final/1830_rv.mp4	0.0	319.18093705177307	0.09987592697143555
52	297.25722193717957	fix_pre	0		120	50.0	2.5	/experiments/AOT/AOT_stimuli/rescaled_final/0174_rv.mp4	0.0	319.2808129787445	1.0000550746917725
52	297.44089698791504	pulse	0	t		50.0	2.5	/experiments/AOT/AOT_stimuli/rescaled_final/0174_rv.mp4	0.0	319.46448802948	
52	298.25727701187134	movie	1		245	50.0	2.5	/experiments/AOT/AOT_stimuli/rescaled_final/0174_rv.mp4	0.0	320.2808680534363	2.5000710487365723
52	299.0408248901367	pulse	1	t		50.0	2.5	/experiments/AOT/AOT_stimuli/rescaled_final/0174_rv.mp4	0.0	321.06441593170166	
52	300.63918709754944	pulse	1	t		50.0	2.5	/experiments/AOT/AOT_stimuli/rescaled_final/0174_rv.mp4	0.0	322.6627781391144	
52	300.7573480606079	fix_post	2		12	50.0	2.5	/experiments/AOT/AOT_stimuli/rescaled_final/0174_rv.mp4	0.0	322.78093910217285	0.09991788864135742
53	300.85726594924927	fix_pre	0		120	51.0	2.5	/experiments/AOT/AOT_stimuli/rescaled_final/1657_fw.mp4	0.0	322.8808569908142	1.0000240802764893
53	301.85729002952576	movie	1		243	51.0	2.5	/experiments/AOT/AOT_stimuli/rescaled_final/1657_fw.mp4	0.0	323.8808810710907	2.5000109672546387
53	302.24101996421814	pulse	1	t		51.0	2.5	/experiments/AOT/AOT_stimuli/rescaled_final/1657_fw.mp4	0.0	324.2646110057831	
53	303.8407380580902	pulse	1	t		51.0	2.5	/experiments/AOT/AOT_stimuli/rescaled_final/1657_fw.mp4	0.0	325.86432909965515	
53	304.3573009967804	fix_post	2		12	51.0	2.5	/experiments/AOT/AOT_stimuli/rescaled_final/1657_fw.mp4	0.0	326.38089203834534	0.10014891624450684
54	304.4574499130249	fix_pre	0		119	52.0	2.5	/experiments/AOT/AOT_stimuli/rescaled_final/1249_rv.mp4	0.0	326.48104095458984	0.9915859699249268
54	305.4408369064331	pulse	0	t		52.0	2.5	/experiments/AOT/AOT_stimuli/rescaled_final/1249_rv.mp4	0.0	327.46442794799805	
54	305.44903588294983	movie	1		248	52.0	2.5	/experiments/AOT/AOT_stimuli/rescaled_final/1249_rv.mp4	0.0	327.47262692451477	2.5082011222839355
54	307.0402510166168	pulse	1	t		52.0	2.5	/experiments/AOT/AOT_stimuli/rescaled_final/1249_rv.mp4	0.0	329.06384205818176	
54	307.95723700523376	fix_post	2		12	52.0	2.5	/experiments/AOT/AOT_stimuli/rescaled_final/1249_rv.mp4	0.0	329.9808280467987	0.1001579761505127
55	308.0573949813843	fix_pre	0		120	53.0	2.5	/experiments/AOT/AOT_stimuli/rescaled_final/1583_fw.mp4	0.0	330.0809860229492	0.9998970031738281
55	308.6407868862152	pulse	0	t		53.0	2.5	/experiments/AOT/AOT_stimuli/rescaled_final/1583_fw.mp4	0.0	330.66437792778015	
55	309.0572919845581	movie	1		244	53.0	2.5	/experiments/AOT/AOT_stimuli/rescaled_final/1583_fw.mp4	0.0	331.08088302612305	2.49995493888855
55	310.2408330440521	pulse	1	t		53.0	2.5	/experiments/AOT/AOT_stimuli/rescaled_final/1583_fw.mp4	0.0	332.26442408561707	
55	311.55724692344666	fix_post	2		12	53.0	2.5	/experiments/AOT/AOT_stimuli/rescaled_final/1583_fw.mp4	0.0	333.5808379650116	0.09996509552001953
56	311.6572120189667	fix_pre	0		120	54.0	2.5	/experiments/AOT/AOT_stimuli/rescaled_final/2042_rv.mp4	0.0	333.6808030605316	1.0000700950622559
56	311.8408169746399	pulse	0	t		54.0	2.5	/experiments/AOT/AOT_stimuli/rescaled_final/2042_rv.mp4	0.0	333.86440801620483	
56	312.65728211402893	movie	1		246	54.0	2.5	/experiments/AOT/AOT_stimuli/rescaled_final/2042_rv.mp4	0.0	334.6808731555939	2.4999279975891113
56	313.4408280849457	pulse	1	t		54.0	2.5	/experiments/AOT/AOT_stimuli/rescaled_final/2042_rv.mp4	0.0	335.4644191265106	
56	315.0402491092682	pulse	1	t		54.0	2.5	/experiments/AOT/AOT_stimuli/rescaled_final/2042_rv.mp4	0.0	337.06384015083313	
56	315.15721011161804	fix_post	2		12	54.0	2.5	/experiments/AOT/AOT_stimuli/rescaled_final/2042_rv.mp4	0.0	337.180801153183	0.09999394416809082
57	315.25720405578613	fix_pre	0		120	55.0	2.5	blank	1.0	337.2807950973511	1.0000410079956055
57	316.25724506378174	movie	1		300	55.0	2.5	blank	1.0	338.2808361053467	2.5000438690185547
57	316.64075994491577	pulse	1	t		55.0	2.5	blank	1.0	338.6643509864807	
57	318.24068808555603	pulse	1	t		55.0	2.5	blank	1.0	340.264279127121	
57	318.7572889328003	fix_post	2		12	55.0	2.5	blank	1.0	340.78087997436523	0.09995317459106445
58	318.85724210739136	fix_pre	0		119	56.0	2.5	/experiments/AOT/AOT_stimuli/rescaled_final/0904_rv.mp4	0.0	340.8808331489563	0.9912838935852051
58	319.84024691581726	pulse	0	t		56.0	2.5	/experiments/AOT/AOT_stimuli/rescaled_final/0904_rv.mp4	0.0	341.8638379573822	
58	319.84852600097656	movie	1		246	56.0	2.5	/experiments/AOT/AOT_stimuli/rescaled_final/0904_rv.mp4	0.0	341.8721170425415	2.50860595703125
58	321.44019889831543	pulse	1	t		56.0	2.5	/experiments/AOT/AOT_stimuli/rescaled_final/0904_rv.mp4	0.0	343.46378993988037	
58	322.3571319580078	fix_post	2		12	56.0	2.5	/experiments/AOT/AOT_stimuli/rescaled_final/0904_rv.mp4	0.0	344.38072299957275	0.09997296333312988
59	322.45710492134094	fix_pre	0		120	57.0	2.5	/experiments/AOT/AOT_stimuli/rescaled_final/1452_rv.mp4	0.0	344.4806959629059	1.0001220703125
59	323.040766954422	pulse	0	t		57.0	2.5	/experiments/AOT/AOT_stimuli/rescaled_final/1452_rv.mp4	0.0	345.06435799598694	
59	323.45722699165344	movie	1		245	57.0	2.5	/experiments/AOT/AOT_stimuli/rescaled_final/1452_rv.mp4	0.0	345.4808180332184	2.499897003173828
59	324.64070200920105	pulse	1	t		57.0	2.5	/experiments/AOT/AOT_stimuli/rescaled_final/1452_rv.mp4	0.0	346.664293050766	
59	325.95712399482727	fix_post	2		12	57.0	2.5	/experiments/AOT/AOT_stimuli/rescaled_final/1452_rv.mp4	0.0	347.9807150363922	0.10007810592651367
60	326.0572021007538	fix_pre	0		120	58.0	2.5	/experiments/AOT/AOT_stimuli/rescaled_final/2099_fw.mp4	0.0	348.0807931423187	1.000020980834961
60	326.24071192741394	pulse	0	t		58.0	2.5	/experiments/AOT/AOT_stimuli/rescaled_final/2099_fw.mp4	0.0	348.2643029689789	
60	327.05722308158875	movie	1		246	58.0	2.5	/experiments/AOT/AOT_stimuli/rescaled_final/2099_fw.mp4	0.0	349.0808141231537	2.5000689029693604
60	327.8405499458313	pulse	1	t		58.0	2.5	/experiments/AOT/AOT_stimuli/rescaled_final/2099_fw.mp4	0.0	349.86414098739624	
60	329.43922305107117	pulse	1	t		58.0	2.5	/experiments/AOT/AOT_stimuli/rescaled_final/2099_fw.mp4	0.0	351.4628140926361	
60	329.5572919845581	fix_post	2		12	58.0	2.5	/experiments/AOT/AOT_stimuli/rescaled_final/2099_fw.mp4	0.0	351.58088302612305	0.09982991218566895
61	329.6571218967438	fix_pre	0		120	59.0	2.5	/experiments/AOT/AOT_stimuli/rescaled_final/1583_rv.mp4	0.0	351.6807129383087	1.0000581741333008
61	330.6571800708771	movie	1		245	59.0	2.5	/experiments/AOT/AOT_stimuli/rescaled_final/1583_rv.mp4	0.0	352.680771112442	2.50002384185791
61	331.04023003578186	pulse	1	t		59.0	2.5	/experiments/AOT/AOT_stimuli/rescaled_final/1583_rv.mp4	0.0	353.0638210773468	
61	332.6405580043793	pulse	1	t		59.0	2.5	/experiments/AOT/AOT_stimuli/rescaled_final/1583_rv.mp4	0.0	354.6641490459442	
61	333.157203912735	fix_post	2		12	59.0	2.5	/experiments/AOT/AOT_stimuli/rescaled_final/1583_rv.mp4	0.0	355.1807949542999	0.09999299049377441
62	333.25719690322876	fix_pre	0		119	60.0	2.5	/experiments/AOT/AOT_stimuli/rescaled_final/0436_fw.mp4	0.0	355.2807879447937	0.9915411472320557
62	334.2405560016632	pulse	0	t		60.0	2.5	/experiments/AOT/AOT_stimuli/rescaled_final/0436_fw.mp4	0.0	356.26414704322815	
62	334.2487380504608	movie	1		245	60.0	2.5	/experiments/AOT/AOT_stimuli/rescaled_final/0436_fw.mp4	0.0	356.27232909202576	2.5083930492401123
62	335.84010195732117	pulse	1	t		60.0	2.5	/experiments/AOT/AOT_stimuli/rescaled_final/0436_fw.mp4	0.0	357.8636929988861	
62	336.7571310997009	fix_post	2		12	60.0	2.5	/experiments/AOT/AOT_stimuli/rescaled_final/0436_fw.mp4	0.0	358.78072214126587	0.09998488426208496
63	336.857115983963	fix_pre	0		120	61.0	2.5	/experiments/AOT/AOT_stimuli/rescaled_final/0710_fw.mp4	0.0	358.88070702552795	1.0000441074371338
63	337.4405620098114	pulse	0	t		61.0	2.5	/experiments/AOT/AOT_stimuli/rescaled_final/0710_fw.mp4	0.0	359.46415305137634	
63	337.85716009140015	movie	1		244	61.0	2.5	/experiments/AOT/AOT_stimuli/rescaled_final/0710_fw.mp4	0.0	359.8807511329651	2.4999048709869385
63	339.0407040119171	pulse	1	t		61.0	2.5	/experiments/AOT/AOT_stimuli/rescaled_final/0710_fw.mp4	0.0	361.06429505348206	
63	340.3570649623871	fix_post	2		12	61.0	2.5	/experiments/AOT/AOT_stimuli/rescaled_final/0710_fw.mp4	0.0	362.380656003952	0.10012006759643555
64	340.4571850299835	fix_pre	0		120	62.0	2.5	/experiments/AOT/AOT_stimuli/rescaled_final/0074_rv.mp4	0.0	362.48077607154846	0.9999880790710449
64	340.6406900882721	pulse	0	t		62.0	2.5	/experiments/AOT/AOT_stimuli/rescaled_final/0074_rv.mp4	0.0	362.66428112983704	
64	341.45717310905457	movie	1		245	62.0	2.5	/experiments/AOT/AOT_stimuli/rescaled_final/0074_rv.mp4	0.0	363.4807641506195	2.4999477863311768
64	342.24066400527954	pulse	1	t		62.0	2.5	/experiments/AOT/AOT_stimuli/rescaled_final/0074_rv.mp4	0.0	364.2642550468445	
64	343.8405900001526	pulse	1	t		62.0	2.5	/experiments/AOT/AOT_stimuli/rescaled_final/0074_rv.mp4	0.0	365.86418104171753	
64	343.95712089538574	fix_post	2		12	62.0	2.5	/experiments/AOT/AOT_stimuli/rescaled_final/0074_rv.mp4	0.0	365.9807119369507	0.09991216659545898
65	344.0570330619812	fix_pre	0		120	63.0	2.5	blank	1.0	366.08062410354614	1.0000228881835938
65	345.0570559501648	movie	1		300	63.0	2.5	blank	1.0	367.08064699172974	2.4999711513519287
65	345.4408030509949	pulse	1	t		63.0	2.5	blank	1.0	367.4643940925598	
65	347.04051303863525	pulse	1	t		63.0	2.5	blank	1.0	369.0641040802002	
65	347.5570271015167	fix_post	2		12	63.0	2.5	blank	1.0	369.58061814308167	0.09999585151672363
66	347.65702295303345	fix_pre	0		119	64.0	2.5	/experiments/AOT/AOT_stimuli/rescaled_final/1228_rv.mp4	0.0	369.6806139945984	0.9917130470275879
66	348.6405220031738	pulse	0	t		64.0	2.5	/experiments/AOT/AOT_stimuli/rescaled_final/1228_rv.mp4	0.0	370.66411304473877	
66	348.64873600006104	movie	1		246	64.0	2.5	/experiments/AOT/AOT_stimuli/rescaled_final/1228_rv.mp4	0.0	370.672327041626	2.5082991123199463
66	350.2417058944702	pulse	1	t		64.0	2.5	/experiments/AOT/AOT_stimuli/rescaled_final/1228_rv.mp4	0.0	372.26529693603516	
66	351.157035112381	fix_post	2		12	64.0	2.5	/experiments/AOT/AOT_stimuli/rescaled_final/1228_rv.mp4	0.0	373.1806261539459	0.10008382797241211
67	351.2571189403534	fix_pre	0		120	65.0	2.5	/experiments/AOT/AOT_stimuli/rescaled_final/1872_fw.mp4	0.0	373.28070998191833	0.9999160766601562
67	351.8406319618225	pulse	0	t		65.0	2.5	/experiments/AOT/AOT_stimuli/rescaled_final/1872_fw.mp4	0.0	373.86422300338745	
67	352.25703501701355	movie	1		244	65.0	2.5	/experiments/AOT/AOT_stimuli/rescaled_final/1872_fw.mp4	0.0	374.2806260585785	2.4999730587005615
67	353.4405469894409	pulse	1	t		65.0	2.5	/experiments/AOT/AOT_stimuli/rescaled_final/1872_fw.mp4	0.0	375.46413803100586	
67	354.7570080757141	fix_post	2		12	65.0	2.5	/experiments/AOT/AOT_stimuli/rescaled_final/1872_fw.mp4	0.0	376.78059911727905	0.09992599487304688
68	354.85693407058716	fix_pre	0		120	66.0	2.5	/experiments/AOT/AOT_stimuli/rescaled_final/1896_fw.mp4	0.0	376.8805251121521	1.0001459121704102
68	355.0404860973358	pulse	0	t		66.0	2.5	/experiments/AOT/AOT_stimuli/rescaled_final/1896_fw.mp4	0.0	377.06407713890076	
68	355.85707998275757	movie	1		245	66.0	2.5	/experiments/AOT/AOT_stimuli/rescaled_final/1896_fw.mp4	0.0	377.8806710243225	2.4999871253967285
68	356.6404960155487	pulse	1	t		66.0	2.5	/experiments/AOT/AOT_stimuli/rescaled_final/1896_fw.mp4	0.0	378.66408705711365	
68	358.23905205726624	pulse	1	t		66.0	2.5	/experiments/AOT/AOT_stimuli/rescaled_final/1896_fw.mp4	0.0	380.2626430988312	
68	358.3570671081543	fix_post	2		12	66.0	2.5	/experiments/AOT/AOT_stimuli/rescaled_final/1896_fw.mp4	0.0	380.38065814971924	0.1000068187713623
69	358.45707392692566	fix_pre	0		120	67.0	2.5	/experiments/AOT/AOT_stimuli/rescaled_final/0579_rv.mp4	0.0	380.4806649684906	1.0000121593475342
69	359.4570860862732	movie	1		243	67.0	2.5	/experiments/AOT/AOT_stimuli/rescaled_final/0579_rv.mp4	0.0	381.48067712783813	2.5000009536743164
69	359.8401610851288	pulse	1	t		67.0	2.5	/experiments/AOT/AOT_stimuli/rescaled_final/0579_rv.mp4	0.0	381.8637521266937	
69	361.44051790237427	pulse	1	t		67.0	2.5	/experiments/AOT/AOT_stimuli/rescaled_final/0579_rv.mp4	0.0	383.4641089439392	
69	361.9570870399475	fix_post	2		12	67.0	2.5	/experiments/AOT/AOT_stimuli/rescaled_final/0579_rv.mp4	0.0	383.98067808151245	0.0999288558959961
70	362.0570158958435	fix_pre	0		119	68.0	2.5	/experiments/AOT/AOT_stimuli/rescaled_final/1938_rv.mp4	0.0	384.08060693740845	0.9916481971740723
70	363.0405089855194	pulse	0	t		68.0	2.5	/experiments/AOT/AOT_stimuli/rescaled_final/1938_rv.mp4	0.0	385.06410002708435	
70	363.0486640930176	movie	1		245	68.0	2.5	/experiments/AOT/AOT_stimuli/rescaled_final/1938_rv.mp4	0.0	385.0722551345825	2.508356809616089
70	364.64068603515625	pulse	1	t		68.0	2.5	/experiments/AOT/AOT_stimuli/rescaled_final/1938_rv.mp4	0.0	386.6642770767212	
70	365.55702090263367	fix_post	2		12	68.0	2.5	/experiments/AOT/AOT_stimuli/rescaled_final/1938_rv.mp4	0.0	387.5806119441986	0.09996318817138672
71	365.65698409080505	fix_pre	0		120	69.0	2.5	/experiments/AOT/AOT_stimuli/rescaled_final/1559_rv.mp4	0.0	387.68057513237	1.0000629425048828
71	366.24033403396606	pulse	0	t		69.0	2.5	/experiments/AOT/AOT_stimuli/rescaled_final/1559_rv.mp4	0.0	388.263925075531	
71	366.65704703330994	movie	1		243	69.0	2.5	/experiments/AOT/AOT_stimuli/rescaled_final/1559_rv.mp4	0.0	388.6806380748749	2.499885082244873
71	367.8404309749603	pulse	1	t		69.0	2.5	/experiments/AOT/AOT_stimuli/rescaled_final/1559_rv.mp4	0.0	389.86402201652527	
71	369.1569321155548	fix_post	2		12	69.0	2.5	/experiments/AOT/AOT_stimuli/rescaled_final/1559_rv.mp4	0.0	391.18052315711975	0.10005998611450195
72	369.2569921016693	fix_pre	0		120	70.0	2.5	blank	1.0	391.28058314323425	0.9999549388885498
72	369.4404089450836	pulse	0	t		70.0	2.5	blank	1.0	391.46399998664856	
72	370.25694704055786	movie	1		300	70.0	2.5	blank	1.0	392.2805380821228	2.500014066696167
72	371.0404770374298	pulse	1	t		70.0	2.5	blank	1.0	393.06406807899475	
72	372.6403269767761	pulse	1	t		70.0	2.5	blank	1.0	394.66391801834106	
72	372.756961107254	fix_post	2		12	70.0	2.5	blank	1.0	394.78055214881897	0.10006189346313477
73	372.85702300071716	fix_pre	0		120	71.0	2.5	/experiments/AOT/AOT_stimuli/rescaled_final/2030_fw.mp4	0.0	394.8806140422821	0.9999699592590332
73	373.8569929599762	movie	1		244	71.0	2.5	/experiments/AOT/AOT_stimuli/rescaled_final/2030_fw.mp4	0.0	395.88058400154114	2.499948024749756
73	374.2406690120697	pulse	1	t		71.0	2.5	/experiments/AOT/AOT_stimuli/rescaled_final/2030_fw.mp4	0.0	396.26426005363464	
73	375.8399839401245	pulse	1	t		71.0	2.5	/experiments/AOT/AOT_stimuli/rescaled_final/2030_fw.mp4	0.0	397.86357498168945	
73	376.35694098472595	fix_post	2		12	71.0	2.5	/experiments/AOT/AOT_stimuli/rescaled_final/2030_fw.mp4	0.0	398.3805320262909	0.09966611862182617
74	376.4566071033478	fix_pre	0		119	72.0	2.5	/experiments/AOT/AOT_stimuli/rescaled_final/0327_fw.mp4	0.0	398.4801981449127	0.992210865020752
74	377.44064807891846	pulse	0	t		72.0	2.5	/experiments/AOT/AOT_stimuli/rescaled_final/0327_fw.mp4	0.0	399.4642391204834	
74	377.44881796836853	movie	1		245	72.0	2.5	/experiments/AOT/AOT_stimuli/rescaled_final/0327_fw.mp4	0.0	399.4724090099335	2.5080931186676025
74	379.03975105285645	pulse	1	t		72.0	2.5	/experiments/AOT/AOT_stimuli/rescaled_final/0327_fw.mp4	0.0	401.0633420944214	
74	379.95691108703613	fix_post	2		12	72.0	2.5	/experiments/AOT/AOT_stimuli/rescaled_final/0327_fw.mp4	0.0	401.9805021286011	0.10001182556152344
75	380.05692291259766	fix_pre	0		120	73.0	2.5	/experiments/AOT/AOT_stimuli/rescaled_final/1294_fw.mp4	0.0	402.0805139541626	1.0000519752502441
75	380.6403880119324	pulse	0	t		73.0	2.5	/experiments/AOT/AOT_stimuli/rescaled_final/1294_fw.mp4	0.0	402.6639790534973	
75	381.0569748878479	movie	1		243	73.0	2.5	/experiments/AOT/AOT_stimuli/rescaled_final/1294_fw.mp4	0.0	403.08056592941284	2.49991512298584
75	382.2404479980469	pulse	1	t		73.0	2.5	/experiments/AOT/AOT_stimuli/rescaled_final/1294_fw.mp4	0.0	404.2640390396118	
75	383.55689001083374	fix_post	2		12	73.0	2.5	/experiments/AOT/AOT_stimuli/rescaled_final/1294_fw.mp4	0.0	405.5804810523987	0.09996795654296875
76	383.6568579673767	fix_pre	0		120	74.0	2.5	/experiments/AOT/AOT_stimuli/rescaled_final/1833_fw.mp4	0.0	405.68044900894165	0.9999909400939941
76	383.8403170108795	pulse	0	t		74.0	2.5	/experiments/AOT/AOT_stimuli/rescaled_final/1833_fw.mp4	0.0	405.86390805244446	
76	384.6568489074707	movie	1		243	74.0	2.5	/experiments/AOT/AOT_stimuli/rescaled_final/1833_fw.mp4	0.0	406.68043994903564	2.500096082687378
76	385.4403018951416	pulse	1	t		74.0	2.5	/experiments/AOT/AOT_stimuli/rescaled_final/1833_fw.mp4	0.0	407.46389293670654	
76	387.0487608909607	pulse	1	t		74.0	2.5	/experiments/AOT/AOT_stimuli/rescaled_final/1833_fw.mp4	0.0	409.07235193252563	
76	387.1569449901581	fix_post	2		12	74.0	2.5	/experiments/AOT/AOT_stimuli/rescaled_final/1833_fw.mp4	0.0	409.180536031723	0.0999300479888916
77	387.256875038147	fix_pre	0		120	75.0	2.5	/experiments/AOT/AOT_stimuli/rescaled_final/0307_rv.mp4	0.0	409.2804660797119	0.9999940395355225
77	388.2568690776825	movie	1		243	75.0	2.5	/experiments/AOT/AOT_stimuli/rescaled_final/0307_rv.mp4	0.0	410.28046011924744	2.499924898147583
77	388.6398470401764	pulse	1	t		75.0	2.5	/experiments/AOT/AOT_stimuli/rescaled_final/0307_rv.mp4	0.0	410.66343808174133	
77	390.24028491973877	pulse	1	t		75.0	2.5	/experiments/AOT/AOT_stimuli/rescaled_final/0307_rv.mp4	0.0	412.2638759613037	
77	390.7567939758301	fix_post	2		12	75.0	2.5	/experiments/AOT/AOT_stimuli/rescaled_final/0307_rv.mp4	0.0	412.780385017395	0.10007190704345703
78	390.85686588287354	fix_pre	0		119	76.0	2.5	/experiments/AOT/AOT_stimuli/rescaled_final/1521_rv.mp4	0.0	412.8804569244385	0.9917030334472656
78	391.84028792381287	pulse	0	t		76.0	2.5	/experiments/AOT/AOT_stimuli/rescaled_final/1521_rv.mp4	0.0	413.8638789653778	
78	391.8485689163208	movie	1		247	76.0	2.5	/experiments/AOT/AOT_stimuli/rescaled_final/1521_rv.mp4	0.0	413.87215995788574	2.5083210468292236
78	393.4400498867035	pulse	1	t		76.0	2.5	/experiments/AOT/AOT_stimuli/rescaled_final/1521_rv.mp4	0.0	415.46364092826843	
78	394.35688996315	fix_post	2		12	76.0	2.5	/experiments/AOT/AOT_stimuli/rescaled_final/1521_rv.mp4	0.0	416.38048100471497	0.09991097450256348
79	394.4568009376526	fix_pre	0		120	77.0	2.5	blank	1.0	416.48039197921753	1.0001130104064941
79	395.0402970314026	pulse	0	t		77.0	2.5	blank	1.0	417.06388807296753	
79	395.4569139480591	movie	1		300	77.0	2.5	blank	1.0	417.480504989624	2.499925136566162
79	396.64034605026245	pulse	1	t		77.0	2.5	blank	1.0	418.6639370918274	
79	397.95683908462524	fix_post	2		12	77.0	2.5	blank	1.0	419.9804301261902	0.1000819206237793
80	398.056921005249	fix_pre	0		120	78.0	2.5	/experiments/AOT/AOT_stimuli/rescaled_final/0408_fw.mp4	0.0	420.08051204681396	0.9999220371246338
80	398.2403268814087	pulse	0	t		78.0	2.5	/experiments/AOT/AOT_stimuli/rescaled_final/0408_fw.mp4	0.0	420.26391792297363	
80	399.05684304237366	movie	1		244	78.0	2.5	/experiments/AOT/AOT_stimuli/rescaled_final/0408_fw.mp4	0.0	421.0804340839386	2.49953293800354
80	399.8403089046478	pulse	1	t		78.0	2.5	/experiments/AOT/AOT_stimuli/rescaled_final/0408_fw.mp4	0.0	421.86389994621277	
80	401.4486720561981	pulse	1	t		78.0	2.5	/experiments/AOT/AOT_stimuli/rescaled_final/0408_fw.mp4	0.0	423.47226309776306	
80	401.5563759803772	fix_post	2		12	78.0	2.5	/experiments/AOT/AOT_stimuli/rescaled_final/0408_fw.mp4	0.0	423.57996702194214	0.1003720760345459
81	401.65674805641174	fix_pre	0		120	79.0	2.5	/experiments/AOT/AOT_stimuli/rescaled_final/0108_fw.mp4	0.0	423.6803390979767	1.0000579357147217
81	402.65680599212646	movie	1		249	79.0	2.5	/experiments/AOT/AOT_stimuli/rescaled_final/0108_fw.mp4	0.0	424.6803970336914	2.500049114227295
81	403.04004096984863	pulse	1	t		79.0	2.5	/experiments/AOT/AOT_stimuli/rescaled_final/0108_fw.mp4	0.0	425.0636320114136	
81	404.6402630805969	pulse	1	t		79.0	2.5	/experiments/AOT/AOT_stimuli/rescaled_final/0108_fw.mp4	0.0	426.66385412216187	
81	405.15685510635376	fix_post	2		12	79.0	2.5	/experiments/AOT/AOT_stimuli/rescaled_final/0108_fw.mp4	0.0	427.1804461479187	0.09992194175720215
82	405.25677704811096	fix_pre	0		119	80.0	2.5	/experiments/AOT/AOT_stimuli/rescaled_final/1350_rv.mp4	0.0	427.2803680896759	0.9917328357696533
82	406.2402648925781	pulse	0	t		80.0	2.5	/experiments/AOT/AOT_stimuli/rescaled_final/1350_rv.mp4	0.0	428.26385593414307	
82	406.2485098838806	movie	1		245	80.0	2.5	/experiments/AOT/AOT_stimuli/rescaled_final/1350_rv.mp4	0.0	428.27210092544556	2.5082130432128906
82	407.839791059494	pulse	1	t		80.0	2.5	/experiments/AOT/AOT_stimuli/rescaled_final/1350_rv.mp4	0.0	429.86338210105896	
82	408.7567229270935	fix_post	2		12	80.0	2.5	/experiments/AOT/AOT_stimuli/rescaled_final/1350_rv.mp4	0.0	430.78031396865845	0.10004496574401855
83	408.8567678928375	fix_pre	0		120	81.0	2.5	/experiments/AOT/AOT_stimuli/rescaled_final/1073_fw.mp4	0.0	430.88035893440247	0.999549150466919
83	409.44024109840393	pulse	0	t		81.0	2.5	/experiments/AOT/AOT_stimuli/rescaled_final/1073_fw.mp4	0.0	431.4638321399689	
83	409.85631704330444	movie	1		243	81.0	2.5	/experiments/AOT/AOT_stimuli/rescaled_final/1073_fw.mp4	0.0	431.8799080848694	2.500393867492676
83	411.0404989719391	pulse	1	t		81.0	2.5	/experiments/AOT/AOT_stimuli/rescaled_final/1073_fw.mp4	0.0	433.064090013504	
83	412.3567109107971	fix_post	2		12	81.0	2.5	/experiments/AOT/AOT_stimuli/rescaled_final/1073_fw.mp4	0.0	434.38030195236206	0.10000419616699219
84	412.4567151069641	fix_pre	0		120	82.0	2.5	/experiments/AOT/AOT_stimuli/rescaled_final/1106_fw.mp4	0.0	434.48030614852905	1.000018835067749
84	412.6401870250702	pulse	0	t		82.0	2.5	/experiments/AOT/AOT_stimuli/rescaled_final/1106_fw.mp4	0.0	434.66377806663513	
84	413.45673394203186	movie	1		244	82.0	2.5	/experiments/AOT/AOT_stimuli/rescaled_final/1106_fw.mp4	0.0	435.4803249835968	2.5000741481781006
84	414.24020195007324	pulse	1	t		82.0	2.5	/experiments/AOT/AOT_stimuli/rescaled_final/1106_fw.mp4	0.0	436.2637929916382	
84	415.8486580848694	pulse	1	t		82.0	2.5	/experiments/AOT/AOT_stimuli/rescaled_final/1106_fw.mp4	0.0	437.8722491264343	
84	415.95680809020996	fix_post	2		12	82.0	2.5	/experiments/AOT/AOT_stimuli/rescaled_final/1106_fw.mp4	0.0	437.9803991317749	0.09999489784240723
85	416.05680298805237	fix_pre	0		120	83.0	2.5	blank	1.0	438.0803940296173	0.9999189376831055
85	417.0567219257355	movie	1		300	83.0	2.5	blank	1.0	439.0803129673004	2.4999451637268066
85	417.4404180049896	pulse	1	t		83.0	2.5	blank	1.0	439.46400904655457	
85	419.0401260852814	pulse	1	t		83.0	2.5	blank	1.0	441.0637171268463	
85	419.5566670894623	fix_post	2		12	83.0	2.5	blank	1.0	441.5802581310272	0.09976696968078613
87	419.65643405914307	stim	0		1716					441.680025100708	14.300155878067017
87	420.64012598991394	pulse	0	t						442.6637170314789	
87	422.24014806747437	pulse	0	t						444.2637391090393	
87	423.84008502960205	pulse	0	t						445.863676071167	
87	425.4400930404663	pulse	0	t						447.46368408203125	
87	427.04020595550537	pulse	0	t						449.0637969970703	
87	428.6401970386505	pulse	0	t						450.66378808021545	
87	430.2401270866394	pulse	0	t						452.26371812820435	
87	431.83979892730713	pulse	0	t						453.86338996887207	
87	433.4403278827667	pulse	0	t						455.46391892433167	
