trial_nr	onset	event_type	phase	response	nr_frames	movie_index	movie_duration	movie_file	blank	onset_abs	duration
0	0.19993996620178223	stim	0		1617					31.241348028182983	13.476930141448975
0	13.668751955032349	response	0	space						44.71016001701355	
1	13.676870107650757	stim	0		4554					44.71827816963196	37.964608907699585
1	51.631507873535156	pulse	0	t						82.67291593551636	
1	51.64147901535034	stim	1		1715					82.68288707733154	14.301538944244385
1	53.224541902542114	pulse	1	t						84.26594996452332	
1	54.824897050857544	pulse	1	t						85.86630511283875	
1	56.425111055374146	pulse	1	t						87.46651911735535	
1	58.025343894958496	pulse	1	t						89.0667519569397	
1	59.62553405761719	pulse	1	t						90.66694211959839	
1	61.22579002380371	pulse	1	t						92.26719808578491	
1	62.826032876968384	pulse	1	t						93.86744093894958	
1	64.42627191543579	pulse	1	t						95.46767997741699	
2	65.94301795959473	fix_pre	0		11	0.0	2.5	/experiments/knapen_AOT/AOT_stimuli/rescaled_final/0444_fw.mp4	0.0	96.98442602157593	0.09165191650390625
2	66.02646803855896	pulse	0	t		0.0	2.5	/experiments/knapen_AOT/AOT_stimuli/rescaled_final/0444_fw.mp4	0.0	97.06787610054016	
2	66.03466987609863	movie	1		245	0.0	2.5	/experiments/knapen_AOT/AOT_stimuli/rescaled_final/0444_fw.mp4	0.0	97.07607793807983	2.5086820125579834
2	67.62730097770691	pulse	1	t		0.0	2.5	/experiments/knapen_AOT/AOT_stimuli/rescaled_final/0444_fw.mp4	0.0	98.66870903968811	
2	68.54335188865662	fix_post	2		12	0.0	2.5	/experiments/knapen_AOT/AOT_stimuli/rescaled_final/0444_fw.mp4	0.0	99.58475995063782	0.10003304481506348
3	68.64338493347168	fix_pre	0		120	1.0	2.5	/experiments/knapen_AOT/AOT_stimuli/rescaled_final/0752_fw.mp4	0.0	99.68479299545288	1.0001139640808105
3	69.2271180152893	pulse	0	t		1.0	2.5	/experiments/knapen_AOT/AOT_stimuli/rescaled_final/0752_fw.mp4	0.0	100.26852607727051	
3	69.64349889755249	movie	1		246	1.0	2.5	/experiments/knapen_AOT/AOT_stimuli/rescaled_final/0752_fw.mp4	0.0	100.68490695953369	2.5003671646118164
3	70.82372498512268	pulse	1	t		1.0	2.5	/experiments/knapen_AOT/AOT_stimuli/rescaled_final/0752_fw.mp4	0.0	101.86513304710388	
3	72.1438660621643	fix_post	2		12	1.0	2.5	/experiments/knapen_AOT/AOT_stimuli/rescaled_final/0752_fw.mp4	0.0	103.18527412414551	0.09999895095825195
4	72.24386501312256	fix_pre	0		120	2.0	2.5	/experiments/knapen_AOT/AOT_stimuli/rescaled_final/0085_rv.mp4	0.0	103.28527307510376	1.0001459121704102
4	72.4274480342865	pulse	0	t		2.0	2.5	/experiments/knapen_AOT/AOT_stimuli/rescaled_final/0085_rv.mp4	0.0	103.4688560962677	
4	73.24401092529297	movie	1		245	2.0	2.5	/experiments/knapen_AOT/AOT_stimuli/rescaled_final/0085_rv.mp4	0.0	104.28541898727417	2.5004069805145264
4	74.02772188186646	pulse	1	t		2.0	2.5	/experiments/knapen_AOT/AOT_stimuli/rescaled_final/0085_rv.mp4	0.0	105.06912994384766	
4	75.62800788879395	pulse	1	t		2.0	2.5	/experiments/knapen_AOT/AOT_stimuli/rescaled_final/0085_rv.mp4	0.0	106.66941595077515	
4	75.7444179058075	fix_post	2		12	2.0	2.5	/experiments/knapen_AOT/AOT_stimuli/rescaled_final/0085_rv.mp4	0.0	106.7858259677887	0.10000801086425781
5	75.84442591667175	fix_pre	0		120	3.0	2.5	/experiments/knapen_AOT/AOT_stimuli/rescaled_final/0865_fw.mp4	0.0	106.88583397865295	1.0001301765441895
5	76.84455609321594	movie	1		243	3.0	2.5	/experiments/knapen_AOT/AOT_stimuli/rescaled_final/0865_fw.mp4	0.0	107.88596415519714	2.492177963256836
5	77.22876501083374	pulse	1	t		3.0	2.5	/experiments/knapen_AOT/AOT_stimuli/rescaled_final/0865_fw.mp4	0.0	108.27017307281494	
5	78.8284420967102	pulse	1	t		3.0	2.5	/experiments/knapen_AOT/AOT_stimuli/rescaled_final/0865_fw.mp4	0.0	109.8698501586914	
5	79.33673405647278	fix_post	2		12	3.0	2.5	/experiments/knapen_AOT/AOT_stimuli/rescaled_final/0865_fw.mp4	0.0	110.37814211845398	0.09989500045776367
6	79.43662905693054	fix_pre	0		120	4.0	2.5	/experiments/knapen_AOT/AOT_stimuli/rescaled_final/0332_rv.mp4	0.0	110.47803711891174	1.0001559257507324
6	80.4287359714508	pulse	0	t		4.0	2.5	/experiments/knapen_AOT/AOT_stimuli/rescaled_final/0332_rv.mp4	0.0	111.470144033432	
6	80.43678498268127	movie	1		249	4.0	2.5	/experiments/knapen_AOT/AOT_stimuli/rescaled_final/0332_rv.mp4	0.0	111.47819304466248	2.5086989402770996
6	82.02969288825989	pulse	1	t		4.0	2.5	/experiments/knapen_AOT/AOT_stimuli/rescaled_final/0332_rv.mp4	0.0	113.07110095024109	
6	82.94548392295837	fix_post	2		12	4.0	2.5	/experiments/knapen_AOT/AOT_stimuli/rescaled_final/0332_rv.mp4	0.0	113.98689198493958	0.10003995895385742
7	83.04552388191223	fix_pre	0		120	5.0	2.5	/experiments/knapen_AOT/AOT_stimuli/rescaled_final/0940_rv.mp4	0.0	114.08693194389343	1.0001640319824219
7	83.62162399291992	pulse	0	t		5.0	2.5	/experiments/knapen_AOT/AOT_stimuli/rescaled_final/0940_rv.mp4	0.0	114.66303205490112	
7	84.04568791389465	movie	1		244	5.0	2.5	/experiments/knapen_AOT/AOT_stimuli/rescaled_final/0940_rv.mp4	0.0	115.08709597587585	2.5003390312194824
7	85.22954297065735	pulse	1	t		5.0	2.5	/experiments/knapen_AOT/AOT_stimuli/rescaled_final/0940_rv.mp4	0.0	116.27095103263855	
7	86.54602694511414	fix_post	2		12	5.0	2.5	/experiments/knapen_AOT/AOT_stimuli/rescaled_final/0940_rv.mp4	0.0	117.58743500709534	0.10001993179321289
8	86.64604687690735	fix_pre	0		120	6.0	2.5	/experiments/knapen_AOT/AOT_stimuli/rescaled_final/1970_fw.mp4	0.0	117.68745493888855	1.0001590251922607
8	86.82214593887329	pulse	0	t		6.0	2.5	/experiments/knapen_AOT/AOT_stimuli/rescaled_final/1970_fw.mp4	0.0	117.86355400085449	
8	87.64620590209961	movie	1		242	6.0	2.5	/experiments/knapen_AOT/AOT_stimuli/rescaled_final/1970_fw.mp4	0.0	118.68761396408081	2.5003421306610107
8	88.42234706878662	pulse	1	t		6.0	2.5	/experiments/knapen_AOT/AOT_stimuli/rescaled_final/1970_fw.mp4	0.0	119.46375513076782	
8	90.02174997329712	pulse	1	t		6.0	2.5	/experiments/knapen_AOT/AOT_stimuli/rescaled_final/1970_fw.mp4	0.0	121.06315803527832	
8	90.14654803276062	fix_post	2		12	6.0	2.5	/experiments/knapen_AOT/AOT_stimuli/rescaled_final/1970_fw.mp4	0.0	121.18795609474182	0.10006904602050781
9	90.24661707878113	fix_pre	0		120	7.0	2.5	blank	1.0	121.28802514076233	1.0001018047332764
9	91.2467188835144	movie	1		299	7.0	2.5	blank	1.0	122.2881269454956	2.492096185684204
9	91.6219379901886	pulse	1	t		7.0	2.5	blank	1.0	122.6633460521698	
9	93.22238087654114	pulse	1	t		7.0	2.5	blank	1.0	124.26378893852234	
9	93.73881506919861	fix_post	2		12	7.0	2.5	blank	1.0	124.78022313117981	0.0999598503112793
10	93.83877491950989	fix_pre	0		119	8.0	2.5	/experiments/knapen_AOT/AOT_stimuli/rescaled_final/0166_rv.mp4	0.0	124.88018298149109	0.9918291568756104
10	94.82246398925781	pulse	0	t		8.0	2.5	/experiments/knapen_AOT/AOT_stimuli/rescaled_final/0166_rv.mp4	0.0	125.86387205123901	
10	94.8306040763855	movie	1		245	8.0	2.5	/experiments/knapen_AOT/AOT_stimuli/rescaled_final/0166_rv.mp4	0.0	125.8720121383667	2.5088248252868652
10	96.42344188690186	pulse	1	t		8.0	2.5	/experiments/knapen_AOT/AOT_stimuli/rescaled_final/0166_rv.mp4	0.0	127.46484994888306	
10	97.33942890167236	fix_post	2		12	8.0	2.5	/experiments/knapen_AOT/AOT_stimuli/rescaled_final/0166_rv.mp4	0.0	128.38083696365356	0.09989500045776367
11	97.43932390213013	fix_pre	0		120	9.0	2.5	/experiments/knapen_AOT/AOT_stimuli/rescaled_final/2159_fw.mp4	0.0	128.48073196411133	1.0001471042633057
11	98.02290511131287	pulse	0	t		9.0	2.5	/experiments/knapen_AOT/AOT_stimuli/rescaled_final/2159_fw.mp4	0.0	129.06431317329407	
11	98.43947100639343	movie	1		244	9.0	2.5	/experiments/knapen_AOT/AOT_stimuli/rescaled_final/2159_fw.mp4	0.0	129.48087906837463	2.5003581047058105
11	99.62328004837036	pulse	1	t		9.0	2.5	/experiments/knapen_AOT/AOT_stimuli/rescaled_final/2159_fw.mp4	0.0	130.66468811035156	
11	100.93982911109924	fix_post	2		12	9.0	2.5	/experiments/knapen_AOT/AOT_stimuli/rescaled_final/2159_fw.mp4	0.0	131.98123717308044	0.1000218391418457
12	101.03985095024109	fix_pre	0		120	10.0	2.5	/experiments/knapen_AOT/AOT_stimuli/rescaled_final/1036_fw.mp4	0.0	132.0812590122223	1.0001580715179443
12	101.22341394424438	pulse	0	t		10.0	2.5	/experiments/knapen_AOT/AOT_stimuli/rescaled_final/1036_fw.mp4	0.0	132.2648220062256	
12	102.04000902175903	movie	1		243	10.0	2.5	/experiments/knapen_AOT/AOT_stimuli/rescaled_final/1036_fw.mp4	0.0	133.08141708374023	2.5003318786621094
12	102.823646068573	pulse	1	t		10.0	2.5	/experiments/knapen_AOT/AOT_stimuli/rescaled_final/1036_fw.mp4	0.0	133.8650541305542	
12	104.42395901679993	pulse	1	t		10.0	2.5	/experiments/knapen_AOT/AOT_stimuli/rescaled_final/1036_fw.mp4	0.0	135.46536707878113	
12	104.54034090042114	fix_post	2		12	10.0	2.5	/experiments/knapen_AOT/AOT_stimuli/rescaled_final/1036_fw.mp4	0.0	135.58174896240234	0.10003113746643066
13	104.64037203788757	fix_pre	0		120	11.0	2.5	/experiments/knapen_AOT/AOT_stimuli/rescaled_final/1774_fw.mp4	0.0	135.68178009986877	1.0001399517059326
13	105.6405119895935	movie	1		243	11.0	2.5	/experiments/knapen_AOT/AOT_stimuli/rescaled_final/1774_fw.mp4	0.0	136.6819200515747	2.4921040534973145
13	106.02476501464844	pulse	1	t		11.0	2.5	/experiments/knapen_AOT/AOT_stimuli/rescaled_final/1774_fw.mp4	0.0	137.06617307662964	
13	107.62433099746704	pulse	1	t		11.0	2.5	/experiments/knapen_AOT/AOT_stimuli/rescaled_final/1774_fw.mp4	0.0	138.66573905944824	
13	108.13261604309082	fix_post	2		12	11.0	2.5	/experiments/knapen_AOT/AOT_stimuli/rescaled_final/1774_fw.mp4	0.0	139.17402410507202	0.10003900527954102
14	108.23265504837036	fix_pre	0		120	12.0	2.5	/experiments/knapen_AOT/AOT_stimuli/rescaled_final/1163_fw.mp4	0.0	139.27406311035156	1.0000898838043213
14	109.22462201118469	pulse	0	t		12.0	2.5	/experiments/knapen_AOT/AOT_stimuli/rescaled_final/1163_fw.mp4	0.0	140.2660300731659	
14	109.23274493217468	movie	1		245	12.0	2.5	/experiments/knapen_AOT/AOT_stimuli/rescaled_final/1163_fw.mp4	0.0	140.27415299415588	2.508692979812622
14	110.82529592514038	pulse	1	t		12.0	2.5	/experiments/knapen_AOT/AOT_stimuli/rescaled_final/1163_fw.mp4	0.0	141.86670398712158	
14	111.7414379119873	fix_post	2		12	12.0	2.5	/experiments/knapen_AOT/AOT_stimuli/rescaled_final/1163_fw.mp4	0.0	142.7828459739685	0.10003805160522461
15	111.84147596359253	fix_pre	0		120	13.0	2.5	/experiments/knapen_AOT/AOT_stimuli/rescaled_final/0074_rv.mp4	0.0	142.88288402557373	1.0001449584960938
15	112.42513298988342	pulse	0	t		13.0	2.5	/experiments/knapen_AOT/AOT_stimuli/rescaled_final/0074_rv.mp4	0.0	143.46654105186462	
15	112.84162092208862	movie	1		246	13.0	2.5	/experiments/knapen_AOT/AOT_stimuli/rescaled_final/0074_rv.mp4	0.0	143.88302898406982	2.5003700256347656
15	114.02548599243164	pulse	1	t		13.0	2.5	/experiments/knapen_AOT/AOT_stimuli/rescaled_final/0074_rv.mp4	0.0	145.06689405441284	
15	115.34199094772339	fix_post	2		12	13.0	2.5	/experiments/knapen_AOT/AOT_stimuli/rescaled_final/0074_rv.mp4	0.0	146.3833990097046	0.10000109672546387
16	115.44199204444885	fix_pre	0		120	14.0	2.5	blank	1.0	146.48340010643005	1.0001540184020996
16	115.62551093101501	pulse	0	t		14.0	2.5	blank	1.0	146.66691899299622	
16	116.44214606285095	movie	1		300	14.0	2.5	blank	1.0	147.48355412483215	2.5003979206085205
16	117.22593307495117	pulse	1	t		14.0	2.5	blank	1.0	148.26734113693237	
16	118.82608294487	pulse	1	t		14.0	2.5	blank	1.0	149.8674910068512	
16	118.94254398345947	fix_post	2		12	14.0	2.5	blank	1.0	149.98395204544067	0.09993696212768555
17	119.04248094558716	fix_pre	0		120	15.0	2.5	/experiments/knapen_AOT/AOT_stimuli/rescaled_final/1937_rv.mp4	0.0	150.08388900756836	1.0002269744873047
17	120.04270792007446	movie	1		244	15.0	2.5	/experiments/knapen_AOT/AOT_stimuli/rescaled_final/1937_rv.mp4	0.0	151.08411598205566	2.4920220375061035
17	120.42687797546387	pulse	1	t		15.0	2.5	/experiments/knapen_AOT/AOT_stimuli/rescaled_final/1937_rv.mp4	0.0	151.46828603744507	
17	122.02649688720703	pulse	1	t		15.0	2.5	/experiments/knapen_AOT/AOT_stimuli/rescaled_final/1937_rv.mp4	0.0	153.06790494918823	
17	122.53472995758057	fix_post	2		12	15.0	2.5	/experiments/knapen_AOT/AOT_stimuli/rescaled_final/1937_rv.mp4	0.0	153.57613801956177	0.10009002685546875
18	122.63481998443604	fix_pre	0		120	16.0	2.5	/experiments/knapen_AOT/AOT_stimuli/rescaled_final/0837_rv.mp4	0.0	153.67622804641724	1.0000689029693604
18	123.62680006027222	pulse	0	t		16.0	2.5	/experiments/knapen_AOT/AOT_stimuli/rescaled_final/0837_rv.mp4	0.0	154.66820812225342	
18	123.6348888874054	movie	1		244	16.0	2.5	/experiments/knapen_AOT/AOT_stimuli/rescaled_final/0837_rv.mp4	0.0	154.6762969493866	2.5087320804595947
18	125.22781491279602	pulse	1	t		16.0	2.5	/experiments/knapen_AOT/AOT_stimuli/rescaled_final/0837_rv.mp4	0.0	156.26922297477722	
18	126.14362096786499	fix_post	2		12	16.0	2.5	/experiments/knapen_AOT/AOT_stimuli/rescaled_final/0837_rv.mp4	0.0	157.1850290298462	0.09996604919433594
19	126.24358701705933	fix_pre	0		120	17.0	2.5	/experiments/knapen_AOT/AOT_stimuli/rescaled_final/0842_fw.mp4	0.0	157.28499507904053	1.0002150535583496
19	126.82722806930542	pulse	0	t		17.0	2.5	/experiments/knapen_AOT/AOT_stimuli/rescaled_final/0842_fw.mp4	0.0	157.86863613128662	
19	127.24380207061768	movie	1		244	17.0	2.5	/experiments/knapen_AOT/AOT_stimuli/rescaled_final/0842_fw.mp4	0.0	158.28521013259888	2.5003349781036377
19	128.42756605148315	pulse	1	t		17.0	2.5	/experiments/knapen_AOT/AOT_stimuli/rescaled_final/0842_fw.mp4	0.0	159.46897411346436	
19	129.7441370487213	fix_post	2		12	17.0	2.5	/experiments/knapen_AOT/AOT_stimuli/rescaled_final/0842_fw.mp4	0.0	160.78554511070251	0.10001492500305176
20	129.84415197372437	fix_pre	0		120	18.0	2.5	/experiments/knapen_AOT/AOT_stimuli/rescaled_final/0124_rv.mp4	0.0	160.88556003570557	1.000154972076416
20	130.0278160572052	pulse	0	t		18.0	2.5	/experiments/knapen_AOT/AOT_stimuli/rescaled_final/0124_rv.mp4	0.0	161.0692241191864	
20	130.84430694580078	movie	1		243	18.0	2.5	/experiments/knapen_AOT/AOT_stimuli/rescaled_final/0124_rv.mp4	0.0	161.88571500778198	2.5003559589385986
20	131.6280300617218	pulse	1	t		18.0	2.5	/experiments/knapen_AOT/AOT_stimuli/rescaled_final/0124_rv.mp4	0.0	162.669438123703	
20	133.2281539440155	pulse	1	t		18.0	2.5	/experiments/knapen_AOT/AOT_stimuli/rescaled_final/0124_rv.mp4	0.0	164.2695620059967	
20	133.34466290473938	fix_post	2		12	18.0	2.5	/experiments/knapen_AOT/AOT_stimuli/rescaled_final/0124_rv.mp4	0.0	164.38607096672058	0.10004401206970215
21	133.44470691680908	fix_pre	0		120	19.0	2.5	blank	1.0	164.48611497879028	1.0001449584960938
21	134.44485187530518	movie	1		299	19.0	2.5	blank	1.0	165.48625993728638	2.492051124572754
21	134.82840204238892	pulse	1	t		19.0	2.5	blank	1.0	165.86981010437012	
21	136.42108988761902	pulse	1	t		19.0	2.5	blank	1.0	167.46249794960022	
21	136.93690299987793	fix_post	2		12	19.0	2.5	blank	1.0	167.97831106185913	0.10001802444458008
22	137.0369210243225	fix_pre	0		120	20.0	2.5	/experiments/knapen_AOT/AOT_stimuli/rescaled_final/0114_fw.mp4	0.0	168.0783290863037	1.000169038772583
22	138.02142906188965	pulse	0	t		20.0	2.5	/experiments/knapen_AOT/AOT_stimuli/rescaled_final/0114_fw.mp4	0.0	169.06283712387085	
22	138.0370900630951	movie	1		248	20.0	2.5	/experiments/knapen_AOT/AOT_stimuli/rescaled_final/0114_fw.mp4	0.0	169.0784981250763	2.508636951446533
22	139.63029098510742	pulse	1	t		20.0	2.5	/experiments/knapen_AOT/AOT_stimuli/rescaled_final/0114_fw.mp4	0.0	170.67169904708862	
22	140.54572701454163	fix_post	2		12	20.0	2.5	/experiments/knapen_AOT/AOT_stimuli/rescaled_final/0114_fw.mp4	0.0	171.58713507652283	0.10004305839538574
23	140.645770072937	fix_pre	0		120	21.0	2.5	/experiments/knapen_AOT/AOT_stimuli/rescaled_final/0897_rv.mp4	0.0	171.6871781349182	1.0001640319824219
23	141.22186589241028	pulse	0	t		21.0	2.5	/experiments/knapen_AOT/AOT_stimuli/rescaled_final/0897_rv.mp4	0.0	172.26327395439148	
23	141.64593410491943	movie	1		244	21.0	2.5	/experiments/knapen_AOT/AOT_stimuli/rescaled_final/0897_rv.mp4	0.0	172.68734216690063	2.5003437995910645
23	142.8255488872528	pulse	1	t		21.0	2.5	/experiments/knapen_AOT/AOT_stimuli/rescaled_final/0897_rv.mp4	0.0	173.866956949234	
23	144.1462779045105	fix_post	2		12	21.0	2.5	/experiments/knapen_AOT/AOT_stimuli/rescaled_final/0897_rv.mp4	0.0	175.1876859664917	0.10001707077026367
24	144.24629497528076	fix_pre	0		120	22.0	2.5	/experiments/knapen_AOT/AOT_stimuli/rescaled_final/0060_fw.mp4	0.0	175.28770303726196	1.0001580715179443
24	144.42147588729858	pulse	0	t		22.0	2.5	/experiments/knapen_AOT/AOT_stimuli/rescaled_final/0060_fw.mp4	0.0	175.46288394927979	
24	145.2464530467987	movie	1		244	22.0	2.5	/experiments/knapen_AOT/AOT_stimuli/rescaled_final/0060_fw.mp4	0.0	176.2878611087799	2.5003809928894043
24	146.02173590660095	pulse	1	t		22.0	2.5	/experiments/knapen_AOT/AOT_stimuli/rescaled_final/0060_fw.mp4	0.0	177.06314396858215	
24	147.6221239566803	pulse	1	t		22.0	2.5	/experiments/knapen_AOT/AOT_stimuli/rescaled_final/0060_fw.mp4	0.0	178.6635320186615	
24	147.7468340396881	fix_post	2		12	22.0	2.5	/experiments/knapen_AOT/AOT_stimuli/rescaled_final/0060_fw.mp4	0.0	178.7882421016693	0.1000528335571289
25	147.84688687324524	fix_pre	0		120	23.0	2.5	/experiments/knapen_AOT/AOT_stimuli/rescaled_final/0415_rv.mp4	0.0	178.88829493522644	1.000171184539795
25	148.84705805778503	movie	1		240	23.0	2.5	/experiments/knapen_AOT/AOT_stimuli/rescaled_final/0415_rv.mp4	0.0	179.88846611976624	2.4919538497924805
25	149.22235107421875	pulse	1	t		23.0	2.5	/experiments/knapen_AOT/AOT_stimuli/rescaled_final/0415_rv.mp4	0.0	180.26375913619995	
25	150.82256889343262	pulse	1	t		23.0	2.5	/experiments/knapen_AOT/AOT_stimuli/rescaled_final/0415_rv.mp4	0.0	181.86397695541382	
25	151.33901190757751	fix_post	2		12	23.0	2.5	/experiments/knapen_AOT/AOT_stimuli/rescaled_final/0415_rv.mp4	0.0	182.38041996955872	0.10004711151123047
26	151.43905901908875	fix_pre	0		119	24.0	2.5	/experiments/knapen_AOT/AOT_stimuli/rescaled_final/0609_rv.mp4	0.0	182.48046708106995	0.9918019771575928
26	152.42271900177002	pulse	0	t		24.0	2.5	/experiments/knapen_AOT/AOT_stimuli/rescaled_final/0609_rv.mp4	0.0	183.46412706375122	
26	152.43086099624634	movie	1		245	24.0	2.5	/experiments/knapen_AOT/AOT_stimuli/rescaled_final/0609_rv.mp4	0.0	183.47226905822754	2.5088350772857666
26	154.0236361026764	pulse	1	t		24.0	2.5	/experiments/knapen_AOT/AOT_stimuli/rescaled_final/0609_rv.mp4	0.0	185.0650441646576	
26	154.9396960735321	fix_post	2		12	24.0	2.5	/experiments/knapen_AOT/AOT_stimuli/rescaled_final/0609_rv.mp4	0.0	185.9811041355133	0.0998678207397461
27	155.03956389427185	fix_pre	0		120	25.0	2.5	/experiments/knapen_AOT/AOT_stimuli/rescaled_final/0967_rv.mp4	0.0	186.08097195625305	1.0001699924468994
27	155.6232750415802	pulse	0	t		25.0	2.5	/experiments/knapen_AOT/AOT_stimuli/rescaled_final/0967_rv.mp4	0.0	186.6646831035614	
27	156.03973388671875	movie	1		246	25.0	2.5	/experiments/knapen_AOT/AOT_stimuli/rescaled_final/0967_rv.mp4	0.0	187.08114194869995	2.500399112701416
27	157.2234959602356	pulse	1	t		25.0	2.5	/experiments/knapen_AOT/AOT_stimuli/rescaled_final/0967_rv.mp4	0.0	188.2649040222168	
27	158.54013299942017	fix_post	2		12	25.0	2.5	/experiments/knapen_AOT/AOT_stimuli/rescaled_final/0967_rv.mp4	0.0	189.58154106140137	0.09997010231018066
28	158.64010310173035	fix_pre	0		120	26.0	2.5	blank	1.0	189.68151116371155	1.0001440048217773
28	158.82363510131836	pulse	0	t		26.0	2.5	blank	1.0	189.86504316329956	
28	159.64024710655212	movie	1		300	26.0	2.5	blank	1.0	190.68165516853333	2.5003819465637207
28	160.42388105392456	pulse	1	t		26.0	2.5	blank	1.0	191.46528911590576	
28	162.02410793304443	pulse	1	t		26.0	2.5	blank	1.0	193.06551599502563	
28	162.14062905311584	fix_post	2		12	26.0	2.5	blank	1.0	193.18203711509705	0.10001301765441895
29	162.24064207077026	fix_pre	0		120	27.0	2.5	/experiments/knapen_AOT/AOT_stimuli/rescaled_final/0188_fw.mp4	0.0	193.28205013275146	1.0001800060272217
29	163.24082207679749	movie	1		244	27.0	2.5	/experiments/knapen_AOT/AOT_stimuli/rescaled_final/0188_fw.mp4	0.0	194.2822301387787	2.4920549392700195
29	163.62850093841553	pulse	1	t		27.0	2.5	/experiments/knapen_AOT/AOT_stimuli/rescaled_final/0188_fw.mp4	0.0	194.66990900039673	
29	165.2245979309082	pulse	1	t		27.0	2.5	/experiments/knapen_AOT/AOT_stimuli/rescaled_final/0188_fw.mp4	0.0	196.2660059928894	
29	165.7328770160675	fix_post	2		12	27.0	2.5	/experiments/knapen_AOT/AOT_stimuli/rescaled_final/0188_fw.mp4	0.0	196.7742850780487	0.09997200965881348
30	165.83284902572632	fix_pre	0		120	28.0	2.5	/experiments/knapen_AOT/AOT_stimuli/rescaled_final/2073_fw.mp4	0.0	196.87425708770752	1.0001609325408936
30	166.8249580860138	pulse	0	t		28.0	2.5	/experiments/knapen_AOT/AOT_stimuli/rescaled_final/2073_fw.mp4	0.0	197.866366147995	
30	166.8330099582672	movie	1		245	28.0	2.5	/experiments/knapen_AOT/AOT_stimuli/rescaled_final/2073_fw.mp4	0.0	197.8744180202484	2.5087249279022217
30	168.4259810447693	pulse	1	t		28.0	2.5	/experiments/knapen_AOT/AOT_stimuli/rescaled_final/2073_fw.mp4	0.0	199.4673891067505	
30	169.34173488616943	fix_post	2		12	28.0	2.5	/experiments/knapen_AOT/AOT_stimuli/rescaled_final/2073_fw.mp4	0.0	200.38314294815063	0.09996604919433594
31	169.44170093536377	fix_pre	0		120	29.0	2.5	/experiments/knapen_AOT/AOT_stimuli/rescaled_final/2073_rv.mp4	0.0	200.48310899734497	1.000195026397705
31	170.02537488937378	pulse	0	t		29.0	2.5	/experiments/knapen_AOT/AOT_stimuli/rescaled_final/2073_rv.mp4	0.0	201.06678295135498	
31	170.44189596176147	movie	1		244	29.0	2.5	/experiments/knapen_AOT/AOT_stimuli/rescaled_final/2073_rv.mp4	0.0	201.48330402374268	2.500335931777954
31	171.6257290840149	pulse	1	t		29.0	2.5	/experiments/knapen_AOT/AOT_stimuli/rescaled_final/2073_rv.mp4	0.0	202.6671371459961	
31	172.94223189353943	fix_post	2		12	29.0	2.5	/experiments/knapen_AOT/AOT_stimuli/rescaled_final/2073_rv.mp4	0.0	203.98363995552063	0.10002613067626953
32	173.0422580242157	fix_pre	0		120	30.0	2.5	/experiments/knapen_AOT/AOT_stimuli/rescaled_final/0016_fw.mp4	0.0	204.0836660861969	1.0001490116119385
32	173.22580790519714	pulse	0	t		30.0	2.5	/experiments/knapen_AOT/AOT_stimuli/rescaled_final/0016_fw.mp4	0.0	204.26721596717834	
32	174.04240703582764	movie	1		245	30.0	2.5	/experiments/knapen_AOT/AOT_stimuli/rescaled_final/0016_fw.mp4	0.0	205.08381509780884	2.5003550052642822
32	174.8262119293213	pulse	1	t		30.0	2.5	/experiments/knapen_AOT/AOT_stimuli/rescaled_final/0016_fw.mp4	0.0	205.8676199913025	
32	176.4265010356903	pulse	1	t		30.0	2.5	/experiments/knapen_AOT/AOT_stimuli/rescaled_final/0016_fw.mp4	0.0	207.4679090976715	
32	176.54276204109192	fix_post	2		12	30.0	2.5	/experiments/knapen_AOT/AOT_stimuli/rescaled_final/0016_fw.mp4	0.0	207.58417010307312	0.10004687309265137
33	176.64280891418457	fix_pre	0		120	31.0	2.5	/experiments/knapen_AOT/AOT_stimuli/rescaled_final/1273_rv.mp4	0.0	207.68421697616577	1.0001420974731445
33	177.64295101165771	movie	1		244	31.0	2.5	/experiments/knapen_AOT/AOT_stimuli/rescaled_final/1273_rv.mp4	0.0	208.68435907363892	2.492013931274414
33	178.0272810459137	pulse	1	t		31.0	2.5	/experiments/knapen_AOT/AOT_stimuli/rescaled_final/1273_rv.mp4	0.0	209.0686891078949	
33	179.62675309181213	pulse	1	t		31.0	2.5	/experiments/knapen_AOT/AOT_stimuli/rescaled_final/1273_rv.mp4	0.0	210.66816115379333	
33	180.13496494293213	fix_post	2		12	31.0	2.5	/experiments/knapen_AOT/AOT_stimuli/rescaled_final/1273_rv.mp4	0.0	211.17637300491333	0.10001993179321289
34	180.23498487472534	fix_pre	0		120	32.0	2.5	/experiments/knapen_AOT/AOT_stimuli/rescaled_final/0108_fw.mp4	0.0	211.27639293670654	1.0001912117004395
34	181.2271249294281	pulse	0	t		32.0	2.5	/experiments/knapen_AOT/AOT_stimuli/rescaled_final/0108_fw.mp4	0.0	212.2685329914093	
34	181.23517608642578	movie	1		251	32.0	2.5	/experiments/knapen_AOT/AOT_stimuli/rescaled_final/0108_fw.mp4	0.0	212.27658414840698	2.508671998977661
34	182.82820892333984	pulse	1	t		32.0	2.5	/experiments/knapen_AOT/AOT_stimuli/rescaled_final/0108_fw.mp4	0.0	213.86961698532104	
34	183.74384808540344	fix_post	2		12	32.0	2.5	/experiments/knapen_AOT/AOT_stimuli/rescaled_final/0108_fw.mp4	0.0	214.78525614738464	0.10001397132873535
35	183.84386205673218	fix_pre	0		120	33.0	2.5	blank	1.0	214.88527011871338	1.0001089572906494
35	184.42742204666138	pulse	0	t		33.0	2.5	blank	1.0	215.46883010864258	
35	184.84397101402283	movie	1		300	33.0	2.5	blank	1.0	215.88537907600403	2.500415086746216
35	186.0276620388031	pulse	1	t		33.0	2.5	blank	1.0	217.0690701007843	
35	187.34438610076904	fix_post	2		12	33.0	2.5	blank	1.0	218.38579416275024	0.09999394416809082
36	187.44438004493713	fix_pre	0		120	34.0	2.5	/experiments/knapen_AOT/AOT_stimuli/rescaled_final/1283_fw.mp4	0.0	218.48578810691833	1.000234842300415
36	187.62792706489563	pulse	0	t		34.0	2.5	/experiments/knapen_AOT/AOT_stimuli/rescaled_final/1283_fw.mp4	0.0	218.66933512687683	
36	188.44461488723755	movie	1		244	34.0	2.5	/experiments/knapen_AOT/AOT_stimuli/rescaled_final/1283_fw.mp4	0.0	219.48602294921875	2.5003480911254883
36	189.22831106185913	pulse	1	t		34.0	2.5	/experiments/knapen_AOT/AOT_stimuli/rescaled_final/1283_fw.mp4	0.0	220.26971912384033	
36	190.82848691940308	pulse	1	t		34.0	2.5	/experiments/knapen_AOT/AOT_stimuli/rescaled_final/1283_fw.mp4	0.0	221.86989498138428	
36	190.94496297836304	fix_post	2		12	34.0	2.5	/experiments/knapen_AOT/AOT_stimuli/rescaled_final/1283_fw.mp4	0.0	221.98637104034424	0.09997296333312988
37	191.04493594169617	fix_pre	0		120	35.0	2.5	/experiments/knapen_AOT/AOT_stimuli/rescaled_final/2005_fw.mp4	0.0	222.08634400367737	1.000175952911377
37	192.04511189460754	movie	1		249	35.0	2.5	/experiments/knapen_AOT/AOT_stimuli/rescaled_final/2005_fw.mp4	0.0	223.08651995658875	2.492011070251465
37	192.42912888526917	pulse	1	t		35.0	2.5	/experiments/knapen_AOT/AOT_stimuli/rescaled_final/2005_fw.mp4	0.0	223.47053694725037	
37	194.02892303466797	pulse	1	t		35.0	2.5	/experiments/knapen_AOT/AOT_stimuli/rescaled_final/2005_fw.mp4	0.0	225.07033109664917	
37	194.537122964859	fix_post	2		12	35.0	2.5	/experiments/knapen_AOT/AOT_stimuli/rescaled_final/2005_fw.mp4	0.0	225.5785310268402	0.10002899169921875
38	194.63715195655823	fix_pre	0		120	36.0	2.5	/experiments/knapen_AOT/AOT_stimuli/rescaled_final/1827_rv.mp4	0.0	225.67856001853943	1.000133991241455
38	195.629163980484	pulse	0	t		36.0	2.5	/experiments/knapen_AOT/AOT_stimuli/rescaled_final/1827_rv.mp4	0.0	226.6705720424652	
38	195.63728594779968	movie	1		249	36.0	2.5	/experiments/knapen_AOT/AOT_stimuli/rescaled_final/1827_rv.mp4	0.0	226.67869400978088	2.508726119995117
38	197.23055791854858	pulse	1	t		36.0	2.5	/experiments/knapen_AOT/AOT_stimuli/rescaled_final/1827_rv.mp4	0.0	228.27196598052979	
38	198.1460120677948	fix_post	2		12	36.0	2.5	/experiments/knapen_AOT/AOT_stimuli/rescaled_final/1827_rv.mp4	0.0	229.187420129776	0.09999299049377441
39	198.24600505828857	fix_pre	0		120	37.0	2.5	/experiments/knapen_AOT/AOT_stimuli/rescaled_final/0513_fw.mp4	0.0	229.28741312026978	1.0001800060272217
39	198.82228708267212	pulse	0	t		37.0	2.5	/experiments/knapen_AOT/AOT_stimuli/rescaled_final/0513_fw.mp4	0.0	229.86369514465332	
39	199.2461850643158	movie	1		245	37.0	2.5	/experiments/knapen_AOT/AOT_stimuli/rescaled_final/0513_fw.mp4	0.0	230.287593126297	2.5004608631134033
39	200.42213010787964	pulse	1	t		37.0	2.5	/experiments/knapen_AOT/AOT_stimuli/rescaled_final/0513_fw.mp4	0.0	231.46353816986084	
39	201.7466459274292	fix_post	2		12	37.0	2.5	/experiments/knapen_AOT/AOT_stimuli/rescaled_final/0513_fw.mp4	0.0	232.7880539894104	0.09987711906433105
40	201.84652304649353	fix_pre	0		120	38.0	2.5	/experiments/knapen_AOT/AOT_stimuli/rescaled_final/1626_rv.mp4	0.0	232.88793110847473	1.0001938343048096
40	202.02265000343323	pulse	0	t		38.0	2.5	/experiments/knapen_AOT/AOT_stimuli/rescaled_final/1626_rv.mp4	0.0	233.06405806541443	
40	202.84671688079834	movie	1		245	38.0	2.5	/experiments/knapen_AOT/AOT_stimuli/rescaled_final/1626_rv.mp4	0.0	233.88812494277954	2.5003321170806885
40	203.6221408843994	pulse	1	t		38.0	2.5	/experiments/knapen_AOT/AOT_stimuli/rescaled_final/1626_rv.mp4	0.0	234.66354894638062	
40	205.2222180366516	pulse	1	t		38.0	2.5	/experiments/knapen_AOT/AOT_stimuli/rescaled_final/1626_rv.mp4	0.0	236.2636260986328	
40	205.34704899787903	fix_post	2		12	38.0	2.5	/experiments/knapen_AOT/AOT_stimuli/rescaled_final/1626_rv.mp4	0.0	236.38845705986023	0.10009098052978516
41	205.4471399784088	fix_pre	0		119	39.0	2.5	/experiments/knapen_AOT/AOT_stimuli/rescaled_final/1123_fw.mp4	0.0	236.48854804039001	0.9917681217193604
41	206.43890810012817	movie	1		245	39.0	2.5	/experiments/knapen_AOT/AOT_stimuli/rescaled_final/1123_fw.mp4	0.0	237.48031616210938	2.5028908252716064
41	206.82388305664062	pulse	1	t		39.0	2.5	/experiments/knapen_AOT/AOT_stimuli/rescaled_final/1123_fw.mp4	0.0	237.86529111862183	
41	208.4228160381317	pulse	1	t		39.0	2.5	/experiments/knapen_AOT/AOT_stimuli/rescaled_final/1123_fw.mp4	0.0	239.46422410011292	
41	208.94179892539978	fix_post	2		9	39.0	2.5	/experiments/knapen_AOT/AOT_stimuli/rescaled_final/1123_fw.mp4	0.0	239.98320698738098	0.09750699996948242
42	209.03930592536926	fix_pre	0		119	40.0	2.5	/experiments/knapen_AOT/AOT_stimuli/rescaled_final/0124_fw.mp4	0.0	240.08071398735046	0.9917991161346436
42	210.02311301231384	pulse	0	t		40.0	2.5	/experiments/knapen_AOT/AOT_stimuli/rescaled_final/0124_fw.mp4	0.0	241.06452107429504	
42	210.0311050415039	movie	1		245	40.0	2.5	/experiments/knapen_AOT/AOT_stimuli/rescaled_final/0124_fw.mp4	0.0	241.0725131034851	2.5087318420410156
42	211.62393999099731	pulse	1	t		40.0	2.5	/experiments/knapen_AOT/AOT_stimuli/rescaled_final/0124_fw.mp4	0.0	242.66534805297852	
42	212.53983688354492	fix_post	2		12	40.0	2.5	/experiments/knapen_AOT/AOT_stimuli/rescaled_final/0124_fw.mp4	0.0	243.58124494552612	0.10001611709594727
43	212.63985300064087	fix_pre	0		120	41.0	2.5	blank	1.0	243.68126106262207	1.0002329349517822
43	213.22341203689575	pulse	0	t		41.0	2.5	blank	1.0	244.26482009887695	
43	213.64008593559265	movie	1		300	41.0	2.5	blank	1.0	244.68149399757385	2.5003089904785156
43	214.82382202148438	pulse	1	t		41.0	2.5	blank	1.0	245.86523008346558	
43	216.14039492607117	fix_post	2		12	41.0	2.5	blank	1.0	247.18180298805237	0.09996294975280762
44	216.24035787582397	fix_pre	0		120	42.0	2.5	/experiments/knapen_AOT/AOT_stimuli/rescaled_final/1137_fw.mp4	0.0	247.28176593780518	1.0001661777496338
44	216.4240689277649	pulse	0	t		42.0	2.5	/experiments/knapen_AOT/AOT_stimuli/rescaled_final/1137_fw.mp4	0.0	247.4654769897461	
44	217.2405240535736	movie	1		245	42.0	2.5	/experiments/knapen_AOT/AOT_stimuli/rescaled_final/1137_fw.mp4	0.0	248.2819321155548	2.5003769397735596
44	218.02418398857117	pulse	1	t		42.0	2.5	/experiments/knapen_AOT/AOT_stimuli/rescaled_final/1137_fw.mp4	0.0	249.06559205055237	
44	219.62437796592712	pulse	1	t		42.0	2.5	/experiments/knapen_AOT/AOT_stimuli/rescaled_final/1137_fw.mp4	0.0	250.66578602790833	
44	219.74090099334717	fix_post	2		12	42.0	2.5	/experiments/knapen_AOT/AOT_stimuli/rescaled_final/1137_fw.mp4	0.0	250.78230905532837	0.09999799728393555
45	219.8408989906311	fix_pre	0		120	43.0	2.5	/experiments/knapen_AOT/AOT_stimuli/rescaled_final/0844_rv.mp4	0.0	250.8823070526123	1.0001280307769775
45	220.84102702140808	movie	1		246	43.0	2.5	/experiments/knapen_AOT/AOT_stimuli/rescaled_final/0844_rv.mp4	0.0	251.88243508338928	2.492034912109375
45	221.22562909126282	pulse	1	t		43.0	2.5	/experiments/knapen_AOT/AOT_stimuli/rescaled_final/0844_rv.mp4	0.0	252.26703715324402	
45	222.82502508163452	pulse	1	t		43.0	2.5	/experiments/knapen_AOT/AOT_stimuli/rescaled_final/0844_rv.mp4	0.0	253.86643314361572	
45	223.33306193351746	fix_post	2		12	43.0	2.5	/experiments/knapen_AOT/AOT_stimuli/rescaled_final/0844_rv.mp4	0.0	254.37446999549866	0.10007095336914062
46	223.4331328868866	fix_pre	0		120	44.0	2.5	/experiments/knapen_AOT/AOT_stimuli/rescaled_final/0797_rv.mp4	0.0	254.4745409488678	1.0001311302185059
46	224.42524409294128	pulse	0	t		44.0	2.5	/experiments/knapen_AOT/AOT_stimuli/rescaled_final/0797_rv.mp4	0.0	255.46665215492249	
46	224.4332640171051	movie	1		246	44.0	2.5	/experiments/knapen_AOT/AOT_stimuli/rescaled_final/0797_rv.mp4	0.0	255.4746720790863	2.508733034133911
46	226.025976896286	pulse	1	t		44.0	2.5	/experiments/knapen_AOT/AOT_stimuli/rescaled_final/0797_rv.mp4	0.0	257.0673849582672	
46	226.941997051239	fix_post	2		12	44.0	2.5	/experiments/knapen_AOT/AOT_stimuli/rescaled_final/0797_rv.mp4	0.0	257.9834051132202	0.10001182556152344
47	227.04200887680054	fix_pre	0		120	45.0	2.5	/experiments/knapen_AOT/AOT_stimuli/rescaled_final/1389_fw.mp4	0.0	258.08341693878174	1.000303030014038
47	227.62566208839417	pulse	0	t		45.0	2.5	/experiments/knapen_AOT/AOT_stimuli/rescaled_final/1389_fw.mp4	0.0	258.66707015037537	
47	228.04231190681458	movie	1		244	45.0	2.5	/experiments/knapen_AOT/AOT_stimuli/rescaled_final/1389_fw.mp4	0.0	259.0837199687958	2.500197172164917
47	229.2259919643402	pulse	1	t		45.0	2.5	/experiments/knapen_AOT/AOT_stimuli/rescaled_final/1389_fw.mp4	0.0	260.2674000263214	
47	230.5425090789795	fix_post	2		12	45.0	2.5	/experiments/knapen_AOT/AOT_stimuli/rescaled_final/1389_fw.mp4	0.0	261.5839171409607	0.10004782676696777
48	230.64255690574646	fix_pre	0		120	46.0	2.5	/experiments/knapen_AOT/AOT_stimuli/rescaled_final/2115_fw.mp4	0.0	261.68396496772766	1.0001440048217773
48	230.82616901397705	pulse	0	t		46.0	2.5	/experiments/knapen_AOT/AOT_stimuli/rescaled_final/2115_fw.mp4	0.0	261.86757707595825	
48	231.64270091056824	movie	1		246	46.0	2.5	/experiments/knapen_AOT/AOT_stimuli/rescaled_final/2115_fw.mp4	0.0	262.68410897254944	2.500293016433716
48	232.42630410194397	pulse	1	t		46.0	2.5	/experiments/knapen_AOT/AOT_stimuli/rescaled_final/2115_fw.mp4	0.0	263.46771216392517	
48	234.02651596069336	pulse	1	t		46.0	2.5	/experiments/knapen_AOT/AOT_stimuli/rescaled_final/2115_fw.mp4	0.0	265.06792402267456	
48	234.14299392700195	fix_post	2		12	46.0	2.5	/experiments/knapen_AOT/AOT_stimuli/rescaled_final/2115_fw.mp4	0.0	265.18440198898315	0.10006117820739746
49	234.24305510520935	fix_pre	0		120	47.0	2.5	blank	1.0	265.28446316719055	1.0001440048217773
49	235.24319911003113	movie	1		299	47.0	2.5	blank	1.0	266.28460717201233	2.492102861404419
49	235.62695407867432	pulse	1	t		47.0	2.5	blank	1.0	266.6683621406555	
49	237.22716093063354	pulse	1	t		47.0	2.5	blank	1.0	268.26856899261475	
49	237.73530197143555	fix_post	2		12	47.0	2.5	blank	1.0	268.77671003341675	0.09990596771240234
50	237.83520793914795	fix_pre	0		120	48.0	2.5	/experiments/knapen_AOT/AOT_stimuli/rescaled_final/0794_rv.mp4	0.0	268.87661600112915	1.0002000331878662
50	238.82732605934143	pulse	0	t		48.0	2.5	/experiments/knapen_AOT/AOT_stimuli/rescaled_final/0794_rv.mp4	0.0	269.86873412132263	
50	238.83540797233582	movie	1		247	48.0	2.5	/experiments/knapen_AOT/AOT_stimuli/rescaled_final/0794_rv.mp4	0.0	269.876816034317	2.508665084838867
50	240.4285740852356	pulse	1	t		48.0	2.5	/experiments/knapen_AOT/AOT_stimuli/rescaled_final/0794_rv.mp4	0.0	271.4699821472168	
50	241.34407305717468	fix_post	2		12	48.0	2.5	/experiments/knapen_AOT/AOT_stimuli/rescaled_final/0794_rv.mp4	0.0	272.3854811191559	0.10006904602050781
51	241.4441421031952	fix_pre	0		120	49.0	2.5	/experiments/knapen_AOT/AOT_stimuli/rescaled_final/0390_rv.mp4	0.0	272.4855501651764	1.0001327991485596
51	242.0277349948883	pulse	0	t		49.0	2.5	/experiments/knapen_AOT/AOT_stimuli/rescaled_final/0390_rv.mp4	0.0	273.0691430568695	
51	242.44427490234375	movie	1		245	49.0	2.5	/experiments/knapen_AOT/AOT_stimuli/rescaled_final/0390_rv.mp4	0.0	273.48568296432495	2.500369071960449
51	243.62815308570862	pulse	1	t		49.0	2.5	/experiments/knapen_AOT/AOT_stimuli/rescaled_final/0390_rv.mp4	0.0	274.6695611476898	
51	244.9446439743042	fix_post	2		12	49.0	2.5	/experiments/knapen_AOT/AOT_stimuli/rescaled_final/0390_rv.mp4	0.0	275.9860520362854	0.10001897811889648
52	245.0446629524231	fix_pre	0		120	50.0	2.5	/experiments/knapen_AOT/AOT_stimuli/rescaled_final/0099_rv.mp4	0.0	276.0860710144043	1.0001749992370605
52	245.22836089134216	pulse	0	t		50.0	2.5	/experiments/knapen_AOT/AOT_stimuli/rescaled_final/0099_rv.mp4	0.0	276.26976895332336	
52	246.04483795166016	movie	1		244	50.0	2.5	/experiments/knapen_AOT/AOT_stimuli/rescaled_final/0099_rv.mp4	0.0	277.08624601364136	2.5003459453582764
52	246.82851600646973	pulse	1	t		50.0	2.5	/experiments/knapen_AOT/AOT_stimuli/rescaled_final/0099_rv.mp4	0.0	277.8699240684509	
52	248.42883491516113	pulse	1	t		50.0	2.5	/experiments/knapen_AOT/AOT_stimuli/rescaled_final/0099_rv.mp4	0.0	279.47024297714233	
52	248.54518389701843	fix_post	2		12	50.0	2.5	/experiments/knapen_AOT/AOT_stimuli/rescaled_final/0099_rv.mp4	0.0	279.58659195899963	0.10002613067626953
53	248.6452100276947	fix_pre	0		120	51.0	2.5	/experiments/knapen_AOT/AOT_stimuli/rescaled_final/0791_rv.mp4	0.0	279.6866180896759	1.0001468658447266
53	249.64535689353943	movie	1		244	51.0	2.5	/experiments/knapen_AOT/AOT_stimuli/rescaled_final/0791_rv.mp4	0.0	280.68676495552063	2.4920082092285156
53	250.0293309688568	pulse	1	t		51.0	2.5	/experiments/knapen_AOT/AOT_stimuli/rescaled_final/0791_rv.mp4	0.0	281.070739030838	
53	251.62194108963013	pulse	1	t		51.0	2.5	/experiments/knapen_AOT/AOT_stimuli/rescaled_final/0791_rv.mp4	0.0	282.6633491516113	
53	252.13736510276794	fix_post	2		12	51.0	2.5	/experiments/knapen_AOT/AOT_stimuli/rescaled_final/0791_rv.mp4	0.0	283.17877316474915	0.10006594657897949
54	252.23743104934692	fix_pre	0		120	52.0	2.5	/experiments/knapen_AOT/AOT_stimuli/rescaled_final/1237_fw.mp4	0.0	283.2788391113281	1.000154972076416
54	253.22192788124084	pulse	0	t		52.0	2.5	/experiments/knapen_AOT/AOT_stimuli/rescaled_final/1237_fw.mp4	0.0	284.26333594322205	
54	253.23758602142334	movie	1		245	52.0	2.5	/experiments/knapen_AOT/AOT_stimuli/rescaled_final/1237_fw.mp4	0.0	284.27899408340454	2.508636951446533
54	254.83078789710999	pulse	1	t		52.0	2.5	/experiments/knapen_AOT/AOT_stimuli/rescaled_final/1237_fw.mp4	0.0	285.8721959590912	
54	255.74622297286987	fix_post	2		12	52.0	2.5	/experiments/knapen_AOT/AOT_stimuli/rescaled_final/1237_fw.mp4	0.0	286.7876310348511	0.10007095336914062
55	255.846293926239	fix_pre	0		120	53.0	2.5	/experiments/knapen_AOT/AOT_stimuli/rescaled_final/0513_rv.mp4	0.0	286.8877019882202	1.0001499652862549
55	256.4216949939728	pulse	0	t		53.0	2.5	/experiments/knapen_AOT/AOT_stimuli/rescaled_final/0513_rv.mp4	0.0	287.463103055954	
55	256.84644389152527	movie	1		245	53.0	2.5	/experiments/knapen_AOT/AOT_stimuli/rescaled_final/0513_rv.mp4	0.0	287.88785195350647	2.500352144241333
55	258.0229420661926	pulse	1	t		53.0	2.5	/experiments/knapen_AOT/AOT_stimuli/rescaled_final/0513_rv.mp4	0.0	289.0643501281738	
55	259.3467960357666	fix_post	2		12	53.0	2.5	/experiments/knapen_AOT/AOT_stimuli/rescaled_final/0513_rv.mp4	0.0	290.3882040977478	0.10002684593200684
56	259.4468228816986	fix_pre	0		120	54.0	2.5	/experiments/knapen_AOT/AOT_stimuli/rescaled_final/0654_rv.mp4	0.0	290.4882309436798	1.000162124633789
56	259.6220610141754	pulse	0	t		54.0	2.5	/experiments/knapen_AOT/AOT_stimuli/rescaled_final/0654_rv.mp4	0.0	290.6634690761566	
56	260.4469850063324	movie	1		244	54.0	2.5	/experiments/knapen_AOT/AOT_stimuli/rescaled_final/0654_rv.mp4	0.0	291.4883930683136	2.5003468990325928
56	261.2223210334778	pulse	1	t		54.0	2.5	/experiments/knapen_AOT/AOT_stimuli/rescaled_final/0654_rv.mp4	0.0	292.263729095459	
56	262.82253408432007	pulse	1	t		54.0	2.5	/experiments/knapen_AOT/AOT_stimuli/rescaled_final/0654_rv.mp4	0.0	293.86394214630127	
56	262.947331905365	fix_post	2		12	54.0	2.5	/experiments/knapen_AOT/AOT_stimuli/rescaled_final/0654_rv.mp4	0.0	293.9887399673462	0.10002803802490234
57	263.0473599433899	fix_pre	0		119	55.0	2.5	blank	1.0	294.0887680053711	0.9918069839477539
57	264.03916692733765	movie	1		300	55.0	2.5	blank	1.0	295.08057498931885	2.500368118286133
57	264.42275500297546	pulse	1	t		55.0	2.5	blank	1.0	295.46416306495667	
57	266.02294993400574	pulse	1	t		55.0	2.5	blank	1.0	297.06435799598694	
57	266.5395350456238	fix_post	2		12	55.0	2.5	blank	1.0	297.580943107605	0.10003495216369629
58	266.6395699977875	fix_pre	0		119	56.0	2.5	/experiments/knapen_AOT/AOT_stimuli/rescaled_final/1929_fw.mp4	0.0	297.6809780597687	0.991797924041748
58	267.6232430934906	pulse	0	t		56.0	2.5	/experiments/knapen_AOT/AOT_stimuli/rescaled_final/1929_fw.mp4	0.0	298.6646511554718	
58	267.6313679218292	movie	1		243	56.0	2.5	/experiments/knapen_AOT/AOT_stimuli/rescaled_final/1929_fw.mp4	0.0	298.6727759838104	2.5086910724639893
58	269.2240240573883	pulse	1	t		56.0	2.5	/experiments/knapen_AOT/AOT_stimuli/rescaled_final/1929_fw.mp4	0.0	300.2654321193695	
58	270.1400589942932	fix_post	2		12	56.0	2.5	/experiments/knapen_AOT/AOT_stimuli/rescaled_final/1929_fw.mp4	0.0	301.1814670562744	0.10003089904785156
59	270.24008989334106	fix_pre	0		120	57.0	2.5	/experiments/knapen_AOT/AOT_stimuli/rescaled_final/0847_fw.mp4	0.0	301.28149795532227	1.0001420974731445
59	270.82373905181885	pulse	0	t		57.0	2.5	/experiments/knapen_AOT/AOT_stimuli/rescaled_final/0847_fw.mp4	0.0	301.86514711380005	
59	271.2402319908142	movie	1		244	57.0	2.5	/experiments/knapen_AOT/AOT_stimuli/rescaled_final/0847_fw.mp4	0.0	302.2816400527954	2.500430107116699
59	272.42398405075073	pulse	1	t		57.0	2.5	/experiments/knapen_AOT/AOT_stimuli/rescaled_final/0847_fw.mp4	0.0	303.46539211273193	
59	273.7406620979309	fix_post	2		12	57.0	2.5	/experiments/knapen_AOT/AOT_stimuli/rescaled_final/0847_fw.mp4	0.0	304.7820701599121	0.09997987747192383
60	273.84064197540283	fix_pre	0		120	58.0	2.5	/experiments/knapen_AOT/AOT_stimuli/rescaled_final/0209_rv.mp4	0.0	304.88205003738403	1.0001399517059326
60	274.0241770744324	pulse	0	t		58.0	2.5	/experiments/knapen_AOT/AOT_stimuli/rescaled_final/0209_rv.mp4	0.0	305.0655851364136	
60	274.84078192710876	movie	1		245	58.0	2.5	/experiments/knapen_AOT/AOT_stimuli/rescaled_final/0209_rv.mp4	0.0	305.88218998908997	2.500370979309082
60	275.62438702583313	pulse	1	t		58.0	2.5	/experiments/knapen_AOT/AOT_stimuli/rescaled_final/0209_rv.mp4	0.0	306.66579508781433	
60	277.22464990615845	pulse	1	t		58.0	2.5	/experiments/knapen_AOT/AOT_stimuli/rescaled_final/0209_rv.mp4	0.0	308.26605796813965	
60	277.34115290641785	fix_post	2		12	58.0	2.5	/experiments/knapen_AOT/AOT_stimuli/rescaled_final/0209_rv.mp4	0.0	308.38256096839905	0.09998917579650879
61	277.44114208221436	fix_pre	0		120	59.0	2.5	/experiments/knapen_AOT/AOT_stimuli/rescaled_final/0729_fw.mp4	0.0	308.48255014419556	1.0001678466796875
61	278.44130992889404	movie	1		243	59.0	2.5	/experiments/knapen_AOT/AOT_stimuli/rescaled_final/0729_fw.mp4	0.0	309.48271799087524	2.492027997970581
61	278.8255500793457	pulse	1	t		59.0	2.5	/experiments/knapen_AOT/AOT_stimuli/rescaled_final/0729_fw.mp4	0.0	309.8669581413269	
61	280.4252550601959	pulse	1	t		59.0	2.5	/experiments/knapen_AOT/AOT_stimuli/rescaled_final/0729_fw.mp4	0.0	311.4666631221771	
61	280.9333379268646	fix_post	2		12	59.0	2.5	/experiments/knapen_AOT/AOT_stimuli/rescaled_final/0729_fw.mp4	0.0	311.9747459888458	0.10001802444458008
62	281.0333559513092	fix_pre	0		120	60.0	2.5	/experiments/knapen_AOT/AOT_stimuli/rescaled_final/0763_fw.mp4	0.0	312.0747640132904	1.0001721382141113
62	282.02534890174866	pulse	0	t		60.0	2.5	/experiments/knapen_AOT/AOT_stimuli/rescaled_final/0763_fw.mp4	0.0	313.06675696372986	
62	282.0335280895233	movie	1		247	60.0	2.5	/experiments/knapen_AOT/AOT_stimuli/rescaled_final/0763_fw.mp4	0.0	313.0749361515045	2.5086669921875
62	283.6263909339905	pulse	1	t		60.0	2.5	/experiments/knapen_AOT/AOT_stimuli/rescaled_final/0763_fw.mp4	0.0	314.6677989959717	
62	284.5421950817108	fix_post	2		12	60.0	2.5	/experiments/knapen_AOT/AOT_stimuli/rescaled_final/0763_fw.mp4	0.0	315.583603143692	0.10004091262817383
63	284.642235994339	fix_pre	0		120	61.0	2.5	/experiments/knapen_AOT/AOT_stimuli/rescaled_final/0912_rv.mp4	0.0	315.6836440563202	1.000154972076416
63	285.2258520126343	pulse	0	t		61.0	2.5	/experiments/knapen_AOT/AOT_stimuli/rescaled_final/0912_rv.mp4	0.0	316.2672600746155	
63	285.6423909664154	movie	1		245	61.0	2.5	/experiments/knapen_AOT/AOT_stimuli/rescaled_final/0912_rv.mp4	0.0	316.6837990283966	2.5003979206085205
63	286.8261470794678	pulse	1	t		61.0	2.5	/experiments/knapen_AOT/AOT_stimuli/rescaled_final/0912_rv.mp4	0.0	317.867555141449	
63	288.1427888870239	fix_post	2		12	61.0	2.5	/experiments/knapen_AOT/AOT_stimuli/rescaled_final/0912_rv.mp4	0.0	319.1841969490051	0.09995222091674805
64	288.2427411079407	fix_pre	0		120	62.0	2.5	blank	1.0	319.2841491699219	1.0001838207244873
64	288.4263858795166	pulse	0	t		62.0	2.5	blank	1.0	319.4677939414978	
64	289.24292492866516	movie	1		300	62.0	2.5	blank	1.0	320.28433299064636	2.500365972518921
64	290.02655005455017	pulse	1	t		62.0	2.5	blank	1.0	321.0679581165314	
64	291.6268789768219	pulse	1	t		62.0	2.5	blank	1.0	322.6682870388031	
64	291.7432909011841	fix_post	2		12	62.0	2.5	blank	1.0	322.7846989631653	0.10001301765441895
65	291.8433039188385	fix_pre	0		120	63.0	2.5	/experiments/knapen_AOT/AOT_stimuli/rescaled_final/0729_fw.mp4	0.0	322.8847119808197	1.0001471042633057
65	292.8434510231018	movie	1		244	63.0	2.5	/experiments/knapen_AOT/AOT_stimuli/rescaled_final/0729_fw.mp4	0.0	323.884859085083	2.5004138946533203
65	293.22764110565186	pulse	1	t		63.0	2.5	/experiments/knapen_AOT/AOT_stimuli/rescaled_final/0729_fw.mp4	0.0	324.26904916763306	
65	294.82737588882446	pulse	1	t		63.0	2.5	/experiments/knapen_AOT/AOT_stimuli/rescaled_final/0729_fw.mp4	0.0	325.86878395080566	
65	295.3438649177551	fix_post	2		12	63.0	2.5	/experiments/knapen_AOT/AOT_stimuli/rescaled_final/0729_fw.mp4	0.0	326.3852729797363	0.0999751091003418
66	295.44384002685547	fix_pre	0		119	64.0	2.5	/experiments/knapen_AOT/AOT_stimuli/rescaled_final/0376_fw.mp4	0.0	326.48524808883667	0.9918458461761475
66	296.42751288414	pulse	0	t		64.0	2.5	/experiments/knapen_AOT/AOT_stimuli/rescaled_final/0376_fw.mp4	0.0	327.4689209461212	
66	296.4356858730316	movie	1		246	64.0	2.5	/experiments/knapen_AOT/AOT_stimuli/rescaled_final/0376_fw.mp4	0.0	327.4770939350128	2.508794069290161
66	298.02818298339844	pulse	1	t		64.0	2.5	/experiments/knapen_AOT/AOT_stimuli/rescaled_final/0376_fw.mp4	0.0	329.06959104537964	
66	298.9444799423218	fix_post	2		12	64.0	2.5	/experiments/knapen_AOT/AOT_stimuli/rescaled_final/0376_fw.mp4	0.0	329.985888004303	0.09991812705993652
67	299.0443980693817	fix_pre	0		120	65.0	2.5	/experiments/knapen_AOT/AOT_stimuli/rescaled_final/1280_rv.mp4	0.0	330.0858061313629	1.0001609325408936
67	299.6281089782715	pulse	0	t		65.0	2.5	/experiments/knapen_AOT/AOT_stimuli/rescaled_final/1280_rv.mp4	0.0	330.6695170402527	
67	300.0445590019226	movie	1		245	65.0	2.5	/experiments/knapen_AOT/AOT_stimuli/rescaled_final/1280_rv.mp4	0.0	331.0859670639038	2.5003340244293213
67	301.22829389572144	pulse	1	t		65.0	2.5	/experiments/knapen_AOT/AOT_stimuli/rescaled_final/1280_rv.mp4	0.0	332.26970195770264	
67	302.54489302635193	fix_post	2		12	65.0	2.5	/experiments/knapen_AOT/AOT_stimuli/rescaled_final/1280_rv.mp4	0.0	333.58630108833313	0.10001587867736816
68	302.6449089050293	fix_pre	0		120	66.0	2.5	/experiments/knapen_AOT/AOT_stimuli/rescaled_final/0996_rv.mp4	0.0	333.6863169670105	1.0001590251922607
68	302.82851791381836	pulse	0	t		66.0	2.5	/experiments/knapen_AOT/AOT_stimuli/rescaled_final/0996_rv.mp4	0.0	333.86992597579956	
68	303.64506793022156	movie	1		247	66.0	2.5	/experiments/knapen_AOT/AOT_stimuli/rescaled_final/0996_rv.mp4	0.0	334.68647599220276	2.5004899501800537
68	304.4287540912628	pulse	1	t		66.0	2.5	/experiments/knapen_AOT/AOT_stimuli/rescaled_final/0996_rv.mp4	0.0	335.470162153244	
68	306.0265669822693	pulse	1	t		66.0	2.5	/experiments/knapen_AOT/AOT_stimuli/rescaled_final/0996_rv.mp4	0.0	337.0679750442505	
68	306.1455578804016	fix_post	2		12	66.0	2.5	/experiments/knapen_AOT/AOT_stimuli/rescaled_final/0996_rv.mp4	0.0	337.1869659423828	0.09988903999328613
69	306.2454469203949	fix_pre	0		120	67.0	2.5	/experiments/knapen_AOT/AOT_stimuli/rescaled_final/1403_fw.mp4	0.0	337.2868549823761	1.0001580715179443
69	307.24560499191284	movie	1		244	67.0	2.5	/experiments/knapen_AOT/AOT_stimuli/rescaled_final/1403_fw.mp4	0.0	338.28701305389404	2.492219924926758
69	307.63043093681335	pulse	1	t		67.0	2.5	/experiments/knapen_AOT/AOT_stimuli/rescaled_final/1403_fw.mp4	0.0	338.67183899879456	
69	309.22223806381226	pulse	1	t		67.0	2.5	/experiments/knapen_AOT/AOT_stimuli/rescaled_final/1403_fw.mp4	0.0	340.26364612579346	
69	309.7378249168396	fix_post	2		12	67.0	2.5	/experiments/knapen_AOT/AOT_stimuli/rescaled_final/1403_fw.mp4	0.0	340.7792329788208	0.09981107711791992
70	309.8376359939575	fix_pre	0		120	68.0	2.5	/experiments/knapen_AOT/AOT_stimuli/rescaled_final/0202_fw.mp4	0.0	340.8790440559387	1.0002009868621826
70	310.8297441005707	pulse	0	t		68.0	2.5	/experiments/knapen_AOT/AOT_stimuli/rescaled_final/0202_fw.mp4	0.0	341.8711521625519	
70	310.8378369808197	movie	1		246	68.0	2.5	/experiments/knapen_AOT/AOT_stimuli/rescaled_final/0202_fw.mp4	0.0	341.8792450428009	2.5086569786071777
70	312.43055295944214	pulse	1	t		68.0	2.5	/experiments/knapen_AOT/AOT_stimuli/rescaled_final/0202_fw.mp4	0.0	343.47196102142334	
70	313.3464939594269	fix_post	2		12	68.0	2.5	/experiments/knapen_AOT/AOT_stimuli/rescaled_final/0202_fw.mp4	0.0	344.3879020214081	0.10001111030578613
71	313.44650506973267	fix_pre	0		120	69.0	2.5	/experiments/knapen_AOT/AOT_stimuli/rescaled_final/1900_rv.mp4	0.0	344.48791313171387	1.0001869201660156
71	314.02266788482666	pulse	0	t		69.0	2.5	/experiments/knapen_AOT/AOT_stimuli/rescaled_final/1900_rv.mp4	0.0	345.06407594680786	
71	314.4466919898987	movie	1		245	69.0	2.5	/experiments/knapen_AOT/AOT_stimuli/rescaled_final/1900_rv.mp4	0.0	345.4881000518799	2.500380039215088
71	315.6225850582123	pulse	1	t		69.0	2.5	/experiments/knapen_AOT/AOT_stimuli/rescaled_final/1900_rv.mp4	0.0	346.6639931201935	
71	316.94707202911377	fix_post	2		12	69.0	2.5	/experiments/knapen_AOT/AOT_stimuli/rescaled_final/1900_rv.mp4	0.0	347.98848009109497	0.10001587867736816
72	317.04708790779114	fix_pre	0		120	70.0	2.5	blank	1.0	348.08849596977234	1.0001580715179443
72	317.22320795059204	pulse	0	t		70.0	2.5	blank	1.0	348.26461601257324	
72	318.0472459793091	movie	1		300	70.0	2.5	blank	1.0	349.0886540412903	2.500375986099243
72	318.8224890232086	pulse	1	t		70.0	2.5	blank	1.0	349.8638970851898	
72	320.4228050708771	pulse	1	t		70.0	2.5	blank	1.0	351.4642131328583	
72	320.5476219654083	fix_post	2		12	70.0	2.5	blank	1.0	351.5890300273895	0.09997105598449707
73	320.6475930213928	fix_pre	0		120	71.0	2.5	/experiments/knapen_AOT/AOT_stimuli/rescaled_final/0979_fw.mp4	0.0	351.689001083374	1.0001518726348877
73	321.6477448940277	movie	1		244	71.0	2.5	/experiments/knapen_AOT/AOT_stimuli/rescaled_final/0979_fw.mp4	0.0	352.6891529560089	2.4920639991760254
73	322.02300906181335	pulse	1	t		71.0	2.5	/experiments/knapen_AOT/AOT_stimuli/rescaled_final/0979_fw.mp4	0.0	353.06441712379456	
73	323.62346506118774	pulse	1	t		71.0	2.5	/experiments/knapen_AOT/AOT_stimuli/rescaled_final/0979_fw.mp4	0.0	354.66487312316895	
73	324.13980889320374	fix_post	2		12	71.0	2.5	/experiments/knapen_AOT/AOT_stimuli/rescaled_final/0979_fw.mp4	0.0	355.18121695518494	0.09997320175170898
74	324.23978209495544	fix_pre	0		119	72.0	2.5	/experiments/knapen_AOT/AOT_stimuli/rescaled_final/1783_fw.mp4	0.0	355.28119015693665	0.9918758869171143
74	325.22344493865967	pulse	0	t		72.0	2.5	/experiments/knapen_AOT/AOT_stimuli/rescaled_final/1783_fw.mp4	0.0	356.26485300064087	
74	325.23165798187256	movie	1		245	72.0	2.5	/experiments/knapen_AOT/AOT_stimuli/rescaled_final/1783_fw.mp4	0.0	356.27306604385376	2.5086629390716553
74	326.8285150527954	pulse	1	t		72.0	2.5	/experiments/knapen_AOT/AOT_stimuli/rescaled_final/1783_fw.mp4	0.0	357.8699231147766	
74	327.7403209209442	fix_post	2		12	72.0	2.5	/experiments/knapen_AOT/AOT_stimuli/rescaled_final/1783_fw.mp4	0.0	358.7817289829254	0.10000395774841309
75	327.8403248786926	fix_pre	0		117	73.0	2.5	/experiments/knapen_AOT/AOT_stimuli/rescaled_final/2144_fw.mp4	0.0	358.8817329406738	1.0001702308654785
75	328.4240939617157	pulse	0	t		73.0	2.5	/experiments/knapen_AOT/AOT_stimuli/rescaled_final/2144_fw.mp4	0.0	359.4655020236969	
75	328.8404951095581	movie	1		250	73.0	2.5	/experiments/knapen_AOT/AOT_stimuli/rescaled_final/2144_fw.mp4	0.0	359.8819031715393	2.5003647804260254
75	330.0243089199066	pulse	1	t		73.0	2.5	/experiments/knapen_AOT/AOT_stimuli/rescaled_final/2144_fw.mp4	0.0	361.0657169818878	
75	331.34085988998413	fix_post	2		12	73.0	2.5	/experiments/knapen_AOT/AOT_stimuli/rescaled_final/2144_fw.mp4	0.0	362.38226795196533	0.10001015663146973
76	331.4408700466156	fix_pre	0		120	74.0	2.5	/experiments/knapen_AOT/AOT_stimuli/rescaled_final/0023_rv.mp4	0.0	362.4822781085968	1.0001239776611328
76	331.6244249343872	pulse	0	t		74.0	2.5	/experiments/knapen_AOT/AOT_stimuli/rescaled_final/0023_rv.mp4	0.0	362.6658329963684	
76	332.44099402427673	movie	1		250	74.0	2.5	/experiments/knapen_AOT/AOT_stimuli/rescaled_final/0023_rv.mp4	0.0	363.48240208625793	2.5004019737243652
76	333.22466492652893	pulse	1	t		74.0	2.5	/experiments/knapen_AOT/AOT_stimuli/rescaled_final/0023_rv.mp4	0.0	364.26607298851013	
76	334.82504391670227	pulse	1	t		74.0	2.5	/experiments/knapen_AOT/AOT_stimuli/rescaled_final/0023_rv.mp4	0.0	365.8664519786835	
76	334.9413959980011	fix_post	2		12	74.0	2.5	/experiments/knapen_AOT/AOT_stimuli/rescaled_final/0023_rv.mp4	0.0	365.9828040599823	0.10004711151123047
77	335.04144310951233	fix_pre	0		119	75.0	2.5	/experiments/knapen_AOT/AOT_stimuli/rescaled_final/0967_fw.mp4	0.0	366.08285117149353	0.9917497634887695
77	336.0331928730011	movie	1		249	75.0	2.5	/experiments/knapen_AOT/AOT_stimuli/rescaled_final/0967_fw.mp4	0.0	367.0746009349823	2.500404119491577
77	336.4252200126648	pulse	1	t		75.0	2.5	/experiments/knapen_AOT/AOT_stimuli/rescaled_final/0967_fw.mp4	0.0	367.466628074646	
77	338.0254080295563	pulse	1	t		75.0	2.5	/experiments/knapen_AOT/AOT_stimuli/rescaled_final/0967_fw.mp4	0.0	369.0668160915375	
77	338.5335969924927	fix_post	2		12	75.0	2.5	/experiments/knapen_AOT/AOT_stimuli/rescaled_final/0967_fw.mp4	0.0	369.5750050544739	0.10002398490905762
78	338.63362097740173	fix_pre	0		120	76.0	2.5	blank	1.0	369.67502903938293	1.0001869201660156
78	339.62562894821167	pulse	0	t		76.0	2.5	blank	1.0	370.66703701019287	
78	339.63380789756775	movie	1		301	76.0	2.5	blank	1.0	370.67521595954895	2.5086700916290283
78	341.2259120941162	pulse	1	t		76.0	2.5	blank	1.0	372.2673201560974	
78	342.1424779891968	fix_post	2		12	76.0	2.5	blank	1.0	373.183886051178	0.09999990463256836
79	342.24247789382935	fix_pre	0		120	77.0	2.5	/experiments/knapen_AOT/AOT_stimuli/rescaled_final/0078_rv.mp4	0.0	373.28388595581055	1.0001580715179443
79	342.8261830806732	pulse	0	t		77.0	2.5	/experiments/knapen_AOT/AOT_stimuli/rescaled_final/0078_rv.mp4	0.0	373.8675911426544	
79	343.2426359653473	movie	1		246	77.0	2.5	/experiments/knapen_AOT/AOT_stimuli/rescaled_final/0078_rv.mp4	0.0	374.2840440273285	2.5005180835723877
79	344.42649602890015	pulse	1	t		77.0	2.5	/experiments/knapen_AOT/AOT_stimuli/rescaled_final/0078_rv.mp4	0.0	375.46790409088135	
79	345.7431540489197	fix_post	2		12	77.0	2.5	/experiments/knapen_AOT/AOT_stimuli/rescaled_final/0078_rv.mp4	0.0	376.7845621109009	0.09986400604248047
80	345.84301805496216	fix_pre	0		120	78.0	2.5	/experiments/knapen_AOT/AOT_stimuli/rescaled_final/0448_fw.mp4	0.0	376.88442611694336	1.0001769065856934
80	346.02659606933594	pulse	0	t		78.0	2.5	/experiments/knapen_AOT/AOT_stimuli/rescaled_final/0448_fw.mp4	0.0	377.06800413131714	
80	346.84319496154785	movie	1		245	78.0	2.5	/experiments/knapen_AOT/AOT_stimuli/rescaled_final/0448_fw.mp4	0.0	377.88460302352905	2.5003390312194824
80	347.6268730163574	pulse	1	t		78.0	2.5	/experiments/knapen_AOT/AOT_stimuli/rescaled_final/0448_fw.mp4	0.0	378.6682810783386	
80	349.22717690467834	pulse	1	t		78.0	2.5	/experiments/knapen_AOT/AOT_stimuli/rescaled_final/0448_fw.mp4	0.0	380.26858496665955	
80	349.34353399276733	fix_post	2		12	78.0	2.5	/experiments/knapen_AOT/AOT_stimuli/rescaled_final/0448_fw.mp4	0.0	380.38494205474854	0.09996509552001953
81	349.44349908828735	fix_pre	0		119	79.0	2.5	/experiments/knapen_AOT/AOT_stimuli/rescaled_final/1832_rv.mp4	0.0	380.48490715026855	0.9918978214263916
81	350.43539690971375	movie	1		245	79.0	2.5	/experiments/knapen_AOT/AOT_stimuli/rescaled_final/1832_rv.mp4	0.0	381.47680497169495	2.5003230571746826
81	350.82740688323975	pulse	1	t		79.0	2.5	/experiments/knapen_AOT/AOT_stimuli/rescaled_final/1832_rv.mp4	0.0	381.86881494522095	
81	352.42767906188965	pulse	1	t		79.0	2.5	/experiments/knapen_AOT/AOT_stimuli/rescaled_final/1832_rv.mp4	0.0	383.46908712387085	
81	352.9357199668884	fix_post	2		12	79.0	2.5	/experiments/knapen_AOT/AOT_stimuli/rescaled_final/1832_rv.mp4	0.0	383.97712802886963	0.10001301765441895
82	353.03573298454285	fix_pre	0		120	80.0	2.5	/experiments/knapen_AOT/AOT_stimuli/rescaled_final/2029_fw.mp4	0.0	384.07714104652405	1.0002779960632324
82	354.02774310112	pulse	0	t		80.0	2.5	/experiments/knapen_AOT/AOT_stimuli/rescaled_final/2029_fw.mp4	0.0	385.0691511631012	
82	354.0360109806061	movie	1		246	80.0	2.5	/experiments/knapen_AOT/AOT_stimuli/rescaled_final/2029_fw.mp4	0.0	385.0774190425873	2.5085980892181396
82	355.6282448768616	pulse	1	t		80.0	2.5	/experiments/knapen_AOT/AOT_stimuli/rescaled_final/2029_fw.mp4	0.0	386.6696529388428	
82	356.5446090698242	fix_post	2		12	80.0	2.5	/experiments/knapen_AOT/AOT_stimuli/rescaled_final/2029_fw.mp4	0.0	387.5860171318054	0.10004496574401855
83	356.64465403556824	fix_pre	0		120	81.0	2.5	/experiments/knapen_AOT/AOT_stimuli/rescaled_final/1214_fw.mp4	0.0	387.68606209754944	1.0001220703125
83	357.2283170223236	pulse	0	t		81.0	2.5	/experiments/knapen_AOT/AOT_stimuli/rescaled_final/1214_fw.mp4	0.0	388.2697250843048	
83	357.64477610588074	movie	1		245	81.0	2.5	/experiments/knapen_AOT/AOT_stimuli/rescaled_final/1214_fw.mp4	0.0	388.68618416786194	2.5003578662872314
83	358.82867789268494	pulse	1	t		81.0	2.5	/experiments/knapen_AOT/AOT_stimuli/rescaled_final/1214_fw.mp4	0.0	389.87008595466614	
83	360.14513397216797	fix_post	2		12	81.0	2.5	/experiments/knapen_AOT/AOT_stimuli/rescaled_final/1214_fw.mp4	0.0	391.18654203414917	0.10003113746643066
84	360.2451651096344	fix_pre	0		120	82.0	2.5	blank	1.0	391.2865731716156	1.000147819519043
84	360.4287419319153	pulse	0	t		82.0	2.5	blank	1.0	391.4701499938965	
84	361.24531292915344	movie	1		300	82.0	2.5	blank	1.0	392.28672099113464	2.5003931522369385
84	362.0288898944855	pulse	1	t		82.0	2.5	blank	1.0	393.0702979564667	
84	363.62926197052	pulse	1	t		82.0	2.5	blank	1.0	394.6706700325012	
84	363.7457060813904	fix_post	2		12	82.0	2.5	blank	1.0	394.7871141433716	0.09999394416809082
85	363.8457000255585	fix_pre	0		120	83.0	2.5	/experiments/knapen_AOT/AOT_stimuli/rescaled_final/0576_rv.mp4	0.0	394.8871080875397	1.0001909732818604
85	364.84589099884033	movie	1		245	83.0	2.5	/experiments/knapen_AOT/AOT_stimuli/rescaled_final/0576_rv.mp4	0.0	395.88729906082153	2.4920248985290527
85	365.2337579727173	pulse	1	t		83.0	2.5	/experiments/knapen_AOT/AOT_stimuli/rescaled_final/0576_rv.mp4	0.0	396.2751660346985	
85	366.8224558830261	pulse	1	t		83.0	2.5	/experiments/knapen_AOT/AOT_stimuli/rescaled_final/0576_rv.mp4	0.0	397.8638639450073	
85	367.3379158973694	fix_post	2		12	83.0	2.5	/experiments/knapen_AOT/AOT_stimuli/rescaled_final/0576_rv.mp4	0.0	398.3793239593506	0.09998798370361328
87	367.437903881073	stim	0		1716					398.4793119430542	14.302304029464722
87	368.42264199256897	pulse	0	t						399.46405005455017	
87	370.0227749347687	pulse	0	t						401.0641829967499	
87	371.6219470500946	pulse	0	t						402.6633551120758	
87	373.22221994400024	pulse	0	t						404.26362800598145	
87	374.8224320411682	pulse	0	t						405.8638401031494	
87	376.4227440357208	pulse	0	t						407.464152097702	
87	378.022989988327	pulse	0	t						409.0643980503082	
87	379.62330889701843	pulse	0	t						410.66471695899963	
87	381.22339701652527	pulse	0	t						412.26480507850647	
