trial_nr	onset	event_type	phase	response	nr_frames	movie_index	movie_duration	movie_file	blank	onset_abs	duration
0	0.16650176048278809	stim	0		11					22.496509313583374	0.0914919376373291
0	0.2500746250152588	response	0	space						22.580082178115845	
1	0.2579936981201172	stim	0		3823					22.588001251220703	31.875826597213745
1	32.11881399154663	pulse	0	t						54.44882154464722	
1	32.13382029533386	stim	1		1714					54.46382784843445	14.297827959060669
1	33.7132408618927	pulse	1	t						56.043248414993286	
1	35.31350016593933	pulse	1	t						57.64350771903992	
1	36.91375279426575	pulse	1	t						59.24376034736633	
1	38.51394248008728	pulse	1	t						60.843950033187866	
1	40.11416530609131	pulse	1	t						62.444172859191895	
1	41.71466827392578	pulse	1	t						64.04467582702637	
1	43.31482934951782	pulse	1	t						65.64483690261841	
1	44.91489815711975	pulse	1	t						67.24490571022034	
2	46.43164825439453	fix_pre	0		11	0.0	2.5	/experiments/Knapen_AOT/AOT_stimuli/rescaled_final/0081_fw.mp4	0.0	68.76165580749512	0.1083841323852539
2	46.51536226272583	pulse	0	t		0.0	2.5	/experiments/Knapen_AOT/AOT_stimuli/rescaled_final/0081_fw.mp4	0.0	68.84536981582642	
2	46.540032386779785	movie	1		284	0.0	2.5	/experiments/Knapen_AOT/AOT_stimuli/rescaled_final/0081_fw.mp4	0.0	68.87003993988037	2.4920778274536133
2	48.11374235153198	pulse	1	t		0.0	2.5	/experiments/Knapen_AOT/AOT_stimuli/rescaled_final/0081_fw.mp4	0.0	70.44374990463257	
2	49.0321102142334	fix_post	2		12	0.0	2.5	/experiments/Knapen_AOT/AOT_stimuli/rescaled_final/0081_fw.mp4	0.0	71.36211776733398	0.09997177124023438
3	49.13208198547363	fix_pre	0		120	1.0	2.5	/experiments/Knapen_AOT/AOT_stimuli/rescaled_final/1137_fw.mp4	0.0	71.46208953857422	1.008451223373413
3	49.715853452682495	pulse	0	t		1.0	2.5	/experiments/Knapen_AOT/AOT_stimuli/rescaled_final/1137_fw.mp4	0.0	72.04586100578308	
3	50.140533208847046	movie	1		288	1.0	2.5	/experiments/Knapen_AOT/AOT_stimuli/rescaled_final/1137_fw.mp4	0.0	72.47054076194763	2.4920265674591064
3	51.31414842605591	pulse	1	t		1.0	2.5	/experiments/Knapen_AOT/AOT_stimuli/rescaled_final/1137_fw.mp4	0.0	73.6441559791565	
3	52.63255977630615	fix_post	2		12	1.0	2.5	/experiments/Knapen_AOT/AOT_stimuli/rescaled_final/1137_fw.mp4	0.0	74.96256732940674	0.10003352165222168
4	52.732593297958374	fix_pre	0		120	2.0	2.5	/experiments/Knapen_AOT/AOT_stimuli/rescaled_final/0789_fw.mp4	0.0	75.06260085105896	1.0085833072662354
4	52.90830039978027	pulse	0	t		2.0	2.5	/experiments/Knapen_AOT/AOT_stimuli/rescaled_final/0789_fw.mp4	0.0	75.23830795288086	
4	53.74117660522461	movie	1		294	2.0	2.5	/experiments/Knapen_AOT/AOT_stimuli/rescaled_final/0789_fw.mp4	0.0	76.0711841583252	2.492060661315918
4	54.50839948654175	pulse	1	t		2.0	2.5	/experiments/Knapen_AOT/AOT_stimuli/rescaled_final/0789_fw.mp4	0.0	76.83840703964233	
4	56.10826563835144	pulse	1	t		2.0	2.5	/experiments/Knapen_AOT/AOT_stimuli/rescaled_final/0789_fw.mp4	0.0	78.43827319145203	
4	56.23323726654053	fix_post	2		12	2.0	2.5	/experiments/Knapen_AOT/AOT_stimuli/rescaled_final/0789_fw.mp4	0.0	78.56324481964111	0.09990501403808594
5	56.33314228057861	fix_pre	0		120	3.0	2.5	/experiments/Knapen_AOT/AOT_stimuli/rescaled_final/0420_rv.mp4	0.0	78.6631498336792	1.0084877014160156
5	57.34162998199463	movie	1		295	3.0	2.5	/experiments/Knapen_AOT/AOT_stimuli/rescaled_final/0420_rv.mp4	0.0	79.67163753509521	2.492063522338867
5	57.70854926109314	pulse	1	t		3.0	2.5	/experiments/Knapen_AOT/AOT_stimuli/rescaled_final/0420_rv.mp4	0.0	80.03855681419373	
5	59.308757305145264	pulse	1	t		3.0	2.5	/experiments/Knapen_AOT/AOT_stimuli/rescaled_final/0420_rv.mp4	0.0	81.63876485824585	
5	59.833693504333496	fix_post	2		12	3.0	2.5	/experiments/Knapen_AOT/AOT_stimuli/rescaled_final/0420_rv.mp4	0.0	82.16370105743408	0.10015153884887695
6	59.93384504318237	fix_pre	0		118	4.0	2.5	/experiments/Knapen_AOT/AOT_stimuli/rescaled_final/0240_fw.mp4	0.0	82.26385259628296	0.9917819499969482
6	60.90901851654053	pulse	0	t		4.0	2.5	/experiments/Knapen_AOT/AOT_stimuli/rescaled_final/0240_fw.mp4	0.0	83.23902606964111	
6	60.92562699317932	movie	1		283	4.0	2.5	/experiments/Knapen_AOT/AOT_stimuli/rescaled_final/0240_fw.mp4	0.0	83.25563454627991	2.5002071857452393
6	62.5094690322876	pulse	1	t		4.0	2.5	/experiments/Knapen_AOT/AOT_stimuli/rescaled_final/0240_fw.mp4	0.0	84.83947658538818	
6	63.42583417892456	fix_post	2		12	4.0	2.5	/experiments/Knapen_AOT/AOT_stimuli/rescaled_final/0240_fw.mp4	0.0	85.75584173202515	0.10002470016479492
7	63.525858879089355	fix_pre	0		120	5.0	2.5	/experiments/Knapen_AOT/AOT_stimuli/rescaled_final/0982_fw.mp4	0.0	85.85586643218994	1.0085108280181885
7	64.10986995697021	pulse	0	t		5.0	2.5	/experiments/Knapen_AOT/AOT_stimuli/rescaled_final/0982_fw.mp4	0.0	86.4398775100708	
7	64.53436970710754	movie	1		294	5.0	2.5	/experiments/Knapen_AOT/AOT_stimuli/rescaled_final/0982_fw.mp4	0.0	86.86437726020813	2.4920239448547363
7	65.7098319530487	pulse	1	t		5.0	2.5	/experiments/Knapen_AOT/AOT_stimuli/rescaled_final/0982_fw.mp4	0.0	88.03983950614929	
7	67.02639365196228	fix_post	2		12	5.0	2.5	/experiments/Knapen_AOT/AOT_stimuli/rescaled_final/0982_fw.mp4	0.0	89.35640120506287	0.10002851486206055
8	67.12642216682434	fix_pre	0		120	6.0	2.5	/experiments/Knapen_AOT/AOT_stimuli/rescaled_final/2042_fw.mp4	0.0	89.45642971992493	1.008486270904541
8	67.30996608734131	pulse	0	t		6.0	2.5	/experiments/Knapen_AOT/AOT_stimuli/rescaled_final/2042_fw.mp4	0.0	89.6399736404419	
8	68.13490843772888	movie	1		289	6.0	2.5	/experiments/Knapen_AOT/AOT_stimuli/rescaled_final/2042_fw.mp4	0.0	90.46491599082947	2.492015838623047
8	68.91038393974304	pulse	1	t		6.0	2.5	/experiments/Knapen_AOT/AOT_stimuli/rescaled_final/2042_fw.mp4	0.0	91.24039149284363	
8	70.50855946540833	pulse	1	t		6.0	2.5	/experiments/Knapen_AOT/AOT_stimuli/rescaled_final/2042_fw.mp4	0.0	92.83856701850891	
8	70.62692427635193	fix_post	2		12	6.0	2.5	/experiments/Knapen_AOT/AOT_stimuli/rescaled_final/2042_fw.mp4	0.0	92.95693182945251	0.10003352165222168
9	70.72695779800415	fix_pre	0		120	7.0	2.5	blank	1.0	93.05696535110474	1.0001475811004639
9	71.72710537910461	movie	1		300	7.0	2.5	blank	1.0	94.0571129322052	2.5003747940063477
9	72.11067485809326	pulse	1	t		7.0	2.5	blank	1.0	94.44068241119385	
9	73.71092653274536	pulse	1	t		7.0	2.5	blank	1.0	96.04093408584595	
9	74.22748017311096	fix_post	2		12	7.0	2.5	blank	1.0	96.55748772621155	0.10000300407409668
10	74.32748317718506	fix_pre	0		119	8.0	2.5	/experiments/Knapen_AOT/AOT_stimuli/rescaled_final/0028_fw.mp4	0.0	96.65749073028564	1.000180721282959
10	75.31119775772095	pulse	0	t		8.0	2.5	/experiments/Knapen_AOT/AOT_stimuli/rescaled_final/0028_fw.mp4	0.0	97.64120531082153	
10	75.32766389846802	movie	1		280	8.0	2.5	/experiments/Knapen_AOT/AOT_stimuli/rescaled_final/0028_fw.mp4	0.0	97.6576714515686	2.5003440380096436
10	76.91186332702637	pulse	1	t		8.0	2.5	/experiments/Knapen_AOT/AOT_stimuli/rescaled_final/0028_fw.mp4	0.0	99.24187088012695	
10	77.82800793647766	fix_post	2		12	8.0	2.5	/experiments/Knapen_AOT/AOT_stimuli/rescaled_final/0028_fw.mp4	0.0	100.15801548957825	0.10003328323364258
11	77.9280412197113	fix_pre	0		120	9.0	2.5	/experiments/Knapen_AOT/AOT_stimuli/rescaled_final/1585_fw.mp4	0.0	100.25804877281189	1.0084927082061768
11	78.51171278953552	pulse	0	t		9.0	2.5	/experiments/Knapen_AOT/AOT_stimuli/rescaled_final/1585_fw.mp4	0.0	100.84172034263611	
11	78.93653392791748	movie	1		283	9.0	2.5	/experiments/Knapen_AOT/AOT_stimuli/rescaled_final/1585_fw.mp4	0.0	101.26654148101807	2.492023468017578
11	80.11060166358948	pulse	1	t		9.0	2.5	/experiments/Knapen_AOT/AOT_stimuli/rescaled_final/1585_fw.mp4	0.0	102.44060921669006	
11	81.42855739593506	fix_post	2		12	9.0	2.5	/experiments/Knapen_AOT/AOT_stimuli/rescaled_final/1585_fw.mp4	0.0	103.75856494903564	0.10002851486206055
12	81.52858591079712	fix_pre	0		120	10.0	2.5	/experiments/Knapen_AOT/AOT_stimuli/rescaled_final/1484_fw.mp4	0.0	103.8585934638977	1.008622646331787
12	81.71208500862122	pulse	0	t		10.0	2.5	/experiments/Knapen_AOT/AOT_stimuli/rescaled_final/1484_fw.mp4	0.0	104.0420925617218	
12	82.5372085571289	movie	1		267	10.0	2.5	/experiments/Knapen_AOT/AOT_stimuli/rescaled_final/1484_fw.mp4	0.0	104.86721611022949	2.4918742179870605
12	83.31052327156067	pulse	1	t		10.0	2.5	/experiments/Knapen_AOT/AOT_stimuli/rescaled_final/1484_fw.mp4	0.0	105.64053082466125	
12	84.91092133522034	pulse	1	t		10.0	2.5	/experiments/Knapen_AOT/AOT_stimuli/rescaled_final/1484_fw.mp4	0.0	107.24092888832092	
12	85.02908277511597	fix_post	2		12	10.0	2.5	/experiments/Knapen_AOT/AOT_stimuli/rescaled_final/1484_fw.mp4	0.0	107.35909032821655	0.10002684593200684
13	85.12910962104797	fix_pre	0		120	11.0	2.5	/experiments/Knapen_AOT/AOT_stimuli/rescaled_final/1577_fw.mp4	0.0	107.45911717414856	1.0085246562957764
13	86.13763427734375	movie	1		289	11.0	2.5	/experiments/Knapen_AOT/AOT_stimuli/rescaled_final/1577_fw.mp4	0.0	108.46764183044434	2.492169141769409
13	86.51143336296082	pulse	1	t		11.0	2.5	/experiments/Knapen_AOT/AOT_stimuli/rescaled_final/1577_fw.mp4	0.0	108.8414409160614	
13	88.11127877235413	pulse	1	t		11.0	2.5	/experiments/Knapen_AOT/AOT_stimuli/rescaled_final/1577_fw.mp4	0.0	110.44128632545471	
13	88.62980341911316	fix_post	2		12	11.0	2.5	/experiments/Knapen_AOT/AOT_stimuli/rescaled_final/1577_fw.mp4	0.0	110.95981097221375	0.0998687744140625
14	88.72967219352722	fix_pre	0		119	12.0	2.5	/experiments/Knapen_AOT/AOT_stimuli/rescaled_final/1620_fw.mp4	0.0	111.05967974662781	1.0001490116119385
14	89.71333861351013	pulse	0	t		12.0	2.5	/experiments/Knapen_AOT/AOT_stimuli/rescaled_final/1620_fw.mp4	0.0	112.04334616661072	
14	89.72982120513916	movie	1		282	12.0	2.5	/experiments/Knapen_AOT/AOT_stimuli/rescaled_final/1620_fw.mp4	0.0	112.05982875823975	2.5003538131713867
14	91.3118007183075	pulse	1	t		12.0	2.5	/experiments/Knapen_AOT/AOT_stimuli/rescaled_final/1620_fw.mp4	0.0	113.64180827140808	
14	92.23017501831055	fix_post	2		12	12.0	2.5	/experiments/Knapen_AOT/AOT_stimuli/rescaled_final/1620_fw.mp4	0.0	114.56018257141113	0.10001754760742188
15	92.33019256591797	fix_pre	0		120	13.0	2.5	/experiments/Knapen_AOT/AOT_stimuli/rescaled_final/0925_fw.mp4	0.0	114.66020011901855	1.008591651916504
15	92.91382908821106	pulse	0	t		13.0	2.5	/experiments/Knapen_AOT/AOT_stimuli/rescaled_final/0925_fw.mp4	0.0	115.24383664131165	
15	93.33878421783447	movie	1		279	13.0	2.5	/experiments/Knapen_AOT/AOT_stimuli/rescaled_final/0925_fw.mp4	0.0	115.66879177093506	2.4919493198394775
15	94.51245284080505	pulse	1	t		13.0	2.5	/experiments/Knapen_AOT/AOT_stimuli/rescaled_final/0925_fw.mp4	0.0	116.84246039390564	
15	95.83073353767395	fix_post	2		12	13.0	2.5	/experiments/Knapen_AOT/AOT_stimuli/rescaled_final/0925_fw.mp4	0.0	118.16074109077454	0.10001802444458008
16	95.93075156211853	fix_pre	0		120	14.0	2.5	blank	1.0	118.26075911521912	1.0001180171966553
16	96.11428952217102	pulse	0	t		14.0	2.5	blank	1.0	118.4442970752716	
16	96.93086957931519	movie	1		300	14.0	2.5	blank	1.0	119.26087713241577	2.500361204147339
16	97.71463513374329	pulse	1	t		14.0	2.5	blank	1.0	120.04464268684387	
16	99.3149893283844	pulse	1	t		14.0	2.5	blank	1.0	121.64499688148499	
16	99.43123078346252	fix_post	2		12	14.0	2.5	blank	1.0	121.76123833656311	0.10004544258117676
17	99.5312762260437	fix_pre	0		120	15.0	2.5	/experiments/Knapen_AOT/AOT_stimuli/rescaled_final/0909_fw.mp4	0.0	121.86128377914429	1.0085039138793945
17	100.5397801399231	movie	1		289	15.0	2.5	/experiments/Knapen_AOT/AOT_stimuli/rescaled_final/0909_fw.mp4	0.0	122.86978769302368	2.492035388946533
17	100.91407585144043	pulse	1	t		15.0	2.5	/experiments/Knapen_AOT/AOT_stimuli/rescaled_final/0909_fw.mp4	0.0	123.24408340454102	
17	102.51314234733582	pulse	1	t		15.0	2.5	/experiments/Knapen_AOT/AOT_stimuli/rescaled_final/0909_fw.mp4	0.0	124.8431499004364	
17	103.03181552886963	fix_post	2		12	15.0	2.5	/experiments/Knapen_AOT/AOT_stimuli/rescaled_final/0909_fw.mp4	0.0	125.36182308197021	0.0999913215637207
18	103.13180685043335	fix_pre	0		119	16.0	2.5	/experiments/Knapen_AOT/AOT_stimuli/rescaled_final/1567_rv.mp4	0.0	125.46181440353394	1.0085492134094238
18	104.11587023735046	pulse	0	t		16.0	2.5	/experiments/Knapen_AOT/AOT_stimuli/rescaled_final/1567_rv.mp4	0.0	126.44587779045105	
18	104.14035606384277	movie	1		291	16.0	2.5	/experiments/Knapen_AOT/AOT_stimuli/rescaled_final/1567_rv.mp4	0.0	126.47036361694336	2.4919798374176025
18	105.714111328125	pulse	1	t		16.0	2.5	/experiments/Knapen_AOT/AOT_stimuli/rescaled_final/1567_rv.mp4	0.0	128.0441188812256	
18	106.63233590126038	fix_post	2		12	16.0	2.5	/experiments/Knapen_AOT/AOT_stimuli/rescaled_final/1567_rv.mp4	0.0	128.96234345436096	0.10001277923583984
19	106.73234868049622	fix_pre	0		120	17.0	2.5	/experiments/Knapen_AOT/AOT_stimuli/rescaled_final/0211_fw.mp4	0.0	129.0623562335968	1.0085299015045166
19	107.30892276763916	pulse	0	t		17.0	2.5	/experiments/Knapen_AOT/AOT_stimuli/rescaled_final/0211_fw.mp4	0.0	129.63893032073975	
19	107.74087858200073	movie	1		273	17.0	2.5	/experiments/Knapen_AOT/AOT_stimuli/rescaled_final/0211_fw.mp4	0.0	130.07088613510132	2.4920201301574707
19	108.91467952728271	pulse	1	t		17.0	2.5	/experiments/Knapen_AOT/AOT_stimuli/rescaled_final/0211_fw.mp4	0.0	131.2446870803833	
19	110.2328987121582	fix_post	2		12	17.0	2.5	/experiments/Knapen_AOT/AOT_stimuli/rescaled_final/0211_fw.mp4	0.0	132.5629062652588	0.10007429122924805
20	110.33297300338745	fix_pre	0		120	18.0	2.5	/experiments/Knapen_AOT/AOT_stimuli/rescaled_final/1706_rv.mp4	0.0	132.66298055648804	1.008406639099121
20	110.50892424583435	pulse	0	t		18.0	2.5	/experiments/Knapen_AOT/AOT_stimuli/rescaled_final/1706_rv.mp4	0.0	132.83893179893494	
20	111.34137964248657	movie	1		278	18.0	2.5	/experiments/Knapen_AOT/AOT_stimuli/rescaled_final/1706_rv.mp4	0.0	133.67138719558716	2.492065906524658
20	112.10877060890198	pulse	1	t		18.0	2.5	/experiments/Knapen_AOT/AOT_stimuli/rescaled_final/1706_rv.mp4	0.0	134.43877816200256	
20	113.70866656303406	pulse	1	t		18.0	2.5	/experiments/Knapen_AOT/AOT_stimuli/rescaled_final/1706_rv.mp4	0.0	136.03867411613464	
20	113.83344554901123	fix_post	2		12	18.0	2.5	/experiments/Knapen_AOT/AOT_stimuli/rescaled_final/1706_rv.mp4	0.0	136.16345310211182	0.0999915599822998
21	113.93343710899353	fix_pre	0		120	19.0	2.5	/experiments/Knapen_AOT/AOT_stimuli/rescaled_final/0967_fw.mp4	0.0	136.26344466209412	1.0084819793701172
21	114.94191908836365	movie	1		279	19.0	2.5	/experiments/Knapen_AOT/AOT_stimuli/rescaled_final/0967_fw.mp4	0.0	137.27192664146423	2.4920568466186523
21	115.30880188941956	pulse	1	t		19.0	2.5	/experiments/Knapen_AOT/AOT_stimuli/rescaled_final/0967_fw.mp4	0.0	137.63880944252014	
21	116.90909552574158	pulse	1	t		19.0	2.5	/experiments/Knapen_AOT/AOT_stimuli/rescaled_final/0967_fw.mp4	0.0	139.23910307884216	
21	117.4339759349823	fix_post	2		12	19.0	2.5	/experiments/Knapen_AOT/AOT_stimuli/rescaled_final/0967_fw.mp4	0.0	139.76398348808289	0.09999752044677734
22	117.53397345542908	fix_pre	0		118	20.0	2.5	blank	1.0	139.86398100852966	0.9834587574005127
22	118.5093469619751	pulse	0	t		20.0	2.5	blank	1.0	140.83935451507568	
22	118.51743221282959	movie	1		301	20.0	2.5	blank	1.0	140.84743976593018	2.508774995803833
22	120.10960268974304	pulse	1	t		20.0	2.5	blank	1.0	142.43961024284363	
22	121.02620720863342	fix_post	2		12	20.0	2.5	blank	1.0	143.356214761734	0.10000991821289062
23	121.12621712684631	fix_pre	0		120	21.0	2.5	/experiments/Knapen_AOT/AOT_stimuli/rescaled_final/0767_rv.mp4	0.0	143.4562246799469	1.0084457397460938
23	121.71013736724854	pulse	0	t		21.0	2.5	/experiments/Knapen_AOT/AOT_stimuli/rescaled_final/0767_rv.mp4	0.0	144.04014492034912	
23	122.13466286659241	movie	1		272	21.0	2.5	/experiments/Knapen_AOT/AOT_stimuli/rescaled_final/0767_rv.mp4	0.0	144.464670419693	2.4920494556427
23	123.31005597114563	pulse	1	t		21.0	2.5	/experiments/Knapen_AOT/AOT_stimuli/rescaled_final/0767_rv.mp4	0.0	145.64006352424622	
23	124.62671232223511	fix_post	2		12	21.0	2.5	/experiments/Knapen_AOT/AOT_stimuli/rescaled_final/0767_rv.mp4	0.0	146.9567198753357	0.10002541542053223
24	124.72673773765564	fix_pre	0		120	22.0	2.5	/experiments/Knapen_AOT/AOT_stimuli/rescaled_final/0025_rv.mp4	0.0	147.05674529075623	1.0084919929504395
24	124.91058897972107	pulse	0	t		22.0	2.5	/experiments/Knapen_AOT/AOT_stimuli/rescaled_final/0025_rv.mp4	0.0	147.24059653282166	
24	125.73522973060608	movie	1		269	22.0	2.5	/experiments/Knapen_AOT/AOT_stimuli/rescaled_final/0025_rv.mp4	0.0	148.06523728370667	2.492018461227417
24	126.51028180122375	pulse	1	t		22.0	2.5	/experiments/Knapen_AOT/AOT_stimuli/rescaled_final/0025_rv.mp4	0.0	148.84028935432434	
24	128.10860872268677	pulse	1	t		22.0	2.5	/experiments/Knapen_AOT/AOT_stimuli/rescaled_final/0025_rv.mp4	0.0	150.43861627578735	
24	128.2272481918335	fix_post	2		12	22.0	2.5	/experiments/Knapen_AOT/AOT_stimuli/rescaled_final/0025_rv.mp4	0.0	150.55725574493408	0.10001873970031738
25	128.3272669315338	fix_pre	0		120	23.0	2.5	/experiments/Knapen_AOT/AOT_stimuli/rescaled_final/0617_fw.mp4	0.0	150.6572744846344	1.0085086822509766
25	129.3357756137848	movie	1		288	23.0	2.5	/experiments/Knapen_AOT/AOT_stimuli/rescaled_final/0617_fw.mp4	0.0	151.66578316688538	2.4920248985290527
25	129.7092502117157	pulse	1	t		23.0	2.5	/experiments/Knapen_AOT/AOT_stimuli/rescaled_final/0617_fw.mp4	0.0	152.03925776481628	
25	131.30946922302246	pulse	1	t		23.0	2.5	/experiments/Knapen_AOT/AOT_stimuli/rescaled_final/0617_fw.mp4	0.0	153.63947677612305	
25	131.82780051231384	fix_post	2		12	23.0	2.5	/experiments/Knapen_AOT/AOT_stimuli/rescaled_final/0617_fw.mp4	0.0	154.15780806541443	0.10000324249267578
26	131.92780375480652	fix_pre	0		119	24.0	2.5	/experiments/Knapen_AOT/AOT_stimuli/rescaled_final/0482_rv.mp4	0.0	154.2578113079071	1.0001859664916992
26	132.9114842414856	pulse	0	t		24.0	2.5	/experiments/Knapen_AOT/AOT_stimuli/rescaled_final/0482_rv.mp4	0.0	155.24149179458618	
26	132.92798972129822	movie	1		285	24.0	2.5	/experiments/Knapen_AOT/AOT_stimuli/rescaled_final/0482_rv.mp4	0.0	155.2579972743988	2.500342845916748
26	134.51007103919983	pulse	1	t		24.0	2.5	/experiments/Knapen_AOT/AOT_stimuli/rescaled_final/0482_rv.mp4	0.0	156.84007859230042	
26	135.42833256721497	fix_post	2		12	24.0	2.5	/experiments/Knapen_AOT/AOT_stimuli/rescaled_final/0482_rv.mp4	0.0	157.75834012031555	0.10002398490905762
27	135.52835655212402	fix_pre	0		120	25.0	2.5	/experiments/Knapen_AOT/AOT_stimuli/rescaled_final/0617_rv.mp4	0.0	157.8583641052246	1.0084857940673828
27	136.1121425628662	pulse	0	t		25.0	2.5	/experiments/Knapen_AOT/AOT_stimuli/rescaled_final/0617_rv.mp4	0.0	158.4421501159668	
27	136.5368423461914	movie	1		295	25.0	2.5	/experiments/Knapen_AOT/AOT_stimuli/rescaled_final/0617_rv.mp4	0.0	158.866849899292	2.492096185684204
27	137.71035385131836	pulse	1	t		25.0	2.5	/experiments/Knapen_AOT/AOT_stimuli/rescaled_final/0617_rv.mp4	0.0	160.04036140441895	
27	139.0289385318756	fix_post	2		12	25.0	2.5	/experiments/Knapen_AOT/AOT_stimuli/rescaled_final/0617_rv.mp4	0.0	161.3589460849762	0.09997391700744629
28	139.12891244888306	fix_pre	0		120	26.0	2.5	/experiments/Knapen_AOT/AOT_stimuli/rescaled_final/1680_fw.mp4	0.0	161.45892000198364	1.0084903240203857
28	139.31255888938904	pulse	0	t		26.0	2.5	/experiments/Knapen_AOT/AOT_stimuli/rescaled_final/1680_fw.mp4	0.0	161.64256644248962	
28	140.13740277290344	movie	1		287	26.0	2.5	/experiments/Knapen_AOT/AOT_stimuli/rescaled_final/1680_fw.mp4	0.0	162.46741032600403	2.49226450920105
28	140.9111807346344	pulse	1	t		26.0	2.5	/experiments/Knapen_AOT/AOT_stimuli/rescaled_final/1680_fw.mp4	0.0	163.24118828773499	
28	142.51187229156494	pulse	1	t		26.0	2.5	/experiments/Knapen_AOT/AOT_stimuli/rescaled_final/1680_fw.mp4	0.0	164.84187984466553	
28	142.6296672821045	fix_post	2		12	26.0	2.5	/experiments/Knapen_AOT/AOT_stimuli/rescaled_final/1680_fw.mp4	0.0	164.95967483520508	0.09980607032775879
29	142.72947335243225	fix_pre	0		120	27.0	2.5	blank	1.0	165.05948090553284	1.0001206398010254
29	143.72959399223328	movie	1		300	27.0	2.5	blank	1.0	166.05960154533386	2.500359535217285
29	144.1134397983551	pulse	1	t		27.0	2.5	blank	1.0	166.4434473514557	
29	145.7133345603943	pulse	1	t		27.0	2.5	blank	1.0	168.04334211349487	
29	146.22995352745056	fix_post	2		12	27.0	2.5	blank	1.0	168.55996108055115	0.10003471374511719
30	146.32998824119568	fix_pre	0		119	28.0	2.5	/experiments/Knapen_AOT/AOT_stimuli/rescaled_final/0991_rv.mp4	0.0	168.65999579429626	1.0001373291015625
30	147.3136010169983	pulse	0	t		28.0	2.5	/experiments/Knapen_AOT/AOT_stimuli/rescaled_final/0991_rv.mp4	0.0	169.64360857009888	
30	147.33012557029724	movie	1		289	28.0	2.5	/experiments/Knapen_AOT/AOT_stimuli/rescaled_final/0991_rv.mp4	0.0	169.66013312339783	2.5004196166992188
30	148.9126307964325	pulse	1	t		28.0	2.5	/experiments/Knapen_AOT/AOT_stimuli/rescaled_final/0991_rv.mp4	0.0	171.24263834953308	
30	149.83054518699646	fix_post	2		12	28.0	2.5	/experiments/Knapen_AOT/AOT_stimuli/rescaled_final/0991_rv.mp4	0.0	172.16055274009705	0.0999758243560791
31	149.93052101135254	fix_pre	0		120	29.0	2.5	/experiments/Knapen_AOT/AOT_stimuli/rescaled_final/0567_fw.mp4	0.0	172.26052856445312	1.0085339546203613
31	150.51419949531555	pulse	0	t		29.0	2.5	/experiments/Knapen_AOT/AOT_stimuli/rescaled_final/0567_fw.mp4	0.0	172.84420704841614	
31	150.9390549659729	movie	1		284	29.0	2.5	/experiments/Knapen_AOT/AOT_stimuli/rescaled_final/0567_fw.mp4	0.0	173.2690625190735	2.4920058250427246
31	152.11288380622864	pulse	1	t		29.0	2.5	/experiments/Knapen_AOT/AOT_stimuli/rescaled_final/0567_fw.mp4	0.0	174.44289135932922	
31	153.43106079101562	fix_post	2		12	29.0	2.5	/experiments/Knapen_AOT/AOT_stimuli/rescaled_final/0567_fw.mp4	0.0	175.7610683441162	0.1001594066619873
32	153.5312201976776	fix_pre	0		120	30.0	2.5	/experiments/Knapen_AOT/AOT_stimuli/rescaled_final/0857_rv.mp4	0.0	175.8612277507782	1.0083339214324951
32	153.71470141410828	pulse	0	t		30.0	2.5	/experiments/Knapen_AOT/AOT_stimuli/rescaled_final/0857_rv.mp4	0.0	176.04470896720886	
32	154.5395541191101	movie	1		286	30.0	2.5	/experiments/Knapen_AOT/AOT_stimuli/rescaled_final/0857_rv.mp4	0.0	176.8695616722107	2.492065906524658
32	155.3129961490631	pulse	1	t		30.0	2.5	/experiments/Knapen_AOT/AOT_stimuli/rescaled_final/0857_rv.mp4	0.0	177.6430037021637	
32	156.9135365486145	pulse	1	t		30.0	2.5	/experiments/Knapen_AOT/AOT_stimuli/rescaled_final/0857_rv.mp4	0.0	179.2435441017151	
32	157.03162002563477	fix_post	2		12	30.0	2.5	/experiments/Knapen_AOT/AOT_stimuli/rescaled_final/0857_rv.mp4	0.0	179.36162757873535	0.09998083114624023
33	157.131600856781	fix_pre	0		120	31.0	2.5	/experiments/Knapen_AOT/AOT_stimuli/rescaled_final/0763_fw.mp4	0.0	179.4616084098816	1.008486270904541
33	158.14008712768555	movie	1		279	31.0	2.5	/experiments/Knapen_AOT/AOT_stimuli/rescaled_final/0763_fw.mp4	0.0	180.47009468078613	2.4920568466186523
33	158.51373958587646	pulse	1	t		31.0	2.5	/experiments/Knapen_AOT/AOT_stimuli/rescaled_final/0763_fw.mp4	0.0	180.84374713897705	
33	160.11388731002808	pulse	1	t		31.0	2.5	/experiments/Knapen_AOT/AOT_stimuli/rescaled_final/0763_fw.mp4	0.0	182.44389486312866	
33	160.6321439743042	fix_post	2		12	31.0	2.5	/experiments/Knapen_AOT/AOT_stimuli/rescaled_final/0763_fw.mp4	0.0	182.96215152740479	0.10000181198120117
34	160.7321457862854	fix_pre	0		119	32.0	2.5	/experiments/Knapen_AOT/AOT_stimuli/rescaled_final/1025_rv.mp4	0.0	183.062153339386	1.0001780986785889
34	161.7158579826355	pulse	0	t		32.0	2.5	/experiments/Knapen_AOT/AOT_stimuli/rescaled_final/1025_rv.mp4	0.0	184.04586553573608	
34	161.732323884964	movie	1		282	32.0	2.5	/experiments/Knapen_AOT/AOT_stimuli/rescaled_final/1025_rv.mp4	0.0	184.06233143806458	2.5004312992095947
34	163.31470847129822	pulse	1	t		32.0	2.5	/experiments/Knapen_AOT/AOT_stimuli/rescaled_final/1025_rv.mp4	0.0	185.6447160243988	
34	164.23275518417358	fix_post	2		12	32.0	2.5	/experiments/Knapen_AOT/AOT_stimuli/rescaled_final/1025_rv.mp4	0.0	186.56276273727417	0.09993505477905273
35	164.33269023895264	fix_pre	0		120	33.0	2.5	/experiments/Knapen_AOT/AOT_stimuli/rescaled_final/1897_fw.mp4	0.0	186.66269779205322	1.0085158348083496
35	164.91643977165222	pulse	0	t		33.0	2.5	/experiments/Knapen_AOT/AOT_stimuli/rescaled_final/1897_fw.mp4	0.0	187.2464473247528	
35	165.341206073761	movie	1		277	33.0	2.5	/experiments/Knapen_AOT/AOT_stimuli/rescaled_final/1897_fw.mp4	0.0	187.67121362686157	2.492025375366211
35	166.5148844718933	pulse	1	t		33.0	2.5	/experiments/Knapen_AOT/AOT_stimuli/rescaled_final/1897_fw.mp4	0.0	188.8448920249939	
35	167.8332314491272	fix_post	2		12	33.0	2.5	/experiments/Knapen_AOT/AOT_stimuli/rescaled_final/1897_fw.mp4	0.0	190.16323900222778	0.09998178482055664
36	167.93321323394775	fix_pre	0		120	34.0	2.5	blank	1.0	190.26322078704834	1.0001704692840576
36	168.1100368499756	pulse	0	t		34.0	2.5	blank	1.0	190.44004440307617	
36	168.9333837032318	movie	1		300	34.0	2.5	blank	1.0	191.2633912563324	2.5003819465637207
36	169.70907187461853	pulse	1	t		34.0	2.5	blank	1.0	192.03907942771912	
36	171.30894088745117	pulse	1	t		34.0	2.5	blank	1.0	193.63894844055176	
36	171.43376564979553	fix_post	2		12	34.0	2.5	blank	1.0	193.76377320289612	0.10000133514404297
37	171.53376698493958	fix_pre	0		120	35.0	2.5	/experiments/Knapen_AOT/AOT_stimuli/rescaled_final/0421_fw.mp4	0.0	193.86377453804016	1.008507251739502
37	172.54227423667908	movie	1		274	35.0	2.5	/experiments/Knapen_AOT/AOT_stimuli/rescaled_final/0421_fw.mp4	0.0	194.87228178977966	2.492011785507202
37	172.90947675704956	pulse	1	t		35.0	2.5	/experiments/Knapen_AOT/AOT_stimuli/rescaled_final/0421_fw.mp4	0.0	195.23948431015015	
37	174.50953197479248	pulse	1	t		35.0	2.5	/experiments/Knapen_AOT/AOT_stimuli/rescaled_final/0421_fw.mp4	0.0	196.83953952789307	
37	175.03428602218628	fix_post	2		12	35.0	2.5	/experiments/Knapen_AOT/AOT_stimuli/rescaled_final/0421_fw.mp4	0.0	197.36429357528687	0.10001659393310547
38	175.13430261611938	fix_pre	0		118	36.0	2.5	/experiments/Knapen_AOT/AOT_stimuli/rescaled_final/1620_rv.mp4	0.0	197.46431016921997	0.9917991161346436
38	176.1097047328949	pulse	0	t		36.0	2.5	/experiments/Knapen_AOT/AOT_stimuli/rescaled_final/1620_rv.mp4	0.0	198.43971228599548	
38	176.12610173225403	movie	1		279	36.0	2.5	/experiments/Knapen_AOT/AOT_stimuli/rescaled_final/1620_rv.mp4	0.0	198.45610928535461	2.5003790855407715
38	177.7097179889679	pulse	1	t		36.0	2.5	/experiments/Knapen_AOT/AOT_stimuli/rescaled_final/1620_rv.mp4	0.0	200.03972554206848	
38	178.6264808177948	fix_post	2		12	36.0	2.5	/experiments/Knapen_AOT/AOT_stimuli/rescaled_final/1620_rv.mp4	0.0	200.95648837089539	0.10006952285766602
39	178.72655034065247	fix_pre	0		120	37.0	2.5	/experiments/Knapen_AOT/AOT_stimuli/rescaled_final/1030_fw.mp4	0.0	201.05655789375305	1.0084819793701172
39	179.3102285861969	pulse	0	t		37.0	2.5	/experiments/Knapen_AOT/AOT_stimuli/rescaled_final/1030_fw.mp4	0.0	201.64023613929749	
39	179.73503232002258	movie	1		273	37.0	2.5	/experiments/Knapen_AOT/AOT_stimuli/rescaled_final/1030_fw.mp4	0.0	202.06503987312317	2.491994857788086
39	180.90891456604004	pulse	1	t		37.0	2.5	/experiments/Knapen_AOT/AOT_stimuli/rescaled_final/1030_fw.mp4	0.0	203.23892211914062	
39	182.22702717781067	fix_post	2		12	37.0	2.5	/experiments/Knapen_AOT/AOT_stimuli/rescaled_final/1030_fw.mp4	0.0	204.55703473091125	0.10001897811889648
40	182.32704615592957	fix_pre	0		120	38.0	2.5	/experiments/Knapen_AOT/AOT_stimuli/rescaled_final/1483_fw.mp4	0.0	204.65705370903015	1.0084924697875977
40	182.5108871459961	pulse	0	t		38.0	2.5	/experiments/Knapen_AOT/AOT_stimuli/rescaled_final/1483_fw.mp4	0.0	204.84089469909668	
40	183.33553862571716	movie	1		278	38.0	2.5	/experiments/Knapen_AOT/AOT_stimuli/rescaled_final/1483_fw.mp4	0.0	205.66554617881775	2.492098093032837
40	184.1087565422058	pulse	1	t		38.0	2.5	/experiments/Knapen_AOT/AOT_stimuli/rescaled_final/1483_fw.mp4	0.0	206.4387640953064	
40	185.70909976959229	pulse	1	t		38.0	2.5	/experiments/Knapen_AOT/AOT_stimuli/rescaled_final/1483_fw.mp4	0.0	208.03910732269287	
40	185.82763671875	fix_post	2		12	38.0	2.5	/experiments/Knapen_AOT/AOT_stimuli/rescaled_final/1483_fw.mp4	0.0	208.1576442718506	0.09997010231018066
41	185.92760682106018	fix_pre	0		120	39.0	2.5	/experiments/Knapen_AOT/AOT_stimuli/rescaled_final/0884_rv.mp4	0.0	208.25761437416077	1.0084702968597412
41	186.93607711791992	movie	1		280	39.0	2.5	/experiments/Knapen_AOT/AOT_stimuli/rescaled_final/0884_rv.mp4	0.0	209.2660846710205	2.4920811653137207
41	187.31094455718994	pulse	1	t		39.0	2.5	/experiments/Knapen_AOT/AOT_stimuli/rescaled_final/0884_rv.mp4	0.0	209.64095211029053	
41	188.91181921958923	pulse	1	t		39.0	2.5	/experiments/Knapen_AOT/AOT_stimuli/rescaled_final/0884_rv.mp4	0.0	211.24182677268982	
41	189.42815828323364	fix_post	2		12	39.0	2.5	/experiments/Knapen_AOT/AOT_stimuli/rescaled_final/0884_rv.mp4	0.0	211.75816583633423	0.09998393058776855
42	189.5281422138214	fix_pre	0		119	40.0	2.5	/experiments/Knapen_AOT/AOT_stimuli/rescaled_final/1680_rv.mp4	0.0	211.858149766922	1.0087339878082275
42	190.51217770576477	pulse	0	t		40.0	2.5	/experiments/Knapen_AOT/AOT_stimuli/rescaled_final/1680_rv.mp4	0.0	212.84218525886536	
42	190.53687620162964	movie	1		275	40.0	2.5	/experiments/Knapen_AOT/AOT_stimuli/rescaled_final/1680_rv.mp4	0.0	212.86688375473022	2.4919371604919434
42	192.1102855205536	pulse	1	t		40.0	2.5	/experiments/Knapen_AOT/AOT_stimuli/rescaled_final/1680_rv.mp4	0.0	214.44029307365417	
42	193.02881336212158	fix_post	2		12	40.0	2.5	/experiments/Knapen_AOT/AOT_stimuli/rescaled_final/1680_rv.mp4	0.0	215.35882091522217	0.09987568855285645
43	193.12868905067444	fix_pre	0		120	41.0	2.5	/experiments/Knapen_AOT/AOT_stimuli/rescaled_final/1990_rv.mp4	0.0	215.45869660377502	1.0084900856018066
43	193.7123613357544	pulse	0	t		41.0	2.5	/experiments/Knapen_AOT/AOT_stimuli/rescaled_final/1990_rv.mp4	0.0	216.04236888885498	
43	194.13717913627625	movie	1		285	41.0	2.5	/experiments/Knapen_AOT/AOT_stimuli/rescaled_final/1990_rv.mp4	0.0	216.46718668937683	2.492081880569458
43	195.31047558784485	pulse	1	t		41.0	2.5	/experiments/Knapen_AOT/AOT_stimuli/rescaled_final/1990_rv.mp4	0.0	217.64048314094543	
43	196.6292610168457	fix_post	2		12	41.0	2.5	/experiments/Knapen_AOT/AOT_stimuli/rescaled_final/1990_rv.mp4	0.0	218.9592685699463	0.09997844696044922
44	196.72923946380615	fix_pre	0		120	42.0	2.5	blank	1.0	219.05924701690674	1.000157117843628
44	196.91283059120178	pulse	0	t		42.0	2.5	blank	1.0	219.24283814430237	
44	197.72939658164978	movie	1		300	42.0	2.5	blank	1.0	220.05940413475037	2.5003480911254883
44	198.51307678222656	pulse	1	t		42.0	2.5	blank	1.0	220.84308433532715	
44	200.1134476661682	pulse	1	t		42.0	2.5	blank	1.0	222.4434552192688	
44	200.22974467277527	fix_post	2		12	42.0	2.5	blank	1.0	222.55975222587585	0.09998345375061035
45	200.32972812652588	fix_pre	0		120	43.0	2.5	/experiments/Knapen_AOT/AOT_stimuli/rescaled_final/0332_fw.mp4	0.0	222.65973567962646	1.0086007118225098
45	201.3383288383484	movie	1		272	43.0	2.5	/experiments/Knapen_AOT/AOT_stimuli/rescaled_final/0332_fw.mp4	0.0	223.66833639144897	2.4919636249542236
45	201.71222639083862	pulse	1	t		43.0	2.5	/experiments/Knapen_AOT/AOT_stimuli/rescaled_final/0332_fw.mp4	0.0	224.0422339439392	
45	203.31226015090942	pulse	1	t		43.0	2.5	/experiments/Knapen_AOT/AOT_stimuli/rescaled_final/0332_fw.mp4	0.0	225.64226770401	
45	203.8302924633026	fix_post	2		12	43.0	2.5	/experiments/Knapen_AOT/AOT_stimuli/rescaled_final/0332_fw.mp4	0.0	226.1603000164032	0.10010552406311035
46	203.93039798736572	fix_pre	0		119	44.0	2.5	/experiments/Knapen_AOT/AOT_stimuli/rescaled_final/1260_rv.mp4	0.0	226.2604055404663	1.0001201629638672
46	204.91402578353882	pulse	0	t		44.0	2.5	/experiments/Knapen_AOT/AOT_stimuli/rescaled_final/1260_rv.mp4	0.0	227.2440333366394	
46	204.9305181503296	movie	1		286	44.0	2.5	/experiments/Knapen_AOT/AOT_stimuli/rescaled_final/1260_rv.mp4	0.0	227.26052570343018	2.5003035068511963
46	206.51255106925964	pulse	1	t		44.0	2.5	/experiments/Knapen_AOT/AOT_stimuli/rescaled_final/1260_rv.mp4	0.0	228.84255862236023	
46	207.4308216571808	fix_post	2		12	44.0	2.5	/experiments/Knapen_AOT/AOT_stimuli/rescaled_final/1260_rv.mp4	0.0	229.76082921028137	0.10020589828491211
47	207.5310275554657	fix_pre	0		120	45.0	2.5	/experiments/Knapen_AOT/AOT_stimuli/rescaled_final/1813_fw.mp4	0.0	229.86103510856628	1.0082991123199463
47	208.1144735813141	pulse	0	t		45.0	2.5	/experiments/Knapen_AOT/AOT_stimuli/rescaled_final/1813_fw.mp4	0.0	230.44448113441467	
47	208.53932666778564	movie	1		277	45.0	2.5	/experiments/Knapen_AOT/AOT_stimuli/rescaled_final/1813_fw.mp4	0.0	230.86933422088623	2.492048501968384
47	209.71314883232117	pulse	1	t		45.0	2.5	/experiments/Knapen_AOT/AOT_stimuli/rescaled_final/1813_fw.mp4	0.0	232.04315638542175	
47	211.03137516975403	fix_post	2		12	45.0	2.5	/experiments/Knapen_AOT/AOT_stimuli/rescaled_final/1813_fw.mp4	0.0	233.36138272285461	0.09999871253967285
48	211.1313738822937	fix_pre	0		120	46.0	2.5	/experiments/Knapen_AOT/AOT_stimuli/rescaled_final/1555_rv.mp4	0.0	233.4613814353943	1.008547067642212
48	211.3149962425232	pulse	0	t		46.0	2.5	/experiments/Knapen_AOT/AOT_stimuli/rescaled_final/1555_rv.mp4	0.0	233.64500379562378	
48	212.1399209499359	movie	1		280	46.0	2.5	/experiments/Knapen_AOT/AOT_stimuli/rescaled_final/1555_rv.mp4	0.0	234.4699285030365	2.491990804672241
48	212.91368341445923	pulse	1	t		46.0	2.5	/experiments/Knapen_AOT/AOT_stimuli/rescaled_final/1555_rv.mp4	0.0	235.24369096755981	
48	214.5136742591858	pulse	1	t		46.0	2.5	/experiments/Knapen_AOT/AOT_stimuli/rescaled_final/1555_rv.mp4	0.0	236.84368181228638	
48	214.63191175460815	fix_post	2		12	46.0	2.5	/experiments/Knapen_AOT/AOT_stimuli/rescaled_final/1555_rv.mp4	0.0	236.96191930770874	0.10010457038879395
49	214.73201632499695	fix_pre	0		120	47.0	2.5	/experiments/Knapen_AOT/AOT_stimuli/rescaled_final/0974_fw.mp4	0.0	237.06202387809753	1.0084278583526611
49	215.7404441833496	movie	1		276	47.0	2.5	/experiments/Knapen_AOT/AOT_stimuli/rescaled_final/0974_fw.mp4	0.0	238.0704517364502	2.492074489593506
49	216.11591863632202	pulse	1	t		47.0	2.5	/experiments/Knapen_AOT/AOT_stimuli/rescaled_final/0974_fw.mp4	0.0	238.4459261894226	
49	217.71492838859558	pulse	1	t		47.0	2.5	/experiments/Knapen_AOT/AOT_stimuli/rescaled_final/0974_fw.mp4	0.0	240.04493594169617	
49	218.23251867294312	fix_post	2		12	47.0	2.5	/experiments/Knapen_AOT/AOT_stimuli/rescaled_final/0974_fw.mp4	0.0	240.5625262260437	0.09995341300964355
50	218.33247208595276	fix_pre	0		101	48.0	2.5	blank	1.0	240.66247963905334	0.9917802810668945
50	219.30986762046814	pulse	0	t		48.0	2.5	blank	1.0	241.63987517356873	
50	219.32425236701965	movie	1		301	48.0	2.5	blank	1.0	241.65425992012024	2.508749008178711
50	220.90849041938782	pulse	1	t		48.0	2.5	blank	1.0	243.2384979724884	
50	221.83300137519836	fix_post	2		12	48.0	2.5	blank	1.0	244.16300892829895	0.1000220775604248
51	221.9330234527588	fix_pre	0		120	49.0	2.5	/experiments/Knapen_AOT/AOT_stimuli/rescaled_final/1125_rv.mp4	0.0	244.26303100585938	1.0084755420684814
51	222.5084319114685	pulse	0	t		49.0	2.5	/experiments/Knapen_AOT/AOT_stimuli/rescaled_final/1125_rv.mp4	0.0	244.8384394645691	
51	222.94149899482727	movie	1		273	49.0	2.5	/experiments/Knapen_AOT/AOT_stimuli/rescaled_final/1125_rv.mp4	0.0	245.27150654792786	2.492056131362915
51	224.10870218276978	pulse	1	t		49.0	2.5	/experiments/Knapen_AOT/AOT_stimuli/rescaled_final/1125_rv.mp4	0.0	246.43870973587036	
51	225.43355512619019	fix_post	2		12	49.0	2.5	/experiments/Knapen_AOT/AOT_stimuli/rescaled_final/1125_rv.mp4	0.0	247.76356267929077	0.09999465942382812
52	225.533549785614	fix_pre	0		120	50.0	2.5	/experiments/Knapen_AOT/AOT_stimuli/rescaled_final/1192_rv.mp4	0.0	247.8635573387146	1.0084929466247559
52	225.70880603790283	pulse	0	t		50.0	2.5	/experiments/Knapen_AOT/AOT_stimuli/rescaled_final/1192_rv.mp4	0.0	248.03881359100342	
52	226.54204273223877	movie	1		269	50.0	2.5	/experiments/Knapen_AOT/AOT_stimuli/rescaled_final/1192_rv.mp4	0.0	248.87205028533936	2.492067575454712
52	227.3089997768402	pulse	1	t		50.0	2.5	/experiments/Knapen_AOT/AOT_stimuli/rescaled_final/1192_rv.mp4	0.0	249.6390073299408	
52	228.90954518318176	pulse	1	t		50.0	2.5	/experiments/Knapen_AOT/AOT_stimuli/rescaled_final/1192_rv.mp4	0.0	251.23955273628235	
52	229.03411030769348	fix_post	2		12	50.0	2.5	/experiments/Knapen_AOT/AOT_stimuli/rescaled_final/1192_rv.mp4	0.0	251.36411786079407	0.1000065803527832
53	229.13411688804626	fix_pre	0		120	51.0	2.5	/experiments/Knapen_AOT/AOT_stimuli/rescaled_final/0025_rv.mp4	0.0	251.46412444114685	1.0084784030914307
53	230.1425952911377	movie	1		285	51.0	2.5	/experiments/Knapen_AOT/AOT_stimuli/rescaled_final/0025_rv.mp4	0.0	252.47260284423828	2.4920287132263184
53	230.50966238975525	pulse	1	t		51.0	2.5	/experiments/Knapen_AOT/AOT_stimuli/rescaled_final/0025_rv.mp4	0.0	252.83966994285583	
53	232.10972452163696	pulse	1	t		51.0	2.5	/experiments/Knapen_AOT/AOT_stimuli/rescaled_final/0025_rv.mp4	0.0	254.43973207473755	
53	232.634624004364	fix_post	2		12	51.0	2.5	/experiments/Knapen_AOT/AOT_stimuli/rescaled_final/0025_rv.mp4	0.0	254.9646315574646	0.10002303123474121
54	232.73464703559875	fix_pre	0		118	52.0	2.5	/experiments/Knapen_AOT/AOT_stimuli/rescaled_final/1269_fw.mp4	0.0	255.06465458869934	0.9918019771575928
54	233.7100384235382	pulse	0	t		52.0	2.5	/experiments/Knapen_AOT/AOT_stimuli/rescaled_final/1269_fw.mp4	0.0	256.0400459766388	
54	233.72644901275635	movie	1		289	52.0	2.5	/experiments/Knapen_AOT/AOT_stimuli/rescaled_final/1269_fw.mp4	0.0	256.05645656585693	2.5003983974456787
54	235.30896496772766	pulse	1	t		52.0	2.5	/experiments/Knapen_AOT/AOT_stimuli/rescaled_final/1269_fw.mp4	0.0	257.63897252082825	
54	236.22684741020203	fix_post	2		12	52.0	2.5	/experiments/Knapen_AOT/AOT_stimuli/rescaled_final/1269_fw.mp4	0.0	258.5568549633026	0.1000056266784668
55	236.3268530368805	fix_pre	0		120	53.0	2.5	/experiments/Knapen_AOT/AOT_stimuli/rescaled_final/0199_fw.mp4	0.0	258.6568605899811	1.0085294246673584
55	236.91045761108398	pulse	0	t		53.0	2.5	/experiments/Knapen_AOT/AOT_stimuli/rescaled_final/0199_fw.mp4	0.0	259.24046516418457	
55	237.33538246154785	movie	1		277	53.0	2.5	/experiments/Knapen_AOT/AOT_stimuli/rescaled_final/0199_fw.mp4	0.0	259.66539001464844	2.4919846057891846
55	238.5095865726471	pulse	1	t		53.0	2.5	/experiments/Knapen_AOT/AOT_stimuli/rescaled_final/0199_fw.mp4	0.0	260.8395941257477	
55	239.82736706733704	fix_post	2		12	53.0	2.5	/experiments/Knapen_AOT/AOT_stimuli/rescaled_final/0199_fw.mp4	0.0	262.1573746204376	0.10003995895385742
56	239.9274070262909	fix_pre	0		120	54.0	2.5	blank	1.0	262.2574145793915	1.0001170635223389
56	240.11096334457397	pulse	0	t		54.0	2.5	blank	1.0	262.44097089767456	
56	240.92752408981323	movie	1		300	54.0	2.5	blank	1.0	263.2575316429138	2.500382423400879
56	241.71114349365234	pulse	1	t		54.0	2.5	blank	1.0	264.04115104675293	
56	243.31143021583557	pulse	1	t		54.0	2.5	blank	1.0	265.64143776893616	
56	243.4279065132141	fix_post	2		12	54.0	2.5	blank	1.0	265.7579140663147	0.10005712509155273
57	243.52796363830566	fix_pre	0		120	55.0	2.5	/experiments/Knapen_AOT/AOT_stimuli/rescaled_final/0781_fw.mp4	0.0	265.85797119140625	1.0084447860717773
57	244.53640842437744	movie	1		275	55.0	2.5	/experiments/Knapen_AOT/AOT_stimuli/rescaled_final/0781_fw.mp4	0.0	266.866415977478	2.4920361042022705
57	244.91110515594482	pulse	1	t		55.0	2.5	/experiments/Knapen_AOT/AOT_stimuli/rescaled_final/0781_fw.mp4	0.0	267.2411127090454	
57	246.51002550125122	pulse	1	t		55.0	2.5	/experiments/Knapen_AOT/AOT_stimuli/rescaled_final/0781_fw.mp4	0.0	268.8400330543518	
57	247.0284445285797	fix_post	2		12	55.0	2.5	/experiments/Knapen_AOT/AOT_stimuli/rescaled_final/0781_fw.mp4	0.0	269.3584520816803	0.10002541542053223
58	247.12846994400024	fix_pre	0		119	56.0	2.5	/experiments/Knapen_AOT/AOT_stimuli/rescaled_final/0060_rv.mp4	0.0	269.45847749710083	1.000190258026123
58	248.11238884925842	pulse	0	t		56.0	2.5	/experiments/Knapen_AOT/AOT_stimuli/rescaled_final/0060_rv.mp4	0.0	270.442396402359	
58	248.12866020202637	movie	1		282	56.0	2.5	/experiments/Knapen_AOT/AOT_stimuli/rescaled_final/0060_rv.mp4	0.0	270.45866775512695	2.5003278255462646
58	249.7115352153778	pulse	1	t		56.0	2.5	/experiments/Knapen_AOT/AOT_stimuli/rescaled_final/0060_rv.mp4	0.0	272.0415427684784	
58	250.62898802757263	fix_post	2		12	56.0	2.5	/experiments/Knapen_AOT/AOT_stimuli/rescaled_final/0060_rv.mp4	0.0	272.9589955806732	0.10002660751342773
59	250.72901463508606	fix_pre	0		120	57.0	2.5	/experiments/Knapen_AOT/AOT_stimuli/rescaled_final/1780_fw.mp4	0.0	273.05902218818665	1.0085322856903076
59	251.31282830238342	pulse	0	t		57.0	2.5	/experiments/Knapen_AOT/AOT_stimuli/rescaled_final/1780_fw.mp4	0.0	273.642835855484	
59	251.73754692077637	movie	1		261	57.0	2.5	/experiments/Knapen_AOT/AOT_stimuli/rescaled_final/1780_fw.mp4	0.0	274.06755447387695	2.4919815063476562
59	252.91245460510254	pulse	1	t		57.0	2.5	/experiments/Knapen_AOT/AOT_stimuli/rescaled_final/1780_fw.mp4	0.0	275.2424621582031	
59	254.22952842712402	fix_post	2		12	57.0	2.5	/experiments/Knapen_AOT/AOT_stimuli/rescaled_final/1780_fw.mp4	0.0	276.5595359802246	0.10015368461608887
60	254.3296821117401	fix_pre	0		120	58.0	2.5	/experiments/Knapen_AOT/AOT_stimuli/rescaled_final/0963_fw.mp4	0.0	276.6596896648407	1.0084843635559082
60	254.51313877105713	pulse	0	t		58.0	2.5	/experiments/Knapen_AOT/AOT_stimuli/rescaled_final/0963_fw.mp4	0.0	276.8431463241577	
60	255.33816647529602	movie	1		265	58.0	2.5	/experiments/Knapen_AOT/AOT_stimuli/rescaled_final/0963_fw.mp4	0.0	277.6681740283966	2.4918899536132812
60	256.11121940612793	pulse	1	t		58.0	2.5	/experiments/Knapen_AOT/AOT_stimuli/rescaled_final/0963_fw.mp4	0.0	278.4412269592285	
60	257.7131586074829	pulse	1	t		58.0	2.5	/experiments/Knapen_AOT/AOT_stimuli/rescaled_final/0963_fw.mp4	0.0	280.0431661605835	
60	257.8300564289093	fix_post	2		12	58.0	2.5	/experiments/Knapen_AOT/AOT_stimuli/rescaled_final/0963_fw.mp4	0.0	280.1600639820099	0.10003018379211426
61	257.9300866127014	fix_pre	0		120	59.0	2.5	/experiments/Knapen_AOT/AOT_stimuli/rescaled_final/1199_fw.mp4	0.0	280.260094165802	1.0085346698760986
61	258.9386212825775	movie	1		284	59.0	2.5	/experiments/Knapen_AOT/AOT_stimuli/rescaled_final/1199_fw.mp4	0.0	281.2686288356781	2.4919991493225098
61	259.31254410743713	pulse	1	t		59.0	2.5	/experiments/Knapen_AOT/AOT_stimuli/rescaled_final/1199_fw.mp4	0.0	281.6425516605377	
61	260.91256976127625	pulse	1	t		59.0	2.5	/experiments/Knapen_AOT/AOT_stimuli/rescaled_final/1199_fw.mp4	0.0	283.24257731437683	
61	261.4306204319	fix_post	2		12	59.0	2.5	/experiments/Knapen_AOT/AOT_stimuli/rescaled_final/1199_fw.mp4	0.0	283.7606279850006	0.10001993179321289
62	261.53064036369324	fix_pre	0		119	60.0	2.5	/experiments/Knapen_AOT/AOT_stimuli/rescaled_final/0393_fw.mp4	0.0	283.8606479167938	1.0086679458618164
62	262.5143871307373	pulse	0	t		60.0	2.5	/experiments/Knapen_AOT/AOT_stimuli/rescaled_final/0393_fw.mp4	0.0	284.8443946838379	
62	262.53930830955505	movie	1		274	60.0	2.5	/experiments/Knapen_AOT/AOT_stimuli/rescaled_final/0393_fw.mp4	0.0	284.86931586265564	2.491856813430786
62	264.11405420303345	pulse	1	t		60.0	2.5	/experiments/Knapen_AOT/AOT_stimuli/rescaled_final/0393_fw.mp4	0.0	286.44406175613403	
62	265.03116512298584	fix_post	2		12	60.0	2.5	/experiments/Knapen_AOT/AOT_stimuli/rescaled_final/0393_fw.mp4	0.0	287.3611726760864	0.10001993179321289
63	265.13118505477905	fix_pre	0		120	61.0	2.5	blank	1.0	287.46119260787964	1.000133752822876
63	265.7151973247528	pulse	0	t		61.0	2.5	blank	1.0	288.0452048778534	
63	266.13131880760193	movie	1		300	61.0	2.5	blank	1.0	288.4613263607025	2.500420093536377
63	267.3152425289154	pulse	1	t		61.0	2.5	blank	1.0	289.645250082016	
63	268.6317389011383	fix_post	2		12	61.0	2.5	blank	1.0	290.9617464542389	0.09998536109924316
64	268.73172426223755	fix_pre	0		120	62.0	2.5	/experiments/Knapen_AOT/AOT_stimuli/rescaled_final/0895_fw.mp4	0.0	291.06173181533813	1.0084917545318604
64	268.9152841567993	pulse	0	t		62.0	2.5	/experiments/Knapen_AOT/AOT_stimuli/rescaled_final/0895_fw.mp4	0.0	291.2452917098999	
64	269.7402160167694	movie	1		279	62.0	2.5	/experiments/Knapen_AOT/AOT_stimuli/rescaled_final/0895_fw.mp4	0.0	292.07022356987	2.492018461227417
64	270.5137515068054	pulse	1	t		62.0	2.5	/experiments/Knapen_AOT/AOT_stimuli/rescaled_final/0895_fw.mp4	0.0	292.843759059906	
64	272.1137909889221	pulse	1	t		62.0	2.5	/experiments/Knapen_AOT/AOT_stimuli/rescaled_final/0895_fw.mp4	0.0	294.4437985420227	
64	272.2322344779968	fix_post	2		12	62.0	2.5	/experiments/Knapen_AOT/AOT_stimuli/rescaled_final/0895_fw.mp4	0.0	294.5622420310974	0.10001993179321289
65	272.33225440979004	fix_pre	0		120	63.0	2.5	/experiments/Knapen_AOT/AOT_stimuli/rescaled_final/1139_fw.mp4	0.0	294.6622619628906	1.0085413455963135
65	273.34079575538635	movie	1		282	63.0	2.5	/experiments/Knapen_AOT/AOT_stimuli/rescaled_final/1139_fw.mp4	0.0	295.67080330848694	2.49196720123291
65	273.7144377231598	pulse	1	t		63.0	2.5	/experiments/Knapen_AOT/AOT_stimuli/rescaled_final/1139_fw.mp4	0.0	296.0444452762604	
65	275.31415247917175	pulse	1	t		63.0	2.5	/experiments/Knapen_AOT/AOT_stimuli/rescaled_final/1139_fw.mp4	0.0	297.64416003227234	
65	275.83276295661926	fix_post	2		12	63.0	2.5	/experiments/Knapen_AOT/AOT_stimuli/rescaled_final/1139_fw.mp4	0.0	298.16277050971985	0.10002851486206055
66	275.9327914714813	fix_pre	0		119	64.0	2.5	/experiments/Knapen_AOT/AOT_stimuli/rescaled_final/0172_fw.mp4	0.0	298.2627990245819	1.0002307891845703
66	276.9088702201843	pulse	0	t		64.0	2.5	/experiments/Knapen_AOT/AOT_stimuli/rescaled_final/0172_fw.mp4	0.0	299.2388777732849	
66	276.9330222606659	movie	1		294	64.0	2.5	/experiments/Knapen_AOT/AOT_stimuli/rescaled_final/0172_fw.mp4	0.0	299.2630298137665	2.500328779220581
66	278.51544427871704	pulse	1	t		64.0	2.5	/experiments/Knapen_AOT/AOT_stimuli/rescaled_final/0172_fw.mp4	0.0	300.8454518318176	
66	279.4333510398865	fix_post	2		12	64.0	2.5	/experiments/Knapen_AOT/AOT_stimuli/rescaled_final/0172_fw.mp4	0.0	301.76335859298706	0.09998488426208496
67	279.53333592414856	fix_pre	0		120	65.0	2.5	/experiments/Knapen_AOT/AOT_stimuli/rescaled_final/0481_rv.mp4	0.0	301.86334347724915	1.00850248336792
67	280.10891675949097	pulse	0	t		65.0	2.5	/experiments/Knapen_AOT/AOT_stimuli/rescaled_final/0481_rv.mp4	0.0	302.43892431259155	
67	280.5418384075165	movie	1		275	65.0	2.5	/experiments/Knapen_AOT/AOT_stimuli/rescaled_final/0481_rv.mp4	0.0	302.87184596061707	2.4920148849487305
67	281.70939469337463	pulse	1	t		65.0	2.5	/experiments/Knapen_AOT/AOT_stimuli/rescaled_final/0481_rv.mp4	0.0	304.0394022464752	
67	283.0338532924652	fix_post	2		12	65.0	2.5	/experiments/Knapen_AOT/AOT_stimuli/rescaled_final/0481_rv.mp4	0.0	305.3638608455658	0.1000669002532959
68	283.1339201927185	fix_pre	0		120	66.0	2.5	/experiments/Knapen_AOT/AOT_stimuli/rescaled_final/0197_rv.mp4	0.0	305.4639277458191	1.008437156677246
68	283.30927205085754	pulse	0	t		66.0	2.5	/experiments/Knapen_AOT/AOT_stimuli/rescaled_final/0197_rv.mp4	0.0	305.63927960395813	
68	284.14235734939575	movie	1		283	66.0	2.5	/experiments/Knapen_AOT/AOT_stimuli/rescaled_final/0197_rv.mp4	0.0	306.47236490249634	2.4920365810394287
68	284.90942215919495	pulse	1	t		66.0	2.5	/experiments/Knapen_AOT/AOT_stimuli/rescaled_final/0197_rv.mp4	0.0	307.23942971229553	
68	286.5096101760864	pulse	1	t		66.0	2.5	/experiments/Knapen_AOT/AOT_stimuli/rescaled_final/0197_rv.mp4	0.0	308.839617729187	
68	286.6343939304352	fix_post	2		12	66.0	2.5	/experiments/Knapen_AOT/AOT_stimuli/rescaled_final/0197_rv.mp4	0.0	308.96440148353577	0.10005688667297363
69	286.73445081710815	fix_pre	0		120	67.0	2.5	/experiments/Knapen_AOT/AOT_stimuli/rescaled_final/1435_fw.mp4	0.0	309.06445837020874	1.008474588394165
69	287.7429254055023	movie	1		278	67.0	2.5	/experiments/Knapen_AOT/AOT_stimuli/rescaled_final/1435_fw.mp4	0.0	310.0729329586029	2.4920284748077393
69	288.1098427772522	pulse	1	t		67.0	2.5	/experiments/Knapen_AOT/AOT_stimuli/rescaled_final/1435_fw.mp4	0.0	310.4398503303528	
69	289.7094917297363	pulse	1	t		67.0	2.5	/experiments/Knapen_AOT/AOT_stimuli/rescaled_final/1435_fw.mp4	0.0	312.0394992828369	
69	290.23495388031006	fix_post	2		12	67.0	2.5	/experiments/Knapen_AOT/AOT_stimuli/rescaled_final/1435_fw.mp4	0.0	312.56496143341064	0.10000848770141602
70	290.3349623680115	fix_pre	0		118	68.0	2.5	blank	1.0	312.66496992111206	0.9834494590759277
70	291.3104214668274	pulse	0	t		68.0	2.5	blank	1.0	313.640429019928	
70	291.3184118270874	movie	1		301	68.0	2.5	blank	1.0	313.648419380188	2.5087392330169678
70	292.91063261032104	pulse	1	t		68.0	2.5	blank	1.0	315.24064016342163	
70	293.82715106010437	fix_post	2		12	68.0	2.5	blank	1.0	316.15715861320496	0.10002660751342773
71	293.9271776676178	fix_pre	0		120	69.0	2.5	/experiments/Knapen_AOT/AOT_stimuli/rescaled_final/0593_fw.mp4	0.0	316.2571852207184	1.008495807647705
71	294.5108120441437	pulse	0	t		69.0	2.5	/experiments/Knapen_AOT/AOT_stimuli/rescaled_final/0593_fw.mp4	0.0	316.84081959724426	
71	294.9356734752655	movie	1		264	69.0	2.5	/experiments/Knapen_AOT/AOT_stimuli/rescaled_final/0593_fw.mp4	0.0	317.2656810283661	2.492006540298462
71	296.10896396636963	pulse	1	t		69.0	2.5	/experiments/Knapen_AOT/AOT_stimuli/rescaled_final/0593_fw.mp4	0.0	318.4389715194702	
71	297.42768001556396	fix_post	2		12	69.0	2.5	/experiments/Knapen_AOT/AOT_stimuli/rescaled_final/0593_fw.mp4	0.0	319.75768756866455	0.10005807876586914
72	297.52773809432983	fix_pre	0		120	70.0	2.5	/experiments/Knapen_AOT/AOT_stimuli/rescaled_final/1370_rv.mp4	0.0	319.8577456474304	1.0084543228149414
72	297.7113709449768	pulse	0	t		70.0	2.5	/experiments/Knapen_AOT/AOT_stimuli/rescaled_final/1370_rv.mp4	0.0	320.0413784980774	
72	298.5361924171448	movie	1		279	70.0	2.5	/experiments/Knapen_AOT/AOT_stimuli/rescaled_final/1370_rv.mp4	0.0	320.86619997024536	2.492041826248169
72	299.3104648590088	pulse	1	t		70.0	2.5	/experiments/Knapen_AOT/AOT_stimuli/rescaled_final/1370_rv.mp4	0.0	321.6404724121094	
72	300.9104778766632	pulse	1	t		70.0	2.5	/experiments/Knapen_AOT/AOT_stimuli/rescaled_final/1370_rv.mp4	0.0	323.2404854297638	
72	301.02823424339294	fix_post	2		12	70.0	2.5	/experiments/Knapen_AOT/AOT_stimuli/rescaled_final/1370_rv.mp4	0.0	323.35824179649353	0.10006880760192871
73	301.1283030509949	fix_pre	0		120	71.0	2.5	/experiments/Knapen_AOT/AOT_stimuli/rescaled_final/1670_fw.mp4	0.0	323.45831060409546	1.0084304809570312
73	302.1367335319519	movie	1		274	71.0	2.5	/experiments/Knapen_AOT/AOT_stimuli/rescaled_final/1670_fw.mp4	0.0	324.4667410850525	2.4920427799224854
73	302.5105848312378	pulse	1	t		71.0	2.5	/experiments/Knapen_AOT/AOT_stimuli/rescaled_final/1670_fw.mp4	0.0	324.8405923843384	
73	304.1106240749359	pulse	1	t		71.0	2.5	/experiments/Knapen_AOT/AOT_stimuli/rescaled_final/1670_fw.mp4	0.0	326.4406316280365	
73	304.6287763118744	fix_post	2		12	71.0	2.5	/experiments/Knapen_AOT/AOT_stimuli/rescaled_final/1670_fw.mp4	0.0	326.958783864975	0.09999799728393555
74	304.7287743091583	fix_pre	0		119	72.0	2.5	/experiments/Knapen_AOT/AOT_stimuli/rescaled_final/1540_rv.mp4	0.0	327.0587818622589	1.0001437664031982
74	305.7124683856964	pulse	0	t		72.0	2.5	/experiments/Knapen_AOT/AOT_stimuli/rescaled_final/1540_rv.mp4	0.0	328.042475938797	
74	305.7289180755615	movie	1		276	72.0	2.5	/experiments/Knapen_AOT/AOT_stimuli/rescaled_final/1540_rv.mp4	0.0	328.0589256286621	2.5004076957702637
74	307.31114387512207	pulse	1	t		72.0	2.5	/experiments/Knapen_AOT/AOT_stimuli/rescaled_final/1540_rv.mp4	0.0	329.64115142822266	
74	308.2293257713318	fix_post	2		12	72.0	2.5	/experiments/Knapen_AOT/AOT_stimuli/rescaled_final/1540_rv.mp4	0.0	330.5593333244324	0.10001063346862793
75	308.3293364048004	fix_pre	0		120	73.0	2.5	/experiments/Knapen_AOT/AOT_stimuli/rescaled_final/1192_fw.mp4	0.0	330.659343957901	1.0085225105285645
75	308.9130539894104	pulse	0	t		73.0	2.5	/experiments/Knapen_AOT/AOT_stimuli/rescaled_final/1192_fw.mp4	0.0	331.243061542511	
75	309.337858915329	movie	1		275	73.0	2.5	/experiments/Knapen_AOT/AOT_stimuli/rescaled_final/1192_fw.mp4	0.0	331.66786646842957	2.4920170307159424
75	310.51198077201843	pulse	1	t		73.0	2.5	/experiments/Knapen_AOT/AOT_stimuli/rescaled_final/1192_fw.mp4	0.0	332.841988325119	
75	311.8298759460449	fix_post	2		12	73.0	2.5	/experiments/Knapen_AOT/AOT_stimuli/rescaled_final/1192_fw.mp4	0.0	334.1598834991455	0.10000467300415039
76	311.9298806190491	fix_pre	0		120	74.0	2.5	/experiments/Knapen_AOT/AOT_stimuli/rescaled_final/1862_fw.mp4	0.0	334.25988817214966	1.00846529006958
76	312.1134657859802	pulse	0	t		74.0	2.5	/experiments/Knapen_AOT/AOT_stimuli/rescaled_final/1862_fw.mp4	0.0	334.4434733390808	
76	312.93834590911865	movie	1		263	74.0	2.5	/experiments/Knapen_AOT/AOT_stimuli/rescaled_final/1862_fw.mp4	0.0	335.26835346221924	2.492058753967285
76	313.71393513679504	pulse	1	t		74.0	2.5	/experiments/Knapen_AOT/AOT_stimuli/rescaled_final/1862_fw.mp4	0.0	336.04394268989563	
76	315.31220984458923	pulse	1	t		74.0	2.5	/experiments/Knapen_AOT/AOT_stimuli/rescaled_final/1862_fw.mp4	0.0	337.6422173976898	
76	315.43040466308594	fix_post	2		12	74.0	2.5	/experiments/Knapen_AOT/AOT_stimuli/rescaled_final/1862_fw.mp4	0.0	337.7604122161865	0.10001683235168457
77	315.5304214954376	fix_pre	0		120	75.0	2.5	/experiments/Knapen_AOT/AOT_stimuli/rescaled_final/1147_rv.mp4	0.0	337.8604290485382	1.0085318088531494
77	316.53895330429077	movie	1		272	75.0	2.5	/experiments/Knapen_AOT/AOT_stimuli/rescaled_final/1147_rv.mp4	0.0	338.86896085739136	2.491997003555298
77	316.9134268760681	pulse	1	t		75.0	2.5	/experiments/Knapen_AOT/AOT_stimuli/rescaled_final/1147_rv.mp4	0.0	339.2434344291687	
77	318.5131278038025	pulse	1	t		75.0	2.5	/experiments/Knapen_AOT/AOT_stimuli/rescaled_final/1147_rv.mp4	0.0	340.8431353569031	
77	319.03095030784607	fix_post	2		12	75.0	2.5	/experiments/Knapen_AOT/AOT_stimuli/rescaled_final/1147_rv.mp4	0.0	341.36095786094666	0.10002398490905762
78	319.1309742927551	fix_pre	0		119	76.0	2.5	/experiments/Knapen_AOT/AOT_stimuli/rescaled_final/0291_fw.mp4	0.0	341.4609818458557	1.0001542568206787
78	320.11494398117065	pulse	0	t		76.0	2.5	/experiments/Knapen_AOT/AOT_stimuli/rescaled_final/0291_fw.mp4	0.0	342.44495153427124	
78	320.1311285495758	movie	1		290	76.0	2.5	/experiments/Knapen_AOT/AOT_stimuli/rescaled_final/0291_fw.mp4	0.0	342.4611361026764	2.5004003047943115
78	321.71325421333313	pulse	1	t		76.0	2.5	/experiments/Knapen_AOT/AOT_stimuli/rescaled_final/0291_fw.mp4	0.0	344.0432617664337	
78	322.6315288543701	fix_post	2		12	76.0	2.5	/experiments/Knapen_AOT/AOT_stimuli/rescaled_final/0291_fw.mp4	0.0	344.9615364074707	0.10000085830688477
79	322.731529712677	fix_pre	0		120	77.0	2.5	blank	1.0	345.0615372657776	1.0001332759857178
79	323.3151104450226	pulse	0	t		77.0	2.5	blank	1.0	345.64511799812317	
79	323.7316629886627	movie	1		300	77.0	2.5	blank	1.0	346.0616705417633	2.500335454940796
79	324.9153974056244	pulse	1	t		77.0	2.5	blank	1.0	347.245404958725	
79	326.2319984436035	fix_post	2		12	77.0	2.5	blank	1.0	348.5620059967041	0.10004043579101562
80	326.33203887939453	fix_pre	0		120	78.0	2.5	/experiments/Knapen_AOT/AOT_stimuli/rescaled_final/0332_fw.mp4	0.0	348.6620464324951	1.0085160732269287
80	326.5156362056732	pulse	0	t		78.0	2.5	/experiments/Knapen_AOT/AOT_stimuli/rescaled_final/0332_fw.mp4	0.0	348.8456437587738	
80	327.34055495262146	movie	1		284	78.0	2.5	/experiments/Knapen_AOT/AOT_stimuli/rescaled_final/0332_fw.mp4	0.0	349.67056250572205	2.4920413494110107
80	328.11368227005005	pulse	1	t		78.0	2.5	/experiments/Knapen_AOT/AOT_stimuli/rescaled_final/0332_fw.mp4	0.0	350.44368982315063	
80	329.7142972946167	pulse	1	t		78.0	2.5	/experiments/Knapen_AOT/AOT_stimuli/rescaled_final/0332_fw.mp4	0.0	352.0443048477173	
80	329.83259630203247	fix_post	2		12	78.0	2.5	/experiments/Knapen_AOT/AOT_stimuli/rescaled_final/0332_fw.mp4	0.0	352.16260385513306	0.10016369819641113
81	329.9327600002289	fix_pre	0		120	79.0	2.5	/experiments/Knapen_AOT/AOT_stimuli/rescaled_final/1595_rv.mp4	0.0	352.26276755332947	1.0082969665527344
81	330.9410569667816	movie	1		257	79.0	2.5	/experiments/Knapen_AOT/AOT_stimuli/rescaled_final/1595_rv.mp4	0.0	353.2710645198822	2.492053747177124
81	331.31495666503906	pulse	1	t		79.0	2.5	/experiments/Knapen_AOT/AOT_stimuli/rescaled_final/1595_rv.mp4	0.0	353.64496421813965	
81	332.9153964519501	pulse	1	t		79.0	2.5	/experiments/Knapen_AOT/AOT_stimuli/rescaled_final/1595_rv.mp4	0.0	355.24540400505066	
81	333.43311071395874	fix_post	2		12	79.0	2.5	/experiments/Knapen_AOT/AOT_stimuli/rescaled_final/1595_rv.mp4	0.0	355.7631182670593	0.10001301765441895
82	333.53312373161316	fix_pre	0		119	80.0	2.5	/experiments/Knapen_AOT/AOT_stimuli/rescaled_final/1490_fw.mp4	0.0	355.86313128471375	1.0001873970031738
82	334.5095818042755	pulse	0	t		80.0	2.5	/experiments/Knapen_AOT/AOT_stimuli/rescaled_final/1490_fw.mp4	0.0	356.8395893573761	
82	334.53331112861633	movie	1		255	80.0	2.5	/experiments/Knapen_AOT/AOT_stimuli/rescaled_final/1490_fw.mp4	0.0	356.8633186817169	2.5003561973571777
82	336.11716961860657	pulse	1	t		80.0	2.5	/experiments/Knapen_AOT/AOT_stimuli/rescaled_final/1490_fw.mp4	0.0	358.44717717170715	
82	337.0336673259735	fix_post	2		12	80.0	2.5	/experiments/Knapen_AOT/AOT_stimuli/rescaled_final/1490_fw.mp4	0.0	359.3636748790741	0.10000896453857422
83	337.1336762905121	fix_pre	0		120	81.0	2.5	/experiments/Knapen_AOT/AOT_stimuli/rescaled_final/0982_rv.mp4	0.0	359.46368384361267	1.0084879398345947
83	337.70930767059326	pulse	0	t		81.0	2.5	/experiments/Knapen_AOT/AOT_stimuli/rescaled_final/0982_rv.mp4	0.0	360.03931522369385	
83	338.1421642303467	movie	1		287	81.0	2.5	/experiments/Knapen_AOT/AOT_stimuli/rescaled_final/0982_rv.mp4	0.0	360.47217178344727	2.4920461177825928
83	339.30941009521484	pulse	1	t		81.0	2.5	/experiments/Knapen_AOT/AOT_stimuli/rescaled_final/0982_rv.mp4	0.0	361.63941764831543	
83	340.6342103481293	fix_post	2		12	81.0	2.5	/experiments/Knapen_AOT/AOT_stimuli/rescaled_final/0982_rv.mp4	0.0	362.96421790122986	0.10000491142272949
84	340.734215259552	fix_pre	0		120	82.0	2.5	blank	1.0	363.0642228126526	1.0001919269561768
84	340.9097247123718	pulse	0	t		82.0	2.5	blank	1.0	363.2397322654724	
84	341.7344071865082	movie	1		300	82.0	2.5	blank	1.0	364.06441473960876	2.500321626663208
84	342.50971961021423	pulse	1	t		82.0	2.5	blank	1.0	364.8397271633148	
84	344.10990953445435	pulse	1	t		82.0	2.5	blank	1.0	366.43991708755493	
84	344.2347288131714	fix_post	2		12	82.0	2.5	blank	1.0	366.564736366272	0.10013628005981445
85	344.3348650932312	fix_pre	0		120	83.0	2.5	/experiments/Knapen_AOT/AOT_stimuli/rescaled_final/1484_rv.mp4	0.0	366.6648726463318	1.0083658695220947
85	345.3432309627533	movie	1		272	83.0	2.5	/experiments/Knapen_AOT/AOT_stimuli/rescaled_final/1484_rv.mp4	0.0	367.6732385158539	2.4920384883880615
85	345.7084445953369	pulse	1	t		83.0	2.5	/experiments/Knapen_AOT/AOT_stimuli/rescaled_final/1484_rv.mp4	0.0	368.0384521484375	
85	347.3108220100403	pulse	1	t		83.0	2.5	/experiments/Knapen_AOT/AOT_stimuli/rescaled_final/1484_rv.mp4	0.0	369.64082956314087	
85	347.83526945114136	fix_post	2		12	83.0	2.5	/experiments/Knapen_AOT/AOT_stimuli/rescaled_final/1484_rv.mp4	0.0	370.16527700424194	0.10002684593200684
87	347.93529629707336	stim	0		1715					370.26530385017395	14.293895244598389
87	348.91067147254944	pulse	0	t						371.24067902565	
87	350.51103019714355	pulse	0	t						372.84103775024414	
87	352.1111707687378	pulse	0	t						374.4411783218384	
87	353.7113971710205	pulse	0	t						376.0414047241211	
87	355.31166410446167	pulse	0	t						377.64167165756226	
87	356.9118916988373	pulse	0	t						379.24189925193787	
87	358.5120313167572	pulse	0	t						380.8420388698578	
87	360.1123673915863	pulse	0	t						382.4423749446869	
87	361.7125508785248	pulse	0	t						384.04255843162537	
