trial_nr	onset	event_type	phase	response	nr_frames	movie_index	movie_duration	movie_file	blank	onset_abs	duration
0	0.1664118766784668	stim	0		101					26.509470462799072	0.8416624069213867
0	0.9999403953552246	response	0	space						27.34299898147583	
1	1.0080742835998535	stim	0		4113					27.35113286972046	34.289716720581055
1	35.28797125816345	pulse	0	t						61.63102984428406	
1	35.29779100418091	stim	1		1715					61.640849590301514	14.300926208496094
1	36.88035869598389	pulse	1	t						63.22341728210449	
1	38.480855226516724	pulse	1	t						64.82391381263733	
1	40.08084535598755	pulse	1	t						66.42390394210815	
1	41.68104386329651	pulse	1	t						68.02410244941711	
1	43.281370639801025	pulse	1	t						69.62442922592163	
1	44.88148331642151	pulse	1	t						71.22454190254211	
1	46.481889724731445	pulse	1	t						72.82494831085205	
1	48.08212447166443	pulse	1	t						74.42518305778503	
2	49.598717212677	fix_pre	0		11	0.0	2.5	/experiments/Knapen_AOT/AOT_stimuli/rescaled_final/2023_fw.mp4	0.0	75.94177579879761	0.10844731330871582
2	49.68227505683899	pulse	0	t		0.0	2.5	/experiments/Knapen_AOT/AOT_stimuli/rescaled_final/2023_fw.mp4	0.0	76.0253336429596	
2	49.70716452598572	movie	1		286	0.0	2.5	/experiments/Knapen_AOT/AOT_stimuli/rescaled_final/2023_fw.mp4	0.0	76.05022311210632	2.491952419281006
2	51.2809841632843	pulse	1	t		0.0	2.5	/experiments/Knapen_AOT/AOT_stimuli/rescaled_final/2023_fw.mp4	0.0	77.62404274940491	
2	52.199116945266724	fix_post	2		12	0.0	2.5	/experiments/Knapen_AOT/AOT_stimuli/rescaled_final/2023_fw.mp4	0.0	78.54217553138733	0.10002636909484863
3	52.29914331436157	fix_pre	0		120	1.0	2.5	/experiments/Knapen_AOT/AOT_stimuli/rescaled_final/0882_rv.mp4	0.0	78.64220190048218	1.008514642715454
3	52.8828661441803	pulse	0	t		1.0	2.5	/experiments/Knapen_AOT/AOT_stimuli/rescaled_final/0882_rv.mp4	0.0	79.2259247303009	
3	53.307657957077026	movie	1		286	1.0	2.5	/experiments/Knapen_AOT/AOT_stimuli/rescaled_final/0882_rv.mp4	0.0	79.65071654319763	2.4919869899749756
3	54.4809889793396	pulse	1	t		1.0	2.5	/experiments/Knapen_AOT/AOT_stimuli/rescaled_final/0882_rv.mp4	0.0	80.8240475654602	
3	55.799644947052	fix_post	2		12	1.0	2.5	/experiments/Knapen_AOT/AOT_stimuli/rescaled_final/0882_rv.mp4	0.0	82.14270353317261	0.10001897811889648
4	55.8996639251709	fix_pre	0		120	2.0	2.5	/experiments/Knapen_AOT/AOT_stimuli/rescaled_final/1841_rv.mp4	0.0	82.2427225112915	1.0085515975952148
4	56.08336687088013	pulse	0	t		2.0	2.5	/experiments/Knapen_AOT/AOT_stimuli/rescaled_final/1841_rv.mp4	0.0	82.42642545700073	
4	56.90821552276611	movie	1		282	2.0	2.5	/experiments/Knapen_AOT/AOT_stimuli/rescaled_final/1841_rv.mp4	0.0	83.25127410888672	2.491985559463501
4	57.68137526512146	pulse	1	t		2.0	2.5	/experiments/Knapen_AOT/AOT_stimuli/rescaled_final/1841_rv.mp4	0.0	84.02443385124207	
4	59.28166317939758	pulse	1	t		2.0	2.5	/experiments/Knapen_AOT/AOT_stimuli/rescaled_final/1841_rv.mp4	0.0	85.62472176551819	
4	59.400201082229614	fix_post	2		12	2.0	2.5	/experiments/Knapen_AOT/AOT_stimuli/rescaled_final/1841_rv.mp4	0.0	85.74325966835022	0.1000070571899414
5	59.500208139419556	fix_pre	0		120	3.0	2.5	/experiments/Knapen_AOT/AOT_stimuli/rescaled_final/1545_fw.mp4	0.0	85.84326672554016	1.0085177421569824
5	60.50872588157654	movie	1		276	3.0	2.5	/experiments/Knapen_AOT/AOT_stimuli/rescaled_final/1545_fw.mp4	0.0	86.85178446769714	2.491997003555298
5	60.882258892059326	pulse	1	t		3.0	2.5	/experiments/Knapen_AOT/AOT_stimuli/rescaled_final/1545_fw.mp4	0.0	87.22531747817993	
5	62.482614278793335	pulse	1	t		3.0	2.5	/experiments/Knapen_AOT/AOT_stimuli/rescaled_final/1545_fw.mp4	0.0	88.82567286491394	
5	63.000722885131836	fix_post	2		12	3.0	2.5	/experiments/Knapen_AOT/AOT_stimuli/rescaled_final/1545_fw.mp4	0.0	89.34378147125244	0.10003423690795898
6	63.100757122039795	fix_pre	0		119	4.0	2.5	/experiments/Knapen_AOT/AOT_stimuli/rescaled_final/0793_fw.mp4	0.0	89.4438157081604	1.0002317428588867
6	64.08451223373413	pulse	0	t		4.0	2.5	/experiments/Knapen_AOT/AOT_stimuli/rescaled_final/0793_fw.mp4	0.0	90.42757081985474	
6	64.10098886489868	movie	1		285	4.0	2.5	/experiments/Knapen_AOT/AOT_stimuli/rescaled_final/0793_fw.mp4	0.0	90.44404745101929	2.5002784729003906
6	65.68295526504517	pulse	1	t		4.0	2.5	/experiments/Knapen_AOT/AOT_stimuli/rescaled_final/0793_fw.mp4	0.0	92.02601385116577	
6	66.60126733779907	fix_post	2		12	4.0	2.5	/experiments/Knapen_AOT/AOT_stimuli/rescaled_final/0793_fw.mp4	0.0	92.94432592391968	0.10003447532653809
7	66.70130181312561	fix_pre	0		120	5.0	2.5	blank	1.0	93.04436039924622	1.0001747608184814
7	67.28493595123291	pulse	0	t		5.0	2.5	blank	1.0	93.62799453735352	
7	67.70147657394409	movie	1		300	5.0	2.5	blank	1.0	94.0445351600647	2.5004165172576904
7	68.87726855278015	pulse	1	t		5.0	2.5	blank	1.0	95.22032713890076	
7	70.20189309120178	fix_post	2		12	5.0	2.5	blank	1.0	96.54495167732239	0.09999489784240723
8	70.30188798904419	fix_pre	0		120	6.0	2.5	/experiments/Knapen_AOT/AOT_stimuli/rescaled_final/0310_fw.mp4	0.0	96.6449465751648	1.0084412097930908
8	70.47730350494385	pulse	0	t		6.0	2.5	/experiments/Knapen_AOT/AOT_stimuli/rescaled_final/0310_fw.mp4	0.0	96.82036209106445	
8	71.31032919883728	movie	1		287	6.0	2.5	/experiments/Knapen_AOT/AOT_stimuli/rescaled_final/0310_fw.mp4	0.0	97.65338778495789	2.491999626159668
8	72.07857871055603	pulse	1	t		6.0	2.5	/experiments/Knapen_AOT/AOT_stimuli/rescaled_final/0310_fw.mp4	0.0	98.42163729667664	
8	73.67746376991272	pulse	1	t		6.0	2.5	/experiments/Knapen_AOT/AOT_stimuli/rescaled_final/0310_fw.mp4	0.0	100.02052235603333	
8	73.80232882499695	fix_post	2		12	6.0	2.5	/experiments/Knapen_AOT/AOT_stimuli/rescaled_final/0310_fw.mp4	0.0	100.14538741111755	0.1000208854675293
9	73.90234971046448	fix_pre	0		120	7.0	2.5	/experiments/Knapen_AOT/AOT_stimuli/rescaled_final/0215_fw.mp4	0.0	100.24540829658508	1.0001435279846191
9	74.9024932384491	movie	1		295	7.0	2.5	/experiments/Knapen_AOT/AOT_stimuli/rescaled_final/0215_fw.mp4	0.0	101.2455518245697	2.5003960132598877
9	75.27773261070251	pulse	1	t		7.0	2.5	/experiments/Knapen_AOT/AOT_stimuli/rescaled_final/0215_fw.mp4	0.0	101.62079119682312	
9	76.87801361083984	pulse	1	t		7.0	2.5	/experiments/Knapen_AOT/AOT_stimuli/rescaled_final/0215_fw.mp4	0.0	103.22107219696045	
9	77.40288925170898	fix_post	2		12	7.0	2.5	/experiments/Knapen_AOT/AOT_stimuli/rescaled_final/0215_fw.mp4	0.0	103.74594783782959	0.10002470016479492
10	77.50291395187378	fix_pre	0		118	8.0	2.5	/experiments/Knapen_AOT/AOT_stimuli/rescaled_final/0198_fw.mp4	0.0	103.84597253799438	0.9918556213378906
10	78.47855973243713	pulse	0	t		8.0	2.5	/experiments/Knapen_AOT/AOT_stimuli/rescaled_final/0198_fw.mp4	0.0	104.82161831855774	
10	78.49476957321167	movie	1		296	8.0	2.5	/experiments/Knapen_AOT/AOT_stimuli/rescaled_final/0198_fw.mp4	0.0	104.83782815933228	2.500361204147339
10	80.07854962348938	pulse	1	t		8.0	2.5	/experiments/Knapen_AOT/AOT_stimuli/rescaled_final/0198_fw.mp4	0.0	106.42160820960999	
10	80.99513077735901	fix_post	2		12	8.0	2.5	/experiments/Knapen_AOT/AOT_stimuli/rescaled_final/0198_fw.mp4	0.0	107.33818936347961	0.10003662109375
11	81.09516739845276	fix_pre	0		120	9.0	2.5	/experiments/Knapen_AOT/AOT_stimuli/rescaled_final/1271_rv.mp4	0.0	107.43822598457336	1.0086288452148438
11	81.6787600517273	pulse	0	t		9.0	2.5	/experiments/Knapen_AOT/AOT_stimuli/rescaled_final/1271_rv.mp4	0.0	108.0218186378479	
11	82.1037962436676	movie	1		283	9.0	2.5	/experiments/Knapen_AOT/AOT_stimuli/rescaled_final/1271_rv.mp4	0.0	108.44685482978821	2.4919064044952393
11	83.27733874320984	pulse	1	t		9.0	2.5	/experiments/Knapen_AOT/AOT_stimuli/rescaled_final/1271_rv.mp4	0.0	109.62039732933044	
11	84.59570264816284	fix_post	2		12	9.0	2.5	/experiments/Knapen_AOT/AOT_stimuli/rescaled_final/1271_rv.mp4	0.0	110.93876123428345	0.10005784034729004
12	84.69576048851013	fix_pre	0		120	10.0	2.5	/experiments/Knapen_AOT/AOT_stimuli/rescaled_final/0198_rv.mp4	0.0	111.03881907463074	1.0084502696990967
12	84.87934947013855	pulse	0	t		10.0	2.5	/experiments/Knapen_AOT/AOT_stimuli/rescaled_final/0198_rv.mp4	0.0	111.22240805625916	
12	85.70421075820923	movie	1		278	10.0	2.5	/experiments/Knapen_AOT/AOT_stimuli/rescaled_final/0198_rv.mp4	0.0	112.04726934432983	2.492030143737793
12	86.47762298583984	pulse	1	t		10.0	2.5	/experiments/Knapen_AOT/AOT_stimuli/rescaled_final/0198_rv.mp4	0.0	112.82068157196045	
12	88.07765626907349	pulse	1	t		10.0	2.5	/experiments/Knapen_AOT/AOT_stimuli/rescaled_final/0198_rv.mp4	0.0	114.42071485519409	
12	88.19624090194702	fix_post	2		12	10.0	2.5	/experiments/Knapen_AOT/AOT_stimuli/rescaled_final/0198_rv.mp4	0.0	114.53929948806763	0.09999322891235352
13	88.29623413085938	fix_pre	0		120	11.0	2.5	/experiments/Knapen_AOT/AOT_stimuli/rescaled_final/0726_fw.mp4	0.0	114.63929271697998	1.0084784030914307
13	89.3047125339508	movie	1		277	11.0	2.5	/experiments/Knapen_AOT/AOT_stimuli/rescaled_final/0726_fw.mp4	0.0	115.64777112007141	2.4921746253967285
13	89.67829823493958	pulse	1	t		11.0	2.5	/experiments/Knapen_AOT/AOT_stimuli/rescaled_final/0726_fw.mp4	0.0	116.02135682106018	
13	91.27836632728577	pulse	1	t		11.0	2.5	/experiments/Knapen_AOT/AOT_stimuli/rescaled_final/0726_fw.mp4	0.0	117.62142491340637	
13	91.79688715934753	fix_post	2		12	11.0	2.5	/experiments/Knapen_AOT/AOT_stimuli/rescaled_final/0726_fw.mp4	0.0	118.13994574546814	0.09993433952331543
14	91.89682149887085	fix_pre	0		119	12.0	2.5	blank	1.0	118.23988008499146	0.9917876720428467
14	92.88054013252258	pulse	0	t		12.0	2.5	blank	1.0	119.22359871864319	
14	92.8886091709137	movie	1		301	12.0	2.5	blank	1.0	119.2316677570343	2.5086753368377686
14	94.48072576522827	pulse	1	t		12.0	2.5	blank	1.0	120.82378435134888	
14	95.39728450775146	fix_post	2		12	12.0	2.5	blank	1.0	121.74034309387207	0.10004210472106934
15	95.49732661247253	fix_pre	0		120	13.0	2.5	/experiments/Knapen_AOT/AOT_stimuli/rescaled_final/1865_fw.mp4	0.0	121.84038519859314	1.0085909366607666
15	96.08093905448914	pulse	0	t		13.0	2.5	/experiments/Knapen_AOT/AOT_stimuli/rescaled_final/1865_fw.mp4	0.0	122.42399764060974	
15	96.5059175491333	movie	1		274	13.0	2.5	/experiments/Knapen_AOT/AOT_stimuli/rescaled_final/1865_fw.mp4	0.0	122.8489761352539	2.4919381141662598
15	97.67941331863403	pulse	1	t		13.0	2.5	/experiments/Knapen_AOT/AOT_stimuli/rescaled_final/1865_fw.mp4	0.0	124.02247190475464	
15	98.99785566329956	fix_post	2		12	13.0	2.5	/experiments/Knapen_AOT/AOT_stimuli/rescaled_final/1865_fw.mp4	0.0	125.34091424942017	0.1000216007232666
16	99.09787726402283	fix_pre	0		120	14.0	2.5	/experiments/Knapen_AOT/AOT_stimuli/rescaled_final/0715_fw.mp4	0.0	125.44093585014343	1.0085763931274414
16	99.28141975402832	pulse	0	t		14.0	2.5	/experiments/Knapen_AOT/AOT_stimuli/rescaled_final/0715_fw.mp4	0.0	125.62447834014893	
16	100.10645365715027	movie	1		283	14.0	2.5	/experiments/Knapen_AOT/AOT_stimuli/rescaled_final/0715_fw.mp4	0.0	126.44951224327087	2.49190092086792
16	100.87959718704224	pulse	1	t		14.0	2.5	/experiments/Knapen_AOT/AOT_stimuli/rescaled_final/0715_fw.mp4	0.0	127.22265577316284	
16	102.4799964427948	pulse	1	t		14.0	2.5	/experiments/Knapen_AOT/AOT_stimuli/rescaled_final/0715_fw.mp4	0.0	128.8230550289154	
16	102.59835457801819	fix_post	2		12	14.0	2.5	/experiments/Knapen_AOT/AOT_stimuli/rescaled_final/0715_fw.mp4	0.0	128.9414131641388	0.10004019737243652
17	102.69839477539062	fix_pre	0		120	15.0	2.5	/experiments/Knapen_AOT/AOT_stimuli/rescaled_final/1002_rv.mp4	0.0	129.04145336151123	1.0085346698760986
17	103.70692944526672	movie	1		284	15.0	2.5	/experiments/Knapen_AOT/AOT_stimuli/rescaled_final/1002_rv.mp4	0.0	130.04998803138733	2.4919822216033936
17	104.08033633232117	pulse	1	t		15.0	2.5	/experiments/Knapen_AOT/AOT_stimuli/rescaled_final/1002_rv.mp4	0.0	130.42339491844177	
17	105.6803548336029	pulse	1	t		15.0	2.5	/experiments/Knapen_AOT/AOT_stimuli/rescaled_final/1002_rv.mp4	0.0	132.0234134197235	
17	106.19891166687012	fix_post	2		12	15.0	2.5	/experiments/Knapen_AOT/AOT_stimuli/rescaled_final/1002_rv.mp4	0.0	132.54197025299072	0.10001277923583984
18	106.29892444610596	fix_pre	0		119	16.0	2.5	/experiments/Knapen_AOT/AOT_stimuli/rescaled_final/1014_fw.mp4	0.0	132.64198303222656	1.000239610671997
18	107.2827033996582	pulse	0	t		16.0	2.5	/experiments/Knapen_AOT/AOT_stimuli/rescaled_final/1014_fw.mp4	0.0	133.6257619857788	
18	107.29916405677795	movie	1		278	16.0	2.5	/experiments/Knapen_AOT/AOT_stimuli/rescaled_final/1014_fw.mp4	0.0	133.64222264289856	2.5003018379211426
18	108.88128137588501	pulse	1	t		16.0	2.5	/experiments/Knapen_AOT/AOT_stimuli/rescaled_final/1014_fw.mp4	0.0	135.22433996200562	
18	109.7994658946991	fix_post	2		12	16.0	2.5	/experiments/Knapen_AOT/AOT_stimuli/rescaled_final/1014_fw.mp4	0.0	136.1425244808197	0.0999753475189209
19	109.89944124221802	fix_pre	0		120	17.0	2.5	/experiments/Knapen_AOT/AOT_stimuli/rescaled_final/0647_rv.mp4	0.0	136.24249982833862	1.0085906982421875
19	110.48309588432312	pulse	0	t		17.0	2.5	/experiments/Knapen_AOT/AOT_stimuli/rescaled_final/0647_rv.mp4	0.0	136.82615447044373	
19	110.9080319404602	movie	1		281	17.0	2.5	/experiments/Knapen_AOT/AOT_stimuli/rescaled_final/0647_rv.mp4	0.0	137.2510905265808	2.491962194442749
19	112.08219194412231	pulse	1	t		17.0	2.5	/experiments/Knapen_AOT/AOT_stimuli/rescaled_final/0647_rv.mp4	0.0	138.42525053024292	
19	113.39999413490295	fix_post	2		12	17.0	2.5	/experiments/Knapen_AOT/AOT_stimuli/rescaled_final/0647_rv.mp4	0.0	139.74305272102356	0.10002493858337402
20	113.50001907348633	fix_pre	0		120	18.0	2.5	/experiments/Knapen_AOT/AOT_stimuli/rescaled_final/0496_fw.mp4	0.0	139.84307765960693	1.0085175037384033
20	113.68359804153442	pulse	0	t		18.0	2.5	/experiments/Knapen_AOT/AOT_stimuli/rescaled_final/0496_fw.mp4	0.0	140.02665662765503	
20	114.50853657722473	movie	1		275	18.0	2.5	/experiments/Knapen_AOT/AOT_stimuli/rescaled_final/0496_fw.mp4	0.0	140.85159516334534	2.492016553878784
20	115.28191685676575	pulse	1	t		18.0	2.5	/experiments/Knapen_AOT/AOT_stimuli/rescaled_final/0496_fw.mp4	0.0	141.62497544288635	
20	116.88225197792053	pulse	1	t		18.0	2.5	/experiments/Knapen_AOT/AOT_stimuli/rescaled_final/0496_fw.mp4	0.0	143.22531056404114	
20	117.00055313110352	fix_post	2		12	18.0	2.5	/experiments/Knapen_AOT/AOT_stimuli/rescaled_final/0496_fw.mp4	0.0	143.34361171722412	0.10003852844238281
21	117.1005916595459	fix_pre	0		120	19.0	2.5	/experiments/Knapen_AOT/AOT_stimuli/rescaled_final/0564_fw.mp4	0.0	143.4436502456665	1.0084643363952637
21	118.10905599594116	movie	1		288	19.0	2.5	/experiments/Knapen_AOT/AOT_stimuli/rescaled_final/0564_fw.mp4	0.0	144.45211458206177	2.492058515548706
21	118.4827823638916	pulse	1	t		19.0	2.5	/experiments/Knapen_AOT/AOT_stimuli/rescaled_final/0564_fw.mp4	0.0	144.8258409500122	
21	120.08234858512878	pulse	1	t		19.0	2.5	/experiments/Knapen_AOT/AOT_stimuli/rescaled_final/0564_fw.mp4	0.0	146.4254071712494	
21	120.60111451148987	fix_post	2		12	19.0	2.5	/experiments/Knapen_AOT/AOT_stimuli/rescaled_final/0564_fw.mp4	0.0	146.94417309761047	0.09998655319213867
22	120.701101064682	fix_pre	0		119	20.0	2.5	/experiments/Knapen_AOT/AOT_stimuli/rescaled_final/1841_rv.mp4	0.0	147.0441596508026	1.0002779960632324
22	121.68479108810425	pulse	0	t		20.0	2.5	/experiments/Knapen_AOT/AOT_stimuli/rescaled_final/1841_rv.mp4	0.0	148.02784967422485	
22	121.70137906074524	movie	1		287	20.0	2.5	/experiments/Knapen_AOT/AOT_stimuli/rescaled_final/1841_rv.mp4	0.0	148.04443764686584	2.5002331733703613
22	123.28379964828491	pulse	1	t		20.0	2.5	/experiments/Knapen_AOT/AOT_stimuli/rescaled_final/1841_rv.mp4	0.0	149.62685823440552	
22	124.2016122341156	fix_post	2		12	20.0	2.5	/experiments/Knapen_AOT/AOT_stimuli/rescaled_final/1841_rv.mp4	0.0	150.5446708202362	0.10002684593200684
23	124.30163908004761	fix_pre	0		120	21.0	2.5	blank	1.0	150.6446976661682	1.0001826286315918
23	124.88535761833191	pulse	0	t		21.0	2.5	blank	1.0	151.22841620445251	
23	125.3018217086792	movie	1		300	21.0	2.5	blank	1.0	151.6448802947998	2.5003509521484375
23	126.47761178016663	pulse	1	t		21.0	2.5	blank	1.0	152.82067036628723	
23	127.80217266082764	fix_post	2		12	21.0	2.5	blank	1.0	154.14523124694824	0.1000216007232666
24	127.9021942615509	fix_pre	0		120	22.0	2.5	/experiments/Knapen_AOT/AOT_stimuli/rescaled_final/1311_fw.mp4	0.0	154.2452528476715	1.0085155963897705
24	128.07779026031494	pulse	0	t		22.0	2.5	/experiments/Knapen_AOT/AOT_stimuli/rescaled_final/1311_fw.mp4	0.0	154.42084884643555	
24	128.91070985794067	movie	1		284	22.0	2.5	/experiments/Knapen_AOT/AOT_stimuli/rescaled_final/1311_fw.mp4	0.0	155.25376844406128	2.492004156112671
24	129.67767310142517	pulse	1	t		22.0	2.5	/experiments/Knapen_AOT/AOT_stimuli/rescaled_final/1311_fw.mp4	0.0	156.02073168754578	
24	131.27791285514832	pulse	1	t		22.0	2.5	/experiments/Knapen_AOT/AOT_stimuli/rescaled_final/1311_fw.mp4	0.0	157.62097144126892	
24	131.40271401405334	fix_post	2		12	22.0	2.5	/experiments/Knapen_AOT/AOT_stimuli/rescaled_final/1311_fw.mp4	0.0	157.74577260017395	0.10002398490905762
25	131.5027379989624	fix_pre	0		120	23.0	2.5	/experiments/Knapen_AOT/AOT_stimuli/rescaled_final/0203_fw.mp4	0.0	157.845796585083	1.008507490158081
25	132.51124548912048	movie	1		288	23.0	2.5	/experiments/Knapen_AOT/AOT_stimuli/rescaled_final/0203_fw.mp4	0.0	158.8543040752411	2.4920191764831543
25	132.87819457054138	pulse	1	t		23.0	2.5	/experiments/Knapen_AOT/AOT_stimuli/rescaled_final/0203_fw.mp4	0.0	159.221253156662	
25	134.47836470603943	pulse	1	t		23.0	2.5	/experiments/Knapen_AOT/AOT_stimuli/rescaled_final/0203_fw.mp4	0.0	160.82142329216003	
25	135.00326466560364	fix_post	2		12	23.0	2.5	/experiments/Knapen_AOT/AOT_stimuli/rescaled_final/0203_fw.mp4	0.0	161.34632325172424	0.10000824928283691
26	135.10327291488647	fix_pre	0		118	24.0	2.5	/experiments/Knapen_AOT/AOT_stimuli/rescaled_final/1018_rv.mp4	0.0	161.44633150100708	0.9918234348297119
26	136.07861065864563	pulse	0	t		24.0	2.5	/experiments/Knapen_AOT/AOT_stimuli/rescaled_final/1018_rv.mp4	0.0	162.42166924476624	
26	136.0950963497162	movie	1		265	24.0	2.5	/experiments/Knapen_AOT/AOT_stimuli/rescaled_final/1018_rv.mp4	0.0	162.4381549358368	2.5003662109375
26	137.679128408432	pulse	1	t		24.0	2.5	/experiments/Knapen_AOT/AOT_stimuli/rescaled_final/1018_rv.mp4	0.0	164.0221869945526	
26	138.5954625606537	fix_post	2		12	24.0	2.5	/experiments/Knapen_AOT/AOT_stimuli/rescaled_final/1018_rv.mp4	0.0	164.9385211467743	0.1000208854675293
27	138.69548344612122	fix_pre	0		120	25.0	2.5	/experiments/Knapen_AOT/AOT_stimuli/rescaled_final/1980_fw.mp4	0.0	165.03854203224182	1.00848388671875
27	139.27912378311157	pulse	0	t		25.0	2.5	/experiments/Knapen_AOT/AOT_stimuli/rescaled_final/1980_fw.mp4	0.0	165.62218236923218	
27	139.70396733283997	movie	1		281	25.0	2.5	/experiments/Knapen_AOT/AOT_stimuli/rescaled_final/1980_fw.mp4	0.0	166.04702591896057	2.492046356201172
27	140.877338886261	pulse	1	t		25.0	2.5	/experiments/Knapen_AOT/AOT_stimuli/rescaled_final/1980_fw.mp4	0.0	167.2203974723816	
27	142.19601368904114	fix_post	2		12	25.0	2.5	/experiments/Knapen_AOT/AOT_stimuli/rescaled_final/1980_fw.mp4	0.0	168.53907227516174	0.1000218391418457
28	142.29603552818298	fix_pre	0		120	26.0	2.5	/experiments/Knapen_AOT/AOT_stimuli/rescaled_final/1772_rv.mp4	0.0	168.6390941143036	1.0085604190826416
28	142.4795742034912	pulse	0	t		26.0	2.5	/experiments/Knapen_AOT/AOT_stimuli/rescaled_final/1772_rv.mp4	0.0	168.82263278961182	
28	143.30459594726562	movie	1		285	26.0	2.5	/experiments/Knapen_AOT/AOT_stimuli/rescaled_final/1772_rv.mp4	0.0	169.64765453338623	2.491986036300659
28	144.0780532360077	pulse	1	t		26.0	2.5	/experiments/Knapen_AOT/AOT_stimuli/rescaled_final/1772_rv.mp4	0.0	170.4211118221283	
28	145.6784064769745	pulse	1	t		26.0	2.5	/experiments/Knapen_AOT/AOT_stimuli/rescaled_final/1772_rv.mp4	0.0	172.0214650630951	
28	145.79658198356628	fix_post	2		12	26.0	2.5	/experiments/Knapen_AOT/AOT_stimuli/rescaled_final/1772_rv.mp4	0.0	172.1396405696869	0.09998488426208496
29	145.89656686782837	fix_pre	0		120	27.0	2.5	/experiments/Knapen_AOT/AOT_stimuli/rescaled_final/1684_fw.mp4	0.0	172.23962545394897	1.0085010528564453
29	146.90506792068481	movie	1		282	27.0	2.5	/experiments/Knapen_AOT/AOT_stimuli/rescaled_final/1684_fw.mp4	0.0	173.24812650680542	2.4920215606689453
29	147.27895426750183	pulse	1	t		27.0	2.5	/experiments/Knapen_AOT/AOT_stimuli/rescaled_final/1684_fw.mp4	0.0	173.62201285362244	
29	148.8786370754242	pulse	1	t		27.0	2.5	/experiments/Knapen_AOT/AOT_stimuli/rescaled_final/1684_fw.mp4	0.0	175.2216956615448	
29	149.39708948135376	fix_post	2		12	27.0	2.5	/experiments/Knapen_AOT/AOT_stimuli/rescaled_final/1684_fw.mp4	0.0	175.74014806747437	0.10003399848937988
30	149.49712347984314	fix_pre	0		119	28.0	2.5	blank	1.0	175.84018206596375	0.991783618927002
30	150.48078727722168	pulse	0	t		28.0	2.5	blank	1.0	176.82384586334229	
30	150.48890709877014	movie	1		301	28.0	2.5	blank	1.0	176.83196568489075	2.508730888366699
30	152.08115339279175	pulse	1	t		28.0	2.5	blank	1.0	178.42421197891235	
30	152.99763798713684	fix_post	2		12	28.0	2.5	blank	1.0	179.34069657325745	0.09999465942382812
31	153.09763264656067	fix_pre	0		120	29.0	2.5	/experiments/Knapen_AOT/AOT_stimuli/rescaled_final/0726_fw.mp4	0.0	179.44069123268127	1.0085363388061523
31	153.6812822818756	pulse	0	t		29.0	2.5	/experiments/Knapen_AOT/AOT_stimuli/rescaled_final/0726_fw.mp4	0.0	180.02434086799622	
31	154.10616898536682	movie	1		294	29.0	2.5	/experiments/Knapen_AOT/AOT_stimuli/rescaled_final/0726_fw.mp4	0.0	180.44922757148743	2.492004632949829
31	155.27994346618652	pulse	1	t		29.0	2.5	/experiments/Knapen_AOT/AOT_stimuli/rescaled_final/0726_fw.mp4	0.0	181.62300205230713	
31	156.59817361831665	fix_post	2		12	29.0	2.5	/experiments/Knapen_AOT/AOT_stimuli/rescaled_final/0726_fw.mp4	0.0	182.94123220443726	0.10001349449157715
32	156.69818711280823	fix_pre	0		120	30.0	2.5	/experiments/Knapen_AOT/AOT_stimuli/rescaled_final/1443_fw.mp4	0.0	183.04124569892883	1.0085341930389404
32	156.8817367553711	pulse	0	t		30.0	2.5	/experiments/Knapen_AOT/AOT_stimuli/rescaled_final/1443_fw.mp4	0.0	183.2247953414917	
32	157.70672130584717	movie	1		284	30.0	2.5	/experiments/Knapen_AOT/AOT_stimuli/rescaled_final/1443_fw.mp4	0.0	184.04977989196777	2.4922215938568115
32	158.48018503189087	pulse	1	t		30.0	2.5	/experiments/Knapen_AOT/AOT_stimuli/rescaled_final/1443_fw.mp4	0.0	184.82324361801147	
32	160.08035349845886	pulse	1	t		30.0	2.5	/experiments/Knapen_AOT/AOT_stimuli/rescaled_final/1443_fw.mp4	0.0	186.42341208457947	
32	160.19894289970398	fix_post	2		12	30.0	2.5	/experiments/Knapen_AOT/AOT_stimuli/rescaled_final/1443_fw.mp4	0.0	186.54200148582458	0.09978914260864258
33	160.29873204231262	fix_pre	0		120	31.0	2.5	/experiments/Knapen_AOT/AOT_stimuli/rescaled_final/0295_rv.mp4	0.0	186.64179062843323	1.0085070133209229
33	161.30723905563354	movie	1		289	31.0	2.5	/experiments/Knapen_AOT/AOT_stimuli/rescaled_final/0295_rv.mp4	0.0	187.65029764175415	2.4920098781585693
33	161.68103909492493	pulse	1	t		31.0	2.5	/experiments/Knapen_AOT/AOT_stimuli/rescaled_final/0295_rv.mp4	0.0	188.02409768104553	
33	163.28078770637512	pulse	1	t		31.0	2.5	/experiments/Knapen_AOT/AOT_stimuli/rescaled_final/0295_rv.mp4	0.0	189.62384629249573	
33	163.79924893379211	fix_post	2		12	31.0	2.5	/experiments/Knapen_AOT/AOT_stimuli/rescaled_final/0295_rv.mp4	0.0	190.14230751991272	0.10004258155822754
34	163.89929151535034	fix_pre	0		119	32.0	2.5	/experiments/Knapen_AOT/AOT_stimuli/rescaled_final/1272_rv.mp4	0.0	190.24235010147095	1.000236988067627
34	164.8829779624939	pulse	0	t		32.0	2.5	/experiments/Knapen_AOT/AOT_stimuli/rescaled_final/1272_rv.mp4	0.0	191.2260365486145	
34	164.89952850341797	movie	1		272	32.0	2.5	/experiments/Knapen_AOT/AOT_stimuli/rescaled_final/1272_rv.mp4	0.0	191.24258708953857	2.50028395652771
34	166.4832968711853	pulse	1	t		32.0	2.5	/experiments/Knapen_AOT/AOT_stimuli/rescaled_final/1272_rv.mp4	0.0	192.8263554573059	
34	167.39981245994568	fix_post	2		12	32.0	2.5	/experiments/Knapen_AOT/AOT_stimuli/rescaled_final/1272_rv.mp4	0.0	193.74287104606628	0.10001373291015625
35	167.49982619285583	fix_pre	0		120	33.0	2.5	/experiments/Knapen_AOT/AOT_stimuli/rescaled_final/1559_fw.mp4	0.0	193.84288477897644	1.0084741115570068
35	168.08348965644836	pulse	0	t		33.0	2.5	/experiments/Knapen_AOT/AOT_stimuli/rescaled_final/1559_fw.mp4	0.0	194.42654824256897	
35	168.50830030441284	movie	1		286	33.0	2.5	/experiments/Knapen_AOT/AOT_stimuli/rescaled_final/1559_fw.mp4	0.0	194.85135889053345	2.492044448852539
35	169.68168830871582	pulse	1	t		33.0	2.5	/experiments/Knapen_AOT/AOT_stimuli/rescaled_final/1559_fw.mp4	0.0	196.02474689483643	
35	171.00034475326538	fix_post	2		12	33.0	2.5	/experiments/Knapen_AOT/AOT_stimuli/rescaled_final/1559_fw.mp4	0.0	197.343403339386	0.10000991821289062
36	171.10035467147827	fix_pre	0		120	34.0	2.5	blank	1.0	197.44341325759888	1.0001649856567383
36	171.28393006324768	pulse	0	t		34.0	2.5	blank	1.0	197.6269886493683	
36	172.100519657135	movie	1		300	34.0	2.5	blank	1.0	198.44357824325562	2.5004258155822754
36	172.88415098190308	pulse	1	t		34.0	2.5	blank	1.0	199.22720956802368	
36	174.47750520706177	pulse	1	t		34.0	2.5	blank	1.0	200.82056379318237	
36	174.60094547271729	fix_post	2		12	34.0	2.5	blank	1.0	200.9440040588379	0.09998583793640137
37	174.7009313106537	fix_pre	0		120	35.0	2.5	/experiments/Knapen_AOT/AOT_stimuli/rescaled_final/1961_fw.mp4	0.0	201.0439898967743	1.008484125137329
37	175.70941543579102	movie	1		286	35.0	2.5	/experiments/Knapen_AOT/AOT_stimuli/rescaled_final/1961_fw.mp4	0.0	202.05247402191162	2.491999864578247
37	176.0830512046814	pulse	1	t		35.0	2.5	/experiments/Knapen_AOT/AOT_stimuli/rescaled_final/1961_fw.mp4	0.0	202.426109790802	
37	177.68292880058289	pulse	1	t		35.0	2.5	/experiments/Knapen_AOT/AOT_stimuli/rescaled_final/1961_fw.mp4	0.0	204.0259873867035	
37	178.20141530036926	fix_post	2		12	35.0	2.5	/experiments/Knapen_AOT/AOT_stimuli/rescaled_final/1961_fw.mp4	0.0	204.54447388648987	0.10002493858337402
38	178.30144023895264	fix_pre	0		118	36.0	2.5	/experiments/Knapen_AOT/AOT_stimuli/rescaled_final/0363_fw.mp4	0.0	204.64449882507324	1.0002691745758057
38	179.2773518562317	pulse	0	t		36.0	2.5	/experiments/Knapen_AOT/AOT_stimuli/rescaled_final/0363_fw.mp4	0.0	205.6204104423523	
38	179.30170941352844	movie	1		284	36.0	2.5	/experiments/Knapen_AOT/AOT_stimuli/rescaled_final/0363_fw.mp4	0.0	205.64476799964905	2.4919302463531494
38	180.87705254554749	pulse	1	t		36.0	2.5	/experiments/Knapen_AOT/AOT_stimuli/rescaled_final/0363_fw.mp4	0.0	207.2201111316681	
38	181.7936396598816	fix_post	2		12	36.0	2.5	/experiments/Knapen_AOT/AOT_stimuli/rescaled_final/0363_fw.mp4	0.0	208.1366982460022	0.10006213188171387
39	181.8937017917633	fix_pre	0		120	37.0	2.5	/experiments/Knapen_AOT/AOT_stimuli/rescaled_final/1418_rv.mp4	0.0	208.2367603778839	1.0084872245788574
39	182.47725367546082	pulse	0	t		37.0	2.5	/experiments/Knapen_AOT/AOT_stimuli/rescaled_final/1418_rv.mp4	0.0	208.82031226158142	
39	182.90218901634216	movie	1		285	37.0	2.5	/experiments/Knapen_AOT/AOT_stimuli/rescaled_final/1418_rv.mp4	0.0	209.24524760246277	2.491990327835083
39	184.0774757862091	pulse	1	t		37.0	2.5	/experiments/Knapen_AOT/AOT_stimuli/rescaled_final/1418_rv.mp4	0.0	210.4205343723297	
39	185.39417934417725	fix_post	2		12	37.0	2.5	/experiments/Knapen_AOT/AOT_stimuli/rescaled_final/1418_rv.mp4	0.0	211.73723793029785	0.1000218391418457
40	185.4942011833191	fix_pre	0		120	38.0	2.5	/experiments/Knapen_AOT/AOT_stimuli/rescaled_final/1201_fw.mp4	0.0	211.8372597694397	1.008488416671753
40	185.67785573005676	pulse	0	t		38.0	2.5	/experiments/Knapen_AOT/AOT_stimuli/rescaled_final/1201_fw.mp4	0.0	212.02091431617737	
40	186.50268959999084	movie	1		282	38.0	2.5	/experiments/Knapen_AOT/AOT_stimuli/rescaled_final/1201_fw.mp4	0.0	212.84574818611145	2.49202823638916
40	187.27799034118652	pulse	1	t		38.0	2.5	/experiments/Knapen_AOT/AOT_stimuli/rescaled_final/1201_fw.mp4	0.0	213.62104892730713	
40	188.8782618045807	pulse	1	t		38.0	2.5	/experiments/Knapen_AOT/AOT_stimuli/rescaled_final/1201_fw.mp4	0.0	215.2213203907013	
40	188.99471783638	fix_post	2		12	38.0	2.5	/experiments/Knapen_AOT/AOT_stimuli/rescaled_final/1201_fw.mp4	0.0	215.3377764225006	0.10004162788391113
41	189.09475946426392	fix_pre	0		120	39.0	2.5	/experiments/Knapen_AOT/AOT_stimuli/rescaled_final/1545_fw.mp4	0.0	215.43781805038452	1.008469581604004
41	190.10322904586792	movie	1		279	39.0	2.5	/experiments/Knapen_AOT/AOT_stimuli/rescaled_final/1545_fw.mp4	0.0	216.44628763198853	2.492138385772705
41	190.4785041809082	pulse	1	t		39.0	2.5	/experiments/Knapen_AOT/AOT_stimuli/rescaled_final/1545_fw.mp4	0.0	216.8215627670288	
41	192.07769870758057	pulse	1	t		39.0	2.5	/experiments/Knapen_AOT/AOT_stimuli/rescaled_final/1545_fw.mp4	0.0	218.42075729370117	
41	192.59536743164062	fix_post	2		12	39.0	2.5	/experiments/Knapen_AOT/AOT_stimuli/rescaled_final/1545_fw.mp4	0.0	218.93842601776123	0.0999445915222168
42	192.69531202316284	fix_pre	0		119	40.0	2.5	blank	1.0	219.03837060928345	0.9917640686035156
42	193.67902731895447	pulse	0	t		40.0	2.5	blank	1.0	220.02208590507507	
42	193.68707609176636	movie	1		301	40.0	2.5	blank	1.0	220.03013467788696	2.508786916732788
42	195.279226064682	pulse	1	t		40.0	2.5	blank	1.0	221.6222846508026	
42	196.19586300849915	fix_post	2		12	40.0	2.5	blank	1.0	222.53892159461975	0.10001039505004883
43	196.2958734035492	fix_pre	0		120	41.0	2.5	/experiments/Knapen_AOT/AOT_stimuli/rescaled_final/0512_fw.mp4	0.0	222.6389319896698	1.008446216583252
43	196.8795130252838	pulse	0	t		41.0	2.5	/experiments/Knapen_AOT/AOT_stimuli/rescaled_final/0512_fw.mp4	0.0	223.22257161140442	
43	197.30431962013245	movie	1		289	41.0	2.5	/experiments/Knapen_AOT/AOT_stimuli/rescaled_final/0512_fw.mp4	0.0	223.64737820625305	2.4920272827148438
43	198.477863073349	pulse	1	t		41.0	2.5	/experiments/Knapen_AOT/AOT_stimuli/rescaled_final/0512_fw.mp4	0.0	224.8209216594696	
43	199.7963469028473	fix_post	2		12	41.0	2.5	/experiments/Knapen_AOT/AOT_stimuli/rescaled_final/0512_fw.mp4	0.0	226.1394054889679	0.10001897811889648
44	199.8963658809662	fix_pre	0		120	42.0	2.5	/experiments/Knapen_AOT/AOT_stimuli/rescaled_final/0425_rv.mp4	0.0	226.2394244670868	1.0085444450378418
44	200.07992792129517	pulse	0	t		42.0	2.5	/experiments/Knapen_AOT/AOT_stimuli/rescaled_final/0425_rv.mp4	0.0	226.42298650741577	
44	200.90491032600403	movie	1		281	42.0	2.5	/experiments/Knapen_AOT/AOT_stimuli/rescaled_final/0425_rv.mp4	0.0	227.24796891212463	2.4919931888580322
44	201.67835068702698	pulse	1	t		42.0	2.5	/experiments/Knapen_AOT/AOT_stimuli/rescaled_final/0425_rv.mp4	0.0	228.02140927314758	
44	203.27826356887817	pulse	1	t		42.0	2.5	/experiments/Knapen_AOT/AOT_stimuli/rescaled_final/0425_rv.mp4	0.0	229.62132215499878	
44	203.39690351486206	fix_post	2		12	42.0	2.5	/experiments/Knapen_AOT/AOT_stimuli/rescaled_final/0425_rv.mp4	0.0	229.73996210098267	0.10000371932983398
45	203.4969072341919	fix_pre	0		120	43.0	2.5	/experiments/Knapen_AOT/AOT_stimuli/rescaled_final/1443_rv.mp4	0.0	229.8399658203125	1.008507251739502
45	204.5054144859314	movie	1		290	43.0	2.5	/experiments/Knapen_AOT/AOT_stimuli/rescaled_final/1443_rv.mp4	0.0	230.848473072052	2.492018938064575
45	204.8793294429779	pulse	1	t		43.0	2.5	/experiments/Knapen_AOT/AOT_stimuli/rescaled_final/1443_rv.mp4	0.0	231.2223880290985	
45	206.47909832000732	pulse	1	t		43.0	2.5	/experiments/Knapen_AOT/AOT_stimuli/rescaled_final/1443_rv.mp4	0.0	232.82215690612793	
45	206.99743342399597	fix_post	2		12	43.0	2.5	/experiments/Knapen_AOT/AOT_stimuli/rescaled_final/1443_rv.mp4	0.0	233.34049201011658	0.10004210472106934
46	207.09747552871704	fix_pre	0		119	44.0	2.5	/experiments/Knapen_AOT/AOT_stimuli/rescaled_final/0403_fw.mp4	0.0	233.44053411483765	1.0001146793365479
46	208.08124423027039	pulse	0	t		44.0	2.5	/experiments/Knapen_AOT/AOT_stimuli/rescaled_final/0403_fw.mp4	0.0	234.424302816391	
46	208.0975902080536	movie	1		279	44.0	2.5	/experiments/Knapen_AOT/AOT_stimuli/rescaled_final/0403_fw.mp4	0.0	234.4406487941742	2.5003936290740967
46	209.68155479431152	pulse	1	t		44.0	2.5	/experiments/Knapen_AOT/AOT_stimuli/rescaled_final/0403_fw.mp4	0.0	236.02461338043213	
46	210.59798383712769	fix_post	2		12	44.0	2.5	/experiments/Knapen_AOT/AOT_stimuli/rescaled_final/0403_fw.mp4	0.0	236.9410424232483	0.10001206398010254
47	210.6979959011078	fix_pre	0		120	45.0	2.5	/experiments/Knapen_AOT/AOT_stimuli/rescaled_final/1808_rv.mp4	0.0	237.0410544872284	1.0084810256958008
47	211.28194427490234	pulse	0	t		45.0	2.5	/experiments/Knapen_AOT/AOT_stimuli/rescaled_final/1808_rv.mp4	0.0	237.62500286102295	
47	211.7064769268036	movie	1		282	45.0	2.5	/experiments/Knapen_AOT/AOT_stimuli/rescaled_final/1808_rv.mp4	0.0	238.0495355129242	2.4920384883880615
47	212.88031911849976	pulse	1	t		45.0	2.5	/experiments/Knapen_AOT/AOT_stimuli/rescaled_final/1808_rv.mp4	0.0	239.22337770462036	
47	214.19851541519165	fix_post	2		12	45.0	2.5	/experiments/Knapen_AOT/AOT_stimuli/rescaled_final/1808_rv.mp4	0.0	240.54157400131226	0.10001134872436523
48	214.29852676391602	fix_pre	0		120	46.0	2.5	/experiments/Knapen_AOT/AOT_stimuli/rescaled_final/1313_fw.mp4	0.0	240.64158535003662	1.0085108280181885
48	214.48215174674988	pulse	0	t		46.0	2.5	/experiments/Knapen_AOT/AOT_stimuli/rescaled_final/1313_fw.mp4	0.0	240.82521033287048	
48	215.3070375919342	movie	1		289	46.0	2.5	/experiments/Knapen_AOT/AOT_stimuli/rescaled_final/1313_fw.mp4	0.0	241.6500961780548	2.492004632949829
48	216.08047223091125	pulse	1	t		46.0	2.5	/experiments/Knapen_AOT/AOT_stimuli/rescaled_final/1313_fw.mp4	0.0	242.42353081703186	
48	217.6782386302948	pulse	1	t		46.0	2.5	/experiments/Knapen_AOT/AOT_stimuli/rescaled_final/1313_fw.mp4	0.0	244.0212972164154	
48	217.79904222488403	fix_post	2		12	46.0	2.5	/experiments/Knapen_AOT/AOT_stimuli/rescaled_final/1313_fw.mp4	0.0	244.14210081100464	0.2083909511566162
49	218.00743317604065	fix_pre	0		107	47.0	2.5	/experiments/Knapen_AOT/AOT_stimuli/rescaled_final/2023_rv.mp4	0.0	244.35049176216125	0.9001131057739258
49	218.90754628181458	movie	1		294	47.0	2.5	/experiments/Knapen_AOT/AOT_stimuli/rescaled_final/2023_rv.mp4	0.0	245.25060486793518	2.4920361042022705
49	219.2819459438324	pulse	1	t		47.0	2.5	/experiments/Knapen_AOT/AOT_stimuli/rescaled_final/2023_rv.mp4	0.0	245.625004529953	
49	220.8785412311554	pulse	1	t		47.0	2.5	/experiments/Knapen_AOT/AOT_stimuli/rescaled_final/2023_rv.mp4	0.0	247.221599817276	
49	221.39958238601685	fix_post	2		12	47.0	2.5	/experiments/Knapen_AOT/AOT_stimuli/rescaled_final/2023_rv.mp4	0.0	247.74264097213745	0.1001746654510498
50	221.4997570514679	fix_pre	0		119	48.0	2.5	/experiments/Knapen_AOT/AOT_stimuli/rescaled_final/0228_rv.mp4	0.0	247.8428156375885	0.9999942779541016
50	222.48335480690002	pulse	0	t		48.0	2.5	/experiments/Knapen_AOT/AOT_stimuli/rescaled_final/0228_rv.mp4	0.0	248.82641339302063	
50	222.499751329422	movie	1		291	48.0	2.5	/experiments/Knapen_AOT/AOT_stimuli/rescaled_final/0228_rv.mp4	0.0	248.8428099155426	2.5003621578216553
50	224.07952880859375	pulse	1	t		48.0	2.5	/experiments/Knapen_AOT/AOT_stimuli/rescaled_final/0228_rv.mp4	0.0	250.42258739471436	
50	225.00011348724365	fix_post	2		12	48.0	2.5	/experiments/Knapen_AOT/AOT_stimuli/rescaled_final/0228_rv.mp4	0.0	251.34317207336426	0.10005021095275879
51	225.1001636981964	fix_pre	0		120	49.0	2.5	blank	1.0	251.44322228431702	1.0001287460327148
51	225.68383193016052	pulse	0	t		49.0	2.5	blank	1.0	252.02689051628113	
51	226.10029244422913	movie	1		300	49.0	2.5	blank	1.0	252.44335103034973	2.5004003047943115
51	227.284081697464	pulse	1	t		49.0	2.5	blank	1.0	253.6271402835846	
51	228.60069274902344	fix_post	2		12	49.0	2.5	blank	1.0	254.94375133514404	0.10002779960632324
52	228.70072054862976	fix_pre	0		120	50.0	2.5	/experiments/Knapen_AOT/AOT_stimuli/rescaled_final/0512_rv.mp4	0.0	255.04377913475037	1.0085060596466064
52	228.88428783416748	pulse	0	t		50.0	2.5	/experiments/Knapen_AOT/AOT_stimuli/rescaled_final/0512_rv.mp4	0.0	255.2273464202881	
52	229.70922660827637	movie	1		279	50.0	2.5	/experiments/Knapen_AOT/AOT_stimuli/rescaled_final/0512_rv.mp4	0.0	256.052285194397	2.4920084476470947
52	230.4823362827301	pulse	1	t		50.0	2.5	/experiments/Knapen_AOT/AOT_stimuli/rescaled_final/0512_rv.mp4	0.0	256.8253948688507	
52	232.08280324935913	pulse	1	t		50.0	2.5	/experiments/Knapen_AOT/AOT_stimuli/rescaled_final/0512_rv.mp4	0.0	258.42586183547974	
52	232.20123505592346	fix_post	2		12	50.0	2.5	/experiments/Knapen_AOT/AOT_stimuli/rescaled_final/0512_rv.mp4	0.0	258.54429364204407	0.10000038146972656
53	232.3012354373932	fix_pre	0		120	51.0	2.5	/experiments/Knapen_AOT/AOT_stimuli/rescaled_final/1418_rv.mp4	0.0	258.6442940235138	1.008540153503418
53	233.3097755908966	movie	1		276	51.0	2.5	/experiments/Knapen_AOT/AOT_stimuli/rescaled_final/1418_rv.mp4	0.0	259.6528341770172	2.491990089416504
53	233.68524312973022	pulse	1	t		51.0	2.5	/experiments/Knapen_AOT/AOT_stimuli/rescaled_final/1418_rv.mp4	0.0	260.02830171585083	
53	235.28361892700195	pulse	1	t		51.0	2.5	/experiments/Knapen_AOT/AOT_stimuli/rescaled_final/1418_rv.mp4	0.0	261.62667751312256	
53	235.8017656803131	fix_post	2		12	51.0	2.5	/experiments/Knapen_AOT/AOT_stimuli/rescaled_final/1418_rv.mp4	0.0	262.1448242664337	0.10003042221069336
54	235.9017961025238	fix_pre	0		118	52.0	2.5	/experiments/Knapen_AOT/AOT_stimuli/rescaled_final/1909_fw.mp4	0.0	262.2448546886444	1.000258445739746
54	236.87769412994385	pulse	0	t		52.0	2.5	/experiments/Knapen_AOT/AOT_stimuli/rescaled_final/1909_fw.mp4	0.0	263.22075271606445	
54	236.90205454826355	movie	1		284	52.0	2.5	/experiments/Knapen_AOT/AOT_stimuli/rescaled_final/1909_fw.mp4	0.0	263.24511313438416	2.4919509887695312
54	238.47768235206604	pulse	1	t		52.0	2.5	/experiments/Knapen_AOT/AOT_stimuli/rescaled_final/1909_fw.mp4	0.0	264.82074093818665	
54	239.39400553703308	fix_post	2		12	52.0	2.5	/experiments/Knapen_AOT/AOT_stimuli/rescaled_final/1909_fw.mp4	0.0	265.7370641231537	0.10002636909484863
55	239.49403190612793	fix_pre	0		120	53.0	2.5	/experiments/Knapen_AOT/AOT_stimuli/rescaled_final/1079_rv.mp4	0.0	265.83709049224854	1.0084857940673828
55	240.077951669693	pulse	0	t		53.0	2.5	/experiments/Knapen_AOT/AOT_stimuli/rescaled_final/1079_rv.mp4	0.0	266.4210102558136	
55	240.5025177001953	movie	1		280	53.0	2.5	/experiments/Knapen_AOT/AOT_stimuli/rescaled_final/1079_rv.mp4	0.0	266.8455762863159	2.4920060634613037
55	241.67751908302307	pulse	1	t		53.0	2.5	/experiments/Knapen_AOT/AOT_stimuli/rescaled_final/1079_rv.mp4	0.0	268.0205776691437	
55	242.99452376365662	fix_post	2		12	53.0	2.5	/experiments/Knapen_AOT/AOT_stimuli/rescaled_final/1079_rv.mp4	0.0	269.3375823497772	0.10009527206420898
56	243.09461903572083	fix_pre	0		120	54.0	2.5	/experiments/Knapen_AOT/AOT_stimuli/rescaled_final/0054_rv.mp4	0.0	269.43767762184143	1.0084128379821777
56	243.27820014953613	pulse	0	t		54.0	2.5	/experiments/Knapen_AOT/AOT_stimuli/rescaled_final/0054_rv.mp4	0.0	269.62125873565674	
56	244.103031873703	movie	1		291	54.0	2.5	/experiments/Knapen_AOT/AOT_stimuli/rescaled_final/0054_rv.mp4	0.0	270.4460904598236	2.492037534713745
56	244.87839341163635	pulse	1	t		54.0	2.5	/experiments/Knapen_AOT/AOT_stimuli/rescaled_final/0054_rv.mp4	0.0	271.22145199775696	
56	246.47865414619446	pulse	1	t		54.0	2.5	/experiments/Knapen_AOT/AOT_stimuli/rescaled_final/0054_rv.mp4	0.0	272.82171273231506	
56	246.59506940841675	fix_post	2		12	54.0	2.5	/experiments/Knapen_AOT/AOT_stimuli/rescaled_final/0054_rv.mp4	0.0	272.93812799453735	0.10027027130126953
57	246.69533967971802	fix_pre	0		120	55.0	2.5	blank	1.0	273.0383982658386	0.99989914894104
57	247.69523882865906	movie	1		300	55.0	2.5	blank	1.0	274.03829741477966	2.50036358833313
57	248.0788390636444	pulse	1	t		55.0	2.5	blank	1.0	274.421897649765	
57	249.67907905578613	pulse	1	t		55.0	2.5	blank	1.0	276.02213764190674	
57	250.1956024169922	fix_post	2		12	55.0	2.5	blank	1.0	276.5386610031128	0.1000368595123291
58	250.29563927650452	fix_pre	0		119	56.0	2.5	/experiments/Knapen_AOT/AOT_stimuli/rescaled_final/0716_fw.mp4	0.0	276.6386978626251	1.0001564025878906
58	251.2794132232666	pulse	0	t		56.0	2.5	/experiments/Knapen_AOT/AOT_stimuli/rescaled_final/0716_fw.mp4	0.0	277.6224718093872	
58	251.2957956790924	movie	1		269	56.0	2.5	/experiments/Knapen_AOT/AOT_stimuli/rescaled_final/0716_fw.mp4	0.0	277.638854265213	2.5003585815429688
58	252.87857127189636	pulse	1	t		56.0	2.5	/experiments/Knapen_AOT/AOT_stimuli/rescaled_final/0716_fw.mp4	0.0	279.22162985801697	
58	253.79615426063538	fix_post	2		12	56.0	2.5	/experiments/Knapen_AOT/AOT_stimuli/rescaled_final/0716_fw.mp4	0.0	280.139212846756	0.10002017021179199
59	253.89617443084717	fix_pre	0		120	57.0	2.5	/experiments/Knapen_AOT/AOT_stimuli/rescaled_final/0716_rv.mp4	0.0	280.2392330169678	1.0085110664367676
59	254.47990655899048	pulse	0	t		57.0	2.5	/experiments/Knapen_AOT/AOT_stimuli/rescaled_final/0716_rv.mp4	0.0	280.8229651451111	
59	254.90468549728394	movie	1		287	57.0	2.5	/experiments/Knapen_AOT/AOT_stimuli/rescaled_final/0716_rv.mp4	0.0	281.24774408340454	2.4920051097869873
59	256.0782175064087	pulse	1	t		57.0	2.5	/experiments/Knapen_AOT/AOT_stimuli/rescaled_final/0716_rv.mp4	0.0	282.4212760925293	
59	257.3966906070709	fix_post	2		12	57.0	2.5	/experiments/Knapen_AOT/AOT_stimuli/rescaled_final/0716_rv.mp4	0.0	283.7397491931915	0.10002684593200684
60	257.49671745300293	fix_pre	0		120	58.0	2.5	/experiments/Knapen_AOT/AOT_stimuli/rescaled_final/1882_fw.mp4	0.0	283.83977603912354	1.0085153579711914
60	257.6803169250488	pulse	0	t		58.0	2.5	/experiments/Knapen_AOT/AOT_stimuli/rescaled_final/1882_fw.mp4	0.0	284.02337551116943	
60	258.5052328109741	movie	1		281	58.0	2.5	/experiments/Knapen_AOT/AOT_stimuli/rescaled_final/1882_fw.mp4	0.0	284.8482913970947	2.4920077323913574
60	259.27916741371155	pulse	1	t		58.0	2.5	/experiments/Knapen_AOT/AOT_stimuli/rescaled_final/1882_fw.mp4	0.0	285.62222599983215	
60	260.87901997566223	pulse	1	t		58.0	2.5	/experiments/Knapen_AOT/AOT_stimuli/rescaled_final/1882_fw.mp4	0.0	287.22207856178284	
60	260.9972405433655	fix_post	2		12	58.0	2.5	/experiments/Knapen_AOT/AOT_stimuli/rescaled_final/1882_fw.mp4	0.0	287.3402991294861	0.10001778602600098
61	261.0972583293915	fix_pre	0		120	59.0	2.5	/experiments/Knapen_AOT/AOT_stimuli/rescaled_final/1936_fw.mp4	0.0	287.4403169155121	1.0085673332214355
61	262.1058256626129	movie	1		277	59.0	2.5	/experiments/Knapen_AOT/AOT_stimuli/rescaled_final/1936_fw.mp4	0.0	288.4488842487335	2.4919891357421875
61	262.481782913208	pulse	1	t		59.0	2.5	/experiments/Knapen_AOT/AOT_stimuli/rescaled_final/1936_fw.mp4	0.0	288.8248414993286	
61	264.07917284965515	pulse	1	t		59.0	2.5	/experiments/Knapen_AOT/AOT_stimuli/rescaled_final/1936_fw.mp4	0.0	290.42223143577576	
61	264.5978147983551	fix_post	2		12	59.0	2.5	/experiments/Knapen_AOT/AOT_stimuli/rescaled_final/1936_fw.mp4	0.0	290.9408733844757	0.10000419616699219
62	264.6978189945221	fix_pre	0		119	60.0	2.5	/experiments/Knapen_AOT/AOT_stimuli/rescaled_final/1271_fw.mp4	0.0	291.0408775806427	1.0003912448883057
62	265.68150758743286	pulse	0	t		60.0	2.5	/experiments/Knapen_AOT/AOT_stimuli/rescaled_final/1271_fw.mp4	0.0	292.02456617355347	
62	265.6982102394104	movie	1		295	60.0	2.5	/experiments/Knapen_AOT/AOT_stimuli/rescaled_final/1271_fw.mp4	0.0	292.041268825531	2.500157117843628
62	267.2803933620453	pulse	1	t		60.0	2.5	/experiments/Knapen_AOT/AOT_stimuli/rescaled_final/1271_fw.mp4	0.0	293.6234519481659	
62	268.198367357254	fix_post	2		12	60.0	2.5	/experiments/Knapen_AOT/AOT_stimuli/rescaled_final/1271_fw.mp4	0.0	294.54142594337463	0.09999585151672363
63	268.29836320877075	fix_pre	0		120	61.0	2.5	/experiments/Knapen_AOT/AOT_stimuli/rescaled_final/1014_fw.mp4	0.0	294.64142179489136	1.0084972381591797
63	268.8820102214813	pulse	0	t		61.0	2.5	/experiments/Knapen_AOT/AOT_stimuli/rescaled_final/1014_fw.mp4	0.0	295.22506880760193	
63	269.30686044692993	movie	1		270	61.0	2.5	/experiments/Knapen_AOT/AOT_stimuli/rescaled_final/1014_fw.mp4	0.0	295.64991903305054	2.4920411109924316
63	270.48017740249634	pulse	1	t		61.0	2.5	/experiments/Knapen_AOT/AOT_stimuli/rescaled_final/1014_fw.mp4	0.0	296.82323598861694	
63	271.79890155792236	fix_post	2		12	61.0	2.5	/experiments/Knapen_AOT/AOT_stimuli/rescaled_final/1014_fw.mp4	0.0	298.14196014404297	0.09999728202819824
64	271.89889883995056	fix_pre	0		120	62.0	2.5	/experiments/Knapen_AOT/AOT_stimuli/rescaled_final/2113_rv.mp4	0.0	298.24195742607117	1.0084388256072998
64	272.0825147628784	pulse	0	t		62.0	2.5	/experiments/Knapen_AOT/AOT_stimuli/rescaled_final/2113_rv.mp4	0.0	298.425573348999	
64	272.90733766555786	movie	1		277	62.0	2.5	/experiments/Knapen_AOT/AOT_stimuli/rescaled_final/2113_rv.mp4	0.0	299.25039625167847	2.492075204849243
64	273.68226957321167	pulse	1	t		62.0	2.5	/experiments/Knapen_AOT/AOT_stimuli/rescaled_final/2113_rv.mp4	0.0	300.0253281593323	
64	275.2809405326843	pulse	1	t		62.0	2.5	/experiments/Knapen_AOT/AOT_stimuli/rescaled_final/2113_rv.mp4	0.0	301.62399911880493	
64	275.3994128704071	fix_post	2		12	62.0	2.5	/experiments/Knapen_AOT/AOT_stimuli/rescaled_final/2113_rv.mp4	0.0	301.7424714565277	0.1000363826751709
65	275.4994492530823	fix_pre	0		120	63.0	2.5	blank	1.0	301.8425078392029	1.000117540359497
65	276.4995667934418	movie	1		300	63.0	2.5	blank	1.0	302.8426253795624	2.5003716945648193
65	276.8831396102905	pulse	1	t		63.0	2.5	blank	1.0	303.22619819641113	
65	278.48337745666504	pulse	1	t		63.0	2.5	blank	1.0	304.82643604278564	
65	278.9999384880066	fix_post	2		12	63.0	2.5	blank	1.0	305.3429970741272	0.10002303123474121
66	279.09996151924133	fix_pre	0		119	64.0	2.5	/experiments/Knapen_AOT/AOT_stimuli/rescaled_final/0671_fw.mp4	0.0	305.44302010536194	1.0001609325408936
66	280.0836672782898	pulse	0	t		64.0	2.5	/experiments/Knapen_AOT/AOT_stimuli/rescaled_final/0671_fw.mp4	0.0	306.4267258644104	
66	280.1001224517822	movie	1		284	64.0	2.5	/experiments/Knapen_AOT/AOT_stimuli/rescaled_final/0671_fw.mp4	0.0	306.44318103790283	2.5004239082336426
66	281.68234610557556	pulse	1	t		64.0	2.5	/experiments/Knapen_AOT/AOT_stimuli/rescaled_final/0671_fw.mp4	0.0	308.02540469169617	
66	282.60054636001587	fix_post	2		12	64.0	2.5	/experiments/Knapen_AOT/AOT_stimuli/rescaled_final/0671_fw.mp4	0.0	308.9436049461365	0.09995532035827637
67	282.70050168037415	fix_pre	0		120	65.0	2.5	/experiments/Knapen_AOT/AOT_stimuli/rescaled_final/1914_fw.mp4	0.0	309.04356026649475	1.0085346698760986
67	283.28428506851196	pulse	0	t		65.0	2.5	/experiments/Knapen_AOT/AOT_stimuli/rescaled_final/1914_fw.mp4	0.0	309.62734365463257	
67	283.70903635025024	movie	1		274	65.0	2.5	/experiments/Knapen_AOT/AOT_stimuli/rescaled_final/1914_fw.mp4	0.0	310.05209493637085	2.491985321044922
67	284.88359022140503	pulse	1	t		65.0	2.5	/experiments/Knapen_AOT/AOT_stimuli/rescaled_final/1914_fw.mp4	0.0	311.22664880752563	
67	286.20102167129517	fix_post	2		12	65.0	2.5	/experiments/Knapen_AOT/AOT_stimuli/rescaled_final/1914_fw.mp4	0.0	312.54408025741577	0.10008072853088379
68	286.30110239982605	fix_pre	0		120	66.0	2.5	/experiments/Knapen_AOT/AOT_stimuli/rescaled_final/1552_rv.mp4	0.0	312.64416098594666	1.0084233283996582
68	286.4847331047058	pulse	0	t		66.0	2.5	/experiments/Knapen_AOT/AOT_stimuli/rescaled_final/1552_rv.mp4	0.0	312.8277916908264	
68	287.3095257282257	movie	1		290	66.0	2.5	/experiments/Knapen_AOT/AOT_stimuli/rescaled_final/1552_rv.mp4	0.0	313.6525843143463	2.492046356201172
68	288.0828330516815	pulse	1	t		66.0	2.5	/experiments/Knapen_AOT/AOT_stimuli/rescaled_final/1552_rv.mp4	0.0	314.4258916378021	
68	289.683132648468	pulse	1	t		66.0	2.5	/experiments/Knapen_AOT/AOT_stimuli/rescaled_final/1552_rv.mp4	0.0	316.0261912345886	
68	289.8015720844269	fix_post	2		12	66.0	2.5	/experiments/Knapen_AOT/AOT_stimuli/rescaled_final/1552_rv.mp4	0.0	316.1446306705475	0.10001492500305176
69	289.90158700942993	fix_pre	0		120	67.0	2.5	/experiments/Knapen_AOT/AOT_stimuli/rescaled_final/1664_fw.mp4	0.0	316.24464559555054	1.0085222721099854
69	290.9101092815399	movie	1		274	67.0	2.5	/experiments/Knapen_AOT/AOT_stimuli/rescaled_final/1664_fw.mp4	0.0	317.2531678676605	2.492002487182617
69	291.28380513191223	pulse	1	t		67.0	2.5	/experiments/Knapen_AOT/AOT_stimuli/rescaled_final/1664_fw.mp4	0.0	317.62686371803284	
69	292.8836214542389	pulse	1	t		67.0	2.5	/experiments/Knapen_AOT/AOT_stimuli/rescaled_final/1664_fw.mp4	0.0	319.2266800403595	
69	293.40211176872253	fix_post	2		12	67.0	2.5	/experiments/Knapen_AOT/AOT_stimuli/rescaled_final/1664_fw.mp4	0.0	319.74517035484314	0.10000991821289062
70	293.5021216869354	fix_pre	0		119	68.0	2.5	blank	1.0	319.84518027305603	0.991887092590332
70	294.4781005382538	pulse	0	t		68.0	2.5	blank	1.0	320.8211591243744	
70	294.49400877952576	movie	1		301	68.0	2.5	blank	1.0	320.83706736564636	2.508681297302246
70	296.07789874076843	pulse	1	t		68.0	2.5	blank	1.0	322.42095732688904	
70	297.002690076828	fix_post	2		12	68.0	2.5	blank	1.0	323.3457486629486	0.09998703002929688
71	297.1026771068573	fix_pre	0		120	69.0	2.5	/experiments/Knapen_AOT/AOT_stimuli/rescaled_final/0955_rv.mp4	0.0	323.4457356929779	1.008498191833496
71	297.67804050445557	pulse	0	t		69.0	2.5	/experiments/Knapen_AOT/AOT_stimuli/rescaled_final/0955_rv.mp4	0.0	324.0210990905762	
71	298.1111752986908	movie	1		279	69.0	2.5	/experiments/Knapen_AOT/AOT_stimuli/rescaled_final/0955_rv.mp4	0.0	324.4542338848114	2.4920523166656494
71	299.27837085723877	pulse	1	t		69.0	2.5	/experiments/Knapen_AOT/AOT_stimuli/rescaled_final/0955_rv.mp4	0.0	325.6214294433594	
71	300.60322761535645	fix_post	2		12	69.0	2.5	/experiments/Knapen_AOT/AOT_stimuli/rescaled_final/0955_rv.mp4	0.0	326.94628620147705	0.09999203681945801
72	300.7032196521759	fix_pre	0		120	70.0	2.5	/experiments/Knapen_AOT/AOT_stimuli/rescaled_final/2139_fw.mp4	0.0	327.0462782382965	1.0085103511810303
72	300.8786299228668	pulse	0	t		70.0	2.5	/experiments/Knapen_AOT/AOT_stimuli/rescaled_final/2139_fw.mp4	0.0	327.2216885089874	
72	301.71173000335693	movie	1		280	70.0	2.5	/experiments/Knapen_AOT/AOT_stimuli/rescaled_final/2139_fw.mp4	0.0	328.05478858947754	2.4920341968536377
72	302.4787061214447	pulse	1	t		70.0	2.5	/experiments/Knapen_AOT/AOT_stimuli/rescaled_final/2139_fw.mp4	0.0	328.8217647075653	
72	304.0789124965668	pulse	1	t		70.0	2.5	/experiments/Knapen_AOT/AOT_stimuli/rescaled_final/2139_fw.mp4	0.0	330.4219710826874	
72	304.20376420021057	fix_post	2		11	70.0	2.5	/experiments/Knapen_AOT/AOT_stimuli/rescaled_final/2139_fw.mp4	0.0	330.5468227863312	0.10004377365112305
73	304.3038079738617	fix_pre	0		120	71.0	2.5	/experiments/Knapen_AOT/AOT_stimuli/rescaled_final/1888_fw.mp4	0.0	330.6468665599823	1.0084822177886963
73	305.3122901916504	movie	1		284	71.0	2.5	/experiments/Knapen_AOT/AOT_stimuli/rescaled_final/1888_fw.mp4	0.0	331.655348777771	2.492051839828491
73	305.67929768562317	pulse	1	t		71.0	2.5	/experiments/Knapen_AOT/AOT_stimuli/rescaled_final/1888_fw.mp4	0.0	332.0223562717438	
73	307.2779302597046	pulse	1	t		71.0	2.5	/experiments/Knapen_AOT/AOT_stimuli/rescaled_final/1888_fw.mp4	0.0	333.6209888458252	
73	307.8043420314789	fix_post	2		12	71.0	2.5	/experiments/Knapen_AOT/AOT_stimuli/rescaled_final/1888_fw.mp4	0.0	334.1474006175995	0.09997367858886719
74	307.90431571006775	fix_pre	0		118	72.0	2.5	/experiments/Knapen_AOT/AOT_stimuli/rescaled_final/0659_fw.mp4	0.0	334.24737429618835	1.0001766681671143
74	308.8796753883362	pulse	0	t		72.0	2.5	/experiments/Knapen_AOT/AOT_stimuli/rescaled_final/0659_fw.mp4	0.0	335.2227339744568	
74	308.90449237823486	movie	1		258	72.0	2.5	/experiments/Knapen_AOT/AOT_stimuli/rescaled_final/0659_fw.mp4	0.0	335.24755096435547	2.49200439453125
74	310.4783253669739	pulse	1	t		72.0	2.5	/experiments/Knapen_AOT/AOT_stimuli/rescaled_final/0659_fw.mp4	0.0	336.8213839530945	
74	311.3964967727661	fix_post	2		12	72.0	2.5	/experiments/Knapen_AOT/AOT_stimuli/rescaled_final/0659_fw.mp4	0.0	337.7395553588867	0.10004210472106934
75	311.4965388774872	fix_pre	0		120	73.0	2.5	/experiments/Knapen_AOT/AOT_stimuli/rescaled_final/0147_rv.mp4	0.0	337.8395974636078	1.0085513591766357
75	312.0802490711212	pulse	0	t		73.0	2.5	/experiments/Knapen_AOT/AOT_stimuli/rescaled_final/0147_rv.mp4	0.0	338.4233076572418	
75	312.5050902366638	movie	1		263	73.0	2.5	/experiments/Knapen_AOT/AOT_stimuli/rescaled_final/0147_rv.mp4	0.0	338.8481488227844	2.4919629096984863
75	313.6806073188782	pulse	1	t		73.0	2.5	/experiments/Knapen_AOT/AOT_stimuli/rescaled_final/0147_rv.mp4	0.0	340.0236659049988	
75	314.9970531463623	fix_post	2		12	73.0	2.5	/experiments/Knapen_AOT/AOT_stimuli/rescaled_final/0147_rv.mp4	0.0	341.3401117324829	0.10003137588500977
76	315.0970845222473	fix_pre	0		120	74.0	2.5	/experiments/Knapen_AOT/AOT_stimuli/rescaled_final/1543_rv.mp4	0.0	341.4401431083679	1.0085961818695068
76	315.280620098114	pulse	0	t		74.0	2.5	/experiments/Knapen_AOT/AOT_stimuli/rescaled_final/1543_rv.mp4	0.0	341.6236786842346	
76	316.1056807041168	movie	1		266	74.0	2.5	/experiments/Knapen_AOT/AOT_stimuli/rescaled_final/1543_rv.mp4	0.0	342.4487392902374	2.491903781890869
76	316.8790717124939	pulse	1	t		74.0	2.5	/experiments/Knapen_AOT/AOT_stimuli/rescaled_final/1543_rv.mp4	0.0	343.2221302986145	
76	318.4793391227722	pulse	1	t		74.0	2.5	/experiments/Knapen_AOT/AOT_stimuli/rescaled_final/1543_rv.mp4	0.0	344.8223977088928	
76	318.5975844860077	fix_post	2		12	74.0	2.5	/experiments/Knapen_AOT/AOT_stimuli/rescaled_final/1543_rv.mp4	0.0	344.9406430721283	0.10001802444458008
77	318.69760251045227	fix_pre	0		120	75.0	2.5	/experiments/Knapen_AOT/AOT_stimuli/rescaled_final/1760_fw.mp4	0.0	345.0406610965729	1.0084896087646484
77	319.7060921192169	movie	1		283	75.0	2.5	/experiments/Knapen_AOT/AOT_stimuli/rescaled_final/1760_fw.mp4	0.0	346.0491507053375	2.4921810626983643
77	320.08064913749695	pulse	1	t		75.0	2.5	/experiments/Knapen_AOT/AOT_stimuli/rescaled_final/1760_fw.mp4	0.0	346.42370772361755	
77	321.6803150177002	pulse	1	t		75.0	2.5	/experiments/Knapen_AOT/AOT_stimuli/rescaled_final/1760_fw.mp4	0.0	348.0233736038208	
77	322.1982731819153	fix_post	2		12	75.0	2.5	/experiments/Knapen_AOT/AOT_stimuli/rescaled_final/1760_fw.mp4	0.0	348.5413317680359	0.09997439384460449
78	322.2982475757599	fix_pre	0		119	76.0	2.5	/experiments/Knapen_AOT/AOT_stimuli/rescaled_final/1794_fw.mp4	0.0	348.6413061618805	1.0084197521209717
78	323.28185081481934	pulse	0	t		76.0	2.5	/experiments/Knapen_AOT/AOT_stimuli/rescaled_final/1794_fw.mp4	0.0	349.62490940093994	
78	323.30666732788086	movie	1		261	76.0	2.5	/experiments/Knapen_AOT/AOT_stimuli/rescaled_final/1794_fw.mp4	0.0	349.64972591400146	2.4919981956481934
78	324.8821096420288	pulse	1	t		76.0	2.5	/experiments/Knapen_AOT/AOT_stimuli/rescaled_final/1794_fw.mp4	0.0	351.2251682281494	
78	325.79866552352905	fix_post	2		12	76.0	2.5	/experiments/Knapen_AOT/AOT_stimuli/rescaled_final/1794_fw.mp4	0.0	352.14172410964966	0.10002708435058594
79	325.89869260787964	fix_pre	0		120	77.0	2.5	blank	1.0	352.24175119400024	1.0001394748687744
79	326.4829590320587	pulse	0	t		77.0	2.5	blank	1.0	352.8260176181793	
79	326.8988320827484	movie	1		300	77.0	2.5	blank	1.0	353.241890668869	2.500379800796509
79	328.0827531814575	pulse	1	t		77.0	2.5	blank	1.0	354.4258117675781	
79	329.3992118835449	fix_post	2		12	77.0	2.5	blank	1.0	355.7422704696655	0.10002374649047852
80	329.4992356300354	fix_pre	0		120	78.0	2.5	/experiments/Knapen_AOT/AOT_stimuli/rescaled_final/0257_fw.mp4	0.0	355.842294216156	1.0084593296051025
80	329.68276476860046	pulse	0	t		78.0	2.5	/experiments/Knapen_AOT/AOT_stimuli/rescaled_final/0257_fw.mp4	0.0	356.02582335472107	
80	330.5076949596405	movie	1		266	78.0	2.5	/experiments/Knapen_AOT/AOT_stimuli/rescaled_final/0257_fw.mp4	0.0	356.8507535457611	2.4922337532043457
80	331.28133249282837	pulse	1	t		78.0	2.5	/experiments/Knapen_AOT/AOT_stimuli/rescaled_final/0257_fw.mp4	0.0	357.624391078949	
80	332.8825144767761	pulse	1	t		78.0	2.5	/experiments/Knapen_AOT/AOT_stimuli/rescaled_final/0257_fw.mp4	0.0	359.22557306289673	
80	332.99992871284485	fix_post	2		11	78.0	2.5	/experiments/Knapen_AOT/AOT_stimuli/rescaled_final/0257_fw.mp4	0.0	359.34298729896545	0.09986400604248047
81	333.09979271888733	fix_pre	0		120	79.0	2.5	/experiments/Knapen_AOT/AOT_stimuli/rescaled_final/0744_fw.mp4	0.0	359.44285130500793	1.00846266746521
81	334.10825538635254	movie	1		276	79.0	2.5	/experiments/Knapen_AOT/AOT_stimuli/rescaled_final/0744_fw.mp4	0.0	360.45131397247314	2.492041826248169
81	334.48180961608887	pulse	1	t		79.0	2.5	/experiments/Knapen_AOT/AOT_stimuli/rescaled_final/0744_fw.mp4	0.0	360.8248682022095	
81	336.0818316936493	pulse	1	t		79.0	2.5	/experiments/Knapen_AOT/AOT_stimuli/rescaled_final/0744_fw.mp4	0.0	362.4248902797699	
81	336.6002972126007	fix_post	2		12	79.0	2.5	/experiments/Knapen_AOT/AOT_stimuli/rescaled_final/0744_fw.mp4	0.0	362.9433557987213	0.1000208854675293
82	336.70031809806824	fix_pre	0		119	80.0	2.5	/experiments/Knapen_AOT/AOT_stimuli/rescaled_final/1018_fw.mp4	0.0	363.04337668418884	1.0001177787780762
82	337.67781710624695	pulse	0	t		80.0	2.5	/experiments/Knapen_AOT/AOT_stimuli/rescaled_final/1018_fw.mp4	0.0	364.02087569236755	
82	337.7004358768463	movie	1		277	80.0	2.5	/experiments/Knapen_AOT/AOT_stimuli/rescaled_final/1018_fw.mp4	0.0	364.0434944629669	2.500401735305786
82	339.28288292884827	pulse	1	t		80.0	2.5	/experiments/Knapen_AOT/AOT_stimuli/rescaled_final/1018_fw.mp4	0.0	365.6259415149689	
82	340.2008376121521	fix_post	2		12	80.0	2.5	/experiments/Knapen_AOT/AOT_stimuli/rescaled_final/1018_fw.mp4	0.0	366.5438961982727	0.10002493858337402
83	340.3008625507355	fix_pre	0		120	81.0	2.5	/experiments/Knapen_AOT/AOT_stimuli/rescaled_final/2113_fw.mp4	0.0	366.6439211368561	1.0084774494171143
83	340.8847146034241	pulse	0	t		81.0	2.5	/experiments/Knapen_AOT/AOT_stimuli/rescaled_final/2113_fw.mp4	0.0	367.2277731895447	
83	341.3093400001526	movie	1		283	81.0	2.5	/experiments/Knapen_AOT/AOT_stimuli/rescaled_final/2113_fw.mp4	0.0	367.6523985862732	2.492021322250366
83	342.48268961906433	pulse	1	t		81.0	2.5	/experiments/Knapen_AOT/AOT_stimuli/rescaled_final/2113_fw.mp4	0.0	368.82574820518494	
83	343.80136132240295	fix_post	2		12	81.0	2.5	/experiments/Knapen_AOT/AOT_stimuli/rescaled_final/2113_fw.mp4	0.0	370.14441990852356	0.1000223159790039
84	343.90138363838196	fix_pre	0		120	82.0	2.5	blank	1.0	370.24444222450256	1.000154972076416
84	344.0775179862976	pulse	0	t		82.0	2.5	blank	1.0	370.4205765724182	
84	344.9015386104584	movie	1		300	82.0	2.5	blank	1.0	371.244597196579	2.5003490447998047
84	345.6773018836975	pulse	1	t		82.0	2.5	blank	1.0	372.0203604698181	
84	347.2772660255432	pulse	1	t		82.0	2.5	blank	1.0	373.6203246116638	
84	347.4018876552582	fix_post	2		12	82.0	2.5	blank	1.0	373.7449462413788	0.10007309913635254
85	347.50196075439453	fix_pre	0		120	83.0	2.5	/experiments/Knapen_AOT/AOT_stimuli/rescaled_final/1848_fw.mp4	0.0	373.84501934051514	1.008483648300171
85	348.5104444026947	movie	1		277	83.0	2.5	/experiments/Knapen_AOT/AOT_stimuli/rescaled_final/1848_fw.mp4	0.0	374.8535029888153	2.492011308670044
85	348.8774085044861	pulse	1	t		83.0	2.5	/experiments/Knapen_AOT/AOT_stimuli/rescaled_final/1848_fw.mp4	0.0	375.2204670906067	
85	350.47759771347046	pulse	1	t		83.0	2.5	/experiments/Knapen_AOT/AOT_stimuli/rescaled_final/1848_fw.mp4	0.0	376.82065629959106	
85	351.00245571136475	fix_post	2		12	83.0	2.5	/experiments/Knapen_AOT/AOT_stimuli/rescaled_final/1848_fw.mp4	0.0	377.34551429748535	0.10002875328063965
87	351.1024844646454	stim	0		1715					377.445543050766	14.29386305809021
87	352.07793378829956	pulse	0	t						378.42099237442017	
87	353.6784076690674	pulse	0	t						380.021466255188	
87	355.2783043384552	pulse	0	t						381.6213629245758	
87	356.87858510017395	pulse	0	t						383.22164368629456	
87	358.4789488315582	pulse	0	t						384.82200741767883	
87	360.0790011882782	pulse	0	t						386.4220597743988	
87	361.6793324947357	pulse	0	t						388.0223910808563	
87	363.27953481674194	pulse	0	t						389.62259340286255	
87	364.879830121994	pulse	0	t						391.2228887081146	
