trial_nr	onset	event_type	phase	response	nr_frames	movie_index	movie_duration	movie_file	blank	onset_abs	duration
0	0.17480778694152832	stim	0		54					24.557416439056396	0.4499514102935791
0	0.6170594692230225	response	0	space						24.99966812133789	
1	0.6247591972351074	stim	0		4928					25.007367849349976	41.08419132232666
1	41.69410276412964	pulse	0	t						66.0767114162445	
1	41.70895051956177	stim	1		1715					66.09155917167664	14.299127340316772
1	43.28972935676575	pulse	1	t						67.67233800888062	
1	44.89005255699158	pulse	1	t						69.27266120910645	
1	46.49036645889282	pulse	1	t						70.87297511100769	
1	48.090391635894775	pulse	1	t						72.47300028800964	
1	49.69069290161133	pulse	1	t						74.0733015537262	
1	51.282981634140015	pulse	1	t						75.66559028625488	
1	52.88342881202698	pulse	1	t						77.26603746414185	
1	54.483487129211426	pulse	1	t						78.8660957813263	
2	56.00807785987854	fix_pre	0		10	0.0	2.5	/experiments/Knapen_AOT/AOT_stimuli/rescaled_final/0575_fw.mp4	0.0	80.39068651199341	0.1000070571899414
2	56.083410024642944	pulse	0	t		0.0	2.5	/experiments/Knapen_AOT/AOT_stimuli/rescaled_final/0575_fw.mp4	0.0	80.46601867675781	
2	56.10808491706848	movie	1		286	0.0	2.5	/experiments/Knapen_AOT/AOT_stimuli/rescaled_final/0575_fw.mp4	0.0	80.49069356918335	2.4920310974121094
2	57.68356919288635	pulse	1	t		0.0	2.5	/experiments/Knapen_AOT/AOT_stimuli/rescaled_final/0575_fw.mp4	0.0	82.06617784500122	
2	58.60011601448059	fix_post	2		12	0.0	2.5	/experiments/Knapen_AOT/AOT_stimuli/rescaled_final/0575_fw.mp4	0.0	82.98272466659546	0.10004329681396484
3	58.700159311294556	fix_pre	0		120	1.0	2.5	/experiments/Knapen_AOT/AOT_stimuli/rescaled_final/0534_rv.mp4	0.0	83.08276796340942	1.0084710121154785
3	59.28392243385315	pulse	0	t		1.0	2.5	/experiments/Knapen_AOT/AOT_stimuli/rescaled_final/0534_rv.mp4	0.0	83.66653108596802	
3	59.708630323410034	movie	1		285	1.0	2.5	/experiments/Knapen_AOT/AOT_stimuli/rescaled_final/0534_rv.mp4	0.0	84.0912389755249	2.4920270442962646
3	60.88218283653259	pulse	1	t		1.0	2.5	/experiments/Knapen_AOT/AOT_stimuli/rescaled_final/0534_rv.mp4	0.0	85.26479148864746	
3	62.2006573677063	fix_post	2		12	1.0	2.5	/experiments/Knapen_AOT/AOT_stimuli/rescaled_final/0534_rv.mp4	0.0	86.58326601982117	0.10001969337463379
4	62.30067706108093	fix_pre	0		120	2.0	2.5	/experiments/Knapen_AOT/AOT_stimuli/rescaled_final/0439_fw.mp4	0.0	86.6832857131958	1.0085217952728271
4	62.48425364494324	pulse	0	t		2.0	2.5	/experiments/Knapen_AOT/AOT_stimuli/rescaled_final/0439_fw.mp4	0.0	86.8668622970581	
4	63.30919885635376	movie	1		282	2.0	2.5	/experiments/Knapen_AOT/AOT_stimuli/rescaled_final/0439_fw.mp4	0.0	87.69180750846863	2.492002487182617
4	64.0826518535614	pulse	1	t		2.0	2.5	/experiments/Knapen_AOT/AOT_stimuli/rescaled_final/0439_fw.mp4	0.0	88.46526050567627	
4	65.68287944793701	pulse	1	t		2.0	2.5	/experiments/Knapen_AOT/AOT_stimuli/rescaled_final/0439_fw.mp4	0.0	90.06548810005188	
4	65.80120134353638	fix_post	2		12	2.0	2.5	/experiments/Knapen_AOT/AOT_stimuli/rescaled_final/0439_fw.mp4	0.0	90.18380999565125	0.10000896453857422
5	65.90121030807495	fix_pre	0		120	3.0	2.5	/experiments/Knapen_AOT/AOT_stimuli/rescaled_final/0925_rv.mp4	0.0	90.28381896018982	1.0085043907165527
5	66.9097146987915	movie	1		289	3.0	2.5	/experiments/Knapen_AOT/AOT_stimuli/rescaled_final/0925_rv.mp4	0.0	91.29232335090637	2.492023229598999
5	67.28331160545349	pulse	1	t		3.0	2.5	/experiments/Knapen_AOT/AOT_stimuli/rescaled_final/0925_rv.mp4	0.0	91.66592025756836	
5	68.88315534591675	pulse	1	t		3.0	2.5	/experiments/Knapen_AOT/AOT_stimuli/rescaled_final/0925_rv.mp4	0.0	93.26576399803162	
5	69.4017379283905	fix_post	2		12	3.0	2.5	/experiments/Knapen_AOT/AOT_stimuli/rescaled_final/0925_rv.mp4	0.0	93.78434658050537	0.10009598731994629
6	69.50183391571045	fix_pre	0		119	4.0	2.5	/experiments/Knapen_AOT/AOT_stimuli/rescaled_final/0020_rv.mp4	0.0	93.88444256782532	1.0000314712524414
6	70.48550724983215	pulse	0	t		4.0	2.5	/experiments/Knapen_AOT/AOT_stimuli/rescaled_final/0020_rv.mp4	0.0	94.86811590194702	
6	70.50186538696289	movie	1		287	4.0	2.5	/experiments/Knapen_AOT/AOT_stimuli/rescaled_final/0020_rv.mp4	0.0	94.88447403907776	2.5004312992095947
6	72.08409857749939	pulse	1	t		4.0	2.5	/experiments/Knapen_AOT/AOT_stimuli/rescaled_final/0020_rv.mp4	0.0	96.46670722961426	
6	73.00229668617249	fix_post	2		12	4.0	2.5	/experiments/Knapen_AOT/AOT_stimuli/rescaled_final/0020_rv.mp4	0.0	97.38490533828735	0.10004639625549316
7	73.10234308242798	fix_pre	0		120	5.0	2.5	/experiments/Knapen_AOT/AOT_stimuli/rescaled_final/0620_fw.mp4	0.0	97.48495173454285	1.008470058441162
7	73.68590211868286	pulse	0	t		5.0	2.5	/experiments/Knapen_AOT/AOT_stimuli/rescaled_final/0620_fw.mp4	0.0	98.06851077079773	
7	74.11081314086914	movie	1		290	5.0	2.5	/experiments/Knapen_AOT/AOT_stimuli/rescaled_final/0620_fw.mp4	0.0	98.49342179298401	2.4920341968536377
7	75.28467607498169	pulse	1	t		5.0	2.5	/experiments/Knapen_AOT/AOT_stimuli/rescaled_final/0620_fw.mp4	0.0	99.66728472709656	
7	76.60284733772278	fix_post	2		12	5.0	2.5	/experiments/Knapen_AOT/AOT_stimuli/rescaled_final/0620_fw.mp4	0.0	100.98545598983765	0.09998130798339844
8	76.70282864570618	fix_pre	0		120	6.0	2.5	blank	1.0	101.08543729782104	1.000157117843628
8	76.88639211654663	pulse	0	t		6.0	2.5	blank	1.0	101.2690007686615	
8	77.7029857635498	movie	1		300	6.0	2.5	blank	1.0	102.08559441566467	2.500422477722168
8	78.48671865463257	pulse	1	t		6.0	2.5	blank	1.0	102.86932730674744	
8	80.08699131011963	pulse	1	t		6.0	2.5	blank	1.0	104.4695999622345	
8	80.20340824127197	fix_post	2		12	6.0	2.5	blank	1.0	104.58601689338684	0.10004425048828125
9	80.30345249176025	fix_pre	0		120	7.0	2.5	/experiments/Knapen_AOT/AOT_stimuli/rescaled_final/1689_rv.mp4	0.0	104.68606114387512	1.0084228515625
9	81.31187534332275	movie	1		279	7.0	2.5	/experiments/Knapen_AOT/AOT_stimuli/rescaled_final/1689_rv.mp4	0.0	105.69448399543762	2.492015838623047
9	81.68594264984131	pulse	1	t		7.0	2.5	/experiments/Knapen_AOT/AOT_stimuli/rescaled_final/1689_rv.mp4	0.0	106.06855130195618	
9	83.28543210029602	pulse	1	t		7.0	2.5	/experiments/Knapen_AOT/AOT_stimuli/rescaled_final/1689_rv.mp4	0.0	107.66804075241089	
9	83.8038911819458	fix_post	2		12	7.0	2.5	/experiments/Knapen_AOT/AOT_stimuli/rescaled_final/1689_rv.mp4	0.0	108.18649983406067	0.10001420974731445
10	83.90390539169312	fix_pre	0		119	8.0	2.5	/experiments/Knapen_AOT/AOT_stimuli/rescaled_final/1533_rv.mp4	0.0	108.28651404380798	1.0001463890075684
10	84.88762044906616	pulse	0	t		8.0	2.5	/experiments/Knapen_AOT/AOT_stimuli/rescaled_final/1533_rv.mp4	0.0	109.27022910118103	
10	84.90405178070068	movie	1		289	8.0	2.5	/experiments/Knapen_AOT/AOT_stimuli/rescaled_final/1533_rv.mp4	0.0	109.28666043281555	2.5003745555877686
10	86.48737359046936	pulse	1	t		8.0	2.5	/experiments/Knapen_AOT/AOT_stimuli/rescaled_final/1533_rv.mp4	0.0	110.86998224258423	
10	87.40442633628845	fix_post	2		12	8.0	2.5	/experiments/Knapen_AOT/AOT_stimuli/rescaled_final/1533_rv.mp4	0.0	111.78703498840332	0.10001945495605469
11	87.5044457912445	fix_pre	0		120	9.0	2.5	/experiments/Knapen_AOT/AOT_stimuli/rescaled_final/1096_rv.mp4	0.0	111.88705444335938	1.0085432529449463
11	88.08844876289368	pulse	0	t		9.0	2.5	/experiments/Knapen_AOT/AOT_stimuli/rescaled_final/1096_rv.mp4	0.0	112.47105741500854	
11	88.51298904418945	movie	1		284	9.0	2.5	/experiments/Knapen_AOT/AOT_stimuli/rescaled_final/1096_rv.mp4	0.0	112.89559769630432	2.4919888973236084
11	89.68671441078186	pulse	1	t		9.0	2.5	/experiments/Knapen_AOT/AOT_stimuli/rescaled_final/1096_rv.mp4	0.0	114.06932306289673	
11	91.00497794151306	fix_post	2		12	9.0	2.5	/experiments/Knapen_AOT/AOT_stimuli/rescaled_final/1096_rv.mp4	0.0	115.38758659362793	0.09997797012329102
12	91.10495591163635	fix_pre	0		120	10.0	2.5	/experiments/Knapen_AOT/AOT_stimuli/rescaled_final/0660_rv.mp4	0.0	115.48756456375122	1.0085690021514893
12	91.28854250907898	pulse	0	t		10.0	2.5	/experiments/Knapen_AOT/AOT_stimuli/rescaled_final/0660_rv.mp4	0.0	115.67115116119385	
12	92.11352491378784	movie	1		285	10.0	2.5	/experiments/Knapen_AOT/AOT_stimuli/rescaled_final/0660_rv.mp4	0.0	116.49613356590271	2.4920055866241455
12	92.88695526123047	pulse	1	t		10.0	2.5	/experiments/Knapen_AOT/AOT_stimuli/rescaled_final/0660_rv.mp4	0.0	117.26956391334534	
12	94.48695683479309	pulse	1	t		10.0	2.5	/experiments/Knapen_AOT/AOT_stimuli/rescaled_final/0660_rv.mp4	0.0	118.86956548690796	
12	94.60553050041199	fix_post	2		12	10.0	2.5	/experiments/Knapen_AOT/AOT_stimuli/rescaled_final/0660_rv.mp4	0.0	118.98813915252686	0.09999632835388184
13	94.70552682876587	fix_pre	0		120	11.0	2.5	/experiments/Knapen_AOT/AOT_stimuli/rescaled_final/0322_rv.mp4	0.0	119.08813548088074	1.0085184574127197
13	95.71404528617859	movie	1		284	11.0	2.5	/experiments/Knapen_AOT/AOT_stimuli/rescaled_final/0322_rv.mp4	0.0	120.09665393829346	2.4920897483825684
13	96.08746480941772	pulse	1	t		11.0	2.5	/experiments/Knapen_AOT/AOT_stimuli/rescaled_final/0322_rv.mp4	0.0	120.47007346153259	
13	97.68764996528625	pulse	1	t		11.0	2.5	/experiments/Knapen_AOT/AOT_stimuli/rescaled_final/0322_rv.mp4	0.0	122.07025861740112	
13	98.20613503456116	fix_post	2		12	11.0	2.5	/experiments/Knapen_AOT/AOT_stimuli/rescaled_final/0322_rv.mp4	0.0	122.58874368667603	0.09993362426757812
14	98.30606865882874	fix_pre	0		119	12.0	2.5	/experiments/Knapen_AOT/AOT_stimuli/rescaled_final/1117_fw.mp4	0.0	122.6886773109436	1.000131607055664
14	99.28244757652283	pulse	0	t		12.0	2.5	/experiments/Knapen_AOT/AOT_stimuli/rescaled_final/1117_fw.mp4	0.0	123.6650562286377	
14	99.3062002658844	movie	1		292	12.0	2.5	/experiments/Knapen_AOT/AOT_stimuli/rescaled_final/1117_fw.mp4	0.0	123.68880891799927	2.500406503677368
14	100.88858580589294	pulse	1	t		12.0	2.5	/experiments/Knapen_AOT/AOT_stimuli/rescaled_final/1117_fw.mp4	0.0	125.27119445800781	
14	101.80660676956177	fix_post	2		12	12.0	2.5	/experiments/Knapen_AOT/AOT_stimuli/rescaled_final/1117_fw.mp4	0.0	126.18921542167664	0.10009145736694336
15	101.90669822692871	fix_pre	0		120	13.0	2.5	/experiments/Knapen_AOT/AOT_stimuli/rescaled_final/0913_rv.mp4	0.0	126.28930687904358	1.0084447860717773
15	102.48240923881531	pulse	0	t		13.0	2.5	/experiments/Knapen_AOT/AOT_stimuli/rescaled_final/0913_rv.mp4	0.0	126.86501789093018	
15	102.91514301300049	movie	1		287	13.0	2.5	/experiments/Knapen_AOT/AOT_stimuli/rescaled_final/0913_rv.mp4	0.0	127.29775166511536	2.491994857788086
15	104.08860898017883	pulse	1	t		13.0	2.5	/experiments/Knapen_AOT/AOT_stimuli/rescaled_final/0913_rv.mp4	0.0	128.4712176322937	
15	105.40713787078857	fix_post	2		12	13.0	2.5	/experiments/Knapen_AOT/AOT_stimuli/rescaled_final/0913_rv.mp4	0.0	129.78974652290344	0.10003018379211426
16	105.50716805458069	fix_pre	0		120	14.0	2.5	blank	1.0	129.88977670669556	1.0001351833343506
16	105.68269062042236	pulse	0	t		14.0	2.5	blank	1.0	130.06529927253723	
16	106.50730323791504	movie	1		300	14.0	2.5	blank	1.0	130.8899118900299	2.50038480758667
16	107.28272032737732	pulse	1	t		14.0	2.5	blank	1.0	131.6653289794922	
16	108.88298010826111	pulse	1	t		14.0	2.5	blank	1.0	133.26558876037598	
16	109.00768804550171	fix_post	2		12	14.0	2.5	blank	1.0	133.39029669761658	0.1000063419342041
17	109.10769438743591	fix_pre	0		120	15.0	2.5	/experiments/Knapen_AOT/AOT_stimuli/rescaled_final/0969_fw.mp4	0.0	133.49030303955078	1.0084993839263916
17	110.1161937713623	movie	1		281	15.0	2.5	/experiments/Knapen_AOT/AOT_stimuli/rescaled_final/0969_fw.mp4	0.0	134.49880242347717	2.4920480251312256
17	110.48314881324768	pulse	1	t		15.0	2.5	/experiments/Knapen_AOT/AOT_stimuli/rescaled_final/0969_fw.mp4	0.0	134.86575746536255	
17	112.08345293998718	pulse	1	t		15.0	2.5	/experiments/Knapen_AOT/AOT_stimuli/rescaled_final/0969_fw.mp4	0.0	136.46606159210205	
17	112.60824179649353	fix_post	2		12	15.0	2.5	/experiments/Knapen_AOT/AOT_stimuli/rescaled_final/0969_fw.mp4	0.0	136.9908504486084	0.09997868537902832
18	112.70822048187256	fix_pre	0		118	16.0	2.5	/experiments/Knapen_AOT/AOT_stimuli/rescaled_final/0498_fw.mp4	0.0	137.09082913398743	0.9918384552001953
18	113.68363809585571	pulse	0	t		16.0	2.5	/experiments/Knapen_AOT/AOT_stimuli/rescaled_final/0498_fw.mp4	0.0	138.06624674797058	
18	113.70005893707275	movie	1		290	16.0	2.5	/experiments/Knapen_AOT/AOT_stimuli/rescaled_final/0498_fw.mp4	0.0	138.08266758918762	2.500359296798706
18	115.28393602371216	pulse	1	t		16.0	2.5	/experiments/Knapen_AOT/AOT_stimuli/rescaled_final/0498_fw.mp4	0.0	139.66654467582703	
18	116.20041823387146	fix_post	2		12	16.0	2.5	/experiments/Knapen_AOT/AOT_stimuli/rescaled_final/0498_fw.mp4	0.0	140.58302688598633	0.10002326965332031
19	116.30044150352478	fix_pre	0		120	17.0	2.5	/experiments/Knapen_AOT/AOT_stimuli/rescaled_final/0439_rv.mp4	0.0	140.68305015563965	1.0085079669952393
19	116.88410472869873	pulse	0	t		17.0	2.5	/experiments/Knapen_AOT/AOT_stimuli/rescaled_final/0439_rv.mp4	0.0	141.2667133808136	
19	117.30894947052002	movie	1		271	17.0	2.5	/experiments/Knapen_AOT/AOT_stimuli/rescaled_final/0439_rv.mp4	0.0	141.6915581226349	2.4920504093170166
19	118.48437356948853	pulse	1	t		17.0	2.5	/experiments/Knapen_AOT/AOT_stimuli/rescaled_final/0439_rv.mp4	0.0	142.8669822216034	
19	119.80099987983704	fix_post	2		12	17.0	2.5	/experiments/Knapen_AOT/AOT_stimuli/rescaled_final/0439_rv.mp4	0.0	144.1836085319519	0.10000061988830566
20	119.90100049972534	fix_pre	0		120	18.0	2.5	/experiments/Knapen_AOT/AOT_stimuli/rescaled_final/0626_rv.mp4	0.0	144.2836091518402	1.0085606575012207
20	120.08461689949036	pulse	0	t		18.0	2.5	/experiments/Knapen_AOT/AOT_stimuli/rescaled_final/0626_rv.mp4	0.0	144.46722555160522	
20	120.90956115722656	movie	1		287	18.0	2.5	/experiments/Knapen_AOT/AOT_stimuli/rescaled_final/0626_rv.mp4	0.0	145.29216980934143	2.4920008182525635
20	121.68316292762756	pulse	1	t		18.0	2.5	/experiments/Knapen_AOT/AOT_stimuli/rescaled_final/0626_rv.mp4	0.0	146.06577157974243	
20	123.28303003311157	pulse	1	t		18.0	2.5	/experiments/Knapen_AOT/AOT_stimuli/rescaled_final/0626_rv.mp4	0.0	147.66563868522644	
20	123.40156197547913	fix_post	2		12	18.0	2.5	/experiments/Knapen_AOT/AOT_stimuli/rescaled_final/0626_rv.mp4	0.0	147.784170627594	0.09999656677246094
21	123.50155854225159	fix_pre	0		120	19.0	2.5	/experiments/Knapen_AOT/AOT_stimuli/rescaled_final/0648_rv.mp4	0.0	147.88416719436646	1.008453607559204
21	124.51001214981079	movie	1		288	19.0	2.5	/experiments/Knapen_AOT/AOT_stimuli/rescaled_final/0648_rv.mp4	0.0	148.89262080192566	2.49202823638916
21	124.88388538360596	pulse	1	t		19.0	2.5	/experiments/Knapen_AOT/AOT_stimuli/rescaled_final/0648_rv.mp4	0.0	149.26649403572083	
21	126.48359107971191	pulse	1	t		19.0	2.5	/experiments/Knapen_AOT/AOT_stimuli/rescaled_final/0648_rv.mp4	0.0	150.86619973182678	
21	127.00204038619995	fix_post	2		12	19.0	2.5	/experiments/Knapen_AOT/AOT_stimuli/rescaled_final/0648_rv.mp4	0.0	151.38464903831482	0.10001516342163086
22	127.10205554962158	fix_pre	0		119	20.0	2.5	blank	1.0	151.48466420173645	0.991995096206665
22	128.0865502357483	pulse	0	t		20.0	2.5	blank	1.0	152.46915888786316	
22	128.09405064582825	movie	1		301	20.0	2.5	blank	1.0	152.47665929794312	2.508547782897949
22	129.68627333641052	pulse	1	t		20.0	2.5	blank	1.0	154.0688819885254	
22	130.6025984287262	fix_post	2		12	20.0	2.5	blank	1.0	154.98520708084106	0.09998464584350586
23	130.7025830745697	fix_pre	0		120	21.0	2.5	/experiments/Knapen_AOT/AOT_stimuli/rescaled_final/0552_fw.mp4	0.0	155.08519172668457	1.0085229873657227
23	131.28621912002563	pulse	0	t		21.0	2.5	/experiments/Knapen_AOT/AOT_stimuli/rescaled_final/0552_fw.mp4	0.0	155.6688277721405	
23	131.71110606193542	movie	1		285	21.0	2.5	/experiments/Knapen_AOT/AOT_stimuli/rescaled_final/0552_fw.mp4	0.0	156.0937147140503	2.491997241973877
23	132.88523077964783	pulse	1	t		21.0	2.5	/experiments/Knapen_AOT/AOT_stimuli/rescaled_final/0552_fw.mp4	0.0	157.2678394317627	
23	134.2031033039093	fix_post	2		12	21.0	2.5	/experiments/Knapen_AOT/AOT_stimuli/rescaled_final/0552_fw.mp4	0.0	158.58571195602417	0.10004854202270508
24	134.303151845932	fix_pre	0		120	22.0	2.5	/experiments/Knapen_AOT/AOT_stimuli/rescaled_final/2033_fw.mp4	0.0	158.68576049804688	1.0085034370422363
24	134.48665499687195	pulse	0	t		22.0	2.5	/experiments/Knapen_AOT/AOT_stimuli/rescaled_final/2033_fw.mp4	0.0	158.86926364898682	
24	135.31165528297424	movie	1		291	22.0	2.5	/experiments/Knapen_AOT/AOT_stimuli/rescaled_final/2033_fw.mp4	0.0	159.6942639350891	2.4920358657836914
24	136.0850706100464	pulse	1	t		22.0	2.5	/experiments/Knapen_AOT/AOT_stimuli/rescaled_final/2033_fw.mp4	0.0	160.46767926216125	
24	137.6852638721466	pulse	1	t		22.0	2.5	/experiments/Knapen_AOT/AOT_stimuli/rescaled_final/2033_fw.mp4	0.0	162.06787252426147	
24	137.80369114875793	fix_post	2		12	22.0	2.5	/experiments/Knapen_AOT/AOT_stimuli/rescaled_final/2033_fw.mp4	0.0	162.1862998008728	0.09998965263366699
25	137.9036808013916	fix_pre	0		120	23.0	2.5	/experiments/Knapen_AOT/AOT_stimuli/rescaled_final/0048_fw.mp4	0.0	162.28628945350647	1.0085558891296387
25	138.91223669052124	movie	1		283	23.0	2.5	/experiments/Knapen_AOT/AOT_stimuli/rescaled_final/0048_fw.mp4	0.0	163.2948453426361	2.4920523166656494
25	139.2878074645996	pulse	1	t		23.0	2.5	/experiments/Knapen_AOT/AOT_stimuli/rescaled_final/0048_fw.mp4	0.0	163.67041611671448	
25	140.88535118103027	pulse	1	t		23.0	2.5	/experiments/Knapen_AOT/AOT_stimuli/rescaled_final/0048_fw.mp4	0.0	165.26795983314514	
25	141.4042890071869	fix_post	2		12	23.0	2.5	/experiments/Knapen_AOT/AOT_stimuli/rescaled_final/0048_fw.mp4	0.0	165.78689765930176	0.09995841979980469
26	141.5042474269867	fix_pre	0		119	24.0	2.5	/experiments/Knapen_AOT/AOT_stimuli/rescaled_final/0628_rv.mp4	0.0	165.88685607910156	1.0001788139343262
26	142.48791933059692	pulse	0	t		24.0	2.5	/experiments/Knapen_AOT/AOT_stimuli/rescaled_final/0628_rv.mp4	0.0	166.8705279827118	
26	142.50442624092102	movie	1		292	24.0	2.5	/experiments/Knapen_AOT/AOT_stimuli/rescaled_final/0628_rv.mp4	0.0	166.8870348930359	2.500340461730957
26	144.0863540172577	pulse	1	t		24.0	2.5	/experiments/Knapen_AOT/AOT_stimuli/rescaled_final/0628_rv.mp4	0.0	168.46896266937256	
26	145.00476670265198	fix_post	2		12	24.0	2.5	/experiments/Knapen_AOT/AOT_stimuli/rescaled_final/0628_rv.mp4	0.0	169.38737535476685	0.10000300407409668
27	145.10476970672607	fix_pre	0		120	25.0	2.5	/experiments/Knapen_AOT/AOT_stimuli/rescaled_final/1334_fw.mp4	0.0	169.48737835884094	1.008495569229126
27	145.688640832901	pulse	0	t		25.0	2.5	/experiments/Knapen_AOT/AOT_stimuli/rescaled_final/1334_fw.mp4	0.0	170.07124948501587	
27	146.1132652759552	movie	1		285	25.0	2.5	/experiments/Knapen_AOT/AOT_stimuli/rescaled_final/1334_fw.mp4	0.0	170.49587392807007	2.492033004760742
27	147.28705286979675	pulse	1	t		25.0	2.5	/experiments/Knapen_AOT/AOT_stimuli/rescaled_final/1334_fw.mp4	0.0	171.66966152191162	
27	148.60529828071594	fix_post	2		12	25.0	2.5	/experiments/Knapen_AOT/AOT_stimuli/rescaled_final/1334_fw.mp4	0.0	172.9879069328308	0.10005950927734375
28	148.7053577899933	fix_pre	0		120	26.0	2.5	blank	1.0	173.08796644210815	1.0000636577606201
28	148.88879537582397	pulse	0	t		26.0	2.5	blank	1.0	173.27140402793884	
28	149.7054214477539	movie	1		300	26.0	2.5	blank	1.0	174.08803009986877	2.5004048347473145
28	150.48903799057007	pulse	1	t		26.0	2.5	blank	1.0	174.87164664268494	
28	152.08944582939148	pulse	1	t		26.0	2.5	blank	1.0	176.47205448150635	
28	152.20582628250122	fix_post	2		12	26.0	2.5	blank	1.0	176.5884349346161	0.10006594657897949
29	152.3058922290802	fix_pre	0		120	27.0	2.5	/experiments/Knapen_AOT/AOT_stimuli/rescaled_final/0020_fw.mp4	0.0	176.68850088119507	1.008437156677246
29	153.31432938575745	movie	1		281	27.0	2.5	/experiments/Knapen_AOT/AOT_stimuli/rescaled_final/0020_fw.mp4	0.0	177.69693803787231	2.4920713901519775
29	153.68808913230896	pulse	1	t		27.0	2.5	/experiments/Knapen_AOT/AOT_stimuli/rescaled_final/0020_fw.mp4	0.0	178.07069778442383	
29	155.28902220726013	pulse	1	t		27.0	2.5	/experiments/Knapen_AOT/AOT_stimuli/rescaled_final/0020_fw.mp4	0.0	179.671630859375	
29	155.80640077590942	fix_post	2		12	27.0	2.5	/experiments/Knapen_AOT/AOT_stimuli/rescaled_final/0020_fw.mp4	0.0	180.1890094280243	0.1000206470489502
30	155.90642142295837	fix_pre	0		119	28.0	2.5	/experiments/Knapen_AOT/AOT_stimuli/rescaled_final/0774_fw.mp4	0.0	180.28903007507324	1.0001072883605957
30	156.8901846408844	pulse	0	t		28.0	2.5	/experiments/Knapen_AOT/AOT_stimuli/rescaled_final/0774_fw.mp4	0.0	181.27279329299927	
30	156.90652871131897	movie	1		284	28.0	2.5	/experiments/Knapen_AOT/AOT_stimuli/rescaled_final/0774_fw.mp4	0.0	181.28913736343384	2.500422239303589
30	158.48897576332092	pulse	1	t		28.0	2.5	/experiments/Knapen_AOT/AOT_stimuli/rescaled_final/0774_fw.mp4	0.0	182.8715844154358	
30	159.40695095062256	fix_post	2		12	28.0	2.5	/experiments/Knapen_AOT/AOT_stimuli/rescaled_final/0774_fw.mp4	0.0	183.78955960273743	0.10005593299865723
31	159.50700688362122	fix_pre	0		120	29.0	2.5	/experiments/Knapen_AOT/AOT_stimuli/rescaled_final/0468_rv.mp4	0.0	183.88961553573608	1.0083909034729004
31	160.08296370506287	pulse	0	t		29.0	2.5	/experiments/Knapen_AOT/AOT_stimuli/rescaled_final/0468_rv.mp4	0.0	184.46557235717773	
31	160.51539778709412	movie	1		285	29.0	2.5	/experiments/Knapen_AOT/AOT_stimuli/rescaled_final/0468_rv.mp4	0.0	184.89800643920898	2.4920718669891357
31	161.68908095359802	pulse	1	t		29.0	2.5	/experiments/Knapen_AOT/AOT_stimuli/rescaled_final/0468_rv.mp4	0.0	186.0716896057129	
31	163.00746965408325	fix_post	2		12	29.0	2.5	/experiments/Knapen_AOT/AOT_stimuli/rescaled_final/0468_rv.mp4	0.0	187.39007830619812	0.09997129440307617
32	163.10744094848633	fix_pre	0		120	30.0	2.5	/experiments/Knapen_AOT/AOT_stimuli/rescaled_final/1476_rv.mp4	0.0	187.4900496006012	1.0085399150848389
32	163.28297638893127	pulse	0	t		30.0	2.5	/experiments/Knapen_AOT/AOT_stimuli/rescaled_final/1476_rv.mp4	0.0	187.66558504104614	
32	164.11598086357117	movie	1		274	30.0	2.5	/experiments/Knapen_AOT/AOT_stimuli/rescaled_final/1476_rv.mp4	0.0	188.49858951568604	2.4920718669891357
32	164.88288044929504	pulse	1	t		30.0	2.5	/experiments/Knapen_AOT/AOT_stimuli/rescaled_final/1476_rv.mp4	0.0	189.2654891014099	
32	166.4833209514618	pulse	1	t		30.0	2.5	/experiments/Knapen_AOT/AOT_stimuli/rescaled_final/1476_rv.mp4	0.0	190.86592960357666	
32	166.6080527305603	fix_post	2		12	30.0	2.5	/experiments/Knapen_AOT/AOT_stimuli/rescaled_final/1476_rv.mp4	0.0	190.99066138267517	0.09997367858886719
33	166.70802640914917	fix_pre	0		120	31.0	2.5	/experiments/Knapen_AOT/AOT_stimuli/rescaled_final/1060_rv.mp4	0.0	191.09063506126404	1.0084679126739502
33	167.71649432182312	movie	1		288	31.0	2.5	/experiments/Knapen_AOT/AOT_stimuli/rescaled_final/1060_rv.mp4	0.0	192.099102973938	2.4920599460601807
33	168.08364295959473	pulse	1	t		31.0	2.5	/experiments/Knapen_AOT/AOT_stimuli/rescaled_final/1060_rv.mp4	0.0	192.4662516117096	
33	169.68371653556824	pulse	1	t		31.0	2.5	/experiments/Knapen_AOT/AOT_stimuli/rescaled_final/1060_rv.mp4	0.0	194.0663251876831	
33	170.2085542678833	fix_post	2		12	31.0	2.5	/experiments/Knapen_AOT/AOT_stimuli/rescaled_final/1060_rv.mp4	0.0	194.59116291999817	0.10004329681396484
34	170.30859756469727	fix_pre	0		118	32.0	2.5	/experiments/Knapen_AOT/AOT_stimuli/rescaled_final/0112_fw.mp4	0.0	194.69120621681213	0.9918026924133301
34	171.28390336036682	pulse	0	t		32.0	2.5	/experiments/Knapen_AOT/AOT_stimuli/rescaled_final/0112_fw.mp4	0.0	195.6665120124817	
34	171.3004002571106	movie	1		283	32.0	2.5	/experiments/Knapen_AOT/AOT_stimuli/rescaled_final/0112_fw.mp4	0.0	195.68300890922546	2.5003421306610107
34	172.8841598033905	pulse	1	t		32.0	2.5	/experiments/Knapen_AOT/AOT_stimuli/rescaled_final/0112_fw.mp4	0.0	197.26676845550537	
34	173.8007423877716	fix_post	2		12	32.0	2.5	/experiments/Knapen_AOT/AOT_stimuli/rescaled_final/0112_fw.mp4	0.0	198.18335103988647	0.10002017021179199
35	173.9007625579834	fix_pre	0		120	33.0	2.5	blank	1.0	198.28337121009827	1.000126838684082
35	174.4843385219574	pulse	0	t		33.0	2.5	blank	1.0	198.86694717407227	
35	174.90088939666748	movie	1		300	33.0	2.5	blank	1.0	199.28349804878235	2.500378131866455
35	176.08474683761597	pulse	1	t		33.0	2.5	blank	1.0	200.46735548973083	
35	177.40126752853394	fix_post	2		12	33.0	2.5	blank	1.0	201.7838761806488	0.10007953643798828
36	177.50134706497192	fix_pre	0		120	34.0	2.5	/experiments/Knapen_AOT/AOT_stimuli/rescaled_final/0906_fw.mp4	0.0	201.8839557170868	1.0084707736968994
36	177.6848497390747	pulse	0	t		34.0	2.5	/experiments/Knapen_AOT/AOT_stimuli/rescaled_final/0906_fw.mp4	0.0	202.06745839118958	
36	178.50981783866882	movie	1		279	34.0	2.5	/experiments/Knapen_AOT/AOT_stimuli/rescaled_final/0906_fw.mp4	0.0	202.8924264907837	2.4920754432678223
36	179.28424954414368	pulse	1	t		34.0	2.5	/experiments/Knapen_AOT/AOT_stimuli/rescaled_final/0906_fw.mp4	0.0	203.66685819625854	
36	180.88353395462036	pulse	1	t		34.0	2.5	/experiments/Knapen_AOT/AOT_stimuli/rescaled_final/0906_fw.mp4	0.0	205.26614260673523	
36	181.00189328193665	fix_post	2		12	34.0	2.5	/experiments/Knapen_AOT/AOT_stimuli/rescaled_final/0906_fw.mp4	0.0	205.3845019340515	0.09992718696594238
37	181.1018204689026	fix_pre	0		120	35.0	2.5	/experiments/Knapen_AOT/AOT_stimuli/rescaled_final/0806_fw.mp4	0.0	205.48442912101746	1.0085561275482178
37	182.1103765964508	movie	1		277	35.0	2.5	/experiments/Knapen_AOT/AOT_stimuli/rescaled_final/0806_fw.mp4	0.0	206.49298524856567	2.4920241832733154
37	182.48413801193237	pulse	1	t		35.0	2.5	/experiments/Knapen_AOT/AOT_stimuli/rescaled_final/0806_fw.mp4	0.0	206.86674666404724	
37	184.08368849754333	pulse	1	t		35.0	2.5	/experiments/Knapen_AOT/AOT_stimuli/rescaled_final/0806_fw.mp4	0.0	208.4662971496582	
37	184.60240077972412	fix_post	2		12	35.0	2.5	/experiments/Knapen_AOT/AOT_stimuli/rescaled_final/0806_fw.mp4	0.0	208.985009431839	0.09995698928833008
38	184.70235776901245	fix_pre	0		119	36.0	2.5	/experiments/Knapen_AOT/AOT_stimuli/rescaled_final/0205_rv.mp4	0.0	209.08496642112732	1.000145435333252
38	185.68605780601501	pulse	0	t		36.0	2.5	/experiments/Knapen_AOT/AOT_stimuli/rescaled_final/0205_rv.mp4	0.0	210.06866645812988	
38	185.7025032043457	movie	1		269	36.0	2.5	/experiments/Knapen_AOT/AOT_stimuli/rescaled_final/0205_rv.mp4	0.0	210.08511185646057	2.500441551208496
38	187.28600907325745	pulse	1	t		36.0	2.5	/experiments/Knapen_AOT/AOT_stimuli/rescaled_final/0205_rv.mp4	0.0	211.66861772537231	
38	188.2029447555542	fix_post	2		12	36.0	2.5	/experiments/Knapen_AOT/AOT_stimuli/rescaled_final/0205_rv.mp4	0.0	212.58555340766907	0.09998726844787598
39	188.30293202400208	fix_pre	0		120	37.0	2.5	/experiments/Knapen_AOT/AOT_stimuli/rescaled_final/0552_fw.mp4	0.0	212.68554067611694	1.0084807872772217
39	188.8865785598755	pulse	0	t		37.0	2.5	/experiments/Knapen_AOT/AOT_stimuli/rescaled_final/0552_fw.mp4	0.0	213.26918721199036	
39	189.3114128112793	movie	1		283	37.0	2.5	/experiments/Knapen_AOT/AOT_stimuli/rescaled_final/0552_fw.mp4	0.0	213.69402146339417	2.4920687675476074
39	190.4852855205536	pulse	1	t		37.0	2.5	/experiments/Knapen_AOT/AOT_stimuli/rescaled_final/0552_fw.mp4	0.0	214.86789417266846	
39	191.8034815788269	fix_post	2		12	37.0	2.5	/experiments/Knapen_AOT/AOT_stimuli/rescaled_final/0552_fw.mp4	0.0	216.18609023094177	0.10003328323364258
40	191.90351486206055	fix_pre	0		120	38.0	2.5	/experiments/Knapen_AOT/AOT_stimuli/rescaled_final/0221_rv.mp4	0.0	216.28612351417542	1.0084455013275146
40	192.08700156211853	pulse	0	t		38.0	2.5	/experiments/Knapen_AOT/AOT_stimuli/rescaled_final/0221_rv.mp4	0.0	216.4696102142334	
40	192.91196036338806	movie	1		268	38.0	2.5	/experiments/Knapen_AOT/AOT_stimuli/rescaled_final/0221_rv.mp4	0.0	217.29456901550293	2.4920241832733154
40	193.68528842926025	pulse	1	t		38.0	2.5	/experiments/Knapen_AOT/AOT_stimuli/rescaled_final/0221_rv.mp4	0.0	218.06789708137512	
40	195.28557300567627	pulse	1	t		38.0	2.5	/experiments/Knapen_AOT/AOT_stimuli/rescaled_final/0221_rv.mp4	0.0	219.66818165779114	
40	195.40398454666138	fix_post	2		12	38.0	2.5	/experiments/Knapen_AOT/AOT_stimuli/rescaled_final/0221_rv.mp4	0.0	219.78659319877625	0.10006189346313477
41	195.5040464401245	fix_pre	0		120	39.0	2.5	/experiments/Knapen_AOT/AOT_stimuli/rescaled_final/1720_fw.mp4	0.0	219.88665509223938	1.0084974765777588
41	196.51254391670227	movie	1		277	39.0	2.5	/experiments/Knapen_AOT/AOT_stimuli/rescaled_final/1720_fw.mp4	0.0	220.89515256881714	2.492025375366211
41	196.88797545433044	pulse	1	t		39.0	2.5	/experiments/Knapen_AOT/AOT_stimuli/rescaled_final/1720_fw.mp4	0.0	221.2705841064453	
41	198.4876639842987	pulse	1	t		39.0	2.5	/experiments/Knapen_AOT/AOT_stimuli/rescaled_final/1720_fw.mp4	0.0	222.87027263641357	
41	199.00456929206848	fix_post	2		12	39.0	2.5	/experiments/Knapen_AOT/AOT_stimuli/rescaled_final/1720_fw.mp4	0.0	223.38717794418335	0.10004281997680664
42	199.1046121120453	fix_pre	0		119	40.0	2.5	/experiments/Knapen_AOT/AOT_stimuli/rescaled_final/1143_rv.mp4	0.0	223.48722076416016	1.000459909439087
42	200.08835315704346	pulse	0	t		40.0	2.5	/experiments/Knapen_AOT/AOT_stimuli/rescaled_final/1143_rv.mp4	0.0	224.47096180915833	
42	200.10507202148438	movie	1		286	40.0	2.5	/experiments/Knapen_AOT/AOT_stimuli/rescaled_final/1143_rv.mp4	0.0	224.48768067359924	2.500049591064453
42	201.68696665763855	pulse	1	t		40.0	2.5	/experiments/Knapen_AOT/AOT_stimuli/rescaled_final/1143_rv.mp4	0.0	226.06957530975342	
42	202.60512161254883	fix_post	2		12	40.0	2.5	/experiments/Knapen_AOT/AOT_stimuli/rescaled_final/1143_rv.mp4	0.0	226.9877302646637	0.1000218391418457
43	202.70514345169067	fix_pre	0		120	41.0	2.5	blank	1.0	227.08775210380554	1.0001187324523926
43	203.2886929512024	pulse	0	t		41.0	2.5	blank	1.0	227.67130160331726	
43	203.70526218414307	movie	1		300	41.0	2.5	blank	1.0	228.08787083625793	2.5003626346588135
43	204.8890402317047	pulse	1	t		41.0	2.5	blank	1.0	229.27164888381958	
43	206.20562481880188	fix_post	2		12	41.0	2.5	blank	1.0	230.58823347091675	0.10007858276367188
44	206.30570340156555	fix_pre	0		120	42.0	2.5	/experiments/Knapen_AOT/AOT_stimuli/rescaled_final/1170_rv.mp4	0.0	230.68831205368042	1.008392572402954
44	206.48912525177002	pulse	0	t		42.0	2.5	/experiments/Knapen_AOT/AOT_stimuli/rescaled_final/1170_rv.mp4	0.0	230.8717339038849	
44	207.3140959739685	movie	1		271	42.0	2.5	/experiments/Knapen_AOT/AOT_stimuli/rescaled_final/1170_rv.mp4	0.0	231.69670462608337	2.492021322250366
44	208.08803582191467	pulse	1	t		42.0	2.5	/experiments/Knapen_AOT/AOT_stimuli/rescaled_final/1170_rv.mp4	0.0	232.47064447402954	
44	209.6877579689026	pulse	1	t		42.0	2.5	/experiments/Knapen_AOT/AOT_stimuli/rescaled_final/1170_rv.mp4	0.0	234.07036662101746	
44	209.80611729621887	fix_post	2		12	42.0	2.5	/experiments/Knapen_AOT/AOT_stimuli/rescaled_final/1170_rv.mp4	0.0	234.18872594833374	0.10013294219970703
45	209.90625023841858	fix_pre	0		120	43.0	2.5	/experiments/Knapen_AOT/AOT_stimuli/rescaled_final/1291_rv.mp4	0.0	234.28885889053345	1.008394479751587
45	210.91464471817017	movie	1		278	43.0	2.5	/experiments/Knapen_AOT/AOT_stimuli/rescaled_final/1291_rv.mp4	0.0	235.29725337028503	2.492187738418579
45	211.28828883171082	pulse	1	t		43.0	2.5	/experiments/Knapen_AOT/AOT_stimuli/rescaled_final/1291_rv.mp4	0.0	235.67089748382568	
45	212.8905966281891	pulse	1	t		43.0	2.5	/experiments/Knapen_AOT/AOT_stimuli/rescaled_final/1291_rv.mp4	0.0	237.27320528030396	
45	213.40683245658875	fix_post	2		12	43.0	2.5	/experiments/Knapen_AOT/AOT_stimuli/rescaled_final/1291_rv.mp4	0.0	237.7894411087036	0.09990167617797852
46	213.50673413276672	fix_pre	0		119	44.0	2.5	/experiments/Knapen_AOT/AOT_stimuli/rescaled_final/1599_rv.mp4	0.0	237.8893427848816	1.0001351833343506
46	214.4905242919922	pulse	0	t		44.0	2.5	/experiments/Knapen_AOT/AOT_stimuli/rescaled_final/1599_rv.mp4	0.0	238.87313294410706	
46	214.50686931610107	movie	1		282	44.0	2.5	/experiments/Knapen_AOT/AOT_stimuli/rescaled_final/1599_rv.mp4	0.0	238.88947796821594	2.5003957748413086
46	216.08938694000244	pulse	1	t		44.0	2.5	/experiments/Knapen_AOT/AOT_stimuli/rescaled_final/1599_rv.mp4	0.0	240.4719955921173	
46	217.00726509094238	fix_post	2		12	44.0	2.5	/experiments/Knapen_AOT/AOT_stimuli/rescaled_final/1599_rv.mp4	0.0	241.38987374305725	0.10000419616699219
47	217.10726928710938	fix_pre	0		120	45.0	2.5	/experiments/Knapen_AOT/AOT_stimuli/rescaled_final/0550_fw.mp4	0.0	241.48987793922424	1.1418521404266357
47	217.69089007377625	pulse	0	t		45.0	2.5	/experiments/Knapen_AOT/AOT_stimuli/rescaled_final/0550_fw.mp4	0.0	242.0734987258911	
47	218.249121427536	movie	1		274	45.0	2.5	/experiments/Knapen_AOT/AOT_stimuli/rescaled_final/0550_fw.mp4	0.0	242.63173007965088	2.358656644821167
47	219.2894151210785	pulse	1	t		45.0	2.5	/experiments/Knapen_AOT/AOT_stimuli/rescaled_final/0550_fw.mp4	0.0	243.67202377319336	
47	220.60777807235718	fix_post	2		12	45.0	2.5	/experiments/Knapen_AOT/AOT_stimuli/rescaled_final/0550_fw.mp4	0.0	244.99038672447205	0.10003376007080078
48	220.70781183242798	fix_pre	0		120	46.0	2.5	/experiments/Knapen_AOT/AOT_stimuli/rescaled_final/1116_rv.mp4	0.0	245.09042048454285	1.0085151195526123
48	220.88339948654175	pulse	0	t		46.0	2.5	/experiments/Knapen_AOT/AOT_stimuli/rescaled_final/1116_rv.mp4	0.0	245.26600813865662	
48	221.7163269519806	movie	1		288	46.0	2.5	/experiments/Knapen_AOT/AOT_stimuli/rescaled_final/1116_rv.mp4	0.0	246.09893560409546	2.491978645324707
48	222.48340964317322	pulse	1	t		46.0	2.5	/experiments/Knapen_AOT/AOT_stimuli/rescaled_final/1116_rv.mp4	0.0	246.8660182952881	
48	224.0836215019226	pulse	1	t		46.0	2.5	/experiments/Knapen_AOT/AOT_stimuli/rescaled_final/1116_rv.mp4	0.0	248.46623015403748	
48	224.2083055973053	fix_post	2		12	46.0	2.5	/experiments/Knapen_AOT/AOT_stimuli/rescaled_final/1116_rv.mp4	0.0	248.59091424942017	0.10004448890686035
49	224.30835008621216	fix_pre	0		120	47.0	2.5	/experiments/Knapen_AOT/AOT_stimuli/rescaled_final/1266_rv.mp4	0.0	248.69095873832703	1.0085053443908691
49	225.31685543060303	movie	1		276	47.0	2.5	/experiments/Knapen_AOT/AOT_stimuli/rescaled_final/1266_rv.mp4	0.0	249.6994640827179	2.492180824279785
49	225.68384051322937	pulse	1	t		47.0	2.5	/experiments/Knapen_AOT/AOT_stimuli/rescaled_final/1266_rv.mp4	0.0	250.06644916534424	
49	227.28397154808044	pulse	1	t		47.0	2.5	/experiments/Knapen_AOT/AOT_stimuli/rescaled_final/1266_rv.mp4	0.0	251.6665802001953	
49	227.8090362548828	fix_post	2		12	47.0	2.5	/experiments/Knapen_AOT/AOT_stimuli/rescaled_final/1266_rv.mp4	0.0	252.19164490699768	0.09985494613647461
50	227.9088912010193	fix_pre	0		118	48.0	2.5	/experiments/Knapen_AOT/AOT_stimuli/rescaled_final/1575_fw.mp4	0.0	252.29149985313416	0.9917917251586914
50	228.884423494339	pulse	0	t		48.0	2.5	/experiments/Knapen_AOT/AOT_stimuli/rescaled_final/1575_fw.mp4	0.0	253.26703214645386	
50	228.90068292617798	movie	1		286	48.0	2.5	/experiments/Knapen_AOT/AOT_stimuli/rescaled_final/1575_fw.mp4	0.0	253.28329157829285	2.500364065170288
50	230.48459315299988	pulse	1	t		48.0	2.5	/experiments/Knapen_AOT/AOT_stimuli/rescaled_final/1575_fw.mp4	0.0	254.86720180511475	
50	231.40104699134827	fix_post	2		12	48.0	2.5	/experiments/Knapen_AOT/AOT_stimuli/rescaled_final/1575_fw.mp4	0.0	255.78365564346313	0.100006103515625
51	231.5010530948639	fix_pre	0		120	49.0	2.5	blank	1.0	255.88366174697876	1.0001816749572754
51	232.08482885360718	pulse	0	t		49.0	2.5	blank	1.0	256.46743750572205	
51	232.50123476982117	movie	1		300	49.0	2.5	blank	1.0	256.88384342193604	2.5003621578216553
51	233.68499064445496	pulse	1	t		49.0	2.5	blank	1.0	258.0675992965698	
51	235.00159692764282	fix_post	2		12	49.0	2.5	blank	1.0	259.3842055797577	0.10003423690795898
52	235.10163116455078	fix_pre	0		120	50.0	2.5	/experiments/Knapen_AOT/AOT_stimuli/rescaled_final/0634_rv.mp4	0.0	259.48423981666565	1.0084941387176514
52	235.28523230552673	pulse	0	t		50.0	2.5	/experiments/Knapen_AOT/AOT_stimuli/rescaled_final/0634_rv.mp4	0.0	259.6678409576416	
52	236.11012530326843	movie	1		273	50.0	2.5	/experiments/Knapen_AOT/AOT_stimuli/rescaled_final/0634_rv.mp4	0.0	260.4927339553833	2.500523567199707
52	236.8832471370697	pulse	1	t		50.0	2.5	/experiments/Knapen_AOT/AOT_stimuli/rescaled_final/0634_rv.mp4	0.0	261.26585578918457	
52	238.48390769958496	pulse	1	t		50.0	2.5	/experiments/Knapen_AOT/AOT_stimuli/rescaled_final/0634_rv.mp4	0.0	262.86651635169983	
52	238.61064887046814	fix_post	2		11	50.0	2.5	/experiments/Knapen_AOT/AOT_stimuli/rescaled_final/0634_rv.mp4	0.0	262.993257522583	0.09148025512695312
53	238.7021291255951	fix_pre	0		120	51.0	2.5	/experiments/Knapen_AOT/AOT_stimuli/rescaled_final/0705_fw.mp4	0.0	263.08473777770996	1.0085830688476562
53	239.71071219444275	movie	1		281	51.0	2.5	/experiments/Knapen_AOT/AOT_stimuli/rescaled_final/0705_fw.mp4	0.0	264.0933208465576	2.4919662475585938
53	240.08442664146423	pulse	1	t		51.0	2.5	/experiments/Knapen_AOT/AOT_stimuli/rescaled_final/0705_fw.mp4	0.0	264.4670352935791	
53	241.68417382240295	pulse	1	t		51.0	2.5	/experiments/Knapen_AOT/AOT_stimuli/rescaled_final/0705_fw.mp4	0.0	266.0667824745178	
53	242.20267844200134	fix_post	2		12	51.0	2.5	/experiments/Knapen_AOT/AOT_stimuli/rescaled_final/0705_fw.mp4	0.0	266.5852870941162	0.10004448890686035
54	242.3027229309082	fix_pre	0		119	52.0	2.5	/experiments/Knapen_AOT/AOT_stimuli/rescaled_final/0683_fw.mp4	0.0	266.68533158302307	1.000415325164795
54	243.2866039276123	pulse	0	t		52.0	2.5	/experiments/Knapen_AOT/AOT_stimuli/rescaled_final/0683_fw.mp4	0.0	267.6692125797272	
54	243.303138256073	movie	1		293	52.0	2.5	/experiments/Knapen_AOT/AOT_stimuli/rescaled_final/0683_fw.mp4	0.0	267.68574690818787	2.500070333480835
54	244.88523316383362	pulse	1	t		52.0	2.5	/experiments/Knapen_AOT/AOT_stimuli/rescaled_final/0683_fw.mp4	0.0	269.2678418159485	
54	245.80320858955383	fix_post	2		12	52.0	2.5	/experiments/Knapen_AOT/AOT_stimuli/rescaled_final/0683_fw.mp4	0.0	270.1858172416687	0.10018110275268555
55	245.90338969230652	fix_pre	0		120	53.0	2.5	/experiments/Knapen_AOT/AOT_stimuli/rescaled_final/0327_rv.mp4	0.0	270.2859983444214	1.0083460807800293
55	246.4869565963745	pulse	0	t		53.0	2.5	/experiments/Knapen_AOT/AOT_stimuli/rescaled_final/0327_rv.mp4	0.0	270.8695652484894	
55	246.91173577308655	movie	1		279	53.0	2.5	/experiments/Knapen_AOT/AOT_stimuli/rescaled_final/0327_rv.mp4	0.0	271.2943444252014	2.4920129776000977
55	248.0860207080841	pulse	1	t		53.0	2.5	/experiments/Knapen_AOT/AOT_stimuli/rescaled_final/0327_rv.mp4	0.0	272.468629360199	
55	249.40374875068665	fix_post	2		12	53.0	2.5	/experiments/Knapen_AOT/AOT_stimuli/rescaled_final/0327_rv.mp4	0.0	273.7863574028015	0.10004591941833496
56	249.50379467010498	fix_pre	0		120	54.0	2.5	/experiments/Knapen_AOT/AOT_stimuli/rescaled_final/2116_rv.mp4	0.0	273.88640332221985	1.0084991455078125
56	249.68745160102844	pulse	0	t		54.0	2.5	/experiments/Knapen_AOT/AOT_stimuli/rescaled_final/2116_rv.mp4	0.0	274.0700602531433	
56	250.5122938156128	movie	1		276	54.0	2.5	/experiments/Knapen_AOT/AOT_stimuli/rescaled_final/2116_rv.mp4	0.0	274.89490246772766	2.491995334625244
56	251.28545999526978	pulse	1	t		54.0	2.5	/experiments/Knapen_AOT/AOT_stimuli/rescaled_final/2116_rv.mp4	0.0	275.66806864738464	
56	252.88596439361572	pulse	1	t		54.0	2.5	/experiments/Knapen_AOT/AOT_stimuli/rescaled_final/2116_rv.mp4	0.0	277.2685730457306	
56	253.00428915023804	fix_post	2		12	54.0	2.5	/experiments/Knapen_AOT/AOT_stimuli/rescaled_final/2116_rv.mp4	0.0	277.3868978023529	0.10007095336914062
57	253.10436010360718	fix_pre	0		120	55.0	2.5	blank	1.0	277.48696875572205	1.0001611709594727
57	254.10452127456665	movie	1		300	55.0	2.5	blank	1.0	278.4871299266815	2.5003244876861572
57	254.4880337715149	pulse	1	t		55.0	2.5	blank	1.0	278.87064242362976	
57	256.0883038043976	pulse	1	t		55.0	2.5	blank	1.0	280.47091245651245	
57	256.6048457622528	fix_post	2		12	55.0	2.5	blank	1.0	280.9874544143677	0.10001206398010254
58	256.7048578262329	fix_pre	0		119	56.0	2.5	/experiments/Knapen_AOT/AOT_stimuli/rescaled_final/0779_fw.mp4	0.0	281.0874664783478	1.0001132488250732
58	257.6885600090027	pulse	0	t		56.0	2.5	/experiments/Knapen_AOT/AOT_stimuli/rescaled_final/0779_fw.mp4	0.0	282.07116866111755	
58	257.704971075058	movie	1		276	56.0	2.5	/experiments/Knapen_AOT/AOT_stimuli/rescaled_final/0779_fw.mp4	0.0	282.08757972717285	2.500413656234741
58	259.28747510910034	pulse	1	t		56.0	2.5	/experiments/Knapen_AOT/AOT_stimuli/rescaled_final/0779_fw.mp4	0.0	283.6700837612152	
58	260.2053847312927	fix_post	2		12	56.0	2.5	/experiments/Knapen_AOT/AOT_stimuli/rescaled_final/0779_fw.mp4	0.0	284.5879933834076	0.10007095336914062
59	260.30545568466187	fix_pre	0		120	57.0	2.5	/experiments/Knapen_AOT/AOT_stimuli/rescaled_final/0452_rv.mp4	0.0	284.68806433677673	1.0084476470947266
59	260.8890378475189	pulse	0	t		57.0	2.5	/experiments/Knapen_AOT/AOT_stimuli/rescaled_final/0452_rv.mp4	0.0	285.2716464996338	
59	261.3139033317566	movie	1		274	57.0	2.5	/experiments/Knapen_AOT/AOT_stimuli/rescaled_final/0452_rv.mp4	0.0	285.69651198387146	2.492047071456909
59	262.48752212524414	pulse	1	t		57.0	2.5	/experiments/Knapen_AOT/AOT_stimuli/rescaled_final/0452_rv.mp4	0.0	286.870130777359	
59	263.8059504032135	fix_post	2		12	57.0	2.5	/experiments/Knapen_AOT/AOT_stimuli/rescaled_final/0452_rv.mp4	0.0	288.18855905532837	0.10012364387512207
60	263.9060740470886	fix_pre	0		120	58.0	2.5	/experiments/Knapen_AOT/AOT_stimuli/rescaled_final/1532_fw.mp4	0.0	288.2886826992035	1.0083644390106201
60	264.0895035266876	pulse	0	t		58.0	2.5	/experiments/Knapen_AOT/AOT_stimuli/rescaled_final/1532_fw.mp4	0.0	288.4721121788025	
60	264.91443848609924	movie	1		257	58.0	2.5	/experiments/Knapen_AOT/AOT_stimuli/rescaled_final/1532_fw.mp4	0.0	289.2970471382141	2.4920201301574707
60	265.68829369544983	pulse	1	t		58.0	2.5	/experiments/Knapen_AOT/AOT_stimuli/rescaled_final/1532_fw.mp4	0.0	290.0709023475647	
60	267.28827595710754	pulse	1	t		58.0	2.5	/experiments/Knapen_AOT/AOT_stimuli/rescaled_final/1532_fw.mp4	0.0	291.6708846092224	
60	267.4064586162567	fix_post	2		12	58.0	2.5	/experiments/Knapen_AOT/AOT_stimuli/rescaled_final/1532_fw.mp4	0.0	291.7890672683716	0.10002279281616211
61	267.5064814090729	fix_pre	0		120	59.0	2.5	/experiments/Knapen_AOT/AOT_stimuli/rescaled_final/0983_fw.mp4	0.0	291.88909006118774	1.0084779262542725
61	268.51495933532715	movie	1		275	59.0	2.5	/experiments/Knapen_AOT/AOT_stimuli/rescaled_final/0983_fw.mp4	0.0	292.897567987442	2.4920356273651123
61	268.89060831069946	pulse	1	t		59.0	2.5	/experiments/Knapen_AOT/AOT_stimuli/rescaled_final/0983_fw.mp4	0.0	293.27321696281433	
61	270.49052810668945	pulse	1	t		59.0	2.5	/experiments/Knapen_AOT/AOT_stimuli/rescaled_final/0983_fw.mp4	0.0	294.8731367588043	
61	271.00699496269226	fix_post	2		12	59.0	2.5	/experiments/Knapen_AOT/AOT_stimuli/rescaled_final/0983_fw.mp4	0.0	295.38960361480713	0.10002422332763672
62	271.1070191860199	fix_pre	0		118	60.0	2.5	/experiments/Knapen_AOT/AOT_stimuli/rescaled_final/0245_fw.mp4	0.0	295.48962783813477	0.9918398857116699
62	272.0827462673187	pulse	0	t		60.0	2.5	/experiments/Knapen_AOT/AOT_stimuli/rescaled_final/0245_fw.mp4	0.0	296.4653549194336	
62	272.09885907173157	movie	1		279	60.0	2.5	/experiments/Knapen_AOT/AOT_stimuli/rescaled_final/0245_fw.mp4	0.0	296.48146772384644	2.5003812313079834
62	273.6827938556671	pulse	1	t		60.0	2.5	/experiments/Knapen_AOT/AOT_stimuli/rescaled_final/0245_fw.mp4	0.0	298.065402507782	
62	274.59924030303955	fix_post	2		12	60.0	2.5	/experiments/Knapen_AOT/AOT_stimuli/rescaled_final/0245_fw.mp4	0.0	298.9818489551544	0.09997367858886719
63	274.6992139816284	fix_pre	0		120	61.0	2.5	/experiments/Knapen_AOT/AOT_stimuli/rescaled_final/0204_rv.mp4	0.0	299.0818226337433	1.0084989070892334
63	275.2829866409302	pulse	0	t		61.0	2.5	/experiments/Knapen_AOT/AOT_stimuli/rescaled_final/0204_rv.mp4	0.0	299.66559529304504	
63	275.70771288871765	movie	1		277	61.0	2.5	/experiments/Knapen_AOT/AOT_stimuli/rescaled_final/0204_rv.mp4	0.0	300.0903215408325	2.4920413494110107
63	276.88311219215393	pulse	1	t		61.0	2.5	/experiments/Knapen_AOT/AOT_stimuli/rescaled_final/0204_rv.mp4	0.0	301.2657208442688	
63	278.19975423812866	fix_post	2		12	61.0	2.5	/experiments/Knapen_AOT/AOT_stimuli/rescaled_final/0204_rv.mp4	0.0	302.58236289024353	0.09999752044677734
64	278.29975175857544	fix_pre	0		120	62.0	2.5	/experiments/Knapen_AOT/AOT_stimuli/rescaled_final/1374_fw.mp4	0.0	302.6823604106903	1.0085117816925049
64	278.48335242271423	pulse	0	t		62.0	2.5	/experiments/Knapen_AOT/AOT_stimuli/rescaled_final/1374_fw.mp4	0.0	302.8659610748291	
64	279.30826354026794	movie	1		262	62.0	2.5	/experiments/Knapen_AOT/AOT_stimuli/rescaled_final/1374_fw.mp4	0.0	303.6908721923828	2.500377655029297
64	280.08408522605896	pulse	1	t		62.0	2.5	/experiments/Knapen_AOT/AOT_stimuli/rescaled_final/1374_fw.mp4	0.0	304.4666938781738	
64	281.6841371059418	pulse	1	t		62.0	2.5	/experiments/Knapen_AOT/AOT_stimuli/rescaled_final/1374_fw.mp4	0.0	306.06674575805664	
64	281.80864119529724	fix_post	2		11	62.0	2.5	/experiments/Knapen_AOT/AOT_stimuli/rescaled_final/1374_fw.mp4	0.0	306.1912498474121	0.09162521362304688
65	281.9002664089203	fix_pre	0		120	63.0	2.5	blank	1.0	306.28287506103516	1.0001540184020996
65	282.9004204273224	movie	1		300	63.0	2.5	blank	1.0	307.28302907943726	2.500389337539673
65	283.2841126918793	pulse	1	t		63.0	2.5	blank	1.0	307.66672134399414	
65	284.88431096076965	pulse	1	t		63.0	2.5	blank	1.0	309.2669196128845	
65	285.40080976486206	fix_post	2		12	63.0	2.5	blank	1.0	309.78341841697693	0.10003066062927246
66	285.50084042549133	fix_pre	0		119	64.0	2.5	/experiments/Knapen_AOT/AOT_stimuli/rescaled_final/0747_fw.mp4	0.0	309.8834490776062	1.000173807144165
66	286.4846487045288	pulse	0	t		64.0	2.5	/experiments/Knapen_AOT/AOT_stimuli/rescaled_final/0747_fw.mp4	0.0	310.8672573566437	
66	286.5010142326355	movie	1		284	64.0	2.5	/experiments/Knapen_AOT/AOT_stimuli/rescaled_final/0747_fw.mp4	0.0	310.88362288475037	2.5003652572631836
66	288.0834357738495	pulse	1	t		64.0	2.5	/experiments/Knapen_AOT/AOT_stimuli/rescaled_final/0747_fw.mp4	0.0	312.46604442596436	
66	289.0013794898987	fix_post	2		12	64.0	2.5	/experiments/Knapen_AOT/AOT_stimuli/rescaled_final/0747_fw.mp4	0.0	313.38398814201355	0.1000051498413086
67	289.10138463974	fix_pre	0		120	65.0	2.5	/experiments/Knapen_AOT/AOT_stimuli/rescaled_final/0035_fw.mp4	0.0	313.48399329185486	1.0084717273712158
67	289.68502044677734	pulse	0	t		65.0	2.5	/experiments/Knapen_AOT/AOT_stimuli/rescaled_final/0035_fw.mp4	0.0	314.0676290988922	
67	290.1098563671112	movie	1		276	65.0	2.5	/experiments/Knapen_AOT/AOT_stimuli/rescaled_final/0035_fw.mp4	0.0	314.4924650192261	2.4920411109924316
67	291.2834780216217	pulse	1	t		65.0	2.5	/experiments/Knapen_AOT/AOT_stimuli/rescaled_final/0035_fw.mp4	0.0	315.6660866737366	
67	292.60189747810364	fix_post	2		12	65.0	2.5	/experiments/Knapen_AOT/AOT_stimuli/rescaled_final/0035_fw.mp4	0.0	316.9845061302185	0.10003042221069336
68	292.70192790031433	fix_pre	0		120	66.0	2.5	/experiments/Knapen_AOT/AOT_stimuli/rescaled_final/1112_rv.mp4	0.0	317.0845365524292	1.0084993839263916
68	292.88544940948486	pulse	0	t		66.0	2.5	/experiments/Knapen_AOT/AOT_stimuli/rescaled_final/1112_rv.mp4	0.0	317.26805806159973	
68	293.7104272842407	movie	1		263	66.0	2.5	/experiments/Knapen_AOT/AOT_stimuli/rescaled_final/1112_rv.mp4	0.0	318.0930359363556	2.4920129776000977
68	294.4858808517456	pulse	1	t		66.0	2.5	/experiments/Knapen_AOT/AOT_stimuli/rescaled_final/1112_rv.mp4	0.0	318.8684895038605	
68	296.0849151611328	pulse	1	t		66.0	2.5	/experiments/Knapen_AOT/AOT_stimuli/rescaled_final/1112_rv.mp4	0.0	320.4675238132477	
68	296.2024402618408	fix_post	2		12	66.0	2.5	/experiments/Knapen_AOT/AOT_stimuli/rescaled_final/1112_rv.mp4	0.0	320.5850489139557	0.10016107559204102
69	296.30260133743286	fix_pre	0		120	67.0	2.5	/experiments/Knapen_AOT/AOT_stimuli/rescaled_final/0043_fw.mp4	0.0	320.68520998954773	1.008364200592041
69	297.3109655380249	movie	1		273	67.0	2.5	/experiments/Knapen_AOT/AOT_stimuli/rescaled_final/0043_fw.mp4	0.0	321.69357419013977	2.4920477867126465
69	297.68454790115356	pulse	1	t		67.0	2.5	/experiments/Knapen_AOT/AOT_stimuli/rescaled_final/0043_fw.mp4	0.0	322.06715655326843	
69	299.28450417518616	pulse	1	t		67.0	2.5	/experiments/Knapen_AOT/AOT_stimuli/rescaled_final/0043_fw.mp4	0.0	323.667112827301	
69	299.80301332473755	fix_post	2		12	67.0	2.5	/experiments/Knapen_AOT/AOT_stimuli/rescaled_final/0043_fw.mp4	0.0	324.1856219768524	0.10002517700195312
70	299.9030385017395	fix_pre	0		119	68.0	2.5	/experiments/Knapen_AOT/AOT_stimuli/rescaled_final/1266_fw.mp4	0.0	324.28564715385437	1.0003468990325928
70	300.8868176937103	pulse	0	t		68.0	2.5	/experiments/Knapen_AOT/AOT_stimuli/rescaled_final/1266_fw.mp4	0.0	325.2694263458252	
70	300.9033854007721	movie	1		280	68.0	2.5	/experiments/Knapen_AOT/AOT_stimuli/rescaled_final/1266_fw.mp4	0.0	325.28599405288696	2.5002310276031494
70	302.485515832901	pulse	1	t		68.0	2.5	/experiments/Knapen_AOT/AOT_stimuli/rescaled_final/1266_fw.mp4	0.0	326.86812448501587	
70	303.40361642837524	fix_post	2		12	68.0	2.5	/experiments/Knapen_AOT/AOT_stimuli/rescaled_final/1266_fw.mp4	0.0	327.7862250804901	0.0999445915222168
71	303.50356101989746	fix_pre	0		120	69.0	2.5	/experiments/Knapen_AOT/AOT_stimuli/rescaled_final/1840_fw.mp4	0.0	327.88616967201233	1.0085058212280273
71	304.0872130393982	pulse	0	t		69.0	2.5	/experiments/Knapen_AOT/AOT_stimuli/rescaled_final/1840_fw.mp4	0.0	328.46982169151306	
71	304.5120668411255	movie	1		269	69.0	2.5	/experiments/Knapen_AOT/AOT_stimuli/rescaled_final/1840_fw.mp4	0.0	328.89467549324036	2.4920084476470947
71	305.6856060028076	pulse	1	t		69.0	2.5	/experiments/Knapen_AOT/AOT_stimuli/rescaled_final/1840_fw.mp4	0.0	330.0682146549225	
71	307.0040752887726	fix_post	2		12	69.0	2.5	/experiments/Knapen_AOT/AOT_stimuli/rescaled_final/1840_fw.mp4	0.0	331.38668394088745	0.10001802444458008
72	307.10409331321716	fix_pre	0		120	70.0	2.5	blank	1.0	331.48670196533203	1.000180959701538
72	307.28792667388916	pulse	0	t		70.0	2.5	blank	1.0	331.670535326004	
72	308.1042742729187	movie	1		300	70.0	2.5	blank	1.0	332.48688292503357	2.500308036804199
72	308.88860869407654	pulse	1	t		70.0	2.5	blank	1.0	333.2712173461914	
72	310.48848605155945	pulse	1	t		70.0	2.5	blank	1.0	334.8710947036743	
72	310.6045823097229	fix_post	2		12	70.0	2.5	blank	1.0	334.98719096183777	0.10014557838439941
73	310.7047278881073	fix_pre	0		120	71.0	2.5	/experiments/Knapen_AOT/AOT_stimuli/rescaled_final/1120_rv.mp4	0.0	335.08733654022217	1.0084459781646729
73	311.713173866272	movie	1		271	71.0	2.5	/experiments/Knapen_AOT/AOT_stimuli/rescaled_final/1120_rv.mp4	0.0	336.09578251838684	2.4919700622558594
73	312.0868103504181	pulse	1	t		71.0	2.5	/experiments/Knapen_AOT/AOT_stimuli/rescaled_final/1120_rv.mp4	0.0	336.46941900253296	
73	313.68762969970703	pulse	1	t		71.0	2.5	/experiments/Knapen_AOT/AOT_stimuli/rescaled_final/1120_rv.mp4	0.0	338.0702383518219	
73	314.20514392852783	fix_post	2		12	71.0	2.5	/experiments/Knapen_AOT/AOT_stimuli/rescaled_final/1120_rv.mp4	0.0	338.5877525806427	0.10002827644348145
74	314.3051722049713	fix_pre	0		119	72.0	2.5	/experiments/Knapen_AOT/AOT_stimuli/rescaled_final/1666_rv.mp4	0.0	338.6877808570862	1.0002083778381348
74	315.2888250350952	pulse	0	t		72.0	2.5	/experiments/Knapen_AOT/AOT_stimuli/rescaled_final/1666_rv.mp4	0.0	339.6714336872101	
74	315.30538058280945	movie	1		278	72.0	2.5	/experiments/Knapen_AOT/AOT_stimuli/rescaled_final/1666_rv.mp4	0.0	339.6879892349243	2.5003693103790283
74	316.8879361152649	pulse	1	t		72.0	2.5	/experiments/Knapen_AOT/AOT_stimuli/rescaled_final/1666_rv.mp4	0.0	341.27054476737976	
74	317.8057498931885	fix_post	2		12	72.0	2.5	/experiments/Knapen_AOT/AOT_stimuli/rescaled_final/1666_rv.mp4	0.0	342.18835854530334	0.10003304481506348
75	317.90578293800354	fix_pre	0		120	73.0	2.5	/experiments/Knapen_AOT/AOT_stimuli/rescaled_final/0094_rv.mp4	0.0	342.2883915901184	1.0084328651428223
75	318.4893865585327	pulse	0	t		73.0	2.5	/experiments/Knapen_AOT/AOT_stimuli/rescaled_final/0094_rv.mp4	0.0	342.8719952106476	
75	318.91421580314636	movie	1		281	73.0	2.5	/experiments/Knapen_AOT/AOT_stimuli/rescaled_final/0094_rv.mp4	0.0	343.29682445526123	2.4920310974121094
75	320.08776116371155	pulse	1	t		73.0	2.5	/experiments/Knapen_AOT/AOT_stimuli/rescaled_final/0094_rv.mp4	0.0	344.4703698158264	
75	321.4062469005585	fix_post	2		12	73.0	2.5	/experiments/Knapen_AOT/AOT_stimuli/rescaled_final/0094_rv.mp4	0.0	345.78885555267334	0.1000216007232666
76	321.50626850128174	fix_pre	0		120	74.0	2.5	/experiments/Knapen_AOT/AOT_stimuli/rescaled_final/1950_rv.mp4	0.0	345.8888771533966	1.0085139274597168
76	321.68989729881287	pulse	0	t		74.0	2.5	/experiments/Knapen_AOT/AOT_stimuli/rescaled_final/1950_rv.mp4	0.0	346.07250595092773	
76	322.51478242874146	movie	1		279	74.0	2.5	/experiments/Knapen_AOT/AOT_stimuli/rescaled_final/1950_rv.mp4	0.0	346.8973910808563	2.4920225143432617
76	323.28787636756897	pulse	1	t		74.0	2.5	/experiments/Knapen_AOT/AOT_stimuli/rescaled_final/1950_rv.mp4	0.0	347.67048501968384	
76	324.88888788223267	pulse	1	t		74.0	2.5	/experiments/Knapen_AOT/AOT_stimuli/rescaled_final/1950_rv.mp4	0.0	349.27149653434753	
76	325.0068049430847	fix_post	2		12	74.0	2.5	/experiments/Knapen_AOT/AOT_stimuli/rescaled_final/1950_rv.mp4	0.0	349.3894135951996	0.1000359058380127
77	325.10684084892273	fix_pre	0		120	75.0	2.5	/experiments/Knapen_AOT/AOT_stimuli/rescaled_final/1350_fw.mp4	0.0	349.4894495010376	1.0085227489471436
77	326.1153635978699	movie	1		259	75.0	2.5	/experiments/Knapen_AOT/AOT_stimuli/rescaled_final/1350_fw.mp4	0.0	350.49797224998474	2.4921507835388184
77	326.4893434047699	pulse	1	t		75.0	2.5	/experiments/Knapen_AOT/AOT_stimuli/rescaled_final/1350_fw.mp4	0.0	350.87195205688477	
77	328.090247631073	pulse	1	t		75.0	2.5	/experiments/Knapen_AOT/AOT_stimuli/rescaled_final/1350_fw.mp4	0.0	352.47285628318787	
77	328.6075143814087	fix_post	2		12	75.0	2.5	/experiments/Knapen_AOT/AOT_stimuli/rescaled_final/1350_fw.mp4	0.0	352.99012303352356	0.09983658790588379
78	328.7073509693146	fix_pre	0		119	76.0	2.5	blank	1.0	353.08995962142944	0.991769552230835
78	329.69138503074646	pulse	0	t		76.0	2.5	blank	1.0	354.0739936828613	
78	329.6991205215454	movie	1		301	76.0	2.5	blank	1.0	354.0817291736603	2.5087337493896484
78	331.28324270248413	pulse	1	t		76.0	2.5	blank	1.0	355.665851354599	
78	332.20785427093506	fix_post	2		12	76.0	2.5	blank	1.0	356.5904629230499	0.10003328323364258
79	332.3078875541687	fix_pre	0		120	77.0	2.5	/experiments/Knapen_AOT/AOT_stimuli/rescaled_final/1391_rv.mp4	0.0	356.69049620628357	1.0085244178771973
79	332.88318157196045	pulse	0	t		77.0	2.5	/experiments/Knapen_AOT/AOT_stimuli/rescaled_final/1391_rv.mp4	0.0	357.2657902240753	
79	333.3164119720459	movie	1		276	77.0	2.5	/experiments/Knapen_AOT/AOT_stimuli/rescaled_final/1391_rv.mp4	0.0	357.69902062416077	2.500368356704712
79	334.4834043979645	pulse	1	t		77.0	2.5	/experiments/Knapen_AOT/AOT_stimuli/rescaled_final/1391_rv.mp4	0.0	358.86601305007935	
79	335.8167803287506	fix_post	2		11	77.0	2.5	/experiments/Knapen_AOT/AOT_stimuli/rescaled_final/1391_rv.mp4	0.0	360.1993889808655	0.09160137176513672
80	335.90838170051575	fix_pre	0		120	78.0	2.5	/experiments/Knapen_AOT/AOT_stimuli/rescaled_final/1877_rv.mp4	0.0	360.2909903526306	1.0085217952728271
80	336.0837879180908	pulse	0	t		78.0	2.5	/experiments/Knapen_AOT/AOT_stimuli/rescaled_final/1877_rv.mp4	0.0	360.4663965702057	
80	336.9169034957886	movie	1		265	78.0	2.5	/experiments/Knapen_AOT/AOT_stimuli/rescaled_final/1877_rv.mp4	0.0	361.29951214790344	2.492075204849243
80	337.68389892578125	pulse	1	t		78.0	2.5	/experiments/Knapen_AOT/AOT_stimuli/rescaled_final/1877_rv.mp4	0.0	362.0665075778961	
80	339.28435015678406	pulse	1	t		78.0	2.5	/experiments/Knapen_AOT/AOT_stimuli/rescaled_final/1877_rv.mp4	0.0	363.6669588088989	
80	339.4089787006378	fix_post	2		12	78.0	2.5	/experiments/Knapen_AOT/AOT_stimuli/rescaled_final/1877_rv.mp4	0.0	363.7915873527527	0.10004615783691406
81	339.50902485847473	fix_pre	0		120	79.0	2.5	/experiments/Knapen_AOT/AOT_stimuli/rescaled_final/1356_fw.mp4	0.0	363.8916335105896	1.0084311962127686
81	340.5174560546875	movie	1		276	79.0	2.5	/experiments/Knapen_AOT/AOT_stimuli/rescaled_final/1356_fw.mp4	0.0	364.90006470680237	2.4919939041137695
81	340.88357949256897	pulse	1	t		79.0	2.5	/experiments/Knapen_AOT/AOT_stimuli/rescaled_final/1356_fw.mp4	0.0	365.26618814468384	
81	342.4845817089081	pulse	1	t		79.0	2.5	/experiments/Knapen_AOT/AOT_stimuli/rescaled_final/1356_fw.mp4	0.0	366.86719036102295	
81	343.00944995880127	fix_post	2		12	79.0	2.5	/experiments/Knapen_AOT/AOT_stimuli/rescaled_final/1356_fw.mp4	0.0	367.39205861091614	0.1000974178314209
82	343.1095473766327	fix_pre	0		118	80.0	2.5	/experiments/Knapen_AOT/AOT_stimuli/rescaled_final/1411_rv.mp4	0.0	367.49215602874756	1.00018310546875
82	344.0851147174835	pulse	0	t		80.0	2.5	/experiments/Knapen_AOT/AOT_stimuli/rescaled_final/1411_rv.mp4	0.0	368.4677233695984	
82	344.10973048210144	movie	1		262	80.0	2.5	/experiments/Knapen_AOT/AOT_stimuli/rescaled_final/1411_rv.mp4	0.0	368.4923391342163	2.491969108581543
82	345.683979511261	pulse	1	t		80.0	2.5	/experiments/Knapen_AOT/AOT_stimuli/rescaled_final/1411_rv.mp4	0.0	370.06658816337585	
82	346.601699590683	fix_post	2		12	80.0	2.5	/experiments/Knapen_AOT/AOT_stimuli/rescaled_final/1411_rv.mp4	0.0	370.98430824279785	0.1001889705657959
83	346.7018885612488	fix_pre	0		120	81.0	2.5	/experiments/Knapen_AOT/AOT_stimuli/rescaled_final/0439_rv.mp4	0.0	371.08449721336365	1.0083341598510742
83	347.2854194641113	pulse	0	t		81.0	2.5	/experiments/Knapen_AOT/AOT_stimuli/rescaled_final/0439_rv.mp4	0.0	371.6680281162262	
83	347.71022272109985	movie	1		248	81.0	2.5	/experiments/Knapen_AOT/AOT_stimuli/rescaled_final/0439_rv.mp4	0.0	372.0928313732147	2.4919614791870117
83	348.8838438987732	pulse	1	t		81.0	2.5	/experiments/Knapen_AOT/AOT_stimuli/rescaled_final/0439_rv.mp4	0.0	373.26645255088806	
83	350.20218420028687	fix_post	2		12	81.0	2.5	/experiments/Knapen_AOT/AOT_stimuli/rescaled_final/0439_rv.mp4	0.0	374.58479285240173	0.10007047653198242
84	350.30225467681885	fix_pre	0		120	82.0	2.5	/experiments/Knapen_AOT/AOT_stimuli/rescaled_final/1975_fw.mp4	0.0	374.6848633289337	1.008488416671753
84	350.4858958721161	pulse	0	t		82.0	2.5	/experiments/Knapen_AOT/AOT_stimuli/rescaled_final/1975_fw.mp4	0.0	374.86850452423096	
84	351.3107430934906	movie	1		269	82.0	2.5	/experiments/Knapen_AOT/AOT_stimuli/rescaled_final/1975_fw.mp4	0.0	375.69335174560547	2.4920055866241455
84	352.08416771888733	pulse	1	t		82.0	2.5	/experiments/Knapen_AOT/AOT_stimuli/rescaled_final/1975_fw.mp4	0.0	376.4667763710022	
84	353.6865074634552	pulse	1	t		82.0	2.5	/experiments/Knapen_AOT/AOT_stimuli/rescaled_final/1975_fw.mp4	0.0	378.06911611557007	
84	353.80274868011475	fix_post	2		12	82.0	2.5	/experiments/Knapen_AOT/AOT_stimuli/rescaled_final/1975_fw.mp4	0.0	378.1853573322296	0.10002446174621582
85	353.90277314186096	fix_pre	0		120	83.0	2.5	blank	1.0	378.28538179397583	1.000164270401001
85	354.90293741226196	movie	1		300	83.0	2.5	blank	1.0	379.28554606437683	2.5003788471221924
85	355.28655195236206	pulse	1	t		83.0	2.5	blank	1.0	379.66916060447693	
85	356.88686656951904	pulse	1	t		83.0	2.5	blank	1.0	381.2694752216339	
85	357.40331625938416	fix_post	2		11	83.0	2.5	blank	1.0	381.785924911499	0.10001254081726074
87	357.5033288002014	stim	0		1716					381.8859374523163	14.302136182785034
87	358.48699951171875	pulse	0	t						382.8696081638336	
87	360.08721709251404	pulse	0	t						384.4698257446289	
87	361.6875596046448	pulse	0	t						386.07016825675964	
87	363.28781056404114	pulse	0	t						387.670419216156	
87	364.8879475593567	pulse	0	t						389.27055621147156	
87	366.48820304870605	pulse	0	t						390.8708117008209	
87	368.08877658843994	pulse	0	t						392.4713852405548	
87	369.68880558013916	pulse	0	t						394.071414232254	
87	371.2889437675476	pulse	0	t						395.6715524196625	
