trial_nr	onset	event_type	phase	response	nr_frames	movie_index	movie_duration	movie_file	blank	onset_abs	duration
0	0.19162249565124512	stim	0		1					18.536535501480103	0.03332114219665527
0	0.21514248847961426	response	0	space						18.56005549430847	
1	0.2249436378479004	stim	0		4711					18.569856643676758	39.27597165107727
1	39.491456270217896	pulse	0	t						57.83636927604675	
1	39.50091528892517	stim	1		1716					57.84582829475403	14.306988000869751
1	41.081138372421265	pulse	1	t						59.42605137825012	
1	42.68978714942932	pulse	1	t						61.03470015525818	
1	44.28171920776367	pulse	1	t						62.62663221359253	
1	45.88211631774902	pulse	1	t						64.22702932357788	
1	47.48222589492798	pulse	1	t						65.82713890075684	
1	49.08254051208496	pulse	1	t						67.42745351791382	
1	50.68262076377869	pulse	1	t						69.02753376960754	
1	52.282963037490845	pulse	1	t						70.6278760433197	
2	53.80790328979492	fix_pre	0		5	0.0	2.5	/experiments/knapen_AOT/AOT_stimuli/rescaled_final/1253_fw.mp4	0.0	72.15281629562378	0.1418168544769287
2	53.883089780807495	pulse	0	t		0.0	2.5	/experiments/knapen_AOT/AOT_stimuli/rescaled_final/1253_fw.mp4	0.0	72.22800278663635	
2	53.94972014427185	movie	1		293	0.0	2.5	/experiments/knapen_AOT/AOT_stimuli/rescaled_final/1253_fw.mp4	0.0	72.29463315010071	2.4585695266723633
2	55.47923994064331	pulse	1	t		0.0	2.5	/experiments/knapen_AOT/AOT_stimuli/rescaled_final/1253_fw.mp4	0.0	73.82415294647217	
2	56.408289670944214	fix_post	2		12	0.0	2.5	/experiments/knapen_AOT/AOT_stimuli/rescaled_final/1253_fw.mp4	0.0	74.75320267677307	0.10009384155273438
3	56.50838351249695	fix_pre	0		120	1.0	2.5	/experiments/knapen_AOT/AOT_stimuli/rescaled_final/1637_rv.mp4	0.0	74.8532965183258	1.000312089920044
3	57.08360815048218	pulse	0	t		1.0	2.5	/experiments/knapen_AOT/AOT_stimuli/rescaled_final/1637_rv.mp4	0.0	75.42852115631104	
3	57.50869560241699	movie	1		299	1.0	2.5	/experiments/knapen_AOT/AOT_stimuli/rescaled_final/1637_rv.mp4	0.0	75.85360860824585	2.5001285076141357
3	58.67957782745361	pulse	1	t		1.0	2.5	/experiments/knapen_AOT/AOT_stimuli/rescaled_final/1637_rv.mp4	0.0	77.02449083328247	
3	60.00882411003113	fix_post	2		12	1.0	2.5	/experiments/knapen_AOT/AOT_stimuli/rescaled_final/1637_rv.mp4	0.0	78.35373711585999	0.1001276969909668
4	60.108951807022095	fix_pre	0		120	2.0	2.5	/experiments/knapen_AOT/AOT_stimuli/rescaled_final/1389_fw.mp4	0.0	78.45386481285095	1.0084073543548584
4	60.284141063690186	pulse	0	t		2.0	2.5	/experiments/knapen_AOT/AOT_stimuli/rescaled_final/1389_fw.mp4	0.0	78.62905406951904	
4	61.11735916137695	movie	1		296	2.0	2.5	/experiments/knapen_AOT/AOT_stimuli/rescaled_final/1389_fw.mp4	0.0	79.46227216720581	2.492060661315918
4	61.88078808784485	pulse	1	t		2.0	2.5	/experiments/knapen_AOT/AOT_stimuli/rescaled_final/1389_fw.mp4	0.0	80.2257010936737	
4	63.48024392127991	pulse	1	t		2.0	2.5	/experiments/knapen_AOT/AOT_stimuli/rescaled_final/1389_fw.mp4	0.0	81.82515692710876	
4	63.60941982269287	fix_post	2		12	2.0	2.5	/experiments/knapen_AOT/AOT_stimuli/rescaled_final/1389_fw.mp4	0.0	81.95433282852173	0.10003137588500977
5	63.70945119857788	fix_pre	0		120	3.0	2.5	/experiments/knapen_AOT/AOT_stimuli/rescaled_final/1409_fw.mp4	0.0	82.05436420440674	1.0000689029693604
5	64.70952010154724	movie	1		299	3.0	2.5	/experiments/knapen_AOT/AOT_stimuli/rescaled_final/1409_fw.mp4	0.0	83.0544331073761	2.500521659851074
5	65.08102107048035	pulse	1	t		3.0	2.5	/experiments/knapen_AOT/AOT_stimuli/rescaled_final/1409_fw.mp4	0.0	83.4259340763092	
5	66.68148231506348	pulse	1	t		3.0	2.5	/experiments/knapen_AOT/AOT_stimuli/rescaled_final/1409_fw.mp4	0.0	85.02639532089233	
5	67.21004176139832	fix_post	2		12	3.0	2.5	/experiments/knapen_AOT/AOT_stimuli/rescaled_final/1409_fw.mp4	0.0	85.55495476722717	0.09998154640197754
6	67.3100233078003	fix_pre	0		118	4.0	2.5	/experiments/knapen_AOT/AOT_stimuli/rescaled_final/0986_fw.mp4	0.0	85.65493631362915	0.99176025390625
6	68.28527545928955	pulse	0	t		4.0	2.5	/experiments/knapen_AOT/AOT_stimuli/rescaled_final/0986_fw.mp4	0.0	86.63018846511841	
6	68.30178356170654	movie	1		299	4.0	2.5	/experiments/knapen_AOT/AOT_stimuli/rescaled_final/0986_fw.mp4	0.0	86.6466965675354	2.5003490447998047
6	69.8817663192749	pulse	1	t		4.0	2.5	/experiments/knapen_AOT/AOT_stimuli/rescaled_final/0986_fw.mp4	0.0	88.22667932510376	
6	70.80213260650635	fix_post	2		12	4.0	2.5	/experiments/knapen_AOT/AOT_stimuli/rescaled_final/0986_fw.mp4	0.0	89.1470456123352	0.10000824928283691
7	70.90214085578918	fix_pre	0		120	5.0	2.5	blank	1.0	89.24705386161804	1.0001657009124756
7	71.4857428073883	pulse	0	t		5.0	2.5	blank	1.0	89.83065581321716	
7	71.90230655670166	movie	1		300	5.0	2.5	blank	1.0	90.24721956253052	2.5003397464752197
7	73.08597540855408	pulse	1	t		5.0	2.5	blank	1.0	91.43088841438293	
7	74.40264630317688	fix_post	2		12	5.0	2.5	blank	1.0	92.74755930900574	0.10003304481506348
8	74.50267934799194	fix_pre	0		120	6.0	2.5	/experiments/knapen_AOT/AOT_stimuli/rescaled_final/1955_rv.mp4	0.0	92.8475923538208	1.008598804473877
8	74.68632864952087	pulse	0	t		6.0	2.5	/experiments/knapen_AOT/AOT_stimuli/rescaled_final/1955_rv.mp4	0.0	93.03124165534973	
8	75.51127815246582	movie	1		291	6.0	2.5	/experiments/knapen_AOT/AOT_stimuli/rescaled_final/1955_rv.mp4	0.0	93.85619115829468	2.491948127746582
8	76.28296160697937	pulse	1	t		6.0	2.5	/experiments/knapen_AOT/AOT_stimuli/rescaled_final/1955_rv.mp4	0.0	94.62787461280823	
8	77.88237190246582	pulse	1	t		6.0	2.5	/experiments/knapen_AOT/AOT_stimuli/rescaled_final/1955_rv.mp4	0.0	96.22728490829468	
8	78.0032262802124	fix_post	2		12	6.0	2.5	/experiments/knapen_AOT/AOT_stimuli/rescaled_final/1955_rv.mp4	0.0	96.34813928604126	0.1000065803527832
9	78.10323286056519	fix_pre	0		120	7.0	2.5	/experiments/knapen_AOT/AOT_stimuli/rescaled_final/1424_fw.mp4	0.0	96.44814586639404	1.0084774494171143
9	79.1117103099823	movie	1		296	7.0	2.5	/experiments/knapen_AOT/AOT_stimuli/rescaled_final/1424_fw.mp4	0.0	97.45662331581116	2.4920382499694824
9	79.48270726203918	pulse	1	t		7.0	2.5	/experiments/knapen_AOT/AOT_stimuli/rescaled_final/1424_fw.mp4	0.0	97.82762026786804	
9	81.08266043663025	pulse	1	t		7.0	2.5	/experiments/knapen_AOT/AOT_stimuli/rescaled_final/1424_fw.mp4	0.0	99.4275734424591	
9	81.60374855995178	fix_post	2		12	7.0	2.5	/experiments/knapen_AOT/AOT_stimuli/rescaled_final/1424_fw.mp4	0.0	99.94866156578064	0.10002255439758301
10	81.70377111434937	fix_pre	0		118	8.0	2.5	/experiments/knapen_AOT/AOT_stimuli/rescaled_final/0963_fw.mp4	0.0	100.04868412017822	0.9918084144592285
10	82.67947435379028	pulse	0	t		8.0	2.5	/experiments/knapen_AOT/AOT_stimuli/rescaled_final/0963_fw.mp4	0.0	101.02438735961914	
10	82.6955795288086	movie	1		296	8.0	2.5	/experiments/knapen_AOT/AOT_stimuli/rescaled_final/0963_fw.mp4	0.0	101.04049253463745	2.5003714561462402
10	84.27944731712341	pulse	1	t		8.0	2.5	/experiments/knapen_AOT/AOT_stimuli/rescaled_final/0963_fw.mp4	0.0	102.62436032295227	
10	85.19595098495483	fix_post	2		12	8.0	2.5	/experiments/knapen_AOT/AOT_stimuli/rescaled_final/0963_fw.mp4	0.0	103.54086399078369	0.10001301765441895
11	85.29596400260925	fix_pre	0		120	9.0	2.5	/experiments/knapen_AOT/AOT_stimuli/rescaled_final/0897_rv.mp4	0.0	103.64087700843811	1.0168743133544922
11	85.87960863113403	pulse	0	t		9.0	2.5	/experiments/knapen_AOT/AOT_stimuli/rescaled_final/0897_rv.mp4	0.0	104.22452163696289	
11	86.31283831596375	movie	1		292	9.0	2.5	/experiments/knapen_AOT/AOT_stimuli/rescaled_final/0897_rv.mp4	0.0	104.6577513217926	2.4836366176605225
11	87.47983574867249	pulse	1	t		9.0	2.5	/experiments/knapen_AOT/AOT_stimuli/rescaled_final/0897_rv.mp4	0.0	105.82474875450134	
11	88.79647493362427	fix_post	2		12	9.0	2.5	/experiments/knapen_AOT/AOT_stimuli/rescaled_final/0897_rv.mp4	0.0	107.14138793945312	0.10004186630249023
12	88.89651679992676	fix_pre	0		120	10.0	2.5	/experiments/knapen_AOT/AOT_stimuli/rescaled_final/0727_rv.mp4	0.0	107.24142980575562	1.0086138248443604
12	89.08018040657043	pulse	0	t		10.0	2.5	/experiments/knapen_AOT/AOT_stimuli/rescaled_final/0727_rv.mp4	0.0	107.42509341239929	
12	89.90513062477112	movie	1		290	10.0	2.5	/experiments/knapen_AOT/AOT_stimuli/rescaled_final/0727_rv.mp4	0.0	108.25004363059998	2.4918906688690186
12	90.68038964271545	pulse	1	t		10.0	2.5	/experiments/knapen_AOT/AOT_stimuli/rescaled_final/0727_rv.mp4	0.0	109.02530264854431	
12	92.28049993515015	pulse	1	t		10.0	2.5	/experiments/knapen_AOT/AOT_stimuli/rescaled_final/0727_rv.mp4	0.0	110.625412940979	
12	92.39702129364014	fix_post	2		12	10.0	2.5	/experiments/knapen_AOT/AOT_stimuli/rescaled_final/0727_rv.mp4	0.0	110.741934299469	0.10003304481506348
13	92.4970543384552	fix_pre	0		120	11.0	2.5	/experiments/knapen_AOT/AOT_stimuli/rescaled_final/0335_rv.mp4	0.0	110.84196734428406	1.0169668197631836
13	93.51402115821838	movie	1		285	11.0	2.5	/experiments/knapen_AOT/AOT_stimuli/rescaled_final/0335_rv.mp4	0.0	111.85893416404724	2.4835567474365234
13	93.88097786903381	pulse	1	t		11.0	2.5	/experiments/knapen_AOT/AOT_stimuli/rescaled_final/0335_rv.mp4	0.0	112.22589087486267	
13	95.481125831604	pulse	1	t		11.0	2.5	/experiments/knapen_AOT/AOT_stimuli/rescaled_final/0335_rv.mp4	0.0	113.82603883743286	
13	95.99757790565491	fix_post	2		12	11.0	2.5	/experiments/knapen_AOT/AOT_stimuli/rescaled_final/0335_rv.mp4	0.0	114.34249091148376	0.10002946853637695
14	96.09760737419128	fix_pre	0		119	12.0	2.5	blank	1.0	114.44252038002014	0.9918563365936279
14	97.0814859867096	pulse	0	t		12.0	2.5	blank	1.0	115.42639899253845	
14	97.08946371078491	movie	1		301	12.0	2.5	blank	1.0	115.43437671661377	2.508679151535034
14	98.68156409263611	pulse	1	t		12.0	2.5	blank	1.0	117.02647709846497	
14	99.59814286231995	fix_post	2		12	12.0	2.5	blank	1.0	117.9430558681488	0.10006165504455566
15	99.6982045173645	fix_pre	0		120	13.0	2.5	/experiments/knapen_AOT/AOT_stimuli/rescaled_final/1354_rv.mp4	0.0	118.04311752319336	1.0251672267913818
15	100.28185105323792	pulse	0	t		13.0	2.5	/experiments/knapen_AOT/AOT_stimuli/rescaled_final/1354_rv.mp4	0.0	118.62676405906677	
15	100.72337174415588	movie	1		278	13.0	2.5	/experiments/knapen_AOT/AOT_stimuli/rescaled_final/1354_rv.mp4	0.0	119.06828474998474	2.4759247303009033
15	101.88008379936218	pulse	1	t		13.0	2.5	/experiments/knapen_AOT/AOT_stimuli/rescaled_final/1354_rv.mp4	0.0	120.22499680519104	
15	103.19929647445679	fix_post	2		12	13.0	2.5	/experiments/knapen_AOT/AOT_stimuli/rescaled_final/1354_rv.mp4	0.0	121.54420948028564	0.09943389892578125
16	103.29873037338257	fix_pre	0		120	14.0	2.5	/experiments/knapen_AOT/AOT_stimuli/rescaled_final/2049_fw.mp4	0.0	121.64364337921143	1.025296926498413
16	103.4823567867279	pulse	0	t		14.0	2.5	/experiments/knapen_AOT/AOT_stimuli/rescaled_final/2049_fw.mp4	0.0	121.82726979255676	
16	104.32402729988098	movie	1		259	14.0	2.5	/experiments/knapen_AOT/AOT_stimuli/rescaled_final/2049_fw.mp4	0.0	122.66894030570984	2.4753828048706055
16	105.08076071739197	pulse	1	t		14.0	2.5	/experiments/knapen_AOT/AOT_stimuli/rescaled_final/2049_fw.mp4	0.0	123.42567372322083	
16	106.68293929100037	pulse	1	t		14.0	2.5	/experiments/knapen_AOT/AOT_stimuli/rescaled_final/2049_fw.mp4	0.0	125.02785229682922	
16	106.79941010475159	fix_post	2		12	14.0	2.5	/experiments/knapen_AOT/AOT_stimuli/rescaled_final/2049_fw.mp4	0.0	125.14432311058044	0.10009288787841797
17	106.89950299263	fix_pre	0		120	15.0	2.5	/experiments/knapen_AOT/AOT_stimuli/rescaled_final/1408_fw.mp4	0.0	125.24441599845886	1.0249238014221191
17	107.92442679405212	movie	1		280	15.0	2.5	/experiments/knapen_AOT/AOT_stimuli/rescaled_final/1408_fw.mp4	0.0	126.26933979988098	2.4754433631896973
17	108.28422451019287	pulse	1	t		15.0	2.5	/experiments/knapen_AOT/AOT_stimuli/rescaled_final/1408_fw.mp4	0.0	126.62913751602173	
17	109.88264536857605	pulse	1	t		15.0	2.5	/experiments/knapen_AOT/AOT_stimuli/rescaled_final/1408_fw.mp4	0.0	128.2275583744049	
17	110.39987015724182	fix_post	2		12	15.0	2.5	/experiments/knapen_AOT/AOT_stimuli/rescaled_final/1408_fw.mp4	0.0	128.74478316307068	0.09991955757141113
18	110.49978971481323	fix_pre	0		119	16.0	2.5	/experiments/knapen_AOT/AOT_stimuli/rescaled_final/1821_rv.mp4	0.0	128.8447027206421	1.0085046291351318
18	111.48354721069336	pulse	0	t		16.0	2.5	/experiments/knapen_AOT/AOT_stimuli/rescaled_final/1821_rv.mp4	0.0	129.82846021652222	
18	111.50829434394836	movie	1		264	16.0	2.5	/experiments/knapen_AOT/AOT_stimuli/rescaled_final/1821_rv.mp4	0.0	129.85320734977722	2.4920554161071777
18	113.08213877677917	pulse	1	t		16.0	2.5	/experiments/knapen_AOT/AOT_stimuli/rescaled_final/1821_rv.mp4	0.0	131.42705178260803	
18	114.00034976005554	fix_post	2		12	16.0	2.5	/experiments/knapen_AOT/AOT_stimuli/rescaled_final/1821_rv.mp4	0.0	132.3452627658844	0.10001468658447266
19	114.10036444664001	fix_pre	0		120	17.0	2.5	/experiments/knapen_AOT/AOT_stimuli/rescaled_final/1056_fw.mp4	0.0	132.44527745246887	1.0253398418426514
19	114.68406820297241	pulse	0	t		17.0	2.5	/experiments/knapen_AOT/AOT_stimuli/rescaled_final/1056_fw.mp4	0.0	133.02898120880127	
19	115.12570428848267	movie	1		269	17.0	2.5	/experiments/knapen_AOT/AOT_stimuli/rescaled_final/1056_fw.mp4	0.0	133.47061729431152	2.475428342819214
19	116.28349256515503	pulse	1	t		17.0	2.5	/experiments/knapen_AOT/AOT_stimuli/rescaled_final/1056_fw.mp4	0.0	134.6284055709839	
19	117.60113263130188	fix_post	2		12	17.0	2.5	/experiments/knapen_AOT/AOT_stimuli/rescaled_final/1056_fw.mp4	0.0	135.94604563713074	0.09973597526550293
20	117.70086860656738	fix_pre	0		120	18.0	2.5	/experiments/knapen_AOT/AOT_stimuli/rescaled_final/0498_fw.mp4	0.0	136.04578161239624	1.0252485275268555
20	117.88450002670288	pulse	0	t		18.0	2.5	/experiments/knapen_AOT/AOT_stimuli/rescaled_final/0498_fw.mp4	0.0	136.22941303253174	
20	118.72611713409424	movie	1		270	18.0	2.5	/experiments/knapen_AOT/AOT_stimuli/rescaled_final/0498_fw.mp4	0.0	137.0710301399231	2.475433111190796
20	119.4829614162445	pulse	1	t		18.0	2.5	/experiments/knapen_AOT/AOT_stimuli/rescaled_final/0498_fw.mp4	0.0	137.82787442207336	
20	121.08290410041809	pulse	1	t		18.0	2.5	/experiments/knapen_AOT/AOT_stimuli/rescaled_final/0498_fw.mp4	0.0	139.42781710624695	
20	121.20155024528503	fix_post	2		12	18.0	2.5	/experiments/knapen_AOT/AOT_stimuli/rescaled_final/0498_fw.mp4	0.0	139.5464632511139	0.09987258911132812
21	121.30142283439636	fix_pre	0		120	19.0	2.5	blank	1.0	139.64633584022522	1.000136375427246
21	122.30155920982361	movie	1		300	19.0	2.5	blank	1.0	140.64647221565247	2.5005109310150146
21	122.68517422676086	pulse	1	t		19.0	2.5	blank	1.0	141.03008723258972	
21	124.28559112548828	pulse	1	t		19.0	2.5	blank	1.0	142.63050413131714	
21	124.80207014083862	fix_post	2		12	19.0	2.5	blank	1.0	143.14698314666748	0.10005068778991699
22	124.90212082862854	fix_pre	0		119	20.0	2.5	/experiments/knapen_AOT/AOT_stimuli/rescaled_final/1354_fw.mp4	0.0	143.2470338344574	1.0167357921600342
22	125.88575387001038	pulse	0	t		20.0	2.5	/experiments/knapen_AOT/AOT_stimuli/rescaled_final/1354_fw.mp4	0.0	144.23066687583923	
22	125.91885662078857	movie	1		267	20.0	2.5	/experiments/knapen_AOT/AOT_stimuli/rescaled_final/1354_fw.mp4	0.0	144.26376962661743	2.4838459491729736
22	127.48405051231384	pulse	1	t		20.0	2.5	/experiments/knapen_AOT/AOT_stimuli/rescaled_final/1354_fw.mp4	0.0	145.8289635181427	
22	128.40270256996155	fix_post	2		12	20.0	2.5	/experiments/knapen_AOT/AOT_stimuli/rescaled_final/1354_fw.mp4	0.0	146.7476155757904	0.09988522529602051
23	128.50258779525757	fix_pre	0		120	21.0	2.5	/experiments/knapen_AOT/AOT_stimuli/rescaled_final/1420_fw.mp4	0.0	146.84750080108643	1.016754388809204
23	129.08671712875366	pulse	0	t		21.0	2.5	/experiments/knapen_AOT/AOT_stimuli/rescaled_final/1420_fw.mp4	0.0	147.43163013458252	
23	129.51934218406677	movie	1		258	21.0	2.5	/experiments/knapen_AOT/AOT_stimuli/rescaled_final/1420_fw.mp4	0.0	147.86425518989563	2.483689785003662
23	130.68419885635376	pulse	1	t		21.0	2.5	/experiments/knapen_AOT/AOT_stimuli/rescaled_final/1420_fw.mp4	0.0	149.02911186218262	
23	132.00303196907043	fix_post	2		12	21.0	2.5	/experiments/knapen_AOT/AOT_stimuli/rescaled_final/1420_fw.mp4	0.0	150.3479449748993	0.10020613670349121
24	132.10323810577393	fix_pre	0		120	22.0	2.5	/experiments/knapen_AOT/AOT_stimuli/rescaled_final/0975_fw.mp4	0.0	150.44815111160278	1.0333385467529297
24	132.28656363487244	pulse	0	t		22.0	2.5	/experiments/knapen_AOT/AOT_stimuli/rescaled_final/0975_fw.mp4	0.0	150.6314766407013	
24	133.13657665252686	movie	1		270	22.0	2.5	/experiments/knapen_AOT/AOT_stimuli/rescaled_final/0975_fw.mp4	0.0	151.4814896583557	2.467101812362671
24	133.88467240333557	pulse	1	t		22.0	2.5	/experiments/knapen_AOT/AOT_stimuli/rescaled_final/0975_fw.mp4	0.0	152.22958540916443	
24	135.48511624336243	pulse	1	t		22.0	2.5	/experiments/knapen_AOT/AOT_stimuli/rescaled_final/0975_fw.mp4	0.0	153.83002924919128	
24	135.60367846488953	fix_post	2		12	22.0	2.5	/experiments/knapen_AOT/AOT_stimuli/rescaled_final/0975_fw.mp4	0.0	153.94859147071838	0.09990501403808594
25	135.7035834789276	fix_pre	0		120	23.0	2.5	/experiments/knapen_AOT/AOT_stimuli/rescaled_final/1643_fw.mp4	0.0	154.04849648475647	1.0168495178222656
25	136.72043299674988	movie	1		267	23.0	2.5	/experiments/knapen_AOT/AOT_stimuli/rescaled_final/1643_fw.mp4	0.0	155.06534600257874	2.4840481281280518
25	137.0876076221466	pulse	1	t		23.0	2.5	/experiments/knapen_AOT/AOT_stimuli/rescaled_final/1643_fw.mp4	0.0	155.43252062797546	
25	138.6854100227356	pulse	1	t		23.0	2.5	/experiments/knapen_AOT/AOT_stimuli/rescaled_final/1643_fw.mp4	0.0	157.03032302856445	
25	139.20448112487793	fix_post	2		12	23.0	2.5	/experiments/knapen_AOT/AOT_stimuli/rescaled_final/1643_fw.mp4	0.0	157.5493941307068	0.09970521926879883
26	139.30418634414673	fix_pre	0		119	24.0	2.5	/experiments/knapen_AOT/AOT_stimuli/rescaled_final/0301_fw.mp4	0.0	157.6490993499756	1.016937255859375
26	140.28034353256226	pulse	0	t		24.0	2.5	/experiments/knapen_AOT/AOT_stimuli/rescaled_final/0301_fw.mp4	0.0	158.6252565383911	
26	140.3211236000061	movie	1		262	24.0	2.5	/experiments/knapen_AOT/AOT_stimuli/rescaled_final/0301_fw.mp4	0.0	158.66603660583496	2.483741283416748
26	141.8803527355194	pulse	1	t		24.0	2.5	/experiments/knapen_AOT/AOT_stimuli/rescaled_final/0301_fw.mp4	0.0	160.22526574134827	
26	142.80486488342285	fix_post	2		12	24.0	2.5	/experiments/knapen_AOT/AOT_stimuli/rescaled_final/0301_fw.mp4	0.0	161.1497778892517	0.09999847412109375
27	142.90486335754395	fix_pre	0		120	25.0	2.5	/experiments/knapen_AOT/AOT_stimuli/rescaled_final/2004_rv.mp4	0.0	161.2497763633728	1.0335056781768799
27	143.48002123832703	pulse	0	t		25.0	2.5	/experiments/knapen_AOT/AOT_stimuli/rescaled_final/2004_rv.mp4	0.0	161.82493424415588	
27	143.93836903572083	movie	1		259	25.0	2.5	/experiments/knapen_AOT/AOT_stimuli/rescaled_final/2004_rv.mp4	0.0	162.28328204154968	2.4670426845550537
27	145.0805468559265	pulse	1	t		25.0	2.5	/experiments/knapen_AOT/AOT_stimuli/rescaled_final/2004_rv.mp4	0.0	163.42545986175537	
27	146.40541172027588	fix_post	2		12	25.0	2.5	/experiments/knapen_AOT/AOT_stimuli/rescaled_final/2004_rv.mp4	0.0	164.75032472610474	0.09979891777038574
28	146.50521063804626	fix_pre	0		120	26.0	2.5	/experiments/knapen_AOT/AOT_stimuli/rescaled_final/1387_fw.mp4	0.0	164.85012364387512	1.025172233581543
28	146.68049883842468	pulse	0	t		26.0	2.5	/experiments/knapen_AOT/AOT_stimuli/rescaled_final/1387_fw.mp4	0.0	165.02541184425354	
28	147.5303828716278	movie	1		266	26.0	2.5	/experiments/knapen_AOT/AOT_stimuli/rescaled_final/1387_fw.mp4	0.0	165.87529587745667	2.475421905517578
28	148.28093433380127	pulse	1	t		26.0	2.5	/experiments/knapen_AOT/AOT_stimuli/rescaled_final/1387_fw.mp4	0.0	166.62584733963013	
28	149.88104009628296	pulse	1	t		26.0	2.5	/experiments/knapen_AOT/AOT_stimuli/rescaled_final/1387_fw.mp4	0.0	168.22595310211182	
28	150.00580477714539	fix_post	2		12	26.0	2.5	/experiments/knapen_AOT/AOT_stimuli/rescaled_final/1387_fw.mp4	0.0	168.35071778297424	0.10005354881286621
29	150.10585832595825	fix_pre	0		120	27.0	2.5	/experiments/knapen_AOT/AOT_stimuli/rescaled_final/1415_rv.mp4	0.0	168.4507713317871	1.0251197814941406
29	151.1309781074524	movie	1		247	27.0	2.5	/experiments/knapen_AOT/AOT_stimuli/rescaled_final/1415_rv.mp4	0.0	169.47589111328125	2.475498914718628
29	151.4812548160553	pulse	1	t		27.0	2.5	/experiments/knapen_AOT/AOT_stimuli/rescaled_final/1415_rv.mp4	0.0	169.82616782188416	
29	153.08157539367676	pulse	1	t		27.0	2.5	/experiments/knapen_AOT/AOT_stimuli/rescaled_final/1415_rv.mp4	0.0	171.42648839950562	
29	153.60647702217102	fix_post	2		12	27.0	2.5	/experiments/knapen_AOT/AOT_stimuli/rescaled_final/1415_rv.mp4	0.0	171.95139002799988	0.09981393814086914
30	153.7062909603119	fix_pre	0		118	28.0	2.5	blank	1.0	172.05120396614075	0.9834797382354736
30	154.6817922592163	pulse	0	t		28.0	2.5	blank	1.0	173.02670526504517	
30	154.68977069854736	movie	1		301	28.0	2.5	blank	1.0	173.03468370437622	2.5087027549743652
30	156.28194332122803	pulse	1	t		28.0	2.5	blank	1.0	174.62685632705688	
30	157.19847345352173	fix_post	2		12	28.0	2.5	blank	1.0	175.5433864593506	0.1000669002532959
31	157.29854035377502	fix_pre	0		120	29.0	2.5	/experiments/knapen_AOT/AOT_stimuli/rescaled_final/0210_rv.mp4	0.0	175.64345335960388	1.0167856216430664
31	157.8821997642517	pulse	0	t		29.0	2.5	/experiments/knapen_AOT/AOT_stimuli/rescaled_final/0210_rv.mp4	0.0	176.22711277008057	
31	158.3153259754181	movie	1		257	29.0	2.5	/experiments/knapen_AOT/AOT_stimuli/rescaled_final/0210_rv.mp4	0.0	176.66023898124695	2.483839988708496
31	159.48070287704468	pulse	1	t		29.0	2.5	/experiments/knapen_AOT/AOT_stimuli/rescaled_final/0210_rv.mp4	0.0	177.82561588287354	
31	160.7991659641266	fix_post	2		12	29.0	2.5	/experiments/knapen_AOT/AOT_stimuli/rescaled_final/0210_rv.mp4	0.0	179.14407896995544	0.10001850128173828
32	160.89918446540833	fix_pre	0		120	30.0	2.5	/experiments/knapen_AOT/AOT_stimuli/rescaled_final/1027_fw.mp4	0.0	179.24409747123718	1.0166866779327393
32	161.08265495300293	pulse	0	t		30.0	2.5	/experiments/knapen_AOT/AOT_stimuli/rescaled_final/1027_fw.mp4	0.0	179.4275679588318	
32	161.91587114334106	movie	1		279	30.0	2.5	/experiments/knapen_AOT/AOT_stimuli/rescaled_final/1027_fw.mp4	0.0	180.26078414916992	2.4836888313293457
32	162.68088221549988	pulse	1	t		30.0	2.5	/experiments/knapen_AOT/AOT_stimuli/rescaled_final/1027_fw.mp4	0.0	181.02579522132874	
32	164.2811942100525	pulse	1	t		30.0	2.5	/experiments/knapen_AOT/AOT_stimuli/rescaled_final/1027_fw.mp4	0.0	182.62610721588135	
32	164.3995599746704	fix_post	2		12	30.0	2.5	/experiments/knapen_AOT/AOT_stimuli/rescaled_final/1027_fw.mp4	0.0	182.74447298049927	0.1000208854675293
33	164.49958086013794	fix_pre	0		120	31.0	2.5	/experiments/knapen_AOT/AOT_stimuli/rescaled_final/0486_rv.mp4	0.0	182.8444938659668	1.0169167518615723
33	165.5164976119995	movie	1		257	31.0	2.5	/experiments/knapen_AOT/AOT_stimuli/rescaled_final/0486_rv.mp4	0.0	183.86141061782837	2.4836113452911377
33	165.88387656211853	pulse	1	t		31.0	2.5	/experiments/knapen_AOT/AOT_stimuli/rescaled_final/0486_rv.mp4	0.0	184.2287895679474	
33	167.48155975341797	pulse	1	t		31.0	2.5	/experiments/knapen_AOT/AOT_stimuli/rescaled_final/0486_rv.mp4	0.0	185.82647275924683	
33	168.00010895729065	fix_post	2		12	31.0	2.5	/experiments/knapen_AOT/AOT_stimuli/rescaled_final/0486_rv.mp4	0.0	186.3450219631195	0.1000373363494873
34	168.10014629364014	fix_pre	0		119	32.0	2.5	/experiments/knapen_AOT/AOT_stimuli/rescaled_final/1750_fw.mp4	0.0	186.445059299469	1.016944169998169
34	169.0839204788208	pulse	0	t		32.0	2.5	/experiments/knapen_AOT/AOT_stimuli/rescaled_final/1750_fw.mp4	0.0	187.42883348464966	
34	169.1170904636383	movie	1		260	32.0	2.5	/experiments/knapen_AOT/AOT_stimuli/rescaled_final/1750_fw.mp4	0.0	187.46200346946716	2.4836585521698
34	170.6821813583374	pulse	1	t		32.0	2.5	/experiments/knapen_AOT/AOT_stimuli/rescaled_final/1750_fw.mp4	0.0	189.02709436416626	
34	171.6007490158081	fix_post	2		12	32.0	2.5	/experiments/knapen_AOT/AOT_stimuli/rescaled_final/1750_fw.mp4	0.0	189.94566202163696	0.09999680519104004
35	171.70074582099915	fix_pre	0		120	33.0	2.5	/experiments/knapen_AOT/AOT_stimuli/rescaled_final/0498_fw.mp4	0.0	190.045658826828	1.016751766204834
35	172.28456568717957	pulse	0	t		33.0	2.5	/experiments/knapen_AOT/AOT_stimuli/rescaled_final/0498_fw.mp4	0.0	190.62947869300842	
35	172.71749758720398	movie	1		271	33.0	2.5	/experiments/knapen_AOT/AOT_stimuli/rescaled_final/0498_fw.mp4	0.0	191.06241059303284	2.483895778656006
35	173.88281416893005	pulse	1	t		33.0	2.5	/experiments/knapen_AOT/AOT_stimuli/rescaled_final/0498_fw.mp4	0.0	192.2277271747589	
35	175.20139336585999	fix_post	2		12	33.0	2.5	/experiments/knapen_AOT/AOT_stimuli/rescaled_final/0498_fw.mp4	0.0	193.54630637168884	0.09986710548400879
36	175.301260471344	fix_pre	0		120	34.0	2.5	blank	1.0	193.64617347717285	1.00008225440979
36	175.48469710350037	pulse	0	t		34.0	2.5	blank	1.0	193.82961010932922	
36	176.30134272575378	movie	1		300	34.0	2.5	blank	1.0	194.64625573158264	2.5005788803100586
36	177.08530950546265	pulse	1	t		34.0	2.5	blank	1.0	195.4302225112915	
36	178.68572115898132	pulse	1	t		34.0	2.5	blank	1.0	197.03063416481018	
36	178.80192160606384	fix_post	2		12	34.0	2.5	blank	1.0	197.1468346118927	0.09994029998779297
37	178.90186190605164	fix_pre	0		120	35.0	2.5	/experiments/knapen_AOT/AOT_stimuli/rescaled_final/0174_fw.mp4	0.0	197.2467749118805	1.0168168544769287
37	179.91867876052856	movie	1		262	35.0	2.5	/experiments/knapen_AOT/AOT_stimuli/rescaled_final/0174_fw.mp4	0.0	198.26359176635742	2.4838690757751465
37	180.28549551963806	pulse	1	t		35.0	2.5	/experiments/knapen_AOT/AOT_stimuli/rescaled_final/0174_fw.mp4	0.0	198.63040852546692	
37	181.8835415840149	pulse	1	t		35.0	2.5	/experiments/knapen_AOT/AOT_stimuli/rescaled_final/0174_fw.mp4	0.0	200.22845458984375	
37	182.4025478363037	fix_post	2		12	35.0	2.5	/experiments/knapen_AOT/AOT_stimuli/rescaled_final/0174_fw.mp4	0.0	200.74746084213257	0.09974169731140137
38	182.5022895336151	fix_pre	0		119	36.0	2.5	/experiments/knapen_AOT/AOT_stimuli/rescaled_final/1251_rv.mp4	0.0	200.84720253944397	1.0254111289978027
38	183.4860315322876	pulse	0	t		36.0	2.5	/experiments/knapen_AOT/AOT_stimuli/rescaled_final/1251_rv.mp4	0.0	201.83094453811646	
38	183.52770066261292	movie	1		255	36.0	2.5	/experiments/knapen_AOT/AOT_stimuli/rescaled_final/1251_rv.mp4	0.0	201.87261366844177	2.4752161502838135
38	185.08477997779846	pulse	1	t		36.0	2.5	/experiments/knapen_AOT/AOT_stimuli/rescaled_final/1251_rv.mp4	0.0	203.42969298362732	
38	186.00291681289673	fix_post	2		12	36.0	2.5	/experiments/knapen_AOT/AOT_stimuli/rescaled_final/1251_rv.mp4	0.0	204.3478298187256	0.09993147850036621
39	186.1028482913971	fix_pre	0		120	37.0	2.5	/experiments/knapen_AOT/AOT_stimuli/rescaled_final/0594_fw.mp4	0.0	204.44776129722595	1.0251691341400146
39	186.68654251098633	pulse	0	t		37.0	2.5	/experiments/knapen_AOT/AOT_stimuli/rescaled_final/0594_fw.mp4	0.0	205.03145551681519	
39	187.1280174255371	movie	1		258	37.0	2.5	/experiments/knapen_AOT/AOT_stimuli/rescaled_final/0594_fw.mp4	0.0	205.47293043136597	2.47550368309021
39	188.28530931472778	pulse	1	t		37.0	2.5	/experiments/knapen_AOT/AOT_stimuli/rescaled_final/0594_fw.mp4	0.0	206.63022232055664	
39	189.60352110862732	fix_post	2		12	37.0	2.5	/experiments/knapen_AOT/AOT_stimuli/rescaled_final/0594_fw.mp4	0.0	207.94843411445618	0.09989714622497559
40	189.7034182548523	fix_pre	0		120	38.0	2.5	/experiments/knapen_AOT/AOT_stimuli/rescaled_final/1375_fw.mp4	0.0	208.04833126068115	1.02524733543396
40	189.8869285583496	pulse	0	t		38.0	2.5	/experiments/knapen_AOT/AOT_stimuli/rescaled_final/1375_fw.mp4	0.0	208.23184156417847	
40	190.72866559028625	movie	1		262	38.0	2.5	/experiments/knapen_AOT/AOT_stimuli/rescaled_final/1375_fw.mp4	0.0	209.0735785961151	2.47522234916687
40	191.48514080047607	pulse	1	t		38.0	2.5	/experiments/knapen_AOT/AOT_stimuli/rescaled_final/1375_fw.mp4	0.0	209.83005380630493	
40	193.08765387535095	pulse	1	t		38.0	2.5	/experiments/knapen_AOT/AOT_stimuli/rescaled_final/1375_fw.mp4	0.0	211.4325668811798	
40	193.20388793945312	fix_post	2		12	38.0	2.5	/experiments/knapen_AOT/AOT_stimuli/rescaled_final/1375_fw.mp4	0.0	211.54880094528198	0.10002017021179199
41	193.30390810966492	fix_pre	0		120	39.0	2.5	/experiments/knapen_AOT/AOT_stimuli/rescaled_final/1983_rv.mp4	0.0	211.64882111549377	1.016880750656128
41	194.32078886032104	movie	1		255	39.0	2.5	/experiments/knapen_AOT/AOT_stimuli/rescaled_final/1983_rv.mp4	0.0	212.6657018661499	2.484025716781616
41	194.68059968948364	pulse	1	t		39.0	2.5	/experiments/knapen_AOT/AOT_stimuli/rescaled_final/1983_rv.mp4	0.0	213.0255126953125	
41	196.28647208213806	pulse	1	t		39.0	2.5	/experiments/knapen_AOT/AOT_stimuli/rescaled_final/1983_rv.mp4	0.0	214.63138508796692	
41	196.80481457710266	fix_post	2		12	39.0	2.5	/experiments/knapen_AOT/AOT_stimuli/rescaled_final/1983_rv.mp4	0.0	215.14972758293152	0.09963560104370117
42	196.90445017814636	fix_pre	0		119	40.0	2.5	/experiments/knapen_AOT/AOT_stimuli/rescaled_final/1106_fw.mp4	0.0	215.24936318397522	1.0169966220855713
42	197.8803141117096	pulse	0	t		40.0	2.5	/experiments/knapen_AOT/AOT_stimuli/rescaled_final/1106_fw.mp4	0.0	216.22522711753845	
42	197.92144680023193	movie	1		275	40.0	2.5	/experiments/knapen_AOT/AOT_stimuli/rescaled_final/1106_fw.mp4	0.0	216.2663598060608	2.4837396144866943
42	199.48046350479126	pulse	1	t		40.0	2.5	/experiments/knapen_AOT/AOT_stimuli/rescaled_final/1106_fw.mp4	0.0	217.82537651062012	
42	200.40518641471863	fix_post	2		12	40.0	2.5	/experiments/knapen_AOT/AOT_stimuli/rescaled_final/1106_fw.mp4	0.0	218.75009942054749	0.09993457794189453
43	200.50512099266052	fix_pre	0		120	41.0	2.5	/experiments/knapen_AOT/AOT_stimuli/rescaled_final/1867_rv.mp4	0.0	218.85003399848938	1.016725778579712
43	201.0803849697113	pulse	0	t		41.0	2.5	/experiments/knapen_AOT/AOT_stimuli/rescaled_final/1867_rv.mp4	0.0	219.42529797554016	
43	201.52184677124023	movie	1		278	41.0	2.5	/experiments/knapen_AOT/AOT_stimuli/rescaled_final/1867_rv.mp4	0.0	219.8667597770691	2.483755350112915
43	202.68092942237854	pulse	1	t		41.0	2.5	/experiments/knapen_AOT/AOT_stimuli/rescaled_final/1867_rv.mp4	0.0	221.0258424282074	
43	204.00560212135315	fix_post	2		12	41.0	2.5	/experiments/knapen_AOT/AOT_stimuli/rescaled_final/1867_rv.mp4	0.0	222.350515127182	0.09996700286865234
44	204.1055691242218	fix_pre	0		120	42.0	2.5	blank	1.0	222.45048213005066	1.0001142024993896
44	204.2811996936798	pulse	0	t		42.0	2.5	blank	1.0	222.62611269950867	
44	205.1056833267212	movie	1		300	42.0	2.5	blank	1.0	223.45059633255005	2.500368356704712
44	205.8811604976654	pulse	1	t		42.0	2.5	blank	1.0	224.22607350349426	
44	207.48123407363892	pulse	1	t		42.0	2.5	blank	1.0	225.82614707946777	
44	207.6060516834259	fix_post	2		12	42.0	2.5	blank	1.0	225.95096468925476	0.10004019737243652
45	207.70609188079834	fix_pre	0		120	43.0	2.5	/experiments/knapen_AOT/AOT_stimuli/rescaled_final/0975_rv.mp4	0.0	226.0510048866272	1.0252442359924316
45	208.73133611679077	movie	1		277	43.0	2.5	/experiments/knapen_AOT/AOT_stimuli/rescaled_final/0975_rv.mp4	0.0	227.07624912261963	2.4756267070770264
45	209.0815145969391	pulse	1	t		43.0	2.5	/experiments/knapen_AOT/AOT_stimuli/rescaled_final/0975_rv.mp4	0.0	227.42642760276794	
45	210.67966747283936	pulse	1	t		43.0	2.5	/experiments/knapen_AOT/AOT_stimuli/rescaled_final/0975_rv.mp4	0.0	229.0245804786682	
45	211.2069628238678	fix_post	2		12	43.0	2.5	/experiments/knapen_AOT/AOT_stimuli/rescaled_final/0975_rv.mp4	0.0	229.55187582969666	0.09978246688842773
46	211.30674529075623	fix_pre	0		118	44.0	2.5	/experiments/knapen_AOT/AOT_stimuli/rescaled_final/0626_fw.mp4	0.0	229.65165829658508	1.000061273574829
46	212.28194403648376	pulse	0	t		44.0	2.5	/experiments/knapen_AOT/AOT_stimuli/rescaled_final/0626_fw.mp4	0.0	230.62685704231262	
46	212.30680656433105	movie	1		276	44.0	2.5	/experiments/knapen_AOT/AOT_stimuli/rescaled_final/0626_fw.mp4	0.0	230.6517195701599	2.4921514987945557
46	213.88081288337708	pulse	1	t		44.0	2.5	/experiments/knapen_AOT/AOT_stimuli/rescaled_final/0626_fw.mp4	0.0	232.22572588920593	
46	214.7989580631256	fix_post	2		12	44.0	2.5	/experiments/knapen_AOT/AOT_stimuli/rescaled_final/0626_fw.mp4	0.0	233.14387106895447	0.10005664825439453
47	214.89901471138	fix_pre	0		120	45.0	2.5	/experiments/knapen_AOT/AOT_stimuli/rescaled_final/0915_rv.mp4	0.0	233.24392771720886	1.0166246891021729
47	215.4825258255005	pulse	0	t		45.0	2.5	/experiments/knapen_AOT/AOT_stimuli/rescaled_final/0915_rv.mp4	0.0	233.82743883132935	
47	215.91563940048218	movie	1		277	45.0	2.5	/experiments/knapen_AOT/AOT_stimuli/rescaled_final/0915_rv.mp4	0.0	234.26055240631104	2.483827829360962
47	217.0830373764038	pulse	1	t		45.0	2.5	/experiments/knapen_AOT/AOT_stimuli/rescaled_final/0915_rv.mp4	0.0	235.42795038223267	
47	218.39946722984314	fix_post	2		12	45.0	2.5	/experiments/knapen_AOT/AOT_stimuli/rescaled_final/0915_rv.mp4	0.0	236.744380235672	0.09990549087524414
48	218.49937272071838	fix_pre	0		120	46.0	2.5	/experiments/knapen_AOT/AOT_stimuli/rescaled_final/0923_rv.mp4	0.0	236.84428572654724	1.0084762573242188
48	218.68307900428772	pulse	0	t		46.0	2.5	/experiments/knapen_AOT/AOT_stimuli/rescaled_final/0923_rv.mp4	0.0	237.02799201011658	
48	219.5078489780426	movie	1		207	46.0	2.5	/experiments/knapen_AOT/AOT_stimuli/rescaled_final/0923_rv.mp4	0.0	237.85276198387146	2.4923417568206787
48	220.2813892364502	pulse	1	t		46.0	2.5	/experiments/knapen_AOT/AOT_stimuli/rescaled_final/0923_rv.mp4	0.0	238.62630224227905	
48	221.8816065788269	pulse	1	t		46.0	2.5	/experiments/knapen_AOT/AOT_stimuli/rescaled_final/0923_rv.mp4	0.0	240.22651958465576	
48	222.00019073486328	fix_post	2		12	46.0	2.5	/experiments/knapen_AOT/AOT_stimuli/rescaled_final/0923_rv.mp4	0.0	240.34510374069214	0.09974408149719238
49	222.09993481636047	fix_pre	0		120	47.0	2.5	/experiments/knapen_AOT/AOT_stimuli/rescaled_final/1785_rv.mp4	0.0	240.44484782218933	1.016810655593872
49	223.11674547195435	movie	1		289	47.0	2.5	/experiments/knapen_AOT/AOT_stimuli/rescaled_final/1785_rv.mp4	0.0	241.4616584777832	2.492570400238037
49	223.48270511627197	pulse	1	t		47.0	2.5	/experiments/knapen_AOT/AOT_stimuli/rescaled_final/1785_rv.mp4	0.0	241.82761812210083	
49	225.0816466808319	pulse	1	t		47.0	2.5	/experiments/knapen_AOT/AOT_stimuli/rescaled_final/1785_rv.mp4	0.0	243.42655968666077	
49	225.60931587219238	fix_post	2		11	47.0	2.5	/experiments/knapen_AOT/AOT_stimuli/rescaled_final/1785_rv.mp4	0.0	243.95422887802124	0.09113931655883789
50	225.70045518875122	fix_pre	0		119	48.0	2.5	/experiments/knapen_AOT/AOT_stimuli/rescaled_final/0562_rv.mp4	0.0	244.04536819458008	1.0170373916625977
50	226.68410634994507	pulse	0	t		48.0	2.5	/experiments/knapen_AOT/AOT_stimuli/rescaled_final/0562_rv.mp4	0.0	245.02901935577393	
50	226.71749258041382	movie	1		271	48.0	2.5	/experiments/knapen_AOT/AOT_stimuli/rescaled_final/0562_rv.mp4	0.0	245.06240558624268	2.483731985092163
50	228.28446054458618	pulse	1	t		48.0	2.5	/experiments/knapen_AOT/AOT_stimuli/rescaled_final/0562_rv.mp4	0.0	246.62937355041504	
50	229.20122456550598	fix_post	2		12	48.0	2.5	/experiments/knapen_AOT/AOT_stimuli/rescaled_final/0562_rv.mp4	0.0	247.54613757133484	0.09979462623596191
51	229.30101919174194	fix_pre	0		120	49.0	2.5	blank	1.0	247.6459321975708	1.000115156173706
51	229.88466668128967	pulse	0	t		49.0	2.5	blank	1.0	248.22957968711853	
51	230.30113434791565	movie	1		300	49.0	2.5	blank	1.0	248.6460473537445	2.5003931522369385
51	231.48485279083252	pulse	1	t		49.0	2.5	blank	1.0	249.82976579666138	
51	232.8015275001526	fix_post	2		12	49.0	2.5	blank	1.0	251.14644050598145	0.10001158714294434
52	232.90153908729553	fix_pre	0		120	50.0	2.5	/experiments/knapen_AOT/AOT_stimuli/rescaled_final/0707_rv.mp4	0.0	251.2464520931244	1.0168204307556152
52	233.08520555496216	pulse	0	t		50.0	2.5	/experiments/knapen_AOT/AOT_stimuli/rescaled_final/0707_rv.mp4	0.0	251.43011856079102	
52	233.91835951805115	movie	1		287	50.0	2.5	/experiments/knapen_AOT/AOT_stimuli/rescaled_final/0707_rv.mp4	0.0	252.26327252388	2.4840307235717773
52	234.68398809432983	pulse	1	t		50.0	2.5	/experiments/knapen_AOT/AOT_stimuli/rescaled_final/0707_rv.mp4	0.0	253.0289011001587	
52	236.28388261795044	pulse	1	t		50.0	2.5	/experiments/knapen_AOT/AOT_stimuli/rescaled_final/0707_rv.mp4	0.0	254.6287956237793	
52	236.40239024162292	fix_post	2		12	50.0	2.5	/experiments/knapen_AOT/AOT_stimuli/rescaled_final/0707_rv.mp4	0.0	254.74730324745178	0.09975337982177734
53	236.5021436214447	fix_pre	0		120	51.0	2.5	/experiments/knapen_AOT/AOT_stimuli/rescaled_final/0051_rv.mp4	0.0	254.84705662727356	1.0251281261444092
53	237.5272717475891	movie	1		280	51.0	2.5	/experiments/knapen_AOT/AOT_stimuli/rescaled_final/0051_rv.mp4	0.0	255.87218475341797	2.475654125213623
53	237.88475227355957	pulse	1	t		51.0	2.5	/experiments/knapen_AOT/AOT_stimuli/rescaled_final/0051_rv.mp4	0.0	256.2296652793884	
53	239.48416209220886	pulse	1	t		51.0	2.5	/experiments/knapen_AOT/AOT_stimuli/rescaled_final/0051_rv.mp4	0.0	257.8290750980377	
53	240.00292587280273	fix_post	2		12	51.0	2.5	/experiments/knapen_AOT/AOT_stimuli/rescaled_final/0051_rv.mp4	0.0	258.3478388786316	0.09969425201416016
54	240.1026201248169	fix_pre	0		119	52.0	2.5	/experiments/knapen_AOT/AOT_stimuli/rescaled_final/1632_rv.mp4	0.0	258.44753313064575	1.017029047012329
54	241.08631014823914	pulse	0	t		52.0	2.5	/experiments/knapen_AOT/AOT_stimuli/rescaled_final/1632_rv.mp4	0.0	259.431223154068	
54	241.11964917182922	movie	1		286	52.0	2.5	/experiments/knapen_AOT/AOT_stimuli/rescaled_final/1632_rv.mp4	0.0	259.4645621776581	2.483487129211426
54	242.68499207496643	pulse	1	t		52.0	2.5	/experiments/knapen_AOT/AOT_stimuli/rescaled_final/1632_rv.mp4	0.0	261.0299050807953	
54	243.60313630104065	fix_post	2		12	52.0	2.5	/experiments/knapen_AOT/AOT_stimuli/rescaled_final/1632_rv.mp4	0.0	261.9480493068695	0.10003471374511719
55	243.70317101478577	fix_pre	0		120	53.0	2.5	/experiments/knapen_AOT/AOT_stimuli/rescaled_final/1474_fw.mp4	0.0	262.0480840206146	1.0252022743225098
55	244.28701400756836	pulse	0	t		53.0	2.5	/experiments/knapen_AOT/AOT_stimuli/rescaled_final/1474_fw.mp4	0.0	262.6319270133972	
55	244.72837328910828	movie	1		278	53.0	2.5	/experiments/knapen_AOT/AOT_stimuli/rescaled_final/1474_fw.mp4	0.0	263.07328629493713	2.475382089614868
55	245.88544535636902	pulse	1	t		53.0	2.5	/experiments/knapen_AOT/AOT_stimuli/rescaled_final/1474_fw.mp4	0.0	264.2303583621979	
55	247.20375537872314	fix_post	2		12	53.0	2.5	/experiments/knapen_AOT/AOT_stimuli/rescaled_final/1474_fw.mp4	0.0	265.548668384552	0.09997940063476562
56	247.3037347793579	fix_pre	0		120	54.0	2.5	blank	1.0	265.64864778518677	1.000220775604248
56	247.48017692565918	pulse	0	t		54.0	2.5	blank	1.0	265.82508993148804	
56	248.30395555496216	movie	1		300	54.0	2.5	blank	1.0	266.648868560791	2.500271797180176
56	249.07958149909973	pulse	1	t		54.0	2.5	blank	1.0	267.4244945049286	
56	250.67977571487427	pulse	1	t		54.0	2.5	blank	1.0	269.0246887207031	
56	250.80422735214233	fix_post	2		12	54.0	2.5	blank	1.0	269.1491403579712	0.10006117820739746
57	250.90428853034973	fix_pre	0		120	55.0	2.5	/experiments/knapen_AOT/AOT_stimuli/rescaled_final/0311_fw.mp4	0.0	269.2492015361786	1.0252223014831543
57	251.92951083183289	movie	1		275	55.0	2.5	/experiments/knapen_AOT/AOT_stimuli/rescaled_final/0311_fw.mp4	0.0	270.27442383766174	2.475421905517578
57	252.2799208164215	pulse	1	t		55.0	2.5	/experiments/knapen_AOT/AOT_stimuli/rescaled_final/0311_fw.mp4	0.0	270.62483382225037	
57	253.8799455165863	pulse	1	t		55.0	2.5	/experiments/knapen_AOT/AOT_stimuli/rescaled_final/0311_fw.mp4	0.0	272.22485852241516	
57	254.40493273735046	fix_post	2		12	55.0	2.5	/experiments/knapen_AOT/AOT_stimuli/rescaled_final/0311_fw.mp4	0.0	272.7498457431793	0.09984803199768066
58	254.50478076934814	fix_pre	0		118	56.0	2.5	/experiments/knapen_AOT/AOT_stimuli/rescaled_final/0915_fw.mp4	0.0	272.849693775177	1.0001709461212158
58	255.4801721572876	pulse	0	t		56.0	2.5	/experiments/knapen_AOT/AOT_stimuli/rescaled_final/0915_fw.mp4	0.0	273.82508516311646	
58	255.50495171546936	movie	1		284	56.0	2.5	/experiments/knapen_AOT/AOT_stimuli/rescaled_final/0915_fw.mp4	0.0	273.8498647212982	2.492306709289551
58	257.0804717540741	pulse	1	t		56.0	2.5	/experiments/knapen_AOT/AOT_stimuli/rescaled_final/0915_fw.mp4	0.0	275.42538475990295	
58	257.9972584247589	fix_post	2		12	56.0	2.5	/experiments/knapen_AOT/AOT_stimuli/rescaled_final/0915_fw.mp4	0.0	276.34217143058777	0.09994888305664062
59	258.09720730781555	fix_pre	0		119	57.0	2.5	/experiments/knapen_AOT/AOT_stimuli/rescaled_final/0140_fw.mp4	0.0	276.4421203136444	1.0082895755767822
59	258.6808979511261	pulse	0	t		57.0	2.5	/experiments/knapen_AOT/AOT_stimuli/rescaled_final/0140_fw.mp4	0.0	277.02581095695496	
59	259.10549688339233	movie	1		274	57.0	2.5	/experiments/knapen_AOT/AOT_stimuli/rescaled_final/0140_fw.mp4	0.0	277.4504098892212	2.49216890335083
59	260.28092336654663	pulse	1	t		57.0	2.5	/experiments/knapen_AOT/AOT_stimuli/rescaled_final/0140_fw.mp4	0.0	278.6258363723755	
59	261.59766578674316	fix_post	2		12	57.0	2.5	/experiments/knapen_AOT/AOT_stimuli/rescaled_final/0140_fw.mp4	0.0	279.942578792572	0.09989452362060547
60	261.69756031036377	fix_pre	0		120	58.0	2.5	/experiments/knapen_AOT/AOT_stimuli/rescaled_final/0863_rv.mp4	0.0	280.0424733161926	1.025205373764038
60	261.88117003440857	pulse	0	t		58.0	2.5	/experiments/knapen_AOT/AOT_stimuli/rescaled_final/0863_rv.mp4	0.0	280.2260830402374	
60	262.7227656841278	movie	1		270	58.0	2.5	/experiments/knapen_AOT/AOT_stimuli/rescaled_final/0863_rv.mp4	0.0	281.06767868995667	2.475496768951416
60	263.48133087158203	pulse	1	t		58.0	2.5	/experiments/knapen_AOT/AOT_stimuli/rescaled_final/0863_rv.mp4	0.0	281.8262438774109	
60	265.0816614627838	pulse	1	t		58.0	2.5	/experiments/knapen_AOT/AOT_stimuli/rescaled_final/0863_rv.mp4	0.0	283.42657446861267	
60	265.1982624530792	fix_post	2		12	58.0	2.5	/experiments/knapen_AOT/AOT_stimuli/rescaled_final/0863_rv.mp4	0.0	283.5431754589081	0.09979414939880371
61	265.298056602478	fix_pre	0		120	59.0	2.5	/experiments/knapen_AOT/AOT_stimuli/rescaled_final/1544_fw.mp4	0.0	283.6429696083069	1.025277853012085
61	266.3233344554901	movie	1		268	59.0	2.5	/experiments/knapen_AOT/AOT_stimuli/rescaled_final/1544_fw.mp4	0.0	284.66824746131897	2.475249767303467
61	266.6803014278412	pulse	1	t		59.0	2.5	/experiments/knapen_AOT/AOT_stimuli/rescaled_final/1544_fw.mp4	0.0	285.02521443367004	
61	268.2809708118439	pulse	1	t		59.0	2.5	/experiments/knapen_AOT/AOT_stimuli/rescaled_final/1544_fw.mp4	0.0	286.62588381767273	
61	268.7985842227936	fix_post	2		12	59.0	2.5	/experiments/knapen_AOT/AOT_stimuli/rescaled_final/1544_fw.mp4	0.0	287.14349722862244	0.10013866424560547
62	268.8987228870392	fix_pre	0		119	60.0	2.5	/experiments/knapen_AOT/AOT_stimuli/rescaled_final/1844_fw.mp4	0.0	287.24363589286804	1.008622407913208
62	269.88279008865356	pulse	0	t		60.0	2.5	/experiments/knapen_AOT/AOT_stimuli/rescaled_final/1844_fw.mp4	0.0	288.2277030944824	
62	269.9073452949524	movie	1		285	60.0	2.5	/experiments/knapen_AOT/AOT_stimuli/rescaled_final/1844_fw.mp4	0.0	288.25225830078125	2.4917824268341064
62	271.4810667037964	pulse	1	t		60.0	2.5	/experiments/knapen_AOT/AOT_stimuli/rescaled_final/1844_fw.mp4	0.0	289.82597970962524	
62	272.3991277217865	fix_post	2		12	60.0	2.5	/experiments/knapen_AOT/AOT_stimuli/rescaled_final/1844_fw.mp4	0.0	290.74404072761536	0.10009098052978516
63	272.4992187023163	fix_pre	0		120	61.0	2.5	/experiments/knapen_AOT/AOT_stimuli/rescaled_final/1056_fw.mp4	0.0	290.84413170814514	1.0085375308990479
63	273.08278012275696	pulse	0	t		61.0	2.5	/experiments/knapen_AOT/AOT_stimuli/rescaled_final/1056_fw.mp4	0.0	291.4276931285858	
63	273.50775623321533	movie	1		283	61.0	2.5	/experiments/knapen_AOT/AOT_stimuli/rescaled_final/1056_fw.mp4	0.0	291.8526692390442	2.4921514987945557
63	274.6813893318176	pulse	1	t		61.0	2.5	/experiments/knapen_AOT/AOT_stimuli/rescaled_final/1056_fw.mp4	0.0	293.0263023376465	
63	275.9999077320099	fix_post	2		12	61.0	2.5	/experiments/knapen_AOT/AOT_stimuli/rescaled_final/1056_fw.mp4	0.0	294.34482073783875	0.09980344772338867
64	276.0997111797333	fix_pre	0		120	62.0	2.5	/experiments/knapen_AOT/AOT_stimuli/rescaled_final/0351_fw.mp4	0.0	294.44462418556213	1.0085177421569824
64	276.2836842536926	pulse	0	t		62.0	2.5	/experiments/knapen_AOT/AOT_stimuli/rescaled_final/0351_fw.mp4	0.0	294.6285972595215	
64	277.10822892189026	movie	1		270	62.0	2.5	/experiments/knapen_AOT/AOT_stimuli/rescaled_final/0351_fw.mp4	0.0	295.4531419277191	2.4921391010284424
64	277.88362312316895	pulse	1	t		62.0	2.5	/experiments/knapen_AOT/AOT_stimuli/rescaled_final/0351_fw.mp4	0.0	296.2285361289978	
64	279.48202896118164	pulse	1	t		62.0	2.5	/experiments/knapen_AOT/AOT_stimuli/rescaled_final/0351_fw.mp4	0.0	297.8269419670105	
64	279.6003680229187	fix_post	2		12	62.0	2.5	/experiments/knapen_AOT/AOT_stimuli/rescaled_final/0351_fw.mp4	0.0	297.94528102874756	0.10004162788391113
65	279.7004096508026	fix_pre	0		120	63.0	2.5	blank	1.0	298.04532265663147	0.9999558925628662
65	280.7003655433655	movie	1		300	63.0	2.5	blank	1.0	299.04527854919434	2.5004191398620605
65	281.08402848243713	pulse	1	t		63.0	2.5	blank	1.0	299.428941488266	
65	282.6842391490936	pulse	1	t		63.0	2.5	blank	1.0	301.0291521549225	
65	283.20078468322754	fix_post	2		12	63.0	2.5	blank	1.0	301.5456976890564	0.09999704360961914
66	283.30078172683716	fix_pre	0		119	64.0	2.5	/experiments/knapen_AOT/AOT_stimuli/rescaled_final/0872_rv.mp4	0.0	301.645694732666	1.0086579322814941
66	284.2844817638397	pulse	0	t		64.0	2.5	/experiments/knapen_AOT/AOT_stimuli/rescaled_final/0872_rv.mp4	0.0	302.6293947696686	
66	284.30943965911865	movie	1		280	64.0	2.5	/experiments/knapen_AOT/AOT_stimuli/rescaled_final/0872_rv.mp4	0.0	302.6543526649475	2.4920668601989746
66	285.8837320804596	pulse	1	t		64.0	2.5	/experiments/knapen_AOT/AOT_stimuli/rescaled_final/0872_rv.mp4	0.0	304.22864508628845	
66	286.8015065193176	fix_post	2		12	64.0	2.5	/experiments/knapen_AOT/AOT_stimuli/rescaled_final/0872_rv.mp4	0.0	305.1464195251465	0.09983062744140625
67	286.90133714675903	fix_pre	0		120	65.0	2.5	/experiments/knapen_AOT/AOT_stimuli/rescaled_final/0433_rv.mp4	0.0	305.2462501525879	1.0085408687591553
67	287.4851040840149	pulse	0	t		65.0	2.5	/experiments/knapen_AOT/AOT_stimuli/rescaled_final/0433_rv.mp4	0.0	305.83001708984375	
67	287.9098780155182	movie	1		267	65.0	2.5	/experiments/knapen_AOT/AOT_stimuli/rescaled_final/0433_rv.mp4	0.0	306.25479102134705	2.492013454437256
67	289.08337903022766	pulse	1	t		65.0	2.5	/experiments/knapen_AOT/AOT_stimuli/rescaled_final/0433_rv.mp4	0.0	307.4282920360565	
67	290.40189146995544	fix_post	2		12	65.0	2.5	/experiments/knapen_AOT/AOT_stimuli/rescaled_final/0433_rv.mp4	0.0	308.7468044757843	0.10001611709594727
68	290.5019075870514	fix_pre	0		120	66.0	2.5	/experiments/knapen_AOT/AOT_stimuli/rescaled_final/0478_fw.mp4	0.0	308.84682059288025	1.0084965229034424
68	290.685467004776	pulse	0	t		66.0	2.5	/experiments/knapen_AOT/AOT_stimuli/rescaled_final/0478_fw.mp4	0.0	309.03038001060486	
68	291.51040410995483	movie	1		262	66.0	2.5	/experiments/knapen_AOT/AOT_stimuli/rescaled_final/0478_fw.mp4	0.0	309.8553171157837	2.491985559463501
68	292.2836768627167	pulse	1	t		66.0	2.5	/experiments/knapen_AOT/AOT_stimuli/rescaled_final/0478_fw.mp4	0.0	310.62858986854553	
68	293.88575172424316	pulse	1	t		66.0	2.5	/experiments/knapen_AOT/AOT_stimuli/rescaled_final/0478_fw.mp4	0.0	312.230664730072	
68	294.00238966941833	fix_post	2		12	66.0	2.5	/experiments/knapen_AOT/AOT_stimuli/rescaled_final/0478_fw.mp4	0.0	312.3473026752472	0.10024023056030273
69	294.10262989997864	fix_pre	0		120	67.0	2.5	/experiments/knapen_AOT/AOT_stimuli/rescaled_final/1783_rv.mp4	0.0	312.4475429058075	1.008430004119873
69	295.1110599040985	movie	1		261	67.0	2.5	/experiments/knapen_AOT/AOT_stimuli/rescaled_final/1783_rv.mp4	0.0	313.45597290992737	2.492067575454712
69	295.4856598377228	pulse	1	t		67.0	2.5	/experiments/knapen_AOT/AOT_stimuli/rescaled_final/1783_rv.mp4	0.0	313.83057284355164	
69	297.08610010147095	pulse	1	t		67.0	2.5	/experiments/knapen_AOT/AOT_stimuli/rescaled_final/1783_rv.mp4	0.0	315.4310131072998	
69	297.6031274795532	fix_post	2		12	67.0	2.5	/experiments/knapen_AOT/AOT_stimuli/rescaled_final/1783_rv.mp4	0.0	315.9480404853821	0.09981727600097656
70	297.7029447555542	fix_pre	0		119	68.0	2.5	/experiments/knapen_AOT/AOT_stimuli/rescaled_final/0454_rv.mp4	0.0	316.04785776138306	1.0086853504180908
70	298.68696904182434	pulse	0	t		68.0	2.5	/experiments/knapen_AOT/AOT_stimuli/rescaled_final/0454_rv.mp4	0.0	317.0318820476532	
70	298.7116301059723	movie	1		270	68.0	2.5	/experiments/knapen_AOT/AOT_stimuli/rescaled_final/0454_rv.mp4	0.0	317.05654311180115	2.4918692111968994
70	300.2851769924164	pulse	1	t		68.0	2.5	/experiments/knapen_AOT/AOT_stimuli/rescaled_final/0454_rv.mp4	0.0	318.63008999824524	
70	301.2034993171692	fix_post	2		12	68.0	2.5	/experiments/knapen_AOT/AOT_stimuli/rescaled_final/0454_rv.mp4	0.0	319.54841232299805	0.10003924369812012
71	301.3035385608673	fix_pre	0		120	69.0	2.5	/experiments/knapen_AOT/AOT_stimuli/rescaled_final/1421_rv.mp4	0.0	319.64845156669617	1.0084826946258545
71	301.88737440109253	pulse	0	t		69.0	2.5	/experiments/knapen_AOT/AOT_stimuli/rescaled_final/1421_rv.mp4	0.0	320.2322874069214	
71	302.31202125549316	movie	1		272	69.0	2.5	/experiments/knapen_AOT/AOT_stimuli/rescaled_final/1421_rv.mp4	0.0	320.656934261322	2.4923248291015625
71	303.4852707386017	pulse	1	t		69.0	2.5	/experiments/knapen_AOT/AOT_stimuli/rescaled_final/1421_rv.mp4	0.0	321.83018374443054	
71	304.8043460845947	fix_post	2		12	69.0	2.5	/experiments/knapen_AOT/AOT_stimuli/rescaled_final/1421_rv.mp4	0.0	323.1492590904236	0.09967374801635742
72	304.9040198326111	fix_pre	0		120	70.0	2.5	blank	1.0	323.24893283843994	1.0002000331878662
72	305.0876588821411	pulse	0	t		70.0	2.5	blank	1.0	323.43257188796997	
72	305.90421986579895	movie	1		300	70.0	2.5	blank	1.0	324.2491328716278	2.5003368854522705
72	306.68018412590027	pulse	1	t		70.0	2.5	blank	1.0	325.0250971317291	
72	308.28005814552307	pulse	1	t		70.0	2.5	blank	1.0	326.62497115135193	
72	308.4045567512512	fix_post	2		12	70.0	2.5	blank	1.0	326.7494697570801	0.10004210472106934
73	308.5045988559723	fix_pre	0		120	71.0	2.5	/experiments/knapen_AOT/AOT_stimuli/rescaled_final/0997_fw.mp4	0.0	326.84951186180115	1.008509635925293
73	309.5131084918976	movie	1		281	71.0	2.5	/experiments/knapen_AOT/AOT_stimuli/rescaled_final/0997_fw.mp4	0.0	327.85802149772644	2.4921579360961914
73	309.8804175853729	pulse	1	t		71.0	2.5	/experiments/knapen_AOT/AOT_stimuli/rescaled_final/0997_fw.mp4	0.0	328.2253305912018	
73	311.48029708862305	pulse	1	t		71.0	2.5	/experiments/knapen_AOT/AOT_stimuli/rescaled_final/0997_fw.mp4	0.0	329.8252100944519	
73	312.0052664279938	fix_post	2		12	71.0	2.5	/experiments/knapen_AOT/AOT_stimuli/rescaled_final/0997_fw.mp4	0.0	330.35017943382263	0.09984874725341797
74	312.1051151752472	fix_pre	0		118	72.0	2.5	/experiments/knapen_AOT/AOT_stimuli/rescaled_final/1544_rv.mp4	0.0	330.45002818107605	0.9918093681335449
74	313.0807499885559	pulse	0	t		72.0	2.5	/experiments/knapen_AOT/AOT_stimuli/rescaled_final/1544_rv.mp4	0.0	331.42566299438477	
74	313.09692454338074	movie	1		276	72.0	2.5	/experiments/knapen_AOT/AOT_stimuli/rescaled_final/1544_rv.mp4	0.0	331.4418375492096	2.500377655029297
74	314.6808490753174	pulse	1	t		72.0	2.5	/experiments/knapen_AOT/AOT_stimuli/rescaled_final/1544_rv.mp4	0.0	333.02576208114624	
74	315.59730219841003	fix_post	2		12	72.0	2.5	/experiments/knapen_AOT/AOT_stimuli/rescaled_final/1544_rv.mp4	0.0	333.9422152042389	0.10001063346862793
75	315.69731283187866	fix_pre	0		119	73.0	2.5	/experiments/knapen_AOT/AOT_stimuli/rescaled_final/0406_rv.mp4	0.0	334.0422258377075	1.0085535049438477
75	316.2810733318329	pulse	0	t		73.0	2.5	/experiments/knapen_AOT/AOT_stimuli/rescaled_final/0406_rv.mp4	0.0	334.62598633766174	
75	316.7058663368225	movie	1		280	73.0	2.5	/experiments/knapen_AOT/AOT_stimuli/rescaled_final/0406_rv.mp4	0.0	335.05077934265137	2.492009162902832
75	317.8812916278839	pulse	1	t		73.0	2.5	/experiments/knapen_AOT/AOT_stimuli/rescaled_final/0406_rv.mp4	0.0	336.22620463371277	
75	319.19787549972534	fix_post	2		12	73.0	2.5	/experiments/knapen_AOT/AOT_stimuli/rescaled_final/0406_rv.mp4	0.0	337.5427885055542	0.10003137588500977
76	319.29790687561035	fix_pre	0		120	74.0	2.5	/experiments/knapen_AOT/AOT_stimuli/rescaled_final/0582_fw.mp4	0.0	337.6428198814392	1.0084335803985596
76	319.4817535877228	pulse	0	t		74.0	2.5	/experiments/knapen_AOT/AOT_stimuli/rescaled_final/0582_fw.mp4	0.0	337.82666659355164	
76	320.3063404560089	movie	1		266	74.0	2.5	/experiments/knapen_AOT/AOT_stimuli/rescaled_final/0582_fw.mp4	0.0	338.65125346183777	2.5007834434509277
76	321.08184576034546	pulse	1	t		74.0	2.5	/experiments/knapen_AOT/AOT_stimuli/rescaled_final/0582_fw.mp4	0.0	339.4267587661743	
76	322.6818552017212	pulse	1	t		74.0	2.5	/experiments/knapen_AOT/AOT_stimuli/rescaled_final/0582_fw.mp4	0.0	341.02676820755005	
76	322.80712389945984	fix_post	2		11	74.0	2.5	/experiments/knapen_AOT/AOT_stimuli/rescaled_final/0582_fw.mp4	0.0	341.1520369052887	0.09124922752380371
77	322.89837312698364	fix_pre	0		120	75.0	2.5	blank	1.0	341.2432861328125	1.000159740447998
77	323.89853286743164	movie	1		300	75.0	2.5	blank	1.0	342.2434458732605	2.500389337539673
77	324.2823700904846	pulse	1	t		75.0	2.5	blank	1.0	342.6272830963135	
77	325.88253831863403	pulse	1	t		75.0	2.5	blank	1.0	344.2274513244629	
77	326.3989222049713	fix_post	2		12	75.0	2.5	blank	1.0	344.74383521080017	0.10001778602600098
78	326.4989399909973	fix_pre	0		119	76.0	2.5	/experiments/knapen_AOT/AOT_stimuli/rescaled_final/0171_fw.mp4	0.0	344.8438529968262	1.0001256465911865
78	327.4827229976654	pulse	0	t		76.0	2.5	/experiments/knapen_AOT/AOT_stimuli/rescaled_final/0171_fw.mp4	0.0	345.82763600349426	
78	327.4990656375885	movie	1		271	76.0	2.5	/experiments/knapen_AOT/AOT_stimuli/rescaled_final/0171_fw.mp4	0.0	345.84397864341736	2.5007317066192627
78	329.0812704563141	pulse	1	t		76.0	2.5	/experiments/knapen_AOT/AOT_stimuli/rescaled_final/0171_fw.mp4	0.0	347.42618346214294	
78	329.99979734420776	fix_post	2		12	76.0	2.5	/experiments/knapen_AOT/AOT_stimuli/rescaled_final/0171_fw.mp4	0.0	348.3447103500366	0.09967446327209473
79	330.09947180747986	fix_pre	0		120	77.0	2.5	/experiments/knapen_AOT/AOT_stimuli/rescaled_final/1387_rv.mp4	0.0	348.4443848133087	1.0086102485656738
79	330.6830985546112	pulse	0	t		77.0	2.5	/experiments/knapen_AOT/AOT_stimuli/rescaled_final/1387_rv.mp4	0.0	349.02801156044006	
79	331.10808205604553	movie	1		281	77.0	2.5	/experiments/knapen_AOT/AOT_stimuli/rescaled_final/1387_rv.mp4	0.0	349.4529950618744	2.4918935298919678
79	332.283908367157	pulse	1	t		77.0	2.5	/experiments/knapen_AOT/AOT_stimuli/rescaled_final/1387_rv.mp4	0.0	350.62882137298584	
79	333.5999755859375	fix_post	2		12	77.0	2.5	/experiments/knapen_AOT/AOT_stimuli/rescaled_final/1387_rv.mp4	0.0	351.94488859176636	0.10022211074829102
80	333.7001976966858	fix_pre	0		120	78.0	2.5	/experiments/knapen_AOT/AOT_stimuli/rescaled_final/1683_fw.mp4	0.0	352.04511070251465	1.0082905292510986
80	333.88357615470886	pulse	0	t		78.0	2.5	/experiments/knapen_AOT/AOT_stimuli/rescaled_final/1683_fw.mp4	0.0	352.2284891605377	
80	334.7084882259369	movie	1		261	78.0	2.5	/experiments/knapen_AOT/AOT_stimuli/rescaled_final/1683_fw.mp4	0.0	353.05340123176575	2.4922516345977783
80	335.4839839935303	pulse	1	t		78.0	2.5	/experiments/knapen_AOT/AOT_stimuli/rescaled_final/1683_fw.mp4	0.0	353.82889699935913	
80	337.0824615955353	pulse	1	t		78.0	2.5	/experiments/knapen_AOT/AOT_stimuli/rescaled_final/1683_fw.mp4	0.0	355.42737460136414	
80	337.20073986053467	fix_post	2		12	78.0	2.5	/experiments/knapen_AOT/AOT_stimuli/rescaled_final/1683_fw.mp4	0.0	355.5456528663635	0.09983301162719727
81	337.30057287216187	fix_pre	0		120	79.0	2.5	/experiments/knapen_AOT/AOT_stimuli/rescaled_final/1418_rv.mp4	0.0	355.6454858779907	1.0086510181427002
81	338.30922389030457	movie	1		269	79.0	2.5	/experiments/knapen_AOT/AOT_stimuli/rescaled_final/1418_rv.mp4	0.0	356.6541368961334	2.491889238357544
81	338.68262791633606	pulse	1	t		79.0	2.5	/experiments/knapen_AOT/AOT_stimuli/rescaled_final/1418_rv.mp4	0.0	357.0275409221649	
81	340.2828667163849	pulse	1	t		79.0	2.5	/experiments/knapen_AOT/AOT_stimuli/rescaled_final/1418_rv.mp4	0.0	358.62777972221375	
81	340.8011131286621	fix_post	2		12	79.0	2.5	/experiments/knapen_AOT/AOT_stimuli/rescaled_final/1418_rv.mp4	0.0	359.14602613449097	0.10010266304016113
82	340.90121579170227	fix_pre	0		119	80.0	2.5	/experiments/knapen_AOT/AOT_stimuli/rescaled_final/0458_rv.mp4	0.0	359.2461287975311	1.0086078643798828
82	341.8848478794098	pulse	0	t		80.0	2.5	/experiments/knapen_AOT/AOT_stimuli/rescaled_final/0458_rv.mp4	0.0	360.22976088523865	
82	341.90982365608215	movie	1		274	80.0	2.5	/experiments/knapen_AOT/AOT_stimuli/rescaled_final/0458_rv.mp4	0.0	360.254736661911	2.4918203353881836
82	343.4836320877075	pulse	1	t		80.0	2.5	/experiments/knapen_AOT/AOT_stimuli/rescaled_final/0458_rv.mp4	0.0	361.8285450935364	
82	344.40164399147034	fix_post	2		12	80.0	2.5	/experiments/knapen_AOT/AOT_stimuli/rescaled_final/0458_rv.mp4	0.0	362.7465569972992	0.10018205642700195
83	344.50182604789734	fix_pre	0		120	81.0	2.5	/experiments/knapen_AOT/AOT_stimuli/rescaled_final/1295_rv.mp4	0.0	362.8467390537262	1.0083520412445068
83	345.08531188964844	pulse	0	t		81.0	2.5	/experiments/knapen_AOT/AOT_stimuli/rescaled_final/1295_rv.mp4	0.0	363.4302248954773	
83	345.51017808914185	movie	1		272	81.0	2.5	/experiments/knapen_AOT/AOT_stimuli/rescaled_final/1295_rv.mp4	0.0	363.8550910949707	2.4920074939727783
83	346.6840908527374	pulse	1	t		81.0	2.5	/experiments/knapen_AOT/AOT_stimuli/rescaled_final/1295_rv.mp4	0.0	365.0290038585663	
83	348.0021855831146	fix_post	2		12	81.0	2.5	/experiments/knapen_AOT/AOT_stimuli/rescaled_final/1295_rv.mp4	0.0	366.3470985889435	0.10013127326965332
84	348.1023168563843	fix_pre	0		120	82.0	2.5	/experiments/knapen_AOT/AOT_stimuli/rescaled_final/2065_rv.mp4	0.0	366.44722986221313	1.0084466934204102
84	348.28575921058655	pulse	0	t		82.0	2.5	/experiments/knapen_AOT/AOT_stimuli/rescaled_final/2065_rv.mp4	0.0	366.6306722164154	
84	349.1107635498047	movie	1		281	82.0	2.5	/experiments/knapen_AOT/AOT_stimuli/rescaled_final/2065_rv.mp4	0.0	367.45567655563354	2.492037534713745
84	349.8856873512268	pulse	1	t		82.0	2.5	/experiments/knapen_AOT/AOT_stimuli/rescaled_final/2065_rv.mp4	0.0	368.23060035705566	
84	351.48540115356445	pulse	1	t		82.0	2.5	/experiments/knapen_AOT/AOT_stimuli/rescaled_final/2065_rv.mp4	0.0	369.8303141593933	
84	351.60280108451843	fix_post	2		12	82.0	2.5	/experiments/knapen_AOT/AOT_stimuli/rescaled_final/2065_rv.mp4	0.0	369.9477140903473	0.0999441146850586
85	351.7027451992035	fix_pre	0		120	83.0	2.5	blank	1.0	370.04765820503235	1.0001330375671387
85	352.70287823677063	movie	1		300	83.0	2.5	blank	1.0	371.0477912425995	2.5005364418029785
85	353.08647871017456	pulse	1	t		83.0	2.5	blank	1.0	371.4313917160034	
85	354.68671464920044	pulse	1	t		83.0	2.5	blank	1.0	373.0316276550293	
85	355.2034146785736	fix_post	2		12	83.0	2.5	blank	1.0	373.54832768440247	0.10816645622253418
87	355.31158113479614	stim	0		1714					373.656494140625	14.285576581954956
87	356.28706979751587	pulse	0	t						374.6319828033447	
87	357.8872392177582	pulse	0	t						376.23215222358704	
87	359.48754262924194	pulse	0	t						377.8324556350708	
87	361.08788418769836	pulse	0	t						379.4327971935272	
87	362.6810221672058	pulse	0	t						381.02593517303467	
87	364.28167033195496	pulse	0	t						382.6265833377838	
87	365.880656003952	pulse	0	t						384.2255690097809	
87	367.4804410934448	pulse	0	t						385.8253540992737	
87	369.0805847644806	pulse	0	t						387.42549777030945	
