trial_nr	onset	event_type	phase	response	nr_frames	movie_index	movie_duration	movie_file	blank	onset_abs	duration
0	0.13345789909362793	stim	0		36					58.7213568687439	0.2997610569000244
0	0.42531299591064453	response	0	space						59.01321196556091	
1	0.43321895599365234	stim	0		4913					59.02111792564392	40.9412100315094
1	41.370891094207764	pulse	0	t						99.95879006385803	
1	41.37442898750305	stim	1		1717					99.96232795715332	14.308600902557373
1	42.9664580821991	pulse	1	t						101.55435705184937	
1	44.566575050354004	pulse	1	t						103.15447402000427	
1	46.166560888290405	pulse	1	t						104.75445985794067	
1	47.76656198501587	pulse	1	t						106.35446095466614	
1	49.366544008255005	pulse	1	t						107.95444297790527	
1	50.966485023498535	pulse	1	t						109.5543839931488	
1	52.56650710105896	pulse	1	t						111.15440607070923	
1	54.16637396812439	pulse	1	t						112.75427293777466	
2	55.683029890060425	fix_pre	0		11	0.0	2.5	/experiments/AOT/AOT_stimuli/rescaled_final/0553_rv.mp4	0.0	114.2709288597107	0.09163713455200195
2	55.76647996902466	pulse	0	t		0.0	2.5	/experiments/AOT/AOT_stimuli/rescaled_final/0553_rv.mp4	0.0	114.35437893867493	
2	55.77466702461243	movie	1		242	0.0	2.5	/experiments/AOT/AOT_stimuli/rescaled_final/0553_rv.mp4	0.0	114.3625659942627	2.508394956588745
2	57.36622905731201	pulse	1	t		0.0	2.5	/experiments/AOT/AOT_stimuli/rescaled_final/0553_rv.mp4	0.0	115.95412802696228	
2	58.28306198120117	fix_post	2		12	0.0	2.5	/experiments/AOT/AOT_stimuli/rescaled_final/0553_rv.mp4	0.0	116.87096095085144	0.09992790222167969
3	58.38298988342285	fix_pre	0		120	1.0	2.5	/experiments/AOT/AOT_stimuli/rescaled_final/2107_fw.mp4	0.0	116.97088885307312	0.9999651908874512
3	58.96643400192261	pulse	0	t		1.0	2.5	/experiments/AOT/AOT_stimuli/rescaled_final/2107_fw.mp4	0.0	117.55433297157288	
3	59.3829550743103	movie	1		247	1.0	2.5	/experiments/AOT/AOT_stimuli/rescaled_final/2107_fw.mp4	0.0	117.97085404396057	2.5000319480895996
3	60.56658387184143	pulse	1	t		1.0	2.5	/experiments/AOT/AOT_stimuli/rescaled_final/2107_fw.mp4	0.0	119.1544828414917	
3	61.8829870223999	fix_post	2		12	1.0	2.5	/experiments/AOT/AOT_stimuli/rescaled_final/2107_fw.mp4	0.0	120.47088599205017	0.09956502914428711
4	61.98255205154419	fix_pre	0		120	2.0	2.5	/experiments/AOT/AOT_stimuli/rescaled_final/1714_rv.mp4	0.0	120.57045102119446	1.0004849433898926
4	62.166528940200806	pulse	0	t		2.0	2.5	/experiments/AOT/AOT_stimuli/rescaled_final/1714_rv.mp4	0.0	120.75442790985107	
4	62.98303699493408	movie	1		243	2.0	2.5	/experiments/AOT/AOT_stimuli/rescaled_final/1714_rv.mp4	0.0	121.57093596458435	2.4995479583740234
4	63.766501903533936	pulse	1	t		2.0	2.5	/experiments/AOT/AOT_stimuli/rescaled_final/1714_rv.mp4	0.0	122.3544008731842	
4	65.3650209903717	pulse	1	t		2.0	2.5	/experiments/AOT/AOT_stimuli/rescaled_final/1714_rv.mp4	0.0	123.95291996002197	
4	65.4825849533081	fix_post	2		12	2.0	2.5	/experiments/AOT/AOT_stimuli/rescaled_final/1714_rv.mp4	0.0	124.07048392295837	0.10038495063781738
5	65.58296990394592	fix_pre	0		120	3.0	2.5	/experiments/AOT/AOT_stimuli/rescaled_final/2159_fw.mp4	0.0	124.17086887359619	1.0000159740447998
5	66.58298587799072	movie	1		243	3.0	2.5	/experiments/AOT/AOT_stimuli/rescaled_final/2159_fw.mp4	0.0	125.17088484764099	2.5000500679016113
5	66.96607208251953	pulse	1	t		3.0	2.5	/experiments/AOT/AOT_stimuli/rescaled_final/2159_fw.mp4	0.0	125.5539710521698	
5	68.56645393371582	pulse	1	t		3.0	2.5	/experiments/AOT/AOT_stimuli/rescaled_final/2159_fw.mp4	0.0	127.15435290336609	
5	69.08303594589233	fix_post	2		12	3.0	2.5	/experiments/AOT/AOT_stimuli/rescaled_final/2159_fw.mp4	0.0	127.6709349155426	0.09995913505554199
6	69.18299508094788	fix_pre	0		119	4.0	2.5	/experiments/AOT/AOT_stimuli/rescaled_final/1209_fw.mp4	0.0	127.77089405059814	0.9915997982025146
6	70.1664628982544	pulse	0	t		4.0	2.5	/experiments/AOT/AOT_stimuli/rescaled_final/1209_fw.mp4	0.0	128.75436186790466	
6	70.17459487915039	movie	1		247	4.0	2.5	/experiments/AOT/AOT_stimuli/rescaled_final/1209_fw.mp4	0.0	128.76249384880066	2.508316993713379
6	71.76612591743469	pulse	1	t		4.0	2.5	/experiments/AOT/AOT_stimuli/rescaled_final/1209_fw.mp4	0.0	130.35402488708496	
6	72.68291187286377	fix_post	2		12	4.0	2.5	/experiments/AOT/AOT_stimuli/rescaled_final/1209_fw.mp4	0.0	131.27081084251404	0.10002017021179199
7	72.78293204307556	fix_pre	0		120	5.0	2.5	/experiments/AOT/AOT_stimuli/rescaled_final/1965_fw.mp4	0.0	131.37083101272583	0.9999868869781494
7	73.36640501022339	pulse	0	t		5.0	2.5	/experiments/AOT/AOT_stimuli/rescaled_final/1965_fw.mp4	0.0	131.95430397987366	
7	73.78291893005371	movie	1		246	5.0	2.5	/experiments/AOT/AOT_stimuli/rescaled_final/1965_fw.mp4	0.0	132.37081789970398	2.4999470710754395
7	74.96637606620789	pulse	1	t		5.0	2.5	/experiments/AOT/AOT_stimuli/rescaled_final/1965_fw.mp4	0.0	133.55427503585815	
7	76.28286600112915	fix_post	2		12	5.0	2.5	/experiments/AOT/AOT_stimuli/rescaled_final/1965_fw.mp4	0.0	134.87076497077942	0.10000300407409668
8	76.38286900520325	fix_pre	0		120	6.0	2.5	blank	1.0	134.97076797485352	1.0001070499420166
8	76.56633305549622	pulse	0	t		6.0	2.5	blank	1.0	135.15423202514648	
8	77.38297605514526	movie	1		300	6.0	2.5	blank	1.0	135.97087502479553	2.4998679161071777
8	78.16647291183472	pulse	1	t		6.0	2.5	blank	1.0	136.75437188148499	
8	79.76640796661377	pulse	1	t		6.0	2.5	blank	1.0	138.35430693626404	
8	79.88284397125244	fix_post	2		12	6.0	2.5	blank	1.0	138.4707429409027	0.10004305839538574
9	79.98288702964783	fix_pre	0		120	7.0	2.5	/experiments/AOT/AOT_stimuli/rescaled_final/1898_fw.mp4	0.0	138.5707859992981	1.0000059604644775
9	80.9828929901123	movie	1		244	7.0	2.5	/experiments/AOT/AOT_stimuli/rescaled_final/1898_fw.mp4	0.0	139.57079195976257	2.499595880508423
9	81.36605596542358	pulse	1	t		7.0	2.5	/experiments/AOT/AOT_stimuli/rescaled_final/1898_fw.mp4	0.0	139.95395493507385	
9	82.96641802787781	pulse	1	t		7.0	2.5	/experiments/AOT/AOT_stimuli/rescaled_final/1898_fw.mp4	0.0	141.55431699752808	
9	83.48248887062073	fix_post	2		12	7.0	2.5	/experiments/AOT/AOT_stimuli/rescaled_final/1898_fw.mp4	0.0	142.070387840271	0.1004021167755127
10	83.58289098739624	fix_pre	0		119	8.0	2.5	/experiments/AOT/AOT_stimuli/rescaled_final/1987_fw.mp4	0.0	142.1707899570465	0.9916729927062988
10	84.5663640499115	pulse	0	t		8.0	2.5	/experiments/AOT/AOT_stimuli/rescaled_final/1987_fw.mp4	0.0	143.15426301956177	
10	84.57456398010254	movie	1		244	8.0	2.5	/experiments/AOT/AOT_stimuli/rescaled_final/1987_fw.mp4	0.0	143.1624629497528	2.508297920227051
10	86.16597199440002	pulse	1	t		8.0	2.5	/experiments/AOT/AOT_stimuli/rescaled_final/1987_fw.mp4	0.0	144.7538709640503	
10	87.08286190032959	fix_post	2		12	8.0	2.5	/experiments/AOT/AOT_stimuli/rescaled_final/1987_fw.mp4	0.0	145.67076086997986	0.10005402565002441
11	87.18291592597961	fix_pre	0		120	9.0	2.5	/experiments/AOT/AOT_stimuli/rescaled_final/0321_fw.mp4	0.0	145.77081489562988	0.9999971389770508
11	87.76632905006409	pulse	0	t		9.0	2.5	/experiments/AOT/AOT_stimuli/rescaled_final/0321_fw.mp4	0.0	146.35422801971436	
11	88.18291306495667	movie	1		243	9.0	2.5	/experiments/AOT/AOT_stimuli/rescaled_final/0321_fw.mp4	0.0	146.77081203460693	2.4999778270721436
11	89.36640000343323	pulse	1	t		9.0	2.5	/experiments/AOT/AOT_stimuli/rescaled_final/0321_fw.mp4	0.0	147.9542989730835	
11	90.68289089202881	fix_post	2		12	9.0	2.5	/experiments/AOT/AOT_stimuli/rescaled_final/0321_fw.mp4	0.0	149.27078986167908	0.09997916221618652
12	90.782870054245	fix_pre	0		120	10.0	2.5	/experiments/AOT/AOT_stimuli/rescaled_final/1134_fw.mp4	0.0	149.37076902389526	0.9998738765716553
12	90.96634793281555	pulse	0	t		10.0	2.5	/experiments/AOT/AOT_stimuli/rescaled_final/1134_fw.mp4	0.0	149.55424690246582	
12	91.78274393081665	movie	1		244	10.0	2.5	/experiments/AOT/AOT_stimuli/rescaled_final/1134_fw.mp4	0.0	150.37064290046692	2.5000741481781006
12	92.56631588935852	pulse	1	t		10.0	2.5	/experiments/AOT/AOT_stimuli/rescaled_final/1134_fw.mp4	0.0	151.1542148590088	
12	94.16495990753174	pulse	1	t		10.0	2.5	/experiments/AOT/AOT_stimuli/rescaled_final/1134_fw.mp4	0.0	152.752858877182	
12	94.28281807899475	fix_post	2		12	10.0	2.5	/experiments/AOT/AOT_stimuli/rescaled_final/1134_fw.mp4	0.0	152.87071704864502	0.10001683235168457
13	94.38283491134644	fix_pre	0		120	11.0	2.5	/experiments/AOT/AOT_stimuli/rescaled_final/2121_rv.mp4	0.0	152.9707338809967	1.0001170635223389
13	95.38295197486877	movie	1		244	11.0	2.5	/experiments/AOT/AOT_stimuli/rescaled_final/2121_rv.mp4	0.0	153.97085094451904	2.499605894088745
13	95.76755809783936	pulse	1	t		11.0	2.5	/experiments/AOT/AOT_stimuli/rescaled_final/2121_rv.mp4	0.0	154.35545706748962	
13	97.36584997177124	pulse	1	t		11.0	2.5	/experiments/AOT/AOT_stimuli/rescaled_final/2121_rv.mp4	0.0	155.9537489414215	
13	97.88255786895752	fix_post	2		12	11.0	2.5	/experiments/AOT/AOT_stimuli/rescaled_final/2121_rv.mp4	0.0	156.4704568386078	0.1000511646270752
14	97.9826090335846	fix_pre	0		119	12.0	2.5	/experiments/AOT/AOT_stimuli/rescaled_final/0255_fw.mp4	0.0	156.57050800323486	0.9917900562286377
14	98.96627497673035	pulse	0	t		12.0	2.5	/experiments/AOT/AOT_stimuli/rescaled_final/0255_fw.mp4	0.0	157.55417394638062	
14	98.97439908981323	movie	1		244	12.0	2.5	/experiments/AOT/AOT_stimuli/rescaled_final/0255_fw.mp4	0.0	157.5622980594635	2.5084359645843506
14	100.56584405899048	pulse	1	t		12.0	2.5	/experiments/AOT/AOT_stimuli/rescaled_final/0255_fw.mp4	0.0	159.15374302864075	
14	101.48283505439758	fix_post	2		12	12.0	2.5	/experiments/AOT/AOT_stimuli/rescaled_final/0255_fw.mp4	0.0	160.07073402404785	0.09996700286865234
15	101.58280205726624	fix_pre	0		120	13.0	2.5	/experiments/AOT/AOT_stimuli/rescaled_final/1843_rv.mp4	0.0	160.1707010269165	1.000079870223999
15	102.16631889343262	pulse	0	t		13.0	2.5	/experiments/AOT/AOT_stimuli/rescaled_final/1843_rv.mp4	0.0	160.75421786308289	
15	102.58288192749023	movie	1		243	13.0	2.5	/experiments/AOT/AOT_stimuli/rescaled_final/1843_rv.mp4	0.0	161.1707808971405	2.4998409748077393
15	103.76623487472534	pulse	1	t		13.0	2.5	/experiments/AOT/AOT_stimuli/rescaled_final/1843_rv.mp4	0.0	162.3541338443756	
15	105.08272290229797	fix_post	2		12	13.0	2.5	/experiments/AOT/AOT_stimuli/rescaled_final/1843_rv.mp4	0.0	163.67062187194824	0.1000521183013916
16	105.18277502059937	fix_pre	0		120	14.0	2.5	blank	1.0	163.77067399024963	0.9999799728393555
16	105.36625099182129	pulse	0	t		14.0	2.5	blank	1.0	163.95414996147156	
16	106.18275499343872	movie	1		300	14.0	2.5	blank	1.0	164.770653963089	2.4999780654907227
16	106.96619391441345	pulse	1	t		14.0	2.5	blank	1.0	165.55409288406372	
16	108.5661780834198	pulse	1	t		14.0	2.5	blank	1.0	167.15407705307007	
16	108.68273305892944	fix_post	2		12	14.0	2.5	blank	1.0	167.2706320285797	0.09997081756591797
17	108.78270387649536	fix_pre	0		120	15.0	2.5	/experiments/AOT/AOT_stimuli/rescaled_final/0735_fw.mp4	0.0	167.37060284614563	1.0000190734863281
17	109.78272294998169	movie	1		245	15.0	2.5	/experiments/AOT/AOT_stimuli/rescaled_final/0735_fw.mp4	0.0	168.37062191963196	2.4999890327453613
17	110.16753792762756	pulse	1	t		15.0	2.5	/experiments/AOT/AOT_stimuli/rescaled_final/0735_fw.mp4	0.0	168.75543689727783	
17	111.76616096496582	pulse	1	t		15.0	2.5	/experiments/AOT/AOT_stimuli/rescaled_final/0735_fw.mp4	0.0	170.3540599346161	
17	112.28271198272705	fix_post	2		12	15.0	2.5	/experiments/AOT/AOT_stimuli/rescaled_final/0735_fw.mp4	0.0	170.87061095237732	0.0999610424041748
18	112.38267302513123	fix_pre	0		119	16.0	2.5	/experiments/AOT/AOT_stimuli/rescaled_final/0767_fw.mp4	0.0	170.9705719947815	0.9916548728942871
18	113.36624598503113	pulse	0	t		16.0	2.5	/experiments/AOT/AOT_stimuli/rescaled_final/0767_fw.mp4	0.0	171.9541449546814	
18	113.37432789802551	movie	1		247	16.0	2.5	/experiments/AOT/AOT_stimuli/rescaled_final/0767_fw.mp4	0.0	171.96222686767578	2.508423089981079
18	114.96578788757324	pulse	1	t		16.0	2.5	/experiments/AOT/AOT_stimuli/rescaled_final/0767_fw.mp4	0.0	173.5536868572235	
18	115.88275098800659	fix_post	2		12	16.0	2.5	/experiments/AOT/AOT_stimuli/rescaled_final/0767_fw.mp4	0.0	174.47064995765686	0.09993290901184082
19	115.98268389701843	fix_pre	0		120	17.0	2.5	/experiments/AOT/AOT_stimuli/rescaled_final/1707_rv.mp4	0.0	174.5705828666687	1.000075101852417
19	116.56624102592468	pulse	0	t		17.0	2.5	/experiments/AOT/AOT_stimuli/rescaled_final/1707_rv.mp4	0.0	175.15413999557495	
19	116.98275899887085	movie	1		244	17.0	2.5	/experiments/AOT/AOT_stimuli/rescaled_final/1707_rv.mp4	0.0	175.57065796852112	2.499933958053589
19	118.16631293296814	pulse	1	t		17.0	2.5	/experiments/AOT/AOT_stimuli/rescaled_final/1707_rv.mp4	0.0	176.7542119026184	
19	119.48269295692444	fix_post	2		12	17.0	2.5	/experiments/AOT/AOT_stimuli/rescaled_final/1707_rv.mp4	0.0	178.0705919265747	0.10003399848937988
20	119.58272695541382	fix_pre	0		120	18.0	2.5	/experiments/AOT/AOT_stimuli/rescaled_final/0716_rv.mp4	0.0	178.1706259250641	0.9999799728393555
20	119.76625299453735	pulse	0	t		18.0	2.5	/experiments/AOT/AOT_stimuli/rescaled_final/0716_rv.mp4	0.0	178.35415196418762	
20	120.58270692825317	movie	1		245	18.0	2.5	/experiments/AOT/AOT_stimuli/rescaled_final/0716_rv.mp4	0.0	179.17060589790344	2.4999799728393555
20	121.36619997024536	pulse	1	t		18.0	2.5	/experiments/AOT/AOT_stimuli/rescaled_final/0716_rv.mp4	0.0	179.95409893989563	
20	122.96570992469788	pulse	1	t		18.0	2.5	/experiments/AOT/AOT_stimuli/rescaled_final/0716_rv.mp4	0.0	181.55360889434814	
20	123.08268690109253	fix_post	2		12	18.0	2.5	/experiments/AOT/AOT_stimuli/rescaled_final/0716_rv.mp4	0.0	181.6705858707428	0.09954714775085449
21	123.18223404884338	fix_pre	0		120	19.0	2.5	blank	1.0	181.77013301849365	1.000417947769165
21	124.18265199661255	movie	1		300	19.0	2.5	blank	1.0	182.77055096626282	2.5000240802764893
21	124.56617999076843	pulse	1	t		19.0	2.5	blank	1.0	183.1540789604187	
21	126.16611289978027	pulse	1	t		19.0	2.5	blank	1.0	184.75401186943054	
21	126.68267607688904	fix_post	2		12	19.0	2.5	blank	1.0	185.2705750465393	0.09994196891784668
22	126.78261804580688	fix_pre	0		119	20.0	2.5	/experiments/AOT/AOT_stimuli/rescaled_final/1107_rv.mp4	0.0	185.37051701545715	0.9916830062866211
22	127.76608896255493	pulse	0	t		20.0	2.5	/experiments/AOT/AOT_stimuli/rescaled_final/1107_rv.mp4	0.0	186.3539879322052	
22	127.7743010520935	movie	1		244	20.0	2.5	/experiments/AOT/AOT_stimuli/rescaled_final/1107_rv.mp4	0.0	186.36220002174377	2.5084118843078613
22	129.36587190628052	pulse	1	t		20.0	2.5	/experiments/AOT/AOT_stimuli/rescaled_final/1107_rv.mp4	0.0	187.9537708759308	
22	130.28271293640137	fix_post	2		12	20.0	2.5	/experiments/AOT/AOT_stimuli/rescaled_final/1107_rv.mp4	0.0	188.87061190605164	0.09990596771240234
23	130.38261890411377	fix_pre	0		120	21.0	2.5	/experiments/AOT/AOT_stimuli/rescaled_final/1150_rv.mp4	0.0	188.97051787376404	1.0000431537628174
23	130.96620893478394	pulse	0	t		21.0	2.5	/experiments/AOT/AOT_stimuli/rescaled_final/1150_rv.mp4	0.0	189.5541079044342	
23	131.3826620578766	movie	1		243	21.0	2.5	/experiments/AOT/AOT_stimuli/rescaled_final/1150_rv.mp4	0.0	189.97056102752686	2.4999990463256836
23	132.56621503829956	pulse	1	t		21.0	2.5	/experiments/AOT/AOT_stimuli/rescaled_final/1150_rv.mp4	0.0	191.15411400794983	
23	133.88266110420227	fix_post	2		12	21.0	2.5	/experiments/AOT/AOT_stimuli/rescaled_final/1150_rv.mp4	0.0	192.47056007385254	0.0999288558959961
24	133.98258996009827	fix_pre	0		120	22.0	2.5	/experiments/AOT/AOT_stimuli/rescaled_final/1550_fw.mp4	0.0	192.57048892974854	1.0000150203704834
24	134.16616797447205	pulse	0	t		22.0	2.5	/experiments/AOT/AOT_stimuli/rescaled_final/1550_fw.mp4	0.0	192.75406694412231	
24	134.98260498046875	movie	1		246	22.0	2.5	/experiments/AOT/AOT_stimuli/rescaled_final/1550_fw.mp4	0.0	193.57050395011902	2.500051975250244
24	135.76608610153198	pulse	1	t		22.0	2.5	/experiments/AOT/AOT_stimuli/rescaled_final/1550_fw.mp4	0.0	194.35398507118225	
24	137.36562991142273	pulse	1	t		22.0	2.5	/experiments/AOT/AOT_stimuli/rescaled_final/1550_fw.mp4	0.0	195.953528881073	
24	137.482656955719	fix_post	2		12	22.0	2.5	/experiments/AOT/AOT_stimuli/rescaled_final/1550_fw.mp4	0.0	196.07055592536926	0.09996795654296875
25	137.58262491226196	fix_pre	0		120	23.0	2.5	/experiments/AOT/AOT_stimuli/rescaled_final/1034_rv.mp4	0.0	196.17052388191223	0.9999501705169678
25	138.58257508277893	movie	1		248	23.0	2.5	/experiments/AOT/AOT_stimuli/rescaled_final/1034_rv.mp4	0.0	197.1704740524292	2.500065803527832
25	138.96562504768372	pulse	1	t		23.0	2.5	/experiments/AOT/AOT_stimuli/rescaled_final/1034_rv.mp4	0.0	197.55352401733398	
25	140.56606888771057	pulse	1	t		23.0	2.5	/experiments/AOT/AOT_stimuli/rescaled_final/1034_rv.mp4	0.0	199.15396785736084	
25	141.08264088630676	fix_post	2		12	23.0	2.5	/experiments/AOT/AOT_stimuli/rescaled_final/1034_rv.mp4	0.0	199.67053985595703	0.09995007514953613
26	141.1825909614563	fix_pre	0		119	24.0	2.5	/experiments/AOT/AOT_stimuli/rescaled_final/0073_rv.mp4	0.0	199.77048993110657	0.9916839599609375
26	142.16605496406555	pulse	0	t		24.0	2.5	/experiments/AOT/AOT_stimuli/rescaled_final/0073_rv.mp4	0.0	200.75395393371582	
26	142.17427492141724	movie	1		245	24.0	2.5	/experiments/AOT/AOT_stimuli/rescaled_final/0073_rv.mp4	0.0	200.7621738910675	2.5082881450653076
26	143.7671239376068	pulse	1	t		24.0	2.5	/experiments/AOT/AOT_stimuli/rescaled_final/0073_rv.mp4	0.0	202.35502290725708	
26	144.68256306648254	fix_post	2		12	24.0	2.5	/experiments/AOT/AOT_stimuli/rescaled_final/0073_rv.mp4	0.0	203.2704620361328	0.09996700286865234
27	144.7825300693512	fix_pre	0		120	25.0	2.5	/experiments/AOT/AOT_stimuli/rescaled_final/1026_fw.mp4	0.0	203.37042903900146	1.000032901763916
27	145.36606287956238	pulse	0	t		25.0	2.5	/experiments/AOT/AOT_stimuli/rescaled_final/1026_fw.mp4	0.0	203.95396184921265	
27	145.7825629711151	movie	1		245	25.0	2.5	/experiments/AOT/AOT_stimuli/rescaled_final/1026_fw.mp4	0.0	204.37046194076538	2.500040054321289
27	146.9662880897522	pulse	1	t		25.0	2.5	/experiments/AOT/AOT_stimuli/rescaled_final/1026_fw.mp4	0.0	205.55418705940247	
27	148.2826030254364	fix_post	2		12	25.0	2.5	/experiments/AOT/AOT_stimuli/rescaled_final/1026_fw.mp4	0.0	206.87050199508667	0.09988903999328613
28	148.3824920654297	fix_pre	0		120	26.0	2.5	/experiments/AOT/AOT_stimuli/rescaled_final/0671_rv.mp4	0.0	206.97039103507996	1.0000498294830322
28	148.56601691246033	pulse	0	t		26.0	2.5	/experiments/AOT/AOT_stimuli/rescaled_final/0671_rv.mp4	0.0	207.1539158821106	
28	149.38254189491272	movie	1		247	26.0	2.5	/experiments/AOT/AOT_stimuli/rescaled_final/0671_rv.mp4	0.0	207.970440864563	2.500044107437134
28	150.16597509384155	pulse	1	t		26.0	2.5	/experiments/AOT/AOT_stimuli/rescaled_final/0671_rv.mp4	0.0	208.75387406349182	
28	151.76581501960754	pulse	1	t		26.0	2.5	/experiments/AOT/AOT_stimuli/rescaled_final/0671_rv.mp4	0.0	210.3537139892578	
28	151.88258600234985	fix_post	2		12	26.0	2.5	/experiments/AOT/AOT_stimuli/rescaled_final/0671_rv.mp4	0.0	210.47048497200012	0.09959197044372559
29	151.98217797279358	fix_pre	0		120	27.0	2.5	/experiments/AOT/AOT_stimuli/rescaled_final/1661_rv.mp4	0.0	210.57007694244385	1.0000109672546387
29	152.98218894004822	movie	1		243	27.0	2.5	/experiments/AOT/AOT_stimuli/rescaled_final/1661_rv.mp4	0.0	211.5700879096985	2.5003931522369385
29	153.36560988426208	pulse	1	t		27.0	2.5	/experiments/AOT/AOT_stimuli/rescaled_final/1661_rv.mp4	0.0	211.95350885391235	
29	154.9659070968628	pulse	1	t		27.0	2.5	/experiments/AOT/AOT_stimuli/rescaled_final/1661_rv.mp4	0.0	213.55380606651306	
29	155.48258209228516	fix_post	2		12	27.0	2.5	/experiments/AOT/AOT_stimuli/rescaled_final/1661_rv.mp4	0.0	214.07048106193542	0.09992098808288574
30	155.58250308036804	fix_pre	0		119	28.0	2.5	blank	1.0	214.1704020500183	0.9917199611663818
30	156.5660150051117	pulse	0	t		28.0	2.5	blank	1.0	215.15391397476196	
30	156.57422304153442	movie	1		301	28.0	2.5	blank	1.0	215.1621220111847	2.5082998275756836
30	158.16602206230164	pulse	1	t		28.0	2.5	blank	1.0	216.7539210319519	
30	159.0825228691101	fix_post	2		12	28.0	2.5	blank	1.0	217.67042183876038	0.09995913505554199
31	159.18248200416565	fix_pre	0		120	29.0	2.5	/experiments/AOT/AOT_stimuli/rescaled_final/1711_rv.mp4	0.0	217.77038097381592	0.9997310638427734
31	159.76598596572876	pulse	0	t		29.0	2.5	/experiments/AOT/AOT_stimuli/rescaled_final/1711_rv.mp4	0.0	218.35388493537903	
31	160.18221306800842	movie	1		247	29.0	2.5	/experiments/AOT/AOT_stimuli/rescaled_final/1711_rv.mp4	0.0	218.7701120376587	2.5002918243408203
31	161.3660318851471	pulse	1	t		29.0	2.5	/experiments/AOT/AOT_stimuli/rescaled_final/1711_rv.mp4	0.0	219.95393085479736	
31	162.68250489234924	fix_post	2		12	29.0	2.5	/experiments/AOT/AOT_stimuli/rescaled_final/1711_rv.mp4	0.0	221.2704038619995	0.10002517700195312
32	162.7825300693512	fix_pre	0		120	30.0	2.5	/experiments/AOT/AOT_stimuli/rescaled_final/1266_fw.mp4	0.0	221.37042903900146	0.9995439052581787
32	162.96598196029663	pulse	0	t		30.0	2.5	/experiments/AOT/AOT_stimuli/rescaled_final/1266_fw.mp4	0.0	221.5538809299469	
32	163.78207397460938	movie	1		246	30.0	2.5	/experiments/AOT/AOT_stimuli/rescaled_final/1266_fw.mp4	0.0	222.36997294425964	2.5004971027374268
32	164.5658369064331	pulse	1	t		30.0	2.5	/experiments/AOT/AOT_stimuli/rescaled_final/1266_fw.mp4	0.0	223.15373587608337	
32	166.16623997688293	pulse	1	t		30.0	2.5	/experiments/AOT/AOT_stimuli/rescaled_final/1266_fw.mp4	0.0	224.7541389465332	
32	166.2825710773468	fix_post	2		12	30.0	2.5	/experiments/AOT/AOT_stimuli/rescaled_final/1266_fw.mp4	0.0	224.87047004699707	0.0998389720916748
33	166.38241004943848	fix_pre	0		120	31.0	2.5	/experiments/AOT/AOT_stimuli/rescaled_final/2063_rv.mp4	0.0	224.97030901908875	1.0000598430633545
33	167.38246989250183	movie	1		244	31.0	2.5	/experiments/AOT/AOT_stimuli/rescaled_final/2063_rv.mp4	0.0	225.9703688621521	2.4999711513519287
33	167.7657608985901	pulse	1	t		31.0	2.5	/experiments/AOT/AOT_stimuli/rescaled_final/2063_rv.mp4	0.0	226.35365986824036	
33	169.3658390045166	pulse	1	t		31.0	2.5	/experiments/AOT/AOT_stimuli/rescaled_final/2063_rv.mp4	0.0	227.95373797416687	
33	169.88244104385376	fix_post	2		12	31.0	2.5	/experiments/AOT/AOT_stimuli/rescaled_final/2063_rv.mp4	0.0	228.47034001350403	0.10001897811889648
34	169.98246002197266	fix_pre	0		119	32.0	2.5	/experiments/AOT/AOT_stimuli/rescaled_final/1454_fw.mp4	0.0	228.57035899162292	0.9916789531707764
34	170.96594309806824	pulse	0	t		32.0	2.5	/experiments/AOT/AOT_stimuli/rescaled_final/1454_fw.mp4	0.0	229.5538420677185	
34	170.97413897514343	movie	1		245	32.0	2.5	/experiments/AOT/AOT_stimuli/rescaled_final/1454_fw.mp4	0.0	229.5620379447937	2.5084259510040283
34	172.56575298309326	pulse	1	t		32.0	2.5	/experiments/AOT/AOT_stimuli/rescaled_final/1454_fw.mp4	0.0	231.15365195274353	
34	173.48256492614746	fix_post	2		12	32.0	2.5	/experiments/AOT/AOT_stimuli/rescaled_final/1454_fw.mp4	0.0	232.07046389579773	0.09985613822937012
35	173.58242106437683	fix_pre	0		120	33.0	2.5	/experiments/AOT/AOT_stimuli/rescaled_final/0459_rv.mp4	0.0	232.1703200340271	1.00006103515625
35	174.165874004364	pulse	0	t		33.0	2.5	/experiments/AOT/AOT_stimuli/rescaled_final/0459_rv.mp4	0.0	232.75377297401428	
35	174.58248209953308	movie	1		244	33.0	2.5	/experiments/AOT/AOT_stimuli/rescaled_final/0459_rv.mp4	0.0	233.17038106918335	2.4998779296875
35	175.76591205596924	pulse	1	t		33.0	2.5	/experiments/AOT/AOT_stimuli/rescaled_final/0459_rv.mp4	0.0	234.3538110256195	
35	177.08236002922058	fix_post	2		12	33.0	2.5	/experiments/AOT/AOT_stimuli/rescaled_final/0459_rv.mp4	0.0	235.67025899887085	0.10011005401611328
36	177.1824700832367	fix_pre	0		120	34.0	2.5	blank	1.0	235.77036905288696	0.9995110034942627
36	177.3659200668335	pulse	0	t		34.0	2.5	blank	1.0	235.95381903648376	
36	178.18198108673096	movie	1		300	34.0	2.5	blank	1.0	236.76988005638123	2.500393867492676
36	178.96587991714478	pulse	1	t		34.0	2.5	blank	1.0	237.55377888679504	
36	180.5657560825348	pulse	1	t		34.0	2.5	blank	1.0	239.15365505218506	
36	180.68237495422363	fix_post	2		12	34.0	2.5	blank	1.0	239.2702739238739	0.1000981330871582
37	180.7824730873108	fix_pre	0		120	35.0	2.5	/experiments/AOT/AOT_stimuli/rescaled_final/0943_rv.mp4	0.0	239.37037205696106	0.9999499320983887
37	181.78242301940918	movie	1		244	35.0	2.5	/experiments/AOT/AOT_stimuli/rescaled_final/0943_rv.mp4	0.0	240.37032198905945	2.500014066696167
37	182.165461063385	pulse	1	t		35.0	2.5	/experiments/AOT/AOT_stimuli/rescaled_final/0943_rv.mp4	0.0	240.75336003303528	
37	183.7658669948578	pulse	1	t		35.0	2.5	/experiments/AOT/AOT_stimuli/rescaled_final/0943_rv.mp4	0.0	242.35376596450806	
37	184.28243708610535	fix_post	2		12	35.0	2.5	/experiments/AOT/AOT_stimuli/rescaled_final/0943_rv.mp4	0.0	242.87033605575562	0.09998488426208496
38	184.38242197036743	fix_pre	0		119	36.0	2.5	/experiments/AOT/AOT_stimuli/rescaled_final/0073_fw.mp4	0.0	242.9703209400177	0.991642951965332
38	185.36586904525757	pulse	0	t		36.0	2.5	/experiments/AOT/AOT_stimuli/rescaled_final/0073_fw.mp4	0.0	243.95376801490784	
38	185.37406492233276	movie	1		247	36.0	2.5	/experiments/AOT/AOT_stimuli/rescaled_final/0073_fw.mp4	0.0	243.96196389198303	2.5083539485931396
38	186.96574687957764	pulse	1	t		36.0	2.5	/experiments/AOT/AOT_stimuli/rescaled_final/0073_fw.mp4	0.0	245.5536458492279	
38	187.8824188709259	fix_post	2		12	36.0	2.5	/experiments/AOT/AOT_stimuli/rescaled_final/0073_fw.mp4	0.0	246.47031784057617	0.09992623329162598
39	187.98234510421753	fix_pre	0		120	37.0	2.5	/experiments/AOT/AOT_stimuli/rescaled_final/1214_rv.mp4	0.0	246.5702440738678	1.0000638961791992
39	188.56587505340576	pulse	0	t		37.0	2.5	/experiments/AOT/AOT_stimuli/rescaled_final/1214_rv.mp4	0.0	247.15377402305603	
39	188.98240900039673	movie	1		243	37.0	2.5	/experiments/AOT/AOT_stimuli/rescaled_final/1214_rv.mp4	0.0	247.570307970047	2.499903917312622
39	190.16596007347107	pulse	1	t		37.0	2.5	/experiments/AOT/AOT_stimuli/rescaled_final/1214_rv.mp4	0.0	248.75385904312134	
39	191.48231291770935	fix_post	2		12	37.0	2.5	/experiments/AOT/AOT_stimuli/rescaled_final/1214_rv.mp4	0.0	250.07021188735962	0.0999610424041748
40	191.58227396011353	fix_pre	0		120	38.0	2.5	/experiments/AOT/AOT_stimuli/rescaled_final/1195_fw.mp4	0.0	250.1701729297638	0.999643087387085
40	191.76584601402283	pulse	0	t		38.0	2.5	/experiments/AOT/AOT_stimuli/rescaled_final/1195_fw.mp4	0.0	250.3537449836731	
40	192.5819170475006	movie	1		243	38.0	2.5	/experiments/AOT/AOT_stimuli/rescaled_final/1195_fw.mp4	0.0	251.16981601715088	2.499953031539917
40	193.365797996521	pulse	1	t		38.0	2.5	/experiments/AOT/AOT_stimuli/rescaled_final/1195_fw.mp4	0.0	251.95369696617126	
40	194.9646918773651	pulse	1	t		38.0	2.5	/experiments/AOT/AOT_stimuli/rescaled_final/1195_fw.mp4	0.0	253.55259084701538	
40	195.08187007904053	fix_post	2		12	38.0	2.5	/experiments/AOT/AOT_stimuli/rescaled_final/1195_fw.mp4	0.0	253.6697690486908	0.10048985481262207
41	195.18235993385315	fix_pre	0		120	39.0	2.5	/experiments/AOT/AOT_stimuli/rescaled_final/1213_fw.mp4	0.0	253.77025890350342	0.99989914894104
41	196.1822590827942	movie	1		243	39.0	2.5	/experiments/AOT/AOT_stimuli/rescaled_final/1213_fw.mp4	0.0	254.77015805244446	2.500105857849121
41	196.56520199775696	pulse	1	t		39.0	2.5	/experiments/AOT/AOT_stimuli/rescaled_final/1213_fw.mp4	0.0	255.15310096740723	
41	198.1657738685608	pulse	1	t		39.0	2.5	/experiments/AOT/AOT_stimuli/rescaled_final/1213_fw.mp4	0.0	256.75367283821106	
41	198.6823649406433	fix_post	2		12	39.0	2.5	/experiments/AOT/AOT_stimuli/rescaled_final/1213_fw.mp4	0.0	257.2702639102936	0.10004305839538574
42	198.7824079990387	fix_pre	0		119	40.0	2.5	/experiments/AOT/AOT_stimuli/rescaled_final/0671_fw.mp4	0.0	257.37030696868896	0.9916238784790039
42	199.76581001281738	pulse	0	t		40.0	2.5	/experiments/AOT/AOT_stimuli/rescaled_final/0671_fw.mp4	0.0	258.35370898246765	
42	199.7740318775177	movie	1		245	40.0	2.5	/experiments/AOT/AOT_stimuli/rescaled_final/0671_fw.mp4	0.0	258.36193084716797	2.5082671642303467
42	201.36551189422607	pulse	1	t		40.0	2.5	/experiments/AOT/AOT_stimuli/rescaled_final/0671_fw.mp4	0.0	259.95341086387634	
42	202.28229904174805	fix_post	2		12	40.0	2.5	/experiments/AOT/AOT_stimuli/rescaled_final/0671_fw.mp4	0.0	260.8701980113983	0.09994697570800781
43	202.38224601745605	fix_pre	0		120	41.0	2.5	blank	1.0	260.9701449871063	1.00010085105896
43	202.96579003334045	pulse	0	t		41.0	2.5	blank	1.0	261.5536890029907	
43	203.38234686851501	movie	1		300	41.0	2.5	blank	1.0	261.9702458381653	2.499911069869995
43	204.56584405899048	pulse	1	t		41.0	2.5	blank	1.0	263.15374302864075	
43	205.882257938385	fix_post	2		12	41.0	2.5	blank	1.0	264.4701569080353	0.10015606880187988
44	205.9824140071869	fix_pre	0		120	42.0	2.5	/experiments/AOT/AOT_stimuli/rescaled_final/0943_rv.mp4	0.0	264.57031297683716	0.9998960494995117
44	206.16590309143066	pulse	0	t		42.0	2.5	/experiments/AOT/AOT_stimuli/rescaled_final/0943_rv.mp4	0.0	264.75380206108093	
44	206.9823100566864	movie	1		244	42.0	2.5	/experiments/AOT/AOT_stimuli/rescaled_final/0943_rv.mp4	0.0	265.57020902633667	2.4996960163116455
44	207.76577305793762	pulse	1	t		42.0	2.5	/experiments/AOT/AOT_stimuli/rescaled_final/0943_rv.mp4	0.0	266.3536720275879	
44	209.36559796333313	pulse	1	t		42.0	2.5	/experiments/AOT/AOT_stimuli/rescaled_final/0943_rv.mp4	0.0	267.9534969329834	
44	209.48200607299805	fix_post	2		12	42.0	2.5	/experiments/AOT/AOT_stimuli/rescaled_final/0943_rv.mp4	0.0	268.0699050426483	0.10042500495910645
45	209.58243107795715	fix_pre	0		120	43.0	2.5	/experiments/AOT/AOT_stimuli/rescaled_final/1600_fw.mp4	0.0	268.1703300476074	0.9997158050537109
45	210.58214688301086	movie	1		245	43.0	2.5	/experiments/AOT/AOT_stimuli/rescaled_final/1600_fw.mp4	0.0	269.17004585266113	2.5001790523529053
45	210.96497797966003	pulse	1	t		43.0	2.5	/experiments/AOT/AOT_stimuli/rescaled_final/1600_fw.mp4	0.0	269.5528769493103	
45	212.56565308570862	pulse	1	t		43.0	2.5	/experiments/AOT/AOT_stimuli/rescaled_final/1600_fw.mp4	0.0	271.1535520553589	
45	213.08232593536377	fix_post	2		12	43.0	2.5	/experiments/AOT/AOT_stimuli/rescaled_final/1600_fw.mp4	0.0	271.67022490501404	0.10003304481506348
46	213.18235898017883	fix_pre	0		119	44.0	2.5	/experiments/AOT/AOT_stimuli/rescaled_final/0681_fw.mp4	0.0	271.7702579498291	0.9915380477905273
46	214.16578102111816	pulse	0	t		44.0	2.5	/experiments/AOT/AOT_stimuli/rescaled_final/0681_fw.mp4	0.0	272.75367999076843	
46	214.17389702796936	movie	1		246	44.0	2.5	/experiments/AOT/AOT_stimuli/rescaled_final/0681_fw.mp4	0.0	272.76179599761963	2.5082859992980957
46	215.76571702957153	pulse	1	t		44.0	2.5	/experiments/AOT/AOT_stimuli/rescaled_final/0681_fw.mp4	0.0	274.3536159992218	
46	216.68218302726746	fix_post	2		12	44.0	2.5	/experiments/AOT/AOT_stimuli/rescaled_final/0681_fw.mp4	0.0	275.2700819969177	0.1000208854675293
47	216.78220391273499	fix_pre	0		120	45.0	2.5	/experiments/AOT/AOT_stimuli/rescaled_final/0330_fw.mp4	0.0	275.37010288238525	0.9999761581420898
47	217.36567997932434	pulse	0	t		45.0	2.5	/experiments/AOT/AOT_stimuli/rescaled_final/0330_fw.mp4	0.0	275.9535789489746	
47	217.78218007087708	movie	1		243	45.0	2.5	/experiments/AOT/AOT_stimuli/rescaled_final/0330_fw.mp4	0.0	276.37007904052734	2.5000569820404053
47	218.96575093269348	pulse	1	t		45.0	2.5	/experiments/AOT/AOT_stimuli/rescaled_final/0330_fw.mp4	0.0	277.55364990234375	
47	220.28223705291748	fix_post	2		12	45.0	2.5	/experiments/AOT/AOT_stimuli/rescaled_final/0330_fw.mp4	0.0	278.87013602256775	0.09993696212768555
48	220.38217401504517	fix_pre	0		120	46.0	2.5	/experiments/AOT/AOT_stimuli/rescaled_final/0951_rv.mp4	0.0	278.97007298469543	1.000067949295044
48	220.56561994552612	pulse	0	t		46.0	2.5	/experiments/AOT/AOT_stimuli/rescaled_final/0951_rv.mp4	0.0	279.1535189151764	
48	221.3822419643402	movie	1		244	46.0	2.5	/experiments/AOT/AOT_stimuli/rescaled_final/0951_rv.mp4	0.0	279.9701409339905	2.4999570846557617
48	222.16575407981873	pulse	1	t		46.0	2.5	/experiments/AOT/AOT_stimuli/rescaled_final/0951_rv.mp4	0.0	280.753653049469	
48	223.76568293571472	pulse	1	t		46.0	2.5	/experiments/AOT/AOT_stimuli/rescaled_final/0951_rv.mp4	0.0	282.353581905365	
48	223.88219904899597	fix_post	2		12	46.0	2.5	/experiments/AOT/AOT_stimuli/rescaled_final/0951_rv.mp4	0.0	282.47009801864624	0.09999394416809082
49	223.98219299316406	fix_pre	0		120	47.0	2.5	/experiments/AOT/AOT_stimuli/rescaled_final/0334_rv.mp4	0.0	282.57009196281433	0.9995710849761963
49	224.98176407814026	movie	1		245	47.0	2.5	/experiments/AOT/AOT_stimuli/rescaled_final/0334_rv.mp4	0.0	283.5696630477905	2.5003747940063477
49	225.3651158809662	pulse	1	t		47.0	2.5	/experiments/AOT/AOT_stimuli/rescaled_final/0334_rv.mp4	0.0	283.95301485061646	
49	226.96558904647827	pulse	1	t		47.0	2.5	/experiments/AOT/AOT_stimuli/rescaled_final/0334_rv.mp4	0.0	285.55348801612854	
49	227.4821388721466	fix_post	2		12	47.0	2.5	/experiments/AOT/AOT_stimuli/rescaled_final/0334_rv.mp4	0.0	286.0700378417969	0.09997010231018066
50	227.5821089744568	fix_pre	0		119	48.0	2.5	/experiments/AOT/AOT_stimuli/rescaled_final/1454_rv.mp4	0.0	286.17000794410706	0.9916849136352539
50	228.56570386886597	pulse	0	t		48.0	2.5	/experiments/AOT/AOT_stimuli/rescaled_final/1454_rv.mp4	0.0	287.15360283851624	
50	228.57379388809204	movie	1		247	48.0	2.5	/experiments/AOT/AOT_stimuli/rescaled_final/1454_rv.mp4	0.0	287.1616928577423	2.507911205291748
50	230.16699504852295	pulse	1	t		48.0	2.5	/experiments/AOT/AOT_stimuli/rescaled_final/1454_rv.mp4	0.0	288.7548940181732	
50	231.0817050933838	fix_post	2		12	48.0	2.5	/experiments/AOT/AOT_stimuli/rescaled_final/1454_rv.mp4	0.0	289.66960406303406	0.10047078132629395
51	231.18217587471008	fix_pre	0		120	49.0	2.5	blank	1.0	289.77007484436035	0.99996018409729
51	231.7655680179596	pulse	0	t		49.0	2.5	blank	1.0	290.35346698760986	
51	232.18213605880737	movie	1		300	49.0	2.5	blank	1.0	290.77003502845764	2.5000438690185547
51	233.3656358718872	pulse	1	t		49.0	2.5	blank	1.0	291.9535348415375	
51	234.68217992782593	fix_post	2		12	49.0	2.5	blank	1.0	293.2700788974762	0.10002017021179199
52	234.78220009803772	fix_pre	0		120	50.0	2.5	/experiments/AOT/AOT_stimuli/rescaled_final/0585_fw.mp4	0.0	293.370099067688	0.9998888969421387
52	234.96566104888916	pulse	0	t		50.0	2.5	/experiments/AOT/AOT_stimuli/rescaled_final/0585_fw.mp4	0.0	293.55356001853943	
52	235.78208899497986	movie	1		244	50.0	2.5	/experiments/AOT/AOT_stimuli/rescaled_final/0585_fw.mp4	0.0	294.3699879646301	2.500080108642578
52	236.56557393074036	pulse	1	t		50.0	2.5	/experiments/AOT/AOT_stimuli/rescaled_final/0585_fw.mp4	0.0	295.1534729003906	
52	238.17403101921082	pulse	1	t		50.0	2.5	/experiments/AOT/AOT_stimuli/rescaled_final/0585_fw.mp4	0.0	296.7619299888611	
52	238.28216910362244	fix_post	2		12	50.0	2.5	/experiments/AOT/AOT_stimuli/rescaled_final/0585_fw.mp4	0.0	296.8700680732727	0.09954380989074707
53	238.38171291351318	fix_pre	0		120	51.0	2.5	/experiments/AOT/AOT_stimuli/rescaled_final/0036_fw.mp4	0.0	296.96961188316345	1.0003571510314941
53	239.38207006454468	movie	1		243	51.0	2.5	/experiments/AOT/AOT_stimuli/rescaled_final/0036_fw.mp4	0.0	297.96996903419495	2.500041961669922
53	239.76508593559265	pulse	1	t		51.0	2.5	/experiments/AOT/AOT_stimuli/rescaled_final/0036_fw.mp4	0.0	298.3529849052429	
53	241.36570000648499	pulse	1	t		51.0	2.5	/experiments/AOT/AOT_stimuli/rescaled_final/0036_fw.mp4	0.0	299.95359897613525	
53	241.8821120262146	fix_post	2		12	51.0	2.5	/experiments/AOT/AOT_stimuli/rescaled_final/0036_fw.mp4	0.0	300.47001099586487	0.10002398490905762
54	241.98213601112366	fix_pre	0		119	52.0	2.5	/experiments/AOT/AOT_stimuli/rescaled_final/0593_fw.mp4	0.0	300.5700349807739	0.9916560649871826
54	242.96554398536682	pulse	0	t		52.0	2.5	/experiments/AOT/AOT_stimuli/rescaled_final/0593_fw.mp4	0.0	301.5534429550171	
54	242.97379207611084	movie	1		244	52.0	2.5	/experiments/AOT/AOT_stimuli/rescaled_final/0593_fw.mp4	0.0	301.5616910457611	2.508378028869629
54	244.56522488594055	pulse	1	t		52.0	2.5	/experiments/AOT/AOT_stimuli/rescaled_final/0593_fw.mp4	0.0	303.1531238555908	
54	245.48217010498047	fix_post	2		12	52.0	2.5	/experiments/AOT/AOT_stimuli/rescaled_final/0593_fw.mp4	0.0	304.07006907463074	0.09996795654296875
55	245.58213806152344	fix_pre	0		120	53.0	2.5	/experiments/AOT/AOT_stimuli/rescaled_final/2058_rv.mp4	0.0	304.1700370311737	0.9999518394470215
55	246.16556906700134	pulse	0	t		53.0	2.5	/experiments/AOT/AOT_stimuli/rescaled_final/2058_rv.mp4	0.0	304.7534680366516	
55	246.58208990097046	movie	1		243	53.0	2.5	/experiments/AOT/AOT_stimuli/rescaled_final/2058_rv.mp4	0.0	305.1699888706207	2.499969005584717
55	247.76565098762512	pulse	1	t		53.0	2.5	/experiments/AOT/AOT_stimuli/rescaled_final/2058_rv.mp4	0.0	306.3535499572754	
55	249.08205890655518	fix_post	2		12	53.0	2.5	/experiments/AOT/AOT_stimuli/rescaled_final/2058_rv.mp4	0.0	307.66995787620544	0.10004901885986328
56	249.18210792541504	fix_pre	0		120	54.0	2.5	/experiments/AOT/AOT_stimuli/rescaled_final/0032_fw.mp4	0.0	307.7700068950653	1.0000131130218506
56	249.36558198928833	pulse	0	t		54.0	2.5	/experiments/AOT/AOT_stimuli/rescaled_final/0032_fw.mp4	0.0	307.9534809589386	
56	250.1821210384369	movie	1		245	54.0	2.5	/experiments/AOT/AOT_stimuli/rescaled_final/0032_fw.mp4	0.0	308.77002000808716	2.4995179176330566
56	250.9655740261078	pulse	1	t		54.0	2.5	/experiments/AOT/AOT_stimuli/rescaled_final/0032_fw.mp4	0.0	309.55347299575806	
56	252.57394695281982	pulse	1	t		54.0	2.5	/experiments/AOT/AOT_stimuli/rescaled_final/0032_fw.mp4	0.0	311.1618459224701	
56	252.68163895606995	fix_post	2		12	54.0	2.5	/experiments/AOT/AOT_stimuli/rescaled_final/0032_fw.mp4	0.0	311.2695379257202	0.1004490852355957
57	252.78208804130554	fix_pre	0		120	55.0	2.5	blank	1.0	311.3699870109558	0.9999229907989502
57	253.7820110321045	movie	1		300	55.0	2.5	blank	1.0	312.36991000175476	2.5000569820404053
57	254.1655719280243	pulse	1	t		55.0	2.5	blank	1.0	312.75347089767456	
57	255.7655279636383	pulse	1	t		55.0	2.5	blank	1.0	314.3534269332886	
57	256.2820680141449	fix_post	2		12	55.0	2.5	blank	1.0	314.86996698379517	0.09997200965881348
58	256.3820400238037	fix_pre	0		119	56.0	2.5	/experiments/AOT/AOT_stimuli/rescaled_final/0681_rv.mp4	0.0	314.969938993454	0.9917819499969482
58	257.36551904678345	pulse	0	t		56.0	2.5	/experiments/AOT/AOT_stimuli/rescaled_final/0681_rv.mp4	0.0	315.9534180164337	
58	257.37382197380066	movie	1		244	56.0	2.5	/experiments/AOT/AOT_stimuli/rescaled_final/0681_rv.mp4	0.0	315.9617209434509	2.5082080364227295
58	258.9651439189911	pulse	1	t		56.0	2.5	/experiments/AOT/AOT_stimuli/rescaled_final/0681_rv.mp4	0.0	317.55304288864136	
58	259.8820300102234	fix_post	2		12	56.0	2.5	/experiments/AOT/AOT_stimuli/rescaled_final/0681_rv.mp4	0.0	318.46992897987366	0.1000058650970459
59	259.98203587532043	fix_pre	0		120	57.0	2.5	/experiments/AOT/AOT_stimuli/rescaled_final/0284_rv.mp4	0.0	318.5699348449707	0.9996581077575684
59	260.5656340122223	pulse	0	t		57.0	2.5	/experiments/AOT/AOT_stimuli/rescaled_final/0284_rv.mp4	0.0	319.15353298187256	
59	260.981693983078	movie	1		243	57.0	2.5	/experiments/AOT/AOT_stimuli/rescaled_final/0284_rv.mp4	0.0	319.56959295272827	2.4998669624328613
59	262.1655750274658	pulse	1	t		57.0	2.5	/experiments/AOT/AOT_stimuli/rescaled_final/0284_rv.mp4	0.0	320.7534739971161	
59	263.48156094551086	fix_post	2		12	57.0	2.5	/experiments/AOT/AOT_stimuli/rescaled_final/0284_rv.mp4	0.0	322.06945991516113	0.10007500648498535
60	263.58163595199585	fix_pre	0		120	58.0	2.5	/experiments/AOT/AOT_stimuli/rescaled_final/1512_fw.mp4	0.0	322.1695349216461	1.0003840923309326
60	263.76598596572876	pulse	0	t		58.0	2.5	/experiments/AOT/AOT_stimuli/rescaled_final/1512_fw.mp4	0.0	322.353884935379	
60	264.5820200443268	movie	1		243	58.0	2.5	/experiments/AOT/AOT_stimuli/rescaled_final/1512_fw.mp4	0.0	323.16991901397705	2.499955892562866
60	265.3655860424042	pulse	1	t		58.0	2.5	/experiments/AOT/AOT_stimuli/rescaled_final/1512_fw.mp4	0.0	323.95348501205444	
60	266.9738509654999	pulse	1	t		58.0	2.5	/experiments/AOT/AOT_stimuli/rescaled_final/1512_fw.mp4	0.0	325.56174993515015	
60	267.08197593688965	fix_post	2		12	58.0	2.5	/experiments/AOT/AOT_stimuli/rescaled_final/1512_fw.mp4	0.0	325.6698749065399	0.10005497932434082
61	267.182030916214	fix_pre	0		120	59.0	2.5	/experiments/AOT/AOT_stimuli/rescaled_final/2125_fw.mp4	0.0	325.76992988586426	1.0000100135803223
61	268.1820409297943	movie	1		245	59.0	2.5	/experiments/AOT/AOT_stimuli/rescaled_final/2125_fw.mp4	0.0	326.7699398994446	2.499528169631958
61	268.56542110443115	pulse	1	t		59.0	2.5	/experiments/AOT/AOT_stimuli/rescaled_final/2125_fw.mp4	0.0	327.1533200740814	
61	270.1655158996582	pulse	1	t		59.0	2.5	/experiments/AOT/AOT_stimuli/rescaled_final/2125_fw.mp4	0.0	328.7534148693085	
61	270.68156909942627	fix_post	2		12	59.0	2.5	/experiments/AOT/AOT_stimuli/rescaled_final/2125_fw.mp4	0.0	329.26946806907654	0.10040593147277832
62	270.78197503089905	fix_pre	0		119	60.0	2.5	/experiments/AOT/AOT_stimuli/rescaled_final/1176_rv.mp4	0.0	329.3698740005493	0.9916720390319824
62	271.76537704467773	pulse	0	t		60.0	2.5	/experiments/AOT/AOT_stimuli/rescaled_final/1176_rv.mp4	0.0	330.353276014328	
62	271.77364706993103	movie	1		246	60.0	2.5	/experiments/AOT/AOT_stimuli/rescaled_final/1176_rv.mp4	0.0	330.3615460395813	2.5083229541778564
62	273.36520290374756	pulse	1	t		60.0	2.5	/experiments/AOT/AOT_stimuli/rescaled_final/1176_rv.mp4	0.0	331.9531018733978	
62	274.2819700241089	fix_post	2		12	60.0	2.5	/experiments/AOT/AOT_stimuli/rescaled_final/1176_rv.mp4	0.0	332.86986899375916	0.09992098808288574
63	274.3818910121918	fix_pre	0		120	61.0	2.5	/experiments/AOT/AOT_stimuli/rescaled_final/0459_fw.mp4	0.0	332.96978998184204	1.0000510215759277
63	274.9653820991516	pulse	0	t		61.0	2.5	/experiments/AOT/AOT_stimuli/rescaled_final/0459_fw.mp4	0.0	333.5532810688019	
63	275.3819420337677	movie	1		247	61.0	2.5	/experiments/AOT/AOT_stimuli/rescaled_final/0459_fw.mp4	0.0	333.96984100341797	2.4999709129333496
63	276.5655279159546	pulse	1	t		61.0	2.5	/experiments/AOT/AOT_stimuli/rescaled_final/0459_fw.mp4	0.0	335.15342688560486	
63	277.88191294670105	fix_post	2		12	61.0	2.5	/experiments/AOT/AOT_stimuli/rescaled_final/0459_fw.mp4	0.0	336.4698119163513	0.10002613067626953
64	277.9819390773773	fix_pre	0		120	62.0	2.5	blank	1.0	336.5698380470276	0.9995698928833008
64	278.16629910469055	pulse	0	t		62.0	2.5	blank	1.0	336.7541980743408	
64	278.9815089702606	movie	1		300	62.0	2.5	blank	1.0	337.5694079399109	2.500394105911255
64	279.7661600112915	pulse	1	t		62.0	2.5	blank	1.0	338.3540589809418	
64	281.3653600215912	pulse	1	t		62.0	2.5	blank	1.0	339.95325899124146	
64	281.4819030761719	fix_post	2		12	62.0	2.5	blank	1.0	340.06980204582214	0.0996999740600586
65	281.58160305023193	fix_pre	0		120	63.0	2.5	/experiments/AOT/AOT_stimuli/rescaled_final/0331_rv.mp4	0.0	340.1695020198822	1.0002999305725098
65	282.58190298080444	movie	1		243	63.0	2.5	/experiments/AOT/AOT_stimuli/rescaled_final/0331_rv.mp4	0.0	341.1698019504547	2.499582052230835
65	282.9737889766693	pulse	1	t		63.0	2.5	/experiments/AOT/AOT_stimuli/rescaled_final/0331_rv.mp4	0.0	341.5616879463196	
65	284.5653359889984	pulse	1	t		63.0	2.5	/experiments/AOT/AOT_stimuli/rescaled_final/0331_rv.mp4	0.0	343.1532349586487	
65	285.0814850330353	fix_post	2		12	63.0	2.5	/experiments/AOT/AOT_stimuli/rescaled_final/0331_rv.mp4	0.0	343.66938400268555	0.10048484802246094
66	285.18196988105774	fix_pre	0		119	64.0	2.5	/experiments/AOT/AOT_stimuli/rescaled_final/1305_fw.mp4	0.0	343.769868850708	0.9915521144866943
66	286.1653289794922	pulse	0	t		64.0	2.5	/experiments/AOT/AOT_stimuli/rescaled_final/1305_fw.mp4	0.0	344.75322794914246	
66	286.17352199554443	movie	1		245	64.0	2.5	/experiments/AOT/AOT_stimuli/rescaled_final/1305_fw.mp4	0.0	344.7614209651947	2.5083940029144287
66	287.76510310173035	pulse	1	t		64.0	2.5	/experiments/AOT/AOT_stimuli/rescaled_final/1305_fw.mp4	0.0	346.3530020713806	
66	288.68191599845886	fix_post	2		12	64.0	2.5	/experiments/AOT/AOT_stimuli/rescaled_final/1305_fw.mp4	0.0	347.26981496810913	0.10000395774841309
67	288.7819199562073	fix_pre	0		120	65.0	2.5	/experiments/AOT/AOT_stimuli/rescaled_final/1671_fw.mp4	0.0	347.36981892585754	0.9999890327453613
67	289.3653769493103	pulse	0	t		65.0	2.5	/experiments/AOT/AOT_stimuli/rescaled_final/1671_fw.mp4	0.0	347.95327591896057	
67	289.78190898895264	movie	1		243	65.0	2.5	/experiments/AOT/AOT_stimuli/rescaled_final/1671_fw.mp4	0.0	348.3698079586029	2.499911069869995
67	290.96542096138	pulse	1	t		65.0	2.5	/experiments/AOT/AOT_stimuli/rescaled_final/1671_fw.mp4	0.0	349.5533199310303	
67	292.28182005882263	fix_post	2		12	65.0	2.5	/experiments/AOT/AOT_stimuli/rescaled_final/1671_fw.mp4	0.0	350.8697190284729	0.1000828742980957
68	292.3819029331207	fix_pre	0		120	66.0	2.5	/experiments/AOT/AOT_stimuli/rescaled_final/0177_fw.mp4	0.0	350.969801902771	0.9999861717224121
68	292.5653660297394	pulse	0	t		66.0	2.5	/experiments/AOT/AOT_stimuli/rescaled_final/0177_fw.mp4	0.0	351.15326499938965	
68	293.38188910484314	movie	1		245	66.0	2.5	/experiments/AOT/AOT_stimuli/rescaled_final/0177_fw.mp4	0.0	351.9697880744934	2.4999217987060547
68	294.16619992256165	pulse	1	t		66.0	2.5	/experiments/AOT/AOT_stimuli/rescaled_final/0177_fw.mp4	0.0	352.7540988922119	
68	295.7662479877472	pulse	1	t		66.0	2.5	/experiments/AOT/AOT_stimuli/rescaled_final/0177_fw.mp4	0.0	354.35414695739746	
68	295.8818109035492	fix_post	2		12	66.0	2.5	/experiments/AOT/AOT_stimuli/rescaled_final/0177_fw.mp4	0.0	354.46970987319946	0.10001111030578613
69	295.981822013855	fix_pre	0		120	67.0	2.5	/experiments/AOT/AOT_stimuli/rescaled_final/0341_fw.mp4	0.0	354.56972098350525	0.9999809265136719
69	296.98180294036865	movie	1		247	67.0	2.5	/experiments/AOT/AOT_stimuli/rescaled_final/0341_fw.mp4	0.0	355.5697019100189	2.500035047531128
69	297.3654000759125	pulse	1	t		67.0	2.5	/experiments/AOT/AOT_stimuli/rescaled_final/0341_fw.mp4	0.0	355.95329904556274	
69	298.9654378890991	pulse	1	t		67.0	2.5	/experiments/AOT/AOT_stimuli/rescaled_final/0341_fw.mp4	0.0	357.5533368587494	
69	299.4818379878998	fix_post	2		12	67.0	2.5	/experiments/AOT/AOT_stimuli/rescaled_final/0341_fw.mp4	0.0	358.06973695755005	0.10004496574401855
70	299.5818829536438	fix_pre	0		119	68.0	2.5	/experiments/AOT/AOT_stimuli/rescaled_final/1843_fw.mp4	0.0	358.16978192329407	0.9916200637817383
70	300.56533694267273	pulse	0	t		68.0	2.5	/experiments/AOT/AOT_stimuli/rescaled_final/1843_fw.mp4	0.0	359.153235912323	
70	300.57350301742554	movie	1		245	68.0	2.5	/experiments/AOT/AOT_stimuli/rescaled_final/1843_fw.mp4	0.0	359.1614019870758	2.5083329677581787
70	302.16522693634033	pulse	1	t		68.0	2.5	/experiments/AOT/AOT_stimuli/rescaled_final/1843_fw.mp4	0.0	360.7531259059906	
70	303.0818359851837	fix_post	2		12	68.0	2.5	/experiments/AOT/AOT_stimuli/rescaled_final/1843_fw.mp4	0.0	361.669734954834	0.09954309463500977
71	303.1813790798187	fix_pre	0		120	69.0	2.5	/experiments/AOT/AOT_stimuli/rescaled_final/2100_rv.mp4	0.0	361.769278049469	1.000377893447876
71	303.7653329372406	pulse	0	t		69.0	2.5	/experiments/AOT/AOT_stimuli/rescaled_final/2100_rv.mp4	0.0	362.35323190689087	
71	304.1817569732666	movie	1		246	69.0	2.5	/experiments/AOT/AOT_stimuli/rescaled_final/2100_rv.mp4	0.0	362.76965594291687	2.50004506111145
71	305.3654589653015	pulse	1	t		69.0	2.5	/experiments/AOT/AOT_stimuli/rescaled_final/2100_rv.mp4	0.0	363.9533579349518	
71	306.68180203437805	fix_post	2		12	69.0	2.5	/experiments/AOT/AOT_stimuli/rescaled_final/2100_rv.mp4	0.0	365.2697010040283	0.10004997253417969
72	306.78185200691223	fix_pre	0		120	70.0	2.5	blank	1.0	365.3697509765625	0.9999599456787109
72	306.965341091156	pulse	0	t		70.0	2.5	blank	1.0	365.5532400608063	
72	307.78181195259094	movie	1		300	70.0	2.5	blank	1.0	366.3697109222412	2.499980926513672
72	308.5653131008148	pulse	1	t		70.0	2.5	blank	1.0	367.1532120704651	
72	310.16610193252563	pulse	1	t		70.0	2.5	blank	1.0	368.7540009021759	
72	310.2817928791046	fix_post	2		12	70.0	2.5	blank	1.0	368.8696918487549	0.09995913505554199
73	310.38175201416016	fix_pre	0		120	71.0	2.5	/experiments/AOT/AOT_stimuli/rescaled_final/0147_rv.mp4	0.0	368.9696509838104	1.0000040531158447
73	311.381756067276	movie	1		243	71.0	2.5	/experiments/AOT/AOT_stimuli/rescaled_final/0147_rv.mp4	0.0	369.96965503692627	2.4996209144592285
73	311.7736620903015	pulse	1	t		71.0	2.5	/experiments/AOT/AOT_stimuli/rescaled_final/0147_rv.mp4	0.0	370.3615610599518	
73	313.3661608695984	pulse	1	t		71.0	2.5	/experiments/AOT/AOT_stimuli/rescaled_final/0147_rv.mp4	0.0	371.95405983924866	
73	313.88137698173523	fix_post	2		12	71.0	2.5	/experiments/AOT/AOT_stimuli/rescaled_final/0147_rv.mp4	0.0	372.4692759513855	0.10045003890991211
74	313.98182702064514	fix_pre	0		119	72.0	2.5	/experiments/AOT/AOT_stimuli/rescaled_final/0767_rv.mp4	0.0	372.5697259902954	0.9916138648986816
74	314.96529507637024	pulse	0	t		72.0	2.5	/experiments/AOT/AOT_stimuli/rescaled_final/0767_rv.mp4	0.0	373.5531940460205	
74	314.9734408855438	movie	1		245	72.0	2.5	/experiments/AOT/AOT_stimuli/rescaled_final/0767_rv.mp4	0.0	373.5613398551941	2.508439064025879
74	316.57372188568115	pulse	1	t		72.0	2.5	/experiments/AOT/AOT_stimuli/rescaled_final/0767_rv.mp4	0.0	375.1616208553314	
74	317.4818799495697	fix_post	2		12	72.0	2.5	/experiments/AOT/AOT_stimuli/rescaled_final/0767_rv.mp4	0.0	376.06977891921997	0.09992814064025879
75	317.58180809020996	fix_pre	0		120	73.0	2.5	/experiments/AOT/AOT_stimuli/rescaled_final/1195_rv.mp4	0.0	376.16970705986023	0.9999690055847168
75	318.1652319431305	pulse	0	t		73.0	2.5	/experiments/AOT/AOT_stimuli/rescaled_final/1195_rv.mp4	0.0	376.75313091278076	
75	318.5817770957947	movie	1		246	73.0	2.5	/experiments/AOT/AOT_stimuli/rescaled_final/1195_rv.mp4	0.0	377.16967606544495	2.499675989151001
75	319.7654299736023	pulse	1	t		73.0	2.5	/experiments/AOT/AOT_stimuli/rescaled_final/1195_rv.mp4	0.0	378.35332894325256	
75	321.0814530849457	fix_post	2		12	73.0	2.5	/experiments/AOT/AOT_stimuli/rescaled_final/1195_rv.mp4	0.0	379.66935205459595	0.10003280639648438
76	321.18148589134216	fix_pre	0		120	74.0	2.5	/experiments/AOT/AOT_stimuli/rescaled_final/0194_rv.mp4	0.0	379.76938486099243	1.0005221366882324
76	321.3650209903717	pulse	0	t		74.0	2.5	/experiments/AOT/AOT_stimuli/rescaled_final/0194_rv.mp4	0.0	379.952919960022	
76	322.1820080280304	movie	1		248	74.0	2.5	/experiments/AOT/AOT_stimuli/rescaled_final/0194_rv.mp4	0.0	380.76990699768066	2.49971604347229
76	322.9652690887451	pulse	1	t		74.0	2.5	/experiments/AOT/AOT_stimuli/rescaled_final/0194_rv.mp4	0.0	381.5531680583954	
76	324.56520104408264	pulse	1	t		74.0	2.5	/experiments/AOT/AOT_stimuli/rescaled_final/0194_rv.mp4	0.0	383.1531000137329	
76	324.6817240715027	fix_post	2		12	74.0	2.5	/experiments/AOT/AOT_stimuli/rescaled_final/0194_rv.mp4	0.0	383.26962304115295	0.09999680519104004
77	324.7817208766937	fix_pre	0		120	75.0	2.5	/experiments/AOT/AOT_stimuli/rescaled_final/1760_fw.mp4	0.0	383.369619846344	0.9996612071990967
77	325.7813820838928	movie	1		245	75.0	2.5	/experiments/AOT/AOT_stimuli/rescaled_final/1760_fw.mp4	0.0	384.3692810535431	2.5002388954162598
77	326.17362093925476	pulse	1	t		75.0	2.5	/experiments/AOT/AOT_stimuli/rescaled_final/1760_fw.mp4	0.0	384.76151990890503	
77	327.76608300209045	pulse	1	t		75.0	2.5	/experiments/AOT/AOT_stimuli/rescaled_final/1760_fw.mp4	0.0	386.3539819717407	
77	328.2816209793091	fix_post	2		12	75.0	2.5	/experiments/AOT/AOT_stimuli/rescaled_final/1760_fw.mp4	0.0	386.86951994895935	0.10007309913635254
78	328.38169407844543	fix_pre	0		120	76.0	2.5	/experiments/AOT/AOT_stimuli/rescaled_final/0448_fw.mp4	0.0	386.9695930480957	0.99993896484375
78	329.3659908771515	pulse	0	t		76.0	2.5	/experiments/AOT/AOT_stimuli/rescaled_final/0448_fw.mp4	0.0	387.95388984680176	
78	329.3816330432892	movie	1		244	76.0	2.5	/experiments/AOT/AOT_stimuli/rescaled_final/0448_fw.mp4	0.0	387.96953201293945	2.507917881011963
78	330.9730761051178	pulse	1	t		76.0	2.5	/experiments/AOT/AOT_stimuli/rescaled_final/0448_fw.mp4	0.0	389.56097507476807	
78	331.88955092430115	fix_post	2		12	76.0	2.5	/experiments/AOT/AOT_stimuli/rescaled_final/0448_fw.mp4	0.0	390.4774498939514	0.10042810440063477
79	331.9899790287018	fix_pre	0		120	77.0	2.5	blank	1.0	390.57787799835205	0.9999899864196777
79	332.5660059452057	pulse	0	t		77.0	2.5	blank	1.0	391.15390491485596	
79	332.98996901512146	movie	1		300	77.0	2.5	blank	1.0	391.57786798477173	2.500072956085205
79	334.16603994369507	pulse	1	t		77.0	2.5	blank	1.0	392.75393891334534	
79	335.49004197120667	fix_post	2		12	77.0	2.5	blank	1.0	394.07794094085693	0.09991002082824707
80	335.5899519920349	fix_pre	0		120	78.0	2.5	/experiments/AOT/AOT_stimuli/rescaled_final/0459_rv.mp4	0.0	394.1778509616852	1.000025987625122
80	335.76519799232483	pulse	0	t		78.0	2.5	/experiments/AOT/AOT_stimuli/rescaled_final/0459_rv.mp4	0.0	394.3530969619751	
80	336.58997797966003	movie	1		244	78.0	2.5	/experiments/AOT/AOT_stimuli/rescaled_final/0459_rv.mp4	0.0	395.1778769493103	2.5001020431518555
80	337.3650960922241	pulse	1	t		78.0	2.5	/experiments/AOT/AOT_stimuli/rescaled_final/0459_rv.mp4	0.0	395.9529950618744	
80	338.96519804000854	pulse	1	t		78.0	2.5	/experiments/AOT/AOT_stimuli/rescaled_final/0459_rv.mp4	0.0	397.5530970096588	
80	339.0900800228119	fix_post	2		12	78.0	2.5	/experiments/AOT/AOT_stimuli/rescaled_final/0459_rv.mp4	0.0	397.67797899246216	0.09987807273864746
81	339.18995809555054	fix_pre	0		120	79.0	2.5	/experiments/AOT/AOT_stimuli/rescaled_final/0353_fw.mp4	0.0	397.7778570652008	1.0000278949737549
81	340.1899859905243	movie	1		247	79.0	2.5	/experiments/AOT/AOT_stimuli/rescaled_final/0353_fw.mp4	0.0	398.77788496017456	2.4999749660491943
81	340.56520891189575	pulse	1	t		79.0	2.5	/experiments/AOT/AOT_stimuli/rescaled_final/0353_fw.mp4	0.0	399.153107881546	
81	342.16611409187317	pulse	1	t		79.0	2.5	/experiments/AOT/AOT_stimuli/rescaled_final/0353_fw.mp4	0.0	400.75401306152344	
81	342.6899609565735	fix_post	2		12	79.0	2.5	/experiments/AOT/AOT_stimuli/rescaled_final/0353_fw.mp4	0.0	401.27785992622375	0.09994697570800781
82	342.7899079322815	fix_pre	0		119	80.0	2.5	/experiments/AOT/AOT_stimuli/rescaled_final/1519_rv.mp4	0.0	401.37780690193176	0.9916651248931885
82	343.7659800052643	pulse	0	t		80.0	2.5	/experiments/AOT/AOT_stimuli/rescaled_final/1519_rv.mp4	0.0	402.35387897491455	
82	343.7815730571747	movie	1		245	80.0	2.5	/experiments/AOT/AOT_stimuli/rescaled_final/1519_rv.mp4	0.0	402.36947202682495	2.5083420276641846
82	345.37318205833435	pulse	1	t		80.0	2.5	/experiments/AOT/AOT_stimuli/rescaled_final/1519_rv.mp4	0.0	403.9610810279846	
82	346.28991508483887	fix_post	2		12	80.0	2.5	/experiments/AOT/AOT_stimuli/rescaled_final/1519_rv.mp4	0.0	404.87781405448914	0.09961795806884766
83	346.3895330429077	fix_pre	0		120	81.0	2.5	/experiments/AOT/AOT_stimuli/rescaled_final/0377_fw.mp4	0.0	404.977432012558	1.0004189014434814
83	346.96586990356445	pulse	0	t		81.0	2.5	/experiments/AOT/AOT_stimuli/rescaled_final/0377_fw.mp4	0.0	405.5537688732147	
83	347.3899519443512	movie	1		244	81.0	2.5	/experiments/AOT/AOT_stimuli/rescaled_final/0377_fw.mp4	0.0	405.97785091400146	2.4999430179595947
83	348.5734648704529	pulse	1	t		81.0	2.5	/experiments/AOT/AOT_stimuli/rescaled_final/0377_fw.mp4	0.0	407.16136384010315	
83	349.8898949623108	fix_post	2		12	81.0	2.5	/experiments/AOT/AOT_stimuli/rescaled_final/0377_fw.mp4	0.0	408.47779393196106	0.1001729965209961
84	349.9900679588318	fix_pre	0		120	82.0	2.5	/experiments/AOT/AOT_stimuli/rescaled_final/1150_fw.mp4	0.0	408.57796692848206	0.9998760223388672
84	350.16585993766785	pulse	0	t		82.0	2.5	/experiments/AOT/AOT_stimuli/rescaled_final/1150_fw.mp4	0.0	408.7537589073181	
84	350.98994398117065	movie	1		244	82.0	2.5	/experiments/AOT/AOT_stimuli/rescaled_final/1150_fw.mp4	0.0	409.5778429508209	2.4995410442352295
84	351.7662000656128	pulse	1	t		82.0	2.5	/experiments/AOT/AOT_stimuli/rescaled_final/1150_fw.mp4	0.0	410.35409903526306	
84	353.36502504348755	pulse	1	t		82.0	2.5	/experiments/AOT/AOT_stimuli/rescaled_final/1150_fw.mp4	0.0	411.9529240131378	
84	353.4894850254059	fix_post	2		12	82.0	2.5	/experiments/AOT/AOT_stimuli/rescaled_final/1150_fw.mp4	0.0	412.07738399505615	0.10042190551757812
85	353.58990693092346	fix_pre	0		120	83.0	2.5	blank	1.0	412.17780590057373	1.0000560283660889
85	354.58996295928955	movie	1		300	83.0	2.5	blank	1.0	413.1778619289398	2.4999630451202393
85	354.9652020931244	pulse	1	t		83.0	2.5	blank	1.0	413.55310106277466	
85	356.5650019645691	pulse	1	t		83.0	2.5	blank	1.0	415.15290093421936	
85	357.0899260044098	fix_post	2		12	83.0	2.5	blank	1.0	415.67782497406006	0.09958887100219727
87	357.189514875412	stim	0		1716					415.77741384506226	14.300554037094116
87	358.16606307029724	pulse	0	t						416.7539620399475	
87	359.76615595817566	pulse	0	t						418.3540549278259	
87	361.3660080432892	pulse	0	t						419.95390701293945	
87	362.9660530090332	pulse	0	t						421.5539519786835	
87	364.5659430027008	pulse	0	t						423.1538419723511	
87	366.16502809524536	pulse	0	t						424.75292706489563	
87	367.7659831047058	pulse	0	t						426.3538820743561	
87	369.3650200366974	pulse	0	t						427.95291900634766	
87	370.96492195129395	pulse	0	t						429.5528209209442	
