trial_nr	onset	event_type	phase	response	nr_frames	movie_index	movie_duration	movie_file	blank	onset_abs	duration
0	0.20820116996765137	stim	0		1					17.78066921234131	0.008206844329833984
0	0.20293807983398438	response	0	space						17.77540612220764	
1	0.21640801429748535	stim	0		4541					17.788876056671143	37.85678815841675
1	38.06321406364441	pulse	0	t						55.635682106018066	
1	38.07319617271423	stim	1		1715					55.64566421508789	14.301066875457764
1	39.65582513809204	pulse	1	t						57.2282931804657	
1	41.2561821937561	pulse	1	t						58.82865023612976	
1	42.85634207725525	pulse	1	t						60.428810119628906	
1	44.45657920837402	pulse	1	t						62.02904725074768	
1	46.05678606033325	pulse	1	t						63.62925410270691	
1	47.65706205368042	pulse	1	t						65.22953009605408	
1	49.25721311569214	pulse	1	t						66.8296811580658	
1	50.85747408866882	pulse	1	t						68.42994213104248	
2	52.374263048172	fix_pre	0		11	0.0	2.5	/experiments/knapen_AOT/AOT_stimuli/rescaled_final/1167_rv.mp4	0.0	69.94673109054565	0.09164905548095703
2	52.4578001499176	pulse	0	t		0.0	2.5	/experiments/knapen_AOT/AOT_stimuli/rescaled_final/1167_rv.mp4	0.0	70.03026819229126	
2	52.465912103652954	movie	1		242	0.0	2.5	/experiments/knapen_AOT/AOT_stimuli/rescaled_final/1167_rv.mp4	0.0	70.03838014602661	2.50871205329895
2	54.05873918533325	pulse	1	t		0.0	2.5	/experiments/knapen_AOT/AOT_stimuli/rescaled_final/1167_rv.mp4	0.0	71.63120722770691	
2	54.974624156951904	fix_post	2		12	0.0	2.5	/experiments/knapen_AOT/AOT_stimuli/rescaled_final/1167_rv.mp4	0.0	72.54709219932556	0.09997391700744629
3	55.07459807395935	fix_pre	0		120	1.0	2.5	/experiments/knapen_AOT/AOT_stimuli/rescaled_final/1420_fw.mp4	0.0	72.64706611633301	1.0001730918884277
3	55.658271074295044	pulse	0	t		1.0	2.5	/experiments/knapen_AOT/AOT_stimuli/rescaled_final/1420_fw.mp4	0.0	73.2307391166687	
3	56.07477116584778	movie	1		243	1.0	2.5	/experiments/knapen_AOT/AOT_stimuli/rescaled_final/1420_fw.mp4	0.0	73.64723920822144	2.500385046005249
3	57.25440216064453	pulse	1	t		1.0	2.5	/experiments/knapen_AOT/AOT_stimuli/rescaled_final/1420_fw.mp4	0.0	74.82687020301819	
3	58.57515621185303	fix_post	2		12	1.0	2.5	/experiments/knapen_AOT/AOT_stimuli/rescaled_final/1420_fw.mp4	0.0	76.14762425422668	0.10000896453857422
4	58.6751651763916	fix_pre	0		120	2.0	2.5	/experiments/knapen_AOT/AOT_stimuli/rescaled_final/0682_rv.mp4	0.0	76.24763321876526	1.0001959800720215
4	58.85877323150635	pulse	0	t		2.0	2.5	/experiments/knapen_AOT/AOT_stimuli/rescaled_final/0682_rv.mp4	0.0	76.43124127388	
4	59.67536115646362	movie	1		242	2.0	2.5	/experiments/knapen_AOT/AOT_stimuli/rescaled_final/0682_rv.mp4	0.0	77.24782919883728	2.5004260540008545
4	60.458935022354126	pulse	1	t		2.0	2.5	/experiments/knapen_AOT/AOT_stimuli/rescaled_final/0682_rv.mp4	0.0	78.03140306472778	
4	62.05917310714722	pulse	1	t		2.0	2.5	/experiments/knapen_AOT/AOT_stimuli/rescaled_final/0682_rv.mp4	0.0	79.63164114952087	
4	62.17578721046448	fix_post	2		12	2.0	2.5	/experiments/knapen_AOT/AOT_stimuli/rescaled_final/0682_rv.mp4	0.0	79.74825525283813	0.09994101524353027
5	62.27572822570801	fix_pre	0		120	3.0	2.5	/experiments/knapen_AOT/AOT_stimuli/rescaled_final/0300_rv.mp4	0.0	79.84819626808167	1.0000858306884766
5	63.275814056396484	movie	1		242	3.0	2.5	/experiments/knapen_AOT/AOT_stimuli/rescaled_final/0300_rv.mp4	0.0	80.84828209877014	2.492103099822998
5	63.66004014015198	pulse	1	t		3.0	2.5	/experiments/knapen_AOT/AOT_stimuli/rescaled_final/0300_rv.mp4	0.0	81.23250818252563	
5	65.25972104072571	pulse	1	t		3.0	2.5	/experiments/knapen_AOT/AOT_stimuli/rescaled_final/0300_rv.mp4	0.0	82.83218908309937	
5	65.76791715621948	fix_post	2		12	3.0	2.5	/experiments/knapen_AOT/AOT_stimuli/rescaled_final/0300_rv.mp4	0.0	83.34038519859314	0.09994697570800781
6	65.86786413192749	fix_pre	0		120	4.0	2.5	/experiments/knapen_AOT/AOT_stimuli/rescaled_final/1338_fw.mp4	0.0	83.44033217430115	1.0001518726348877
6	66.86001205444336	pulse	0	t		4.0	2.5	/experiments/knapen_AOT/AOT_stimuli/rescaled_final/1338_fw.mp4	0.0	84.43248009681702	
6	66.86801600456238	movie	1		243	4.0	2.5	/experiments/knapen_AOT/AOT_stimuli/rescaled_final/1338_fw.mp4	0.0	84.44048404693604	2.5087690353393555
6	68.46441602706909	pulse	1	t		4.0	2.5	/experiments/knapen_AOT/AOT_stimuli/rescaled_final/1338_fw.mp4	0.0	86.03688406944275	
6	69.37678503990173	fix_post	2		12	4.0	2.5	/experiments/knapen_AOT/AOT_stimuli/rescaled_final/1338_fw.mp4	0.0	86.94925308227539	0.09995818138122559
7	69.47674322128296	fix_pre	0		120	5.0	2.5	blank	1.0	87.04921126365662	1.0001559257507324
7	70.06034421920776	pulse	0	t		5.0	2.5	blank	1.0	87.63281226158142	
7	70.47689914703369	movie	1		300	5.0	2.5	blank	1.0	88.04936718940735	2.5003600120544434
7	71.6530442237854	pulse	1	t		5.0	2.5	blank	1.0	89.22551226615906	
7	72.97725915908813	fix_post	2		12	5.0	2.5	blank	1.0	90.54972720146179	0.10001802444458008
8	73.07727718353271	fix_pre	0		118	6.0	2.5	/experiments/knapen_AOT/AOT_stimuli/rescaled_final/0996_rv.mp4	0.0	90.64974522590637	1.0002269744873047
8	73.2533631324768	pulse	0	t		6.0	2.5	/experiments/knapen_AOT/AOT_stimuli/rescaled_final/0996_rv.mp4	0.0	90.82583117485046	
8	74.07750415802002	movie	1		243	6.0	2.5	/experiments/knapen_AOT/AOT_stimuli/rescaled_final/0996_rv.mp4	0.0	91.64997220039368	2.500403881072998
8	74.85370206832886	pulse	1	t		6.0	2.5	/experiments/knapen_AOT/AOT_stimuli/rescaled_final/0996_rv.mp4	0.0	92.42617011070251	
8	76.46110010147095	pulse	1	t		6.0	2.5	/experiments/knapen_AOT/AOT_stimuli/rescaled_final/0996_rv.mp4	0.0	94.0335681438446	
8	76.57790803909302	fix_post	2		12	6.0	2.5	/experiments/knapen_AOT/AOT_stimuli/rescaled_final/0996_rv.mp4	0.0	94.15037608146667	0.09997200965881348
9	76.67788004875183	fix_pre	0		120	7.0	2.5	/experiments/knapen_AOT/AOT_stimuli/rescaled_final/1601_fw.mp4	0.0	94.25034809112549	1.0000879764556885
9	77.67796802520752	movie	1		241	7.0	2.5	/experiments/knapen_AOT/AOT_stimuli/rescaled_final/1601_fw.mp4	0.0	95.25043606758118	2.4921810626983643
9	78.05335307121277	pulse	1	t		7.0	2.5	/experiments/knapen_AOT/AOT_stimuli/rescaled_final/1601_fw.mp4	0.0	95.62582111358643	
9	79.6534972190857	pulse	1	t		7.0	2.5	/experiments/knapen_AOT/AOT_stimuli/rescaled_final/1601_fw.mp4	0.0	97.22596526145935	
9	80.17014908790588	fix_post	2		12	7.0	2.5	/experiments/knapen_AOT/AOT_stimuli/rescaled_final/1601_fw.mp4	0.0	97.74261713027954	0.09986710548400879
10	80.27001619338989	fix_pre	0		119	8.0	2.5	/experiments/knapen_AOT/AOT_stimuli/rescaled_final/1885_rv.mp4	0.0	97.84248423576355	0.9918649196624756
10	81.25361704826355	pulse	0	t		8.0	2.5	/experiments/knapen_AOT/AOT_stimuli/rescaled_final/1885_rv.mp4	0.0	98.8260850906372	
10	81.26188111305237	movie	1		243	8.0	2.5	/experiments/knapen_AOT/AOT_stimuli/rescaled_final/1885_rv.mp4	0.0	98.83434915542603	2.508758068084717
10	82.85837507247925	pulse	1	t		8.0	2.5	/experiments/knapen_AOT/AOT_stimuli/rescaled_final/1885_rv.mp4	0.0	100.4308431148529	
10	83.77063918113708	fix_post	2		12	8.0	2.5	/experiments/knapen_AOT/AOT_stimuli/rescaled_final/1885_rv.mp4	0.0	101.34310722351074	0.09992599487304688
11	83.87056517601013	fix_pre	0		120	9.0	2.5	/experiments/knapen_AOT/AOT_stimuli/rescaled_final/0248_fw.mp4	0.0	101.44303321838379	1.0002100467681885
11	84.45424103736877	pulse	0	t		9.0	2.5	/experiments/knapen_AOT/AOT_stimuli/rescaled_final/0248_fw.mp4	0.0	102.02670907974243	
11	84.87077522277832	movie	1		243	9.0	2.5	/experiments/knapen_AOT/AOT_stimuli/rescaled_final/0248_fw.mp4	0.0	102.44324326515198	2.500386953353882
11	86.05445909500122	pulse	1	t		9.0	2.5	/experiments/knapen_AOT/AOT_stimuli/rescaled_final/0248_fw.mp4	0.0	103.62692713737488	
11	87.3711621761322	fix_post	2		12	9.0	2.5	/experiments/knapen_AOT/AOT_stimuli/rescaled_final/0248_fw.mp4	0.0	104.94363021850586	0.09993696212768555
12	87.47109913825989	fix_pre	0		120	10.0	2.5	/experiments/knapen_AOT/AOT_stimuli/rescaled_final/0226_fw.mp4	0.0	105.04356718063354	1.0001659393310547
12	87.65460515022278	pulse	0	t		10.0	2.5	/experiments/knapen_AOT/AOT_stimuli/rescaled_final/0226_fw.mp4	0.0	105.22707319259644	
12	88.47126507759094	movie	1		242	10.0	2.5	/experiments/knapen_AOT/AOT_stimuli/rescaled_final/0226_fw.mp4	0.0	106.0437331199646	2.4920589923858643
12	89.25487303733826	pulse	1	t		10.0	2.5	/experiments/knapen_AOT/AOT_stimuli/rescaled_final/0226_fw.mp4	0.0	106.82734107971191	
12	90.85508108139038	pulse	1	t		10.0	2.5	/experiments/knapen_AOT/AOT_stimuli/rescaled_final/0226_fw.mp4	0.0	108.42754912376404	
12	90.9633240699768	fix_post	2		13	10.0	2.5	/experiments/knapen_AOT/AOT_stimuli/rescaled_final/0226_fw.mp4	0.0	108.53579211235046	0.10840892791748047
13	91.07173299789429	fix_pre	0		119	11.0	2.5	/experiments/knapen_AOT/AOT_stimuli/rescaled_final/1828_fw.mp4	0.0	108.64420104026794	0.9917252063751221
13	92.06345820426941	movie	1		243	11.0	2.5	/experiments/knapen_AOT/AOT_stimuli/rescaled_final/1828_fw.mp4	0.0	109.63592624664307	2.5005998611450195
13	92.45538520812988	pulse	1	t		11.0	2.5	/experiments/knapen_AOT/AOT_stimuli/rescaled_final/1828_fw.mp4	0.0	110.02785325050354	
13	94.055655002594	pulse	1	t		11.0	2.5	/experiments/knapen_AOT/AOT_stimuli/rescaled_final/1828_fw.mp4	0.0	111.62812304496765	
13	94.56405806541443	fix_post	2		12	11.0	2.5	/experiments/knapen_AOT/AOT_stimuli/rescaled_final/1828_fw.mp4	0.0	112.13652610778809	0.0998380184173584
14	94.66389608383179	fix_pre	0		120	12.0	2.5	blank	1.0	112.23636412620544	1.0001659393310547
14	95.6559591293335	pulse	0	t		12.0	2.5	blank	1.0	113.22842717170715	
14	95.66406202316284	movie	1		301	12.0	2.5	blank	1.0	113.2365300655365	2.5086920261383057
14	97.25617718696594	pulse	1	t		12.0	2.5	blank	1.0	114.8286452293396	
14	98.17275404930115	fix_post	2		12	12.0	2.5	blank	1.0	115.7452220916748	0.10004901885986328
15	98.27280306816101	fix_pre	0		120	13.0	2.5	/experiments/knapen_AOT/AOT_stimuli/rescaled_final/2110_rv.mp4	0.0	115.84527111053467	1.0000951290130615
15	98.85629916191101	pulse	0	t		13.0	2.5	/experiments/knapen_AOT/AOT_stimuli/rescaled_final/2110_rv.mp4	0.0	116.42876720428467	
15	99.27289819717407	movie	1		244	13.0	2.5	/experiments/knapen_AOT/AOT_stimuli/rescaled_final/2110_rv.mp4	0.0	116.84536623954773	2.5003139972686768
15	100.45669412612915	pulse	1	t		13.0	2.5	/experiments/knapen_AOT/AOT_stimuli/rescaled_final/2110_rv.mp4	0.0	118.02916216850281	
15	101.77321219444275	fix_post	2		12	13.0	2.5	/experiments/knapen_AOT/AOT_stimuli/rescaled_final/2110_rv.mp4	0.0	119.3456802368164	0.10000801086425781
16	101.873220205307	fix_pre	0		120	14.0	2.5	/experiments/knapen_AOT/AOT_stimuli/rescaled_final/0546_fw.mp4	0.0	119.44568824768066	1.000195026397705
16	102.0569121837616	pulse	0	t		14.0	2.5	/experiments/knapen_AOT/AOT_stimuli/rescaled_final/0546_fw.mp4	0.0	119.62938022613525	
16	102.87341523170471	movie	1		243	14.0	2.5	/experiments/knapen_AOT/AOT_stimuli/rescaled_final/0546_fw.mp4	0.0	120.44588327407837	2.5004799365997314
16	103.65715503692627	pulse	1	t		14.0	2.5	/experiments/knapen_AOT/AOT_stimuli/rescaled_final/0546_fw.mp4	0.0	121.22962307929993	
16	105.25730109214783	pulse	1	t		14.0	2.5	/experiments/knapen_AOT/AOT_stimuli/rescaled_final/0546_fw.mp4	0.0	122.82976913452148	
16	105.37389516830444	fix_post	2		12	14.0	2.5	/experiments/knapen_AOT/AOT_stimuli/rescaled_final/0546_fw.mp4	0.0	122.9463632106781	0.09996604919433594
17	105.47386121749878	fix_pre	0		120	15.0	2.5	/experiments/knapen_AOT/AOT_stimuli/rescaled_final/0353_fw.mp4	0.0	123.04632925987244	1.000074863433838
17	106.47393608093262	movie	1		242	15.0	2.5	/experiments/knapen_AOT/AOT_stimuli/rescaled_final/0353_fw.mp4	0.0	124.04640412330627	2.492224931716919
17	106.8579671382904	pulse	1	t		15.0	2.5	/experiments/knapen_AOT/AOT_stimuli/rescaled_final/0353_fw.mp4	0.0	124.43043518066406	
17	108.4577431678772	pulse	1	t		15.0	2.5	/experiments/knapen_AOT/AOT_stimuli/rescaled_final/0353_fw.mp4	0.0	126.03021121025085	
17	108.96616101264954	fix_post	2		12	15.0	2.5	/experiments/knapen_AOT/AOT_stimuli/rescaled_final/0353_fw.mp4	0.0	126.5386290550232	0.09987115859985352
18	109.06603217124939	fix_pre	0		120	16.0	2.5	/experiments/knapen_AOT/AOT_stimuli/rescaled_final/0396_rv.mp4	0.0	126.63850021362305	1.0001130104064941
18	110.0580701828003	pulse	0	t		16.0	2.5	/experiments/knapen_AOT/AOT_stimuli/rescaled_final/0396_rv.mp4	0.0	127.63053822517395	
18	110.06614518165588	movie	1		244	16.0	2.5	/experiments/knapen_AOT/AOT_stimuli/rescaled_final/0396_rv.mp4	0.0	127.63861322402954	2.508788824081421
18	111.65880918502808	pulse	1	t		16.0	2.5	/experiments/knapen_AOT/AOT_stimuli/rescaled_final/0396_rv.mp4	0.0	129.23127722740173	
18	112.5749340057373	fix_post	2		12	16.0	2.5	/experiments/knapen_AOT/AOT_stimuli/rescaled_final/0396_rv.mp4	0.0	130.14740204811096	0.10004210472106934
19	112.67497611045837	fix_pre	0		120	17.0	2.5	/experiments/knapen_AOT/AOT_stimuli/rescaled_final/2152_rv.mp4	0.0	130.24744415283203	1.0000700950622559
19	113.25840210914612	pulse	0	t		17.0	2.5	/experiments/knapen_AOT/AOT_stimuli/rescaled_final/2152_rv.mp4	0.0	130.83087015151978	
19	113.67504620552063	movie	1		242	17.0	2.5	/experiments/knapen_AOT/AOT_stimuli/rescaled_final/2152_rv.mp4	0.0	131.2475142478943	2.5004749298095703
19	114.8587851524353	pulse	1	t		17.0	2.5	/experiments/knapen_AOT/AOT_stimuli/rescaled_final/2152_rv.mp4	0.0	132.43125319480896	
19	116.1755211353302	fix_post	2		12	17.0	2.5	/experiments/knapen_AOT/AOT_stimuli/rescaled_final/2152_rv.mp4	0.0	133.74798917770386	0.09992098808288574
20	116.27544212341309	fix_pre	0		120	18.0	2.5	/experiments/knapen_AOT/AOT_stimuli/rescaled_final/0683_fw.mp4	0.0	133.84791016578674	1.000230073928833
20	116.45906400680542	pulse	0	t		18.0	2.5	/experiments/knapen_AOT/AOT_stimuli/rescaled_final/0683_fw.mp4	0.0	134.03153204917908	
20	117.27567219734192	movie	1		242	18.0	2.5	/experiments/knapen_AOT/AOT_stimuli/rescaled_final/0683_fw.mp4	0.0	134.84814023971558	2.5003819465637207
20	118.05924010276794	pulse	1	t		18.0	2.5	/experiments/knapen_AOT/AOT_stimuli/rescaled_final/0683_fw.mp4	0.0	135.6317081451416	
20	119.65962815284729	pulse	1	t		18.0	2.5	/experiments/knapen_AOT/AOT_stimuli/rescaled_final/0683_fw.mp4	0.0	137.23209619522095	
20	119.77605414390564	fix_post	2		12	18.0	2.5	/experiments/knapen_AOT/AOT_stimuli/rescaled_final/0683_fw.mp4	0.0	137.3485221862793	0.10002398490905762
21	119.8760781288147	fix_pre	0		120	19.0	2.5	blank	1.0	137.44854617118835	0.9999899864196777
21	120.87606811523438	movie	1		299	19.0	2.5	blank	1.0	138.44853615760803	2.492055892944336
21	121.25965118408203	pulse	1	t		19.0	2.5	blank	1.0	138.8321192264557	
21	122.85984516143799	pulse	1	t		19.0	2.5	blank	1.0	140.43231320381165	
21	123.36812400817871	fix_post	2		12	19.0	2.5	blank	1.0	140.94059205055237	0.09998703002929688
22	123.46811103820801	fix_pre	0		120	20.0	2.5	/experiments/knapen_AOT/AOT_stimuli/rescaled_final/1447_fw.mp4	0.0	141.04057908058167	1.000176191329956
22	124.4602210521698	pulse	0	t		20.0	2.5	/experiments/knapen_AOT/AOT_stimuli/rescaled_final/1447_fw.mp4	0.0	142.03268909454346	
22	124.46828722953796	movie	1		243	20.0	2.5	/experiments/knapen_AOT/AOT_stimuli/rescaled_final/1447_fw.mp4	0.0	142.04075527191162	2.508739948272705
22	126.06174921989441	pulse	1	t		20.0	2.5	/experiments/knapen_AOT/AOT_stimuli/rescaled_final/1447_fw.mp4	0.0	143.63421726226807	
22	126.97702717781067	fix_post	2		12	20.0	2.5	/experiments/knapen_AOT/AOT_stimuli/rescaled_final/1447_fw.mp4	0.0	144.54949522018433	0.10004186630249023
23	127.07706904411316	fix_pre	0		120	21.0	2.5	/experiments/knapen_AOT/AOT_stimuli/rescaled_final/0939_fw.mp4	0.0	144.64953708648682	1.0000879764556885
23	127.65313220024109	pulse	0	t		21.0	2.5	/experiments/knapen_AOT/AOT_stimuli/rescaled_final/0939_fw.mp4	0.0	145.22560024261475	
23	128.07715702056885	movie	1		243	21.0	2.5	/experiments/knapen_AOT/AOT_stimuli/rescaled_final/0939_fw.mp4	0.0	145.6496250629425	2.5004889965057373
23	129.25316405296326	pulse	1	t		21.0	2.5	/experiments/knapen_AOT/AOT_stimuli/rescaled_final/0939_fw.mp4	0.0	146.8256320953369	
23	130.57764601707458	fix_post	2		12	21.0	2.5	/experiments/knapen_AOT/AOT_stimuli/rescaled_final/0939_fw.mp4	0.0	148.15011405944824	0.09993219375610352
24	130.6775782108307	fix_pre	0		120	22.0	2.5	/experiments/knapen_AOT/AOT_stimuli/rescaled_final/1287_fw.mp4	0.0	148.25004625320435	1.0001308917999268
24	130.85290217399597	pulse	0	t		22.0	2.5	/experiments/knapen_AOT/AOT_stimuli/rescaled_final/1287_fw.mp4	0.0	148.42537021636963	
24	131.67770910263062	movie	1		239	22.0	2.5	/experiments/knapen_AOT/AOT_stimuli/rescaled_final/1287_fw.mp4	0.0	149.25017714500427	2.5004000663757324
24	132.45300006866455	pulse	1	t		22.0	2.5	/experiments/knapen_AOT/AOT_stimuli/rescaled_final/1287_fw.mp4	0.0	150.0254681110382	
24	134.05323600769043	pulse	1	t		22.0	2.5	/experiments/knapen_AOT/AOT_stimuli/rescaled_final/1287_fw.mp4	0.0	151.6257040500641	
24	134.17810916900635	fix_post	2		12	22.0	2.5	/experiments/knapen_AOT/AOT_stimuli/rescaled_final/1287_fw.mp4	0.0	151.75057721138	0.10001802444458008
25	134.27812719345093	fix_pre	0		120	23.0	2.5	/experiments/knapen_AOT/AOT_stimuli/rescaled_final/0811_rv.mp4	0.0	151.85059523582458	1.0001208782196045
25	135.27824807167053	movie	1		242	23.0	2.5	/experiments/knapen_AOT/AOT_stimuli/rescaled_final/0811_rv.mp4	0.0	152.8507161140442	2.492002010345459
25	135.65350008010864	pulse	1	t		23.0	2.5	/experiments/knapen_AOT/AOT_stimuli/rescaled_final/0811_rv.mp4	0.0	153.2259681224823	
25	137.25383114814758	pulse	1	t		23.0	2.5	/experiments/knapen_AOT/AOT_stimuli/rescaled_final/0811_rv.mp4	0.0	154.82629919052124	
25	137.770250082016	fix_post	2		12	23.0	2.5	/experiments/knapen_AOT/AOT_stimuli/rescaled_final/0811_rv.mp4	0.0	155.34271812438965	0.10001301765441895
26	137.8702630996704	fix_pre	0		119	24.0	2.5	/experiments/knapen_AOT/AOT_stimuli/rescaled_final/0681_fw.mp4	0.0	155.44273114204407	0.9918169975280762
26	138.85391211509705	pulse	0	t		24.0	2.5	/experiments/knapen_AOT/AOT_stimuli/rescaled_final/0681_fw.mp4	0.0	156.4263801574707	
26	138.8620800971985	movie	1		243	24.0	2.5	/experiments/knapen_AOT/AOT_stimuli/rescaled_final/0681_fw.mp4	0.0	156.43454813957214	2.5087389945983887
26	140.45840620994568	pulse	1	t		24.0	2.5	/experiments/knapen_AOT/AOT_stimuli/rescaled_final/0681_fw.mp4	0.0	158.03087425231934	
26	141.37081909179688	fix_post	2		12	24.0	2.5	/experiments/knapen_AOT/AOT_stimuli/rescaled_final/0681_fw.mp4	0.0	158.94328713417053	0.10001897811889648
27	141.47083806991577	fix_pre	0		120	25.0	2.5	/experiments/knapen_AOT/AOT_stimuli/rescaled_final/0141_rv.mp4	0.0	159.04330611228943	1.0001580715179443
27	142.05437111854553	pulse	0	t		25.0	2.5	/experiments/knapen_AOT/AOT_stimuli/rescaled_final/0141_rv.mp4	0.0	159.6268391609192	
27	142.47099614143372	movie	1		243	25.0	2.5	/experiments/knapen_AOT/AOT_stimuli/rescaled_final/0141_rv.mp4	0.0	160.04346418380737	2.500325918197632
27	143.65482020378113	pulse	1	t		25.0	2.5	/experiments/knapen_AOT/AOT_stimuli/rescaled_final/0141_rv.mp4	0.0	161.22728824615479	
27	144.97132205963135	fix_post	2		12	25.0	2.5	/experiments/knapen_AOT/AOT_stimuli/rescaled_final/0141_rv.mp4	0.0	162.543790102005	0.10008406639099121
28	145.07140612602234	fix_pre	0		120	26.0	2.5	/experiments/knapen_AOT/AOT_stimuli/rescaled_final/1383_fw.mp4	0.0	162.643874168396	1.0001249313354492
28	145.25495505332947	pulse	0	t		26.0	2.5	/experiments/knapen_AOT/AOT_stimuli/rescaled_final/1383_fw.mp4	0.0	162.82742309570312	
28	146.0715310573578	movie	1		242	26.0	2.5	/experiments/knapen_AOT/AOT_stimuli/rescaled_final/1383_fw.mp4	0.0	163.64399909973145	2.500446081161499
28	146.85519909858704	pulse	1	t		26.0	2.5	/experiments/knapen_AOT/AOT_stimuli/rescaled_final/1383_fw.mp4	0.0	164.4276671409607	
28	148.45509314537048	pulse	1	t		26.0	2.5	/experiments/knapen_AOT/AOT_stimuli/rescaled_final/1383_fw.mp4	0.0	166.02756118774414	
28	148.5719771385193	fix_post	2		12	26.0	2.5	/experiments/knapen_AOT/AOT_stimuli/rescaled_final/1383_fw.mp4	0.0	166.14444518089294	0.09990096092224121
29	148.67187809944153	fix_pre	0		120	27.0	2.5	blank	1.0	166.24434614181519	1.0001680850982666
29	149.6720461845398	movie	1		299	27.0	2.5	blank	1.0	167.24451422691345	2.4920239448547363
29	150.05570912361145	pulse	1	t		27.0	2.5	blank	1.0	167.6281771659851	
29	151.6559281349182	pulse	1	t		27.0	2.5	blank	1.0	169.22839617729187	
29	152.16407012939453	fix_post	2		12	27.0	2.5	blank	1.0	169.7365381717682	0.10000991821289062
30	152.26408004760742	fix_pre	0		120	28.0	2.5	/experiments/knapen_AOT/AOT_stimuli/rescaled_final/0384_fw.mp4	0.0	169.83654808998108	1.0001630783081055
30	153.25611805915833	pulse	0	t		28.0	2.5	/experiments/knapen_AOT/AOT_stimuli/rescaled_final/0384_fw.mp4	0.0	170.82858610153198	
30	153.26424312591553	movie	1		243	28.0	2.5	/experiments/knapen_AOT/AOT_stimuli/rescaled_final/0384_fw.mp4	0.0	170.83671116828918	2.5087389945983887
30	154.86027216911316	pulse	1	t		28.0	2.5	/experiments/knapen_AOT/AOT_stimuli/rescaled_final/0384_fw.mp4	0.0	172.43274021148682	
30	155.77298212051392	fix_post	2		12	28.0	2.5	/experiments/knapen_AOT/AOT_stimuli/rescaled_final/0384_fw.mp4	0.0	173.34545016288757	0.09999704360961914
31	155.87297916412354	fix_pre	0		120	29.0	2.5	/experiments/knapen_AOT/AOT_stimuli/rescaled_final/0623_fw.mp4	0.0	173.4454472064972	1.0001518726348877
31	156.45668721199036	pulse	0	t		29.0	2.5	/experiments/knapen_AOT/AOT_stimuli/rescaled_final/0623_fw.mp4	0.0	174.029155254364	
31	156.87313103675842	movie	1		242	29.0	2.5	/experiments/knapen_AOT/AOT_stimuli/rescaled_final/0623_fw.mp4	0.0	174.44559907913208	2.500439167022705
31	158.0570080280304	pulse	1	t		29.0	2.5	/experiments/knapen_AOT/AOT_stimuli/rescaled_final/0623_fw.mp4	0.0	175.62947607040405	
31	159.37357020378113	fix_post	2		12	29.0	2.5	/experiments/knapen_AOT/AOT_stimuli/rescaled_final/0623_fw.mp4	0.0	176.94603824615479	0.09994792938232422
32	159.47351813316345	fix_pre	0		120	30.0	2.5	/experiments/knapen_AOT/AOT_stimuli/rescaled_final/1695_fw.mp4	0.0	177.0459861755371	1.0001749992370605
32	159.65705108642578	pulse	0	t		30.0	2.5	/experiments/knapen_AOT/AOT_stimuli/rescaled_final/1695_fw.mp4	0.0	177.22951912879944	
32	160.4736931324005	movie	1		242	30.0	2.5	/experiments/knapen_AOT/AOT_stimuli/rescaled_final/1695_fw.mp4	0.0	178.04616117477417	2.500454902648926
32	161.25723910331726	pulse	1	t		30.0	2.5	/experiments/knapen_AOT/AOT_stimuli/rescaled_final/1695_fw.mp4	0.0	178.82970714569092	
32	162.85742712020874	pulse	1	t		30.0	2.5	/experiments/knapen_AOT/AOT_stimuli/rescaled_final/1695_fw.mp4	0.0	180.4298951625824	
32	162.97414803504944	fix_post	2		12	30.0	2.5	/experiments/knapen_AOT/AOT_stimuli/rescaled_final/1695_fw.mp4	0.0	180.5466160774231	0.09990906715393066
33	163.07405710220337	fix_pre	0		119	31.0	2.5	/experiments/knapen_AOT/AOT_stimuli/rescaled_final/1114_fw.mp4	0.0	180.64652514457703	0.9918150901794434
33	164.0658721923828	movie	1		242	31.0	2.5	/experiments/knapen_AOT/AOT_stimuli/rescaled_final/1114_fw.mp4	0.0	181.63834023475647	2.500419855117798
33	164.45796823501587	pulse	1	t		31.0	2.5	/experiments/knapen_AOT/AOT_stimuli/rescaled_final/1114_fw.mp4	0.0	182.03043627738953	
33	166.05807900428772	pulse	1	t		31.0	2.5	/experiments/knapen_AOT/AOT_stimuli/rescaled_final/1114_fw.mp4	0.0	183.63054704666138	
33	166.5662920475006	fix_post	2		12	31.0	2.5	/experiments/knapen_AOT/AOT_stimuli/rescaled_final/1114_fw.mp4	0.0	184.13876008987427	0.09992408752441406
34	166.66621613502502	fix_pre	0		120	32.0	2.5	/experiments/knapen_AOT/AOT_stimuli/rescaled_final/0384_fw.mp4	0.0	184.23868417739868	1.0002000331878662
34	167.65825510025024	pulse	0	t		32.0	2.5	/experiments/knapen_AOT/AOT_stimuli/rescaled_final/0384_fw.mp4	0.0	185.2307231426239	
34	167.6664161682129	movie	1		243	32.0	2.5	/experiments/knapen_AOT/AOT_stimuli/rescaled_final/0384_fw.mp4	0.0	185.23888421058655	2.508664846420288
34	169.2595431804657	pulse	1	t		32.0	2.5	/experiments/knapen_AOT/AOT_stimuli/rescaled_final/0384_fw.mp4	0.0	186.83201122283936	
34	170.17508101463318	fix_post	2		12	32.0	2.5	/experiments/knapen_AOT/AOT_stimuli/rescaled_final/0384_fw.mp4	0.0	187.74754905700684	0.1000680923461914
35	170.27514910697937	fix_pre	0		120	33.0	2.5	blank	1.0	187.84761714935303	1.0001170635223389
35	170.85884523391724	pulse	0	t		33.0	2.5	blank	1.0	188.4313132762909	
35	171.2752661705017	movie	1		300	33.0	2.5	blank	1.0	188.84773421287537	2.500408887863159
35	172.45912718772888	pulse	1	t		33.0	2.5	blank	1.0	190.03159523010254	
35	173.77567505836487	fix_post	2		12	33.0	2.5	blank	1.0	191.34814310073853	0.10001111030578613
36	173.87568616867065	fix_pre	0		120	34.0	2.5	/experiments/knapen_AOT/AOT_stimuli/rescaled_final/0540_fw.mp4	0.0	191.4481542110443	1.0001530647277832
36	174.05925011634827	pulse	0	t		34.0	2.5	/experiments/knapen_AOT/AOT_stimuli/rescaled_final/0540_fw.mp4	0.0	191.63171815872192	
36	174.87583923339844	movie	1		244	34.0	2.5	/experiments/knapen_AOT/AOT_stimuli/rescaled_final/0540_fw.mp4	0.0	192.4483072757721	2.5003349781036377
36	175.65942811965942	pulse	1	t		34.0	2.5	/experiments/knapen_AOT/AOT_stimuli/rescaled_final/0540_fw.mp4	0.0	193.23189616203308	
36	177.25955820083618	pulse	1	t		34.0	2.5	/experiments/knapen_AOT/AOT_stimuli/rescaled_final/0540_fw.mp4	0.0	194.83202624320984	
36	177.37617421150208	fix_post	2		12	34.0	2.5	/experiments/knapen_AOT/AOT_stimuli/rescaled_final/0540_fw.mp4	0.0	194.94864225387573	0.1000068187713623
37	177.47618103027344	fix_pre	0		120	35.0	2.5	/experiments/knapen_AOT/AOT_stimuli/rescaled_final/1720_rv.mp4	0.0	195.0486490726471	1.0002281665802002
37	178.47640919685364	movie	1		241	35.0	2.5	/experiments/knapen_AOT/AOT_stimuli/rescaled_final/1720_rv.mp4	0.0	196.0488772392273	2.4920530319213867
37	178.86064410209656	pulse	1	t		35.0	2.5	/experiments/knapen_AOT/AOT_stimuli/rescaled_final/1720_rv.mp4	0.0	196.43311214447021	
37	180.46024417877197	pulse	1	t		35.0	2.5	/experiments/knapen_AOT/AOT_stimuli/rescaled_final/1720_rv.mp4	0.0	198.03271222114563	
37	180.96846222877502	fix_post	2		12	35.0	2.5	/experiments/knapen_AOT/AOT_stimuli/rescaled_final/1720_rv.mp4	0.0	198.54093027114868	0.10000777244567871
38	181.0684700012207	fix_pre	0		120	36.0	2.5	/experiments/knapen_AOT/AOT_stimuli/rescaled_final/1679_fw.mp4	0.0	198.64093804359436	1.000087022781372
38	182.0603141784668	pulse	0	t		36.0	2.5	/experiments/knapen_AOT/AOT_stimuli/rescaled_final/1679_fw.mp4	0.0	199.63278222084045	
38	182.06855702400208	movie	1		243	36.0	2.5	/experiments/knapen_AOT/AOT_stimuli/rescaled_final/1679_fw.mp4	0.0	199.64102506637573	2.5086750984191895
38	183.66157412528992	pulse	1	t		36.0	2.5	/experiments/knapen_AOT/AOT_stimuli/rescaled_final/1679_fw.mp4	0.0	201.23404216766357	
38	184.57723212242126	fix_post	2		12	36.0	2.5	/experiments/knapen_AOT/AOT_stimuli/rescaled_final/1679_fw.mp4	0.0	202.14970016479492	0.1000359058380127
39	184.67726802825928	fix_pre	0		120	37.0	2.5	/experiments/knapen_AOT/AOT_stimuli/rescaled_final/0651_fw.mp4	0.0	202.24973607063293	1.000176191329956
39	185.26102018356323	pulse	0	t		37.0	2.5	/experiments/knapen_AOT/AOT_stimuli/rescaled_final/0651_fw.mp4	0.0	202.8334882259369	
39	185.67744421958923	movie	1		242	37.0	2.5	/experiments/knapen_AOT/AOT_stimuli/rescaled_final/0651_fw.mp4	0.0	203.2499122619629	2.5005099773406982
39	186.8612620830536	pulse	1	t		37.0	2.5	/experiments/knapen_AOT/AOT_stimuli/rescaled_final/0651_fw.mp4	0.0	204.43373012542725	
39	188.17795419692993	fix_post	2		12	37.0	2.5	/experiments/knapen_AOT/AOT_stimuli/rescaled_final/0651_fw.mp4	0.0	205.7504222393036	0.0999298095703125
40	188.27788400650024	fix_pre	0		120	38.0	2.5	/experiments/knapen_AOT/AOT_stimuli/rescaled_final/1692_fw.mp4	0.0	205.8503520488739	1.0001220703125
40	188.45297408103943	pulse	0	t		38.0	2.5	/experiments/knapen_AOT/AOT_stimuli/rescaled_final/1692_fw.mp4	0.0	206.0254421234131	
40	189.27800607681274	movie	1		242	38.0	2.5	/experiments/knapen_AOT/AOT_stimuli/rescaled_final/1692_fw.mp4	0.0	206.8504741191864	2.5004050731658936
40	190.05417704582214	pulse	1	t		38.0	2.5	/experiments/knapen_AOT/AOT_stimuli/rescaled_final/1692_fw.mp4	0.0	207.6266450881958	
40	191.6534399986267	pulse	1	t		38.0	2.5	/experiments/knapen_AOT/AOT_stimuli/rescaled_final/1692_fw.mp4	0.0	209.22590804100037	
40	191.77841114997864	fix_post	2		12	38.0	2.5	/experiments/knapen_AOT/AOT_stimuli/rescaled_final/1692_fw.mp4	0.0	209.3508791923523	0.0999760627746582
41	191.8783872127533	fix_pre	0		119	39.0	2.5	/experiments/knapen_AOT/AOT_stimuli/rescaled_final/0388_fw.mp4	0.0	209.45085525512695	0.9917747974395752
41	192.87016201019287	movie	1		241	39.0	2.5	/experiments/knapen_AOT/AOT_stimuli/rescaled_final/0388_fw.mp4	0.0	210.44263005256653	2.5004310607910156
41	193.25824117660522	pulse	1	t		39.0	2.5	/experiments/knapen_AOT/AOT_stimuli/rescaled_final/0388_fw.mp4	0.0	210.83070921897888	
41	194.85393619537354	pulse	1	t		39.0	2.5	/experiments/knapen_AOT/AOT_stimuli/rescaled_final/0388_fw.mp4	0.0	212.4264042377472	
41	195.3705930709839	fix_post	2		12	39.0	2.5	/experiments/knapen_AOT/AOT_stimuli/rescaled_final/0388_fw.mp4	0.0	212.94306111335754	0.09999608993530273
42	195.4705891609192	fix_pre	0		119	40.0	2.5	/experiments/knapen_AOT/AOT_stimuli/rescaled_final/1983_rv.mp4	0.0	213.04305720329285	0.9917619228363037
42	196.45422911643982	pulse	0	t		40.0	2.5	/experiments/knapen_AOT/AOT_stimuli/rescaled_final/1983_rv.mp4	0.0	214.02669715881348	
42	196.4623510837555	movie	1		247	40.0	2.5	/experiments/knapen_AOT/AOT_stimuli/rescaled_final/1983_rv.mp4	0.0	214.03481912612915	2.5087170600891113
42	198.0548071861267	pulse	1	t		40.0	2.5	/experiments/knapen_AOT/AOT_stimuli/rescaled_final/1983_rv.mp4	0.0	215.62727522850037	
42	198.9710681438446	fix_post	2		12	40.0	2.5	/experiments/knapen_AOT/AOT_stimuli/rescaled_final/1983_rv.mp4	0.0	216.54353618621826	0.1000070571899414
43	199.07107520103455	fix_pre	0		120	41.0	2.5	/experiments/knapen_AOT/AOT_stimuli/rescaled_final/0922_fw.mp4	0.0	216.6435432434082	1.0001649856567383
43	199.65469408035278	pulse	0	t		41.0	2.5	/experiments/knapen_AOT/AOT_stimuli/rescaled_final/0922_fw.mp4	0.0	217.22716212272644	
43	200.07124018669128	movie	1		243	41.0	2.5	/experiments/knapen_AOT/AOT_stimuli/rescaled_final/0922_fw.mp4	0.0	217.64370822906494	2.500454902648926
43	201.2550551891327	pulse	1	t		41.0	2.5	/experiments/knapen_AOT/AOT_stimuli/rescaled_final/0922_fw.mp4	0.0	218.82752323150635	
43	202.5716950893402	fix_post	2		12	41.0	2.5	/experiments/knapen_AOT/AOT_stimuli/rescaled_final/0922_fw.mp4	0.0	220.14416313171387	0.09992504119873047
44	202.67162013053894	fix_pre	0		120	42.0	2.5	blank	1.0	220.2440881729126	1.000209093093872
44	202.85514616966248	pulse	0	t		42.0	2.5	blank	1.0	220.42761421203613	
44	203.6718292236328	movie	1		300	42.0	2.5	blank	1.0	221.24429726600647	2.5003039836883545
44	204.45535922050476	pulse	1	t		42.0	2.5	blank	1.0	222.02782726287842	
44	206.05558514595032	pulse	1	t		42.0	2.5	blank	1.0	223.62805318832397	
44	206.17213320732117	fix_post	2		12	42.0	2.5	blank	1.0	223.74460124969482	0.0999917984008789
45	206.27212500572205	fix_pre	0		120	43.0	2.5	/experiments/knapen_AOT/AOT_stimuli/rescaled_final/2174_fw.mp4	0.0	223.8445930480957	1.0001461505889893
45	207.27227115631104	movie	1		242	43.0	2.5	/experiments/knapen_AOT/AOT_stimuli/rescaled_final/2174_fw.mp4	0.0	224.8447391986847	2.4922149181365967
45	207.6563310623169	pulse	1	t		43.0	2.5	/experiments/knapen_AOT/AOT_stimuli/rescaled_final/2174_fw.mp4	0.0	225.22879910469055	
45	209.25626015663147	pulse	1	t		43.0	2.5	/experiments/knapen_AOT/AOT_stimuli/rescaled_final/2174_fw.mp4	0.0	226.82872819900513	
45	209.76448607444763	fix_post	2		12	43.0	2.5	/experiments/knapen_AOT/AOT_stimuli/rescaled_final/2174_fw.mp4	0.0	227.3369541168213	0.09994912147521973
46	209.86443519592285	fix_pre	0		120	44.0	2.5	/experiments/knapen_AOT/AOT_stimuli/rescaled_final/1800_rv.mp4	0.0	227.4369032382965	1.0000970363616943
46	210.85630702972412	pulse	0	t		44.0	2.5	/experiments/knapen_AOT/AOT_stimuli/rescaled_final/1800_rv.mp4	0.0	228.42877507209778	
46	210.86453223228455	movie	1		243	44.0	2.5	/experiments/knapen_AOT/AOT_stimuli/rescaled_final/1800_rv.mp4	0.0	228.4370002746582	2.508652925491333
46	212.45739722251892	pulse	1	t		44.0	2.5	/experiments/knapen_AOT/AOT_stimuli/rescaled_final/1800_rv.mp4	0.0	230.02986526489258	
46	213.37318515777588	fix_post	2		12	44.0	2.5	/experiments/knapen_AOT/AOT_stimuli/rescaled_final/1800_rv.mp4	0.0	230.94565320014954	0.10003399848937988
47	213.47321915626526	fix_pre	0		120	45.0	2.5	/experiments/knapen_AOT/AOT_stimuli/rescaled_final/0176_rv.mp4	0.0	231.04568719863892	1.0002119541168213
47	214.05689311027527	pulse	0	t		45.0	2.5	/experiments/knapen_AOT/AOT_stimuli/rescaled_final/0176_rv.mp4	0.0	231.62936115264893	
47	214.47343111038208	movie	1		242	45.0	2.5	/experiments/knapen_AOT/AOT_stimuli/rescaled_final/0176_rv.mp4	0.0	232.04589915275574	2.5003480911254883
47	215.65721607208252	pulse	1	t		45.0	2.5	/experiments/knapen_AOT/AOT_stimuli/rescaled_final/0176_rv.mp4	0.0	233.22968411445618	
47	216.97377920150757	fix_post	2		12	45.0	2.5	/experiments/knapen_AOT/AOT_stimuli/rescaled_final/0176_rv.mp4	0.0	234.54624724388123	0.10003900527954102
48	217.0738182067871	fix_pre	0		120	46.0	2.5	/experiments/knapen_AOT/AOT_stimuli/rescaled_final/1157_rv.mp4	0.0	234.64628624916077	1.0001389980316162
48	217.25732016563416	pulse	0	t		46.0	2.5	/experiments/knapen_AOT/AOT_stimuli/rescaled_final/1157_rv.mp4	0.0	234.8297882080078	
48	218.07395720481873	movie	1		243	46.0	2.5	/experiments/knapen_AOT/AOT_stimuli/rescaled_final/1157_rv.mp4	0.0	235.64642524719238	2.5003738403320312
48	218.8576362133026	pulse	1	t		46.0	2.5	/experiments/knapen_AOT/AOT_stimuli/rescaled_final/1157_rv.mp4	0.0	236.43010425567627	
48	220.45781016349792	pulse	1	t		46.0	2.5	/experiments/knapen_AOT/AOT_stimuli/rescaled_final/1157_rv.mp4	0.0	238.03027820587158	
48	220.57433104515076	fix_post	2		12	46.0	2.5	/experiments/knapen_AOT/AOT_stimuli/rescaled_final/1157_rv.mp4	0.0	238.1467990875244	0.09998703002929688
49	220.67431807518005	fix_pre	0		119	47.0	2.5	blank	1.0	238.2467861175537	0.9917740821838379
49	221.6660921573639	movie	1		300	47.0	2.5	blank	1.0	239.23856019973755	2.5004630088806152
49	222.058039188385	pulse	1	t		47.0	2.5	blank	1.0	239.63050723075867	
49	223.65830516815186	pulse	1	t		47.0	2.5	blank	1.0	241.2307732105255	
49	224.1665551662445	fix_post	2		12	47.0	2.5	blank	1.0	241.73902320861816	0.09997701644897461
50	224.26653218269348	fix_pre	0		120	48.0	2.5	/experiments/knapen_AOT/AOT_stimuli/rescaled_final/1864_rv.mp4	0.0	241.83900022506714	1.0000979900360107
50	225.25854206085205	pulse	0	t		48.0	2.5	/experiments/knapen_AOT/AOT_stimuli/rescaled_final/1864_rv.mp4	0.0	242.8310101032257	
50	225.2666301727295	movie	1		243	48.0	2.5	/experiments/knapen_AOT/AOT_stimuli/rescaled_final/1864_rv.mp4	0.0	242.83909821510315	2.508749008178711
50	226.86025023460388	pulse	1	t		48.0	2.5	/experiments/knapen_AOT/AOT_stimuli/rescaled_final/1864_rv.mp4	0.0	244.43271827697754	
50	227.7753791809082	fix_post	2		12	48.0	2.5	/experiments/knapen_AOT/AOT_stimuli/rescaled_final/1864_rv.mp4	0.0	245.34784722328186	0.09998083114624023
51	227.87536001205444	fix_pre	0		120	49.0	2.5	/experiments/knapen_AOT/AOT_stimuli/rescaled_final/0248_rv.mp4	0.0	245.4478280544281	1.0002131462097168
51	228.45902299880981	pulse	0	t		49.0	2.5	/experiments/knapen_AOT/AOT_stimuli/rescaled_final/0248_rv.mp4	0.0	246.03149104118347	
51	228.87557315826416	movie	1		243	49.0	2.5	/experiments/knapen_AOT/AOT_stimuli/rescaled_final/0248_rv.mp4	0.0	246.44804120063782	2.5004289150238037
51	230.05935907363892	pulse	1	t		49.0	2.5	/experiments/knapen_AOT/AOT_stimuli/rescaled_final/0248_rv.mp4	0.0	247.63182711601257	
51	231.37600207328796	fix_post	2		12	49.0	2.5	/experiments/knapen_AOT/AOT_stimuli/rescaled_final/0248_rv.mp4	0.0	248.94847011566162	0.10001993179321289
52	231.47602200508118	fix_pre	0		120	50.0	2.5	/experiments/knapen_AOT/AOT_stimuli/rescaled_final/1189_rv.mp4	0.0	249.04849004745483	1.0000791549682617
52	231.65940618515015	pulse	0	t		50.0	2.5	/experiments/knapen_AOT/AOT_stimuli/rescaled_final/1189_rv.mp4	0.0	249.2318742275238	
52	232.47610116004944	movie	1		242	50.0	2.5	/experiments/knapen_AOT/AOT_stimuli/rescaled_final/1189_rv.mp4	0.0	250.0485692024231	2.5004968643188477
52	233.25972604751587	pulse	1	t		50.0	2.5	/experiments/knapen_AOT/AOT_stimuli/rescaled_final/1189_rv.mp4	0.0	250.83219408988953	
52	234.85979223251343	pulse	1	t		50.0	2.5	/experiments/knapen_AOT/AOT_stimuli/rescaled_final/1189_rv.mp4	0.0	252.43226027488708	
52	234.9765980243683	fix_post	2		12	50.0	2.5	/experiments/knapen_AOT/AOT_stimuli/rescaled_final/1189_rv.mp4	0.0	252.54906606674194	0.09988117218017578
53	235.07647919654846	fix_pre	0		120	51.0	2.5	/experiments/knapen_AOT/AOT_stimuli/rescaled_final/2099_rv.mp4	0.0	252.64894723892212	1.0001599788665771
53	236.07663917541504	movie	1		242	51.0	2.5	/experiments/knapen_AOT/AOT_stimuli/rescaled_final/2099_rv.mp4	0.0	253.6491072177887	2.492018938064575
53	236.46093320846558	pulse	1	t		51.0	2.5	/experiments/knapen_AOT/AOT_stimuli/rescaled_final/2099_rv.mp4	0.0	254.03340125083923	
53	238.05302810668945	pulse	1	t		51.0	2.5	/experiments/knapen_AOT/AOT_stimuli/rescaled_final/2099_rv.mp4	0.0	255.6254961490631	
53	238.56865811347961	fix_post	2		12	51.0	2.5	/experiments/knapen_AOT/AOT_stimuli/rescaled_final/2099_rv.mp4	0.0	256.14112615585327	0.09999489784240723
54	238.66865301132202	fix_pre	0		120	52.0	2.5	/experiments/knapen_AOT/AOT_stimuli/rescaled_final/0564_rv.mp4	0.0	256.2411210536957	1.0001730918884277
54	239.65319323539734	pulse	0	t		52.0	2.5	/experiments/knapen_AOT/AOT_stimuli/rescaled_final/0564_rv.mp4	0.0	257.225661277771	
54	239.66882610321045	movie	1		243	52.0	2.5	/experiments/knapen_AOT/AOT_stimuli/rescaled_final/0564_rv.mp4	0.0	257.2412941455841	2.5087249279022217
54	241.2624762058258	pulse	1	t		52.0	2.5	/experiments/knapen_AOT/AOT_stimuli/rescaled_final/0564_rv.mp4	0.0	258.83494424819946	
54	242.17755103111267	fix_post	2		12	52.0	2.5	/experiments/knapen_AOT/AOT_stimuli/rescaled_final/0564_rv.mp4	0.0	259.7500190734863	0.100006103515625
55	242.2775571346283	fix_pre	0		120	53.0	2.5	/experiments/knapen_AOT/AOT_stimuli/rescaled_final/1996_fw.mp4	0.0	259.85002517700195	1.0001029968261719
55	242.85372519493103	pulse	0	t		53.0	2.5	/experiments/knapen_AOT/AOT_stimuli/rescaled_final/1996_fw.mp4	0.0	260.4261932373047	
55	243.27766013145447	movie	1		242	53.0	2.5	/experiments/knapen_AOT/AOT_stimuli/rescaled_final/1996_fw.mp4	0.0	260.8501281738281	2.5004289150238037
55	244.4577991962433	pulse	1	t		53.0	2.5	/experiments/knapen_AOT/AOT_stimuli/rescaled_final/1996_fw.mp4	0.0	262.03026723861694	
55	245.77808904647827	fix_post	2		12	53.0	2.5	/experiments/knapen_AOT/AOT_stimuli/rescaled_final/1996_fw.mp4	0.0	263.35055708885193	0.0999610424041748
56	245.87805008888245	fix_pre	0		120	54.0	2.5	blank	1.0	263.4505181312561	1.0001580715179443
56	246.05331015586853	pulse	0	t		54.0	2.5	blank	1.0	263.6257781982422	
56	246.8782081604004	movie	1		300	54.0	2.5	blank	1.0	264.45067620277405	2.5004119873046875
56	247.65347909927368	pulse	1	t		54.0	2.5	blank	1.0	265.22594714164734	
56	249.253751039505	pulse	1	t		54.0	2.5	blank	1.0	266.82621908187866	
56	249.37862014770508	fix_post	2		12	54.0	2.5	blank	1.0	266.95108819007874	0.09998607635498047
57	249.47860622406006	fix_pre	0		120	55.0	2.5	/experiments/knapen_AOT/AOT_stimuli/rescaled_final/0260_fw.mp4	0.0	267.0510742664337	1.0001599788665771
57	250.47876620292664	movie	1		243	55.0	2.5	/experiments/knapen_AOT/AOT_stimuli/rescaled_final/0260_fw.mp4	0.0	268.0512342453003	2.492048978805542
57	250.85404014587402	pulse	1	t		55.0	2.5	/experiments/knapen_AOT/AOT_stimuli/rescaled_final/0260_fw.mp4	0.0	268.4265081882477	
57	252.4543001651764	pulse	1	t		55.0	2.5	/experiments/knapen_AOT/AOT_stimuli/rescaled_final/0260_fw.mp4	0.0	270.02676820755005	
57	252.97081518173218	fix_post	2		12	55.0	2.5	/experiments/knapen_AOT/AOT_stimuli/rescaled_final/0260_fw.mp4	0.0	270.54328322410583	0.09996700286865234
58	253.07078218460083	fix_pre	0		119	56.0	2.5	/experiments/knapen_AOT/AOT_stimuli/rescaled_final/0346_fw.mp4	0.0	270.6432502269745	0.9918060302734375
58	254.0544571876526	pulse	0	t		56.0	2.5	/experiments/knapen_AOT/AOT_stimuli/rescaled_final/0346_fw.mp4	0.0	271.62692523002625	
58	254.06258821487427	movie	1		244	56.0	2.5	/experiments/knapen_AOT/AOT_stimuli/rescaled_final/0346_fw.mp4	0.0	271.6350562572479	2.5087687969207764
58	255.65506505966187	pulse	1	t		56.0	2.5	/experiments/knapen_AOT/AOT_stimuli/rescaled_final/0346_fw.mp4	0.0	273.2275331020355	
58	256.57135701179504	fix_post	2		12	56.0	2.5	/experiments/knapen_AOT/AOT_stimuli/rescaled_final/0346_fw.mp4	0.0	274.1438250541687	0.10006904602050781
59	256.67142605781555	fix_pre	0		120	57.0	2.5	/experiments/knapen_AOT/AOT_stimuli/rescaled_final/1225_fw.mp4	0.0	274.2438941001892	1.0000741481781006
59	257.2549571990967	pulse	0	t		57.0	2.5	/experiments/knapen_AOT/AOT_stimuli/rescaled_final/1225_fw.mp4	0.0	274.82742524147034	
59	257.67150020599365	movie	1		243	57.0	2.5	/experiments/knapen_AOT/AOT_stimuli/rescaled_final/1225_fw.mp4	0.0	275.2439682483673	2.5005009174346924
59	258.85526418685913	pulse	1	t		57.0	2.5	/experiments/knapen_AOT/AOT_stimuli/rescaled_final/1225_fw.mp4	0.0	276.4277322292328	
59	260.17200112342834	fix_post	2		12	57.0	2.5	/experiments/knapen_AOT/AOT_stimuli/rescaled_final/1225_fw.mp4	0.0	277.744469165802	0.09991002082824707
60	260.2719111442566	fix_pre	0		120	58.0	2.5	/experiments/knapen_AOT/AOT_stimuli/rescaled_final/0827_rv.mp4	0.0	277.84437918663025	1.0001230239868164
60	260.4553761482239	pulse	0	t		58.0	2.5	/experiments/knapen_AOT/AOT_stimuli/rescaled_final/0827_rv.mp4	0.0	278.02784419059753	
60	261.2720341682434	movie	1		240	58.0	2.5	/experiments/knapen_AOT/AOT_stimuli/rescaled_final/0827_rv.mp4	0.0	278.84450221061707	2.4921679496765137
60	262.0558180809021	pulse	1	t		58.0	2.5	/experiments/knapen_AOT/AOT_stimuli/rescaled_final/0827_rv.mp4	0.0	279.62828612327576	
60	263.655827999115	pulse	1	t		58.0	2.5	/experiments/knapen_AOT/AOT_stimuli/rescaled_final/0827_rv.mp4	0.0	281.22829604148865	
60	263.7642021179199	fix_post	2		13	58.0	2.5	/experiments/knapen_AOT/AOT_stimuli/rescaled_final/0827_rv.mp4	0.0	281.3366701602936	0.10823798179626465
61	263.8724400997162	fix_pre	0		120	59.0	2.5	/experiments/knapen_AOT/AOT_stimuli/rescaled_final/1114_rv.mp4	0.0	281.44490814208984	1.000148057937622
61	264.8725881576538	movie	1		241	59.0	2.5	/experiments/knapen_AOT/AOT_stimuli/rescaled_final/1114_rv.mp4	0.0	282.44505620002747	2.4921839237213135
61	265.2573211193085	pulse	1	t		59.0	2.5	/experiments/knapen_AOT/AOT_stimuli/rescaled_final/1114_rv.mp4	0.0	282.82978916168213	
61	266.85634303092957	pulse	1	t		59.0	2.5	/experiments/knapen_AOT/AOT_stimuli/rescaled_final/1114_rv.mp4	0.0	284.4288110733032	
61	267.3647720813751	fix_post	2		12	59.0	2.5	/experiments/knapen_AOT/AOT_stimuli/rescaled_final/1114_rv.mp4	0.0	284.9372401237488	0.09988594055175781
62	267.4646580219269	fix_pre	0		120	60.0	2.5	/experiments/knapen_AOT/AOT_stimuli/rescaled_final/1601_rv.mp4	0.0	285.03712606430054	1.0000700950622559
62	268.4565930366516	pulse	0	t		60.0	2.5	/experiments/knapen_AOT/AOT_stimuli/rescaled_final/1601_rv.mp4	0.0	286.02906107902527	
62	268.46472811698914	movie	1		243	60.0	2.5	/experiments/knapen_AOT/AOT_stimuli/rescaled_final/1601_rv.mp4	0.0	286.0371961593628	2.5088179111480713
62	270.0574040412903	pulse	1	t		60.0	2.5	/experiments/knapen_AOT/AOT_stimuli/rescaled_final/1601_rv.mp4	0.0	287.62987208366394	
62	270.9735460281372	fix_post	2		12	60.0	2.5	/experiments/knapen_AOT/AOT_stimuli/rescaled_final/1601_rv.mp4	0.0	288.54601407051086	0.09996199607849121
63	271.0735080242157	fix_pre	0		120	61.0	2.5	blank	1.0	288.64597606658936	1.0001170635223389
63	271.6571922302246	pulse	0	t		61.0	2.5	blank	1.0	289.22966027259827	
63	272.07362508773804	movie	1		300	61.0	2.5	blank	1.0	289.6460931301117	2.5004210472106934
63	273.25728821754456	pulse	1	t		61.0	2.5	blank	1.0	290.8297562599182	
63	274.57404613494873	fix_post	2		12	61.0	2.5	blank	1.0	292.1465141773224	0.09999608993530273
64	274.67404222488403	fix_pre	0		120	62.0	2.5	/experiments/knapen_AOT/AOT_stimuli/rescaled_final/2111_fw.mp4	0.0	292.2465102672577	1.0001318454742432
64	274.8575961589813	pulse	0	t		62.0	2.5	/experiments/knapen_AOT/AOT_stimuli/rescaled_final/2111_fw.mp4	0.0	292.430064201355	
64	275.6741740703583	movie	1		243	62.0	2.5	/experiments/knapen_AOT/AOT_stimuli/rescaled_final/2111_fw.mp4	0.0	293.24664211273193	2.5005249977111816
64	276.45798110961914	pulse	1	t		62.0	2.5	/experiments/knapen_AOT/AOT_stimuli/rescaled_final/2111_fw.mp4	0.0	294.0304491519928	
64	278.05804800987244	pulse	1	t		62.0	2.5	/experiments/knapen_AOT/AOT_stimuli/rescaled_final/2111_fw.mp4	0.0	295.6305160522461	
64	278.17469906806946	fix_post	2		12	62.0	2.5	/experiments/knapen_AOT/AOT_stimuli/rescaled_final/2111_fw.mp4	0.0	295.7471671104431	0.09991908073425293
65	278.2746181488037	fix_pre	0		120	63.0	2.5	/experiments/knapen_AOT/AOT_stimuli/rescaled_final/1847_fw.mp4	0.0	295.84708619117737	1.0001468658447266
65	279.27476501464844	movie	1		241	63.0	2.5	/experiments/knapen_AOT/AOT_stimuli/rescaled_final/1847_fw.mp4	0.0	296.8472330570221	2.5079660415649414
65	279.6587641239166	pulse	1	t		63.0	2.5	/experiments/knapen_AOT/AOT_stimuli/rescaled_final/1847_fw.mp4	0.0	297.2312321662903	
65	281.25850009918213	pulse	1	t		63.0	2.5	/experiments/knapen_AOT/AOT_stimuli/rescaled_final/1847_fw.mp4	0.0	298.8309681415558	
65	281.7827310562134	fix_post	2		9	63.0	2.5	/experiments/knapen_AOT/AOT_stimuli/rescaled_final/1847_fw.mp4	0.0	299.35519909858704	0.08410000801086426
66	281.86683106422424	fix_pre	0		120	64.0	2.5	/experiments/knapen_AOT/AOT_stimuli/rescaled_final/1692_rv.mp4	0.0	299.4392991065979	1.0000619888305664
66	282.8588480949402	pulse	0	t		64.0	2.5	/experiments/knapen_AOT/AOT_stimuli/rescaled_final/1692_rv.mp4	0.0	300.43131613731384	
66	282.8668930530548	movie	1		243	64.0	2.5	/experiments/knapen_AOT/AOT_stimuli/rescaled_final/1692_rv.mp4	0.0	300.43936109542847	2.5087671279907227
66	284.4599540233612	pulse	1	t		64.0	2.5	/experiments/knapen_AOT/AOT_stimuli/rescaled_final/1692_rv.mp4	0.0	302.03242206573486	
66	285.37566018104553	fix_post	2		12	64.0	2.5	/experiments/knapen_AOT/AOT_stimuli/rescaled_final/1692_rv.mp4	0.0	302.9481282234192	0.0999898910522461
67	285.4756500720978	fix_pre	0		120	65.0	2.5	/experiments/knapen_AOT/AOT_stimuli/rescaled_final/0791_rv.mp4	0.0	303.04811811447144	1.0001859664916992
67	286.059308052063	pulse	0	t		65.0	2.5	/experiments/knapen_AOT/AOT_stimuli/rescaled_final/0791_rv.mp4	0.0	303.63177609443665	
67	286.4758360385895	movie	1		243	65.0	2.5	/experiments/knapen_AOT/AOT_stimuli/rescaled_final/0791_rv.mp4	0.0	304.04830408096313	2.500357151031494
67	287.659597158432	pulse	1	t		65.0	2.5	/experiments/knapen_AOT/AOT_stimuli/rescaled_final/0791_rv.mp4	0.0	305.23206520080566	
67	288.976193189621	fix_post	2		12	65.0	2.5	/experiments/knapen_AOT/AOT_stimuli/rescaled_final/0791_rv.mp4	0.0	306.54866123199463	0.09995484352111816
68	289.0761480331421	fix_pre	0		120	66.0	2.5	/experiments/knapen_AOT/AOT_stimuli/rescaled_final/1881_rv.mp4	0.0	306.64861607551575	1.0001931190490723
68	289.2598431110382	pulse	0	t		66.0	2.5	/experiments/knapen_AOT/AOT_stimuli/rescaled_final/1881_rv.mp4	0.0	306.83231115341187	
68	290.07634115219116	movie	1		244	66.0	2.5	/experiments/knapen_AOT/AOT_stimuli/rescaled_final/1881_rv.mp4	0.0	307.6488091945648	2.5003879070281982
68	290.8600871562958	pulse	1	t		66.0	2.5	/experiments/knapen_AOT/AOT_stimuli/rescaled_final/1881_rv.mp4	0.0	308.43255519866943	
68	292.4602611064911	pulse	1	t		66.0	2.5	/experiments/knapen_AOT/AOT_stimuli/rescaled_final/1881_rv.mp4	0.0	310.03272914886475	
68	292.57672905921936	fix_post	2		12	66.0	2.5	/experiments/knapen_AOT/AOT_stimuli/rescaled_final/1881_rv.mp4	0.0	310.149197101593	0.10000801086425781
69	292.6767370700836	fix_pre	0		120	67.0	2.5	/experiments/knapen_AOT/AOT_stimuli/rescaled_final/1435_fw.mp4	0.0	310.2492051124573	1.0000851154327393
69	293.67682218551636	movie	1		241	67.0	2.5	/experiments/knapen_AOT/AOT_stimuli/rescaled_final/1435_fw.mp4	0.0	311.24929022789	2.492233991622925
69	294.0650432109833	pulse	1	t		67.0	2.5	/experiments/knapen_AOT/AOT_stimuli/rescaled_final/1435_fw.mp4	0.0	311.63751125335693	
69	295.653400182724	pulse	1	t		67.0	2.5	/experiments/knapen_AOT/AOT_stimuli/rescaled_final/1435_fw.mp4	0.0	313.22586822509766	
69	296.1690561771393	fix_post	2		12	67.0	2.5	/experiments/knapen_AOT/AOT_stimuli/rescaled_final/1435_fw.mp4	0.0	313.74152421951294	0.09989690780639648
70	296.2689530849457	fix_pre	0		120	68.0	2.5	/experiments/knapen_AOT/AOT_stimuli/rescaled_final/1037_fw.mp4	0.0	313.84142112731934	1.0000860691070557
70	297.25330805778503	pulse	0	t		68.0	2.5	/experiments/knapen_AOT/AOT_stimuli/rescaled_final/1037_fw.mp4	0.0	314.8257761001587	
70	297.26903915405273	movie	1		244	68.0	2.5	/experiments/knapen_AOT/AOT_stimuli/rescaled_final/1037_fw.mp4	0.0	314.8415071964264	2.5087358951568604
70	298.85289001464844	pulse	1	t		68.0	2.5	/experiments/knapen_AOT/AOT_stimuli/rescaled_final/1037_fw.mp4	0.0	316.4253580570221	
70	299.7777750492096	fix_post	2		12	68.0	2.5	/experiments/knapen_AOT/AOT_stimuli/rescaled_final/1037_fw.mp4	0.0	317.35024309158325	0.10008096694946289
71	299.87785601615906	fix_pre	0		120	69.0	2.5	/experiments/knapen_AOT/AOT_stimuli/rescaled_final/2101_rv.mp4	0.0	317.4503240585327	1.0000500679016113
71	300.4530291557312	pulse	0	t		69.0	2.5	/experiments/knapen_AOT/AOT_stimuli/rescaled_final/2101_rv.mp4	0.0	318.02549719810486	
71	300.87790608406067	movie	1		243	69.0	2.5	/experiments/knapen_AOT/AOT_stimuli/rescaled_final/2101_rv.mp4	0.0	318.4503741264343	2.5004169940948486
71	302.0574600696564	pulse	1	t		69.0	2.5	/experiments/knapen_AOT/AOT_stimuli/rescaled_final/2101_rv.mp4	0.0	319.62992811203003	
71	303.3783230781555	fix_post	2		12	69.0	2.5	/experiments/knapen_AOT/AOT_stimuli/rescaled_final/2101_rv.mp4	0.0	320.9507911205292	0.1000361442565918
72	303.4783592224121	fix_pre	0		120	70.0	2.5	blank	1.0	321.05082726478577	1.0001189708709717
72	303.6535470485687	pulse	0	t		70.0	2.5	blank	1.0	321.2260150909424	
72	304.4784781932831	movie	1		300	70.0	2.5	blank	1.0	322.05094623565674	2.500433921813965
72	305.25381302833557	pulse	1	t		70.0	2.5	blank	1.0	322.82628107070923	
72	306.8540720939636	pulse	1	t		70.0	2.5	blank	1.0	324.4265401363373	
72	306.97891211509705	fix_post	2		12	70.0	2.5	blank	1.0	324.5513801574707	0.09999608993530273
73	307.07890820503235	fix_pre	0		119	71.0	2.5	/experiments/knapen_AOT/AOT_stimuli/rescaled_final/0719_rv.mp4	0.0	324.651376247406	0.9917500019073486
73	308.0706582069397	movie	1		244	71.0	2.5	/experiments/knapen_AOT/AOT_stimuli/rescaled_final/0719_rv.mp4	0.0	325.64312624931335	2.5003879070281982
73	308.45477318763733	pulse	1	t		71.0	2.5	/experiments/knapen_AOT/AOT_stimuli/rescaled_final/0719_rv.mp4	0.0	326.027241230011	
73	310.0545151233673	pulse	1	t		71.0	2.5	/experiments/knapen_AOT/AOT_stimuli/rescaled_final/0719_rv.mp4	0.0	327.62698316574097	
73	310.5710461139679	fix_post	2		12	71.0	2.5	/experiments/knapen_AOT/AOT_stimuli/rescaled_final/0719_rv.mp4	0.0	328.14351415634155	0.10010600090026855
74	310.67115211486816	fix_pre	0		119	72.0	2.5	/experiments/knapen_AOT/AOT_stimuli/rescaled_final/0598_fw.mp4	0.0	328.2436201572418	0.9917399883270264
74	311.6547620296478	pulse	0	t		72.0	2.5	/experiments/knapen_AOT/AOT_stimuli/rescaled_final/0598_fw.mp4	0.0	329.2272300720215	
74	311.6628921031952	movie	1		247	72.0	2.5	/experiments/knapen_AOT/AOT_stimuli/rescaled_final/0598_fw.mp4	0.0	329.23536014556885	2.5087339878082275
74	313.25898909568787	pulse	1	t		72.0	2.5	/experiments/knapen_AOT/AOT_stimuli/rescaled_final/0598_fw.mp4	0.0	330.8314571380615	
74	314.1716260910034	fix_post	2		12	72.0	2.5	/experiments/knapen_AOT/AOT_stimuli/rescaled_final/0598_fw.mp4	0.0	331.7440941333771	0.09998893737792969
75	314.27161502838135	fix_pre	0		120	73.0	2.5	/experiments/knapen_AOT/AOT_stimuli/rescaled_final/1286_fw.mp4	0.0	331.844083070755	1.0001320838928223
75	314.85528016090393	pulse	0	t		73.0	2.5	/experiments/knapen_AOT/AOT_stimuli/rescaled_final/1286_fw.mp4	0.0	332.4277482032776	
75	315.27174711227417	movie	1		244	73.0	2.5	/experiments/knapen_AOT/AOT_stimuli/rescaled_final/1286_fw.mp4	0.0	332.8442151546478	2.5003581047058105
75	316.4554841518402	pulse	1	t		73.0	2.5	/experiments/knapen_AOT/AOT_stimuli/rescaled_final/1286_fw.mp4	0.0	334.02795219421387	
75	317.77210521698	fix_post	2		12	73.0	2.5	/experiments/knapen_AOT/AOT_stimuli/rescaled_final/1286_fw.mp4	0.0	335.34457325935364	0.10001683235168457
76	317.87212204933167	fix_pre	0		120	74.0	2.5	/experiments/knapen_AOT/AOT_stimuli/rescaled_final/1521_fw.mp4	0.0	335.4445900917053	1.0001671314239502
76	318.05575799942017	pulse	0	t		74.0	2.5	/experiments/knapen_AOT/AOT_stimuli/rescaled_final/1521_fw.mp4	0.0	335.6282260417938	
76	318.8722891807556	movie	1		243	74.0	2.5	/experiments/knapen_AOT/AOT_stimuli/rescaled_final/1521_fw.mp4	0.0	336.4447572231293	2.500377893447876
76	319.6559522151947	pulse	1	t		74.0	2.5	/experiments/knapen_AOT/AOT_stimuli/rescaled_final/1521_fw.mp4	0.0	337.22842025756836	
76	321.25626516342163	pulse	1	t		74.0	2.5	/experiments/knapen_AOT/AOT_stimuli/rescaled_final/1521_fw.mp4	0.0	338.8287332057953	
76	321.3726670742035	fix_post	2		12	74.0	2.5	/experiments/knapen_AOT/AOT_stimuli/rescaled_final/1521_fw.mp4	0.0	338.94513511657715	0.09998202323913574
77	321.4726490974426	fix_pre	0		120	75.0	2.5	blank	1.0	339.0451171398163	1.0001909732818604
77	322.4728400707245	movie	1		299	75.0	2.5	blank	1.0	340.04530811309814	2.491990089416504
77	322.85637521743774	pulse	1	t		75.0	2.5	blank	1.0	340.4288432598114	
77	324.456748008728	pulse	1	t		75.0	2.5	blank	1.0	342.0292160511017	
77	324.964830160141	fix_post	2		12	75.0	2.5	blank	1.0	342.53729820251465	0.10004901885986328
78	325.06487917900085	fix_pre	0		117	76.0	2.5	/experiments/knapen_AOT/AOT_stimuli/rescaled_final/0300_fw.mp4	0.0	342.6373472213745	1.0001819133758545
78	326.05686616897583	pulse	0	t		76.0	2.5	/experiments/knapen_AOT/AOT_stimuli/rescaled_final/0300_fw.mp4	0.0	343.6293342113495	
78	326.0650610923767	movie	1		244	76.0	2.5	/experiments/knapen_AOT/AOT_stimuli/rescaled_final/0300_fw.mp4	0.0	343.63752913475037	2.5087239742279053
78	327.65778517723083	pulse	1	t		76.0	2.5	/experiments/knapen_AOT/AOT_stimuli/rescaled_final/0300_fw.mp4	0.0	345.2302532196045	
78	328.5737850666046	fix_post	2		12	76.0	2.5	/experiments/knapen_AOT/AOT_stimuli/rescaled_final/0300_fw.mp4	0.0	346.14625310897827	0.09998011589050293
79	328.6737651824951	fix_pre	0		120	77.0	2.5	/experiments/knapen_AOT/AOT_stimuli/rescaled_final/1655_rv.mp4	0.0	346.2462332248688	1.000140905380249
79	329.2573540210724	pulse	0	t		77.0	2.5	/experiments/knapen_AOT/AOT_stimuli/rescaled_final/1655_rv.mp4	0.0	346.82982206344604	
79	329.67390608787537	movie	1		242	77.0	2.5	/experiments/knapen_AOT/AOT_stimuli/rescaled_final/1655_rv.mp4	0.0	347.246374130249	2.500399112701416
79	330.85772609710693	pulse	1	t		77.0	2.5	/experiments/knapen_AOT/AOT_stimuli/rescaled_final/1655_rv.mp4	0.0	348.4301941394806	
79	332.1743052005768	fix_post	2		12	77.0	2.5	/experiments/knapen_AOT/AOT_stimuli/rescaled_final/1655_rv.mp4	0.0	349.74677324295044	0.1000068187713623
80	332.27431201934814	fix_pre	0		120	78.0	2.5	/experiments/knapen_AOT/AOT_stimuli/rescaled_final/2119_rv.mp4	0.0	349.8467800617218	1.0001401901245117
80	332.4578630924225	pulse	0	t		78.0	2.5	/experiments/knapen_AOT/AOT_stimuli/rescaled_final/2119_rv.mp4	0.0	350.03033113479614	
80	333.27445220947266	movie	1		248	78.0	2.5	/experiments/knapen_AOT/AOT_stimuli/rescaled_final/2119_rv.mp4	0.0	350.8469202518463	2.5003700256347656
80	334.0580720901489	pulse	1	t		78.0	2.5	/experiments/knapen_AOT/AOT_stimuli/rescaled_final/2119_rv.mp4	0.0	351.6305401325226	
80	335.6583180427551	pulse	1	t		78.0	2.5	/experiments/knapen_AOT/AOT_stimuli/rescaled_final/2119_rv.mp4	0.0	353.2307860851288	
80	335.7748222351074	fix_post	2		12	78.0	2.5	/experiments/knapen_AOT/AOT_stimuli/rescaled_final/2119_rv.mp4	0.0	353.3472902774811	0.10003399848937988
81	335.8748562335968	fix_pre	0		120	79.0	2.5	/experiments/knapen_AOT/AOT_stimuli/rescaled_final/2110_fw.mp4	0.0	353.44732427597046	1.0000889301300049
81	336.8749451637268	movie	1		243	79.0	2.5	/experiments/knapen_AOT/AOT_stimuli/rescaled_final/2110_fw.mp4	0.0	354.44741320610046	2.4920740127563477
81	337.25923204421997	pulse	1	t		79.0	2.5	/experiments/knapen_AOT/AOT_stimuli/rescaled_final/2110_fw.mp4	0.0	354.8317000865936	
81	338.85884618759155	pulse	1	t		79.0	2.5	/experiments/knapen_AOT/AOT_stimuli/rescaled_final/2110_fw.mp4	0.0	356.4313142299652	
81	339.36701917648315	fix_post	2		12	79.0	2.5	/experiments/knapen_AOT/AOT_stimuli/rescaled_final/2110_fw.mp4	0.0	356.9394872188568	0.09999990463256836
82	339.4670190811157	fix_pre	0		120	80.0	2.5	/experiments/knapen_AOT/AOT_stimuli/rescaled_final/1692_rv.mp4	0.0	357.0394871234894	1.000110149383545
82	340.4590301513672	pulse	0	t		80.0	2.5	/experiments/knapen_AOT/AOT_stimuli/rescaled_final/1692_rv.mp4	0.0	358.03149819374084	
82	340.46712923049927	movie	1		243	80.0	2.5	/experiments/knapen_AOT/AOT_stimuli/rescaled_final/1692_rv.mp4	0.0	358.0395972728729	2.508784770965576
82	342.05981612205505	pulse	1	t		80.0	2.5	/experiments/knapen_AOT/AOT_stimuli/rescaled_final/1692_rv.mp4	0.0	359.6322841644287	
82	342.97591400146484	fix_post	2		12	80.0	2.5	/experiments/knapen_AOT/AOT_stimuli/rescaled_final/1692_rv.mp4	0.0	360.5483820438385	0.09998011589050293
83	343.07589411735535	fix_pre	0		120	81.0	2.5	/experiments/knapen_AOT/AOT_stimuli/rescaled_final/0928_fw.mp4	0.0	360.648362159729	1.0001640319824219
83	343.6595950126648	pulse	0	t		81.0	2.5	/experiments/knapen_AOT/AOT_stimuli/rescaled_final/0928_fw.mp4	0.0	361.23206305503845	
83	344.07605814933777	movie	1		242	81.0	2.5	/experiments/knapen_AOT/AOT_stimuli/rescaled_final/0928_fw.mp4	0.0	361.6485261917114	2.5004918575286865
83	345.2562470436096	pulse	1	t		81.0	2.5	/experiments/knapen_AOT/AOT_stimuli/rescaled_final/0928_fw.mp4	0.0	362.8287150859833	
83	346.57655000686646	fix_post	2		12	81.0	2.5	/experiments/knapen_AOT/AOT_stimuli/rescaled_final/0928_fw.mp4	0.0	364.1490180492401	0.09992599487304688
84	346.6764760017395	fix_pre	0		120	82.0	2.5	/experiments/knapen_AOT/AOT_stimuli/rescaled_final/0098_fw.mp4	0.0	364.24894404411316	1.0000970363616943
84	346.8600380420685	pulse	0	t		82.0	2.5	/experiments/knapen_AOT/AOT_stimuli/rescaled_final/0098_fw.mp4	0.0	364.43250608444214	
84	347.6765730381012	movie	1		244	82.0	2.5	/experiments/knapen_AOT/AOT_stimuli/rescaled_final/0098_fw.mp4	0.0	365.24904108047485	2.500343084335327
84	348.4601671695709	pulse	1	t		82.0	2.5	/experiments/knapen_AOT/AOT_stimuli/rescaled_final/0098_fw.mp4	0.0	366.0326352119446	
84	350.0604820251465	pulse	1	t		82.0	2.5	/experiments/knapen_AOT/AOT_stimuli/rescaled_final/0098_fw.mp4	0.0	367.63295006752014	
84	350.1769161224365	fix_post	2		12	82.0	2.5	/experiments/knapen_AOT/AOT_stimuli/rescaled_final/0098_fw.mp4	0.0	367.7493841648102	0.10005807876586914
85	350.2769742012024	fix_pre	0		120	83.0	2.5	blank	1.0	367.84944224357605	1.0001239776611328
85	351.2770981788635	movie	1		299	83.0	2.5	blank	1.0	368.8495662212372	2.4920198917388916
85	351.66078209877014	pulse	1	t		83.0	2.5	blank	1.0	369.2332501411438	
85	353.2534921169281	pulse	1	t		83.0	2.5	blank	1.0	370.82596015930176	
85	353.7691180706024	fix_post	2		12	83.0	2.5	blank	1.0	371.3415861129761	0.10001897811889648
87	353.8691370487213	stim	0		1716					371.44160509109497	14.302098035812378
87	354.85397815704346	pulse	0	t						372.4264461994171	
87	356.4540891647339	pulse	0	t						374.02655720710754	
87	358.0541641712189	pulse	0	t						375.62663221359253	
87	359.65374422073364	pulse	0	t						377.2262122631073	
87	361.25370502471924	pulse	0	t						378.8261730670929	
87	362.854022026062	pulse	0	t						380.42649006843567	
87	364.45423007011414	pulse	0	t						382.0266981124878	
87	366.0543780326843	pulse	0	t						383.626846075058	
87	367.65473318099976	pulse	0	t						385.2272012233734	
