trial_nr	onset	event_type	phase	response	nr_frames	movie_index	movie_duration	movie_file	blank	onset_abs	duration
0	0.16652655601501465	stim	0		1					16.753941774368286	0.008240222930908203
0	0.14303255081176758	response	0	space						16.73044776916504	
1	0.17476677894592285	stim	0		4708					16.762181997299194	39.25165295600891
1	39.41632604598999	pulse	0	t						56.00374126434326	
1	39.426419734954834	stim	1		1715					56.013834953308105	14.306404113769531
1	41.006229639053345	pulse	1	t						57.593644857406616	
1	42.60635280609131	pulse	1	t						59.19376802444458	
1	44.20663070678711	pulse	1	t						60.79404592514038	
1	45.80682325363159	pulse	1	t						62.39423847198486	
1	47.40706825256348	pulse	1	t						63.99448347091675	
1	49.007466554641724	pulse	1	t						65.594881772995	
1	50.60761618614197	pulse	1	t						67.19503140449524	
1	52.207762002944946	pulse	1	t						68.79517722129822	
2	53.732823848724365	fix_pre	0		10	0.0	2.5	/experiments/Knapen_AOT/AOT_stimuli/rescaled_final/2134_rv.mp4	0.0	70.32023906707764	0.10010337829589844
2	53.80804371833801	pulse	0	t		0.0	2.5	/experiments/Knapen_AOT/AOT_stimuli/rescaled_final/2134_rv.mp4	0.0	70.39545893669128	
2	53.832927227020264	movie	1		283	0.0	2.5	/experiments/Knapen_AOT/AOT_stimuli/rescaled_final/2134_rv.mp4	0.0	70.42034244537354	2.491946220397949
2	55.40685677528381	pulse	1	t		0.0	2.5	/experiments/Knapen_AOT/AOT_stimuli/rescaled_final/2134_rv.mp4	0.0	71.99427199363708	
2	56.32487344741821	fix_post	2		12	0.0	2.5	/experiments/Knapen_AOT/AOT_stimuli/rescaled_final/2134_rv.mp4	0.0	72.91228866577148	0.10001635551452637
3	56.42488980293274	fix_pre	0		120	1.0	2.5	/experiments/Knapen_AOT/AOT_stimuli/rescaled_final/1982_fw.mp4	0.0	73.01230502128601	1.0084896087646484
3	57.008551597595215	pulse	0	t		1.0	2.5	/experiments/Knapen_AOT/AOT_stimuli/rescaled_final/1982_fw.mp4	0.0	73.59596681594849	
3	57.43337941169739	movie	1		289	1.0	2.5	/experiments/Knapen_AOT/AOT_stimuli/rescaled_final/1982_fw.mp4	0.0	74.02079463005066	2.5003767013549805
3	58.60671544075012	pulse	1	t		1.0	2.5	/experiments/Knapen_AOT/AOT_stimuli/rescaled_final/1982_fw.mp4	0.0	75.1941306591034	
3	59.93375611305237	fix_post	2		11	1.0	2.5	/experiments/Knapen_AOT/AOT_stimuli/rescaled_final/1982_fw.mp4	0.0	76.52117133140564	0.09173774719238281
4	60.02549386024475	fix_pre	0		120	2.0	2.5	/experiments/Knapen_AOT/AOT_stimuli/rescaled_final/2086_fw.mp4	0.0	76.61290907859802	1.0084466934204102
4	60.20900201797485	pulse	0	t		2.0	2.5	/experiments/Knapen_AOT/AOT_stimuli/rescaled_final/2086_fw.mp4	0.0	76.79641723632812	
4	61.03394055366516	movie	1		280	2.0	2.5	/experiments/Knapen_AOT/AOT_stimuli/rescaled_final/2086_fw.mp4	0.0	77.62135577201843	2.4920201301574707
4	61.80820679664612	pulse	1	t		2.0	2.5	/experiments/Knapen_AOT/AOT_stimuli/rescaled_final/2086_fw.mp4	0.0	78.39562201499939	
4	63.4075562953949	pulse	1	t		2.0	2.5	/experiments/Knapen_AOT/AOT_stimuli/rescaled_final/2086_fw.mp4	0.0	79.99497151374817	
4	63.52596068382263	fix_post	2		12	2.0	2.5	/experiments/Knapen_AOT/AOT_stimuli/rescaled_final/2086_fw.mp4	0.0	80.1133759021759	0.10001897811889648
5	63.62597966194153	fix_pre	0		120	3.0	2.5	/experiments/Knapen_AOT/AOT_stimuli/rescaled_final/1112_fw.mp4	0.0	80.2133948802948	1.0084924697875977
5	64.63447213172913	movie	1		273	3.0	2.5	/experiments/Knapen_AOT/AOT_stimuli/rescaled_final/1112_fw.mp4	0.0	81.2218873500824	2.492043972015381
5	65.00837087631226	pulse	1	t		3.0	2.5	/experiments/Knapen_AOT/AOT_stimuli/rescaled_final/1112_fw.mp4	0.0	81.59578609466553	
5	66.60772633552551	pulse	1	t		3.0	2.5	/experiments/Knapen_AOT/AOT_stimuli/rescaled_final/1112_fw.mp4	0.0	83.19514155387878	
5	67.1265161037445	fix_post	2		12	3.0	2.5	/experiments/Knapen_AOT/AOT_stimuli/rescaled_final/1112_fw.mp4	0.0	83.71393132209778	0.10001397132873535
6	67.22653007507324	fix_pre	0		119	4.0	2.5	/experiments/Knapen_AOT/AOT_stimuli/rescaled_final/1308_fw.mp4	0.0	83.81394529342651	1.000162124633789
6	68.21021962165833	pulse	0	t		4.0	2.5	/experiments/Knapen_AOT/AOT_stimuli/rescaled_final/1308_fw.mp4	0.0	84.7976348400116	
6	68.22669219970703	movie	1		294	4.0	2.5	/experiments/Knapen_AOT/AOT_stimuli/rescaled_final/1308_fw.mp4	0.0	84.8141074180603	2.5003747940063477
6	69.80913782119751	pulse	1	t		4.0	2.5	/experiments/Knapen_AOT/AOT_stimuli/rescaled_final/1308_fw.mp4	0.0	86.39655303955078	
6	70.72706699371338	fix_post	2		12	4.0	2.5	/experiments/Knapen_AOT/AOT_stimuli/rescaled_final/1308_fw.mp4	0.0	87.31448221206665	0.09998750686645508
7	70.82705450057983	fix_pre	0		120	5.0	2.5	/experiments/Knapen_AOT/AOT_stimuli/rescaled_final/0669_rv.mp4	0.0	87.4144697189331	1.0085210800170898
7	71.41069746017456	pulse	0	t		5.0	2.5	/experiments/Knapen_AOT/AOT_stimuli/rescaled_final/0669_rv.mp4	0.0	87.99811267852783	
7	71.83557558059692	movie	1		276	5.0	2.5	/experiments/Knapen_AOT/AOT_stimuli/rescaled_final/0669_rv.mp4	0.0	88.4229907989502	2.492011547088623
7	73.00906538963318	pulse	1	t		5.0	2.5	/experiments/Knapen_AOT/AOT_stimuli/rescaled_final/0669_rv.mp4	0.0	89.59648060798645	
7	74.32758712768555	fix_post	2		12	5.0	2.5	/experiments/Knapen_AOT/AOT_stimuli/rescaled_final/0669_rv.mp4	0.0	90.91500234603882	0.10007262229919434
8	74.42765974998474	fix_pre	0		120	6.0	2.5	blank	1.0	91.01507496833801	1.0000813007354736
8	74.61114764213562	pulse	0	t		6.0	2.5	blank	1.0	91.19856286048889	
8	75.42774105072021	movie	1		300	6.0	2.5	blank	1.0	92.01515626907349	2.500396728515625
8	76.21142268180847	pulse	1	t		6.0	2.5	blank	1.0	92.79883790016174	
8	77.81164479255676	pulse	1	t		6.0	2.5	blank	1.0	94.39906001091003	
8	77.92813777923584	fix_post	2		12	6.0	2.5	blank	1.0	94.51555299758911	0.10000395774841309
9	78.02814173698425	fix_pre	0		120	7.0	2.5	/experiments/Knapen_AOT/AOT_stimuli/rescaled_final/2046_rv.mp4	0.0	94.61555695533752	1.0085129737854004
9	79.03665471076965	movie	1		283	7.0	2.5	/experiments/Knapen_AOT/AOT_stimuli/rescaled_final/2046_rv.mp4	0.0	95.62406992912292	2.4920616149902344
9	79.41017508506775	pulse	1	t		7.0	2.5	/experiments/Knapen_AOT/AOT_stimuli/rescaled_final/2046_rv.mp4	0.0	95.99759030342102	
9	81.01010251045227	pulse	1	t		7.0	2.5	/experiments/Knapen_AOT/AOT_stimuli/rescaled_final/2046_rv.mp4	0.0	97.59751772880554	
9	81.52871632575989	fix_post	2		12	7.0	2.5	/experiments/Knapen_AOT/AOT_stimuli/rescaled_final/2046_rv.mp4	0.0	98.11613154411316	0.0999751091003418
10	81.62869143486023	fix_pre	0		119	8.0	2.5	/experiments/Knapen_AOT/AOT_stimuli/rescaled_final/0070_fw.mp4	0.0	98.2161066532135	1.0001411437988281
10	82.6044704914093	pulse	0	t		8.0	2.5	/experiments/Knapen_AOT/AOT_stimuli/rescaled_final/0070_fw.mp4	0.0	99.19188570976257	
10	82.62883257865906	movie	1		286	8.0	2.5	/experiments/Knapen_AOT/AOT_stimuli/rescaled_final/0070_fw.mp4	0.0	99.21624779701233	2.500375747680664
10	84.20493769645691	pulse	1	t		8.0	2.5	/experiments/Knapen_AOT/AOT_stimuli/rescaled_final/0070_fw.mp4	0.0	100.79235291481018	
10	85.12920832633972	fix_post	2		12	8.0	2.5	/experiments/Knapen_AOT/AOT_stimuli/rescaled_final/0070_fw.mp4	0.0	101.716623544693	0.1000661849975586
11	85.22927451133728	fix_pre	0		120	9.0	2.5	/experiments/Knapen_AOT/AOT_stimuli/rescaled_final/2016_fw.mp4	0.0	101.81668972969055	1.0084547996520996
11	85.80482912063599	pulse	0	t		9.0	2.5	/experiments/Knapen_AOT/AOT_stimuli/rescaled_final/2016_fw.mp4	0.0	102.39224433898926	
11	86.23772931098938	movie	1		280	9.0	2.5	/experiments/Knapen_AOT/AOT_stimuli/rescaled_final/2016_fw.mp4	0.0	102.82514452934265	2.4920079708099365
11	87.40476942062378	pulse	1	t		9.0	2.5	/experiments/Knapen_AOT/AOT_stimuli/rescaled_final/2016_fw.mp4	0.0	103.99218463897705	
11	88.72973728179932	fix_post	2		12	9.0	2.5	/experiments/Knapen_AOT/AOT_stimuli/rescaled_final/2016_fw.mp4	0.0	105.31715250015259	0.1001732349395752
12	88.82991051673889	fix_pre	0		120	10.0	2.5	/experiments/Knapen_AOT/AOT_stimuli/rescaled_final/1481_fw.mp4	0.0	105.41732573509216	1.008401870727539
12	89.0053071975708	pulse	0	t		10.0	2.5	/experiments/Knapen_AOT/AOT_stimuli/rescaled_final/1481_fw.mp4	0.0	105.59272241592407	
12	89.83831238746643	movie	1		289	10.0	2.5	/experiments/Knapen_AOT/AOT_stimuli/rescaled_final/1481_fw.mp4	0.0	106.4257276058197	2.491959571838379
12	90.60526895523071	pulse	1	t		10.0	2.5	/experiments/Knapen_AOT/AOT_stimuli/rescaled_final/1481_fw.mp4	0.0	107.19268417358398	
12	92.205561876297	pulse	1	t		10.0	2.5	/experiments/Knapen_AOT/AOT_stimuli/rescaled_final/1481_fw.mp4	0.0	108.79297709465027	
12	92.33027195930481	fix_post	2		12	10.0	2.5	/experiments/Knapen_AOT/AOT_stimuli/rescaled_final/1481_fw.mp4	0.0	108.91768717765808	0.10004734992980957
13	92.43031930923462	fix_pre	0		120	11.0	2.5	/experiments/Knapen_AOT/AOT_stimuli/rescaled_final/0488_fw.mp4	0.0	109.01773452758789	1.0084583759307861
13	93.4387776851654	movie	1		293	11.0	2.5	/experiments/Knapen_AOT/AOT_stimuli/rescaled_final/0488_fw.mp4	0.0	110.02619290351868	2.4920568466186523
13	93.8057587146759	pulse	1	t		11.0	2.5	/experiments/Knapen_AOT/AOT_stimuli/rescaled_final/0488_fw.mp4	0.0	110.39317393302917	
13	95.40597176551819	pulse	1	t		11.0	2.5	/experiments/Knapen_AOT/AOT_stimuli/rescaled_final/0488_fw.mp4	0.0	111.99338698387146	
13	95.93083453178406	fix_post	2		12	11.0	2.5	/experiments/Knapen_AOT/AOT_stimuli/rescaled_final/0488_fw.mp4	0.0	112.51824975013733	0.10003209114074707
14	96.0308666229248	fix_pre	0		118	12.0	2.5	/experiments/Knapen_AOT/AOT_stimuli/rescaled_final/0301_fw.mp4	0.0	112.61828184127808	0.991830587387085
14	97.00625395774841	pulse	0	t		12.0	2.5	/experiments/Knapen_AOT/AOT_stimuli/rescaled_final/0301_fw.mp4	0.0	113.59366917610168	
14	97.02269721031189	movie	1		280	12.0	2.5	/experiments/Knapen_AOT/AOT_stimuli/rescaled_final/0301_fw.mp4	0.0	113.61011242866516	2.500333547592163
14	98.6046416759491	pulse	1	t		12.0	2.5	/experiments/Knapen_AOT/AOT_stimuli/rescaled_final/0301_fw.mp4	0.0	115.19205689430237	
14	99.52303075790405	fix_post	2		12	12.0	2.5	/experiments/Knapen_AOT/AOT_stimuli/rescaled_final/0301_fw.mp4	0.0	116.11044597625732	0.10003852844238281
15	99.62306928634644	fix_pre	0		120	13.0	2.5	/experiments/Knapen_AOT/AOT_stimuli/rescaled_final/0396_fw.mp4	0.0	116.2104845046997	1.008486270904541
15	100.20668435096741	pulse	0	t		13.0	2.5	/experiments/Knapen_AOT/AOT_stimuli/rescaled_final/0396_fw.mp4	0.0	116.79409956932068	
15	100.63155555725098	movie	1		284	13.0	2.5	/experiments/Knapen_AOT/AOT_stimuli/rescaled_final/0396_fw.mp4	0.0	117.21897077560425	2.49202299118042
15	101.80515265464783	pulse	1	t		13.0	2.5	/experiments/Knapen_AOT/AOT_stimuli/rescaled_final/0396_fw.mp4	0.0	118.3925678730011	
15	103.1235785484314	fix_post	2		12	13.0	2.5	/experiments/Knapen_AOT/AOT_stimuli/rescaled_final/0396_fw.mp4	0.0	119.71099376678467	0.1000204086303711
16	103.22359895706177	fix_pre	0		120	14.0	2.5	blank	1.0	119.81101417541504	1.0001442432403564
16	103.40727972984314	pulse	0	t		14.0	2.5	blank	1.0	119.99469494819641	
16	104.22374320030212	movie	1		300	14.0	2.5	blank	1.0	120.8111584186554	2.5003957748413086
16	105.00751304626465	pulse	1	t		14.0	2.5	blank	1.0	121.59492826461792	
16	106.60787034034729	pulse	1	t		14.0	2.5	blank	1.0	123.19528555870056	
16	106.72413897514343	fix_post	2		12	14.0	2.5	blank	1.0	123.3115541934967	0.10001802444458008
17	106.82415699958801	fix_pre	0		120	15.0	2.5	/experiments/Knapen_AOT/AOT_stimuli/rescaled_final/1292_rv.mp4	0.0	123.41157221794128	1.0084633827209473
17	107.83262038230896	movie	1		286	15.0	2.5	/experiments/Knapen_AOT/AOT_stimuli/rescaled_final/1292_rv.mp4	0.0	124.42003560066223	2.49204158782959
17	108.20637154579163	pulse	1	t		15.0	2.5	/experiments/Knapen_AOT/AOT_stimuli/rescaled_final/1292_rv.mp4	0.0	124.7937867641449	
17	109.80601716041565	pulse	1	t		15.0	2.5	/experiments/Knapen_AOT/AOT_stimuli/rescaled_final/1292_rv.mp4	0.0	126.39343237876892	
17	110.32466197013855	fix_post	2		12	15.0	2.5	/experiments/Knapen_AOT/AOT_stimuli/rescaled_final/1292_rv.mp4	0.0	126.91207718849182	0.10005545616149902
18	110.42471742630005	fix_pre	0		119	16.0	2.5	/experiments/Knapen_AOT/AOT_stimuli/rescaled_final/0676_rv.mp4	0.0	127.01213264465332	1.0001294612884521
18	111.40841937065125	pulse	0	t		16.0	2.5	/experiments/Knapen_AOT/AOT_stimuli/rescaled_final/0676_rv.mp4	0.0	127.99583458900452	
18	111.4248468875885	movie	1		285	16.0	2.5	/experiments/Knapen_AOT/AOT_stimuli/rescaled_final/0676_rv.mp4	0.0	128.01226210594177	2.500373363494873
18	113.0069944858551	pulse	1	t		16.0	2.5	/experiments/Knapen_AOT/AOT_stimuli/rescaled_final/0676_rv.mp4	0.0	129.59440970420837	
18	113.92522025108337	fix_post	2		12	16.0	2.5	/experiments/Knapen_AOT/AOT_stimuli/rescaled_final/0676_rv.mp4	0.0	130.51263546943665	0.10000371932983398
19	114.02522397041321	fix_pre	0		120	17.0	2.5	/experiments/Knapen_AOT/AOT_stimuli/rescaled_final/0279_rv.mp4	0.0	130.61263918876648	1.008490800857544
19	114.60884928703308	pulse	0	t		17.0	2.5	/experiments/Knapen_AOT/AOT_stimuli/rescaled_final/0279_rv.mp4	0.0	131.19626450538635	
19	115.03371477127075	movie	1		277	17.0	2.5	/experiments/Knapen_AOT/AOT_stimuli/rescaled_final/0279_rv.mp4	0.0	131.62112998962402	2.492058277130127
19	116.20750617980957	pulse	1	t		17.0	2.5	/experiments/Knapen_AOT/AOT_stimuli/rescaled_final/0279_rv.mp4	0.0	132.79492139816284	
19	117.52577304840088	fix_post	2		12	17.0	2.5	/experiments/Knapen_AOT/AOT_stimuli/rescaled_final/0279_rv.mp4	0.0	134.11318826675415	0.10004520416259766
20	117.62581825256348	fix_pre	0		120	18.0	2.5	/experiments/Knapen_AOT/AOT_stimuli/rescaled_final/0532_rv.mp4	0.0	134.21323347091675	1.0084733963012695
20	117.80946493148804	pulse	0	t		18.0	2.5	/experiments/Knapen_AOT/AOT_stimuli/rescaled_final/0532_rv.mp4	0.0	134.3968801498413	
20	118.63429164886475	movie	1		287	18.0	2.5	/experiments/Knapen_AOT/AOT_stimuli/rescaled_final/0532_rv.mp4	0.0	135.22170686721802	2.4920623302459717
20	119.40784192085266	pulse	1	t		18.0	2.5	/experiments/Knapen_AOT/AOT_stimuli/rescaled_final/0532_rv.mp4	0.0	135.99525713920593	
20	121.00778937339783	pulse	1	t		18.0	2.5	/experiments/Knapen_AOT/AOT_stimuli/rescaled_final/0532_rv.mp4	0.0	137.5952045917511	
20	121.12635397911072	fix_post	2		12	18.0	2.5	/experiments/Knapen_AOT/AOT_stimuli/rescaled_final/0532_rv.mp4	0.0	137.713769197464	0.09999442100524902
21	121.22634840011597	fix_pre	0		120	19.0	2.5	/experiments/Knapen_AOT/AOT_stimuli/rescaled_final/2127_rv.mp4	0.0	137.81376361846924	1.0084385871887207
21	122.23478698730469	movie	1		285	19.0	2.5	/experiments/Knapen_AOT/AOT_stimuli/rescaled_final/2127_rv.mp4	0.0	138.82220220565796	2.4920763969421387
21	122.60802984237671	pulse	1	t		19.0	2.5	/experiments/Knapen_AOT/AOT_stimuli/rescaled_final/2127_rv.mp4	0.0	139.19544506072998	
21	124.20833253860474	pulse	1	t		19.0	2.5	/experiments/Knapen_AOT/AOT_stimuli/rescaled_final/2127_rv.mp4	0.0	140.795747756958	
21	124.72686338424683	fix_post	2		12	19.0	2.5	/experiments/Knapen_AOT/AOT_stimuli/rescaled_final/2127_rv.mp4	0.0	141.3142786026001	0.09998440742492676
22	124.82684779167175	fix_pre	0		119	20.0	2.5	/experiments/Knapen_AOT/AOT_stimuli/rescaled_final/0815_rv.mp4	0.0	141.41426301002502	1.0001330375671387
22	125.81045365333557	pulse	0	t		20.0	2.5	/experiments/Knapen_AOT/AOT_stimuli/rescaled_final/0815_rv.mp4	0.0	142.39786887168884	
22	125.82698082923889	movie	1		281	20.0	2.5	/experiments/Knapen_AOT/AOT_stimuli/rescaled_final/0815_rv.mp4	0.0	142.41439604759216	2.5004067420959473
22	127.4092538356781	pulse	1	t		20.0	2.5	/experiments/Knapen_AOT/AOT_stimuli/rescaled_final/0815_rv.mp4	0.0	143.99666905403137	
22	128.32738757133484	fix_post	2		12	20.0	2.5	/experiments/Knapen_AOT/AOT_stimuli/rescaled_final/0815_rv.mp4	0.0	144.9148027896881	0.09999346733093262
23	128.42738103866577	fix_pre	0		120	21.0	2.5	blank	1.0	145.01479625701904	1.0001435279846191
23	129.01140975952148	pulse	0	t		21.0	2.5	blank	1.0	145.59882497787476	
23	129.4275245666504	movie	1		300	21.0	2.5	blank	1.0	146.01493978500366	2.5003931522369385
23	130.61125564575195	pulse	1	t		21.0	2.5	blank	1.0	147.19867086410522	
23	131.92791771888733	fix_post	2		12	21.0	2.5	blank	1.0	148.5153329372406	0.10009074211120605
24	132.02800846099854	fix_pre	0		120	22.0	2.5	/experiments/Knapen_AOT/AOT_stimuli/rescaled_final/2174_fw.mp4	0.0	148.6154236793518	1.0083982944488525
24	132.21147060394287	pulse	0	t		22.0	2.5	/experiments/Knapen_AOT/AOT_stimuli/rescaled_final/2174_fw.mp4	0.0	148.79888582229614	
24	133.0364067554474	movie	1		281	22.0	2.5	/experiments/Knapen_AOT/AOT_stimuli/rescaled_final/2174_fw.mp4	0.0	149.62382197380066	2.49204158782959
24	133.809387922287	pulse	1	t		22.0	2.5	/experiments/Knapen_AOT/AOT_stimuli/rescaled_final/2174_fw.mp4	0.0	150.39680314064026	
24	135.41011023521423	pulse	1	t		22.0	2.5	/experiments/Knapen_AOT/AOT_stimuli/rescaled_final/2174_fw.mp4	0.0	151.9975254535675	
24	135.52844834327698	fix_post	2		12	22.0	2.5	/experiments/Knapen_AOT/AOT_stimuli/rescaled_final/2174_fw.mp4	0.0	152.11586356163025	0.1000204086303711
25	135.62846875190735	fix_pre	0		120	23.0	2.5	/experiments/Knapen_AOT/AOT_stimuli/rescaled_final/2169_fw.mp4	0.0	152.21588397026062	1.0085117816925049
25	136.63698053359985	movie	1		280	23.0	2.5	/experiments/Knapen_AOT/AOT_stimuli/rescaled_final/2169_fw.mp4	0.0	153.22439575195312	2.4920880794525146
25	137.0118727684021	pulse	1	t		23.0	2.5	/experiments/Knapen_AOT/AOT_stimuli/rescaled_final/2169_fw.mp4	0.0	153.59928798675537	
25	138.6104860305786	pulse	1	t		23.0	2.5	/experiments/Knapen_AOT/AOT_stimuli/rescaled_final/2169_fw.mp4	0.0	155.19790124893188	
25	139.12906861305237	fix_post	2		12	23.0	2.5	/experiments/Knapen_AOT/AOT_stimuli/rescaled_final/2169_fw.mp4	0.0	155.71648383140564	0.0999460220336914
26	139.22901463508606	fix_pre	0		119	24.0	2.5	/experiments/Knapen_AOT/AOT_stimuli/rescaled_final/1743_rv.mp4	0.0	155.81642985343933	1.0001933574676514
26	140.20506405830383	pulse	0	t		24.0	2.5	/experiments/Knapen_AOT/AOT_stimuli/rescaled_final/1743_rv.mp4	0.0	156.7924792766571	
26	140.2292079925537	movie	1		284	24.0	2.5	/experiments/Knapen_AOT/AOT_stimuli/rescaled_final/1743_rv.mp4	0.0	156.81662321090698	2.5003364086151123
26	141.8050639629364	pulse	1	t		24.0	2.5	/experiments/Knapen_AOT/AOT_stimuli/rescaled_final/1743_rv.mp4	0.0	158.39247918128967	
26	142.72954440116882	fix_post	2		12	24.0	2.5	/experiments/Knapen_AOT/AOT_stimuli/rescaled_final/1743_rv.mp4	0.0	159.3169596195221	0.1000070571899414
27	142.82955145835876	fix_pre	0		120	25.0	2.5	/experiments/Knapen_AOT/AOT_stimuli/rescaled_final/1425_rv.mp4	0.0	159.41696667671204	1.0085489749908447
27	143.4051673412323	pulse	0	t		25.0	2.5	/experiments/Knapen_AOT/AOT_stimuli/rescaled_final/1425_rv.mp4	0.0	159.99258255958557	
27	143.8381004333496	movie	1		287	25.0	2.5	/experiments/Knapen_AOT/AOT_stimuli/rescaled_final/1425_rv.mp4	0.0	160.42551565170288	2.4920220375061035
27	145.0051670074463	pulse	1	t		25.0	2.5	/experiments/Knapen_AOT/AOT_stimuli/rescaled_final/1425_rv.mp4	0.0	161.59258222579956	
27	146.3301224708557	fix_post	2		12	25.0	2.5	/experiments/Knapen_AOT/AOT_stimuli/rescaled_final/1425_rv.mp4	0.0	162.91753768920898	0.09997391700744629
28	146.43009638786316	fix_pre	0		120	26.0	2.5	blank	1.0	163.01751160621643	1.0001280307769775
28	146.60536456108093	pulse	0	t		26.0	2.5	blank	1.0	163.1927797794342	
28	147.43022441864014	movie	1		300	26.0	2.5	blank	1.0	164.0176396369934	2.5004005432128906
28	148.20557618141174	pulse	1	t		26.0	2.5	blank	1.0	164.79299139976501	
28	149.80580377578735	pulse	1	t		26.0	2.5	blank	1.0	166.39321899414062	
28	149.93062496185303	fix_post	2		12	26.0	2.5	blank	1.0	166.5180401802063	0.10000824928283691
29	150.03063321113586	fix_pre	0		120	27.0	2.5	/experiments/Knapen_AOT/AOT_stimuli/rescaled_final/1502_rv.mp4	0.0	166.61804842948914	1.0085170269012451
29	151.0391502380371	movie	1		283	27.0	2.5	/experiments/Knapen_AOT/AOT_stimuli/rescaled_final/1502_rv.mp4	0.0	167.62656545639038	2.492006778717041
29	151.40609002113342	pulse	1	t		27.0	2.5	/experiments/Knapen_AOT/AOT_stimuli/rescaled_final/1502_rv.mp4	0.0	167.9935052394867	
29	153.00632452964783	pulse	1	t		27.0	2.5	/experiments/Knapen_AOT/AOT_stimuli/rescaled_final/1502_rv.mp4	0.0	169.5937397480011	
29	153.53115701675415	fix_post	2		12	27.0	2.5	/experiments/Knapen_AOT/AOT_stimuli/rescaled_final/1502_rv.mp4	0.0	170.11857223510742	0.10011935234069824
30	153.63127636909485	fix_pre	0		118	28.0	2.5	/experiments/Knapen_AOT/AOT_stimuli/rescaled_final/1656_fw.mp4	0.0	170.21869158744812	0.9916994571685791
30	154.60652661323547	pulse	0	t		28.0	2.5	/experiments/Knapen_AOT/AOT_stimuli/rescaled_final/1656_fw.mp4	0.0	171.19394183158875	
30	154.62297582626343	movie	1		292	28.0	2.5	/experiments/Knapen_AOT/AOT_stimuli/rescaled_final/1656_fw.mp4	0.0	171.2103910446167	2.5004098415374756
30	156.2053873538971	pulse	1	t		28.0	2.5	/experiments/Knapen_AOT/AOT_stimuli/rescaled_final/1656_fw.mp4	0.0	172.79280257225037	
30	157.1233856678009	fix_post	2		12	28.0	2.5	/experiments/Knapen_AOT/AOT_stimuli/rescaled_final/1656_fw.mp4	0.0	173.71080088615417	0.09999203681945801
31	157.22337770462036	fix_pre	0		120	29.0	2.5	/experiments/Knapen_AOT/AOT_stimuli/rescaled_final/1643_rv.mp4	0.0	173.81079292297363	1.0086369514465332
31	157.80701613426208	pulse	0	t		29.0	2.5	/experiments/Knapen_AOT/AOT_stimuli/rescaled_final/1643_rv.mp4	0.0	174.39443135261536	
31	158.2320146560669	movie	1		286	29.0	2.5	/experiments/Knapen_AOT/AOT_stimuli/rescaled_final/1643_rv.mp4	0.0	174.81942987442017	2.491894006729126
31	159.40535473823547	pulse	1	t		29.0	2.5	/experiments/Knapen_AOT/AOT_stimuli/rescaled_final/1643_rv.mp4	0.0	175.99276995658875	
31	160.72390866279602	fix_post	2		12	29.0	2.5	/experiments/Knapen_AOT/AOT_stimuli/rescaled_final/1643_rv.mp4	0.0	177.3113238811493	0.10001373291015625
32	160.82392239570618	fix_pre	0		120	30.0	2.5	/experiments/Knapen_AOT/AOT_stimuli/rescaled_final/1982_rv.mp4	0.0	177.41133761405945	1.0084896087646484
32	161.0074851512909	pulse	0	t		30.0	2.5	/experiments/Knapen_AOT/AOT_stimuli/rescaled_final/1982_rv.mp4	0.0	177.59490036964417	
32	161.83241200447083	movie	1		283	30.0	2.5	/experiments/Knapen_AOT/AOT_stimuli/rescaled_final/1982_rv.mp4	0.0	178.4198272228241	2.492093324661255
32	162.6056604385376	pulse	1	t		30.0	2.5	/experiments/Knapen_AOT/AOT_stimuli/rescaled_final/1982_rv.mp4	0.0	179.19307565689087	
32	164.20585179328918	pulse	1	t		30.0	2.5	/experiments/Knapen_AOT/AOT_stimuli/rescaled_final/1982_rv.mp4	0.0	180.79326701164246	
32	164.32450532913208	fix_post	2		12	30.0	2.5	/experiments/Knapen_AOT/AOT_stimuli/rescaled_final/1982_rv.mp4	0.0	180.91192054748535	0.09999418258666992
33	164.42449951171875	fix_pre	0		120	31.0	2.5	/experiments/Knapen_AOT/AOT_stimuli/rescaled_final/2169_rv.mp4	0.0	181.01191473007202	1.0084772109985352
33	165.43297672271729	movie	1		278	31.0	2.5	/experiments/Knapen_AOT/AOT_stimuli/rescaled_final/2169_rv.mp4	0.0	182.02039194107056	2.492133617401123
33	165.8080244064331	pulse	1	t		31.0	2.5	/experiments/Knapen_AOT/AOT_stimuli/rescaled_final/2169_rv.mp4	0.0	182.39543962478638	
33	167.40642166137695	pulse	1	t		31.0	2.5	/experiments/Knapen_AOT/AOT_stimuli/rescaled_final/2169_rv.mp4	0.0	183.99383687973022	
33	167.9251103401184	fix_post	2		12	31.0	2.5	/experiments/Knapen_AOT/AOT_stimuli/rescaled_final/2169_rv.mp4	0.0	184.51252555847168	0.09995079040527344
34	168.02506113052368	fix_pre	0		119	32.0	2.5	/experiments/Knapen_AOT/AOT_stimuli/rescaled_final/0815_fw.mp4	0.0	184.61247634887695	1.0000858306884766
34	169.00876379013062	pulse	0	t		32.0	2.5	/experiments/Knapen_AOT/AOT_stimuli/rescaled_final/0815_fw.mp4	0.0	185.5961790084839	
34	169.02514696121216	movie	1		289	32.0	2.5	/experiments/Knapen_AOT/AOT_stimuli/rescaled_final/0815_fw.mp4	0.0	185.61256217956543	2.500425100326538
34	170.60727787017822	pulse	1	t		32.0	2.5	/experiments/Knapen_AOT/AOT_stimuli/rescaled_final/0815_fw.mp4	0.0	187.1946930885315	
34	171.5255720615387	fix_post	2		12	32.0	2.5	/experiments/Knapen_AOT/AOT_stimuli/rescaled_final/0815_fw.mp4	0.0	188.11298727989197	0.09998965263366699
35	171.62556171417236	fix_pre	0		120	33.0	2.5	/experiments/Knapen_AOT/AOT_stimuli/rescaled_final/1563_rv.mp4	0.0	188.21297693252563	1.0084865093231201
35	172.2091407775879	pulse	0	t		33.0	2.5	/experiments/Knapen_AOT/AOT_stimuli/rescaled_final/1563_rv.mp4	0.0	188.79655599594116	
35	172.63404822349548	movie	1		267	33.0	2.5	/experiments/Knapen_AOT/AOT_stimuli/rescaled_final/1563_rv.mp4	0.0	189.22146344184875	2.4920175075531006
35	173.80747961997986	pulse	1	t		33.0	2.5	/experiments/Knapen_AOT/AOT_stimuli/rescaled_final/1563_rv.mp4	0.0	190.39489483833313	
35	175.12606573104858	fix_post	2		12	33.0	2.5	/experiments/Knapen_AOT/AOT_stimuli/rescaled_final/1563_rv.mp4	0.0	191.71348094940186	0.10002756118774414
36	175.22609329223633	fix_pre	0		120	34.0	2.5	blank	1.0	191.8135085105896	1.0002362728118896
36	175.40964937210083	pulse	0	t		34.0	2.5	blank	1.0	191.9970645904541	
36	176.22632956504822	movie	1		300	34.0	2.5	blank	1.0	192.8137447834015	2.5002849102020264
36	177.0098853111267	pulse	1	t		34.0	2.5	blank	1.0	193.59730052947998	
36	178.61009097099304	pulse	1	t		34.0	2.5	blank	1.0	195.1975061893463	
36	178.72661447525024	fix_post	2		12	34.0	2.5	blank	1.0	195.31402969360352	0.10001969337463379
37	178.82663416862488	fix_pre	0		120	35.0	2.5	/experiments/Knapen_AOT/AOT_stimuli/rescaled_final/0302_rv.mp4	0.0	195.41404938697815	1.0084774494171143
37	179.835111618042	movie	1		277	35.0	2.5	/experiments/Knapen_AOT/AOT_stimuli/rescaled_final/0302_rv.mp4	0.0	196.42252683639526	2.492037057876587
37	180.21062016487122	pulse	1	t		35.0	2.5	/experiments/Knapen_AOT/AOT_stimuli/rescaled_final/0302_rv.mp4	0.0	196.7980353832245	
37	181.8087387084961	pulse	1	t		35.0	2.5	/experiments/Knapen_AOT/AOT_stimuli/rescaled_final/0302_rv.mp4	0.0	198.39615392684937	
37	182.32714867591858	fix_post	2		12	35.0	2.5	/experiments/Knapen_AOT/AOT_stimuli/rescaled_final/0302_rv.mp4	0.0	198.91456389427185	0.1000220775604248
38	182.427170753479	fix_pre	0		119	36.0	2.5	/experiments/Knapen_AOT/AOT_stimuli/rescaled_final/0195_rv.mp4	0.0	199.01458597183228	1.0001602172851562
38	183.4110074043274	pulse	0	t		36.0	2.5	/experiments/Knapen_AOT/AOT_stimuli/rescaled_final/0195_rv.mp4	0.0	199.99842262268066	
38	183.42733097076416	movie	1		282	36.0	2.5	/experiments/Knapen_AOT/AOT_stimuli/rescaled_final/0195_rv.mp4	0.0	200.01474618911743	2.5003697872161865
38	185.00956344604492	pulse	1	t		36.0	2.5	/experiments/Knapen_AOT/AOT_stimuli/rescaled_final/0195_rv.mp4	0.0	201.5969786643982	
38	185.92770075798035	fix_post	2		12	36.0	2.5	/experiments/Knapen_AOT/AOT_stimuli/rescaled_final/0195_rv.mp4	0.0	202.51511597633362	0.10002398490905762
39	186.0277247428894	fix_pre	0		120	37.0	2.5	/experiments/Knapen_AOT/AOT_stimuli/rescaled_final/1817_fw.mp4	0.0	202.61513996124268	1.0085070133209229
39	186.6113474369049	pulse	0	t		37.0	2.5	/experiments/Knapen_AOT/AOT_stimuli/rescaled_final/1817_fw.mp4	0.0	203.19876265525818	
39	187.03623175621033	movie	1		281	37.0	2.5	/experiments/Knapen_AOT/AOT_stimuli/rescaled_final/1817_fw.mp4	0.0	203.6236469745636	2.492072820663452
39	188.2100031375885	pulse	1	t		37.0	2.5	/experiments/Knapen_AOT/AOT_stimuli/rescaled_final/1817_fw.mp4	0.0	204.79741835594177	
39	189.52830457687378	fix_post	2		12	37.0	2.5	/experiments/Knapen_AOT/AOT_stimuli/rescaled_final/1817_fw.mp4	0.0	206.11571979522705	0.09998488426208496
40	189.62828946113586	fix_pre	0		120	38.0	2.5	/experiments/Knapen_AOT/AOT_stimuli/rescaled_final/1395_rv.mp4	0.0	206.21570467948914	1.0084826946258545
40	189.81193733215332	pulse	0	t		38.0	2.5	/experiments/Knapen_AOT/AOT_stimuli/rescaled_final/1395_rv.mp4	0.0	206.3993525505066	
40	190.63677215576172	movie	1		269	38.0	2.5	/experiments/Knapen_AOT/AOT_stimuli/rescaled_final/1395_rv.mp4	0.0	207.224187374115	2.4920480251312256
40	191.41232919692993	pulse	1	t		38.0	2.5	/experiments/Knapen_AOT/AOT_stimuli/rescaled_final/1395_rv.mp4	0.0	207.9997444152832	
40	193.01011157035828	pulse	1	t		38.0	2.5	/experiments/Knapen_AOT/AOT_stimuli/rescaled_final/1395_rv.mp4	0.0	209.59752678871155	
40	193.12882018089294	fix_post	2		12	38.0	2.5	/experiments/Knapen_AOT/AOT_stimuli/rescaled_final/1395_rv.mp4	0.0	209.71623539924622	0.09998941421508789
41	193.22880959510803	fix_pre	0		120	39.0	2.5	/experiments/Knapen_AOT/AOT_stimuli/rescaled_final/0169_rv.mp4	0.0	209.8162248134613	1.0085947513580322
41	194.23740434646606	movie	1		276	39.0	2.5	/experiments/Knapen_AOT/AOT_stimuli/rescaled_final/0169_rv.mp4	0.0	210.82481956481934	2.4919230937957764
41	194.61120223999023	pulse	1	t		39.0	2.5	/experiments/Knapen_AOT/AOT_stimuli/rescaled_final/0169_rv.mp4	0.0	211.1986174583435	
41	196.2109739780426	pulse	1	t		39.0	2.5	/experiments/Knapen_AOT/AOT_stimuli/rescaled_final/0169_rv.mp4	0.0	212.79838919639587	
41	196.72932744026184	fix_post	2		12	39.0	2.5	/experiments/Knapen_AOT/AOT_stimuli/rescaled_final/0169_rv.mp4	0.0	213.3167426586151	0.10001111030578613
42	196.82933855056763	fix_pre	0		119	40.0	2.5	/experiments/Knapen_AOT/AOT_stimuli/rescaled_final/1900_fw.mp4	0.0	213.4167537689209	1.0001423358917236
42	197.8053731918335	pulse	0	t		40.0	2.5	/experiments/Knapen_AOT/AOT_stimuli/rescaled_final/1900_fw.mp4	0.0	214.39278841018677	
42	197.82948088645935	movie	1		283	40.0	2.5	/experiments/Knapen_AOT/AOT_stimuli/rescaled_final/1900_fw.mp4	0.0	214.41689610481262	2.500378131866455
42	199.4119052886963	pulse	1	t		40.0	2.5	/experiments/Knapen_AOT/AOT_stimuli/rescaled_final/1900_fw.mp4	0.0	215.99932050704956	
42	200.3298590183258	fix_post	2		12	40.0	2.5	/experiments/Knapen_AOT/AOT_stimuli/rescaled_final/1900_fw.mp4	0.0	216.91727423667908	0.10003232955932617
43	200.42989134788513	fix_pre	0		120	41.0	2.5	blank	1.0	217.0173065662384	1.0002248287200928
43	201.00540208816528	pulse	0	t		41.0	2.5	blank	1.0	217.59281730651855	
43	201.43011617660522	movie	1		300	41.0	2.5	blank	1.0	218.0175313949585	2.500304698944092
43	202.6054084300995	pulse	1	t		41.0	2.5	blank	1.0	219.19282364845276	
43	203.93042087554932	fix_post	2		12	41.0	2.5	blank	1.0	220.5178360939026	0.1000058650970459
44	204.03042674064636	fix_pre	0		120	42.0	2.5	/experiments/Knapen_AOT/AOT_stimuli/rescaled_final/0089_rv.mp4	0.0	220.61784195899963	1.0084800720214844
44	204.2057716846466	pulse	0	t		42.0	2.5	/experiments/Knapen_AOT/AOT_stimuli/rescaled_final/0089_rv.mp4	0.0	220.79318690299988	
44	205.03890681266785	movie	1		282	42.0	2.5	/experiments/Knapen_AOT/AOT_stimuli/rescaled_final/0089_rv.mp4	0.0	221.62632203102112	2.492029905319214
44	205.80594158172607	pulse	1	t		42.0	2.5	/experiments/Knapen_AOT/AOT_stimuli/rescaled_final/0089_rv.mp4	0.0	222.39335680007935	
44	207.40611934661865	pulse	1	t		42.0	2.5	/experiments/Knapen_AOT/AOT_stimuli/rescaled_final/0089_rv.mp4	0.0	223.99353456497192	
44	207.53093671798706	fix_post	2		12	42.0	2.5	/experiments/Knapen_AOT/AOT_stimuli/rescaled_final/0089_rv.mp4	0.0	224.11835193634033	0.10005426406860352
45	207.63099098205566	fix_pre	0		120	43.0	2.5	/experiments/Knapen_AOT/AOT_stimuli/rescaled_final/1685_fw.mp4	0.0	224.21840620040894	1.0084476470947266
45	208.6394386291504	movie	1		278	43.0	2.5	/experiments/Knapen_AOT/AOT_stimuli/rescaled_final/1685_fw.mp4	0.0	225.22685384750366	2.4920458793640137
45	209.0065929889679	pulse	1	t		43.0	2.5	/experiments/Knapen_AOT/AOT_stimuli/rescaled_final/1685_fw.mp4	0.0	225.59400820732117	
45	210.6066038608551	pulse	1	t		43.0	2.5	/experiments/Knapen_AOT/AOT_stimuli/rescaled_final/1685_fw.mp4	0.0	227.19401907920837	
45	211.1314845085144	fix_post	2		12	43.0	2.5	/experiments/Knapen_AOT/AOT_stimuli/rescaled_final/1685_fw.mp4	0.0	227.71889972686768	0.10000729560852051
46	211.23149180412292	fix_pre	0		118	44.0	2.5	/experiments/Knapen_AOT/AOT_stimuli/rescaled_final/0002_rv.mp4	0.0	227.8189070224762	0.991868257522583
46	212.2069070339203	pulse	0	t		44.0	2.5	/experiments/Knapen_AOT/AOT_stimuli/rescaled_final/0002_rv.mp4	0.0	228.79432225227356	
46	212.2233600616455	movie	1		280	44.0	2.5	/experiments/Knapen_AOT/AOT_stimuli/rescaled_final/0002_rv.mp4	0.0	228.81077527999878	2.5003271102905273
46	213.80586528778076	pulse	1	t		44.0	2.5	/experiments/Knapen_AOT/AOT_stimuli/rescaled_final/0002_rv.mp4	0.0	230.39328050613403	
46	214.72368717193604	fix_post	2		12	44.0	2.5	/experiments/Knapen_AOT/AOT_stimuli/rescaled_final/0002_rv.mp4	0.0	231.3111023902893	0.10001635551452637
47	214.82370352745056	fix_pre	0		120	45.0	2.5	/experiments/Knapen_AOT/AOT_stimuli/rescaled_final/0571_fw.mp4	0.0	231.41111874580383	1.0085816383361816
47	215.40732550621033	pulse	0	t		45.0	2.5	/experiments/Knapen_AOT/AOT_stimuli/rescaled_final/0571_fw.mp4	0.0	231.9947407245636	
47	215.83228516578674	movie	1		268	45.0	2.5	/experiments/Knapen_AOT/AOT_stimuli/rescaled_final/0571_fw.mp4	0.0	232.41970038414001	2.491961717605591
47	217.00545740127563	pulse	1	t		45.0	2.5	/experiments/Knapen_AOT/AOT_stimuli/rescaled_final/0571_fw.mp4	0.0	233.5928726196289	
47	218.32424688339233	fix_post	2		12	45.0	2.5	/experiments/Knapen_AOT/AOT_stimuli/rescaled_final/0571_fw.mp4	0.0	234.9116621017456	0.09999847412109375
48	218.42424535751343	fix_pre	0		120	46.0	2.5	/experiments/Knapen_AOT/AOT_stimuli/rescaled_final/1397_rv.mp4	0.0	235.0116605758667	1.0084996223449707
48	218.6079113483429	pulse	0	t		46.0	2.5	/experiments/Knapen_AOT/AOT_stimuli/rescaled_final/1397_rv.mp4	0.0	235.19532656669617	
48	219.4327449798584	movie	1		272	46.0	2.5	/experiments/Knapen_AOT/AOT_stimuli/rescaled_final/1397_rv.mp4	0.0	236.02016019821167	2.492039203643799
48	220.20588517189026	pulse	1	t		46.0	2.5	/experiments/Knapen_AOT/AOT_stimuli/rescaled_final/1397_rv.mp4	0.0	236.79330039024353	
48	221.80637407302856	pulse	1	t		46.0	2.5	/experiments/Knapen_AOT/AOT_stimuli/rescaled_final/1397_rv.mp4	0.0	238.39378929138184	
48	221.9247841835022	fix_post	2		12	46.0	2.5	/experiments/Knapen_AOT/AOT_stimuli/rescaled_final/1397_rv.mp4	0.0	238.51219940185547	0.1000528335571289
49	222.02483701705933	fix_pre	0		120	47.0	2.5	/experiments/Knapen_AOT/AOT_stimuli/rescaled_final/1110_fw.mp4	0.0	238.6122522354126	1.0084702968597412
49	223.03330731391907	movie	1		289	47.0	2.5	/experiments/Knapen_AOT/AOT_stimuli/rescaled_final/1110_fw.mp4	0.0	239.62072253227234	2.4920482635498047
49	223.40679693222046	pulse	1	t		47.0	2.5	/experiments/Knapen_AOT/AOT_stimuli/rescaled_final/1110_fw.mp4	0.0	239.99421215057373	
49	225.00688242912292	pulse	1	t		47.0	2.5	/experiments/Knapen_AOT/AOT_stimuli/rescaled_final/1110_fw.mp4	0.0	241.5942976474762	
49	225.52535557746887	fix_post	2		12	47.0	2.5	/experiments/Knapen_AOT/AOT_stimuli/rescaled_final/1110_fw.mp4	0.0	242.11277079582214	0.09998607635498047
50	225.62534165382385	fix_pre	0		119	48.0	2.5	blank	1.0	242.21275687217712	0.9917964935302734
50	226.60899925231934	pulse	0	t		48.0	2.5	blank	1.0	243.1964144706726	
50	226.61713814735413	movie	1		301	48.0	2.5	blank	1.0	243.2045533657074	2.5087146759033203
50	228.20929431915283	pulse	1	t		48.0	2.5	blank	1.0	244.7967095375061	
50	229.12585282325745	fix_post	2		12	48.0	2.5	blank	1.0	245.71326804161072	0.1000204086303711
51	229.22587323188782	fix_pre	0		120	49.0	2.5	/experiments/Knapen_AOT/AOT_stimuli/rescaled_final/1845_fw.mp4	0.0	245.8132884502411	1.0084857940673828
51	229.809645652771	pulse	0	t		49.0	2.5	/experiments/Knapen_AOT/AOT_stimuli/rescaled_final/1845_fw.mp4	0.0	246.39706087112427	
51	230.2343590259552	movie	1		288	49.0	2.5	/experiments/Knapen_AOT/AOT_stimuli/rescaled_final/1845_fw.mp4	0.0	246.82177424430847	2.4920568466186523
51	231.40770363807678	pulse	1	t		49.0	2.5	/experiments/Knapen_AOT/AOT_stimuli/rescaled_final/1845_fw.mp4	0.0	247.99511885643005	
51	232.72641587257385	fix_post	2		12	49.0	2.5	/experiments/Knapen_AOT/AOT_stimuli/rescaled_final/1845_fw.mp4	0.0	249.31383109092712	0.1000056266784668
52	232.82642149925232	fix_pre	0		120	50.0	2.5	/experiments/Knapen_AOT/AOT_stimuli/rescaled_final/0571_fw.mp4	0.0	249.4138367176056	1.008497714996338
52	233.0100224018097	pulse	0	t		50.0	2.5	/experiments/Knapen_AOT/AOT_stimuli/rescaled_final/0571_fw.mp4	0.0	249.59743762016296	
52	233.83491921424866	movie	1		280	50.0	2.5	/experiments/Knapen_AOT/AOT_stimuli/rescaled_final/0571_fw.mp4	0.0	250.42233443260193	2.492145538330078
52	234.6087145805359	pulse	1	t		50.0	2.5	/experiments/Knapen_AOT/AOT_stimuli/rescaled_final/0571_fw.mp4	0.0	251.19612979888916	
52	236.20838022232056	pulse	1	t		50.0	2.5	/experiments/Knapen_AOT/AOT_stimuli/rescaled_final/0571_fw.mp4	0.0	252.79579544067383	
52	236.32706475257874	fix_post	2		12	50.0	2.5	/experiments/Knapen_AOT/AOT_stimuli/rescaled_final/0571_fw.mp4	0.0	252.914479970932	0.09988760948181152
53	236.42695236206055	fix_pre	0		120	51.0	2.5	/experiments/Knapen_AOT/AOT_stimuli/rescaled_final/1336_fw.mp4	0.0	253.01436758041382	1.0085930824279785
53	237.43554544448853	movie	1		268	51.0	2.5	/experiments/Knapen_AOT/AOT_stimuli/rescaled_final/1336_fw.mp4	0.0	254.0229606628418	2.491976022720337
53	237.81094765663147	pulse	1	t		51.0	2.5	/experiments/Knapen_AOT/AOT_stimuli/rescaled_final/1336_fw.mp4	0.0	254.39836287498474	
53	239.41133975982666	pulse	1	t		51.0	2.5	/experiments/Knapen_AOT/AOT_stimuli/rescaled_final/1336_fw.mp4	0.0	255.99875497817993	
53	239.92752146720886	fix_post	2		12	51.0	2.5	/experiments/Knapen_AOT/AOT_stimuli/rescaled_final/1336_fw.mp4	0.0	256.51493668556213	0.09999418258666992
54	240.02751564979553	fix_pre	0		119	52.0	2.5	/experiments/Knapen_AOT/AOT_stimuli/rescaled_final/1671_rv.mp4	0.0	256.6149308681488	1.0001580715179443
54	241.01125860214233	pulse	0	t		52.0	2.5	/experiments/Knapen_AOT/AOT_stimuli/rescaled_final/1671_rv.mp4	0.0	257.5986738204956	
54	241.02767372131348	movie	1		290	52.0	2.5	/experiments/Knapen_AOT/AOT_stimuli/rescaled_final/1671_rv.mp4	0.0	257.61508893966675	2.5003626346588135
54	242.60993576049805	pulse	1	t		52.0	2.5	/experiments/Knapen_AOT/AOT_stimuli/rescaled_final/1671_rv.mp4	0.0	259.1973509788513	
54	243.5280363559723	fix_post	2		12	52.0	2.5	/experiments/Knapen_AOT/AOT_stimuli/rescaled_final/1671_rv.mp4	0.0	260.11545157432556	0.10000467300415039
55	243.62804102897644	fix_pre	0		120	53.0	2.5	/experiments/Knapen_AOT/AOT_stimuli/rescaled_final/0764_rv.mp4	0.0	260.2154562473297	1.0085325241088867
55	244.21180772781372	pulse	0	t		53.0	2.5	/experiments/Knapen_AOT/AOT_stimuli/rescaled_final/0764_rv.mp4	0.0	260.799222946167	
55	244.63657355308533	movie	1		278	53.0	2.5	/experiments/Knapen_AOT/AOT_stimuli/rescaled_final/0764_rv.mp4	0.0	261.2239887714386	2.4920003414154053
55	245.81027626991272	pulse	1	t		53.0	2.5	/experiments/Knapen_AOT/AOT_stimuli/rescaled_final/0764_rv.mp4	0.0	262.397691488266	
55	247.12857389450073	fix_post	2		12	53.0	2.5	/experiments/Knapen_AOT/AOT_stimuli/rescaled_final/0764_rv.mp4	0.0	263.715989112854	0.10016775131225586
56	247.228741645813	fix_pre	0		119	54.0	2.5	/experiments/Knapen_AOT/AOT_stimuli/rescaled_final/0841_rv.mp4	0.0	263.81615686416626	1.0083355903625488
56	247.412211894989	pulse	0	t		54.0	2.5	/experiments/Knapen_AOT/AOT_stimuli/rescaled_final/0841_rv.mp4	0.0	263.9996271133423	
56	248.23707723617554	movie	1		292	54.0	2.5	/experiments/Knapen_AOT/AOT_stimuli/rescaled_final/0841_rv.mp4	0.0	264.8244924545288	2.4920809268951416
56	249.0104479789734	pulse	1	t		54.0	2.5	/experiments/Knapen_AOT/AOT_stimuli/rescaled_final/0841_rv.mp4	0.0	265.59786319732666	
56	250.60849714279175	pulse	1	t		54.0	2.5	/experiments/Knapen_AOT/AOT_stimuli/rescaled_final/0841_rv.mp4	0.0	267.195912361145	
56	250.72915816307068	fix_post	2		12	54.0	2.5	/experiments/Knapen_AOT/AOT_stimuli/rescaled_final/0841_rv.mp4	0.0	267.31657338142395	0.09990835189819336
57	250.82906651496887	fix_pre	0		120	55.0	2.5	blank	1.0	267.41648173332214	1.0001978874206543
57	251.82926440238953	movie	1		300	55.0	2.5	blank	1.0	268.4166796207428	2.5005006790161133
57	252.20468831062317	pulse	1	t		55.0	2.5	blank	1.0	268.79210352897644	
57	253.80470609664917	pulse	1	t		55.0	2.5	blank	1.0	270.39212131500244	
57	254.32976508140564	fix_post	2		12	55.0	2.5	blank	1.0	270.9171802997589	0.09986543655395508
58	254.4296305179596	fix_pre	0		118	56.0	2.5	/experiments/Knapen_AOT/AOT_stimuli/rescaled_final/0757_rv.mp4	0.0	271.01704573631287	0.9918491840362549
58	255.405047416687	pulse	0	t		56.0	2.5	/experiments/Knapen_AOT/AOT_stimuli/rescaled_final/0757_rv.mp4	0.0	271.9924626350403	
58	255.42147970199585	movie	1		294	56.0	2.5	/experiments/Knapen_AOT/AOT_stimuli/rescaled_final/0757_rv.mp4	0.0	272.0088949203491	2.5003435611724854
58	257.0052046775818	pulse	1	t		56.0	2.5	/experiments/Knapen_AOT/AOT_stimuli/rescaled_final/0757_rv.mp4	0.0	273.59261989593506	
58	257.92182326316833	fix_post	2		12	56.0	2.5	/experiments/Knapen_AOT/AOT_stimuli/rescaled_final/0757_rv.mp4	0.0	274.5092384815216	0.10000276565551758
59	258.02182602882385	fix_pre	0		120	57.0	2.5	/experiments/Knapen_AOT/AOT_stimuli/rescaled_final/0729_fw.mp4	0.0	274.6092412471771	1.008467435836792
59	258.6054780483246	pulse	0	t		57.0	2.5	/experiments/Knapen_AOT/AOT_stimuli/rescaled_final/0729_fw.mp4	0.0	275.19289326667786	
59	259.03029346466064	movie	1		296	57.0	2.5	/experiments/Knapen_AOT/AOT_stimuli/rescaled_final/0729_fw.mp4	0.0	275.6177086830139	2.4920499324798584
59	260.20571851730347	pulse	1	t		57.0	2.5	/experiments/Knapen_AOT/AOT_stimuli/rescaled_final/0729_fw.mp4	0.0	276.79313373565674	
59	261.5223433971405	fix_post	2		12	57.0	2.5	/experiments/Knapen_AOT/AOT_stimuli/rescaled_final/0729_fw.mp4	0.0	278.1097586154938	0.1000511646270752
60	261.6223945617676	fix_pre	0		120	58.0	2.5	/experiments/Knapen_AOT/AOT_stimuli/rescaled_final/1091_fw.mp4	0.0	278.20980978012085	1.0001380443572998
60	261.80601692199707	pulse	0	t		58.0	2.5	/experiments/Knapen_AOT/AOT_stimuli/rescaled_final/1091_fw.mp4	0.0	278.39343214035034	
60	262.6225326061249	movie	1		294	58.0	2.5	/experiments/Knapen_AOT/AOT_stimuli/rescaled_final/1091_fw.mp4	0.0	279.20994782447815	2.5003864765167236
60	263.40621399879456	pulse	1	t		58.0	2.5	/experiments/Knapen_AOT/AOT_stimuli/rescaled_final/1091_fw.mp4	0.0	279.9936292171478	
60	265.00635838508606	pulse	1	t		58.0	2.5	/experiments/Knapen_AOT/AOT_stimuli/rescaled_final/1091_fw.mp4	0.0	281.59377360343933	
60	265.1229190826416	fix_post	2		12	58.0	2.5	/experiments/Knapen_AOT/AOT_stimuli/rescaled_final/1091_fw.mp4	0.0	281.7103343009949	0.10002923011779785
61	265.2229483127594	fix_pre	0		120	59.0	2.5	/experiments/Knapen_AOT/AOT_stimuli/rescaled_final/1210_rv.mp4	0.0	281.81036353111267	1.008502721786499
61	266.2314510345459	movie	1		293	59.0	2.5	/experiments/Knapen_AOT/AOT_stimuli/rescaled_final/1210_rv.mp4	0.0	282.81886625289917	2.491994857788086
61	266.604562997818	pulse	1	t		59.0	2.5	/experiments/Knapen_AOT/AOT_stimuli/rescaled_final/1210_rv.mp4	0.0	283.19197821617126	
61	268.20685386657715	pulse	1	t		59.0	2.5	/experiments/Knapen_AOT/AOT_stimuli/rescaled_final/1210_rv.mp4	0.0	284.7942690849304	
61	268.723445892334	fix_post	2		12	59.0	2.5	/experiments/Knapen_AOT/AOT_stimuli/rescaled_final/1210_rv.mp4	0.0	285.31086111068726	0.10001611709594727
62	268.82346200942993	fix_pre	0		119	60.0	2.5	/experiments/Knapen_AOT/AOT_stimuli/rescaled_final/0247_fw.mp4	0.0	285.4108772277832	1.0001888275146484
62	269.807240486145	pulse	0	t		60.0	2.5	/experiments/Knapen_AOT/AOT_stimuli/rescaled_final/0247_fw.mp4	0.0	286.3946557044983	
62	269.8236508369446	movie	1		297	60.0	2.5	/experiments/Knapen_AOT/AOT_stimuli/rescaled_final/0247_fw.mp4	0.0	286.41106605529785	2.500335454940796
62	271.40514373779297	pulse	1	t		60.0	2.5	/experiments/Knapen_AOT/AOT_stimuli/rescaled_final/0247_fw.mp4	0.0	287.99255895614624	
62	272.3239862918854	fix_post	2		12	60.0	2.5	/experiments/Knapen_AOT/AOT_stimuli/rescaled_final/0247_fw.mp4	0.0	288.91140151023865	0.10003137588500977
63	272.4240176677704	fix_pre	0		120	61.0	2.5	blank	1.0	289.01143288612366	1.0001375675201416
63	273.0075852870941	pulse	0	t		61.0	2.5	blank	1.0	289.5950005054474	
63	273.4241552352905	movie	1		300	61.0	2.5	blank	1.0	290.0115704536438	2.50039005279541
63	274.6078836917877	pulse	1	t		61.0	2.5	blank	1.0	291.195298910141	
63	275.92454528808594	fix_post	2		12	61.0	2.5	blank	1.0	292.5119605064392	0.10015511512756348
64	276.0247004032135	fix_pre	0		120	62.0	2.5	/experiments/Knapen_AOT/AOT_stimuli/rescaled_final/0249_rv.mp4	0.0	292.6121156215668	1.0083503723144531
64	276.208190202713	pulse	0	t		62.0	2.5	/experiments/Knapen_AOT/AOT_stimuli/rescaled_final/0249_rv.mp4	0.0	292.7956054210663	
64	277.03305077552795	movie	1		279	62.0	2.5	/experiments/Knapen_AOT/AOT_stimuli/rescaled_final/0249_rv.mp4	0.0	293.6204659938812	2.4920456409454346
64	277.8083040714264	pulse	1	t		62.0	2.5	/experiments/Knapen_AOT/AOT_stimuli/rescaled_final/0249_rv.mp4	0.0	294.39571928977966	
64	279.406533241272	pulse	1	t		62.0	2.5	/experiments/Knapen_AOT/AOT_stimuli/rescaled_final/0249_rv.mp4	0.0	295.99394845962524	
64	279.5250964164734	fix_post	2		12	62.0	2.5	/experiments/Knapen_AOT/AOT_stimuli/rescaled_final/0249_rv.mp4	0.0	296.11251163482666	0.1000983715057373
65	279.6251947879791	fix_pre	0		120	63.0	2.5	/experiments/Knapen_AOT/AOT_stimuli/rescaled_final/2070_fw.mp4	0.0	296.2126100063324	1.0084102153778076
65	280.63360500335693	movie	1		269	63.0	2.5	/experiments/Knapen_AOT/AOT_stimuli/rescaled_final/2070_fw.mp4	0.0	297.2210202217102	2.4920337200164795
65	281.0073504447937	pulse	1	t		63.0	2.5	/experiments/Knapen_AOT/AOT_stimuli/rescaled_final/2070_fw.mp4	0.0	297.594765663147	
65	282.60706305503845	pulse	1	t		63.0	2.5	/experiments/Knapen_AOT/AOT_stimuli/rescaled_final/2070_fw.mp4	0.0	299.1944782733917	
65	283.1256387233734	fix_post	2		12	63.0	2.5	/experiments/Knapen_AOT/AOT_stimuli/rescaled_final/2070_fw.mp4	0.0	299.7130539417267	0.10001516342163086
66	283.22565388679504	fix_pre	0		119	64.0	2.5	/experiments/Knapen_AOT/AOT_stimuli/rescaled_final/1756_rv.mp4	0.0	299.8130691051483	1.0001766681671143
66	284.20945048332214	pulse	0	t		64.0	2.5	/experiments/Knapen_AOT/AOT_stimuli/rescaled_final/1756_rv.mp4	0.0	300.7968657016754	
66	284.22583055496216	movie	1		277	64.0	2.5	/experiments/Knapen_AOT/AOT_stimuli/rescaled_final/1756_rv.mp4	0.0	300.81324577331543	2.5003461837768555
66	285.8083562850952	pulse	1	t		64.0	2.5	/experiments/Knapen_AOT/AOT_stimuli/rescaled_final/1756_rv.mp4	0.0	302.3957715034485	
66	286.726176738739	fix_post	2		12	64.0	2.5	/experiments/Knapen_AOT/AOT_stimuli/rescaled_final/1756_rv.mp4	0.0	303.3135919570923	0.10003209114074707
67	286.82620882987976	fix_pre	0		120	65.0	2.5	/experiments/Knapen_AOT/AOT_stimuli/rescaled_final/0274_rv.mp4	0.0	303.41362404823303	1.0084702968597412
67	287.4100487232208	pulse	0	t		65.0	2.5	/experiments/Knapen_AOT/AOT_stimuli/rescaled_final/0274_rv.mp4	0.0	303.9974639415741	
67	287.8346791267395	movie	1		287	65.0	2.5	/experiments/Knapen_AOT/AOT_stimuli/rescaled_final/0274_rv.mp4	0.0	304.4220943450928	2.4920523166656494
67	289.00840067863464	pulse	1	t		65.0	2.5	/experiments/Knapen_AOT/AOT_stimuli/rescaled_final/0274_rv.mp4	0.0	305.5958158969879	
67	290.32673144340515	fix_post	2		12	65.0	2.5	/experiments/Knapen_AOT/AOT_stimuli/rescaled_final/0274_rv.mp4	0.0	306.9141466617584	0.10001420974731445
68	290.42674565315247	fix_pre	0		120	66.0	2.5	/experiments/Knapen_AOT/AOT_stimuli/rescaled_final/1643_fw.mp4	0.0	307.01416087150574	1.008531093597412
68	290.61065196990967	pulse	0	t		66.0	2.5	/experiments/Knapen_AOT/AOT_stimuli/rescaled_final/1643_fw.mp4	0.0	307.19806718826294	
68	291.4352767467499	movie	1		277	66.0	2.5	/experiments/Knapen_AOT/AOT_stimuli/rescaled_final/1643_fw.mp4	0.0	308.02269196510315	2.492180347442627
68	292.208468914032	pulse	1	t		66.0	2.5	/experiments/Knapen_AOT/AOT_stimuli/rescaled_final/1643_fw.mp4	0.0	308.79588413238525	
68	293.8088848590851	pulse	1	t		66.0	2.5	/experiments/Knapen_AOT/AOT_stimuli/rescaled_final/1643_fw.mp4	0.0	310.39630007743835	
68	293.9274570941925	fix_post	2		12	66.0	2.5	/experiments/Knapen_AOT/AOT_stimuli/rescaled_final/1643_fw.mp4	0.0	310.5148723125458	0.0998532772064209
69	294.0273103713989	fix_pre	0		120	67.0	2.5	/experiments/Knapen_AOT/AOT_stimuli/rescaled_final/1756_fw.mp4	0.0	310.6147255897522	1.0084707736968994
69	295.0357811450958	movie	1		281	67.0	2.5	/experiments/Knapen_AOT/AOT_stimuli/rescaled_final/1756_fw.mp4	0.0	311.6231963634491	2.492030620574951
69	295.40961742401123	pulse	1	t		67.0	2.5	/experiments/Knapen_AOT/AOT_stimuli/rescaled_final/1756_fw.mp4	0.0	311.9970326423645	
69	297.00943398475647	pulse	1	t		67.0	2.5	/experiments/Knapen_AOT/AOT_stimuli/rescaled_final/1756_fw.mp4	0.0	313.59684920310974	
69	297.5278117656708	fix_post	2		12	67.0	2.5	/experiments/Knapen_AOT/AOT_stimuli/rescaled_final/1756_fw.mp4	0.0	314.11522698402405	0.10000872611999512
70	297.62782049179077	fix_pre	0		119	68.0	2.5	/experiments/Knapen_AOT/AOT_stimuli/rescaled_final/0246_fw.mp4	0.0	314.21523571014404	1.0002646446228027
70	298.6115245819092	pulse	0	t		68.0	2.5	/experiments/Knapen_AOT/AOT_stimuli/rescaled_final/0246_fw.mp4	0.0	315.19893980026245	
70	298.6280851364136	movie	1		290	68.0	2.5	/experiments/Knapen_AOT/AOT_stimuli/rescaled_final/0246_fw.mp4	0.0	315.21550035476685	2.500258684158325
70	300.21043157577515	pulse	1	t		68.0	2.5	/experiments/Knapen_AOT/AOT_stimuli/rescaled_final/0246_fw.mp4	0.0	316.7978467941284	
70	301.1283438205719	fix_post	2		12	68.0	2.5	/experiments/Knapen_AOT/AOT_stimuli/rescaled_final/0246_fw.mp4	0.0	317.71575903892517	0.10002326965332031
71	301.2283670902252	fix_pre	0		120	69.0	2.5	/experiments/Knapen_AOT/AOT_stimuli/rescaled_final/0679_fw.mp4	0.0	317.8157823085785	1.0085082054138184
71	301.8119840621948	pulse	0	t		69.0	2.5	/experiments/Knapen_AOT/AOT_stimuli/rescaled_final/0679_fw.mp4	0.0	318.3993992805481	
71	302.23687529563904	movie	1		282	69.0	2.5	/experiments/Knapen_AOT/AOT_stimuli/rescaled_final/0679_fw.mp4	0.0	318.8242905139923	2.4920167922973633
71	303.4104549884796	pulse	1	t		69.0	2.5	/experiments/Knapen_AOT/AOT_stimuli/rescaled_final/0679_fw.mp4	0.0	319.9978702068329	
71	304.7288920879364	fix_post	2		12	69.0	2.5	/experiments/Knapen_AOT/AOT_stimuli/rescaled_final/0679_fw.mp4	0.0	321.3163073062897	0.10005474090576172
72	304.82894682884216	fix_pre	0		120	70.0	2.5	blank	1.0	321.41636204719543	1.0001444816589355
72	305.0125780105591	pulse	0	t		70.0	2.5	blank	1.0	321.59999322891235	
72	305.8290913105011	movie	1		299	70.0	2.5	blank	1.0	322.41650652885437	2.5003373622894287
72	306.6130018234253	pulse	1	t		70.0	2.5	blank	1.0	323.20041704177856	
72	308.20653009414673	pulse	1	t		70.0	2.5	blank	1.0	324.7939453125	
72	308.3294286727905	fix_post	2		12	70.0	2.5	blank	1.0	324.9168438911438	0.10002303123474121
73	308.42945170402527	fix_pre	0		120	71.0	2.5	/experiments/Knapen_AOT/AOT_stimuli/rescaled_final/2035_rv.mp4	0.0	325.01686692237854	1.0084822177886963
73	309.43793392181396	movie	1		285	71.0	2.5	/experiments/Knapen_AOT/AOT_stimuli/rescaled_final/2035_rv.mp4	0.0	326.02534914016724	2.4920411109924316
73	309.805198431015	pulse	1	t		71.0	2.5	/experiments/Knapen_AOT/AOT_stimuli/rescaled_final/2035_rv.mp4	0.0	326.3926136493683	
73	311.40531969070435	pulse	1	t		71.0	2.5	/experiments/Knapen_AOT/AOT_stimuli/rescaled_final/2035_rv.mp4	0.0	327.9927349090576	
73	311.9299750328064	fix_post	2		12	71.0	2.5	/experiments/Knapen_AOT/AOT_stimuli/rescaled_final/2035_rv.mp4	0.0	328.51739025115967	0.10000967979431152
74	312.0299847126007	fix_pre	0		118	72.0	2.5	/experiments/Knapen_AOT/AOT_stimuli/rescaled_final/1691_rv.mp4	0.0	328.617399930954	0.9918296337127686
74	313.00543880462646	pulse	0	t		72.0	2.5	/experiments/Knapen_AOT/AOT_stimuli/rescaled_final/1691_rv.mp4	0.0	329.59285402297974	
74	313.0218143463135	movie	1		276	72.0	2.5	/experiments/Knapen_AOT/AOT_stimuli/rescaled_final/1691_rv.mp4	0.0	329.60922956466675	2.500356912612915
74	314.6058053970337	pulse	1	t		72.0	2.5	/experiments/Knapen_AOT/AOT_stimuli/rescaled_final/1691_rv.mp4	0.0	331.19322061538696	
74	315.5221712589264	fix_post	2		12	72.0	2.5	/experiments/Knapen_AOT/AOT_stimuli/rescaled_final/1691_rv.mp4	0.0	332.10958647727966	0.10003876686096191
75	315.62221002578735	fix_pre	0		120	73.0	2.5	/experiments/Knapen_AOT/AOT_stimuli/rescaled_final/0753_fw.mp4	0.0	332.2096252441406	1.0084638595581055
75	316.20586466789246	pulse	0	t		73.0	2.5	/experiments/Knapen_AOT/AOT_stimuli/rescaled_final/0753_fw.mp4	0.0	332.7932798862457	
75	316.63067388534546	movie	1		281	73.0	2.5	/experiments/Knapen_AOT/AOT_stimuli/rescaled_final/0753_fw.mp4	0.0	333.21808910369873	2.4920494556427
75	317.8059666156769	pulse	1	t		73.0	2.5	/experiments/Knapen_AOT/AOT_stimuli/rescaled_final/0753_fw.mp4	0.0	334.39338183403015	
75	319.12272334098816	fix_post	2		12	73.0	2.5	/experiments/Knapen_AOT/AOT_stimuli/rescaled_final/0753_fw.mp4	0.0	335.71013855934143	0.10001587867736816
76	319.2227392196655	fix_pre	0		120	74.0	2.5	/experiments/Knapen_AOT/AOT_stimuli/rescaled_final/1626_rv.mp4	0.0	335.8101544380188	1.008514404296875
76	319.40661454200745	pulse	0	t		74.0	2.5	/experiments/Knapen_AOT/AOT_stimuli/rescaled_final/1626_rv.mp4	0.0	335.9940297603607	
76	320.2312536239624	movie	1		276	74.0	2.5	/experiments/Knapen_AOT/AOT_stimuli/rescaled_final/1626_rv.mp4	0.0	336.8186688423157	2.492007255554199
76	321.00680017471313	pulse	1	t		74.0	2.5	/experiments/Knapen_AOT/AOT_stimuli/rescaled_final/1626_rv.mp4	0.0	337.5942153930664	
76	322.6067764759064	pulse	1	t		74.0	2.5	/experiments/Knapen_AOT/AOT_stimuli/rescaled_final/1626_rv.mp4	0.0	339.19419169425964	
76	322.7232608795166	fix_post	2		12	74.0	2.5	/experiments/Knapen_AOT/AOT_stimuli/rescaled_final/1626_rv.mp4	0.0	339.3106760978699	0.10003328323364258
77	322.82329416275024	fix_pre	0		120	75.0	2.5	/experiments/Knapen_AOT/AOT_stimuli/rescaled_final/1085_rv.mp4	0.0	339.4107093811035	1.0084989070892334
77	323.8317930698395	movie	1		278	75.0	2.5	/experiments/Knapen_AOT/AOT_stimuli/rescaled_final/1085_rv.mp4	0.0	340.41920828819275	2.492007255554199
77	324.2055313587189	pulse	1	t		75.0	2.5	/experiments/Knapen_AOT/AOT_stimuli/rescaled_final/1085_rv.mp4	0.0	340.79294657707214	
77	325.80638575553894	pulse	1	t		75.0	2.5	/experiments/Knapen_AOT/AOT_stimuli/rescaled_final/1085_rv.mp4	0.0	342.3938009738922	
77	326.3238003253937	fix_post	2		12	75.0	2.5	/experiments/Knapen_AOT/AOT_stimuli/rescaled_final/1085_rv.mp4	0.0	342.91121554374695	0.10002684593200684
78	326.4238271713257	fix_pre	0		119	76.0	2.5	/experiments/Knapen_AOT/AOT_stimuli/rescaled_final/1496_fw.mp4	0.0	343.01124238967896	1.0001347064971924
78	327.40752816200256	pulse	0	t		76.0	2.5	/experiments/Knapen_AOT/AOT_stimuli/rescaled_final/1496_fw.mp4	0.0	343.99494338035583	
78	327.4239618778229	movie	1		270	76.0	2.5	/experiments/Knapen_AOT/AOT_stimuli/rescaled_final/1496_fw.mp4	0.0	344.01137709617615	2.5003788471221924
78	329.0064697265625	pulse	1	t		76.0	2.5	/experiments/Knapen_AOT/AOT_stimuli/rescaled_final/1496_fw.mp4	0.0	345.59388494491577	
78	329.92434072494507	fix_post	2		12	76.0	2.5	/experiments/Knapen_AOT/AOT_stimuli/rescaled_final/1496_fw.mp4	0.0	346.51175594329834	0.10002589225769043
79	330.02436661720276	fix_pre	0		120	77.0	2.5	blank	1.0	346.61178183555603	1.0001397132873535
79	330.60795617103577	pulse	0	t		77.0	2.5	blank	1.0	347.19537138938904	
79	331.0245063304901	movie	1		300	77.0	2.5	blank	1.0	347.6119215488434	2.500378131866455
79	332.20836210250854	pulse	1	t		77.0	2.5	blank	1.0	348.7957773208618	
79	333.52488446235657	fix_post	2		12	77.0	2.5	blank	1.0	350.11229968070984	0.10002374649047852
80	333.62490820884705	fix_pre	0		120	78.0	2.5	/experiments/Knapen_AOT/AOT_stimuli/rescaled_final/0070_rv.mp4	0.0	350.2123234272003	1.0084848403930664
80	333.8084919452667	pulse	0	t		78.0	2.5	/experiments/Knapen_AOT/AOT_stimuli/rescaled_final/0070_rv.mp4	0.0	350.39590716362	
80	334.6333930492401	movie	1		287	78.0	2.5	/experiments/Knapen_AOT/AOT_stimuli/rescaled_final/0070_rv.mp4	0.0	351.2208082675934	2.4920380115509033
80	335.40679121017456	pulse	1	t		78.0	2.5	/experiments/Knapen_AOT/AOT_stimuli/rescaled_final/0070_rv.mp4	0.0	351.99420642852783	
80	337.0073778629303	pulse	1	t		78.0	2.5	/experiments/Knapen_AOT/AOT_stimuli/rescaled_final/0070_rv.mp4	0.0	353.59479308128357	
80	337.125431060791	fix_post	2		12	78.0	2.5	/experiments/Knapen_AOT/AOT_stimuli/rescaled_final/0070_rv.mp4	0.0	353.7128462791443	0.0999763011932373
81	337.22540736198425	fix_pre	0		120	79.0	2.5	/experiments/Knapen_AOT/AOT_stimuli/rescaled_final/1141_fw.mp4	0.0	353.8128225803375	1.008540391921997
81	338.23394775390625	movie	1		262	79.0	2.5	/experiments/Knapen_AOT/AOT_stimuli/rescaled_final/1141_fw.mp4	0.0	354.8213629722595	2.4920296669006348
81	338.6073429584503	pulse	1	t		79.0	2.5	/experiments/Knapen_AOT/AOT_stimuli/rescaled_final/1141_fw.mp4	0.0	355.1947581768036	
81	340.2080638408661	pulse	1	t		79.0	2.5	/experiments/Knapen_AOT/AOT_stimuli/rescaled_final/1141_fw.mp4	0.0	356.79547905921936	
81	340.7259774208069	fix_post	2		12	79.0	2.5	/experiments/Knapen_AOT/AOT_stimuli/rescaled_final/1141_fw.mp4	0.0	357.31339263916016	0.10004591941833496
82	340.8260233402252	fix_pre	0		119	80.0	2.5	/experiments/Knapen_AOT/AOT_stimuli/rescaled_final/1685_fw.mp4	0.0	357.4134385585785	1.0001111030578613
82	341.8097913265228	pulse	0	t		80.0	2.5	/experiments/Knapen_AOT/AOT_stimuli/rescaled_final/1685_fw.mp4	0.0	358.3972065448761	
82	341.8261344432831	movie	1		255	80.0	2.5	/experiments/Knapen_AOT/AOT_stimuli/rescaled_final/1685_fw.mp4	0.0	358.41354966163635	2.500380039215088
82	343.4086241722107	pulse	1	t		80.0	2.5	/experiments/Knapen_AOT/AOT_stimuli/rescaled_final/1685_fw.mp4	0.0	359.99603939056396	
82	344.32651448249817	fix_post	2		12	80.0	2.5	/experiments/Knapen_AOT/AOT_stimuli/rescaled_final/1685_fw.mp4	0.0	360.91392970085144	0.1000528335571289
83	344.4265673160553	fix_pre	0		120	81.0	2.5	/experiments/Knapen_AOT/AOT_stimuli/rescaled_final/0123_fw.mp4	0.0	361.01398253440857	1.0084881782531738
83	345.010133266449	pulse	0	t		81.0	2.5	/experiments/Knapen_AOT/AOT_stimuli/rescaled_final/0123_fw.mp4	0.0	361.59754848480225	
83	345.4350554943085	movie	1		264	81.0	2.5	/experiments/Knapen_AOT/AOT_stimuli/rescaled_final/0123_fw.mp4	0.0	362.02247071266174	2.4919850826263428
83	346.608598947525	pulse	1	t		81.0	2.5	/experiments/Knapen_AOT/AOT_stimuli/rescaled_final/0123_fw.mp4	0.0	363.1960141658783	
83	347.9270405769348	fix_post	2		12	81.0	2.5	/experiments/Knapen_AOT/AOT_stimuli/rescaled_final/0123_fw.mp4	0.0	364.5144557952881	0.09998655319213867
84	348.02702713012695	fix_pre	0		120	82.0	2.5	/experiments/Knapen_AOT/AOT_stimuli/rescaled_final/1563_fw.mp4	0.0	364.6144423484802	1.008554458618164
84	348.21065163612366	pulse	0	t		82.0	2.5	/experiments/Knapen_AOT/AOT_stimuli/rescaled_final/1563_fw.mp4	0.0	364.79806685447693	
84	349.0355815887451	movie	1		282	82.0	2.5	/experiments/Knapen_AOT/AOT_stimuli/rescaled_final/1563_fw.mp4	0.0	365.6229968070984	2.4920194149017334
84	349.81031823158264	pulse	1	t		82.0	2.5	/experiments/Knapen_AOT/AOT_stimuli/rescaled_final/1563_fw.mp4	0.0	366.3977334499359	
84	351.40910267829895	pulse	1	t		82.0	2.5	/experiments/Knapen_AOT/AOT_stimuli/rescaled_final/1563_fw.mp4	0.0	367.9965178966522	
84	351.52760100364685	fix_post	2		12	82.0	2.5	/experiments/Knapen_AOT/AOT_stimuli/rescaled_final/1563_fw.mp4	0.0	368.1150162220001	0.10006856918334961
85	351.6276695728302	fix_pre	0		120	83.0	2.5	blank	1.0	368.2150847911835	1.000133752822876
85	352.6278033256531	movie	1		300	83.0	2.5	blank	1.0	369.21521854400635	2.500328302383423
85	353.0113830566406	pulse	1	t		83.0	2.5	blank	1.0	369.5987982749939	
85	354.6116235256195	pulse	1	t		83.0	2.5	blank	1.0	371.1990387439728	
85	355.1281316280365	fix_post	2		12	83.0	2.5	blank	1.0	371.71554684638977	0.10002350807189941
87	355.2281551361084	stim	0		1716					371.81557035446167	14.302144289016724
87	356.2118363380432	pulse	0	t						372.7992515563965	
87	357.81208395957947	pulse	0	t						374.39949917793274	
87	359.412314414978	pulse	0	t						375.9997296333313	
87	361.01259326934814	pulse	0	t						377.6000084877014	
87	362.61283230781555	pulse	0	t						379.2002475261688	
87	364.20549726486206	pulse	0	t						380.79291248321533	
87	365.8054711818695	pulse	0	t						382.3928864002228	
87	367.40588212013245	pulse	0	t						383.9932973384857	
87	369.005539894104	pulse	0	t						385.5929551124573	
