trial_nr	onset	event_type	phase	response	nr_frames	movie_index	movie_duration	movie_file	blank	onset_abs	duration
0	0.15819621086120605	stim	0		578					21.929930210113525	4.816727876663208
0	4.96696400642395	response	0	space						26.73869800567627	
1	4.974924087524414	stim	0		84957					26.746658086776733	707.9800040721893
1	712.9470851421356	pulse	0	t						734.7188191413879	
1	712.9549281597137	stim	1		1717					734.7266621589661	14.30827784538269
1	714.5384130477905	pulse	1	t						736.3101470470428	
1	716.1384110450745	pulse	1	t						737.9101450443268	
1	717.738438129425	pulse	1	t						739.5101721286774	
1	719.3383891582489	pulse	1	t						741.1101231575012	
1	720.9383652210236	pulse	1	t						742.7100992202759	
1	722.5383791923523	pulse	1	t						744.3101131916046	
1	724.1383440494537	pulse	1	t						745.910078048706	
1	725.7383451461792	pulse	1	t						747.5100791454315	
2	727.2632060050964	fix_pre	0		10	0.0	2.5	/experiments/AOT/AOT_stimuli/rescaled_final/0561_rv.mp4	0.0	749.0349400043488	0.09130406379699707
2	727.3383150100708	pulse	0	t		0.0	2.5	/experiments/AOT/AOT_stimuli/rescaled_final/0561_rv.mp4	0.0	749.1100490093231	
2	727.3545100688934	movie	1		241	0.0	2.5	/experiments/AOT/AOT_stimuli/rescaled_final/0561_rv.mp4	0.0	749.1262440681458	2.500352144241333
2	728.9381501674652	pulse	1	t		0.0	2.5	/experiments/AOT/AOT_stimuli/rescaled_final/0561_rv.mp4	0.0	750.7098841667175	
2	729.8548622131348	fix_post	2		12	0.0	2.5	/experiments/AOT/AOT_stimuli/rescaled_final/0561_rv.mp4	0.0	751.6265962123871	0.0998837947845459
3	729.9547460079193	fix_pre	0		120	1.0	2.5	/experiments/AOT/AOT_stimuli/rescaled_final/1139_fw.mp4	0.0	751.7264800071716	1.0000340938568115
3	730.5382950305939	pulse	0	t		1.0	2.5	/experiments/AOT/AOT_stimuli/rescaled_final/1139_fw.mp4	0.0	752.3100290298462	
3	730.9547801017761	movie	1		244	1.0	2.5	/experiments/AOT/AOT_stimuli/rescaled_final/1139_fw.mp4	0.0	752.7265141010284	2.5000500679016113
3	732.1383330821991	pulse	1	t		1.0	2.5	/experiments/AOT/AOT_stimuli/rescaled_final/1139_fw.mp4	0.0	753.9100670814514	
3	733.4548301696777	fix_post	2		12	1.0	2.5	/experiments/AOT/AOT_stimuli/rescaled_final/1139_fw.mp4	0.0	755.22656416893	0.09996795654296875
4	733.5547981262207	fix_pre	0		120	2.0	2.5	/experiments/AOT/AOT_stimuli/rescaled_final/2006_rv.mp4	0.0	755.326532125473	1.0000009536743164
4	733.7383642196655	pulse	0	t		2.0	2.5	/experiments/AOT/AOT_stimuli/rescaled_final/2006_rv.mp4	0.0	755.5100982189178	
4	734.554799079895	movie	1		242	2.0	2.5	/experiments/AOT/AOT_stimuli/rescaled_final/2006_rv.mp4	0.0	756.3265330791473	2.500030040740967
4	735.338320016861	pulse	1	t		2.0	2.5	/experiments/AOT/AOT_stimuli/rescaled_final/2006_rv.mp4	0.0	757.1100540161133	
4	736.9368832111359	pulse	1	t		2.0	2.5	/experiments/AOT/AOT_stimuli/rescaled_final/2006_rv.mp4	0.0	758.7086172103882	
4	737.054829120636	fix_post	2		12	2.0	2.5	/experiments/AOT/AOT_stimuli/rescaled_final/2006_rv.mp4	0.0	758.8265631198883	0.09957003593444824
5	737.1543991565704	fix_pre	0		120	3.0	2.5	/experiments/AOT/AOT_stimuli/rescaled_final/0388_fw.mp4	0.0	758.9261331558228	1.0006179809570312
5	738.1550171375275	movie	1		243	3.0	2.5	/experiments/AOT/AOT_stimuli/rescaled_final/0388_fw.mp4	0.0	759.9267511367798	2.499738931655884
5	738.5383231639862	pulse	1	t		3.0	2.5	/experiments/AOT/AOT_stimuli/rescaled_final/0388_fw.mp4	0.0	760.3100571632385	
5	740.1383280754089	pulse	1	t		3.0	2.5	/experiments/AOT/AOT_stimuli/rescaled_final/0388_fw.mp4	0.0	761.9100620746613	
5	740.6547560691833	fix_post	2		12	3.0	2.5	/experiments/AOT/AOT_stimuli/rescaled_final/0388_fw.mp4	0.0	762.4264900684357	0.10005402565002441
6	740.7548100948334	fix_pre	0		119	4.0	2.5	/experiments/AOT/AOT_stimuli/rescaled_final/1865_fw.mp4	0.0	762.5265440940857	0.9916610717773438
6	741.7382690906525	pulse	0	t		4.0	2.5	/experiments/AOT/AOT_stimuli/rescaled_final/1865_fw.mp4	0.0	763.5100030899048	
6	741.7464711666107	movie	1		243	4.0	2.5	/experiments/AOT/AOT_stimuli/rescaled_final/1865_fw.mp4	0.0	763.518205165863	2.5082879066467285
6	743.338730096817	pulse	1	t		4.0	2.5	/experiments/AOT/AOT_stimuli/rescaled_final/1865_fw.mp4	0.0	765.1104640960693	
6	744.2547590732574	fix_post	2		12	4.0	2.5	/experiments/AOT/AOT_stimuli/rescaled_final/1865_fw.mp4	0.0	766.0264930725098	0.09992599487304688
7	744.3546850681305	fix_pre	0		120	5.0	2.5	blank	1.0	766.1264190673828	1.0000770092010498
7	744.9382491111755	pulse	0	t		5.0	2.5	blank	1.0	766.7099831104279	
7	745.3547620773315	movie	1		300	5.0	2.5	blank	1.0	767.1264960765839	2.4999289512634277
7	746.5382640361786	pulse	1	t		5.0	2.5	blank	1.0	768.3099980354309	
7	747.854691028595	fix_post	2		12	5.0	2.5	blank	1.0	769.6264250278473	0.10000419616699219
8	747.954695224762	fix_pre	0		120	6.0	2.5	/experiments/AOT/AOT_stimuli/rescaled_final/1665_rv.mp4	0.0	769.7264292240143	1.0000288486480713
8	748.1382520198822	pulse	0	t		6.0	2.5	/experiments/AOT/AOT_stimuli/rescaled_final/1665_rv.mp4	0.0	769.9099860191345	
8	748.95472407341	movie	1		242	6.0	2.5	/experiments/AOT/AOT_stimuli/rescaled_final/1665_rv.mp4	0.0	770.7264580726624	2.500131130218506
8	749.7381892204285	pulse	1	t		6.0	2.5	/experiments/AOT/AOT_stimuli/rescaled_final/1665_rv.mp4	0.0	771.5099232196808	
8	751.3364861011505	pulse	1	t		6.0	2.5	/experiments/AOT/AOT_stimuli/rescaled_final/1665_rv.mp4	0.0	773.1082201004028	
8	751.4548552036285	fix_post	2		12	6.0	2.5	/experiments/AOT/AOT_stimuli/rescaled_final/1665_rv.mp4	0.0	773.2265892028809	0.09993386268615723
9	751.5547890663147	fix_pre	0		120	7.0	2.5	/experiments/AOT/AOT_stimuli/rescaled_final/1733_rv.mp4	0.0	773.326523065567	1.000002145767212
9	752.5547912120819	movie	1		242	7.0	2.5	/experiments/AOT/AOT_stimuli/rescaled_final/1733_rv.mp4	0.0	774.3265252113342	2.4999918937683105
9	752.9383029937744	pulse	1	t		7.0	2.5	/experiments/AOT/AOT_stimuli/rescaled_final/1733_rv.mp4	0.0	774.7100369930267	
9	754.5381979942322	pulse	1	t		7.0	2.5	/experiments/AOT/AOT_stimuli/rescaled_final/1733_rv.mp4	0.0	776.3099319934845	
9	755.0547831058502	fix_post	2		12	7.0	2.5	/experiments/AOT/AOT_stimuli/rescaled_final/1733_rv.mp4	0.0	776.8265171051025	0.09998798370361328
10	755.1547710895538	fix_pre	0		119	8.0	2.5	/experiments/AOT/AOT_stimuli/rescaled_final/0893_fw.mp4	0.0	776.9265050888062	0.9916400909423828
10	756.1382780075073	pulse	0	t		8.0	2.5	/experiments/AOT/AOT_stimuli/rescaled_final/0893_fw.mp4	0.0	777.9100120067596	
10	756.1464111804962	movie	1		242	8.0	2.5	/experiments/AOT/AOT_stimuli/rescaled_final/0893_fw.mp4	0.0	777.9181451797485	2.507913827896118
10	757.7376160621643	pulse	1	t		8.0	2.5	/experiments/AOT/AOT_stimuli/rescaled_final/0893_fw.mp4	0.0	779.5093500614166	
10	758.6543250083923	fix_post	2		12	8.0	2.5	/experiments/AOT/AOT_stimuli/rescaled_final/0893_fw.mp4	0.0	780.4260590076447	0.10040402412414551
11	758.7547290325165	fix_pre	0		120	9.0	2.5	/experiments/AOT/AOT_stimuli/rescaled_final/0717_rv.mp4	0.0	780.5264630317688	1.0000419616699219
11	759.3381731510162	pulse	0	t		9.0	2.5	/experiments/AOT/AOT_stimuli/rescaled_final/0717_rv.mp4	0.0	781.1099071502686	
11	759.7547709941864	movie	1		243	9.0	2.5	/experiments/AOT/AOT_stimuli/rescaled_final/0717_rv.mp4	0.0	781.5265049934387	2.499965190887451
11	760.9383161067963	pulse	1	t		9.0	2.5	/experiments/AOT/AOT_stimuli/rescaled_final/0717_rv.mp4	0.0	782.7100501060486	
11	762.2547361850739	fix_post	2		12	9.0	2.5	/experiments/AOT/AOT_stimuli/rescaled_final/0717_rv.mp4	0.0	784.0264701843262	0.0999908447265625
12	762.3547270298004	fix_pre	0		120	10.0	2.5	/experiments/AOT/AOT_stimuli/rescaled_final/1733_rv.mp4	0.0	784.1264610290527	0.9999279975891113
12	762.5381591320038	pulse	0	t		10.0	2.5	/experiments/AOT/AOT_stimuli/rescaled_final/1733_rv.mp4	0.0	784.3098931312561	
12	763.3546550273895	movie	1		242	10.0	2.5	/experiments/AOT/AOT_stimuli/rescaled_final/1733_rv.mp4	0.0	785.1263890266418	2.500049114227295
12	764.1381402015686	pulse	1	t		10.0	2.5	/experiments/AOT/AOT_stimuli/rescaled_final/1733_rv.mp4	0.0	785.9098742008209	
12	765.7363600730896	pulse	1	t		10.0	2.5	/experiments/AOT/AOT_stimuli/rescaled_final/1733_rv.mp4	0.0	787.5080940723419	
12	765.8547041416168	fix_post	2		12	10.0	2.5	/experiments/AOT/AOT_stimuli/rescaled_final/1733_rv.mp4	0.0	787.6264381408691	0.09996294975280762
13	765.9546670913696	fix_pre	0		120	11.0	2.5	/experiments/AOT/AOT_stimuli/rescaled_final/2169_rv.mp4	0.0	787.726401090622	0.9999880790710449
13	766.9546551704407	movie	1		242	11.0	2.5	/experiments/AOT/AOT_stimuli/rescaled_final/2169_rv.mp4	0.0	788.726389169693	2.5000529289245605
13	767.3377261161804	pulse	1	t		11.0	2.5	/experiments/AOT/AOT_stimuli/rescaled_final/2169_rv.mp4	0.0	789.1094601154327	
13	768.9382100105286	pulse	1	t		11.0	2.5	/experiments/AOT/AOT_stimuli/rescaled_final/2169_rv.mp4	0.0	790.7099440097809	
13	769.4547080993652	fix_post	2		12	11.0	2.5	/experiments/AOT/AOT_stimuli/rescaled_final/2169_rv.mp4	0.0	791.2264420986176	0.10000109672546387
14	769.5547091960907	fix_pre	0		119	12.0	2.5	blank	1.0	791.326443195343	0.9916398525238037
14	770.5380990505219	pulse	0	t		12.0	2.5	blank	1.0	792.3098330497742	
14	770.5463490486145	movie	1		301	12.0	2.5	blank	1.0	792.3180830478668	2.5082850456237793
14	772.1381251811981	pulse	1	t		12.0	2.5	blank	1.0	793.9098591804504	
14	773.0546340942383	fix_post	2		12	12.0	2.5	blank	1.0	794.8263680934906	0.10004401206970215
15	773.154678106308	fix_pre	0		120	13.0	2.5	/experiments/AOT/AOT_stimuli/rescaled_final/1183_fw.mp4	0.0	794.9264121055603	1.0000410079956055
15	773.7382881641388	pulse	0	t		13.0	2.5	/experiments/AOT/AOT_stimuli/rescaled_final/1183_fw.mp4	0.0	795.5100221633911	
15	774.1547191143036	movie	1		244	13.0	2.5	/experiments/AOT/AOT_stimuli/rescaled_final/1183_fw.mp4	0.0	795.9264531135559	2.500385046005249
15	775.3383431434631	pulse	1	t		13.0	2.5	/experiments/AOT/AOT_stimuli/rescaled_final/1183_fw.mp4	0.0	797.1100771427155	
15	776.6551041603088	fix_post	2		12	13.0	2.5	/experiments/AOT/AOT_stimuli/rescaled_final/1183_fw.mp4	0.0	798.4268381595612	0.09949398040771484
16	776.7545981407166	fix_pre	0		120	14.0	2.5	/experiments/AOT/AOT_stimuli/rescaled_final/0669_rv.mp4	0.0	798.5263321399689	1.0000629425048828
16	776.9380950927734	pulse	0	t		14.0	2.5	/experiments/AOT/AOT_stimuli/rescaled_final/0669_rv.mp4	0.0	798.7098290920258	
16	777.7546610832214	movie	1		242	14.0	2.5	/experiments/AOT/AOT_stimuli/rescaled_final/0669_rv.mp4	0.0	799.5263950824738	2.4999310970306396
16	778.5381090641022	pulse	1	t		14.0	2.5	/experiments/AOT/AOT_stimuli/rescaled_final/0669_rv.mp4	0.0	800.3098430633545	
16	780.136714220047	pulse	1	t		14.0	2.5	/experiments/AOT/AOT_stimuli/rescaled_final/0669_rv.mp4	0.0	801.9084482192993	
16	780.2545921802521	fix_post	2		12	14.0	2.5	/experiments/AOT/AOT_stimuli/rescaled_final/0669_rv.mp4	0.0	802.0263261795044	0.09959983825683594
17	780.3541920185089	fix_pre	0		120	15.0	2.5	/experiments/AOT/AOT_stimuli/rescaled_final/1742_fw.mp4	0.0	802.1259260177612	1.0004050731658936
17	781.3545970916748	movie	1		242	15.0	2.5	/experiments/AOT/AOT_stimuli/rescaled_final/1742_fw.mp4	0.0	803.1263310909271	2.5000829696655273
17	781.7378160953522	pulse	1	t		15.0	2.5	/experiments/AOT/AOT_stimuli/rescaled_final/1742_fw.mp4	0.0	803.5095500946045	
17	783.3379712104797	pulse	1	t		15.0	2.5	/experiments/AOT/AOT_stimuli/rescaled_final/1742_fw.mp4	0.0	805.109705209732	
17	783.8546800613403	fix_post	2		12	15.0	2.5	/experiments/AOT/AOT_stimuli/rescaled_final/1742_fw.mp4	0.0	805.6264140605927	0.0998690128326416
18	783.954549074173	fix_pre	0		119	16.0	2.5	/experiments/AOT/AOT_stimuli/rescaled_final/0960_fw.mp4	0.0	805.7262830734253	0.9916839599609375
18	784.9380872249603	pulse	0	t		16.0	2.5	/experiments/AOT/AOT_stimuli/rescaled_final/0960_fw.mp4	0.0	806.7098212242126	
18	784.9462330341339	movie	1		243	16.0	2.5	/experiments/AOT/AOT_stimuli/rescaled_final/0960_fw.mp4	0.0	806.7179670333862	2.508347988128662
18	786.5379211902618	pulse	1	t		16.0	2.5	/experiments/AOT/AOT_stimuli/rescaled_final/0960_fw.mp4	0.0	808.3096551895142	
18	787.4545810222626	fix_post	2		12	16.0	2.5	/experiments/AOT/AOT_stimuli/rescaled_final/0960_fw.mp4	0.0	809.2263150215149	0.09958100318908691
19	787.5541620254517	fix_pre	0		120	17.0	2.5	/experiments/AOT/AOT_stimuli/rescaled_final/0300_rv.mp4	0.0	809.325896024704	1.0004689693450928
19	788.1380481719971	pulse	0	t		17.0	2.5	/experiments/AOT/AOT_stimuli/rescaled_final/0300_rv.mp4	0.0	809.9097821712494	
19	788.5546309947968	movie	1		243	17.0	2.5	/experiments/AOT/AOT_stimuli/rescaled_final/0300_rv.mp4	0.0	810.3263649940491	2.5001871585845947
19	789.7381300926208	pulse	1	t		17.0	2.5	/experiments/AOT/AOT_stimuli/rescaled_final/0300_rv.mp4	0.0	811.5098640918732	
19	791.0548181533813	fix_post	2		12	17.0	2.5	/experiments/AOT/AOT_stimuli/rescaled_final/0300_rv.mp4	0.0	812.8265521526337	0.09990596771240234
20	791.1547241210938	fix_pre	0		120	18.0	2.5	/experiments/AOT/AOT_stimuli/rescaled_final/1208_rv.mp4	0.0	812.9264581203461	0.9998230934143066
20	791.3380591869354	pulse	0	t		18.0	2.5	/experiments/AOT/AOT_stimuli/rescaled_final/1208_rv.mp4	0.0	813.1097931861877	
20	792.154547214508	movie	1		243	18.0	2.5	/experiments/AOT/AOT_stimuli/rescaled_final/1208_rv.mp4	0.0	813.9262812137604	2.499917984008789
20	792.9376702308655	pulse	1	t		18.0	2.5	/experiments/AOT/AOT_stimuli/rescaled_final/1208_rv.mp4	0.0	814.7094042301178	
20	794.5372400283813	pulse	1	t		18.0	2.5	/experiments/AOT/AOT_stimuli/rescaled_final/1208_rv.mp4	0.0	816.3089740276337	
20	794.6544651985168	fix_post	2		12	18.0	2.5	/experiments/AOT/AOT_stimuli/rescaled_final/1208_rv.mp4	0.0	816.4261991977692	0.09991002082824707
21	794.7543752193451	fix_pre	0		120	19.0	2.5	blank	1.0	816.5261092185974	1.0002729892730713
21	795.7546482086182	movie	1		300	19.0	2.5	blank	1.0	817.5263822078705	2.4999117851257324
21	796.1381161212921	pulse	1	t		19.0	2.5	blank	1.0	817.9098501205444	
21	797.7380142211914	pulse	1	t		19.0	2.5	blank	1.0	819.5097482204437	
21	798.2545599937439	fix_post	2		12	19.0	2.5	blank	1.0	820.0262939929962	0.09997320175170898
22	798.3545331954956	fix_pre	0		119	20.0	2.5	/experiments/AOT/AOT_stimuli/rescaled_final/1272_rv.mp4	0.0	820.1262671947479	0.991614818572998
22	799.3381240367889	pulse	0	t		20.0	2.5	/experiments/AOT/AOT_stimuli/rescaled_final/1272_rv.mp4	0.0	821.1098580360413	
22	799.3461480140686	movie	1		247	20.0	2.5	/experiments/AOT/AOT_stimuli/rescaled_final/1272_rv.mp4	0.0	821.1178820133209	2.50829815864563
22	800.9374260902405	pulse	1	t		20.0	2.5	/experiments/AOT/AOT_stimuli/rescaled_final/1272_rv.mp4	0.0	822.7091600894928	
22	801.8544461727142	fix_post	2		12	20.0	2.5	/experiments/AOT/AOT_stimuli/rescaled_final/1272_rv.mp4	0.0	823.6261801719666	0.10010099411010742
23	801.9545471668243	fix_pre	0		120	21.0	2.5	/experiments/AOT/AOT_stimuli/rescaled_final/0946_fw.mp4	0.0	823.7262811660767	0.9999229907989502
23	802.5380170345306	pulse	0	t		21.0	2.5	/experiments/AOT/AOT_stimuli/rescaled_final/0946_fw.mp4	0.0	824.309751033783	
23	802.9544701576233	movie	1		242	21.0	2.5	/experiments/AOT/AOT_stimuli/rescaled_final/0946_fw.mp4	0.0	824.7262041568756	2.5000109672546387
23	804.1380410194397	pulse	1	t		21.0	2.5	/experiments/AOT/AOT_stimuli/rescaled_final/0946_fw.mp4	0.0	825.909775018692	
23	805.4544811248779	fix_post	2		12	21.0	2.5	/experiments/AOT/AOT_stimuli/rescaled_final/0946_fw.mp4	0.0	827.2262151241302	0.10000109672546387
24	805.5544822216034	fix_pre	0		120	22.0	2.5	/experiments/AOT/AOT_stimuli/rescaled_final/1563_fw.mp4	0.0	827.3262162208557	1.0000050067901611
24	805.7379941940308	pulse	0	t		22.0	2.5	/experiments/AOT/AOT_stimuli/rescaled_final/1563_fw.mp4	0.0	827.5097281932831	
24	806.5544872283936	movie	1		243	22.0	2.5	/experiments/AOT/AOT_stimuli/rescaled_final/1563_fw.mp4	0.0	828.3262212276459	2.5
24	807.3379511833191	pulse	1	t		22.0	2.5	/experiments/AOT/AOT_stimuli/rescaled_final/1563_fw.mp4	0.0	829.1096851825714	
24	808.9367380142212	pulse	1	t		22.0	2.5	/experiments/AOT/AOT_stimuli/rescaled_final/1563_fw.mp4	0.0	830.7084720134735	
24	809.0544872283936	fix_post	2		12	22.0	2.5	/experiments/AOT/AOT_stimuli/rescaled_final/1563_fw.mp4	0.0	830.8262212276459	0.09993577003479004
25	809.1544229984283	fix_pre	0		120	23.0	2.5	/experiments/AOT/AOT_stimuli/rescaled_final/0113_fw.mp4	0.0	830.9261569976807	1.0000181198120117
25	810.1544411182404	movie	1		243	23.0	2.5	/experiments/AOT/AOT_stimuli/rescaled_final/0113_fw.mp4	0.0	831.9261751174927	2.4996180534362793
25	810.5389981269836	pulse	1	t		23.0	2.5	/experiments/AOT/AOT_stimuli/rescaled_final/0113_fw.mp4	0.0	832.310732126236	
25	812.1379611492157	pulse	1	t		23.0	2.5	/experiments/AOT/AOT_stimuli/rescaled_final/0113_fw.mp4	0.0	833.909695148468	
25	812.6540591716766	fix_post	2		12	23.0	2.5	/experiments/AOT/AOT_stimuli/rescaled_final/0113_fw.mp4	0.0	834.425793170929	0.10035896301269531
26	812.7544181346893	fix_pre	0		119	24.0	2.5	/experiments/AOT/AOT_stimuli/rescaled_final/1920_fw.mp4	0.0	834.5261521339417	0.9916510581970215
26	813.7380239963531	pulse	0	t		24.0	2.5	/experiments/AOT/AOT_stimuli/rescaled_final/1920_fw.mp4	0.0	835.5097579956055	
26	813.7460691928864	movie	1		243	24.0	2.5	/experiments/AOT/AOT_stimuli/rescaled_final/1920_fw.mp4	0.0	835.5178031921387	2.5084879398345947
26	815.3375940322876	pulse	1	t		24.0	2.5	/experiments/AOT/AOT_stimuli/rescaled_final/1920_fw.mp4	0.0	837.1093280315399	
26	816.254557132721	fix_post	2		12	24.0	2.5	/experiments/AOT/AOT_stimuli/rescaled_final/1920_fw.mp4	0.0	838.0262911319733	0.09980893135070801
27	816.3543660640717	fix_pre	0		120	25.0	2.5	/experiments/AOT/AOT_stimuli/rescaled_final/1797_fw.mp4	0.0	838.126100063324	1.0001089572906494
27	816.9378859996796	pulse	0	t		25.0	2.5	/experiments/AOT/AOT_stimuli/rescaled_final/1797_fw.mp4	0.0	838.7096199989319	
27	817.3544750213623	movie	1		243	25.0	2.5	/experiments/AOT/AOT_stimuli/rescaled_final/1797_fw.mp4	0.0	839.1262090206146	2.5000240802764893
27	818.5380141735077	pulse	1	t		25.0	2.5	/experiments/AOT/AOT_stimuli/rescaled_final/1797_fw.mp4	0.0	840.30974817276	
27	819.8544991016388	fix_post	2		12	25.0	2.5	/experiments/AOT/AOT_stimuli/rescaled_final/1797_fw.mp4	0.0	841.6262331008911	0.09995198249816895
28	819.954451084137	fix_pre	0		120	26.0	2.5	/experiments/AOT/AOT_stimuli/rescaled_final/0797_fw.mp4	0.0	841.7261850833893	0.9999949932098389
28	820.1379470825195	pulse	0	t		26.0	2.5	/experiments/AOT/AOT_stimuli/rescaled_final/0797_fw.mp4	0.0	841.9096810817719	
28	820.9544460773468	movie	1		245	26.0	2.5	/experiments/AOT/AOT_stimuli/rescaled_final/0797_fw.mp4	0.0	842.7261800765991	2.5000269412994385
28	821.737909078598	pulse	1	t		26.0	2.5	/experiments/AOT/AOT_stimuli/rescaled_final/0797_fw.mp4	0.0	843.5096430778503	
28	823.3367202281952	pulse	1	t		26.0	2.5	/experiments/AOT/AOT_stimuli/rescaled_final/0797_fw.mp4	0.0	845.1084542274475	
28	823.4544730186462	fix_post	2		12	26.0	2.5	/experiments/AOT/AOT_stimuli/rescaled_final/0797_fw.mp4	0.0	845.2262070178986	0.09996819496154785
29	823.5544412136078	fix_pre	0		120	27.0	2.5	/experiments/AOT/AOT_stimuli/rescaled_final/1593_rv.mp4	0.0	845.3261752128601	0.9999918937683105
29	824.5544331073761	movie	1		244	27.0	2.5	/experiments/AOT/AOT_stimuli/rescaled_final/1593_rv.mp4	0.0	846.3261671066284	2.500027894973755
29	824.9380121231079	pulse	1	t		27.0	2.5	/experiments/AOT/AOT_stimuli/rescaled_final/1593_rv.mp4	0.0	846.7097461223602	
29	826.5378561019897	pulse	1	t		27.0	2.5	/experiments/AOT/AOT_stimuli/rescaled_final/1593_rv.mp4	0.0	848.3095901012421	
29	827.0544610023499	fix_post	2		12	27.0	2.5	/experiments/AOT/AOT_stimuli/rescaled_final/1593_rv.mp4	0.0	848.8261950016022	0.09995102882385254
30	827.1544120311737	fix_pre	0		119	28.0	2.5	blank	1.0	848.926146030426	0.9916880130767822
30	828.137852191925	pulse	0	t		28.0	2.5	blank	1.0	849.9095861911774	
30	828.1461000442505	movie	1		301	28.0	2.5	blank	1.0	849.9178340435028	2.5082740783691406
30	829.7379140853882	pulse	1	t		28.0	2.5	blank	1.0	851.5096480846405	
30	830.6543741226196	fix_post	2		12	28.0	2.5	blank	1.0	852.426108121872	0.10006093978881836
31	830.7544350624084	fix_pre	0		120	29.0	2.5	/experiments/AOT/AOT_stimuli/rescaled_final/0384_fw.mp4	0.0	852.5261690616608	0.9998841285705566
31	831.3378901481628	pulse	0	t		29.0	2.5	/experiments/AOT/AOT_stimuli/rescaled_final/0384_fw.mp4	0.0	853.1096241474152	
31	831.754319190979	movie	1		242	29.0	2.5	/experiments/AOT/AOT_stimuli/rescaled_final/0384_fw.mp4	0.0	853.5260531902313	2.500046968460083
31	832.9379072189331	pulse	1	t		29.0	2.5	/experiments/AOT/AOT_stimuli/rescaled_final/0384_fw.mp4	0.0	854.7096412181854	
31	834.2543661594391	fix_post	2		12	29.0	2.5	/experiments/AOT/AOT_stimuli/rescaled_final/0384_fw.mp4	0.0	856.0261001586914	0.10001897811889648
32	834.354385137558	fix_pre	0		120	30.0	2.5	/experiments/AOT/AOT_stimuli/rescaled_final/1301_rv.mp4	0.0	856.1261191368103	1.0000710487365723
32	834.5379631519318	pulse	0	t		30.0	2.5	/experiments/AOT/AOT_stimuli/rescaled_final/1301_rv.mp4	0.0	856.3096971511841	
32	835.3544561862946	movie	1		243	30.0	2.5	/experiments/AOT/AOT_stimuli/rescaled_final/1301_rv.mp4	0.0	857.1261901855469	2.499851942062378
32	836.1378931999207	pulse	1	t		30.0	2.5	/experiments/AOT/AOT_stimuli/rescaled_final/1301_rv.mp4	0.0	857.909627199173	
32	837.7365510463715	pulse	1	t		30.0	2.5	/experiments/AOT/AOT_stimuli/rescaled_final/1301_rv.mp4	0.0	859.5082850456238	
32	837.8543081283569	fix_post	2		12	30.0	2.5	/experiments/AOT/AOT_stimuli/rescaled_final/1301_rv.mp4	0.0	859.6260421276093	0.10001301765441895
33	837.9543211460114	fix_pre	0		120	31.0	2.5	/experiments/AOT/AOT_stimuli/rescaled_final/1312_fw.mp4	0.0	859.7260551452637	1.0000059604644775
33	838.9543271064758	movie	1		243	31.0	2.5	/experiments/AOT/AOT_stimuli/rescaled_final/1312_fw.mp4	0.0	860.7260611057281	2.4996049404144287
33	839.3380780220032	pulse	1	t		31.0	2.5	/experiments/AOT/AOT_stimuli/rescaled_final/1312_fw.mp4	0.0	861.1098120212555	
33	840.9378480911255	pulse	1	t		31.0	2.5	/experiments/AOT/AOT_stimuli/rescaled_final/1312_fw.mp4	0.0	862.7095820903778	
33	841.4539320468903	fix_post	2		12	31.0	2.5	/experiments/AOT/AOT_stimuli/rescaled_final/1312_fw.mp4	0.0	863.2256660461426	0.10029006004333496
34	841.5542221069336	fix_pre	0		119	32.0	2.5	/experiments/AOT/AOT_stimuli/rescaled_final/0625_fw.mp4	0.0	863.3259561061859	0.9917070865631104
34	842.5378119945526	pulse	0	t		32.0	2.5	/experiments/AOT/AOT_stimuli/rescaled_final/0625_fw.mp4	0.0	864.3095459938049	
34	842.5459291934967	movie	1		243	32.0	2.5	/experiments/AOT/AOT_stimuli/rescaled_final/0625_fw.mp4	0.0	864.317663192749	2.5079219341278076
34	844.138866186142	pulse	1	t		32.0	2.5	/experiments/AOT/AOT_stimuli/rescaled_final/0625_fw.mp4	0.0	865.9106001853943	
34	845.0538511276245	fix_post	2		12	32.0	2.5	/experiments/AOT/AOT_stimuli/rescaled_final/0625_fw.mp4	0.0	866.8255851268768	0.10045599937438965
35	845.1543071269989	fix_pre	0		120	33.0	2.5	/experiments/AOT/AOT_stimuli/rescaled_final/0093_fw.mp4	0.0	866.9260411262512	1.000046968460083
35	845.7377700805664	pulse	0	t		33.0	2.5	/experiments/AOT/AOT_stimuli/rescaled_final/0093_fw.mp4	0.0	867.5095040798187	
35	846.154354095459	movie	1		246	33.0	2.5	/experiments/AOT/AOT_stimuli/rescaled_final/0093_fw.mp4	0.0	867.9260880947113	2.4999349117279053
35	847.3379600048065	pulse	1	t		33.0	2.5	/experiments/AOT/AOT_stimuli/rescaled_final/0093_fw.mp4	0.0	869.1096940040588	
35	848.6542890071869	fix_post	2		12	33.0	2.5	/experiments/AOT/AOT_stimuli/rescaled_final/0093_fw.mp4	0.0	870.4260230064392	0.09969806671142578
36	848.7539870738983	fix_pre	0		120	34.0	2.5	/experiments/AOT/AOT_stimuli/rescaled_final/2126_rv.mp4	0.0	870.5257210731506	1.0000090599060059
36	848.9373710155487	pulse	0	t		34.0	2.5	/experiments/AOT/AOT_stimuli/rescaled_final/2126_rv.mp4	0.0	870.709105014801	
36	849.7539961338043	movie	1		243	34.0	2.5	/experiments/AOT/AOT_stimuli/rescaled_final/2126_rv.mp4	0.0	871.5257301330566	2.5003409385681152
36	850.5375771522522	pulse	1	t		34.0	2.5	/experiments/AOT/AOT_stimuli/rescaled_final/2126_rv.mp4	0.0	872.3093111515045	
36	852.1360549926758	pulse	1	t		34.0	2.5	/experiments/AOT/AOT_stimuli/rescaled_final/2126_rv.mp4	0.0	873.9077889919281	
36	852.2543370723724	fix_post	2		12	34.0	2.5	/experiments/AOT/AOT_stimuli/rescaled_final/2126_rv.mp4	0.0	874.0260710716248	0.09992098808288574
37	852.3542580604553	fix_pre	0		120	35.0	2.5	blank	1.0	874.1259920597076	0.9999940395355225
37	853.3542520999908	movie	1		300	35.0	2.5	blank	1.0	875.1259860992432	2.5000009536743164
37	853.7377660274506	pulse	1	t		35.0	2.5	blank	1.0	875.5095000267029	
37	855.3378012180328	pulse	1	t		35.0	2.5	blank	1.0	877.1095352172852	
37	855.8542530536652	fix_post	2		12	35.0	2.5	blank	1.0	877.6259870529175	0.09998607635498047
38	855.9542391300201	fix_pre	0		119	36.0	2.5	/experiments/AOT/AOT_stimuli/rescaled_final/2077_rv.mp4	0.0	877.7259731292725	0.9916670322418213
38	856.9377691745758	pulse	0	t		36.0	2.5	/experiments/AOT/AOT_stimuli/rescaled_final/2077_rv.mp4	0.0	878.7095031738281	
38	856.945906162262	movie	1		243	36.0	2.5	/experiments/AOT/AOT_stimuli/rescaled_final/2077_rv.mp4	0.0	878.7176401615143	2.508307933807373
38	858.537388086319	pulse	1	t		36.0	2.5	/experiments/AOT/AOT_stimuli/rescaled_final/2077_rv.mp4	0.0	880.3091220855713	
38	859.4542140960693	fix_post	2		12	36.0	2.5	/experiments/AOT/AOT_stimuli/rescaled_final/2077_rv.mp4	0.0	881.2259480953217	0.10001111030578613
39	859.5542252063751	fix_pre	0		120	37.0	2.5	/experiments/AOT/AOT_stimuli/rescaled_final/0255_fw.mp4	0.0	881.3259592056274	1.000020980834961
39	860.1377301216125	pulse	0	t		37.0	2.5	/experiments/AOT/AOT_stimuli/rescaled_final/0255_fw.mp4	0.0	881.9094641208649	
39	860.5542461872101	movie	1		242	37.0	2.5	/experiments/AOT/AOT_stimuli/rescaled_final/0255_fw.mp4	0.0	882.3259801864624	2.4999618530273438
39	861.7378280162811	pulse	1	t		37.0	2.5	/experiments/AOT/AOT_stimuli/rescaled_final/0255_fw.mp4	0.0	883.5095620155334	
39	863.0542080402374	fix_post	2		12	37.0	2.5	/experiments/AOT/AOT_stimuli/rescaled_final/0255_fw.mp4	0.0	884.8259420394897	0.10002613067626953
40	863.1542341709137	fix_pre	0		120	38.0	2.5	/experiments/AOT/AOT_stimuli/rescaled_final/0017_rv.mp4	0.0	884.925968170166	0.9999408721923828
40	863.3376870155334	pulse	0	t		38.0	2.5	/experiments/AOT/AOT_stimuli/rescaled_final/0017_rv.mp4	0.0	885.1094210147858	
40	864.1541750431061	movie	1		243	38.0	2.5	/experiments/AOT/AOT_stimuli/rescaled_final/0017_rv.mp4	0.0	885.9259090423584	2.499997138977051
40	864.9377300739288	pulse	1	t		38.0	2.5	/experiments/AOT/AOT_stimuli/rescaled_final/0017_rv.mp4	0.0	886.7094640731812	
40	866.5362610816956	pulse	1	t		38.0	2.5	/experiments/AOT/AOT_stimuli/rescaled_final/0017_rv.mp4	0.0	888.3079950809479	
40	866.6541721820831	fix_post	2		12	38.0	2.5	/experiments/AOT/AOT_stimuli/rescaled_final/0017_rv.mp4	0.0	888.4259061813354	0.0999598503112793
41	866.7541320323944	fix_pre	0		120	39.0	2.5	/experiments/AOT/AOT_stimuli/rescaled_final/1385_rv.mp4	0.0	888.5258660316467	1.0080690383911133
41	867.7622010707855	movie	1		245	39.0	2.5	/experiments/AOT/AOT_stimuli/rescaled_final/1385_rv.mp4	0.0	889.5339350700378	2.491507053375244
41	868.1372411251068	pulse	1	t		39.0	2.5	/experiments/AOT/AOT_stimuli/rescaled_final/1385_rv.mp4	0.0	889.9089751243591	
41	869.7377982139587	pulse	1	t		39.0	2.5	/experiments/AOT/AOT_stimuli/rescaled_final/1385_rv.mp4	0.0	891.5095322132111	
41	870.2537081241608	fix_post	2		12	39.0	2.5	/experiments/AOT/AOT_stimuli/rescaled_final/1385_rv.mp4	0.0	892.0254421234131	0.10051107406616211
42	870.3542191982269	fix_pre	0		119	40.0	2.5	/experiments/AOT/AOT_stimuli/rescaled_final/1272_fw.mp4	0.0	892.1259531974792	0.9916918277740479
42	871.3376920223236	pulse	0	t		40.0	2.5	/experiments/AOT/AOT_stimuli/rescaled_final/1272_fw.mp4	0.0	893.1094260215759	
42	871.345911026001	movie	1		246	40.0	2.5	/experiments/AOT/AOT_stimuli/rescaled_final/1272_fw.mp4	0.0	893.1176450252533	2.508270025253296
42	872.9373571872711	pulse	1	t		40.0	2.5	/experiments/AOT/AOT_stimuli/rescaled_final/1272_fw.mp4	0.0	894.7090911865234	
42	873.8541810512543	fix_post	2		12	40.0	2.5	/experiments/AOT/AOT_stimuli/rescaled_final/1272_fw.mp4	0.0	895.6259150505066	0.09995603561401367
43	873.9541370868683	fix_pre	0		120	41.0	2.5	blank	1.0	895.7258710861206	0.9999430179595947
43	874.5376811027527	pulse	0	t		41.0	2.5	blank	1.0	896.309415102005	
43	874.9540801048279	movie	1		300	41.0	2.5	blank	1.0	896.7258141040802	2.500087022781372
43	876.1376521587372	pulse	1	t		41.0	2.5	blank	1.0	897.9093861579895	
43	877.4541671276093	fix_post	2		12	41.0	2.5	blank	1.0	899.2259011268616	0.09997987747192383
44	877.5541470050812	fix_pre	0		120	42.0	2.5	/experiments/AOT/AOT_stimuli/rescaled_final/1447_fw.mp4	0.0	899.3258810043335	1.0000991821289062
44	877.7377080917358	pulse	0	t		42.0	2.5	/experiments/AOT/AOT_stimuli/rescaled_final/1447_fw.mp4	0.0	899.5094420909882	
44	878.5542461872101	movie	1		243	42.0	2.5	/experiments/AOT/AOT_stimuli/rescaled_final/1447_fw.mp4	0.0	900.3259801864624	2.499941825866699
44	879.3377361297607	pulse	1	t		42.0	2.5	/experiments/AOT/AOT_stimuli/rescaled_final/1447_fw.mp4	0.0	901.1094701290131	
44	880.936193227768	pulse	1	t		42.0	2.5	/experiments/AOT/AOT_stimuli/rescaled_final/1447_fw.mp4	0.0	902.7079272270203	
44	881.0541880130768	fix_post	2		12	42.0	2.5	/experiments/AOT/AOT_stimuli/rescaled_final/1447_fw.mp4	0.0	902.8259220123291	0.10003805160522461
45	881.154226064682	fix_pre	0		120	43.0	2.5	/experiments/AOT/AOT_stimuli/rescaled_final/1580_rv.mp4	0.0	902.9259600639343	0.9998741149902344
45	882.1541001796722	movie	1		243	43.0	2.5	/experiments/AOT/AOT_stimuli/rescaled_final/1580_rv.mp4	0.0	903.9258341789246	2.5000648498535156
45	882.5371811389923	pulse	1	t		43.0	2.5	/experiments/AOT/AOT_stimuli/rescaled_final/1580_rv.mp4	0.0	904.3089151382446	
45	884.137638092041	pulse	1	t		43.0	2.5	/experiments/AOT/AOT_stimuli/rescaled_final/1580_rv.mp4	0.0	905.9093720912933	
45	884.6541650295258	fix_post	2		12	43.0	2.5	/experiments/AOT/AOT_stimuli/rescaled_final/1580_rv.mp4	0.0	906.4258990287781	0.09997701644897461
46	884.7541420459747	fix_pre	0		119	44.0	2.5	/experiments/AOT/AOT_stimuli/rescaled_final/0717_fw.mp4	0.0	906.525876045227	0.9916341304779053
46	885.7376401424408	pulse	0	t		44.0	2.5	/experiments/AOT/AOT_stimuli/rescaled_final/0717_fw.mp4	0.0	907.5093741416931	
46	885.7457761764526	movie	1		244	44.0	2.5	/experiments/AOT/AOT_stimuli/rescaled_final/0717_fw.mp4	0.0	907.517510175705	2.5079798698425293
46	887.3372120857239	pulse	1	t		44.0	2.5	/experiments/AOT/AOT_stimuli/rescaled_final/0717_fw.mp4	0.0	909.1089460849762	
46	888.2537560462952	fix_post	2		12	44.0	2.5	/experiments/AOT/AOT_stimuli/rescaled_final/0717_fw.mp4	0.0	910.0254900455475	0.10034298896789551
47	888.3540990352631	fix_pre	0		120	45.0	2.5	/experiments/AOT/AOT_stimuli/rescaled_final/1274_fw.mp4	0.0	910.1258330345154	0.9999699592590332
47	888.9375851154327	pulse	0	t		45.0	2.5	/experiments/AOT/AOT_stimuli/rescaled_final/1274_fw.mp4	0.0	910.7093191146851	
47	889.3540689945221	movie	1		244	45.0	2.5	/experiments/AOT/AOT_stimuli/rescaled_final/1274_fw.mp4	0.0	911.1258029937744	2.500019073486328
47	890.5375800132751	pulse	1	t		45.0	2.5	/experiments/AOT/AOT_stimuli/rescaled_final/1274_fw.mp4	0.0	912.3093140125275	
47	891.8540880680084	fix_post	2		12	45.0	2.5	/experiments/AOT/AOT_stimuli/rescaled_final/1274_fw.mp4	0.0	913.6258220672607	0.10001397132873535
48	891.9541020393372	fix_pre	0		120	46.0	2.5	/experiments/AOT/AOT_stimuli/rescaled_final/1713_fw.mp4	0.0	913.7258360385895	1.0000100135803223
48	892.1375691890717	pulse	0	t		46.0	2.5	/experiments/AOT/AOT_stimuli/rescaled_final/1713_fw.mp4	0.0	913.909303188324	
48	892.9541120529175	movie	1		243	46.0	2.5	/experiments/AOT/AOT_stimuli/rescaled_final/1713_fw.mp4	0.0	914.7258460521698	2.500012159347534
48	893.7375590801239	pulse	1	t		46.0	2.5	/experiments/AOT/AOT_stimuli/rescaled_final/1713_fw.mp4	0.0	915.5092930793762	
48	895.3359560966492	pulse	1	t		46.0	2.5	/experiments/AOT/AOT_stimuli/rescaled_final/1713_fw.mp4	0.0	917.1076900959015	
48	895.454124212265	fix_post	2		12	46.0	2.5	/experiments/AOT/AOT_stimuli/rescaled_final/1713_fw.mp4	0.0	917.2258582115173	0.09996294975280762
49	895.5540871620178	fix_pre	0		120	47.0	2.5	/experiments/AOT/AOT_stimuli/rescaled_final/1530_rv.mp4	0.0	917.3258211612701	0.9999468326568604
49	896.5540339946747	movie	1		242	47.0	2.5	/experiments/AOT/AOT_stimuli/rescaled_final/1530_rv.mp4	0.0	918.325767993927	2.499979019165039
49	896.9374752044678	pulse	1	t		47.0	2.5	/experiments/AOT/AOT_stimuli/rescaled_final/1530_rv.mp4	0.0	918.7092092037201	
49	898.5375101566315	pulse	1	t		47.0	2.5	/experiments/AOT/AOT_stimuli/rescaled_final/1530_rv.mp4	0.0	920.3092441558838	
49	899.0540130138397	fix_post	2		12	47.0	2.5	/experiments/AOT/AOT_stimuli/rescaled_final/1530_rv.mp4	0.0	920.825747013092	0.10000109672546387
50	899.1540141105652	fix_pre	0		119	48.0	2.5	blank	1.0	920.9257481098175	0.9917199611663818
50	900.1376810073853	pulse	0	t		48.0	2.5	blank	1.0	921.9094150066376	
50	900.1457340717316	movie	1		301	48.0	2.5	blank	1.0	921.9174680709839	2.5083301067352295
50	901.7377111911774	pulse	1	t		48.0	2.5	blank	1.0	923.5094451904297	
50	902.6540641784668	fix_post	2		12	48.0	2.5	blank	1.0	924.4257981777191	0.09999489784240723
51	902.7540590763092	fix_pre	0		120	49.0	2.5	/experiments/AOT/AOT_stimuli/rescaled_final/1698_fw.mp4	0.0	924.5257930755615	0.9995441436767578
51	903.3375861644745	pulse	0	t		49.0	2.5	/experiments/AOT/AOT_stimuli/rescaled_final/1698_fw.mp4	0.0	925.1093201637268	
51	903.753603219986	movie	1		243	49.0	2.5	/experiments/AOT/AOT_stimuli/rescaled_final/1698_fw.mp4	0.0	925.5253372192383	2.5002658367156982
51	904.9371860027313	pulse	1	t		49.0	2.5	/experiments/AOT/AOT_stimuli/rescaled_final/1698_fw.mp4	0.0	926.7089200019836	
51	906.2538690567017	fix_post	2		12	49.0	2.5	/experiments/AOT/AOT_stimuli/rescaled_final/1698_fw.mp4	0.0	928.025603055954	0.1000051498413086
52	906.353874206543	fix_pre	0		120	50.0	2.5	/experiments/AOT/AOT_stimuli/rescaled_final/0158_rv.mp4	0.0	928.1256082057953	1.0001568794250488
52	906.5377900600433	pulse	0	t		50.0	2.5	/experiments/AOT/AOT_stimuli/rescaled_final/0158_rv.mp4	0.0	928.3095240592957	
52	907.354031085968	movie	1		242	50.0	2.5	/experiments/AOT/AOT_stimuli/rescaled_final/0158_rv.mp4	0.0	929.1257650852203	2.499566078186035
52	908.1375730037689	pulse	1	t		50.0	2.5	/experiments/AOT/AOT_stimuli/rescaled_final/0158_rv.mp4	0.0	929.9093070030212	
52	909.735995054245	pulse	1	t		50.0	2.5	/experiments/AOT/AOT_stimuli/rescaled_final/0158_rv.mp4	0.0	931.5077290534973	
52	909.853597164154	fix_post	2		12	50.0	2.5	/experiments/AOT/AOT_stimuli/rescaled_final/0158_rv.mp4	0.0	931.6253311634064	0.10039901733398438
53	909.953996181488	fix_pre	0		120	51.0	2.5	/experiments/AOT/AOT_stimuli/rescaled_final/1993_rv.mp4	0.0	931.7257301807404	1.0000710487365723
53	910.9540672302246	movie	1		242	51.0	2.5	/experiments/AOT/AOT_stimuli/rescaled_final/1993_rv.mp4	0.0	932.7258012294769	2.499908924102783
53	911.3374722003937	pulse	1	t		51.0	2.5	/experiments/AOT/AOT_stimuli/rescaled_final/1993_rv.mp4	0.0	933.109206199646	
53	912.9373822212219	pulse	1	t		51.0	2.5	/experiments/AOT/AOT_stimuli/rescaled_final/1993_rv.mp4	0.0	934.7091162204742	
53	913.4539761543274	fix_post	2		12	51.0	2.5	/experiments/AOT/AOT_stimuli/rescaled_final/1993_rv.mp4	0.0	935.2257101535797	0.10000991821289062
54	913.5539860725403	fix_pre	0		119	52.0	2.5	/experiments/AOT/AOT_stimuli/rescaled_final/2134_rv.mp4	0.0	935.3257200717926	0.9915990829467773
54	914.5374960899353	pulse	0	t		52.0	2.5	/experiments/AOT/AOT_stimuli/rescaled_final/2134_rv.mp4	0.0	936.3092300891876	
54	914.5455851554871	movie	1		245	52.0	2.5	/experiments/AOT/AOT_stimuli/rescaled_final/2134_rv.mp4	0.0	936.3173191547394	2.5083730220794678
54	916.1370420455933	pulse	1	t		52.0	2.5	/experiments/AOT/AOT_stimuli/rescaled_final/2134_rv.mp4	0.0	937.9087760448456	
54	917.0539581775665	fix_post	2		12	52.0	2.5	/experiments/AOT/AOT_stimuli/rescaled_final/2134_rv.mp4	0.0	938.8256921768188	0.10001397132873535
55	917.1539721488953	fix_pre	0		120	53.0	2.5	/experiments/AOT/AOT_stimuli/rescaled_final/1172_rv.mp4	0.0	938.9257061481476	0.9996199607849121
55	917.7374551296234	pulse	0	t		53.0	2.5	/experiments/AOT/AOT_stimuli/rescaled_final/1172_rv.mp4	0.0	939.5091891288757	
55	918.1535921096802	movie	1		242	53.0	2.5	/experiments/AOT/AOT_stimuli/rescaled_final/1172_rv.mp4	0.0	939.9253261089325	2.500394105911255
55	919.3375451564789	pulse	1	t		53.0	2.5	/experiments/AOT/AOT_stimuli/rescaled_final/1172_rv.mp4	0.0	941.1092791557312	
55	920.6539862155914	fix_post	2		12	53.0	2.5	/experiments/AOT/AOT_stimuli/rescaled_final/1172_rv.mp4	0.0	942.4257202148438	0.0999758243560791
56	920.7539620399475	fix_pre	0		120	54.0	2.5	/experiments/AOT/AOT_stimuli/rescaled_final/1459_rv.mp4	0.0	942.5256960391998	0.9999861717224121
56	920.9374721050262	pulse	0	t		54.0	2.5	/experiments/AOT/AOT_stimuli/rescaled_final/1459_rv.mp4	0.0	942.7092061042786	
56	921.7539482116699	movie	1		244	54.0	2.5	/experiments/AOT/AOT_stimuli/rescaled_final/1459_rv.mp4	0.0	943.5256822109222	2.4999167919158936
56	922.5375020503998	pulse	1	t		54.0	2.5	/experiments/AOT/AOT_stimuli/rescaled_final/1459_rv.mp4	0.0	944.3092360496521	
56	924.1362471580505	pulse	1	t		54.0	2.5	/experiments/AOT/AOT_stimuli/rescaled_final/1459_rv.mp4	0.0	945.9079811573029	
56	924.2538650035858	fix_post	2		12	54.0	2.5	/experiments/AOT/AOT_stimuli/rescaled_final/1459_rv.mp4	0.0	946.0255990028381	0.0999910831451416
57	924.353856086731	fix_pre	0		120	55.0	2.5	/experiments/AOT/AOT_stimuli/rescaled_final/1563_rv.mp4	0.0	946.1255900859833	1.0000340938568115
57	925.3538901805878	movie	1		244	55.0	2.5	/experiments/AOT/AOT_stimuli/rescaled_final/1563_rv.mp4	0.0	947.1256241798401	2.4999589920043945
57	925.737154006958	pulse	1	t		55.0	2.5	/experiments/AOT/AOT_stimuli/rescaled_final/1563_rv.mp4	0.0	947.5088880062103	
57	927.3374631404877	pulse	1	t		55.0	2.5	/experiments/AOT/AOT_stimuli/rescaled_final/1563_rv.mp4	0.0	949.10919713974	
57	927.8538491725922	fix_post	2		12	55.0	2.5	/experiments/AOT/AOT_stimuli/rescaled_final/1563_rv.mp4	0.0	949.6255831718445	0.1000819206237793
58	927.9539310932159	fix_pre	0		119	56.0	2.5	blank	1.0	949.7256650924683	0.9916179180145264
58	928.9374821186066	pulse	0	t		56.0	2.5	blank	1.0	950.7092161178589	
58	928.9455490112305	movie	1		301	56.0	2.5	blank	1.0	950.7172830104828	2.5083529949188232
58	930.5374631881714	pulse	1	t		56.0	2.5	blank	1.0	952.3091971874237	
58	931.4539020061493	fix_post	2		12	56.0	2.5	blank	1.0	953.2256360054016	0.10005021095275879
59	931.553952217102	fix_pre	0		120	57.0	2.5	/experiments/AOT/AOT_stimuli/rescaled_final/0274_fw.mp4	0.0	953.3256862163544	0.9999239444732666
59	932.137421131134	pulse	0	t		57.0	2.5	/experiments/AOT/AOT_stimuli/rescaled_final/0274_fw.mp4	0.0	953.9091551303864	
59	932.5538761615753	movie	1		243	57.0	2.5	/experiments/AOT/AOT_stimuli/rescaled_final/0274_fw.mp4	0.0	954.3256101608276	2.500067949295044
59	933.7374241352081	pulse	1	t		57.0	2.5	/experiments/AOT/AOT_stimuli/rescaled_final/0274_fw.mp4	0.0	955.5091581344604	
59	935.0539441108704	fix_post	2		12	57.0	2.5	/experiments/AOT/AOT_stimuli/rescaled_final/0274_fw.mp4	0.0	956.8256781101227	0.09953689575195312
60	935.1534810066223	fix_pre	0		120	58.0	2.5	/experiments/AOT/AOT_stimuli/rescaled_final/0444_rv.mp4	0.0	956.9252150058746	1.0003390312194824
60	935.3373951911926	pulse	0	t		58.0	2.5	/experiments/AOT/AOT_stimuli/rescaled_final/0444_rv.mp4	0.0	957.109129190445	
60	936.1538200378418	movie	1		245	58.0	2.5	/experiments/AOT/AOT_stimuli/rescaled_final/0444_rv.mp4	0.0	957.9255540370941	2.500030040740967
60	936.9374661445618	pulse	1	t		58.0	2.5	/experiments/AOT/AOT_stimuli/rescaled_final/0444_rv.mp4	0.0	958.7092001438141	
60	938.535872220993	pulse	1	t		58.0	2.5	/experiments/AOT/AOT_stimuli/rescaled_final/0444_rv.mp4	0.0	960.3076062202454	
60	938.6538500785828	fix_post	2		12	58.0	2.5	/experiments/AOT/AOT_stimuli/rescaled_final/0444_rv.mp4	0.0	960.4255840778351	0.10001993179321289
61	938.753870010376	fix_pre	0		120	59.0	2.5	/experiments/AOT/AOT_stimuli/rescaled_final/0738_fw.mp4	0.0	960.5256040096283	1.0000250339508057
61	939.7538950443268	movie	1		244	59.0	2.5	/experiments/AOT/AOT_stimuli/rescaled_final/0738_fw.mp4	0.0	961.5256290435791	2.499967098236084
61	940.1367080211639	pulse	1	t		59.0	2.5	/experiments/AOT/AOT_stimuli/rescaled_final/0738_fw.mp4	0.0	961.9084420204163	
61	941.7373189926147	pulse	1	t		59.0	2.5	/experiments/AOT/AOT_stimuli/rescaled_final/0738_fw.mp4	0.0	963.5090529918671	
61	942.2538621425629	fix_post	2		12	59.0	2.5	/experiments/AOT/AOT_stimuli/rescaled_final/0738_fw.mp4	0.0	964.0255961418152	0.09997987747192383
62	942.3538420200348	fix_pre	0		119	60.0	2.5	/experiments/AOT/AOT_stimuli/rescaled_final/0709_fw.mp4	0.0	964.1255760192871	0.991685152053833
62	943.3372120857239	pulse	0	t		60.0	2.5	/experiments/AOT/AOT_stimuli/rescaled_final/0709_fw.mp4	0.0	965.1089460849762	
62	943.3455271720886	movie	1		244	60.0	2.5	/experiments/AOT/AOT_stimuli/rescaled_final/0709_fw.mp4	0.0	965.1172611713409	2.5082900524139404
62	944.9368281364441	pulse	1	t		60.0	2.5	/experiments/AOT/AOT_stimuli/rescaled_final/0709_fw.mp4	0.0	966.7085621356964	
62	945.8538172245026	fix_post	2		12	60.0	2.5	/experiments/AOT/AOT_stimuli/rescaled_final/0709_fw.mp4	0.0	967.6255512237549	0.09956884384155273
63	945.9533860683441	fix_pre	0		120	61.0	2.5	blank	1.0	967.7251200675964	1.000417947769165
63	946.5372650623322	pulse	0	t		61.0	2.5	blank	1.0	968.3089990615845	
63	946.9538040161133	movie	1		300	61.0	2.5	blank	1.0	968.7255380153656	2.5
63	948.1373012065887	pulse	1	t		61.0	2.5	blank	1.0	969.9090352058411	
63	949.4538040161133	fix_post	2		12	61.0	2.5	blank	1.0	971.2255380153656	0.09999299049377441
64	949.553797006607	fix_pre	0		120	62.0	2.5	/experiments/AOT/AOT_stimuli/rescaled_final/1989_rv.mp4	0.0	971.3255310058594	1.0000090599060059
64	949.7372682094574	pulse	0	t		62.0	2.5	/experiments/AOT/AOT_stimuli/rescaled_final/1989_rv.mp4	0.0	971.5090022087097	
64	950.5538060665131	movie	1		243	62.0	2.5	/experiments/AOT/AOT_stimuli/rescaled_final/1989_rv.mp4	0.0	972.3255400657654	2.500030994415283
64	951.3372511863708	pulse	1	t		62.0	2.5	/experiments/AOT/AOT_stimuli/rescaled_final/1989_rv.mp4	0.0	973.1089851856232	
64	952.937527179718	pulse	1	t		62.0	2.5	/experiments/AOT/AOT_stimuli/rescaled_final/1989_rv.mp4	0.0	974.7092611789703	
64	953.0538370609283	fix_post	2		12	62.0	2.5	/experiments/AOT/AOT_stimuli/rescaled_final/1989_rv.mp4	0.0	974.8255710601807	0.0999441146850586
65	953.1537811756134	fix_pre	0		120	63.0	2.5	/experiments/AOT/AOT_stimuli/rescaled_final/0787_fw.mp4	0.0	974.9255151748657	1.000114917755127
65	954.1538960933685	movie	1		244	63.0	2.5	/experiments/AOT/AOT_stimuli/rescaled_final/0787_fw.mp4	0.0	975.9256300926208	2.4999001026153564
65	954.5366230010986	pulse	1	t		63.0	2.5	/experiments/AOT/AOT_stimuli/rescaled_final/0787_fw.mp4	0.0	976.308357000351	
65	956.1372380256653	pulse	1	t		63.0	2.5	/experiments/AOT/AOT_stimuli/rescaled_final/0787_fw.mp4	0.0	977.9089720249176	
65	956.6537961959839	fix_post	2		12	63.0	2.5	/experiments/AOT/AOT_stimuli/rescaled_final/0787_fw.mp4	0.0	978.4255301952362	0.1000359058380127
66	956.7538321018219	fix_pre	0		119	64.0	2.5	/experiments/AOT/AOT_stimuli/rescaled_final/1878_rv.mp4	0.0	978.5255661010742	0.9916119575500488
66	957.737291097641	pulse	0	t		64.0	2.5	/experiments/AOT/AOT_stimuli/rescaled_final/1878_rv.mp4	0.0	979.5090250968933	
66	957.745444059372	movie	1		247	64.0	2.5	/experiments/AOT/AOT_stimuli/rescaled_final/1878_rv.mp4	0.0	979.5171780586243	2.507956027984619
66	959.3375160694122	pulse	1	t		64.0	2.5	/experiments/AOT/AOT_stimuli/rescaled_final/1878_rv.mp4	0.0	981.1092500686646	
66	960.2534000873566	fix_post	2		12	64.0	2.5	/experiments/AOT/AOT_stimuli/rescaled_final/1878_rv.mp4	0.0	982.0251340866089	0.09997010231018066
67	960.3533701896667	fix_pre	0		120	65.0	2.5	/experiments/AOT/AOT_stimuli/rescaled_final/1517_fw.mp4	0.0	982.1251041889191	1.0001299381256104
67	960.9373600482941	pulse	0	t		65.0	2.5	/experiments/AOT/AOT_stimuli/rescaled_final/1517_fw.mp4	0.0	982.7090940475464	
67	961.3535001277924	movie	1		246	65.0	2.5	/experiments/AOT/AOT_stimuli/rescaled_final/1517_fw.mp4	0.0	983.1252341270447	2.499837875366211
67	962.5371751785278	pulse	1	t		65.0	2.5	/experiments/AOT/AOT_stimuli/rescaled_final/1517_fw.mp4	0.0	984.3089091777802	
67	963.8533380031586	fix_post	2		12	65.0	2.5	/experiments/AOT/AOT_stimuli/rescaled_final/1517_fw.mp4	0.0	985.6250720024109	0.10043501853942871
68	963.953773021698	fix_pre	0		120	66.0	2.5	/experiments/AOT/AOT_stimuli/rescaled_final/0344_fw.mp4	0.0	985.7255070209503	1.0000360012054443
68	964.1372580528259	pulse	0	t		66.0	2.5	/experiments/AOT/AOT_stimuli/rescaled_final/0344_fw.mp4	0.0	985.9089920520782	
68	964.9538090229034	movie	1		245	66.0	2.5	/experiments/AOT/AOT_stimuli/rescaled_final/0344_fw.mp4	0.0	986.7255430221558	2.4999380111694336
68	965.7371661663055	pulse	1	t		66.0	2.5	/experiments/AOT/AOT_stimuli/rescaled_final/0344_fw.mp4	0.0	987.5089001655579	
68	967.3359751701355	pulse	1	t		66.0	2.5	/experiments/AOT/AOT_stimuli/rescaled_final/0344_fw.mp4	0.0	989.1077091693878	
68	967.4537470340729	fix_post	2		12	66.0	2.5	/experiments/AOT/AOT_stimuli/rescaled_final/0344_fw.mp4	0.0	989.2254810333252	0.09997105598449707
69	967.5537180900574	fix_pre	0		120	67.0	2.5	/experiments/AOT/AOT_stimuli/rescaled_final/0797_fw.mp4	0.0	989.3254520893097	0.9999890327453613
69	968.5537071228027	movie	1		244	67.0	2.5	/experiments/AOT/AOT_stimuli/rescaled_final/0797_fw.mp4	0.0	990.325441122055	2.4999420642852783
69	968.93687915802	pulse	1	t		67.0	2.5	/experiments/AOT/AOT_stimuli/rescaled_final/0797_fw.mp4	0.0	990.7086131572723	
69	970.5372200012207	pulse	1	t		67.0	2.5	/experiments/AOT/AOT_stimuli/rescaled_final/0797_fw.mp4	0.0	992.308954000473	
69	971.053649187088	fix_post	2		12	67.0	2.5	/experiments/AOT/AOT_stimuli/rescaled_final/0797_fw.mp4	0.0	992.8253831863403	0.10001897811889648
70	971.1536681652069	fix_pre	0		119	68.0	2.5	blank	1.0	992.9254021644592	0.9917688369750977
70	972.1372401714325	pulse	0	t		68.0	2.5	blank	1.0	993.9089741706848	
70	972.145437002182	movie	1		301	68.0	2.5	blank	1.0	993.9171710014343	2.508272171020508
70	973.7372300624847	pulse	1	t		68.0	2.5	blank	1.0	995.5089640617371	
70	974.6537091732025	fix_post	2		12	68.0	2.5	blank	1.0	996.4254431724548	0.09996795654296875
71	974.7536771297455	fix_pre	0		120	69.0	2.5	/experiments/AOT/AOT_stimuli/rescaled_final/0448_rv.mp4	0.0	996.5254111289978	1.0000669956207275
71	975.3371591567993	pulse	0	t		69.0	2.5	/experiments/AOT/AOT_stimuli/rescaled_final/0448_rv.mp4	0.0	997.1088931560516	
71	975.7537441253662	movie	1		242	69.0	2.5	/experiments/AOT/AOT_stimuli/rescaled_final/0448_rv.mp4	0.0	997.5254781246185	2.4999048709869385
71	976.9371871948242	pulse	1	t		69.0	2.5	/experiments/AOT/AOT_stimuli/rescaled_final/0448_rv.mp4	0.0	998.7089211940765	
71	978.2536489963531	fix_post	2		12	69.0	2.5	/experiments/AOT/AOT_stimuli/rescaled_final/0448_rv.mp4	0.0	1000.0253829956055	0.10003018379211426
72	978.3536791801453	fix_pre	0		120	70.0	2.5	/experiments/AOT/AOT_stimuli/rescaled_final/0200_fw.mp4	0.0	1000.1254131793976	1.0000758171081543
72	978.5371990203857	pulse	0	t		70.0	2.5	/experiments/AOT/AOT_stimuli/rescaled_final/0200_fw.mp4	0.0	1000.3089330196381	
72	979.3537549972534	movie	1		249	70.0	2.5	/experiments/AOT/AOT_stimuli/rescaled_final/0200_fw.mp4	0.0	1001.1254889965057	2.499974012374878
72	980.1372020244598	pulse	1	t		70.0	2.5	/experiments/AOT/AOT_stimuli/rescaled_final/0200_fw.mp4	0.0	1001.9089360237122	
72	981.7371861934662	pulse	1	t		70.0	2.5	/experiments/AOT/AOT_stimuli/rescaled_final/0200_fw.mp4	0.0	1003.5089201927185	
72	981.8537290096283	fix_post	2		12	70.0	2.5	/experiments/AOT/AOT_stimuli/rescaled_final/0200_fw.mp4	0.0	1003.6254630088806	0.09991312026977539
73	981.9536421298981	fix_pre	0		120	71.0	2.5	/experiments/AOT/AOT_stimuli/rescaled_final/2060_rv.mp4	0.0	1003.7253761291504	0.9996170997619629
73	982.95325922966	movie	1		243	71.0	2.5	/experiments/AOT/AOT_stimuli/rescaled_final/2060_rv.mp4	0.0	1004.7249932289124	2.500325918197632
73	983.3369331359863	pulse	1	t		71.0	2.5	/experiments/AOT/AOT_stimuli/rescaled_final/2060_rv.mp4	0.0	1005.1086671352386	
73	984.9371201992035	pulse	1	t		71.0	2.5	/experiments/AOT/AOT_stimuli/rescaled_final/2060_rv.mp4	0.0	1006.7088541984558	
73	985.4535851478577	fix_post	2		12	71.0	2.5	/experiments/AOT/AOT_stimuli/rescaled_final/2060_rv.mp4	0.0	1007.22531914711	0.10003185272216797
74	985.5536170005798	fix_pre	0		119	72.0	2.5	/experiments/AOT/AOT_stimuli/rescaled_final/0448_rv.mp4	0.0	1007.3253509998322	0.9916701316833496
74	986.5371990203857	pulse	0	t		72.0	2.5	/experiments/AOT/AOT_stimuli/rescaled_final/0448_rv.mp4	0.0	1008.3089330196381	
74	986.5452871322632	movie	1		244	72.0	2.5	/experiments/AOT/AOT_stimuli/rescaled_final/0448_rv.mp4	0.0	1008.3170211315155	2.508291006088257
74	988.1368091106415	pulse	1	t		72.0	2.5	/experiments/AOT/AOT_stimuli/rescaled_final/0448_rv.mp4	0.0	1009.9085431098938	
74	989.0535781383514	fix_post	2		12	72.0	2.5	/experiments/AOT/AOT_stimuli/rescaled_final/0448_rv.mp4	0.0	1010.8253121376038	0.10003399848937988
75	989.1536121368408	fix_pre	0		120	73.0	2.5	/experiments/AOT/AOT_stimuli/rescaled_final/0848_rv.mp4	0.0	1010.9253461360931	0.999953031539917
75	989.7371430397034	pulse	0	t		73.0	2.5	/experiments/AOT/AOT_stimuli/rescaled_final/0848_rv.mp4	0.0	1011.5088770389557	
75	990.1535651683807	movie	1		244	73.0	2.5	/experiments/AOT/AOT_stimuli/rescaled_final/0848_rv.mp4	0.0	1011.925299167633	2.5000669956207275
75	991.3372321128845	pulse	1	t		73.0	2.5	/experiments/AOT/AOT_stimuli/rescaled_final/0848_rv.mp4	0.0	1013.1089661121368	
75	992.6536321640015	fix_post	2		12	73.0	2.5	/experiments/AOT/AOT_stimuli/rescaled_final/0848_rv.mp4	0.0	1014.4253661632538	0.10004591941833496
76	992.7536780834198	fix_pre	0		120	74.0	2.5	/experiments/AOT/AOT_stimuli/rescaled_final/0421_fw.mp4	0.0	1014.5254120826721	1.0000319480895996
76	992.9371521472931	pulse	0	t		74.0	2.5	/experiments/AOT/AOT_stimuli/rescaled_final/0421_fw.mp4	0.0	1014.7088861465454	
76	993.7537100315094	movie	1		242	74.0	2.5	/experiments/AOT/AOT_stimuli/rescaled_final/0421_fw.mp4	0.0	1015.5254440307617	2.499886989593506
76	994.5371050834656	pulse	1	t		74.0	2.5	/experiments/AOT/AOT_stimuli/rescaled_final/0421_fw.mp4	0.0	1016.3088390827179	
76	996.1355290412903	pulse	1	t		74.0	2.5	/experiments/AOT/AOT_stimuli/rescaled_final/0421_fw.mp4	0.0	1017.9072630405426	
76	996.2535970211029	fix_post	2		12	74.0	2.5	/experiments/AOT/AOT_stimuli/rescaled_final/0421_fw.mp4	0.0	1018.0253310203552	0.10006999969482422
77	996.3536670207977	fix_pre	0		120	75.0	2.5	/experiments/AOT/AOT_stimuli/rescaled_final/0708_rv.mp4	0.0	1018.12540102005	1.0000030994415283
77	997.3536701202393	movie	1		243	75.0	2.5	/experiments/AOT/AOT_stimuli/rescaled_final/0708_rv.mp4	0.0	1019.1254041194916	2.499953031539917
77	997.7382531166077	pulse	1	t		75.0	2.5	/experiments/AOT/AOT_stimuli/rescaled_final/0708_rv.mp4	0.0	1019.50998711586	
77	999.3370730876923	pulse	1	t		75.0	2.5	/experiments/AOT/AOT_stimuli/rescaled_final/0708_rv.mp4	0.0	1021.1088070869446	
77	999.8536231517792	fix_post	2		12	75.0	2.5	/experiments/AOT/AOT_stimuli/rescaled_final/0708_rv.mp4	0.0	1021.6253571510315	0.10001397132873535
78	999.9536371231079	fix_pre	0		119	76.0	2.5	/experiments/AOT/AOT_stimuli/rescaled_final/1943_fw.mp4	0.0	1021.7253711223602	0.9915828704833984
78	1000.9370620250702	pulse	0	t		76.0	2.5	/experiments/AOT/AOT_stimuli/rescaled_final/1943_fw.mp4	0.0	1022.7087960243225	
78	1000.9452199935913	movie	1		243	76.0	2.5	/experiments/AOT/AOT_stimuli/rescaled_final/1943_fw.mp4	0.0	1022.7169539928436	2.5083370208740234
78	1002.5367732048035	pulse	1	t		76.0	2.5	/experiments/AOT/AOT_stimuli/rescaled_final/1943_fw.mp4	0.0	1024.3085072040558	
78	1003.4535570144653	fix_post	2		12	76.0	2.5	/experiments/AOT/AOT_stimuli/rescaled_final/1943_fw.mp4	0.0	1025.2252910137177	0.09995913505554199
79	1003.5535161495209	fix_pre	0		120	77.0	2.5	blank	1.0	1025.3252501487732	1.0001459121704102
79	1004.1370000839233	pulse	0	t		77.0	2.5	blank	1.0	1025.9087340831757	
79	1004.5536620616913	movie	1		300	77.0	2.5	blank	1.0	1026.3253960609436	2.499875068664551
79	1005.7370750904083	pulse	1	t		77.0	2.5	blank	1.0	1027.5088090896606	
79	1007.0535371303558	fix_post	2		12	77.0	2.5	blank	1.0	1028.8252711296082	0.10002899169921875
80	1007.153566122055	fix_pre	0		120	78.0	2.5	/experiments/AOT/AOT_stimuli/rescaled_final/0540_rv.mp4	0.0	1028.9253001213074	1.0000030994415283
80	1007.3371291160583	pulse	0	t		78.0	2.5	/experiments/AOT/AOT_stimuli/rescaled_final/0540_rv.mp4	0.0	1029.1088631153107	
80	1008.1535692214966	movie	1		245	78.0	2.5	/experiments/AOT/AOT_stimuli/rescaled_final/0540_rv.mp4	0.0	1029.925303220749	2.5000360012054443
80	1008.9370582103729	pulse	1	t		78.0	2.5	/experiments/AOT/AOT_stimuli/rescaled_final/0540_rv.mp4	0.0	1030.7087922096252	
80	1010.536591053009	pulse	1	t		78.0	2.5	/experiments/AOT/AOT_stimuli/rescaled_final/0540_rv.mp4	0.0	1032.3083250522614	
80	1010.653605222702	fix_post	2		12	78.0	2.5	/experiments/AOT/AOT_stimuli/rescaled_final/0540_rv.mp4	0.0	1032.4253392219543	0.09993100166320801
81	1010.7535362243652	fix_pre	0		120	79.0	2.5	/experiments/AOT/AOT_stimuli/rescaled_final/1588_fw.mp4	0.0	1032.5252702236176	1.000072956085205
81	1011.7536091804504	movie	1		245	79.0	2.5	/experiments/AOT/AOT_stimuli/rescaled_final/1588_fw.mp4	0.0	1033.5253431797028	2.499915838241577
81	1012.1367862224579	pulse	1	t		79.0	2.5	/experiments/AOT/AOT_stimuli/rescaled_final/1588_fw.mp4	0.0	1033.9085202217102	
81	1013.7369210720062	pulse	1	t		79.0	2.5	/experiments/AOT/AOT_stimuli/rescaled_final/1588_fw.mp4	0.0	1035.5086550712585	
81	1014.253525018692	fix_post	2		12	79.0	2.5	/experiments/AOT/AOT_stimuli/rescaled_final/1588_fw.mp4	0.0	1036.0252590179443	0.10013413429260254
82	1014.3536591529846	fix_pre	0		119	80.0	2.5	/experiments/AOT/AOT_stimuli/rescaled_final/1181_rv.mp4	0.0	1036.125393152237	0.9911038875579834
82	1015.3365631103516	pulse	0	t		80.0	2.5	/experiments/AOT/AOT_stimuli/rescaled_final/1181_rv.mp4	0.0	1037.1082971096039	
82	1015.3447630405426	movie	1		243	80.0	2.5	/experiments/AOT/AOT_stimuli/rescaled_final/1181_rv.mp4	0.0	1037.116497039795	2.5085201263427734
82	1016.9379332065582	pulse	1	t		80.0	2.5	/experiments/AOT/AOT_stimuli/rescaled_final/1181_rv.mp4	0.0	1038.7096672058105	
82	1017.8532831668854	fix_post	2		12	80.0	2.5	/experiments/AOT/AOT_stimuli/rescaled_final/1181_rv.mp4	0.0	1039.6250171661377	0.1000509262084961
83	1017.9533340930939	fix_pre	0		120	81.0	2.5	/experiments/AOT/AOT_stimuli/rescaled_final/1698_rv.mp4	0.0	1039.7250680923462	1.0001909732818604
83	1018.5369410514832	pulse	0	t		81.0	2.5	/experiments/AOT/AOT_stimuli/rescaled_final/1698_rv.mp4	0.0	1040.3086750507355	
83	1018.9535250663757	movie	1		243	81.0	2.5	/experiments/AOT/AOT_stimuli/rescaled_final/1698_rv.mp4	0.0	1040.725259065628	2.5000360012054443
83	1020.1370182037354	pulse	1	t		81.0	2.5	/experiments/AOT/AOT_stimuli/rescaled_final/1698_rv.mp4	0.0	1041.9087522029877	
83	1021.4535610675812	fix_post	2		12	81.0	2.5	/experiments/AOT/AOT_stimuli/rescaled_final/1698_rv.mp4	0.0	1043.2252950668335	0.09999704360961914
84	1021.5535581111908	fix_pre	0		120	82.0	2.5	/experiments/AOT/AOT_stimuli/rescaled_final/0597_fw.mp4	0.0	1043.3252921104431	0.9999680519104004
84	1021.7370190620422	pulse	0	t		82.0	2.5	/experiments/AOT/AOT_stimuli/rescaled_final/0597_fw.mp4	0.0	1043.5087530612946	
84	1022.5535261631012	movie	1		244	82.0	2.5	/experiments/AOT/AOT_stimuli/rescaled_final/0597_fw.mp4	0.0	1044.3252601623535	2.500009059906006
84	1023.3368110656738	pulse	1	t		82.0	2.5	/experiments/AOT/AOT_stimuli/rescaled_final/0597_fw.mp4	0.0	1045.1085450649261	
84	1024.9354531764984	pulse	1	t		82.0	2.5	/experiments/AOT/AOT_stimuli/rescaled_final/0597_fw.mp4	0.0	1046.7071871757507	
84	1025.0535352230072	fix_post	2		12	82.0	2.5	/experiments/AOT/AOT_stimuli/rescaled_final/0597_fw.mp4	0.0	1046.8252692222595	0.09991884231567383
85	1025.1534540653229	fix_pre	0		120	83.0	2.5	blank	1.0	1046.9251880645752	0.9999611377716064
85	1026.1534152030945	movie	1		300	83.0	2.5	blank	1.0	1047.9251492023468	2.5000100135803223
85	1026.5370140075684	pulse	1	t		83.0	2.5	blank	1.0	1048.3087480068207	
85	1028.1369261741638	pulse	1	t		83.0	2.5	blank	1.0	1049.9086601734161	
85	1028.6534252166748	fix_post	2		12	83.0	2.5	blank	1.0	1050.4251592159271	0.10001778602600098
87	1028.7534430027008	stim	0		1716					1050.5251770019531	14.300034999847412
87	1029.7369270324707	pulse	0	t						1051.508661031723	
87	1031.3368492126465	pulse	0	t						1053.1085832118988	
87	1032.9368669986725	pulse	0	t						1054.7086009979248	
87	1034.5368831157684	pulse	0	t						1056.3086171150208	
87	1036.136880159378	pulse	0	t						1057.9086141586304	
87	1037.7369391918182	pulse	0	t						1059.5086731910706	
87	1039.3368871212006	pulse	0	t						1061.1086211204529	
87	1040.9368810653687	pulse	0	t						1062.708615064621	
87	1042.5368452072144	pulse	0	t						1064.3085792064667	
