trial_nr	onset	event_type	phase	response	nr_frames	movie_index	movie_duration	movie_file	blank	onset_abs	duration
0	0.15809202194213867	stim	0		63					19.637824296951294	0.5250000953674316
0	0.6750216484069824	response	0	space						20.154753923416138	
1	0.6830921173095703	stim	0		4711					20.162824392318726	39.27261567115784
1	39.94638705253601	pulse	0	t						59.426119327545166	
1	39.95570778846741	stim	1		1715					59.43544006347656	14.302161455154419
1	41.53986310958862	pulse	1	t						61.01959538459778	
1	43.13987445831299	pulse	1	t						62.619606733322144	
1	44.74022674560547	pulse	1	t						64.21995902061462	
1	46.34015655517578	pulse	1	t						65.81988883018494	
1	47.94037890434265	pulse	1	t						67.4201111793518	
1	49.54066300392151	pulse	1	t						69.02039527893066	
1	51.14091205596924	pulse	1	t						70.6206443309784	
1	52.74116897583008	pulse	1	t						72.22090125083923	
2	54.257869243621826	fix_pre	0		11	0.0	2.5	/experiments/knapen_AOT/AOT_stimuli/rescaled_final/2137_rv.mp4	0.0	73.73760151863098	0.10835051536560059
2	54.34136176109314	pulse	0	t		0.0	2.5	/experiments/knapen_AOT/AOT_stimuli/rescaled_final/2137_rv.mp4	0.0	73.8210940361023	
2	54.36621975898743	movie	1		269	0.0	2.5	/experiments/knapen_AOT/AOT_stimuli/rescaled_final/2137_rv.mp4	0.0	73.84595203399658	2.4920709133148193
2	55.9398775100708	pulse	1	t		0.0	2.5	/experiments/knapen_AOT/AOT_stimuli/rescaled_final/2137_rv.mp4	0.0	75.41960978507996	
2	56.858290672302246	fix_post	2		12	0.0	2.5	/experiments/knapen_AOT/AOT_stimuli/rescaled_final/2137_rv.mp4	0.0	76.3380229473114	0.10011625289916992
3	56.958406925201416	fix_pre	0		120	1.0	2.5	/experiments/knapen_AOT/AOT_stimuli/rescaled_final/1352_rv.mp4	0.0	76.43813920021057	1.0083632469177246
3	57.542210817337036	pulse	0	t		1.0	2.5	/experiments/knapen_AOT/AOT_stimuli/rescaled_final/1352_rv.mp4	0.0	77.02194309234619	
3	57.96677017211914	movie	1		268	1.0	2.5	/experiments/knapen_AOT/AOT_stimuli/rescaled_final/1352_rv.mp4	0.0	77.4465024471283	2.4920103549957275
3	59.1424880027771	pulse	1	t		1.0	2.5	/experiments/knapen_AOT/AOT_stimuli/rescaled_final/1352_rv.mp4	0.0	78.62222027778625	
3	60.45878052711487	fix_post	2		12	1.0	2.5	/experiments/knapen_AOT/AOT_stimuli/rescaled_final/1352_rv.mp4	0.0	79.93851280212402	0.09999608993530273
4	60.55877661705017	fix_pre	0		120	2.0	2.5	/experiments/knapen_AOT/AOT_stimuli/rescaled_final/1260_fw.mp4	0.0	80.03850889205933	1.0086555480957031
4	60.734570264816284	pulse	0	t		2.0	2.5	/experiments/knapen_AOT/AOT_stimuli/rescaled_final/1260_fw.mp4	0.0	80.21430253982544	
4	61.567432165145874	movie	1		279	2.0	2.5	/experiments/knapen_AOT/AOT_stimuli/rescaled_final/1260_fw.mp4	0.0	81.04716444015503	2.4918689727783203
4	62.33452248573303	pulse	1	t		2.0	2.5	/experiments/knapen_AOT/AOT_stimuli/rescaled_final/1260_fw.mp4	0.0	81.81425476074219	
4	63.9412055015564	pulse	1	t		2.0	2.5	/experiments/knapen_AOT/AOT_stimuli/rescaled_final/1260_fw.mp4	0.0	83.42093777656555	
4	64.0593011379242	fix_post	2		12	2.0	2.5	/experiments/knapen_AOT/AOT_stimuli/rescaled_final/1260_fw.mp4	0.0	83.53903341293335	0.10002374649047852
5	64.15932488441467	fix_pre	0		120	3.0	2.5	/experiments/knapen_AOT/AOT_stimuli/rescaled_final/2031_fw.mp4	0.0	83.63905715942383	1.008493185043335
5	65.16781806945801	movie	1		268	3.0	2.5	/experiments/knapen_AOT/AOT_stimuli/rescaled_final/2031_fw.mp4	0.0	84.64755034446716	2.4920456409454346
5	65.5345869064331	pulse	1	t		3.0	2.5	/experiments/knapen_AOT/AOT_stimuli/rescaled_final/2031_fw.mp4	0.0	85.01431918144226	
5	67.13498973846436	pulse	1	t		3.0	2.5	/experiments/knapen_AOT/AOT_stimuli/rescaled_final/2031_fw.mp4	0.0	86.61472201347351	
5	67.65986371040344	fix_post	2		12	3.0	2.5	/experiments/knapen_AOT/AOT_stimuli/rescaled_final/2031_fw.mp4	0.0	87.1395959854126	0.1000361442565918
6	67.75989985466003	fix_pre	0		118	4.0	2.5	/experiments/knapen_AOT/AOT_stimuli/rescaled_final/0317_rv.mp4	0.0	87.23963212966919	0.9919130802154541
6	68.73527932167053	pulse	0	t		4.0	2.5	/experiments/knapen_AOT/AOT_stimuli/rescaled_final/0317_rv.mp4	0.0	88.21501159667969	
6	68.75181293487549	movie	1		268	4.0	2.5	/experiments/knapen_AOT/AOT_stimuli/rescaled_final/0317_rv.mp4	0.0	88.23154520988464	2.500241994857788
6	70.33544993400574	pulse	1	t		4.0	2.5	/experiments/knapen_AOT/AOT_stimuli/rescaled_final/0317_rv.mp4	0.0	89.81518220901489	
6	71.25205492973328	fix_post	2		12	4.0	2.5	/experiments/knapen_AOT/AOT_stimuli/rescaled_final/0317_rv.mp4	0.0	90.73178720474243	0.1000056266784668
7	71.35206055641174	fix_pre	0		120	5.0	2.5	blank	1.0	90.8317928314209	1.0001473426818848
7	71.93571996688843	pulse	0	t		5.0	2.5	blank	1.0	91.41545224189758	
7	72.35220789909363	movie	1		300	5.0	2.5	blank	1.0	91.83194017410278	2.5003926753997803
7	73.5359218120575	pulse	1	t		5.0	2.5	blank	1.0	93.01565408706665	
7	74.85260057449341	fix_post	2		12	5.0	2.5	blank	1.0	94.33233284950256	0.10004925727844238
8	74.95264983177185	fix_pre	0		120	6.0	2.5	/experiments/knapen_AOT/AOT_stimuli/rescaled_final/0367_fw.mp4	0.0	94.432382106781	1.0084521770477295
8	75.1361677646637	pulse	0	t		6.0	2.5	/experiments/knapen_AOT/AOT_stimuli/rescaled_final/0367_fw.mp4	0.0	94.61590003967285	
8	75.96110200881958	movie	1		266	6.0	2.5	/experiments/knapen_AOT/AOT_stimuli/rescaled_final/0367_fw.mp4	0.0	95.44083428382874	2.4920332431793213
8	76.73646283149719	pulse	1	t		6.0	2.5	/experiments/knapen_AOT/AOT_stimuli/rescaled_final/0367_fw.mp4	0.0	96.21619510650635	
8	78.33468103408813	pulse	1	t		6.0	2.5	/experiments/knapen_AOT/AOT_stimuli/rescaled_final/0367_fw.mp4	0.0	97.81441330909729	
8	78.4531352519989	fix_post	2		12	6.0	2.5	/experiments/knapen_AOT/AOT_stimuli/rescaled_final/0367_fw.mp4	0.0	97.93286752700806	0.1000211238861084
9	78.55315637588501	fix_pre	0		120	7.0	2.5	/experiments/knapen_AOT/AOT_stimuli/rescaled_final/0638_rv.mp4	0.0	98.03288865089417	1.0085031986236572
9	79.56165957450867	movie	1		280	7.0	2.5	/experiments/knapen_AOT/AOT_stimuli/rescaled_final/0638_rv.mp4	0.0	99.04139184951782	2.492027521133423
9	79.93541264533997	pulse	1	t		7.0	2.5	/experiments/knapen_AOT/AOT_stimuli/rescaled_final/0638_rv.mp4	0.0	99.41514492034912	
9	81.53528475761414	pulse	1	t		7.0	2.5	/experiments/knapen_AOT/AOT_stimuli/rescaled_final/0638_rv.mp4	0.0	101.01501703262329	
9	82.05368709564209	fix_post	2		12	7.0	2.5	/experiments/knapen_AOT/AOT_stimuli/rescaled_final/0638_rv.mp4	0.0	101.53341937065125	0.10002446174621582
10	82.1537115573883	fix_pre	0		119	8.0	2.5	/experiments/knapen_AOT/AOT_stimuli/rescaled_final/0507_rv.mp4	0.0	101.63344383239746	1.0086040496826172
10	83.13736987113953	pulse	0	t		8.0	2.5	/experiments/knapen_AOT/AOT_stimuli/rescaled_final/0507_rv.mp4	0.0	102.61710214614868	
10	83.16231560707092	movie	1		268	8.0	2.5	/experiments/knapen_AOT/AOT_stimuli/rescaled_final/0507_rv.mp4	0.0	102.64204788208008	2.4918899536132812
10	84.73611116409302	pulse	1	t		8.0	2.5	/experiments/knapen_AOT/AOT_stimuli/rescaled_final/0507_rv.mp4	0.0	104.21584343910217	
10	85.6542055606842	fix_post	2		12	8.0	2.5	/experiments/knapen_AOT/AOT_stimuli/rescaled_final/0507_rv.mp4	0.0	105.13393783569336	0.10015583038330078
11	85.7543613910675	fix_pre	0		120	9.0	2.5	/experiments/knapen_AOT/AOT_stimuli/rescaled_final/0001_fw.mp4	0.0	105.23409366607666	1.008469581604004
11	86.33787274360657	pulse	0	t		9.0	2.5	/experiments/knapen_AOT/AOT_stimuli/rescaled_final/0001_fw.mp4	0.0	105.81760501861572	
11	86.76283097267151	movie	1		267	9.0	2.5	/experiments/knapen_AOT/AOT_stimuli/rescaled_final/0001_fw.mp4	0.0	106.24256324768066	2.491926908493042
11	87.93835806846619	pulse	1	t		9.0	2.5	/experiments/knapen_AOT/AOT_stimuli/rescaled_final/0001_fw.mp4	0.0	107.41809034347534	
11	89.25475788116455	fix_post	2		12	9.0	2.5	/experiments/knapen_AOT/AOT_stimuli/rescaled_final/0001_fw.mp4	0.0	108.7344901561737	0.10001659393310547
12	89.35477447509766	fix_pre	0		120	10.0	2.5	/experiments/knapen_AOT/AOT_stimuli/rescaled_final/0350_fw.mp4	0.0	108.83450675010681	1.0084879398345947
12	89.5383403301239	pulse	0	t		10.0	2.5	/experiments/knapen_AOT/AOT_stimuli/rescaled_final/0350_fw.mp4	0.0	109.01807260513306	
12	90.36326241493225	movie	1		271	10.0	2.5	/experiments/knapen_AOT/AOT_stimuli/rescaled_final/0350_fw.mp4	0.0	109.8429946899414	2.492034673690796
12	91.1377763748169	pulse	1	t		10.0	2.5	/experiments/knapen_AOT/AOT_stimuli/rescaled_final/0350_fw.mp4	0.0	110.61750864982605	
12	92.73722219467163	pulse	1	t		10.0	2.5	/experiments/knapen_AOT/AOT_stimuli/rescaled_final/0350_fw.mp4	0.0	112.21695446968079	
12	92.85529708862305	fix_post	2		12	10.0	2.5	/experiments/knapen_AOT/AOT_stimuli/rescaled_final/0350_fw.mp4	0.0	112.3350293636322	0.10003948211669922
13	92.95533657073975	fix_pre	0		120	11.0	2.5	/experiments/knapen_AOT/AOT_stimuli/rescaled_final/1676_fw.mp4	0.0	112.4350688457489	1.0084829330444336
13	93.96381950378418	movie	1		275	11.0	2.5	/experiments/knapen_AOT/AOT_stimuli/rescaled_final/1676_fw.mp4	0.0	113.44355177879333	2.5003771781921387
13	94.33750772476196	pulse	1	t		11.0	2.5	/experiments/knapen_AOT/AOT_stimuli/rescaled_final/1676_fw.mp4	0.0	113.81723999977112	
13	95.93741416931152	pulse	1	t		11.0	2.5	/experiments/knapen_AOT/AOT_stimuli/rescaled_final/1676_fw.mp4	0.0	115.41714644432068	
13	96.46419668197632	fix_post	2		11	11.0	2.5	/experiments/knapen_AOT/AOT_stimuli/rescaled_final/1676_fw.mp4	0.0	115.94392895698547	0.09166502952575684
14	96.55586171150208	fix_pre	0		119	12.0	2.5	/experiments/knapen_AOT/AOT_stimuli/rescaled_final/0072_fw.mp4	0.0	116.03559398651123	1.0001592636108398
14	97.53956055641174	pulse	0	t		12.0	2.5	/experiments/knapen_AOT/AOT_stimuli/rescaled_final/0072_fw.mp4	0.0	117.0192928314209	
14	97.55602097511292	movie	1		270	12.0	2.5	/experiments/knapen_AOT/AOT_stimuli/rescaled_final/0072_fw.mp4	0.0	117.03575325012207	2.5003700256347656
14	99.13777732849121	pulse	1	t		12.0	2.5	/experiments/knapen_AOT/AOT_stimuli/rescaled_final/0072_fw.mp4	0.0	118.61750960350037	
14	100.05639100074768	fix_post	2		12	12.0	2.5	/experiments/knapen_AOT/AOT_stimuli/rescaled_final/0072_fw.mp4	0.0	119.53612327575684	0.10000967979431152
15	100.15640068054199	fix_pre	0		120	13.0	2.5	blank	1.0	119.63613295555115	1.0001764297485352
15	100.74010396003723	pulse	0	t		13.0	2.5	blank	1.0	120.21983623504639	
15	101.15657711029053	movie	1		300	13.0	2.5	blank	1.0	120.63630938529968	2.5003483295440674
15	102.34025311470032	pulse	1	t		13.0	2.5	blank	1.0	121.81998538970947	
15	103.6569254398346	fix_post	2		12	13.0	2.5	blank	1.0	123.13665771484375	0.1000673770904541
16	103.75699281692505	fix_pre	0		120	14.0	2.5	/experiments/knapen_AOT/AOT_stimuli/rescaled_final/0783_fw.mp4	0.0	123.2367250919342	1.0084547996520996
16	103.94046139717102	pulse	0	t		14.0	2.5	/experiments/knapen_AOT/AOT_stimuli/rescaled_final/0783_fw.mp4	0.0	123.42019367218018	
16	104.76544761657715	movie	1		261	14.0	2.5	/experiments/knapen_AOT/AOT_stimuli/rescaled_final/0783_fw.mp4	0.0	124.2451798915863	2.492021322250366
16	105.54002928733826	pulse	1	t		14.0	2.5	/experiments/knapen_AOT/AOT_stimuli/rescaled_final/0783_fw.mp4	0.0	125.01976156234741	
16	107.13884925842285	pulse	1	t		14.0	2.5	/experiments/knapen_AOT/AOT_stimuli/rescaled_final/0783_fw.mp4	0.0	126.618581533432	
16	107.25746893882751	fix_post	2		12	14.0	2.5	/experiments/knapen_AOT/AOT_stimuli/rescaled_final/0783_fw.mp4	0.0	126.73720121383667	0.10023212432861328
17	107.35770106315613	fix_pre	0		120	15.0	2.5	/experiments/knapen_AOT/AOT_stimuli/rescaled_final/1087_fw.mp4	0.0	126.83743333816528	1.008270263671875
17	108.365971326828	movie	1		269	15.0	2.5	/experiments/knapen_AOT/AOT_stimuli/rescaled_final/1087_fw.mp4	0.0	127.84570360183716	2.4921085834503174
17	108.73956823348999	pulse	1	t		15.0	2.5	/experiments/knapen_AOT/AOT_stimuli/rescaled_final/1087_fw.mp4	0.0	128.21930050849915	
17	110.34170794487	pulse	1	t		15.0	2.5	/experiments/knapen_AOT/AOT_stimuli/rescaled_final/1087_fw.mp4	0.0	129.82144021987915	
17	110.85807991027832	fix_post	2		12	15.0	2.5	/experiments/knapen_AOT/AOT_stimuli/rescaled_final/1087_fw.mp4	0.0	130.33781218528748	0.10002326965332031
18	110.95810317993164	fix_pre	0		119	16.0	2.5	/experiments/knapen_AOT/AOT_stimuli/rescaled_final/1685_fw.mp4	0.0	130.4378354549408	1.0001628398895264
18	111.94182324409485	pulse	0	t		16.0	2.5	/experiments/knapen_AOT/AOT_stimuli/rescaled_final/1685_fw.mp4	0.0	131.421555519104	
18	111.95826601982117	movie	1		267	16.0	2.5	/experiments/knapen_AOT/AOT_stimuli/rescaled_final/1685_fw.mp4	0.0	131.43799829483032	2.5003058910369873
18	113.54044222831726	pulse	1	t		16.0	2.5	/experiments/knapen_AOT/AOT_stimuli/rescaled_final/1685_fw.mp4	0.0	133.02017450332642	
18	114.45857191085815	fix_post	2		12	16.0	2.5	/experiments/knapen_AOT/AOT_stimuli/rescaled_final/1685_fw.mp4	0.0	133.9383041858673	0.10004067420959473
19	114.55861258506775	fix_pre	0		120	17.0	2.5	/experiments/knapen_AOT/AOT_stimuli/rescaled_final/1089_fw.mp4	0.0	134.0383448600769	1.0084574222564697
19	115.14219498634338	pulse	0	t		17.0	2.5	/experiments/knapen_AOT/AOT_stimuli/rescaled_final/1089_fw.mp4	0.0	134.62192726135254	
19	115.56707000732422	movie	1		269	17.0	2.5	/experiments/knapen_AOT/AOT_stimuli/rescaled_final/1089_fw.mp4	0.0	135.04680228233337	2.4920380115509033
19	116.74048686027527	pulse	1	t		17.0	2.5	/experiments/knapen_AOT/AOT_stimuli/rescaled_final/1089_fw.mp4	0.0	136.22021913528442	
19	118.05910801887512	fix_post	2		12	17.0	2.5	/experiments/knapen_AOT/AOT_stimuli/rescaled_final/1089_fw.mp4	0.0	137.53884029388428	0.10000324249267578
20	118.1591112613678	fix_pre	0		120	18.0	2.5	/experiments/knapen_AOT/AOT_stimuli/rescaled_final/1301_fw.mp4	0.0	137.63884353637695	1.0085453987121582
20	118.33542513847351	pulse	0	t		18.0	2.5	/experiments/knapen_AOT/AOT_stimuli/rescaled_final/1301_fw.mp4	0.0	137.81515741348267	
20	119.16765666007996	movie	1		278	18.0	2.5	/experiments/knapen_AOT/AOT_stimuli/rescaled_final/1301_fw.mp4	0.0	138.6473889350891	2.492002010345459
20	119.9424238204956	pulse	1	t		18.0	2.5	/experiments/knapen_AOT/AOT_stimuli/rescaled_final/1301_fw.mp4	0.0	139.42215609550476	
20	121.53497004508972	pulse	1	t		18.0	2.5	/experiments/knapen_AOT/AOT_stimuli/rescaled_final/1301_fw.mp4	0.0	141.01470232009888	
20	121.65965867042542	fix_post	2		12	18.0	2.5	/experiments/knapen_AOT/AOT_stimuli/rescaled_final/1301_fw.mp4	0.0	141.13939094543457	0.10001277923583984
21	121.75967144966125	fix_pre	0		120	19.0	2.5	blank	1.0	141.2394037246704	1.0001261234283447
21	122.7597975730896	movie	1		300	19.0	2.5	blank	1.0	142.23952984809875	2.5003862380981445
21	123.13544464111328	pulse	1	t		19.0	2.5	blank	1.0	142.61517691612244	
21	124.73533749580383	pulse	1	t		19.0	2.5	blank	1.0	144.215069770813	
21	125.26018381118774	fix_post	2		12	19.0	2.5	blank	1.0	144.7399160861969	0.10002946853637695
22	125.36021327972412	fix_pre	0		118	20.0	2.5	/experiments/knapen_AOT/AOT_stimuli/rescaled_final/1001_rv.mp4	0.0	144.83994555473328	0.9918427467346191
22	126.33562397956848	pulse	0	t		20.0	2.5	/experiments/knapen_AOT/AOT_stimuli/rescaled_final/1001_rv.mp4	0.0	145.81535625457764	
22	126.35205602645874	movie	1		269	20.0	2.5	/experiments/knapen_AOT/AOT_stimuli/rescaled_final/1001_rv.mp4	0.0	145.8317883014679	2.500333070755005
22	127.9358720779419	pulse	1	t		20.0	2.5	/experiments/knapen_AOT/AOT_stimuli/rescaled_final/1001_rv.mp4	0.0	147.41560435295105	
22	128.85238909721375	fix_post	2		12	20.0	2.5	/experiments/knapen_AOT/AOT_stimuli/rescaled_final/1001_rv.mp4	0.0	148.3321213722229	0.10001277923583984
23	128.95240187644958	fix_pre	0		120	21.0	2.5	/experiments/knapen_AOT/AOT_stimuli/rescaled_final/0241_rv.mp4	0.0	148.43213415145874	1.0085058212280273
23	129.5361979007721	pulse	0	t		21.0	2.5	/experiments/knapen_AOT/AOT_stimuli/rescaled_final/0241_rv.mp4	0.0	149.01593017578125	
23	129.9609076976776	movie	1		270	21.0	2.5	/experiments/knapen_AOT/AOT_stimuli/rescaled_final/0241_rv.mp4	0.0	149.44063997268677	2.492166519165039
23	131.13521647453308	pulse	1	t		21.0	2.5	/experiments/knapen_AOT/AOT_stimuli/rescaled_final/0241_rv.mp4	0.0	150.61494874954224	
23	132.45307421684265	fix_post	2		12	21.0	2.5	/experiments/knapen_AOT/AOT_stimuli/rescaled_final/0241_rv.mp4	0.0	151.9328064918518	0.09990072250366211
24	132.5529749393463	fix_pre	0		120	22.0	2.5	/experiments/knapen_AOT/AOT_stimuli/rescaled_final/0070_fw.mp4	0.0	152.03270721435547	1.008471965789795
24	132.7365448474884	pulse	0	t		22.0	2.5	/experiments/knapen_AOT/AOT_stimuli/rescaled_final/0070_fw.mp4	0.0	152.21627712249756	
24	133.5614469051361	movie	1		279	22.0	2.5	/experiments/knapen_AOT/AOT_stimuli/rescaled_final/0070_fw.mp4	0.0	153.04117918014526	2.4920129776000977
24	134.33670568466187	pulse	1	t		22.0	2.5	/experiments/knapen_AOT/AOT_stimuli/rescaled_final/0070_fw.mp4	0.0	153.81643795967102	
24	135.93698573112488	pulse	1	t		22.0	2.5	/experiments/knapen_AOT/AOT_stimuli/rescaled_final/0070_fw.mp4	0.0	155.41671800613403	
24	136.0534598827362	fix_post	2		12	22.0	2.5	/experiments/knapen_AOT/AOT_stimuli/rescaled_final/0070_fw.mp4	0.0	155.53319215774536	0.10001325607299805
25	136.1534731388092	fix_pre	0		120	23.0	2.5	/experiments/knapen_AOT/AOT_stimuli/rescaled_final/1188_fw.mp4	0.0	155.63320541381836	1.0085089206695557
25	137.16198205947876	movie	1		269	23.0	2.5	/experiments/knapen_AOT/AOT_stimuli/rescaled_final/1188_fw.mp4	0.0	156.64171433448792	2.4920310974121094
25	137.53741645812988	pulse	1	t		23.0	2.5	/experiments/knapen_AOT/AOT_stimuli/rescaled_final/1188_fw.mp4	0.0	157.01714873313904	
25	139.13520693778992	pulse	1	t		23.0	2.5	/experiments/knapen_AOT/AOT_stimuli/rescaled_final/1188_fw.mp4	0.0	158.61493921279907	
25	139.65401315689087	fix_post	2		12	23.0	2.5	/experiments/knapen_AOT/AOT_stimuli/rescaled_final/1188_fw.mp4	0.0	159.13374543190002	0.09999370574951172
26	139.75400686264038	fix_pre	0		119	24.0	2.5	/experiments/knapen_AOT/AOT_stimuli/rescaled_final/1040_fw.mp4	0.0	159.23373913764954	1.0003204345703125
26	140.73772644996643	pulse	0	t		24.0	2.5	/experiments/knapen_AOT/AOT_stimuli/rescaled_final/1040_fw.mp4	0.0	160.2174587249756	
26	140.7543272972107	movie	1		277	24.0	2.5	/experiments/knapen_AOT/AOT_stimuli/rescaled_final/1040_fw.mp4	0.0	160.23405957221985	2.508599281311035
26	142.3382806777954	pulse	1	t		24.0	2.5	/experiments/knapen_AOT/AOT_stimuli/rescaled_final/1040_fw.mp4	0.0	161.81801295280457	
26	143.26292657852173	fix_post	2		11	24.0	2.5	/experiments/knapen_AOT/AOT_stimuli/rescaled_final/1040_fw.mp4	0.0	162.74265885353088	0.091644287109375
27	143.3545708656311	fix_pre	0		120	25.0	2.5	/experiments/knapen_AOT/AOT_stimuli/rescaled_final/1084_rv.mp4	0.0	162.83430314064026	1.0085020065307617
27	143.93826842308044	pulse	0	t		25.0	2.5	/experiments/knapen_AOT/AOT_stimuli/rescaled_final/1084_rv.mp4	0.0	163.4180006980896	
27	144.36307287216187	movie	1		281	25.0	2.5	/experiments/knapen_AOT/AOT_stimuli/rescaled_final/1084_rv.mp4	0.0	163.84280514717102	2.4920217990875244
27	145.53713274002075	pulse	1	t		25.0	2.5	/experiments/knapen_AOT/AOT_stimuli/rescaled_final/1084_rv.mp4	0.0	165.0168650150299	
27	146.8550946712494	fix_post	2		12	25.0	2.5	/experiments/knapen_AOT/AOT_stimuli/rescaled_final/1084_rv.mp4	0.0	166.33482694625854	0.10001039505004883
28	146.95510506629944	fix_pre	0		120	26.0	2.5	/experiments/knapen_AOT/AOT_stimuli/rescaled_final/0904_fw.mp4	0.0	166.4348373413086	1.0085399150848389
28	147.1388382911682	pulse	0	t		26.0	2.5	/experiments/knapen_AOT/AOT_stimuli/rescaled_final/0904_fw.mp4	0.0	166.61857056617737	
28	147.96364498138428	movie	1		275	26.0	2.5	/experiments/knapen_AOT/AOT_stimuli/rescaled_final/0904_fw.mp4	0.0	167.44337725639343	2.49202036857605
28	148.73814606666565	pulse	1	t		26.0	2.5	/experiments/knapen_AOT/AOT_stimuli/rescaled_final/0904_fw.mp4	0.0	168.2178783416748	
28	150.33706259727478	pulse	1	t		26.0	2.5	/experiments/knapen_AOT/AOT_stimuli/rescaled_final/0904_fw.mp4	0.0	169.81679487228394	
28	150.45566534996033	fix_post	2		12	26.0	2.5	/experiments/knapen_AOT/AOT_stimuli/rescaled_final/0904_fw.mp4	0.0	169.93539762496948	0.10008025169372559
29	150.55574560165405	fix_pre	0		120	27.0	2.5	blank	1.0	170.0354778766632	1.0000567436218262
29	151.55580234527588	movie	1		300	27.0	2.5	blank	1.0	171.03553462028503	2.5003700256347656
29	151.93939852714539	pulse	1	t		27.0	2.5	blank	1.0	171.41913080215454	
29	153.539785861969	pulse	1	t		27.0	2.5	blank	1.0	173.01951813697815	
29	154.05617237091064	fix_post	2		12	27.0	2.5	blank	1.0	173.5359046459198	0.10002303123474121
30	154.15619540214539	fix_pre	0		119	28.0	2.5	/experiments/knapen_AOT/AOT_stimuli/rescaled_final/0386_fw.mp4	0.0	173.63592767715454	1.0001955032348633
30	155.13984203338623	pulse	0	t		28.0	2.5	/experiments/knapen_AOT/AOT_stimuli/rescaled_final/0386_fw.mp4	0.0	174.61957430839539	
30	155.15639090538025	movie	1		276	28.0	2.5	/experiments/knapen_AOT/AOT_stimuli/rescaled_final/0386_fw.mp4	0.0	174.6361231803894	2.5003302097320557
30	156.73841881752014	pulse	1	t		28.0	2.5	/experiments/knapen_AOT/AOT_stimuli/rescaled_final/0386_fw.mp4	0.0	176.2181510925293	
30	157.6567211151123	fix_post	2		12	28.0	2.5	/experiments/knapen_AOT/AOT_stimuli/rescaled_final/0386_fw.mp4	0.0	177.13645339012146	0.10016107559204102
31	157.75688219070435	fix_pre	0		120	29.0	2.5	/experiments/knapen_AOT/AOT_stimuli/rescaled_final/1247_rv.mp4	0.0	177.2366144657135	1.008371114730835
31	158.34046363830566	pulse	0	t		29.0	2.5	/experiments/knapen_AOT/AOT_stimuli/rescaled_final/1247_rv.mp4	0.0	177.82019591331482	
31	158.76525330543518	movie	1		264	29.0	2.5	/experiments/knapen_AOT/AOT_stimuli/rescaled_final/1247_rv.mp4	0.0	178.24498558044434	2.4920709133148193
31	159.93938446044922	pulse	1	t		29.0	2.5	/experiments/knapen_AOT/AOT_stimuli/rescaled_final/1247_rv.mp4	0.0	179.41911673545837	
31	161.25732421875	fix_post	2		12	29.0	2.5	/experiments/knapen_AOT/AOT_stimuli/rescaled_final/1247_rv.mp4	0.0	180.73705649375916	0.09993600845336914
32	161.35726022720337	fix_pre	0		120	30.0	2.5	/experiments/knapen_AOT/AOT_stimuli/rescaled_final/1079_rv.mp4	0.0	180.83699250221252	1.008493423461914
32	161.54119873046875	pulse	0	t		30.0	2.5	/experiments/knapen_AOT/AOT_stimuli/rescaled_final/1079_rv.mp4	0.0	181.0209310054779	
32	162.36575365066528	movie	1		280	30.0	2.5	/experiments/knapen_AOT/AOT_stimuli/rescaled_final/1079_rv.mp4	0.0	181.84548592567444	2.4920456409454346
32	163.13871812820435	pulse	1	t		30.0	2.5	/experiments/knapen_AOT/AOT_stimuli/rescaled_final/1079_rv.mp4	0.0	182.6184504032135	
32	164.73941707611084	pulse	1	t		30.0	2.5	/experiments/knapen_AOT/AOT_stimuli/rescaled_final/1079_rv.mp4	0.0	184.21914935112	
32	164.85779929161072	fix_post	2		12	30.0	2.5	/experiments/knapen_AOT/AOT_stimuli/rescaled_final/1079_rv.mp4	0.0	184.33753156661987	0.10000920295715332
33	164.95780849456787	fix_pre	0		120	31.0	2.5	/experiments/knapen_AOT/AOT_stimuli/rescaled_final/0572_fw.mp4	0.0	184.43754076957703	1.0085077285766602
33	165.96631622314453	movie	1		279	31.0	2.5	/experiments/knapen_AOT/AOT_stimuli/rescaled_final/0572_fw.mp4	0.0	185.4460484981537	2.492018938064575
33	166.3395495414734	pulse	1	t		31.0	2.5	/experiments/knapen_AOT/AOT_stimuli/rescaled_final/0572_fw.mp4	0.0	185.81928181648254	
33	167.93957829475403	pulse	1	t		31.0	2.5	/experiments/knapen_AOT/AOT_stimuli/rescaled_final/0572_fw.mp4	0.0	187.41931056976318	
33	168.4583351612091	fix_post	2		12	31.0	2.5	/experiments/knapen_AOT/AOT_stimuli/rescaled_final/0572_fw.mp4	0.0	187.93806743621826	0.10002541542053223
34	168.55836057662964	fix_pre	0		119	32.0	2.5	/experiments/knapen_AOT/AOT_stimuli/rescaled_final/0839_rv.mp4	0.0	188.0380928516388	1.000148057937622
34	169.54205131530762	pulse	0	t		32.0	2.5	/experiments/knapen_AOT/AOT_stimuli/rescaled_final/0839_rv.mp4	0.0	189.02178359031677	
34	169.55850863456726	movie	1		270	32.0	2.5	/experiments/knapen_AOT/AOT_stimuli/rescaled_final/0839_rv.mp4	0.0	189.03824090957642	2.500371217727661
34	171.14082407951355	pulse	1	t		32.0	2.5	/experiments/knapen_AOT/AOT_stimuli/rescaled_final/0839_rv.mp4	0.0	190.6205563545227	
34	172.05887985229492	fix_post	2		12	32.0	2.5	/experiments/knapen_AOT/AOT_stimuli/rescaled_final/0839_rv.mp4	0.0	191.53861212730408	0.10002446174621582
35	172.15890431404114	fix_pre	0		120	33.0	2.5	/experiments/knapen_AOT/AOT_stimuli/rescaled_final/0395_fw.mp4	0.0	191.6386365890503	1.0085687637329102
35	172.74283480644226	pulse	0	t		33.0	2.5	/experiments/knapen_AOT/AOT_stimuli/rescaled_final/0395_fw.mp4	0.0	192.22256708145142	
35	173.16747307777405	movie	1		258	33.0	2.5	/experiments/knapen_AOT/AOT_stimuli/rescaled_final/0395_fw.mp4	0.0	192.6472053527832	2.491957426071167
35	174.34073948860168	pulse	1	t		33.0	2.5	/experiments/knapen_AOT/AOT_stimuli/rescaled_final/0395_fw.mp4	0.0	193.82047176361084	
35	175.65943050384521	fix_post	2		12	33.0	2.5	/experiments/knapen_AOT/AOT_stimuli/rescaled_final/0395_fw.mp4	0.0	195.13916277885437	0.100006103515625
36	175.75943660736084	fix_pre	0		120	34.0	2.5	/experiments/knapen_AOT/AOT_stimuli/rescaled_final/0903_fw.mp4	0.0	195.23916888237	1.00852632522583
36	175.9431276321411	pulse	0	t		34.0	2.5	/experiments/knapen_AOT/AOT_stimuli/rescaled_final/0903_fw.mp4	0.0	195.42285990715027	
36	176.76796293258667	movie	1		291	34.0	2.5	/experiments/knapen_AOT/AOT_stimuli/rescaled_final/0903_fw.mp4	0.0	196.24769520759583	2.4920454025268555
36	177.5425353050232	pulse	1	t		34.0	2.5	/experiments/knapen_AOT/AOT_stimuli/rescaled_final/0903_fw.mp4	0.0	197.02226758003235	
36	179.13565707206726	pulse	1	t		34.0	2.5	/experiments/knapen_AOT/AOT_stimuli/rescaled_final/0903_fw.mp4	0.0	198.61538934707642	
36	179.26000833511353	fix_post	2		12	34.0	2.5	/experiments/knapen_AOT/AOT_stimuli/rescaled_final/0903_fw.mp4	0.0	198.73974061012268	0.10001468658447266
37	179.360023021698	fix_pre	0		120	35.0	2.5	blank	1.0	198.83975529670715	1.0001018047332764
37	180.36012482643127	movie	1		300	35.0	2.5	blank	1.0	199.83985710144043	2.500375270843506
37	180.73630285263062	pulse	1	t		35.0	2.5	blank	1.0	200.21603512763977	
37	182.33587098121643	pulse	1	t		35.0	2.5	blank	1.0	201.8156032562256	
37	182.86050009727478	fix_post	2		12	35.0	2.5	blank	1.0	202.34023237228394	0.10002899169921875
38	182.960529088974	fix_pre	0		118	36.0	2.5	/experiments/knapen_AOT/AOT_stimuli/rescaled_final/1868_rv.mp4	0.0	202.44026136398315	0.9918181896209717
38	183.93588757514954	pulse	0	t		36.0	2.5	/experiments/knapen_AOT/AOT_stimuli/rescaled_final/1868_rv.mp4	0.0	203.4156198501587	
38	183.95234727859497	movie	1		281	36.0	2.5	/experiments/knapen_AOT/AOT_stimuli/rescaled_final/1868_rv.mp4	0.0	203.43207955360413	2.5003600120544434
38	185.53578972816467	pulse	1	t		36.0	2.5	/experiments/knapen_AOT/AOT_stimuli/rescaled_final/1868_rv.mp4	0.0	205.01552200317383	
38	186.4527072906494	fix_post	2		12	36.0	2.5	/experiments/knapen_AOT/AOT_stimuli/rescaled_final/1868_rv.mp4	0.0	205.93243956565857	0.10004758834838867
39	186.5527548789978	fix_pre	0		120	37.0	2.5	/experiments/knapen_AOT/AOT_stimuli/rescaled_final/1801_fw.mp4	0.0	206.03248715400696	1.0084717273712158
39	187.13657522201538	pulse	0	t		37.0	2.5	/experiments/knapen_AOT/AOT_stimuli/rescaled_final/1801_fw.mp4	0.0	206.61630749702454	
39	187.56122660636902	movie	1		276	37.0	2.5	/experiments/knapen_AOT/AOT_stimuli/rescaled_final/1801_fw.mp4	0.0	207.04095888137817	2.492025136947632
39	188.73657655715942	pulse	1	t		37.0	2.5	/experiments/knapen_AOT/AOT_stimuli/rescaled_final/1801_fw.mp4	0.0	208.21630883216858	
39	190.05325174331665	fix_post	2		12	37.0	2.5	/experiments/knapen_AOT/AOT_stimuli/rescaled_final/1801_fw.mp4	0.0	209.5329840183258	0.1000204086303711
40	190.15327215194702	fix_pre	0		120	38.0	2.5	/experiments/knapen_AOT/AOT_stimuli/rescaled_final/1826_fw.mp4	0.0	209.63300442695618	1.008509874343872
40	190.33685421943665	pulse	0	t		38.0	2.5	/experiments/knapen_AOT/AOT_stimuli/rescaled_final/1826_fw.mp4	0.0	209.8165864944458	
40	191.1617820262909	movie	1		287	38.0	2.5	/experiments/knapen_AOT/AOT_stimuli/rescaled_final/1826_fw.mp4	0.0	210.64151430130005	2.492011308670044
40	191.93541407585144	pulse	1	t		38.0	2.5	/experiments/knapen_AOT/AOT_stimuli/rescaled_final/1826_fw.mp4	0.0	211.4151463508606	
40	193.5352659225464	pulse	1	t		38.0	2.5	/experiments/knapen_AOT/AOT_stimuli/rescaled_final/1826_fw.mp4	0.0	213.01499819755554	
40	193.65379333496094	fix_post	2		12	38.0	2.5	/experiments/knapen_AOT/AOT_stimuli/rescaled_final/1826_fw.mp4	0.0	213.1335256099701	0.1001279354095459
41	193.75392127037048	fix_pre	0		120	39.0	2.5	/experiments/knapen_AOT/AOT_stimuli/rescaled_final/1723_fw.mp4	0.0	213.23365354537964	1.008373737335205
41	194.7622950077057	movie	1		278	39.0	2.5	/experiments/knapen_AOT/AOT_stimuli/rescaled_final/1723_fw.mp4	0.0	214.24202728271484	2.49204421043396
41	195.13626503944397	pulse	1	t		39.0	2.5	/experiments/knapen_AOT/AOT_stimuli/rescaled_final/1723_fw.mp4	0.0	214.61599731445312	
41	196.73567008972168	pulse	1	t		39.0	2.5	/experiments/knapen_AOT/AOT_stimuli/rescaled_final/1723_fw.mp4	0.0	216.21540236473083	
41	197.25433921813965	fix_post	2		12	39.0	2.5	/experiments/knapen_AOT/AOT_stimuli/rescaled_final/1723_fw.mp4	0.0	216.7340714931488	0.10003423690795898
42	197.3543734550476	fix_pre	0		119	40.0	2.5	/experiments/knapen_AOT/AOT_stimuli/rescaled_final/0241_fw.mp4	0.0	216.83410573005676	1.0001397132873535
42	198.33807039260864	pulse	0	t		40.0	2.5	/experiments/knapen_AOT/AOT_stimuli/rescaled_final/0241_fw.mp4	0.0	217.8178026676178	
42	198.35451316833496	movie	1		289	40.0	2.5	/experiments/knapen_AOT/AOT_stimuli/rescaled_final/0241_fw.mp4	0.0	217.83424544334412	2.5003693103790283
42	199.93647575378418	pulse	1	t		40.0	2.5	/experiments/knapen_AOT/AOT_stimuli/rescaled_final/0241_fw.mp4	0.0	219.41620802879333	
42	200.854882478714	fix_post	2		12	40.0	2.5	/experiments/knapen_AOT/AOT_stimuli/rescaled_final/0241_fw.mp4	0.0	220.33461475372314	0.10001397132873535
43	200.95489645004272	fix_pre	0		120	41.0	2.5	blank	1.0	220.43462872505188	1.0001447200775146
43	201.53851699829102	pulse	0	t		41.0	2.5	blank	1.0	221.01824927330017	
43	201.95504117012024	movie	1		300	41.0	2.5	blank	1.0	221.4347734451294	2.500382423400879
43	203.13876581192017	pulse	1	t		41.0	2.5	blank	1.0	222.61849808692932	
43	204.45542359352112	fix_post	2		12	41.0	2.5	blank	1.0	223.93515586853027	0.10003018379211426
44	204.55545377731323	fix_pre	0		120	42.0	2.5	/experiments/knapen_AOT/AOT_stimuli/rescaled_final/1685_rv.mp4	0.0	224.0351860523224	1.0085194110870361
44	204.73896741867065	pulse	0	t		42.0	2.5	/experiments/knapen_AOT/AOT_stimuli/rescaled_final/1685_rv.mp4	0.0	224.2186996936798	
44	205.56397318840027	movie	1		283	42.0	2.5	/experiments/knapen_AOT/AOT_stimuli/rescaled_final/1685_rv.mp4	0.0	225.04370546340942	2.4920449256896973
44	206.33795499801636	pulse	1	t		42.0	2.5	/experiments/knapen_AOT/AOT_stimuli/rescaled_final/1685_rv.mp4	0.0	225.8176872730255	
44	207.9375364780426	pulse	1	t		42.0	2.5	/experiments/knapen_AOT/AOT_stimuli/rescaled_final/1685_rv.mp4	0.0	227.41726875305176	
44	208.05601811408997	fix_post	2		12	42.0	2.5	/experiments/knapen_AOT/AOT_stimuli/rescaled_final/1685_rv.mp4	0.0	227.53575038909912	0.09995698928833008
45	208.1559751033783	fix_pre	0		120	43.0	2.5	/experiments/knapen_AOT/AOT_stimuli/rescaled_final/0326_rv.mp4	0.0	227.63570737838745	1.008530616760254
45	209.16450572013855	movie	1		273	43.0	2.5	/experiments/knapen_AOT/AOT_stimuli/rescaled_final/0326_rv.mp4	0.0	228.6442379951477	2.491995334625244
45	209.5386142730713	pulse	1	t		43.0	2.5	/experiments/knapen_AOT/AOT_stimuli/rescaled_final/0326_rv.mp4	0.0	229.01834654808044	
45	211.13826847076416	pulse	1	t		43.0	2.5	/experiments/knapen_AOT/AOT_stimuli/rescaled_final/0326_rv.mp4	0.0	230.61800074577332	
45	211.6565010547638	fix_post	2		12	43.0	2.5	/experiments/knapen_AOT/AOT_stimuli/rescaled_final/0326_rv.mp4	0.0	231.13623332977295	0.10000967979431152
46	211.7565107345581	fix_pre	0		119	44.0	2.5	/experiments/knapen_AOT/AOT_stimuli/rescaled_final/1920_fw.mp4	0.0	231.23624300956726	1.0001742839813232
46	212.74040126800537	pulse	0	t		44.0	2.5	/experiments/knapen_AOT/AOT_stimuli/rescaled_final/1920_fw.mp4	0.0	232.22013354301453	
46	212.75668501853943	movie	1		267	44.0	2.5	/experiments/knapen_AOT/AOT_stimuli/rescaled_final/1920_fw.mp4	0.0	232.23641729354858	2.500340223312378
46	214.34039568901062	pulse	1	t		44.0	2.5	/experiments/knapen_AOT/AOT_stimuli/rescaled_final/1920_fw.mp4	0.0	233.82012796401978	
46	215.2570252418518	fix_post	2		12	44.0	2.5	/experiments/knapen_AOT/AOT_stimuli/rescaled_final/1920_fw.mp4	0.0	234.73675751686096	0.10003185272216797
47	215.35705709457397	fix_pre	0		120	45.0	2.5	/experiments/knapen_AOT/AOT_stimuli/rescaled_final/1856_rv.mp4	0.0	234.83678936958313	1.0085318088531494
47	215.94074654579163	pulse	0	t		45.0	2.5	/experiments/knapen_AOT/AOT_stimuli/rescaled_final/1856_rv.mp4	0.0	235.42047882080078	
47	216.36558890342712	movie	1		281	45.0	2.5	/experiments/knapen_AOT/AOT_stimuli/rescaled_final/1856_rv.mp4	0.0	235.84532117843628	2.4920029640197754
47	217.53915572166443	pulse	1	t		45.0	2.5	/experiments/knapen_AOT/AOT_stimuli/rescaled_final/1856_rv.mp4	0.0	237.01888799667358	
47	218.8575918674469	fix_post	2		12	45.0	2.5	/experiments/knapen_AOT/AOT_stimuli/rescaled_final/1856_rv.mp4	0.0	238.33732414245605	0.10010814666748047
48	218.95770001411438	fix_pre	0		120	46.0	2.5	/experiments/knapen_AOT/AOT_stimuli/rescaled_final/0535_rv.mp4	0.0	238.43743228912354	1.008371114730835
48	219.14155769348145	pulse	0	t		46.0	2.5	/experiments/knapen_AOT/AOT_stimuli/rescaled_final/0535_rv.mp4	0.0	238.6212899684906	
48	219.96607112884521	movie	1		261	46.0	2.5	/experiments/knapen_AOT/AOT_stimuli/rescaled_final/0535_rv.mp4	0.0	239.44580340385437	2.49210262298584
48	220.73963141441345	pulse	1	t		46.0	2.5	/experiments/knapen_AOT/AOT_stimuli/rescaled_final/0535_rv.mp4	0.0	240.2193636894226	
48	222.34175848960876	pulse	1	t		46.0	2.5	/experiments/knapen_AOT/AOT_stimuli/rescaled_final/0535_rv.mp4	0.0	241.82149076461792	
48	222.45817375183105	fix_post	2		12	46.0	2.5	/experiments/knapen_AOT/AOT_stimuli/rescaled_final/0535_rv.mp4	0.0	241.9379060268402	0.10011076927185059
49	222.5582845211029	fix_pre	0		120	47.0	2.5	blank	1.0	242.03801679611206	1.000023603439331
49	223.55830812454224	movie	1		300	47.0	2.5	blank	1.0	243.0380403995514	2.500375270843506
49	223.9418761730194	pulse	1	t		47.0	2.5	blank	1.0	243.42160844802856	
49	225.54214239120483	pulse	1	t		47.0	2.5	blank	1.0	245.021874666214	
49	226.05868339538574	fix_post	2		12	47.0	2.5	blank	1.0	245.5384156703949	0.10002756118774414
50	226.1587109565735	fix_pre	0		119	48.0	2.5	/experiments/knapen_AOT/AOT_stimuli/rescaled_final/1826_rv.mp4	0.0	245.63844323158264	1.000112771987915
50	227.14233541488647	pulse	0	t		48.0	2.5	/experiments/knapen_AOT/AOT_stimuli/rescaled_final/1826_rv.mp4	0.0	246.62206768989563	
50	227.1588237285614	movie	1		285	48.0	2.5	/experiments/knapen_AOT/AOT_stimuli/rescaled_final/1826_rv.mp4	0.0	246.63855600357056	2.5003857612609863
50	228.74102473258972	pulse	1	t		48.0	2.5	/experiments/knapen_AOT/AOT_stimuli/rescaled_final/1826_rv.mp4	0.0	248.22075700759888	
50	229.6592094898224	fix_post	2		12	48.0	2.5	/experiments/knapen_AOT/AOT_stimuli/rescaled_final/1826_rv.mp4	0.0	249.13894176483154	0.10002994537353516
51	229.75923943519592	fix_pre	0		120	49.0	2.5	/experiments/knapen_AOT/AOT_stimuli/rescaled_final/1301_rv.mp4	0.0	249.23897171020508	1.0085184574127197
51	230.34290218353271	pulse	0	t		49.0	2.5	/experiments/knapen_AOT/AOT_stimuli/rescaled_final/1301_rv.mp4	0.0	249.82263445854187	
51	230.76775789260864	movie	1		276	49.0	2.5	/experiments/knapen_AOT/AOT_stimuli/rescaled_final/1301_rv.mp4	0.0	250.2474901676178	2.491992712020874
51	231.93479704856873	pulse	1	t		49.0	2.5	/experiments/knapen_AOT/AOT_stimuli/rescaled_final/1301_rv.mp4	0.0	251.41452932357788	
51	233.25975060462952	fix_post	2		12	49.0	2.5	/experiments/knapen_AOT/AOT_stimuli/rescaled_final/1301_rv.mp4	0.0	252.73948287963867	0.10001015663146973
52	233.359760761261	fix_pre	0		120	50.0	2.5	/experiments/knapen_AOT/AOT_stimuli/rescaled_final/0739_rv.mp4	0.0	252.83949303627014	1.0085430145263672
52	233.53506135940552	pulse	0	t		50.0	2.5	/experiments/knapen_AOT/AOT_stimuli/rescaled_final/0739_rv.mp4	0.0	253.01479363441467	
52	234.36830377578735	movie	1		288	50.0	2.5	/experiments/knapen_AOT/AOT_stimuli/rescaled_final/0739_rv.mp4	0.0	253.8480360507965	2.4920005798339844
52	235.13534498214722	pulse	1	t		50.0	2.5	/experiments/knapen_AOT/AOT_stimuli/rescaled_final/0739_rv.mp4	0.0	254.61507725715637	
52	236.7355194091797	pulse	1	t		50.0	2.5	/experiments/knapen_AOT/AOT_stimuli/rescaled_final/0739_rv.mp4	0.0	256.21525168418884	
52	236.86030435562134	fix_post	2		12	50.0	2.5	/experiments/knapen_AOT/AOT_stimuli/rescaled_final/0739_rv.mp4	0.0	256.3400366306305	0.10000491142272949
53	236.96030926704407	fix_pre	0		120	51.0	2.5	/experiments/knapen_AOT/AOT_stimuli/rescaled_final/1040_rv.mp4	0.0	256.4400415420532	1.0084986686706543
53	237.96880793571472	movie	1		289	51.0	2.5	/experiments/knapen_AOT/AOT_stimuli/rescaled_final/1040_rv.mp4	0.0	257.4485402107239	2.492030143737793
53	238.33575630187988	pulse	1	t		51.0	2.5	/experiments/knapen_AOT/AOT_stimuli/rescaled_final/1040_rv.mp4	0.0	257.81548857688904	
53	239.9360077381134	pulse	1	t		51.0	2.5	/experiments/knapen_AOT/AOT_stimuli/rescaled_final/1040_rv.mp4	0.0	259.41574001312256	
53	240.46083807945251	fix_post	2		12	51.0	2.5	/experiments/knapen_AOT/AOT_stimuli/rescaled_final/1040_rv.mp4	0.0	259.94057035446167	0.10008597373962402
54	240.56092405319214	fix_pre	0		118	52.0	2.5	/experiments/knapen_AOT/AOT_stimuli/rescaled_final/0417_fw.mp4	0.0	260.0406563282013	0.9918861389160156
54	241.53623580932617	pulse	0	t		52.0	2.5	/experiments/knapen_AOT/AOT_stimuli/rescaled_final/0417_fw.mp4	0.0	261.0159680843353	
54	241.55281019210815	movie	1		281	52.0	2.5	/experiments/knapen_AOT/AOT_stimuli/rescaled_final/0417_fw.mp4	0.0	261.0325424671173	2.5002293586730957
54	243.1351797580719	pulse	1	t		52.0	2.5	/experiments/knapen_AOT/AOT_stimuli/rescaled_final/0417_fw.mp4	0.0	262.61491203308105	
54	244.05303955078125	fix_post	2		12	52.0	2.5	/experiments/knapen_AOT/AOT_stimuli/rescaled_final/0417_fw.mp4	0.0	263.5327718257904	0.10003185272216797
55	244.15307140350342	fix_pre	0		120	53.0	2.5	/experiments/knapen_AOT/AOT_stimuli/rescaled_final/1793_fw.mp4	0.0	263.6328036785126	1.0085086822509766
55	244.73675918579102	pulse	0	t		53.0	2.5	/experiments/knapen_AOT/AOT_stimuli/rescaled_final/1793_fw.mp4	0.0	264.21649146080017	
55	245.1615800857544	movie	1		278	53.0	2.5	/experiments/knapen_AOT/AOT_stimuli/rescaled_final/1793_fw.mp4	0.0	264.64131236076355	2.492009162902832
55	246.3350474834442	pulse	1	t		53.0	2.5	/experiments/knapen_AOT/AOT_stimuli/rescaled_final/1793_fw.mp4	0.0	265.81477975845337	
55	247.65358924865723	fix_post	2		12	53.0	2.5	/experiments/knapen_AOT/AOT_stimuli/rescaled_final/1793_fw.mp4	0.0	267.1333215236664	0.10003852844238281
56	247.7536277770996	fix_pre	0		120	54.0	2.5	blank	1.0	267.23336005210876	1.000157356262207
56	247.93713331222534	pulse	0	t		54.0	2.5	blank	1.0	267.4168655872345	
56	248.75378513336182	movie	1		300	54.0	2.5	blank	1.0	268.233517408371	2.5003488063812256
56	249.53737878799438	pulse	1	t		54.0	2.5	blank	1.0	269.01711106300354	
56	251.13775825500488	pulse	1	t		54.0	2.5	blank	1.0	270.61749053001404	
56	251.25413393974304	fix_post	2		12	54.0	2.5	blank	1.0	270.7338662147522	0.1000223159790039
57	251.35415625572205	fix_pre	0		120	55.0	2.5	/experiments/knapen_AOT/AOT_stimuli/rescaled_final/0566_fw.mp4	0.0	270.8338885307312	1.0085597038269043
57	252.36271595954895	movie	1		284	55.0	2.5	/experiments/knapen_AOT/AOT_stimuli/rescaled_final/0566_fw.mp4	0.0	271.8424482345581	2.492192506790161
57	252.73699808120728	pulse	1	t		55.0	2.5	/experiments/knapen_AOT/AOT_stimuli/rescaled_final/0566_fw.mp4	0.0	272.21673035621643	
57	254.33588981628418	pulse	1	t		55.0	2.5	/experiments/knapen_AOT/AOT_stimuli/rescaled_final/0566_fw.mp4	0.0	273.81562209129333	
57	254.8549084663391	fix_post	2		12	55.0	2.5	/experiments/knapen_AOT/AOT_stimuli/rescaled_final/0566_fw.mp4	0.0	274.33464074134827	0.09978675842285156
58	254.95469522476196	fix_pre	0		119	56.0	2.5	/experiments/knapen_AOT/AOT_stimuli/rescaled_final/0050_fw.mp4	0.0	274.4344274997711	1.0001232624053955
58	255.9383521080017	pulse	0	t		56.0	2.5	/experiments/knapen_AOT/AOT_stimuli/rescaled_final/0050_fw.mp4	0.0	275.41808438301086	
58	255.95481848716736	movie	1		285	56.0	2.5	/experiments/knapen_AOT/AOT_stimuli/rescaled_final/0050_fw.mp4	0.0	275.4345507621765	2.5004043579101562
58	257.53802847862244	pulse	1	t		56.0	2.5	/experiments/knapen_AOT/AOT_stimuli/rescaled_final/0050_fw.mp4	0.0	277.0177607536316	
58	258.4552228450775	fix_post	2		12	56.0	2.5	/experiments/knapen_AOT/AOT_stimuli/rescaled_final/0050_fw.mp4	0.0	277.93495512008667	0.1000213623046875
59	258.5552442073822	fix_pre	0		120	57.0	2.5	/experiments/knapen_AOT/AOT_stimuli/rescaled_final/1915_fw.mp4	0.0	278.03497648239136	1.008500337600708
59	259.1389491558075	pulse	0	t		57.0	2.5	/experiments/knapen_AOT/AOT_stimuli/rescaled_final/1915_fw.mp4	0.0	278.61868143081665	
59	259.5637445449829	movie	1		284	57.0	2.5	/experiments/knapen_AOT/AOT_stimuli/rescaled_final/1915_fw.mp4	0.0	279.04347681999207	2.4920108318328857
59	260.73744773864746	pulse	1	t		57.0	2.5	/experiments/knapen_AOT/AOT_stimuli/rescaled_final/1915_fw.mp4	0.0	280.2171800136566	
59	262.0557553768158	fix_post	2		12	57.0	2.5	/experiments/knapen_AOT/AOT_stimuli/rescaled_final/1915_fw.mp4	0.0	281.53548765182495	0.1000223159790039
60	262.1557776927948	fix_pre	0		120	58.0	2.5	/experiments/knapen_AOT/AOT_stimuli/rescaled_final/1265_fw.mp4	0.0	281.63550996780396	1.0085034370422363
60	262.339332818985	pulse	0	t		58.0	2.5	/experiments/knapen_AOT/AOT_stimuli/rescaled_final/1265_fw.mp4	0.0	281.81906509399414	
60	263.16428112983704	movie	1		279	58.0	2.5	/experiments/knapen_AOT/AOT_stimuli/rescaled_final/1265_fw.mp4	0.0	282.6440134048462	2.4920217990875244
60	263.9372317790985	pulse	1	t		58.0	2.5	/experiments/knapen_AOT/AOT_stimuli/rescaled_final/1265_fw.mp4	0.0	283.41696405410767	
60	265.5382237434387	pulse	1	t		58.0	2.5	/experiments/knapen_AOT/AOT_stimuli/rescaled_final/1265_fw.mp4	0.0	285.0179560184479	
60	265.65630292892456	fix_post	2		12	58.0	2.5	/experiments/knapen_AOT/AOT_stimuli/rescaled_final/1265_fw.mp4	0.0	285.1360352039337	0.10002994537353516
61	265.7563328742981	fix_pre	0		120	59.0	2.5	/experiments/knapen_AOT/AOT_stimuli/rescaled_final/1693_fw.mp4	0.0	285.23606514930725	1.0084738731384277
61	266.7648067474365	movie	1		282	59.0	2.5	/experiments/knapen_AOT/AOT_stimuli/rescaled_final/1693_fw.mp4	0.0	286.2445390224457	2.4920270442962646
61	267.1386671066284	pulse	1	t		59.0	2.5	/experiments/knapen_AOT/AOT_stimuli/rescaled_final/1693_fw.mp4	0.0	286.6183993816376	
61	268.7385139465332	pulse	1	t		59.0	2.5	/experiments/knapen_AOT/AOT_stimuli/rescaled_final/1693_fw.mp4	0.0	288.21824622154236	
61	269.2568337917328	fix_post	2		12	59.0	2.5	/experiments/knapen_AOT/AOT_stimuli/rescaled_final/1693_fw.mp4	0.0	288.73656606674194	0.10002994537353516
62	269.3568637371063	fix_pre	0		119	60.0	2.5	/experiments/knapen_AOT/AOT_stimuli/rescaled_final/0819_rv.mp4	0.0	288.8365960121155	1.0003292560577393
62	270.34054160118103	pulse	0	t		60.0	2.5	/experiments/knapen_AOT/AOT_stimuli/rescaled_final/0819_rv.mp4	0.0	289.8202738761902	
62	270.35719299316406	movie	1		269	60.0	2.5	/experiments/knapen_AOT/AOT_stimuli/rescaled_final/0819_rv.mp4	0.0	289.8369252681732	2.5002007484436035
62	271.94091725349426	pulse	1	t		60.0	2.5	/experiments/knapen_AOT/AOT_stimuli/rescaled_final/0819_rv.mp4	0.0	291.4206495285034	
62	272.85739374160767	fix_post	2		12	60.0	2.5	/experiments/knapen_AOT/AOT_stimuli/rescaled_final/0819_rv.mp4	0.0	292.3371260166168	0.10003995895385742
63	272.9574337005615	fix_pre	0		120	61.0	2.5	blank	1.0	292.4371659755707	1.0001835823059082
63	273.54106402397156	pulse	0	t		61.0	2.5	blank	1.0	293.0207962989807	
63	273.95761728286743	movie	1		300	61.0	2.5	blank	1.0	293.4373495578766	2.500300884246826
63	275.14141845703125	pulse	1	t		61.0	2.5	blank	1.0	294.6211507320404	
63	276.45791816711426	fix_post	2		12	61.0	2.5	blank	1.0	295.9376504421234	0.10013532638549805
64	276.55805349349976	fix_pre	0		120	62.0	2.5	/experiments/knapen_AOT/AOT_stimuli/rescaled_final/0670_fw.mp4	0.0	296.0377857685089	1.0084030628204346
64	276.74148178100586	pulse	0	t		62.0	2.5	/experiments/knapen_AOT/AOT_stimuli/rescaled_final/0670_fw.mp4	0.0	296.221214056015	
64	277.5664565563202	movie	1		274	62.0	2.5	/experiments/knapen_AOT/AOT_stimuli/rescaled_final/0670_fw.mp4	0.0	297.04618883132935	2.4920272827148438
64	278.3400273323059	pulse	1	t		62.0	2.5	/experiments/knapen_AOT/AOT_stimuli/rescaled_final/0670_fw.mp4	0.0	297.81975960731506	
64	279.9420368671417	pulse	1	t		62.0	2.5	/experiments/knapen_AOT/AOT_stimuli/rescaled_final/0670_fw.mp4	0.0	299.4217691421509	
64	280.05848383903503	fix_post	2		12	62.0	2.5	/experiments/knapen_AOT/AOT_stimuli/rescaled_final/0670_fw.mp4	0.0	299.5382161140442	0.10000967979431152
65	280.15849351882935	fix_pre	0		120	63.0	2.5	/experiments/knapen_AOT/AOT_stimuli/rescaled_final/0162_fw.mp4	0.0	299.6382257938385	1.0085039138793945
65	281.16699743270874	movie	1		271	63.0	2.5	/experiments/knapen_AOT/AOT_stimuli/rescaled_final/0162_fw.mp4	0.0	300.6467297077179	2.492025136947632
65	281.54274439811707	pulse	1	t		63.0	2.5	/experiments/knapen_AOT/AOT_stimuli/rescaled_final/0162_fw.mp4	0.0	301.0224766731262	
65	283.140353679657	pulse	1	t		63.0	2.5	/experiments/knapen_AOT/AOT_stimuli/rescaled_final/0162_fw.mp4	0.0	302.62008595466614	
65	283.6590225696564	fix_post	2		12	63.0	2.5	/experiments/knapen_AOT/AOT_stimuli/rescaled_final/0162_fw.mp4	0.0	303.1387548446655	0.09998965263366699
66	283.75901222229004	fix_pre	0		119	64.0	2.5	/experiments/knapen_AOT/AOT_stimuli/rescaled_final/1001_fw.mp4	0.0	303.2387444972992	1.000168800354004
66	284.73513436317444	pulse	0	t		64.0	2.5	/experiments/knapen_AOT/AOT_stimuli/rescaled_final/1001_fw.mp4	0.0	304.2148666381836	
66	284.75918102264404	movie	1		264	64.0	2.5	/experiments/knapen_AOT/AOT_stimuli/rescaled_final/1001_fw.mp4	0.0	304.2389132976532	2.5003960132598877
66	286.3421461582184	pulse	1	t		64.0	2.5	/experiments/knapen_AOT/AOT_stimuli/rescaled_final/1001_fw.mp4	0.0	305.82187843322754	
66	287.25957703590393	fix_post	2		12	64.0	2.5	/experiments/knapen_AOT/AOT_stimuli/rescaled_final/1001_fw.mp4	0.0	306.7393093109131	0.10001373291015625
67	287.3595907688141	fix_pre	0		120	65.0	2.5	/experiments/knapen_AOT/AOT_stimuli/rescaled_final/1374_rv.mp4	0.0	306.83932304382324	1.008453369140625
67	287.9353892803192	pulse	0	t		65.0	2.5	/experiments/knapen_AOT/AOT_stimuli/rescaled_final/1374_rv.mp4	0.0	307.41512155532837	
67	288.3680441379547	movie	1		275	65.0	2.5	/experiments/knapen_AOT/AOT_stimuli/rescaled_final/1374_rv.mp4	0.0	307.84777641296387	2.4920389652252197
67	289.53557562828064	pulse	1	t		65.0	2.5	/experiments/knapen_AOT/AOT_stimuli/rescaled_final/1374_rv.mp4	0.0	309.0153079032898	
67	290.86008310317993	fix_post	2		12	65.0	2.5	/experiments/knapen_AOT/AOT_stimuli/rescaled_final/1374_rv.mp4	0.0	310.3398153781891	0.09999895095825195
68	290.9600820541382	fix_pre	0		120	66.0	2.5	/experiments/knapen_AOT/AOT_stimuli/rescaled_final/1034_rv.mp4	0.0	310.43981432914734	1.0086102485656738
68	291.1355893611908	pulse	0	t		66.0	2.5	/experiments/knapen_AOT/AOT_stimuli/rescaled_final/1034_rv.mp4	0.0	310.61532163619995	
68	291.96869230270386	movie	1		281	66.0	2.5	/experiments/knapen_AOT/AOT_stimuli/rescaled_final/1034_rv.mp4	0.0	311.448424577713	2.4919488430023193
68	292.73575806617737	pulse	1	t		66.0	2.5	/experiments/knapen_AOT/AOT_stimuli/rescaled_final/1034_rv.mp4	0.0	312.2154903411865	
68	294.33587622642517	pulse	1	t		66.0	2.5	/experiments/knapen_AOT/AOT_stimuli/rescaled_final/1034_rv.mp4	0.0	313.8156085014343	
68	294.4606411457062	fix_post	2		12	66.0	2.5	/experiments/knapen_AOT/AOT_stimuli/rescaled_final/1034_rv.mp4	0.0	313.94037342071533	0.10004210472106934
69	294.56068325042725	fix_pre	0		120	67.0	2.5	/experiments/knapen_AOT/AOT_stimuli/rescaled_final/0430_rv.mp4	0.0	314.0404155254364	1.0084559917449951
69	295.56913924217224	movie	1		271	67.0	2.5	/experiments/knapen_AOT/AOT_stimuli/rescaled_final/0430_rv.mp4	0.0	315.0488715171814	2.4920380115509033
69	295.9360725879669	pulse	1	t		67.0	2.5	/experiments/knapen_AOT/AOT_stimuli/rescaled_final/0430_rv.mp4	0.0	315.4158048629761	
69	297.53630208969116	pulse	1	t		67.0	2.5	/experiments/knapen_AOT/AOT_stimuli/rescaled_final/0430_rv.mp4	0.0	317.0160343647003	
69	298.06117725372314	fix_post	2		12	67.0	2.5	/experiments/knapen_AOT/AOT_stimuli/rescaled_final/0430_rv.mp4	0.0	317.5409095287323	0.10000944137573242
70	298.1611866950989	fix_pre	0		118	68.0	2.5	/experiments/knapen_AOT/AOT_stimuli/rescaled_final/1034_fw.mp4	0.0	317.64091897010803	0.9918742179870605
70	299.1369197368622	pulse	0	t		68.0	2.5	/experiments/knapen_AOT/AOT_stimuli/rescaled_final/1034_fw.mp4	0.0	318.61665201187134	
70	299.15306091308594	movie	1		284	68.0	2.5	/experiments/knapen_AOT/AOT_stimuli/rescaled_final/1034_fw.mp4	0.0	318.6327931880951	2.5003299713134766
70	300.73537611961365	pulse	1	t		68.0	2.5	/experiments/knapen_AOT/AOT_stimuli/rescaled_final/1034_fw.mp4	0.0	320.2151083946228	
70	301.6533908843994	fix_post	2		12	68.0	2.5	/experiments/knapen_AOT/AOT_stimuli/rescaled_final/1034_fw.mp4	0.0	321.13312315940857	0.10001444816589355
71	301.7534053325653	fix_pre	0		120	69.0	2.5	blank	1.0	321.23313760757446	1.000126838684082
71	302.33733558654785	pulse	0	t		69.0	2.5	blank	1.0	321.817067861557	
71	302.7535321712494	movie	1		300	69.0	2.5	blank	1.0	322.23326444625854	2.5004076957702637
71	303.9376299381256	pulse	1	t		69.0	2.5	blank	1.0	323.41736221313477	
71	305.25393986701965	fix_post	2		12	69.0	2.5	blank	1.0	324.7336721420288	0.10004401206970215
72	305.35398387908936	fix_pre	0		120	70.0	2.5	/experiments/knapen_AOT/AOT_stimuli/rescaled_final/0559_rv.mp4	0.0	324.8337161540985	1.0084607601165771
72	305.53757405281067	pulse	0	t		70.0	2.5	/experiments/knapen_AOT/AOT_stimuli/rescaled_final/0559_rv.mp4	0.0	325.0173063278198	
72	306.36244463920593	movie	1		280	70.0	2.5	/experiments/knapen_AOT/AOT_stimuli/rescaled_final/0559_rv.mp4	0.0	325.8421769142151	2.4920570850372314
72	307.1359107494354	pulse	1	t		70.0	2.5	/experiments/knapen_AOT/AOT_stimuli/rescaled_final/0559_rv.mp4	0.0	326.6156430244446	
72	308.7362563610077	pulse	1	t		70.0	2.5	/experiments/knapen_AOT/AOT_stimuli/rescaled_final/0559_rv.mp4	0.0	328.21598863601685	
72	308.85450172424316	fix_post	2		12	70.0	2.5	/experiments/knapen_AOT/AOT_stimuli/rescaled_final/0559_rv.mp4	0.0	328.3342339992523	0.09996390342712402
73	308.9544656276703	fix_pre	0		120	71.0	2.5	/experiments/knapen_AOT/AOT_stimuli/rescaled_final/1084_fw.mp4	0.0	328.43419790267944	1.008502721786499
73	309.9629683494568	movie	1		264	71.0	2.5	/experiments/knapen_AOT/AOT_stimuli/rescaled_final/1084_fw.mp4	0.0	329.44270062446594	2.492067575454712
73	310.336220741272	pulse	1	t		71.0	2.5	/experiments/knapen_AOT/AOT_stimuli/rescaled_final/1084_fw.mp4	0.0	329.8159530162811	
73	311.93675470352173	pulse	1	t		71.0	2.5	/experiments/knapen_AOT/AOT_stimuli/rescaled_final/1084_fw.mp4	0.0	331.4164869785309	
73	312.4550359249115	fix_post	2		12	71.0	2.5	/experiments/knapen_AOT/AOT_stimuli/rescaled_final/1084_fw.mp4	0.0	331.93476819992065	0.10004425048828125
74	312.5550801753998	fix_pre	0		119	72.0	2.5	/experiments/knapen_AOT/AOT_stimuli/rescaled_final/0275_rv.mp4	0.0	332.03481245040894	1.000119924545288
74	313.5387945175171	pulse	0	t		72.0	2.5	/experiments/knapen_AOT/AOT_stimuli/rescaled_final/0275_rv.mp4	0.0	333.01852679252625	
74	313.55520009994507	movie	1		290	72.0	2.5	/experiments/knapen_AOT/AOT_stimuli/rescaled_final/0275_rv.mp4	0.0	333.0349323749542	2.500418186187744
74	315.1372501850128	pulse	1	t		72.0	2.5	/experiments/knapen_AOT/AOT_stimuli/rescaled_final/0275_rv.mp4	0.0	334.616982460022	
74	316.0556182861328	fix_post	2		12	72.0	2.5	/experiments/knapen_AOT/AOT_stimuli/rescaled_final/0275_rv.mp4	0.0	335.53535056114197	0.09993934631347656
75	316.1555576324463	fix_pre	0		120	73.0	2.5	/experiments/knapen_AOT/AOT_stimuli/rescaled_final/1800_fw.mp4	0.0	335.63528990745544	1.008561372756958
75	316.7391605377197	pulse	0	t		73.0	2.5	/experiments/knapen_AOT/AOT_stimuli/rescaled_final/1800_fw.mp4	0.0	336.2188928127289	
75	317.16411900520325	movie	1		269	73.0	2.5	/experiments/knapen_AOT/AOT_stimuli/rescaled_final/1800_fw.mp4	0.0	336.6438512802124	2.4920032024383545
75	318.33732533454895	pulse	1	t		73.0	2.5	/experiments/knapen_AOT/AOT_stimuli/rescaled_final/1800_fw.mp4	0.0	337.8170576095581	
75	319.6561222076416	fix_post	2		12	73.0	2.5	/experiments/knapen_AOT/AOT_stimuli/rescaled_final/1800_fw.mp4	0.0	339.13585448265076	0.10000252723693848
76	319.75612473487854	fix_pre	0		120	74.0	2.5	/experiments/knapen_AOT/AOT_stimuli/rescaled_final/1188_fw.mp4	0.0	339.2358570098877	1.0084986686706543
76	319.93967938423157	pulse	0	t		74.0	2.5	/experiments/knapen_AOT/AOT_stimuli/rescaled_final/1188_fw.mp4	0.0	339.4194116592407	
76	320.7646234035492	movie	1		263	74.0	2.5	/experiments/knapen_AOT/AOT_stimuli/rescaled_final/1188_fw.mp4	0.0	340.24435567855835	2.4920268058776855
76	321.53819489479065	pulse	1	t		74.0	2.5	/experiments/knapen_AOT/AOT_stimuli/rescaled_final/1188_fw.mp4	0.0	341.0179271697998	
76	323.13831543922424	pulse	1	t		74.0	2.5	/experiments/knapen_AOT/AOT_stimuli/rescaled_final/1188_fw.mp4	0.0	342.6180477142334	
76	323.2566502094269	fix_post	2		12	74.0	2.5	/experiments/knapen_AOT/AOT_stimuli/rescaled_final/1188_fw.mp4	0.0	342.73638248443604	0.10009026527404785
77	323.3567404747009	fix_pre	0		120	75.0	2.5	/experiments/knapen_AOT/AOT_stimuli/rescaled_final/1905_rv.mp4	0.0	342.8364727497101	1.0084373950958252
77	324.36517786979675	movie	1		281	75.0	2.5	/experiments/knapen_AOT/AOT_stimuli/rescaled_final/1905_rv.mp4	0.0	343.8449101448059	2.49206280708313
77	324.73908591270447	pulse	1	t		75.0	2.5	/experiments/knapen_AOT/AOT_stimuli/rescaled_final/1905_rv.mp4	0.0	344.2188181877136	
77	326.3387932777405	pulse	1	t		75.0	2.5	/experiments/knapen_AOT/AOT_stimuli/rescaled_final/1905_rv.mp4	0.0	345.81852555274963	
77	326.8572406768799	fix_post	2		12	75.0	2.5	/experiments/knapen_AOT/AOT_stimuli/rescaled_final/1905_rv.mp4	0.0	346.33697295188904	0.10000061988830566
78	326.9572412967682	fix_pre	0		119	76.0	2.5	blank	1.0	346.43697357177734	0.9917566776275635
78	327.9408612251282	pulse	0	t		76.0	2.5	blank	1.0	347.42059350013733	
78	327.94899797439575	movie	1		301	76.0	2.5	blank	1.0	347.4287302494049	2.508751630783081
78	329.5411386489868	pulse	1	t		76.0	2.5	blank	1.0	349.020870923996	
78	330.45774960517883	fix_post	2		12	76.0	2.5	blank	1.0	349.937481880188	0.10001301765441895
79	330.55776262283325	fix_pre	0		120	77.0	2.5	/experiments/knapen_AOT/AOT_stimuli/rescaled_final/0535_fw.mp4	0.0	350.0374948978424	1.0084562301635742
79	331.1414225101471	pulse	0	t		77.0	2.5	/experiments/knapen_AOT/AOT_stimuli/rescaled_final/0535_fw.mp4	0.0	350.62115478515625	
79	331.5662188529968	movie	1		283	77.0	2.5	/experiments/knapen_AOT/AOT_stimuli/rescaled_final/0535_fw.mp4	0.0	351.045951128006	2.4920828342437744
79	332.7417633533478	pulse	1	t		77.0	2.5	/experiments/knapen_AOT/AOT_stimuli/rescaled_final/0535_fw.mp4	0.0	352.22149562835693	
79	334.0583016872406	fix_post	2		12	77.0	2.5	/experiments/knapen_AOT/AOT_stimuli/rescaled_final/0535_fw.mp4	0.0	353.53803396224976	0.10001587867736816
80	334.15831756591797	fix_pre	0		120	78.0	2.5	/experiments/knapen_AOT/AOT_stimuli/rescaled_final/0168_fw.mp4	0.0	353.6380498409271	1.0085549354553223
80	334.3419301509857	pulse	0	t		78.0	2.5	/experiments/knapen_AOT/AOT_stimuli/rescaled_final/0168_fw.mp4	0.0	353.8216624259949	
80	335.1668725013733	movie	1		280	78.0	2.5	/experiments/knapen_AOT/AOT_stimuli/rescaled_final/0168_fw.mp4	0.0	354.64660477638245	2.491920232772827
80	335.9404618740082	pulse	1	t		78.0	2.5	/experiments/knapen_AOT/AOT_stimuli/rescaled_final/0168_fw.mp4	0.0	355.42019414901733	
80	337.5407648086548	pulse	1	t		78.0	2.5	/experiments/knapen_AOT/AOT_stimuli/rescaled_final/0168_fw.mp4	0.0	357.02049708366394	
80	337.6587927341461	fix_post	2		12	78.0	2.5	/experiments/knapen_AOT/AOT_stimuli/rescaled_final/0168_fw.mp4	0.0	357.1385250091553	0.10002660751342773
81	337.75881934165955	fix_pre	0		120	79.0	2.5	/experiments/knapen_AOT/AOT_stimuli/rescaled_final/2129_fw.mp4	0.0	357.2385516166687	1.0085492134094238
81	338.76736855506897	movie	1		284	79.0	2.5	/experiments/knapen_AOT/AOT_stimuli/rescaled_final/2129_fw.mp4	0.0	358.2471008300781	2.4919779300689697
81	339.1407973766327	pulse	1	t		79.0	2.5	/experiments/knapen_AOT/AOT_stimuli/rescaled_final/2129_fw.mp4	0.0	358.62052965164185	
81	340.7408208847046	pulse	1	t		79.0	2.5	/experiments/knapen_AOT/AOT_stimuli/rescaled_final/2129_fw.mp4	0.0	360.22055315971375	
81	341.25934648513794	fix_post	2		12	79.0	2.5	/experiments/knapen_AOT/AOT_stimuli/rescaled_final/2129_fw.mp4	0.0	360.7390787601471	0.1000678539276123
82	341.35941433906555	fix_pre	0		119	80.0	2.5	/experiments/knapen_AOT/AOT_stimuli/rescaled_final/0209_fw.mp4	0.0	360.8391466140747	1.0001211166381836
82	342.3355767726898	pulse	0	t		80.0	2.5	/experiments/knapen_AOT/AOT_stimuli/rescaled_final/0209_fw.mp4	0.0	361.815309047699	
82	342.35953545570374	movie	1		275	80.0	2.5	/experiments/knapen_AOT/AOT_stimuli/rescaled_final/0209_fw.mp4	0.0	361.8392677307129	2.5003371238708496
82	343.9427194595337	pulse	1	t		80.0	2.5	/experiments/knapen_AOT/AOT_stimuli/rescaled_final/0209_fw.mp4	0.0	363.42245173454285	
82	344.8598725795746	fix_post	2		12	80.0	2.5	/experiments/knapen_AOT/AOT_stimuli/rescaled_final/0209_fw.mp4	0.0	364.33960485458374	0.1000213623046875
83	344.9598939418793	fix_pre	0		120	81.0	2.5	/experiments/knapen_AOT/AOT_stimuli/rescaled_final/0158_fw.mp4	0.0	364.4396262168884	1.008507490158081
83	345.5357496738434	pulse	0	t		81.0	2.5	/experiments/knapen_AOT/AOT_stimuli/rescaled_final/0158_fw.mp4	0.0	365.01548194885254	
83	345.96840143203735	movie	1		276	81.0	2.5	/experiments/knapen_AOT/AOT_stimuli/rescaled_final/0158_fw.mp4	0.0	365.4481337070465	2.4921035766601562
83	347.13603496551514	pulse	1	t		81.0	2.5	/experiments/knapen_AOT/AOT_stimuli/rescaled_final/0158_fw.mp4	0.0	366.6157672405243	
83	348.4605050086975	fix_post	2		12	81.0	2.5	/experiments/knapen_AOT/AOT_stimuli/rescaled_final/0158_fw.mp4	0.0	367.94023728370667	0.10001206398010254
84	348.5605170726776	fix_pre	0		120	82.0	2.5	/experiments/knapen_AOT/AOT_stimuli/rescaled_final/0262_rv.mp4	0.0	368.04024934768677	1.0084197521209717
84	348.73573994636536	pulse	0	t		82.0	2.5	/experiments/knapen_AOT/AOT_stimuli/rescaled_final/0262_rv.mp4	0.0	368.2154722213745	
84	349.5689368247986	movie	1		266	82.0	2.5	/experiments/knapen_AOT/AOT_stimuli/rescaled_final/0262_rv.mp4	0.0	369.04866909980774	2.492051601409912
84	350.33556365966797	pulse	1	t		82.0	2.5	/experiments/knapen_AOT/AOT_stimuli/rescaled_final/0262_rv.mp4	0.0	369.8152959346771	
84	351.9357821941376	pulse	1	t		82.0	2.5	/experiments/knapen_AOT/AOT_stimuli/rescaled_final/0262_rv.mp4	0.0	371.41551446914673	
84	352.0609884262085	fix_post	2		12	82.0	2.5	/experiments/knapen_AOT/AOT_stimuli/rescaled_final/0262_rv.mp4	0.0	371.54072070121765	0.10020899772644043
85	352.16119742393494	fix_pre	0		120	83.0	2.5	blank	1.0	371.6409296989441	0.9999334812164307
85	353.16113090515137	movie	1		300	83.0	2.5	blank	1.0	372.6408631801605	2.5003843307495117
85	353.536390542984	pulse	1	t		83.0	2.5	blank	1.0	373.01612281799316	
85	355.1367611885071	pulse	1	t		83.0	2.5	blank	1.0	374.61649346351624	
85	355.6615152359009	fix_post	2		12	83.0	2.5	blank	1.0	375.14124751091003	0.1000213623046875
87	355.76153659820557	stim	0		1715					375.2412688732147	14.293833494186401
87	356.73707032203674	pulse	0	t						376.2168025970459	
87	358.337144613266	pulse	0	t						377.81687688827515	
87	359.93732023239136	pulse	0	t						379.4170525074005	
87	361.5376191139221	pulse	0	t						381.0173513889313	
87	363.1379072666168	pulse	0	t						382.617639541626	
87	364.7380459308624	pulse	0	t						384.2177782058716	
87	366.3385488986969	pulse	0	t						385.81828117370605	
87	367.9386034011841	pulse	0	t						387.41833567619324	
87	369.5388424396515	pulse	0	t						389.01857471466064	
