trial_nr	onset	event_type	phase	response	nr_frames	movie_index	movie_duration	movie_file	blank	onset_abs	duration
0	0.1583240032196045	stim	0		130					22.9185631275177	1.083204984664917
0	1.2335209846496582	response	0	space						23.993760108947754	
1	1.2415289878845215	stim	0		4456					24.001768112182617	37.1326060295105
1	38.371251821517944	pulse	0	t						61.13149094581604	
1	38.37413501739502	stim	1		1717					61.134374141693115	14.308642864227295
1	39.96655488014221	pulse	1	t						62.72679400444031	
1	41.566537857055664	pulse	1	t						64.32677698135376	
1	43.16648888587952	pulse	1	t						65.92672801017761	
1	44.76652002334595	pulse	1	t						67.52675914764404	
1	46.3665030002594	pulse	1	t						69.1267421245575	
1	47.966492891311646	pulse	1	t						70.72673201560974	
1	49.56653904914856	pulse	1	t						72.32677817344666	
1	51.16611385345459	pulse	1	t						73.92635297775269	
2	52.682777881622314	fix_pre	0		11	0.0	2.5	/experiments/AOT/AOT_stimuli/rescaled_final/1899_rv.mp4	0.0	75.44301700592041	0.09173917770385742
2	52.76677989959717	pulse	0	t		0.0	2.5	/experiments/AOT/AOT_stimuli/rescaled_final/1899_rv.mp4	0.0	75.52701902389526	
2	52.77451705932617	movie	1		239	0.0	2.5	/experiments/AOT/AOT_stimuli/rescaled_final/1899_rv.mp4	0.0	75.53475618362427	2.50799298286438
2	54.36598300933838	pulse	1	t		0.0	2.5	/experiments/AOT/AOT_stimuli/rescaled_final/1899_rv.mp4	0.0	77.12622213363647	
2	55.28251004219055	fix_post	2		12	0.0	2.5	/experiments/AOT/AOT_stimuli/rescaled_final/1899_rv.mp4	0.0	78.04274916648865	0.10044193267822266
3	55.382951974868774	fix_pre	0		120	1.0	2.5	/experiments/AOT/AOT_stimuli/rescaled_final/0112_rv.mp4	0.0	78.14319109916687	0.9999868869781494
3	55.966495990753174	pulse	0	t		1.0	2.5	/experiments/AOT/AOT_stimuli/rescaled_final/0112_rv.mp4	0.0	78.72673511505127	
3	56.382938861846924	movie	1		244	1.0	2.5	/experiments/AOT/AOT_stimuli/rescaled_final/0112_rv.mp4	0.0	79.14317798614502	2.4999501705169678
3	57.56656098365784	pulse	1	t		1.0	2.5	/experiments/AOT/AOT_stimuli/rescaled_final/0112_rv.mp4	0.0	80.32680010795593	
3	58.88288903236389	fix_post	2		12	1.0	2.5	/experiments/AOT/AOT_stimuli/rescaled_final/0112_rv.mp4	0.0	81.64312815666199	0.09996294975280762
4	58.9828519821167	fix_pre	0		120	2.0	2.5	/experiments/AOT/AOT_stimuli/rescaled_final/0285_rv.mp4	0.0	81.7430911064148	1.0001220703125
4	59.16651105880737	pulse	0	t		2.0	2.5	/experiments/AOT/AOT_stimuli/rescaled_final/0285_rv.mp4	0.0	81.92675018310547	
4	59.9829740524292	movie	1		244	2.0	2.5	/experiments/AOT/AOT_stimuli/rescaled_final/0285_rv.mp4	0.0	82.7432131767273	2.500020980834961
4	60.76634502410889	pulse	1	t		2.0	2.5	/experiments/AOT/AOT_stimuli/rescaled_final/0285_rv.mp4	0.0	83.52658414840698	
4	62.364830017089844	pulse	1	t		2.0	2.5	/experiments/AOT/AOT_stimuli/rescaled_final/0285_rv.mp4	0.0	85.12506914138794	
4	62.48299503326416	fix_post	2		12	2.0	2.5	/experiments/AOT/AOT_stimuli/rescaled_final/0285_rv.mp4	0.0	85.24323415756226	0.09991192817687988
5	62.58290696144104	fix_pre	0		120	3.0	2.5	/experiments/AOT/AOT_stimuli/rescaled_final/0486_fw.mp4	0.0	85.34314608573914	1.0000228881835938
5	63.582929849624634	movie	1		246	3.0	2.5	/experiments/AOT/AOT_stimuli/rescaled_final/0486_fw.mp4	0.0	86.34316897392273	2.500035047531128
5	63.965906858444214	pulse	1	t		3.0	2.5	/experiments/AOT/AOT_stimuli/rescaled_final/0486_fw.mp4	0.0	86.72614598274231	
5	65.56639194488525	pulse	1	t		3.0	2.5	/experiments/AOT/AOT_stimuli/rescaled_final/0486_fw.mp4	0.0	88.32663106918335	
5	66.08296489715576	fix_post	2		12	3.0	2.5	/experiments/AOT/AOT_stimuli/rescaled_final/0486_fw.mp4	0.0	88.84320402145386	0.09996914863586426
6	66.18293404579163	fix_pre	0		119	4.0	2.5	/experiments/AOT/AOT_stimuli/rescaled_final/1762_rv.mp4	0.0	88.94317317008972	0.9915399551391602
6	67.16626787185669	pulse	0	t		4.0	2.5	/experiments/AOT/AOT_stimuli/rescaled_final/1762_rv.mp4	0.0	89.92650699615479	
6	67.17447400093079	movie	1		246	4.0	2.5	/experiments/AOT/AOT_stimuli/rescaled_final/1762_rv.mp4	0.0	89.93471312522888	2.5084068775177
6	68.7661669254303	pulse	1	t		4.0	2.5	/experiments/AOT/AOT_stimuli/rescaled_final/1762_rv.mp4	0.0	91.5264060497284	
6	69.68288087844849	fix_post	2		12	4.0	2.5	/experiments/AOT/AOT_stimuli/rescaled_final/1762_rv.mp4	0.0	92.44312000274658	0.10003805160522461
7	69.78291893005371	fix_pre	0		120	5.0	2.5	/experiments/AOT/AOT_stimuli/rescaled_final/1359_rv.mp4	0.0	92.5431580543518	0.9998791217803955
7	70.3663809299469	pulse	0	t		5.0	2.5	/experiments/AOT/AOT_stimuli/rescaled_final/1359_rv.mp4	0.0	93.126620054245	
7	70.7827980518341	movie	1		243	5.0	2.5	/experiments/AOT/AOT_stimuli/rescaled_final/1359_rv.mp4	0.0	93.5430371761322	2.5000438690185547
7	71.96640396118164	pulse	1	t		5.0	2.5	/experiments/AOT/AOT_stimuli/rescaled_final/1359_rv.mp4	0.0	94.72664308547974	
7	73.28284192085266	fix_post	2		12	5.0	2.5	/experiments/AOT/AOT_stimuli/rescaled_final/1359_rv.mp4	0.0	96.04308104515076	0.100006103515625
8	73.38284802436829	fix_pre	0		120	6.0	2.5	blank	1.0	96.14308714866638	1.0000050067901611
8	73.56632804870605	pulse	0	t		6.0	2.5	blank	1.0	96.32656717300415	
8	74.38285303115845	movie	1		300	6.0	2.5	blank	1.0	97.14309215545654	2.5000178813934326
8	75.1663749217987	pulse	1	t		6.0	2.5	blank	1.0	97.9266140460968	
8	76.7663369178772	pulse	1	t		6.0	2.5	blank	1.0	99.5265760421753	
8	76.88287091255188	fix_post	2		12	6.0	2.5	blank	1.0	99.64311003684998	0.09999203681945801
9	76.98286294937134	fix_pre	0		120	7.0	2.5	/experiments/AOT/AOT_stimuli/rescaled_final/0539_rv.mp4	0.0	99.74310207366943	0.9999470710754395
9	77.98281002044678	movie	1		244	7.0	2.5	/experiments/AOT/AOT_stimuli/rescaled_final/0539_rv.mp4	0.0	100.74304914474487	2.5000159740448
9	78.36584186553955	pulse	1	t		7.0	2.5	/experiments/AOT/AOT_stimuli/rescaled_final/0539_rv.mp4	0.0	101.12608098983765	
9	79.96632885932922	pulse	1	t		7.0	2.5	/experiments/AOT/AOT_stimuli/rescaled_final/0539_rv.mp4	0.0	102.72656798362732	
9	80.48282599449158	fix_post	2		12	7.0	2.5	/experiments/AOT/AOT_stimuli/rescaled_final/0539_rv.mp4	0.0	103.24306511878967	0.09998297691345215
10	80.58280897140503	fix_pre	0		119	8.0	2.5	/experiments/AOT/AOT_stimuli/rescaled_final/1902_fw.mp4	0.0	103.34304809570312	0.9916589260101318
10	81.56638693809509	pulse	0	t		8.0	2.5	/experiments/AOT/AOT_stimuli/rescaled_final/1902_fw.mp4	0.0	104.32662606239319	
10	81.57446789741516	movie	1		247	8.0	2.5	/experiments/AOT/AOT_stimuli/rescaled_final/1902_fw.mp4	0.0	104.33470702171326	2.508284091949463
10	83.16593503952026	pulse	1	t		8.0	2.5	/experiments/AOT/AOT_stimuli/rescaled_final/1902_fw.mp4	0.0	105.92617416381836	
10	84.08275198936462	fix_post	2		12	8.0	2.5	/experiments/AOT/AOT_stimuli/rescaled_final/1902_fw.mp4	0.0	106.84299111366272	0.10002493858337402
11	84.182776927948	fix_pre	0		120	9.0	2.5	/experiments/AOT/AOT_stimuli/rescaled_final/1397_fw.mp4	0.0	106.9430160522461	1.0000059604644775
11	84.76635193824768	pulse	0	t		9.0	2.5	/experiments/AOT/AOT_stimuli/rescaled_final/1397_fw.mp4	0.0	107.52659106254578	
11	85.18278288841248	movie	1		245	9.0	2.5	/experiments/AOT/AOT_stimuli/rescaled_final/1397_fw.mp4	0.0	107.94302201271057	2.4999680519104004
11	86.36636185646057	pulse	1	t		9.0	2.5	/experiments/AOT/AOT_stimuli/rescaled_final/1397_fw.mp4	0.0	109.12660098075867	
11	87.68275094032288	fix_post	2		12	9.0	2.5	/experiments/AOT/AOT_stimuli/rescaled_final/1397_fw.mp4	0.0	110.44299006462097	0.10008597373962402
12	87.7828369140625	fix_pre	0		120	10.0	2.5	/experiments/AOT/AOT_stimuli/rescaled_final/0379_fw.mp4	0.0	110.5430760383606	0.9999339580535889
12	87.96629190444946	pulse	0	t		10.0	2.5	/experiments/AOT/AOT_stimuli/rescaled_final/0379_fw.mp4	0.0	110.72653102874756	
12	88.78277087211609	movie	1		244	10.0	2.5	/experiments/AOT/AOT_stimuli/rescaled_final/0379_fw.mp4	0.0	111.54300999641418	2.5000009536743164
12	89.5662899017334	pulse	1	t		10.0	2.5	/experiments/AOT/AOT_stimuli/rescaled_final/0379_fw.mp4	0.0	112.3265290260315	
12	91.16462588310242	pulse	1	t		10.0	2.5	/experiments/AOT/AOT_stimuli/rescaled_final/0379_fw.mp4	0.0	113.92486500740051	
12	91.2827718257904	fix_post	2		12	10.0	2.5	/experiments/AOT/AOT_stimuli/rescaled_final/0379_fw.mp4	0.0	114.0430109500885	0.10003113746643066
13	91.38280296325684	fix_pre	0		120	11.0	2.5	/experiments/AOT/AOT_stimuli/rescaled_final/1998_rv.mp4	0.0	114.14304208755493	0.9999508857727051
13	92.38275384902954	movie	1		243	11.0	2.5	/experiments/AOT/AOT_stimuli/rescaled_final/1998_rv.mp4	0.0	115.14299297332764	2.500030994415283
13	92.76621890068054	pulse	1	t		11.0	2.5	/experiments/AOT/AOT_stimuli/rescaled_final/1998_rv.mp4	0.0	115.52645802497864	
13	94.3661789894104	pulse	1	t		11.0	2.5	/experiments/AOT/AOT_stimuli/rescaled_final/1998_rv.mp4	0.0	117.1264181137085	
13	94.88278484344482	fix_post	2		12	11.0	2.5	/experiments/AOT/AOT_stimuli/rescaled_final/1998_rv.mp4	0.0	117.64302396774292	0.09997105598449707
14	94.98275589942932	fix_pre	0		119	12.0	2.5	/experiments/AOT/AOT_stimuli/rescaled_final/0765_fw.mp4	0.0	117.74299502372742	0.9916901588439941
14	95.96629595756531	pulse	0	t		12.0	2.5	/experiments/AOT/AOT_stimuli/rescaled_final/0765_fw.mp4	0.0	118.7265350818634	
14	95.97444605827332	movie	1		247	12.0	2.5	/experiments/AOT/AOT_stimuli/rescaled_final/0765_fw.mp4	0.0	118.73468518257141	2.508269786834717
14	97.56589484214783	pulse	1	t		12.0	2.5	/experiments/AOT/AOT_stimuli/rescaled_final/0765_fw.mp4	0.0	120.32613396644592	
14	98.48271584510803	fix_post	2		12	12.0	2.5	/experiments/AOT/AOT_stimuli/rescaled_final/0765_fw.mp4	0.0	121.24295496940613	0.10002517700195312
15	98.58274102210999	fix_pre	0		120	13.0	2.5	/experiments/AOT/AOT_stimuli/rescaled_final/0486_fw.mp4	0.0	121.34298014640808	0.9999909400939941
15	99.15991497039795	pulse	0	t		13.0	2.5	/experiments/AOT/AOT_stimuli/rescaled_final/0486_fw.mp4	0.0	121.92015409469604	
15	99.58273196220398	movie	1		245	13.0	2.5	/experiments/AOT/AOT_stimuli/rescaled_final/0486_fw.mp4	0.0	122.34297108650208	2.4999570846557617
15	100.76616096496582	pulse	1	t		13.0	2.5	/experiments/AOT/AOT_stimuli/rescaled_final/0486_fw.mp4	0.0	123.52640008926392	
15	102.08268904685974	fix_post	2		12	13.0	2.5	/experiments/AOT/AOT_stimuli/rescaled_final/0486_fw.mp4	0.0	124.84292817115784	0.10000491142272949
16	102.18269395828247	fix_pre	0		120	14.0	2.5	blank	1.0	124.94293308258057	0.9999830722808838
16	102.36628103256226	pulse	0	t		14.0	2.5	blank	1.0	125.12652015686035	
16	103.18267703056335	movie	1		300	14.0	2.5	blank	1.0	125.94291615486145	2.4995808601379395
16	103.96613597869873	pulse	1	t		14.0	2.5	blank	1.0	126.72637510299683	
16	105.56626105308533	pulse	1	t		14.0	2.5	blank	1.0	128.32650017738342	
16	105.6822578907013	fix_post	2		12	14.0	2.5	blank	1.0	128.4424970149994	0.10004496574401855
17	105.78230285644531	fix_pre	0		120	15.0	2.5	/experiments/AOT/AOT_stimuli/rescaled_final/1215_rv.mp4	0.0	128.5425419807434	1.0000200271606445
17	106.78232288360596	movie	1		246	15.0	2.5	/experiments/AOT/AOT_stimuli/rescaled_final/1215_rv.mp4	0.0	129.54256200790405	2.5003950595855713
17	107.1653618812561	pulse	1	t		15.0	2.5	/experiments/AOT/AOT_stimuli/rescaled_final/1215_rv.mp4	0.0	129.9256010055542	
17	108.76593899726868	pulse	1	t		15.0	2.5	/experiments/AOT/AOT_stimuli/rescaled_final/1215_rv.mp4	0.0	131.52617812156677	
17	109.28271794319153	fix_post	2		12	15.0	2.5	/experiments/AOT/AOT_stimuli/rescaled_final/1215_rv.mp4	0.0	132.04295706748962	0.10004997253417969
18	109.38276791572571	fix_pre	0		119	16.0	2.5	/experiments/AOT/AOT_stimuli/rescaled_final/1311_fw.mp4	0.0	132.1430070400238	0.9915950298309326
18	110.36618494987488	pulse	0	t		16.0	2.5	/experiments/AOT/AOT_stimuli/rescaled_final/1311_fw.mp4	0.0	133.12642407417297	
18	110.37436294555664	movie	1		246	16.0	2.5	/experiments/AOT/AOT_stimuli/rescaled_final/1311_fw.mp4	0.0	133.13460206985474	2.5083370208740234
18	111.96562099456787	pulse	1	t		16.0	2.5	/experiments/AOT/AOT_stimuli/rescaled_final/1311_fw.mp4	0.0	134.72586011886597	
18	112.88269996643066	fix_post	2		12	16.0	2.5	/experiments/AOT/AOT_stimuli/rescaled_final/1311_fw.mp4	0.0	135.64293909072876	0.10001397132873535
19	112.9827139377594	fix_pre	0		120	17.0	2.5	/experiments/AOT/AOT_stimuli/rescaled_final/0413_fw.mp4	0.0	135.7429530620575	0.999845027923584
19	113.56624293327332	pulse	0	t		17.0	2.5	/experiments/AOT/AOT_stimuli/rescaled_final/0413_fw.mp4	0.0	136.3264820575714	
19	113.98255896568298	movie	1		245	17.0	2.5	/experiments/AOT/AOT_stimuli/rescaled_final/0413_fw.mp4	0.0	136.74279808998108	2.5000360012054443
19	115.16613698005676	pulse	1	t		17.0	2.5	/experiments/AOT/AOT_stimuli/rescaled_final/0413_fw.mp4	0.0	137.92637610435486	
19	116.48259496688843	fix_post	2		12	17.0	2.5	/experiments/AOT/AOT_stimuli/rescaled_final/0413_fw.mp4	0.0	139.24283409118652	0.09993600845336914
20	116.5825309753418	fix_pre	0		120	18.0	2.5	/experiments/AOT/AOT_stimuli/rescaled_final/2164_rv.mp4	0.0	139.3427700996399	1.0000629425048828
20	116.76610803604126	pulse	0	t		18.0	2.5	/experiments/AOT/AOT_stimuli/rescaled_final/2164_rv.mp4	0.0	139.52634716033936	
20	117.58259391784668	movie	1		243	18.0	2.5	/experiments/AOT/AOT_stimuli/rescaled_final/2164_rv.mp4	0.0	140.34283304214478	2.4999890327453613
20	118.36606884002686	pulse	1	t		18.0	2.5	/experiments/AOT/AOT_stimuli/rescaled_final/2164_rv.mp4	0.0	141.12630796432495	
20	119.96452188491821	pulse	1	t		18.0	2.5	/experiments/AOT/AOT_stimuli/rescaled_final/2164_rv.mp4	0.0	142.7247610092163	
20	120.08258295059204	fix_post	2		12	18.0	2.5	/experiments/AOT/AOT_stimuli/rescaled_final/2164_rv.mp4	0.0	142.84282207489014	0.10005807876586914
21	120.18264102935791	fix_pre	0		120	19.0	2.5	/experiments/AOT/AOT_stimuli/rescaled_final/1435_fw.mp4	0.0	142.942880153656	1.000025987625122
21	121.18266701698303	movie	1		243	19.0	2.5	/experiments/AOT/AOT_stimuli/rescaled_final/1435_fw.mp4	0.0	143.94290614128113	2.499903917312622
21	121.56561589241028	pulse	1	t		19.0	2.5	/experiments/AOT/AOT_stimuli/rescaled_final/1435_fw.mp4	0.0	144.32585501670837	
21	123.16605305671692	pulse	1	t		19.0	2.5	/experiments/AOT/AOT_stimuli/rescaled_final/1435_fw.mp4	0.0	145.92629218101501	
21	123.68257093429565	fix_post	2		12	19.0	2.5	/experiments/AOT/AOT_stimuli/rescaled_final/1435_fw.mp4	0.0	146.44281005859375	0.09996700286865234
22	123.7825379371643	fix_pre	0		119	20.0	2.5	blank	1.0	146.5427770614624	0.9916820526123047
22	124.76609301567078	pulse	0	t		20.0	2.5	blank	1.0	147.52633213996887	
22	124.77421998977661	movie	1		301	20.0	2.5	blank	1.0	147.5344591140747	2.5084168910980225
22	126.36613392829895	pulse	1	t		20.0	2.5	blank	1.0	149.12637305259705	
22	127.28263688087463	fix_post	2		12	20.0	2.5	blank	1.0	150.04287600517273	0.09999704360961914
23	127.38263392448425	fix_pre	0		120	21.0	2.5	/experiments/AOT/AOT_stimuli/rescaled_final/0859_fw.mp4	0.0	150.14287304878235	1.0000410079956055
23	127.9661009311676	pulse	0	t		21.0	2.5	/experiments/AOT/AOT_stimuli/rescaled_final/0859_fw.mp4	0.0	150.7263400554657	
23	128.38267493247986	movie	1		245	21.0	2.5	/experiments/AOT/AOT_stimuli/rescaled_final/0859_fw.mp4	0.0	151.14291405677795	2.499843120574951
23	129.56608986854553	pulse	1	t		21.0	2.5	/experiments/AOT/AOT_stimuli/rescaled_final/0859_fw.mp4	0.0	152.32632899284363	
23	130.8825180530548	fix_post	2		12	21.0	2.5	/experiments/AOT/AOT_stimuli/rescaled_final/0859_fw.mp4	0.0	153.6427571773529	0.09994983673095703
24	130.98246788978577	fix_pre	0		120	22.0	2.5	/experiments/AOT/AOT_stimuli/rescaled_final/1225_fw.mp4	0.0	153.74270701408386	1.0000360012054443
24	131.16603899002075	pulse	0	t		22.0	2.5	/experiments/AOT/AOT_stimuli/rescaled_final/1225_fw.mp4	0.0	153.92627811431885	
24	131.9825038909912	movie	1		245	22.0	2.5	/experiments/AOT/AOT_stimuli/rescaled_final/1225_fw.mp4	0.0	154.7427430152893	2.500056028366089
24	132.76604890823364	pulse	1	t		22.0	2.5	/experiments/AOT/AOT_stimuli/rescaled_final/1225_fw.mp4	0.0	155.52628803253174	
24	134.36463403701782	pulse	1	t		22.0	2.5	/experiments/AOT/AOT_stimuli/rescaled_final/1225_fw.mp4	0.0	157.12487316131592	
24	134.4825599193573	fix_post	2		12	22.0	2.5	/experiments/AOT/AOT_stimuli/rescaled_final/1225_fw.mp4	0.0	157.2427990436554	0.10001301765441895
25	134.58257293701172	fix_pre	0		120	23.0	2.5	/experiments/AOT/AOT_stimuli/rescaled_final/1692_rv.mp4	0.0	157.34281206130981	0.9999990463256836
25	135.5825719833374	movie	1		245	23.0	2.5	/experiments/AOT/AOT_stimuli/rescaled_final/1692_rv.mp4	0.0	158.3428111076355	2.4999918937683105
25	135.96706891059875	pulse	1	t		23.0	2.5	/experiments/AOT/AOT_stimuli/rescaled_final/1692_rv.mp4	0.0	158.72730803489685	
25	137.56614303588867	pulse	1	t		23.0	2.5	/experiments/AOT/AOT_stimuli/rescaled_final/1692_rv.mp4	0.0	160.32638216018677	
25	138.0825638771057	fix_post	2		12	23.0	2.5	/experiments/AOT/AOT_stimuli/rescaled_final/1692_rv.mp4	0.0	160.8428030014038	0.0998990535736084
26	138.18246293067932	fix_pre	0		119	24.0	2.5	/experiments/AOT/AOT_stimuli/rescaled_final/1854_fw.mp4	0.0	160.94270205497742	0.991718053817749
26	139.16593503952026	pulse	0	t		24.0	2.5	/experiments/AOT/AOT_stimuli/rescaled_final/1854_fw.mp4	0.0	161.92617416381836	
26	139.17418098449707	movie	1		243	24.0	2.5	/experiments/AOT/AOT_stimuli/rescaled_final/1854_fw.mp4	0.0	161.93442010879517	2.508354902267456
26	140.76566290855408	pulse	1	t		24.0	2.5	/experiments/AOT/AOT_stimuli/rescaled_final/1854_fw.mp4	0.0	163.52590203285217	
26	141.68253588676453	fix_post	2		12	24.0	2.5	/experiments/AOT/AOT_stimuli/rescaled_final/1854_fw.mp4	0.0	164.44277501106262	0.09993600845336914
27	141.7824718952179	fix_pre	0		120	25.0	2.5	/experiments/AOT/AOT_stimuli/rescaled_final/0299_rv.mp4	0.0	164.542711019516	1.0001671314239502
27	142.36597394943237	pulse	0	t		25.0	2.5	/experiments/AOT/AOT_stimuli/rescaled_final/0299_rv.mp4	0.0	165.12621307373047	
27	142.78263902664185	movie	1		244	25.0	2.5	/experiments/AOT/AOT_stimuli/rescaled_final/0299_rv.mp4	0.0	165.54287815093994	2.49981689453125
27	143.96601486206055	pulse	1	t		25.0	2.5	/experiments/AOT/AOT_stimuli/rescaled_final/0299_rv.mp4	0.0	166.72625398635864	
27	145.2824559211731	fix_post	2		12	25.0	2.5	/experiments/AOT/AOT_stimuli/rescaled_final/0299_rv.mp4	0.0	168.0426950454712	0.10010194778442383
28	145.38255786895752	fix_pre	0		120	26.0	2.5	blank	1.0	168.14279699325562	0.9998900890350342
28	145.56596398353577	pulse	0	t		26.0	2.5	blank	1.0	168.32620310783386	
28	146.38244795799255	movie	1		300	26.0	2.5	blank	1.0	169.14268708229065	2.500127077102661
28	147.16594099998474	pulse	1	t		26.0	2.5	blank	1.0	169.92618012428284	
28	148.765930891037	pulse	1	t		26.0	2.5	blank	1.0	171.52617001533508	
28	148.88257503509521	fix_post	2		12	26.0	2.5	blank	1.0	171.6428141593933	0.0998239517211914
29	148.9823989868164	fix_pre	0		120	27.0	2.5	/experiments/AOT/AOT_stimuli/rescaled_final/0667_fw.mp4	0.0	171.7426381111145	1.0000889301300049
29	149.9824879169464	movie	1		243	27.0	2.5	/experiments/AOT/AOT_stimuli/rescaled_final/0667_fw.mp4	0.0	172.7427270412445	2.4999630451202393
29	150.36547684669495	pulse	1	t		27.0	2.5	/experiments/AOT/AOT_stimuli/rescaled_final/0667_fw.mp4	0.0	173.12571597099304	
29	151.96589303016663	pulse	1	t		27.0	2.5	/experiments/AOT/AOT_stimuli/rescaled_final/0667_fw.mp4	0.0	174.72613215446472	
29	152.48245096206665	fix_post	2		12	27.0	2.5	/experiments/AOT/AOT_stimuli/rescaled_final/0667_fw.mp4	0.0	175.24269008636475	0.09997391700744629
30	152.5824248790741	fix_pre	0		119	28.0	2.5	/experiments/AOT/AOT_stimuli/rescaled_final/0626_rv.mp4	0.0	175.3426640033722	0.9916520118713379
30	153.5659158229828	pulse	0	t		28.0	2.5	/experiments/AOT/AOT_stimuli/rescaled_final/0626_rv.mp4	0.0	176.32615494728088	
30	153.57407689094543	movie	1		246	28.0	2.5	/experiments/AOT/AOT_stimuli/rescaled_final/0626_rv.mp4	0.0	176.33431601524353	2.508388042449951
30	155.16576290130615	pulse	1	t		28.0	2.5	/experiments/AOT/AOT_stimuli/rescaled_final/0626_rv.mp4	0.0	177.92600202560425	
30	156.08246493339539	fix_post	2		12	28.0	2.5	/experiments/AOT/AOT_stimuli/rescaled_final/0626_rv.mp4	0.0	178.84270405769348	0.09989690780639648
31	156.18236184120178	fix_pre	0		120	29.0	2.5	/experiments/AOT/AOT_stimuli/rescaled_final/0679_rv.mp4	0.0	178.94260096549988	1.0000669956207275
31	156.76720595359802	pulse	0	t		29.0	2.5	/experiments/AOT/AOT_stimuli/rescaled_final/0679_rv.mp4	0.0	179.52744507789612	
31	157.1824288368225	movie	1		245	29.0	2.5	/experiments/AOT/AOT_stimuli/rescaled_final/0679_rv.mp4	0.0	179.9426679611206	2.4999001026153564
31	158.36605095863342	pulse	1	t		29.0	2.5	/experiments/AOT/AOT_stimuli/rescaled_final/0679_rv.mp4	0.0	181.12629008293152	
31	159.68232893943787	fix_post	2		12	29.0	2.5	/experiments/AOT/AOT_stimuli/rescaled_final/0679_rv.mp4	0.0	182.44256806373596	0.1001288890838623
32	159.78245782852173	fix_pre	0		120	30.0	2.5	/experiments/AOT/AOT_stimuli/rescaled_final/1195_rv.mp4	0.0	182.54269695281982	1.000049114227295
32	159.96595788002014	pulse	0	t		30.0	2.5	/experiments/AOT/AOT_stimuli/rescaled_final/1195_rv.mp4	0.0	182.72619700431824	
32	160.78250694274902	movie	1		246	30.0	2.5	/experiments/AOT/AOT_stimuli/rescaled_final/1195_rv.mp4	0.0	183.54274606704712	2.4995999336242676
32	161.5658459663391	pulse	1	t		30.0	2.5	/experiments/AOT/AOT_stimuli/rescaled_final/1195_rv.mp4	0.0	184.3260850906372	
32	163.16174697875977	pulse	1	t		30.0	2.5	/experiments/AOT/AOT_stimuli/rescaled_final/1195_rv.mp4	0.0	185.92198610305786	
32	163.2821068763733	fix_post	2		12	30.0	2.5	/experiments/AOT/AOT_stimuli/rescaled_final/1195_rv.mp4	0.0	186.0423460006714	0.09997296333312988
33	163.38207983970642	fix_pre	0		120	31.0	2.5	/experiments/AOT/AOT_stimuli/rescaled_final/1024_fw.mp4	0.0	186.14231896400452	1.0002241134643555
33	164.38230395317078	movie	1		243	31.0	2.5	/experiments/AOT/AOT_stimuli/rescaled_final/1024_fw.mp4	0.0	187.14254307746887	2.500098943710327
33	164.7654299736023	pulse	1	t		31.0	2.5	/experiments/AOT/AOT_stimuli/rescaled_final/1024_fw.mp4	0.0	187.5256690979004	
33	166.36588788032532	pulse	1	t		31.0	2.5	/experiments/AOT/AOT_stimuli/rescaled_final/1024_fw.mp4	0.0	189.1261270046234	
33	166.8824028968811	fix_post	2		12	31.0	2.5	/experiments/AOT/AOT_stimuli/rescaled_final/1024_fw.mp4	0.0	189.6426420211792	0.10001897811889648
34	166.982421875	fix_pre	0		119	32.0	2.5	/experiments/AOT/AOT_stimuli/rescaled_final/1216_fw.mp4	0.0	189.7426609992981	0.9916150569915771
34	167.965833902359	pulse	0	t		32.0	2.5	/experiments/AOT/AOT_stimuli/rescaled_final/1216_fw.mp4	0.0	190.7260730266571	
34	167.97403693199158	movie	1		244	32.0	2.5	/experiments/AOT/AOT_stimuli/rescaled_final/1216_fw.mp4	0.0	190.73427605628967	2.5082828998565674
34	169.56548500061035	pulse	1	t		32.0	2.5	/experiments/AOT/AOT_stimuli/rescaled_final/1216_fw.mp4	0.0	192.32572412490845	
34	170.48231983184814	fix_post	2		12	32.0	2.5	/experiments/AOT/AOT_stimuli/rescaled_final/1216_fw.mp4	0.0	193.24255895614624	0.09995508193969727
35	170.58227491378784	fix_pre	0		120	33.0	2.5	/experiments/AOT/AOT_stimuli/rescaled_final/1987_fw.mp4	0.0	193.34251403808594	1.0001089572906494
35	171.1658308506012	pulse	0	t		33.0	2.5	/experiments/AOT/AOT_stimuli/rescaled_final/1987_fw.mp4	0.0	193.9260699748993	
35	171.5823838710785	movie	1		243	33.0	2.5	/experiments/AOT/AOT_stimuli/rescaled_final/1987_fw.mp4	0.0	194.3426229953766	2.499859094619751
35	172.76583290100098	pulse	1	t		33.0	2.5	/experiments/AOT/AOT_stimuli/rescaled_final/1987_fw.mp4	0.0	195.52607202529907	
35	174.08224296569824	fix_post	2		12	33.0	2.5	/experiments/AOT/AOT_stimuli/rescaled_final/1987_fw.mp4	0.0	196.84248208999634	0.1000518798828125
36	174.18229484558105	fix_pre	0		120	34.0	2.5	blank	1.0	196.94253396987915	0.9999761581420898
36	174.36577200889587	pulse	0	t		34.0	2.5	blank	1.0	197.12601113319397	
36	175.18227100372314	movie	1		300	34.0	2.5	blank	1.0	197.94251012802124	2.5001108646392822
36	175.96578192710876	pulse	1	t		34.0	2.5	blank	1.0	198.72602105140686	
36	177.56577897071838	pulse	1	t		34.0	2.5	blank	1.0	200.32601809501648	
36	177.68238186836243	fix_post	2		12	34.0	2.5	blank	1.0	200.44262099266052	0.0999751091003418
37	177.78235697746277	fix_pre	0		120	35.0	2.5	/experiments/AOT/AOT_stimuli/rescaled_final/1086_fw.mp4	0.0	200.54259610176086	0.9999079704284668
37	178.78226494789124	movie	1		244	35.0	2.5	/experiments/AOT/AOT_stimuli/rescaled_final/1086_fw.mp4	0.0	201.54250407218933	2.500138998031616
37	179.16557002067566	pulse	1	t		35.0	2.5	/experiments/AOT/AOT_stimuli/rescaled_final/1086_fw.mp4	0.0	201.92580914497375	
37	180.76573705673218	pulse	1	t		35.0	2.5	/experiments/AOT/AOT_stimuli/rescaled_final/1086_fw.mp4	0.0	203.52597618103027	
37	181.28240394592285	fix_post	2		12	35.0	2.5	/experiments/AOT/AOT_stimuli/rescaled_final/1086_fw.mp4	0.0	204.04264307022095	0.09983491897583008
38	181.38223886489868	fix_pre	0		119	36.0	2.5	/experiments/AOT/AOT_stimuli/rescaled_final/0095_rv.mp4	0.0	204.14247798919678	0.9917421340942383
38	182.3658640384674	pulse	0	t		36.0	2.5	/experiments/AOT/AOT_stimuli/rescaled_final/0095_rv.mp4	0.0	205.1261031627655	
38	182.37398099899292	movie	1		246	36.0	2.5	/experiments/AOT/AOT_stimuli/rescaled_final/0095_rv.mp4	0.0	205.13422012329102	2.508293867111206
38	183.9652190208435	pulse	1	t		36.0	2.5	/experiments/AOT/AOT_stimuli/rescaled_final/0095_rv.mp4	0.0	206.7254581451416	
38	184.88227486610413	fix_post	2		12	36.0	2.5	/experiments/AOT/AOT_stimuli/rescaled_final/0095_rv.mp4	0.0	207.64251399040222	0.10000014305114746
39	184.98227500915527	fix_pre	0		120	37.0	2.5	/experiments/AOT/AOT_stimuli/rescaled_final/0505_rv.mp4	0.0	207.74251413345337	1.0000519752502441
39	185.56576800346375	pulse	0	t		37.0	2.5	/experiments/AOT/AOT_stimuli/rescaled_final/0505_rv.mp4	0.0	208.32600712776184	
39	185.98232698440552	movie	1		243	37.0	2.5	/experiments/AOT/AOT_stimuli/rescaled_final/0505_rv.mp4	0.0	208.7425661087036	2.4999098777770996
39	187.165766954422	pulse	1	t		37.0	2.5	/experiments/AOT/AOT_stimuli/rescaled_final/0505_rv.mp4	0.0	209.9260060787201	
39	188.48223686218262	fix_post	2		12	37.0	2.5	/experiments/AOT/AOT_stimuli/rescaled_final/0505_rv.mp4	0.0	211.2424759864807	0.1000211238861084
40	188.58225798606873	fix_pre	0		120	38.0	2.5	/experiments/AOT/AOT_stimuli/rescaled_final/2095_rv.mp4	0.0	211.34249711036682	0.9999330043792725
40	188.76575303077698	pulse	0	t		38.0	2.5	/experiments/AOT/AOT_stimuli/rescaled_final/2095_rv.mp4	0.0	211.52599215507507	
40	189.582190990448	movie	1		245	38.0	2.5	/experiments/AOT/AOT_stimuli/rescaled_final/2095_rv.mp4	0.0	212.3424301147461	2.500109910964966
40	190.3658468723297	pulse	1	t		38.0	2.5	/experiments/AOT/AOT_stimuli/rescaled_final/2095_rv.mp4	0.0	213.1260859966278	
40	191.9641489982605	pulse	1	t		38.0	2.5	/experiments/AOT/AOT_stimuli/rescaled_final/2095_rv.mp4	0.0	214.7243881225586	
40	192.08230090141296	fix_post	2		12	38.0	2.5	/experiments/AOT/AOT_stimuli/rescaled_final/2095_rv.mp4	0.0	214.84254002571106	0.09996509552001953
41	192.18226599693298	fix_pre	0		120	39.0	2.5	/experiments/AOT/AOT_stimuli/rescaled_final/0944_rv.mp4	0.0	214.94250512123108	1.00006103515625
41	193.18232703208923	movie	1		243	39.0	2.5	/experiments/AOT/AOT_stimuli/rescaled_final/0944_rv.mp4	0.0	215.94256615638733	2.5000178813934326
41	193.56572890281677	pulse	1	t		39.0	2.5	/experiments/AOT/AOT_stimuli/rescaled_final/0944_rv.mp4	0.0	216.32596802711487	
41	195.16575503349304	pulse	1	t		39.0	2.5	/experiments/AOT/AOT_stimuli/rescaled_final/0944_rv.mp4	0.0	217.92599415779114	
41	195.68234491348267	fix_post	2		12	39.0	2.5	/experiments/AOT/AOT_stimuli/rescaled_final/0944_rv.mp4	0.0	218.44258403778076	0.09992003440856934
42	195.78226494789124	fix_pre	0		119	40.0	2.5	blank	1.0	218.54250407218933	0.9916338920593262
42	196.76574301719666	pulse	0	t		40.0	2.5	blank	1.0	219.52598214149475	
42	196.77389883995056	movie	1		301	40.0	2.5	blank	1.0	219.53413796424866	2.508273124694824
42	198.3658058643341	pulse	1	t		40.0	2.5	blank	1.0	221.1260449886322	
42	199.28217196464539	fix_post	2		12	40.0	2.5	blank	1.0	222.04241108894348	0.10024189949035645
43	199.38241386413574	fix_pre	0		120	41.0	2.5	/experiments/AOT/AOT_stimuli/rescaled_final/0141_rv.mp4	0.0	222.14265298843384	0.99983811378479
43	199.965726852417	pulse	0	t		41.0	2.5	/experiments/AOT/AOT_stimuli/rescaled_final/0141_rv.mp4	0.0	222.7259659767151	
43	200.38225197792053	movie	1		244	41.0	2.5	/experiments/AOT/AOT_stimuli/rescaled_final/0141_rv.mp4	0.0	223.14249110221863	2.4999489784240723
43	201.56585788726807	pulse	1	t		41.0	2.5	/experiments/AOT/AOT_stimuli/rescaled_final/0141_rv.mp4	0.0	224.32609701156616	
43	202.8822009563446	fix_post	2		12	41.0	2.5	/experiments/AOT/AOT_stimuli/rescaled_final/0141_rv.mp4	0.0	225.6424400806427	0.10002493858337402
44	202.98222589492798	fix_pre	0		120	42.0	2.5	/experiments/AOT/AOT_stimuli/rescaled_final/2172_fw.mp4	0.0	225.74246501922607	1.0000629425048828
44	203.16568899154663	pulse	0	t		42.0	2.5	/experiments/AOT/AOT_stimuli/rescaled_final/2172_fw.mp4	0.0	225.92592811584473	
44	203.98228883743286	movie	1		244	42.0	2.5	/experiments/AOT/AOT_stimuli/rescaled_final/2172_fw.mp4	0.0	226.74252796173096	2.4998621940612793
44	204.7656388282776	pulse	1	t		42.0	2.5	/experiments/AOT/AOT_stimuli/rescaled_final/2172_fw.mp4	0.0	227.52587795257568	
44	206.36171793937683	pulse	1	t		42.0	2.5	/experiments/AOT/AOT_stimuli/rescaled_final/2172_fw.mp4	0.0	229.12195706367493	
44	206.48215103149414	fix_post	2		12	42.0	2.5	/experiments/AOT/AOT_stimuli/rescaled_final/2172_fw.mp4	0.0	229.24239015579224	0.10012483596801758
45	206.58227586746216	fix_pre	0		120	43.0	2.5	/experiments/AOT/AOT_stimuli/rescaled_final/1311_rv.mp4	0.0	229.34251499176025	0.999891996383667
45	207.58216786384583	movie	1		244	43.0	2.5	/experiments/AOT/AOT_stimuli/rescaled_final/1311_rv.mp4	0.0	230.34240698814392	2.5000011920928955
45	207.96534299850464	pulse	1	t		43.0	2.5	/experiments/AOT/AOT_stimuli/rescaled_final/1311_rv.mp4	0.0	230.72558212280273	
45	209.56569385528564	pulse	1	t		43.0	2.5	/experiments/AOT/AOT_stimuli/rescaled_final/1311_rv.mp4	0.0	232.32593297958374	
45	210.08216905593872	fix_post	2		12	43.0	2.5	/experiments/AOT/AOT_stimuli/rescaled_final/1311_rv.mp4	0.0	232.84240818023682	0.0999608039855957
46	210.18212985992432	fix_pre	0		119	44.0	2.5	/experiments/AOT/AOT_stimuli/rescaled_final/2014_fw.mp4	0.0	232.9423689842224	0.9916889667510986
46	211.16570401191711	pulse	0	t		44.0	2.5	/experiments/AOT/AOT_stimuli/rescaled_final/2014_fw.mp4	0.0	233.9259431362152	
46	211.17381882667542	movie	1		247	44.0	2.5	/experiments/AOT/AOT_stimuli/rescaled_final/2014_fw.mp4	0.0	233.9340579509735	2.508301019668579
46	212.76527190208435	pulse	1	t		44.0	2.5	/experiments/AOT/AOT_stimuli/rescaled_final/2014_fw.mp4	0.0	235.52551102638245	
46	213.682119846344	fix_post	2		12	44.0	2.5	/experiments/AOT/AOT_stimuli/rescaled_final/2014_fw.mp4	0.0	236.4423589706421	0.10007905960083008
47	213.78219890594482	fix_pre	0		120	45.0	2.5	/experiments/AOT/AOT_stimuli/rescaled_final/1216_rv.mp4	0.0	236.54243803024292	0.9999220371246338
47	214.3656928539276	pulse	0	t		45.0	2.5	/experiments/AOT/AOT_stimuli/rescaled_final/1216_rv.mp4	0.0	237.1259319782257	
47	214.78212094306946	movie	1		244	45.0	2.5	/experiments/AOT/AOT_stimuli/rescaled_final/1216_rv.mp4	0.0	237.54236006736755	2.4996280670166016
47	215.96574997901917	pulse	1	t		45.0	2.5	/experiments/AOT/AOT_stimuli/rescaled_final/1216_rv.mp4	0.0	238.72598910331726	
47	217.28174901008606	fix_post	2		12	45.0	2.5	/experiments/AOT/AOT_stimuli/rescaled_final/1216_rv.mp4	0.0	240.04198813438416	0.0999598503112793
48	217.38170886039734	fix_pre	0		120	46.0	2.5	/experiments/AOT/AOT_stimuli/rescaled_final/0346_rv.mp4	0.0	240.14194798469543	1.000025987625122
48	217.56518697738647	pulse	0	t		46.0	2.5	/experiments/AOT/AOT_stimuli/rescaled_final/0346_rv.mp4	0.0	240.32542610168457	
48	218.38173484802246	movie	1		246	46.0	2.5	/experiments/AOT/AOT_stimuli/rescaled_final/0346_rv.mp4	0.0	241.14197397232056	2.500404119491577
48	219.16569995880127	pulse	1	t		46.0	2.5	/experiments/AOT/AOT_stimuli/rescaled_final/0346_rv.mp4	0.0	241.92593908309937	
48	220.76421284675598	pulse	1	t		46.0	2.5	/experiments/AOT/AOT_stimuli/rescaled_final/0346_rv.mp4	0.0	243.52445197105408	
48	220.88213896751404	fix_post	2		12	46.0	2.5	/experiments/AOT/AOT_stimuli/rescaled_final/0346_rv.mp4	0.0	243.64237809181213	0.09991693496704102
49	220.98205590248108	fix_pre	0		120	47.0	2.5	/experiments/AOT/AOT_stimuli/rescaled_final/0105_fw.mp4	0.0	243.74229502677917	1.0000479221343994
49	221.98210382461548	movie	1		245	47.0	2.5	/experiments/AOT/AOT_stimuli/rescaled_final/0105_fw.mp4	0.0	244.74234294891357	2.499990224838257
49	222.36515998840332	pulse	1	t		47.0	2.5	/experiments/AOT/AOT_stimuli/rescaled_final/0105_fw.mp4	0.0	245.12539911270142	
49	223.96560788154602	pulse	1	t		47.0	2.5	/experiments/AOT/AOT_stimuli/rescaled_final/0105_fw.mp4	0.0	246.72584700584412	
49	224.48209404945374	fix_post	2		12	47.0	2.5	/experiments/AOT/AOT_stimuli/rescaled_final/0105_fw.mp4	0.0	247.24233317375183	0.10002493858337402
50	224.5821189880371	fix_pre	0		119	48.0	2.5	blank	1.0	247.3423581123352	0.9915928840637207
50	225.5657238960266	pulse	0	t		48.0	2.5	blank	1.0	248.3259630203247	
50	225.57371187210083	movie	1		301	48.0	2.5	blank	1.0	248.33395099639893	2.508319139480591
50	227.16552591323853	pulse	1	t		48.0	2.5	blank	1.0	249.92576503753662	
50	228.08203101158142	fix_post	2		12	48.0	2.5	blank	1.0	250.84227013587952	0.10000991821289062
51	228.1820409297943	fix_pre	0		120	49.0	2.5	/experiments/AOT/AOT_stimuli/rescaled_final/2020_fw.mp4	0.0	250.9422800540924	0.9999780654907227
51	228.76549887657166	pulse	0	t		49.0	2.5	/experiments/AOT/AOT_stimuli/rescaled_final/2020_fw.mp4	0.0	251.52573800086975	
51	229.18201899528503	movie	1		242	49.0	2.5	/experiments/AOT/AOT_stimuli/rescaled_final/2020_fw.mp4	0.0	251.94225811958313	2.500018835067749
51	230.3656599521637	pulse	1	t		49.0	2.5	/experiments/AOT/AOT_stimuli/rescaled_final/2020_fw.mp4	0.0	253.1258990764618	
51	231.68203783035278	fix_post	2		12	49.0	2.5	/experiments/AOT/AOT_stimuli/rescaled_final/2020_fw.mp4	0.0	254.44227695465088	0.1000051498413086
52	231.7820429801941	fix_pre	0		120	50.0	2.5	/experiments/AOT/AOT_stimuli/rescaled_final/1646_rv.mp4	0.0	254.5422821044922	1.0000040531158447
52	231.96566796302795	pulse	0	t		50.0	2.5	/experiments/AOT/AOT_stimuli/rescaled_final/1646_rv.mp4	0.0	254.72590708732605	
52	232.78204703330994	movie	1		243	50.0	2.5	/experiments/AOT/AOT_stimuli/rescaled_final/1646_rv.mp4	0.0	255.54228615760803	2.499950885772705
52	233.56544303894043	pulse	1	t		50.0	2.5	/experiments/AOT/AOT_stimuli/rescaled_final/1646_rv.mp4	0.0	256.3256821632385	
52	235.16376185417175	pulse	1	t		50.0	2.5	/experiments/AOT/AOT_stimuli/rescaled_final/1646_rv.mp4	0.0	257.92400097846985	
52	235.28199791908264	fix_post	2		12	50.0	2.5	/experiments/AOT/AOT_stimuli/rescaled_final/1646_rv.mp4	0.0	258.04223704338074	0.10022592544555664
53	235.3822238445282	fix_pre	0		120	51.0	2.5	/experiments/AOT/AOT_stimuli/rescaled_final/0330_fw.mp4	0.0	258.1424629688263	0.9997529983520508
53	236.38197684288025	movie	1		243	51.0	2.5	/experiments/AOT/AOT_stimuli/rescaled_final/0330_fw.mp4	0.0	259.14221596717834	2.5000431537628174
53	236.76647686958313	pulse	1	t		51.0	2.5	/experiments/AOT/AOT_stimuli/rescaled_final/0330_fw.mp4	0.0	259.5267159938812	
53	238.3654339313507	pulse	1	t		51.0	2.5	/experiments/AOT/AOT_stimuli/rescaled_final/0330_fw.mp4	0.0	261.1256730556488	
53	238.88201999664307	fix_post	2		12	51.0	2.5	/experiments/AOT/AOT_stimuli/rescaled_final/0330_fw.mp4	0.0	261.64225912094116	0.09998893737792969
54	238.982008934021	fix_pre	0		119	52.0	2.5	/experiments/AOT/AOT_stimuli/rescaled_final/1845_rv.mp4	0.0	261.7422480583191	0.9916870594024658
54	239.96549797058105	pulse	0	t		52.0	2.5	/experiments/AOT/AOT_stimuli/rescaled_final/1845_rv.mp4	0.0	262.72573709487915	
54	239.97369599342346	movie	1		246	52.0	2.5	/experiments/AOT/AOT_stimuli/rescaled_final/1845_rv.mp4	0.0	262.73393511772156	2.5078299045562744
54	241.56524991989136	pulse	1	t		52.0	2.5	/experiments/AOT/AOT_stimuli/rescaled_final/1845_rv.mp4	0.0	264.32548904418945	
54	242.48152589797974	fix_post	2		12	52.0	2.5	/experiments/AOT/AOT_stimuli/rescaled_final/1845_rv.mp4	0.0	265.24176502227783	0.10040092468261719
55	242.58192682266235	fix_pre	0		120	53.0	2.5	/experiments/AOT/AOT_stimuli/rescaled_final/1702_fw.mp4	0.0	265.34216594696045	1.0000460147857666
55	243.16558384895325	pulse	0	t		53.0	2.5	/experiments/AOT/AOT_stimuli/rescaled_final/1702_fw.mp4	0.0	265.92582297325134	
55	243.58197283744812	movie	1		245	53.0	2.5	/experiments/AOT/AOT_stimuli/rescaled_final/1702_fw.mp4	0.0	266.3422119617462	2.500005006790161
55	244.76559805870056	pulse	1	t		53.0	2.5	/experiments/AOT/AOT_stimuli/rescaled_final/1702_fw.mp4	0.0	267.52583718299866	
55	246.08197784423828	fix_post	2		12	53.0	2.5	/experiments/AOT/AOT_stimuli/rescaled_final/1702_fw.mp4	0.0	268.8422169685364	0.10004401206970215
56	246.18202185630798	fix_pre	0		120	54.0	2.5	/experiments/AOT/AOT_stimuli/rescaled_final/0588_rv.mp4	0.0	268.9422609806061	0.9998869895935059
56	246.36556386947632	pulse	0	t		54.0	2.5	/experiments/AOT/AOT_stimuli/rescaled_final/0588_rv.mp4	0.0	269.1258029937744	
56	247.1819088459015	movie	1		246	54.0	2.5	/experiments/AOT/AOT_stimuli/rescaled_final/0588_rv.mp4	0.0	269.9421479701996	2.500035047531128
56	247.965500831604	pulse	1	t		54.0	2.5	/experiments/AOT/AOT_stimuli/rescaled_final/0588_rv.mp4	0.0	270.7257399559021	
56	249.56400394439697	pulse	1	t		54.0	2.5	/experiments/AOT/AOT_stimuli/rescaled_final/0588_rv.mp4	0.0	272.32424306869507	
56	249.68194389343262	fix_post	2		12	54.0	2.5	/experiments/AOT/AOT_stimuli/rescaled_final/0588_rv.mp4	0.0	272.4421830177307	0.10001897811889648
57	249.7819628715515	fix_pre	0		120	55.0	2.5	blank	1.0	272.5422019958496	0.9999871253967285
57	250.78194999694824	movie	1		300	55.0	2.5	blank	1.0	273.54218912124634	2.5000460147857666
57	251.16551184654236	pulse	1	t		55.0	2.5	blank	1.0	273.92575097084045	
57	252.76545190811157	pulse	1	t		55.0	2.5	blank	1.0	275.52569103240967	
57	253.281996011734	fix_post	2		12	55.0	2.5	blank	1.0	276.0422351360321	0.0999598503112793
58	253.3819558620453	fix_pre	0		119	56.0	2.5	/experiments/AOT/AOT_stimuli/rescaled_final/1006_fw.mp4	0.0	276.1421949863434	0.9916791915893555
58	254.36540699005127	pulse	0	t		56.0	2.5	/experiments/AOT/AOT_stimuli/rescaled_final/1006_fw.mp4	0.0	277.12564611434937	
58	254.37363505363464	movie	1		246	56.0	2.5	/experiments/AOT/AOT_stimuli/rescaled_final/1006_fw.mp4	0.0	277.13387417793274	2.508248805999756
58	255.96512985229492	pulse	1	t		56.0	2.5	/experiments/AOT/AOT_stimuli/rescaled_final/1006_fw.mp4	0.0	278.725368976593	
58	256.8818838596344	fix_post	2		12	56.0	2.5	/experiments/AOT/AOT_stimuli/rescaled_final/1006_fw.mp4	0.0	279.6421229839325	0.10010218620300293
59	256.9819860458374	fix_pre	0		120	57.0	2.5	/experiments/AOT/AOT_stimuli/rescaled_final/0268_fw.mp4	0.0	279.7422251701355	0.9998729228973389
59	257.5654480457306	pulse	0	t		57.0	2.5	/experiments/AOT/AOT_stimuli/rescaled_final/0268_fw.mp4	0.0	280.3256871700287	
59	257.98185896873474	movie	1		244	57.0	2.5	/experiments/AOT/AOT_stimuli/rescaled_final/0268_fw.mp4	0.0	280.74209809303284	2.5001120567321777
59	259.1654908657074	pulse	1	t		57.0	2.5	/experiments/AOT/AOT_stimuli/rescaled_final/0268_fw.mp4	0.0	281.9257299900055	
59	260.4819710254669	fix_post	2		12	57.0	2.5	/experiments/AOT/AOT_stimuli/rescaled_final/0268_fw.mp4	0.0	283.242210149765	0.10003399848937988
60	260.5820050239563	fix_pre	0		120	58.0	2.5	/experiments/AOT/AOT_stimuli/rescaled_final/0959_fw.mp4	0.0	283.3422441482544	1.0000159740447998
60	260.76542592048645	pulse	0	t		58.0	2.5	/experiments/AOT/AOT_stimuli/rescaled_final/0959_fw.mp4	0.0	283.52566504478455	
60	261.5820209980011	movie	1		243	58.0	2.5	/experiments/AOT/AOT_stimuli/rescaled_final/0959_fw.mp4	0.0	284.3422601222992	2.4999380111694336
60	262.3654339313507	pulse	1	t		58.0	2.5	/experiments/AOT/AOT_stimuli/rescaled_final/0959_fw.mp4	0.0	285.1256730556488	
60	263.9637689590454	pulse	1	t		58.0	2.5	/experiments/AOT/AOT_stimuli/rescaled_final/0959_fw.mp4	0.0	286.7240080833435	
60	264.08195900917053	fix_post	2		12	58.0	2.5	/experiments/AOT/AOT_stimuli/rescaled_final/0959_fw.mp4	0.0	286.8421981334686	0.09997391700744629
61	264.181932926178	fix_pre	0		120	59.0	2.5	/experiments/AOT/AOT_stimuli/rescaled_final/0840_fw.mp4	0.0	286.9421720504761	0.9998819828033447
61	265.1818149089813	movie	1		244	59.0	2.5	/experiments/AOT/AOT_stimuli/rescaled_final/0840_fw.mp4	0.0	287.9420540332794	2.5000360012054443
61	265.56507086753845	pulse	1	t		59.0	2.5	/experiments/AOT/AOT_stimuli/rescaled_final/0840_fw.mp4	0.0	288.32530999183655	
61	267.16537594795227	pulse	1	t		59.0	2.5	/experiments/AOT/AOT_stimuli/rescaled_final/0840_fw.mp4	0.0	289.92561507225037	
61	267.68185091018677	fix_post	2		12	59.0	2.5	/experiments/AOT/AOT_stimuli/rescaled_final/0840_fw.mp4	0.0	290.44209003448486	0.09995698928833008
62	267.7818078994751	fix_pre	0		119	60.0	2.5	/experiments/AOT/AOT_stimuli/rescaled_final/1359_rv.mp4	0.0	290.5420470237732	0.9917261600494385
62	268.76530385017395	pulse	0	t		60.0	2.5	/experiments/AOT/AOT_stimuli/rescaled_final/1359_rv.mp4	0.0	291.52554297447205	
62	268.77353405952454	movie	1		244	60.0	2.5	/experiments/AOT/AOT_stimuli/rescaled_final/1359_rv.mp4	0.0	291.53377318382263	2.5083088874816895
62	270.3655149936676	pulse	1	t		60.0	2.5	/experiments/AOT/AOT_stimuli/rescaled_final/1359_rv.mp4	0.0	293.1257541179657	
62	271.2818429470062	fix_post	2		12	60.0	2.5	/experiments/AOT/AOT_stimuli/rescaled_final/1359_rv.mp4	0.0	294.0420820713043	0.10001802444458008
63	271.3818609714508	fix_pre	0		120	61.0	2.5	blank	1.0	294.1421000957489	0.9999768733978271
63	271.96539187431335	pulse	0	t		61.0	2.5	blank	1.0	294.72563099861145	
63	272.38183784484863	movie	1		300	61.0	2.5	blank	1.0	295.14207696914673	2.5001001358032227
63	273.56534600257874	pulse	1	t		61.0	2.5	blank	1.0	296.32558512687683	
63	274.88193798065186	fix_post	2		12	61.0	2.5	blank	1.0	297.64217710494995	0.10006499290466309
64	274.9820029735565	fix_pre	0		120	62.0	2.5	/experiments/AOT/AOT_stimuli/rescaled_final/0539_fw.mp4	0.0	297.7422420978546	1.0001120567321777
64	275.1654908657074	pulse	0	t		62.0	2.5	/experiments/AOT/AOT_stimuli/rescaled_final/0539_fw.mp4	0.0	297.9257299900055	
64	275.9821150302887	movie	1		243	62.0	2.5	/experiments/AOT/AOT_stimuli/rescaled_final/0539_fw.mp4	0.0	298.7423541545868	2.4996650218963623
64	276.7652540206909	pulse	1	t		62.0	2.5	/experiments/AOT/AOT_stimuli/rescaled_final/0539_fw.mp4	0.0	299.525493144989	
64	278.36395597457886	pulse	1	t		62.0	2.5	/experiments/AOT/AOT_stimuli/rescaled_final/0539_fw.mp4	0.0	301.12419509887695	
64	278.48178005218506	fix_post	2		12	62.0	2.5	/experiments/AOT/AOT_stimuli/rescaled_final/0539_fw.mp4	0.0	301.24201917648315	0.10003781318664551
65	278.5818178653717	fix_pre	0		120	63.0	2.5	/experiments/AOT/AOT_stimuli/rescaled_final/0330_rv.mp4	0.0	301.3420569896698	0.9999780654907227
65	279.5817959308624	movie	1		242	63.0	2.5	/experiments/AOT/AOT_stimuli/rescaled_final/0330_rv.mp4	0.0	302.3420350551605	2.500046968460083
65	279.96501183509827	pulse	1	t		63.0	2.5	/experiments/AOT/AOT_stimuli/rescaled_final/0330_rv.mp4	0.0	302.72525095939636	
65	281.56516695022583	pulse	1	t		63.0	2.5	/experiments/AOT/AOT_stimuli/rescaled_final/0330_rv.mp4	0.0	304.3254060745239	
65	282.0818428993225	fix_post	2		12	63.0	2.5	/experiments/AOT/AOT_stimuli/rescaled_final/0330_rv.mp4	0.0	304.8420820236206	0.09989309310913086
66	282.18173599243164	fix_pre	0		119	64.0	2.5	/experiments/AOT/AOT_stimuli/rescaled_final/1948_fw.mp4	0.0	304.94197511672974	0.9916980266571045
66	283.16522192955017	pulse	0	t		64.0	2.5	/experiments/AOT/AOT_stimuli/rescaled_final/1948_fw.mp4	0.0	305.92546105384827	
66	283.17343401908875	movie	1		248	64.0	2.5	/experiments/AOT/AOT_stimuli/rescaled_final/1948_fw.mp4	0.0	305.93367314338684	2.508302927017212
66	284.76510882377625	pulse	1	t		64.0	2.5	/experiments/AOT/AOT_stimuli/rescaled_final/1948_fw.mp4	0.0	307.52534794807434	
66	285.68173694610596	fix_post	2		12	64.0	2.5	/experiments/AOT/AOT_stimuli/rescaled_final/1948_fw.mp4	0.0	308.44197607040405	0.10000205039978027
67	285.78173899650574	fix_pre	0		120	65.0	2.5	/experiments/AOT/AOT_stimuli/rescaled_final/1195_fw.mp4	0.0	308.54197812080383	0.9999890327453613
67	286.3652939796448	pulse	0	t		65.0	2.5	/experiments/AOT/AOT_stimuli/rescaled_final/1195_fw.mp4	0.0	309.12553310394287	
67	286.7817280292511	movie	1		244	65.0	2.5	/experiments/AOT/AOT_stimuli/rescaled_final/1195_fw.mp4	0.0	309.5419671535492	2.500027894973755
67	287.9652769565582	pulse	1	t		65.0	2.5	/experiments/AOT/AOT_stimuli/rescaled_final/1195_fw.mp4	0.0	310.7255160808563	
67	289.28175592422485	fix_post	2		12	65.0	2.5	/experiments/AOT/AOT_stimuli/rescaled_final/1195_fw.mp4	0.0	312.04199504852295	0.09995412826538086
68	289.38171005249023	fix_pre	0		120	66.0	2.5	/experiments/AOT/AOT_stimuli/rescaled_final/1529_rv.mp4	0.0	312.14194917678833	1.0000088214874268
68	289.5653738975525	pulse	0	t		66.0	2.5	/experiments/AOT/AOT_stimuli/rescaled_final/1529_rv.mp4	0.0	312.3256130218506	
68	290.38171887397766	movie	1		243	66.0	2.5	/experiments/AOT/AOT_stimuli/rescaled_final/1529_rv.mp4	0.0	313.14195799827576	2.4996039867401123
68	291.16525387763977	pulse	1	t		66.0	2.5	/experiments/AOT/AOT_stimuli/rescaled_final/1529_rv.mp4	0.0	313.92549300193787	
68	292.76353192329407	pulse	1	t		66.0	2.5	/experiments/AOT/AOT_stimuli/rescaled_final/1529_rv.mp4	0.0	315.52377104759216	
68	292.8813228607178	fix_post	2		12	66.0	2.5	/experiments/AOT/AOT_stimuli/rescaled_final/1529_rv.mp4	0.0	315.64156198501587	0.10041117668151855
69	292.9817340373993	fix_pre	0		120	67.0	2.5	/experiments/AOT/AOT_stimuli/rescaled_final/1646_fw.mp4	0.0	315.7419731616974	1.000046968460083
69	293.9817810058594	movie	1		243	67.0	2.5	/experiments/AOT/AOT_stimuli/rescaled_final/1646_fw.mp4	0.0	316.74202013015747	2.499948024749756
69	294.3648738861084	pulse	1	t		67.0	2.5	/experiments/AOT/AOT_stimuli/rescaled_final/1646_fw.mp4	0.0	317.1251130104065	
69	295.9651679992676	pulse	1	t		67.0	2.5	/experiments/AOT/AOT_stimuli/rescaled_final/1646_fw.mp4	0.0	318.7254071235657	
69	296.48172903060913	fix_post	2		12	67.0	2.5	/experiments/AOT/AOT_stimuli/rescaled_final/1646_fw.mp4	0.0	319.2419681549072	0.10002684593200684
70	296.58175587654114	fix_pre	0		119	68.0	2.5	/experiments/AOT/AOT_stimuli/rescaled_final/1801_fw.mp4	0.0	319.34199500083923	0.9916341304779053
70	297.56521105766296	pulse	0	t		68.0	2.5	/experiments/AOT/AOT_stimuli/rescaled_final/1801_fw.mp4	0.0	320.32545018196106	
70	297.57339000701904	movie	1		244	68.0	2.5	/experiments/AOT/AOT_stimuli/rescaled_final/1801_fw.mp4	0.0	320.33362913131714	2.5083038806915283
70	299.1647939682007	pulse	1	t		68.0	2.5	/experiments/AOT/AOT_stimuli/rescaled_final/1801_fw.mp4	0.0	321.9250330924988	
70	300.08169388771057	fix_post	2		12	68.0	2.5	/experiments/AOT/AOT_stimuli/rescaled_final/1801_fw.mp4	0.0	322.84193301200867	0.1000511646270752
71	300.18174505233765	fix_pre	0		120	69.0	2.5	blank	1.0	322.94198417663574	0.9999167919158936
71	300.7651209831238	pulse	0	t		69.0	2.5	blank	1.0	323.5253601074219	
71	301.18166184425354	movie	1		300	69.0	2.5	blank	1.0	323.94190096855164	2.5001041889190674
71	302.3652169704437	pulse	1	t		69.0	2.5	blank	1.0	325.1254560947418	
71	303.6817660331726	fix_post	2		12	69.0	2.5	blank	1.0	326.4420051574707	0.09987497329711914
72	303.7816410064697	fix_pre	0		120	70.0	2.5	/experiments/AOT/AOT_stimuli/rescaled_final/0527_rv.mp4	0.0	326.5418801307678	1.0000808238983154
72	303.96513295173645	pulse	0	t		70.0	2.5	/experiments/AOT/AOT_stimuli/rescaled_final/0527_rv.mp4	0.0	326.72537207603455	
72	304.78172183036804	movie	1		243	70.0	2.5	/experiments/AOT/AOT_stimuli/rescaled_final/0527_rv.mp4	0.0	327.54196095466614	2.5000391006469727
72	305.5651738643646	pulse	1	t		70.0	2.5	/experiments/AOT/AOT_stimuli/rescaled_final/0527_rv.mp4	0.0	328.3254129886627	
72	307.16381192207336	pulse	1	t		70.0	2.5	/experiments/AOT/AOT_stimuli/rescaled_final/0527_rv.mp4	0.0	329.92405104637146	
72	307.281760931015	fix_post	2		12	70.0	2.5	/experiments/AOT/AOT_stimuli/rescaled_final/0527_rv.mp4	0.0	330.0420000553131	0.09996199607849121
73	307.3817229270935	fix_pre	0		120	71.0	2.5	/experiments/AOT/AOT_stimuli/rescaled_final/0855_fw.mp4	0.0	330.1419620513916	0.9999599456787109
73	308.3816828727722	movie	1		245	71.0	2.5	/experiments/AOT/AOT_stimuli/rescaled_final/0855_fw.mp4	0.0	331.1419219970703	2.499994993209839
73	308.7661669254303	pulse	1	t		71.0	2.5	/experiments/AOT/AOT_stimuli/rescaled_final/0855_fw.mp4	0.0	331.5264060497284	
73	310.3651008605957	pulse	1	t		71.0	2.5	/experiments/AOT/AOT_stimuli/rescaled_final/0855_fw.mp4	0.0	333.1253399848938	
73	310.88167786598206	fix_post	2		12	71.0	2.5	/experiments/AOT/AOT_stimuli/rescaled_final/0855_fw.mp4	0.0	333.64191699028015	0.10001802444458008
74	310.98169589042664	fix_pre	0		119	72.0	2.5	/experiments/AOT/AOT_stimuli/rescaled_final/1719_fw.mp4	0.0	333.74193501472473	0.9917049407958984
74	311.9651348590851	pulse	0	t		72.0	2.5	/experiments/AOT/AOT_stimuli/rescaled_final/1719_fw.mp4	0.0	334.7253739833832	
74	311.97340083122253	movie	1		245	72.0	2.5	/experiments/AOT/AOT_stimuli/rescaled_final/1719_fw.mp4	0.0	334.73363995552063	2.5079071521759033
74	313.56474804878235	pulse	1	t		72.0	2.5	/experiments/AOT/AOT_stimuli/rescaled_final/1719_fw.mp4	0.0	336.32498717308044	
74	314.48130798339844	fix_post	2		12	72.0	2.5	/experiments/AOT/AOT_stimuli/rescaled_final/1719_fw.mp4	0.0	337.24154710769653	0.10034990310668945
75	314.5816578865051	fix_pre	0		120	73.0	2.5	/experiments/AOT/AOT_stimuli/rescaled_final/1024_rv.mp4	0.0	337.3418970108032	1.0000641345977783
75	315.1651430130005	pulse	0	t		73.0	2.5	/experiments/AOT/AOT_stimuli/rescaled_final/1024_rv.mp4	0.0	337.9253821372986	
75	315.5817220211029	movie	1		245	73.0	2.5	/experiments/AOT/AOT_stimuli/rescaled_final/1024_rv.mp4	0.0	338.341961145401	2.4999308586120605
75	316.7651560306549	pulse	1	t		73.0	2.5	/experiments/AOT/AOT_stimuli/rescaled_final/1024_rv.mp4	0.0	339.525395154953	
75	318.08165287971497	fix_post	2		12	73.0	2.5	/experiments/AOT/AOT_stimuli/rescaled_final/1024_rv.mp4	0.0	340.84189200401306	0.10001802444458008
76	318.18167090415955	fix_pre	0		120	74.0	2.5	/experiments/AOT/AOT_stimuli/rescaled_final/0626_fw.mp4	0.0	340.94191002845764	0.9999151229858398
76	318.36502289772034	pulse	0	t		74.0	2.5	/experiments/AOT/AOT_stimuli/rescaled_final/0626_fw.mp4	0.0	341.12526202201843	
76	319.1815860271454	movie	1		245	74.0	2.5	/experiments/AOT/AOT_stimuli/rescaled_final/0626_fw.mp4	0.0	341.9418251514435	2.5000298023223877
76	319.96516394615173	pulse	1	t		74.0	2.5	/experiments/AOT/AOT_stimuli/rescaled_final/0626_fw.mp4	0.0	342.72540307044983	
76	321.56462001800537	pulse	1	t		74.0	2.5	/experiments/AOT/AOT_stimuli/rescaled_final/0626_fw.mp4	0.0	344.32485914230347	
76	321.6816158294678	fix_post	2		12	74.0	2.5	/experiments/AOT/AOT_stimuli/rescaled_final/0626_fw.mp4	0.0	344.44185495376587	0.10004711151123047
77	321.781662940979	fix_pre	0		120	75.0	2.5	/experiments/AOT/AOT_stimuli/rescaled_final/0299_fw.mp4	0.0	344.5419020652771	0.999924898147583
77	322.7815878391266	movie	1		244	75.0	2.5	/experiments/AOT/AOT_stimuli/rescaled_final/0299_fw.mp4	0.0	345.5418269634247	2.4999451637268066
77	323.16668605804443	pulse	1	t		75.0	2.5	/experiments/AOT/AOT_stimuli/rescaled_final/0299_fw.mp4	0.0	345.92692518234253	
77	324.76505494117737	pulse	1	t		75.0	2.5	/experiments/AOT/AOT_stimuli/rescaled_final/0299_fw.mp4	0.0	347.52529406547546	
77	325.2815330028534	fix_post	2		12	75.0	2.5	/experiments/AOT/AOT_stimuli/rescaled_final/0299_fw.mp4	0.0	348.0417721271515	0.10009503364562988
78	325.381628036499	fix_pre	0		119	76.0	2.5	blank	1.0	348.1418671607971	0.9916579723358154
78	326.3651008605957	pulse	0	t		76.0	2.5	blank	1.0	349.1253399848938	
78	326.37328600883484	movie	1		301	76.0	2.5	blank	1.0	349.13352513313293	2.507877826690674
78	327.96519589424133	pulse	1	t		76.0	2.5	blank	1.0	350.72543501853943	
78	328.8811638355255	fix_post	2		12	76.0	2.5	blank	1.0	351.6414029598236	0.10039806365966797
79	328.9815618991852	fix_pre	0		120	77.0	2.5	/experiments/AOT/AOT_stimuli/rescaled_final/1721_fw.mp4	0.0	351.7418010234833	1.0000691413879395
79	329.56516194343567	pulse	0	t		77.0	2.5	/experiments/AOT/AOT_stimuli/rescaled_final/1721_fw.mp4	0.0	352.32540106773376	
79	329.9816310405731	movie	1		244	77.0	2.5	/experiments/AOT/AOT_stimuli/rescaled_final/1721_fw.mp4	0.0	352.7418701648712	2.4999349117279053
79	331.165235042572	pulse	1	t		77.0	2.5	/experiments/AOT/AOT_stimuli/rescaled_final/1721_fw.mp4	0.0	353.9254741668701	
79	332.481565952301	fix_post	2		12	77.0	2.5	/experiments/AOT/AOT_stimuli/rescaled_final/1721_fw.mp4	0.0	355.2418050765991	0.09995603561401367
80	332.58152198791504	fix_pre	0		120	78.0	2.5	/experiments/AOT/AOT_stimuli/rescaled_final/0840_rv.mp4	0.0	355.34176111221313	1.000105857849121
80	332.7650079727173	pulse	0	t		78.0	2.5	/experiments/AOT/AOT_stimuli/rescaled_final/0840_rv.mp4	0.0	355.5252470970154	
80	333.58162784576416	movie	1		246	78.0	2.5	/experiments/AOT/AOT_stimuli/rescaled_final/0840_rv.mp4	0.0	356.34186697006226	2.499878168106079
80	334.3649709224701	pulse	1	t		78.0	2.5	/experiments/AOT/AOT_stimuli/rescaled_final/0840_rv.mp4	0.0	357.1252100467682	
80	335.963623046875	pulse	1	t		78.0	2.5	/experiments/AOT/AOT_stimuli/rescaled_final/0840_rv.mp4	0.0	358.7238621711731	
80	336.08150601387024	fix_post	2		12	78.0	2.5	/experiments/AOT/AOT_stimuli/rescaled_final/0840_rv.mp4	0.0	358.84174513816833	0.09995794296264648
81	336.1814639568329	fix_pre	0		120	79.0	2.5	/experiments/AOT/AOT_stimuli/rescaled_final/0989_rv.mp4	0.0	358.941703081131	1.0001819133758545
81	337.18164587020874	movie	1		246	79.0	2.5	/experiments/AOT/AOT_stimuli/rescaled_final/0989_rv.mp4	0.0	359.94188499450684	2.4998960494995117
81	337.56443190574646	pulse	1	t		79.0	2.5	/experiments/AOT/AOT_stimuli/rescaled_final/0989_rv.mp4	0.0	360.32467103004456	
81	339.1648950576782	pulse	1	t		79.0	2.5	/experiments/AOT/AOT_stimuli/rescaled_final/0989_rv.mp4	0.0	361.9251341819763	
81	339.68154191970825	fix_post	2		12	79.0	2.5	/experiments/AOT/AOT_stimuli/rescaled_final/0989_rv.mp4	0.0	362.44178104400635	0.10004091262817383
82	339.7815828323364	fix_pre	0		119	80.0	2.5	/experiments/AOT/AOT_stimuli/rescaled_final/0167_fw.mp4	0.0	362.5418219566345	0.9915900230407715
82	340.76495003700256	pulse	0	t		80.0	2.5	/experiments/AOT/AOT_stimuli/rescaled_final/0167_fw.mp4	0.0	363.52518916130066	
82	340.7731728553772	movie	1		244	80.0	2.5	/experiments/AOT/AOT_stimuli/rescaled_final/0167_fw.mp4	0.0	363.5334119796753	2.508329153060913
82	342.36466789245605	pulse	1	t		80.0	2.5	/experiments/AOT/AOT_stimuli/rescaled_final/0167_fw.mp4	0.0	365.12490701675415	
82	343.2815020084381	fix_post	2		12	80.0	2.5	/experiments/AOT/AOT_stimuli/rescaled_final/0167_fw.mp4	0.0	366.0417411327362	0.09998583793640137
83	343.3814878463745	fix_pre	0		120	81.0	2.5	/experiments/AOT/AOT_stimuli/rescaled_final/1397_fw.mp4	0.0	366.1417269706726	0.9995861053466797
83	343.9649510383606	pulse	0	t		81.0	2.5	/experiments/AOT/AOT_stimuli/rescaled_final/1397_fw.mp4	0.0	366.7251901626587	
83	344.3810739517212	movie	1		244	81.0	2.5	/experiments/AOT/AOT_stimuli/rescaled_final/1397_fw.mp4	0.0	367.1413130760193	2.500385046005249
83	345.56500005722046	pulse	1	t		81.0	2.5	/experiments/AOT/AOT_stimuli/rescaled_final/1397_fw.mp4	0.0	368.32523918151855	
83	346.88145899772644	fix_post	2		12	81.0	2.5	/experiments/AOT/AOT_stimuli/rescaled_final/1397_fw.mp4	0.0	369.64169812202454	0.09998893737792969
84	346.98144793510437	fix_pre	0		120	82.0	2.5	blank	1.0	369.74168705940247	0.9995710849761963
84	347.1649498939514	pulse	0	t		82.0	2.5	blank	1.0	369.9251890182495	
84	347.98101902008057	movie	1		300	82.0	2.5	blank	1.0	370.74125814437866	2.500480890274048
84	348.764830827713	pulse	1	t		82.0	2.5	blank	1.0	371.5250699520111	
84	350.36499094963074	pulse	1	t		82.0	2.5	blank	1.0	373.12523007392883	
84	350.4814999103546	fix_post	2		12	82.0	2.5	blank	1.0	373.2417390346527	0.09989595413208008
85	350.5813958644867	fix_pre	0		120	83.0	2.5	/experiments/AOT/AOT_stimuli/rescaled_final/0367_fw.mp4	0.0	373.3416349887848	0.9999830722808838
85	351.5813789367676	movie	1		247	83.0	2.5	/experiments/AOT/AOT_stimuli/rescaled_final/0367_fw.mp4	0.0	374.3416180610657	2.500037908554077
85	351.96451783180237	pulse	1	t		83.0	2.5	/experiments/AOT/AOT_stimuli/rescaled_final/0367_fw.mp4	0.0	374.72475695610046	
85	353.5649540424347	pulse	1	t		83.0	2.5	/experiments/AOT/AOT_stimuli/rescaled_final/0367_fw.mp4	0.0	376.3251931667328	
85	354.08141684532166	fix_post	2		12	83.0	2.5	/experiments/AOT/AOT_stimuli/rescaled_final/0367_fw.mp4	0.0	376.84165596961975	0.1000370979309082
87	354.18145394325256	stim	0		1716					376.94169306755066	14.299905061721802
87	355.16493105888367	pulse	0	t						377.92517018318176	
87	356.764860868454	pulse	0	t						379.5250999927521	
87	358.36486983299255	pulse	0	t						381.12510895729065	
87	359.96488904953003	pulse	0	t						382.7251281738281	
87	361.5648000240326	pulse	0	t						384.3250391483307	
87	363.1647398471832	pulse	0	t						385.9249789714813	
87	364.7647490501404	pulse	0	t						387.5249881744385	
87	366.36473298072815	pulse	0	t						389.12497210502625	
87	367.9647550582886	pulse	0	t						390.72499418258667	
