trial_nr	onset	event_type	phase	response	nr_frames	movie_index	movie_duration	movie_file	blank	onset_abs	duration
0	0.20830988883972168	stim	0		80					23.36095690727234	0.6666440963745117
0	0.8669018745422363	response	0	space						24.019548892974854	
1	0.8749539852142334	stim	0		4646					24.02760100364685	38.73370599746704
1	39.59865999221802	pulse	0	t						62.751307010650635	
1	39.608659982681274	stim	1		1715					62.76130700111389	14.29924988746643
1	41.189579010009766	pulse	1	t						64.34222602844238	
1	42.78988981246948	pulse	1	t						65.9425368309021	
1	44.39003896713257	pulse	1	t						67.54268598556519	
1	45.990171909332275	pulse	1	t						69.14281892776489	
1	47.59054493904114	pulse	1	t						70.74319195747375	
1	49.19072389602661	pulse	1	t						72.34337091445923	
1	50.79098701477051	pulse	1	t						73.94363403320312	
1	52.3911018371582	pulse	1	t						75.54374885559082	
2	53.907909870147705	fix_pre	0		11	0.0	2.5	/experiments/knapen_AOT/AOT_stimuli/rescaled_final/0588_fw.mp4	0.0	77.06055688858032	0.09168195724487305
2	53.991429805755615	pulse	0	t		0.0	2.5	/experiments/knapen_AOT/AOT_stimuli/rescaled_final/0588_fw.mp4	0.0	77.14407682418823	
2	53.99959182739258	movie	1		243	0.0	2.5	/experiments/knapen_AOT/AOT_stimuli/rescaled_final/0588_fw.mp4	0.0	77.1522388458252	2.5086681842803955
2	55.59236288070679	pulse	1	t		0.0	2.5	/experiments/knapen_AOT/AOT_stimuli/rescaled_final/0588_fw.mp4	0.0	78.7450098991394	
2	56.508260011672974	fix_post	2		12	0.0	2.5	/experiments/knapen_AOT/AOT_stimuli/rescaled_final/0588_fw.mp4	0.0	79.66090703010559	0.1000218391418457
3	56.60828185081482	fix_pre	0		120	1.0	2.5	/experiments/knapen_AOT/AOT_stimuli/rescaled_final/1340_rv.mp4	0.0	79.76092886924744	1.0001680850982666
3	57.19201683998108	pulse	0	t		1.0	2.5	/experiments/knapen_AOT/AOT_stimuli/rescaled_final/1340_rv.mp4	0.0	80.3446638584137	
3	57.608449935913086	movie	1		243	1.0	2.5	/experiments/knapen_AOT/AOT_stimuli/rescaled_final/1340_rv.mp4	0.0	80.7610969543457	2.5003809928894043
3	58.79221487045288	pulse	1	t		1.0	2.5	/experiments/knapen_AOT/AOT_stimuli/rescaled_final/1340_rv.mp4	0.0	81.9448618888855	
3	60.10883092880249	fix_post	2		12	1.0	2.5	/experiments/knapen_AOT/AOT_stimuli/rescaled_final/1340_rv.mp4	0.0	83.26147794723511	0.09997701644897461
4	60.208807945251465	fix_pre	0		120	2.0	2.5	/experiments/knapen_AOT/AOT_stimuli/rescaled_final/1367_rv.mp4	0.0	83.36145496368408	1.0001590251922607
4	60.39235281944275	pulse	0	t		2.0	2.5	/experiments/knapen_AOT/AOT_stimuli/rescaled_final/1367_rv.mp4	0.0	83.54499983787537	
4	61.208966970443726	movie	1		243	2.0	2.5	/experiments/knapen_AOT/AOT_stimuli/rescaled_final/1367_rv.mp4	0.0	84.36161398887634	2.5003879070281982
4	61.99269390106201	pulse	1	t		2.0	2.5	/experiments/knapen_AOT/AOT_stimuli/rescaled_final/1367_rv.mp4	0.0	85.14534091949463	
4	63.59255790710449	pulse	1	t		2.0	2.5	/experiments/knapen_AOT/AOT_stimuli/rescaled_final/1367_rv.mp4	0.0	86.74520492553711	
4	63.709354877471924	fix_post	2		12	2.0	2.5	/experiments/knapen_AOT/AOT_stimuli/rescaled_final/1367_rv.mp4	0.0	86.86200189590454	0.09999394416809082
5	63.809348821640015	fix_pre	0		120	3.0	2.5	/experiments/knapen_AOT/AOT_stimuli/rescaled_final/1132_rv.mp4	0.0	86.96199584007263	1.000157117843628
5	64.80950593948364	movie	1		244	3.0	2.5	/experiments/knapen_AOT/AOT_stimuli/rescaled_final/1132_rv.mp4	0.0	87.96215295791626	2.492060899734497
5	65.19357180595398	pulse	1	t		3.0	2.5	/experiments/knapen_AOT/AOT_stimuli/rescaled_final/1132_rv.mp4	0.0	88.3462188243866	
5	66.79336190223694	pulse	1	t		3.0	2.5	/experiments/knapen_AOT/AOT_stimuli/rescaled_final/1132_rv.mp4	0.0	89.94600892066956	
5	67.30156683921814	fix_post	2		12	3.0	2.5	/experiments/knapen_AOT/AOT_stimuli/rescaled_final/1132_rv.mp4	0.0	90.45421385765076	0.09999799728393555
6	67.40156483650208	fix_pre	0		120	4.0	2.5	/experiments/knapen_AOT/AOT_stimuli/rescaled_final/1053_fw.mp4	0.0	90.55421185493469	1.0002081394195557
6	68.39353585243225	pulse	0	t		4.0	2.5	/experiments/knapen_AOT/AOT_stimuli/rescaled_final/1053_fw.mp4	0.0	91.54618287086487	
6	68.40177297592163	movie	1		241	4.0	2.5	/experiments/knapen_AOT/AOT_stimuli/rescaled_final/1053_fw.mp4	0.0	91.55441999435425	2.508626937866211
6	69.99548983573914	pulse	1	t		4.0	2.5	/experiments/knapen_AOT/AOT_stimuli/rescaled_final/1053_fw.mp4	0.0	93.14813685417175	
6	70.91039991378784	fix_post	2		12	4.0	2.5	/experiments/knapen_AOT/AOT_stimuli/rescaled_final/1053_fw.mp4	0.0	94.06304693222046	0.10006189346313477
7	71.01046180725098	fix_pre	0		120	5.0	2.5	/experiments/knapen_AOT/AOT_stimuli/rescaled_final/1957_rv.mp4	0.0	94.1631088256836	1.0001640319824219
7	71.5940477848053	pulse	0	t		5.0	2.5	/experiments/knapen_AOT/AOT_stimuli/rescaled_final/1957_rv.mp4	0.0	94.74669480323792	
7	72.0106258392334	movie	1		243	5.0	2.5	/experiments/knapen_AOT/AOT_stimuli/rescaled_final/1957_rv.mp4	0.0	95.16327285766602	2.500319004058838
7	73.19437193870544	pulse	1	t		5.0	2.5	/experiments/knapen_AOT/AOT_stimuli/rescaled_final/1957_rv.mp4	0.0	96.34701895713806	
7	74.51094484329224	fix_post	2		12	5.0	2.5	/experiments/knapen_AOT/AOT_stimuli/rescaled_final/1957_rv.mp4	0.0	97.66359186172485	0.10004210472106934
8	74.6109869480133	fix_pre	0		120	6.0	2.5	/experiments/knapen_AOT/AOT_stimuli/rescaled_final/0160_rv.mp4	0.0	97.76363396644592	1.0001778602600098
8	74.7945499420166	pulse	0	t		6.0	2.5	/experiments/knapen_AOT/AOT_stimuli/rescaled_final/0160_rv.mp4	0.0	97.94719696044922	
8	75.61116480827332	movie	1		243	6.0	2.5	/experiments/knapen_AOT/AOT_stimuli/rescaled_final/0160_rv.mp4	0.0	98.76381182670593	2.50032114982605
8	76.38743090629578	pulse	1	t		6.0	2.5	/experiments/knapen_AOT/AOT_stimuli/rescaled_final/0160_rv.mp4	0.0	99.5400779247284	
8	77.99483799934387	pulse	1	t		6.0	2.5	/experiments/knapen_AOT/AOT_stimuli/rescaled_final/0160_rv.mp4	0.0	101.14748501777649	
8	78.11148595809937	fix_post	2		12	6.0	2.5	/experiments/knapen_AOT/AOT_stimuli/rescaled_final/0160_rv.mp4	0.0	101.26413297653198	0.10002899169921875
9	78.21151494979858	fix_pre	0		120	7.0	2.5	blank	1.0	101.3641619682312	1.000148057937622
9	79.2116630077362	movie	1		299	7.0	2.5	blank	1.0	102.36431002616882	2.4920248985290527
9	79.5879008769989	pulse	1	t		7.0	2.5	blank	1.0	102.74054789543152	
9	81.18797183036804	pulse	1	t		7.0	2.5	blank	1.0	104.34061884880066	
9	81.70368790626526	fix_post	2		12	7.0	2.5	blank	1.0	104.85633492469788	0.1000370979309082
10	81.80372500419617	fix_pre	0		119	8.0	2.5	/experiments/knapen_AOT/AOT_stimuli/rescaled_final/1955_rv.mp4	0.0	104.95637202262878	0.9918298721313477
10	82.78748178482056	pulse	0	t		8.0	2.5	/experiments/knapen_AOT/AOT_stimuli/rescaled_final/1955_rv.mp4	0.0	105.94012880325317	
10	82.79555487632751	movie	1		245	8.0	2.5	/experiments/knapen_AOT/AOT_stimuli/rescaled_final/1955_rv.mp4	0.0	105.94820189476013	2.508674144744873
10	84.38879895210266	pulse	1	t		8.0	2.5	/experiments/knapen_AOT/AOT_stimuli/rescaled_final/1955_rv.mp4	0.0	107.54144597053528	
10	85.30422902107239	fix_post	2		12	8.0	2.5	/experiments/knapen_AOT/AOT_stimuli/rescaled_final/1955_rv.mp4	0.0	108.456876039505	0.10005378723144531
11	85.40428280830383	fix_pre	0		120	9.0	2.5	/experiments/knapen_AOT/AOT_stimuli/rescaled_final/0709_fw.mp4	0.0	108.55692982673645	1.0001411437988281
11	85.98786687850952	pulse	0	t		9.0	2.5	/experiments/knapen_AOT/AOT_stimuli/rescaled_final/0709_fw.mp4	0.0	109.14051389694214	
11	86.40442395210266	movie	1		243	9.0	2.5	/experiments/knapen_AOT/AOT_stimuli/rescaled_final/0709_fw.mp4	0.0	109.55707097053528	2.5003600120544434
11	87.58818483352661	pulse	1	t		9.0	2.5	/experiments/knapen_AOT/AOT_stimuli/rescaled_final/0709_fw.mp4	0.0	110.74083185195923	
11	88.9047839641571	fix_post	2		12	9.0	2.5	/experiments/knapen_AOT/AOT_stimuli/rescaled_final/0709_fw.mp4	0.0	112.05743098258972	0.10011792182922363
12	89.00490188598633	fix_pre	0		120	10.0	2.5	/experiments/knapen_AOT/AOT_stimuli/rescaled_final/0666_rv.mp4	0.0	112.15754890441895	1.0000450611114502
12	89.18830490112305	pulse	0	t		10.0	2.5	/experiments/knapen_AOT/AOT_stimuli/rescaled_final/0666_rv.mp4	0.0	112.34095191955566	
12	90.00494694709778	movie	1		243	10.0	2.5	/experiments/knapen_AOT/AOT_stimuli/rescaled_final/0666_rv.mp4	0.0	113.1575939655304	2.5003349781036377
12	90.78872084617615	pulse	1	t		10.0	2.5	/experiments/knapen_AOT/AOT_stimuli/rescaled_final/0666_rv.mp4	0.0	113.94136786460876	
12	92.38875699043274	pulse	1	t		10.0	2.5	/experiments/knapen_AOT/AOT_stimuli/rescaled_final/0666_rv.mp4	0.0	115.54140400886536	
12	92.50528192520142	fix_post	2		12	10.0	2.5	/experiments/knapen_AOT/AOT_stimuli/rescaled_final/0666_rv.mp4	0.0	115.65792894363403	0.1000509262084961
13	92.60533285140991	fix_pre	0		120	11.0	2.5	/experiments/knapen_AOT/AOT_stimuli/rescaled_final/1365_fw.mp4	0.0	115.75797986984253	1.000162124633789
13	93.6054949760437	movie	1		243	11.0	2.5	/experiments/knapen_AOT/AOT_stimuli/rescaled_final/1365_fw.mp4	0.0	116.75814199447632	2.4920170307159424
13	93.98962593078613	pulse	1	t		11.0	2.5	/experiments/knapen_AOT/AOT_stimuli/rescaled_final/1365_fw.mp4	0.0	117.14227294921875	
13	95.58934187889099	pulse	1	t		11.0	2.5	/experiments/knapen_AOT/AOT_stimuli/rescaled_final/1365_fw.mp4	0.0	118.74198889732361	
13	96.09751200675964	fix_post	2		12	11.0	2.5	/experiments/knapen_AOT/AOT_stimuli/rescaled_final/1365_fw.mp4	0.0	119.25015902519226	0.10004591941833496
14	96.19755792617798	fix_pre	0		120	12.0	2.5	blank	1.0	119.3502049446106	1.0001370906829834
14	97.18963599205017	pulse	0	t		12.0	2.5	blank	1.0	120.34228301048279	
14	97.19769501686096	movie	1		301	12.0	2.5	blank	1.0	120.35034203529358	2.50870680809021
14	98.78980684280396	pulse	1	t		12.0	2.5	blank	1.0	121.94245386123657	
14	99.70640182495117	fix_post	2		12	12.0	2.5	blank	1.0	122.85904884338379	0.09999418258666992
15	99.80639600753784	fix_pre	0		120	13.0	2.5	/experiments/knapen_AOT/AOT_stimuli/rescaled_final/1007_rv.mp4	0.0	122.95904302597046	1.0001978874206543
15	100.39000797271729	pulse	0	t		13.0	2.5	/experiments/knapen_AOT/AOT_stimuli/rescaled_final/1007_rv.mp4	0.0	123.5426549911499	
15	100.8065938949585	movie	1		245	13.0	2.5	/experiments/knapen_AOT/AOT_stimuli/rescaled_final/1007_rv.mp4	0.0	123.95924091339111	2.500338077545166
15	101.99032187461853	pulse	1	t		13.0	2.5	/experiments/knapen_AOT/AOT_stimuli/rescaled_final/1007_rv.mp4	0.0	125.14296889305115	
15	103.30693197250366	fix_post	2		12	13.0	2.5	/experiments/knapen_AOT/AOT_stimuli/rescaled_final/1007_rv.mp4	0.0	126.45957899093628	0.10009098052978516
16	103.40702295303345	fix_pre	0		120	14.0	2.5	/experiments/knapen_AOT/AOT_stimuli/rescaled_final/0293_rv.mp4	0.0	126.55966997146606	1.0000948905944824
16	103.5906298160553	pulse	0	t		14.0	2.5	/experiments/knapen_AOT/AOT_stimuli/rescaled_final/0293_rv.mp4	0.0	126.74327683448792	
16	104.40711784362793	movie	1		243	14.0	2.5	/experiments/knapen_AOT/AOT_stimuli/rescaled_final/0293_rv.mp4	0.0	127.55976486206055	2.500324010848999
16	105.19089388847351	pulse	1	t		14.0	2.5	/experiments/knapen_AOT/AOT_stimuli/rescaled_final/0293_rv.mp4	0.0	128.34354090690613	
16	106.79107093811035	pulse	1	t		14.0	2.5	/experiments/knapen_AOT/AOT_stimuli/rescaled_final/0293_rv.mp4	0.0	129.94371795654297	
16	106.90744185447693	fix_post	2		12	14.0	2.5	/experiments/knapen_AOT/AOT_stimuli/rescaled_final/0293_rv.mp4	0.0	130.06008887290955	0.10006499290466309
17	107.00750684738159	fix_pre	0		120	15.0	2.5	/experiments/knapen_AOT/AOT_stimuli/rescaled_final/1509_fw.mp4	0.0	130.1601538658142	1.0001330375671387
17	108.00763988494873	movie	1		245	15.0	2.5	/experiments/knapen_AOT/AOT_stimuli/rescaled_final/1509_fw.mp4	0.0	131.16028690338135	2.492051124572754
17	108.39173293113708	pulse	1	t		15.0	2.5	/experiments/knapen_AOT/AOT_stimuli/rescaled_final/1509_fw.mp4	0.0	131.5443799495697	
17	109.99143481254578	pulse	1	t		15.0	2.5	/experiments/knapen_AOT/AOT_stimuli/rescaled_final/1509_fw.mp4	0.0	133.1440818309784	
17	110.49969100952148	fix_post	2		12	15.0	2.5	/experiments/knapen_AOT/AOT_stimuli/rescaled_final/1509_fw.mp4	0.0	133.6523380279541	0.09999990463256836
18	110.59969091415405	fix_pre	0		120	16.0	2.5	/experiments/knapen_AOT/AOT_stimuli/rescaled_final/0866_fw.mp4	0.0	133.75233793258667	1.0001449584960938
18	111.59177088737488	pulse	0	t		16.0	2.5	/experiments/knapen_AOT/AOT_stimuli/rescaled_final/0866_fw.mp4	0.0	134.7444179058075	
18	111.59983587265015	movie	1		245	16.0	2.5	/experiments/knapen_AOT/AOT_stimuli/rescaled_final/0866_fw.mp4	0.0	134.75248289108276	2.5087270736694336
18	113.19256591796875	pulse	1	t		16.0	2.5	/experiments/knapen_AOT/AOT_stimuli/rescaled_final/0866_fw.mp4	0.0	136.34521293640137	
18	114.10856294631958	fix_post	2		12	16.0	2.5	/experiments/knapen_AOT/AOT_stimuli/rescaled_final/0866_fw.mp4	0.0	137.2612099647522	0.10004186630249023
19	114.20860481262207	fix_pre	0		120	17.0	2.5	/experiments/knapen_AOT/AOT_stimuli/rescaled_final/1106_rv.mp4	0.0	137.3612518310547	1.0001120567321777
19	114.79213190078735	pulse	0	t		17.0	2.5	/experiments/knapen_AOT/AOT_stimuli/rescaled_final/1106_rv.mp4	0.0	137.94477891921997	
19	115.20871686935425	movie	1		243	17.0	2.5	/experiments/knapen_AOT/AOT_stimuli/rescaled_final/1106_rv.mp4	0.0	138.36136388778687	2.5003631114959717
19	116.39264392852783	pulse	1	t		17.0	2.5	/experiments/knapen_AOT/AOT_stimuli/rescaled_final/1106_rv.mp4	0.0	139.54529094696045	
19	117.70907998085022	fix_post	2		12	17.0	2.5	/experiments/knapen_AOT/AOT_stimuli/rescaled_final/1106_rv.mp4	0.0	140.86172699928284	0.09999990463256836
20	117.80907988548279	fix_pre	0		120	18.0	2.5	/experiments/knapen_AOT/AOT_stimuli/rescaled_final/1046_fw.mp4	0.0	140.9617269039154	1.0001590251922607
20	117.99269580841064	pulse	0	t		18.0	2.5	/experiments/knapen_AOT/AOT_stimuli/rescaled_final/1046_fw.mp4	0.0	141.14534282684326	
20	118.80923891067505	movie	1		243	18.0	2.5	/experiments/knapen_AOT/AOT_stimuli/rescaled_final/1046_fw.mp4	0.0	141.96188592910767	2.500351905822754
20	119.59300589561462	pulse	1	t		18.0	2.5	/experiments/knapen_AOT/AOT_stimuli/rescaled_final/1046_fw.mp4	0.0	142.74565291404724	
20	121.19319295883179	pulse	1	t		18.0	2.5	/experiments/knapen_AOT/AOT_stimuli/rescaled_final/1046_fw.mp4	0.0	144.3458399772644	
20	121.3095908164978	fix_post	2		12	18.0	2.5	/experiments/knapen_AOT/AOT_stimuli/rescaled_final/1046_fw.mp4	0.0	144.46223783493042	0.1000511646270752
21	121.40964198112488	fix_pre	0		120	19.0	2.5	blank	1.0	144.5622889995575	1.0001378059387207
21	122.4097797870636	movie	1		299	19.0	2.5	blank	1.0	145.56242680549622	2.4920592308044434
21	122.79342198371887	pulse	1	t		19.0	2.5	blank	1.0	145.9460690021515	
21	124.39360499382019	pulse	1	t		19.0	2.5	blank	1.0	147.5462520122528	
21	124.90183901786804	fix_post	2		12	19.0	2.5	blank	1.0	148.05448603630066	0.10006189346313477
22	125.00190091133118	fix_pre	0		120	20.0	2.5	/experiments/knapen_AOT/AOT_stimuli/rescaled_final/1132_fw.mp4	0.0	148.1545479297638	1.0001089572906494
22	125.99389982223511	pulse	0	t		20.0	2.5	/experiments/knapen_AOT/AOT_stimuli/rescaled_final/1132_fw.mp4	0.0	149.14654684066772	
22	126.00200986862183	movie	1		246	20.0	2.5	/experiments/knapen_AOT/AOT_stimuli/rescaled_final/1132_fw.mp4	0.0	149.15465688705444	2.5087080001831055
22	127.59509682655334	pulse	1	t		20.0	2.5	/experiments/knapen_AOT/AOT_stimuli/rescaled_final/1132_fw.mp4	0.0	150.74774384498596	
22	128.51071786880493	fix_post	2		12	20.0	2.5	/experiments/knapen_AOT/AOT_stimuli/rescaled_final/1132_fw.mp4	0.0	151.66336488723755	0.10006093978881836
23	128.61077880859375	fix_pre	0		120	21.0	2.5	/experiments/knapen_AOT/AOT_stimuli/rescaled_final/0306_fw.mp4	0.0	151.76342582702637	1.0001311302185059
23	129.19436693191528	pulse	0	t		21.0	2.5	/experiments/knapen_AOT/AOT_stimuli/rescaled_final/0306_fw.mp4	0.0	152.3470139503479	
23	129.61090993881226	movie	1		243	21.0	2.5	/experiments/knapen_AOT/AOT_stimuli/rescaled_final/0306_fw.mp4	0.0	152.76355695724487	2.500321865081787
23	130.79478693008423	pulse	1	t		21.0	2.5	/experiments/knapen_AOT/AOT_stimuli/rescaled_final/0306_fw.mp4	0.0	153.94743394851685	
23	132.11123180389404	fix_post	2		12	21.0	2.5	/experiments/knapen_AOT/AOT_stimuli/rescaled_final/0306_fw.mp4	0.0	155.26387882232666	0.10001206398010254
24	132.21124386787415	fix_pre	0		120	22.0	2.5	/experiments/knapen_AOT/AOT_stimuli/rescaled_final/1068_fw.mp4	0.0	155.36389088630676	1.0001780986785889
24	132.39493894577026	pulse	0	t		22.0	2.5	/experiments/knapen_AOT/AOT_stimuli/rescaled_final/1068_fw.mp4	0.0	155.54758596420288	
24	133.21142196655273	movie	1		244	22.0	2.5	/experiments/knapen_AOT/AOT_stimuli/rescaled_final/1068_fw.mp4	0.0	156.36406898498535	2.5003719329833984
24	133.99508094787598	pulse	1	t		22.0	2.5	/experiments/knapen_AOT/AOT_stimuli/rescaled_final/1068_fw.mp4	0.0	157.1477279663086	
24	135.59526586532593	pulse	1	t		22.0	2.5	/experiments/knapen_AOT/AOT_stimuli/rescaled_final/1068_fw.mp4	0.0	158.74791288375854	
24	135.71179389953613	fix_post	2		12	22.0	2.5	/experiments/knapen_AOT/AOT_stimuli/rescaled_final/1068_fw.mp4	0.0	158.86444091796875	0.1000208854675293
25	135.81181478500366	fix_pre	0		120	23.0	2.5	/experiments/knapen_AOT/AOT_stimuli/rescaled_final/1519_fw.mp4	0.0	158.96446180343628	1.0001192092895508
25	136.8119339942932	movie	1		243	23.0	2.5	/experiments/knapen_AOT/AOT_stimuli/rescaled_final/1519_fw.mp4	0.0	159.96458101272583	2.492025852203369
25	137.19644594192505	pulse	1	t		23.0	2.5	/experiments/knapen_AOT/AOT_stimuli/rescaled_final/1519_fw.mp4	0.0	160.34909296035767	
25	138.78747487068176	pulse	1	t		23.0	2.5	/experiments/knapen_AOT/AOT_stimuli/rescaled_final/1519_fw.mp4	0.0	161.94012188911438	
25	139.30395984649658	fix_post	2		12	23.0	2.5	/experiments/knapen_AOT/AOT_stimuli/rescaled_final/1519_fw.mp4	0.0	162.4566068649292	0.10002303123474121
26	139.40398287773132	fix_pre	0		119	24.0	2.5	/experiments/knapen_AOT/AOT_stimuli/rescaled_final/0866_rv.mp4	0.0	162.55662989616394	0.9918179512023926
26	140.38763284683228	pulse	0	t		24.0	2.5	/experiments/knapen_AOT/AOT_stimuli/rescaled_final/0866_rv.mp4	0.0	163.5402798652649	
26	140.39580082893372	movie	1		244	24.0	2.5	/experiments/knapen_AOT/AOT_stimuli/rescaled_final/0866_rv.mp4	0.0	163.54844784736633	2.5087060928344727
26	141.988520860672	pulse	1	t		24.0	2.5	/experiments/knapen_AOT/AOT_stimuli/rescaled_final/0866_rv.mp4	0.0	165.14116787910461	
26	142.9045069217682	fix_post	2		12	24.0	2.5	/experiments/knapen_AOT/AOT_stimuli/rescaled_final/0866_rv.mp4	0.0	166.0571539402008	0.10000395774841309
27	143.0045108795166	fix_pre	0		120	25.0	2.5	/experiments/knapen_AOT/AOT_stimuli/rescaled_final/0159_rv.mp4	0.0	166.15715789794922	1.0001890659332275
27	143.58815693855286	pulse	0	t		25.0	2.5	/experiments/knapen_AOT/AOT_stimuli/rescaled_final/0159_rv.mp4	0.0	166.74080395698547	
27	144.00469994544983	movie	1		243	25.0	2.5	/experiments/knapen_AOT/AOT_stimuli/rescaled_final/0159_rv.mp4	0.0	167.15734696388245	2.500337839126587
27	145.18850898742676	pulse	1	t		25.0	2.5	/experiments/knapen_AOT/AOT_stimuli/rescaled_final/0159_rv.mp4	0.0	168.34115600585938	
27	146.50503778457642	fix_post	2		12	25.0	2.5	/experiments/knapen_AOT/AOT_stimuli/rescaled_final/0159_rv.mp4	0.0	169.65768480300903	0.10003519058227539
28	146.6050729751587	fix_pre	0		120	26.0	2.5	blank	1.0	169.7577199935913	1.0001349449157715
28	146.7886619567871	pulse	0	t		26.0	2.5	blank	1.0	169.94130897521973	
28	147.60520792007446	movie	1		300	26.0	2.5	blank	1.0	170.75785493850708	2.500425100326538
28	148.38885378837585	pulse	1	t		26.0	2.5	blank	1.0	171.54150080680847	
28	149.98903489112854	pulse	1	t		26.0	2.5	blank	1.0	173.14168190956116	
28	150.105633020401	fix_post	2		12	26.0	2.5	blank	1.0	173.25828003883362	0.09996795654296875
29	150.20560097694397	fix_pre	0		120	27.0	2.5	/experiments/knapen_AOT/AOT_stimuli/rescaled_final/1307_fw.mp4	0.0	173.3582479953766	1.0001959800720215
29	151.205796957016	movie	1		243	27.0	2.5	/experiments/knapen_AOT/AOT_stimuli/rescaled_final/1307_fw.mp4	0.0	174.3584439754486	2.491978883743286
29	151.58967781066895	pulse	1	t		27.0	2.5	/experiments/knapen_AOT/AOT_stimuli/rescaled_final/1307_fw.mp4	0.0	174.74232482910156	
29	153.18958187103271	pulse	1	t		27.0	2.5	/experiments/knapen_AOT/AOT_stimuli/rescaled_final/1307_fw.mp4	0.0	176.34222888946533	
29	153.69777584075928	fix_post	2		12	27.0	2.5	/experiments/knapen_AOT/AOT_stimuli/rescaled_final/1307_fw.mp4	0.0	176.8504228591919	0.10009598731994629
30	153.79787182807922	fix_pre	0		120	28.0	2.5	/experiments/knapen_AOT/AOT_stimuli/rescaled_final/0378_rv.mp4	0.0	176.95051884651184	1.0000841617584229
30	154.7898290157318	pulse	0	t		28.0	2.5	/experiments/knapen_AOT/AOT_stimuli/rescaled_final/0378_rv.mp4	0.0	177.94247603416443	
30	154.79795598983765	movie	1		246	28.0	2.5	/experiments/knapen_AOT/AOT_stimuli/rescaled_final/0378_rv.mp4	0.0	177.95060300827026	2.5087080001831055
30	156.39385986328125	pulse	1	t		28.0	2.5	/experiments/knapen_AOT/AOT_stimuli/rescaled_final/0378_rv.mp4	0.0	179.54650688171387	
30	157.30666399002075	fix_post	2		12	28.0	2.5	/experiments/knapen_AOT/AOT_stimuli/rescaled_final/0378_rv.mp4	0.0	180.45931100845337	0.10000300407409668
31	157.40666699409485	fix_pre	0		120	29.0	2.5	/experiments/knapen_AOT/AOT_stimuli/rescaled_final/1983_rv.mp4	0.0	180.55931401252747	1.0001678466796875
31	157.99036598205566	pulse	0	t		29.0	2.5	/experiments/knapen_AOT/AOT_stimuli/rescaled_final/1983_rv.mp4	0.0	181.14301300048828	
31	158.40683484077454	movie	1		247	29.0	2.5	/experiments/knapen_AOT/AOT_stimuli/rescaled_final/1983_rv.mp4	0.0	181.55948185920715	2.5003881454467773
31	159.59061193466187	pulse	1	t		29.0	2.5	/experiments/knapen_AOT/AOT_stimuli/rescaled_final/1983_rv.mp4	0.0	182.74325895309448	
31	160.9072229862213	fix_post	2		12	29.0	2.5	/experiments/knapen_AOT/AOT_stimuli/rescaled_final/1983_rv.mp4	0.0	184.05987000465393	0.10004687309265137
32	161.00726985931396	fix_pre	0		120	30.0	2.5	/experiments/knapen_AOT/AOT_stimuli/rescaled_final/0440_rv.mp4	0.0	184.15991687774658	1.000108003616333
32	161.1909568309784	pulse	0	t		30.0	2.5	/experiments/knapen_AOT/AOT_stimuli/rescaled_final/0440_rv.mp4	0.0	184.343603849411	
32	162.0073778629303	movie	1		244	30.0	2.5	/experiments/knapen_AOT/AOT_stimuli/rescaled_final/0440_rv.mp4	0.0	185.16002488136292	2.5003859996795654
32	162.79109001159668	pulse	1	t		30.0	2.5	/experiments/knapen_AOT/AOT_stimuli/rescaled_final/0440_rv.mp4	0.0	185.9437370300293	
32	164.39151692390442	pulse	1	t		30.0	2.5	/experiments/knapen_AOT/AOT_stimuli/rescaled_final/0440_rv.mp4	0.0	187.54416394233704	
32	164.50776386260986	fix_post	2		12	30.0	2.5	/experiments/knapen_AOT/AOT_stimuli/rescaled_final/0440_rv.mp4	0.0	187.66041088104248	0.09999704360961914
33	164.60776090621948	fix_pre	0		119	31.0	2.5	/experiments/knapen_AOT/AOT_stimuli/rescaled_final/2002_fw.mp4	0.0	187.7604079246521	0.9918179512023926
33	165.59957885742188	movie	1		244	31.0	2.5	/experiments/knapen_AOT/AOT_stimuli/rescaled_final/2002_fw.mp4	0.0	188.7522258758545	2.500357151031494
33	165.99163699150085	pulse	1	t		31.0	2.5	/experiments/knapen_AOT/AOT_stimuli/rescaled_final/2002_fw.mp4	0.0	189.14428400993347	
33	167.59171795845032	pulse	1	t		31.0	2.5	/experiments/knapen_AOT/AOT_stimuli/rescaled_final/2002_fw.mp4	0.0	190.74436497688293	
33	168.09993600845337	fix_post	2		12	31.0	2.5	/experiments/knapen_AOT/AOT_stimuli/rescaled_final/2002_fw.mp4	0.0	191.252583026886	0.10001683235168457
34	168.19995284080505	fix_pre	0		120	32.0	2.5	/experiments/knapen_AOT/AOT_stimuli/rescaled_final/1821_rv.mp4	0.0	191.35259985923767	1.0001640319824219
34	169.19206190109253	pulse	0	t		32.0	2.5	/experiments/knapen_AOT/AOT_stimuli/rescaled_final/1821_rv.mp4	0.0	192.34470891952515	
34	169.20011687278748	movie	1		247	32.0	2.5	/experiments/knapen_AOT/AOT_stimuli/rescaled_final/1821_rv.mp4	0.0	192.3527638912201	2.5087361335754395
34	170.79285287857056	pulse	1	t		32.0	2.5	/experiments/knapen_AOT/AOT_stimuli/rescaled_final/1821_rv.mp4	0.0	193.94549989700317	
34	171.70885300636292	fix_post	2		12	32.0	2.5	/experiments/knapen_AOT/AOT_stimuli/rescaled_final/1821_rv.mp4	0.0	194.86150002479553	0.10001087188720703
35	171.80886387825012	fix_pre	0		120	33.0	2.5	/experiments/knapen_AOT/AOT_stimuli/rescaled_final/0437_fw.mp4	0.0	194.96151089668274	1.000101089477539
35	172.3924868106842	pulse	0	t		33.0	2.5	/experiments/knapen_AOT/AOT_stimuli/rescaled_final/0437_fw.mp4	0.0	195.54513382911682	
35	172.80896496772766	movie	1		244	33.0	2.5	/experiments/knapen_AOT/AOT_stimuli/rescaled_final/0437_fw.mp4	0.0	195.96161198616028	2.500358819961548
35	173.99271893501282	pulse	1	t		33.0	2.5	/experiments/knapen_AOT/AOT_stimuli/rescaled_final/0437_fw.mp4	0.0	197.14536595344543	
35	175.3093237876892	fix_post	2		12	33.0	2.5	/experiments/knapen_AOT/AOT_stimuli/rescaled_final/0437_fw.mp4	0.0	198.46197080612183	0.10009002685546875
36	175.40941381454468	fix_pre	0		120	34.0	2.5	/experiments/knapen_AOT/AOT_stimuli/rescaled_final/0694_rv.mp4	0.0	198.5620608329773	1.0001201629638672
36	175.5930459499359	pulse	0	t		34.0	2.5	/experiments/knapen_AOT/AOT_stimuli/rescaled_final/0694_rv.mp4	0.0	198.74569296836853	
36	176.40953397750854	movie	1		243	34.0	2.5	/experiments/knapen_AOT/AOT_stimuli/rescaled_final/0694_rv.mp4	0.0	199.56218099594116	2.500349998474121
36	177.19317984580994	pulse	1	t		34.0	2.5	/experiments/knapen_AOT/AOT_stimuli/rescaled_final/0694_rv.mp4	0.0	200.34582686424255	
36	178.79333996772766	pulse	1	t		34.0	2.5	/experiments/knapen_AOT/AOT_stimuli/rescaled_final/0694_rv.mp4	0.0	201.94598698616028	
36	178.90988397598267	fix_post	2		12	34.0	2.5	/experiments/knapen_AOT/AOT_stimuli/rescaled_final/0694_rv.mp4	0.0	202.06253099441528	0.10001397132873535
37	179.0098979473114	fix_pre	0		120	35.0	2.5	blank	1.0	202.16254496574402	1.0001800060272217
37	180.01007795333862	movie	1		299	35.0	2.5	blank	1.0	203.16272497177124	2.492004871368408
37	180.39371490478516	pulse	1	t		35.0	2.5	blank	1.0	203.54636192321777	
37	181.993891954422	pulse	1	t		35.0	2.5	blank	1.0	205.14653897285461	
37	182.50208282470703	fix_post	2		12	35.0	2.5	blank	1.0	205.65472984313965	0.10002017021179199
38	182.60210299491882	fix_pre	0		120	36.0	2.5	/experiments/knapen_AOT/AOT_stimuli/rescaled_final/2043_fw.mp4	0.0	205.75475001335144	1.0001769065856934
38	183.59424996376038	pulse	0	t		36.0	2.5	/experiments/knapen_AOT/AOT_stimuli/rescaled_final/2043_fw.mp4	0.0	206.746896982193	
38	183.60227990150452	movie	1		245	36.0	2.5	/experiments/knapen_AOT/AOT_stimuli/rescaled_final/2043_fw.mp4	0.0	206.75492691993713	2.508687973022461
38	185.1948778629303	pulse	1	t		36.0	2.5	/experiments/knapen_AOT/AOT_stimuli/rescaled_final/2043_fw.mp4	0.0	208.34752488136292	
38	186.11096787452698	fix_post	2		12	36.0	2.5	/experiments/knapen_AOT/AOT_stimuli/rescaled_final/2043_fw.mp4	0.0	209.2636148929596	0.10001707077026367
39	186.21098494529724	fix_pre	0		120	37.0	2.5	/experiments/knapen_AOT/AOT_stimuli/rescaled_final/2153_fw.mp4	0.0	209.36363196372986	1.0001418590545654
39	186.7946949005127	pulse	0	t		37.0	2.5	/experiments/knapen_AOT/AOT_stimuli/rescaled_final/2153_fw.mp4	0.0	209.9473419189453	
39	187.2111268043518	movie	1		239	37.0	2.5	/experiments/knapen_AOT/AOT_stimuli/rescaled_final/2153_fw.mp4	0.0	210.36377382278442	2.5003931522369385
39	188.39492201805115	pulse	1	t		37.0	2.5	/experiments/knapen_AOT/AOT_stimuli/rescaled_final/2153_fw.mp4	0.0	211.54756903648376	
39	189.71151995658875	fix_post	2		12	37.0	2.5	/experiments/knapen_AOT/AOT_stimuli/rescaled_final/2153_fw.mp4	0.0	212.86416697502136	0.10004901885986328
40	189.8115689754486	fix_pre	0		120	38.0	2.5	/experiments/knapen_AOT/AOT_stimuli/rescaled_final/2133_rv.mp4	0.0	212.96421599388123	1.0000758171081543
40	189.99504590034485	pulse	0	t		38.0	2.5	/experiments/knapen_AOT/AOT_stimuli/rescaled_final/2133_rv.mp4	0.0	213.14769291877747	
40	190.81164479255676	movie	1		243	38.0	2.5	/experiments/knapen_AOT/AOT_stimuli/rescaled_final/2133_rv.mp4	0.0	213.96429181098938	2.500401020050049
40	191.5878608226776	pulse	1	t		38.0	2.5	/experiments/knapen_AOT/AOT_stimuli/rescaled_final/2133_rv.mp4	0.0	214.74050784111023	
40	193.19527196884155	pulse	1	t		38.0	2.5	/experiments/knapen_AOT/AOT_stimuli/rescaled_final/2133_rv.mp4	0.0	216.34791898727417	
40	193.3120458126068	fix_post	2		12	38.0	2.5	/experiments/knapen_AOT/AOT_stimuli/rescaled_final/2133_rv.mp4	0.0	216.46469283103943	0.09998798370361328
41	193.41203379631042	fix_pre	0		120	39.0	2.5	/experiments/knapen_AOT/AOT_stimuli/rescaled_final/1946_rv.mp4	0.0	216.56468081474304	1.0002241134643555
41	194.41225790977478	movie	1		244	39.0	2.5	/experiments/knapen_AOT/AOT_stimuli/rescaled_final/1946_rv.mp4	0.0	217.5649049282074	2.491956949234009
41	194.79618287086487	pulse	1	t		39.0	2.5	/experiments/knapen_AOT/AOT_stimuli/rescaled_final/1946_rv.mp4	0.0	217.94882988929749	
41	196.38872694969177	pulse	1	t		39.0	2.5	/experiments/knapen_AOT/AOT_stimuli/rescaled_final/1946_rv.mp4	0.0	219.5413739681244	
41	196.9042148590088	fix_post	2		12	39.0	2.5	/experiments/knapen_AOT/AOT_stimuli/rescaled_final/1946_rv.mp4	0.0	220.0568618774414	0.10005402565002441
42	197.0042688846588	fix_pre	0		119	40.0	2.5	/experiments/knapen_AOT/AOT_stimuli/rescaled_final/0444_rv.mp4	0.0	220.15691590309143	0.9918229579925537
42	197.98805594444275	pulse	0	t		40.0	2.5	/experiments/knapen_AOT/AOT_stimuli/rescaled_final/0444_rv.mp4	0.0	221.14070296287537	
42	197.99609184265137	movie	1		245	40.0	2.5	/experiments/knapen_AOT/AOT_stimuli/rescaled_final/0444_rv.mp4	0.0	221.14873886108398	2.5086960792541504
42	199.5891399383545	pulse	1	t		40.0	2.5	/experiments/knapen_AOT/AOT_stimuli/rescaled_final/0444_rv.mp4	0.0	222.7417869567871	
42	200.50478792190552	fix_post	2		12	40.0	2.5	/experiments/knapen_AOT/AOT_stimuli/rescaled_final/0444_rv.mp4	0.0	223.65743494033813	0.10002899169921875
43	200.60481691360474	fix_pre	0		120	41.0	2.5	/experiments/knapen_AOT/AOT_stimuli/rescaled_final/0735_rv.mp4	0.0	223.75746393203735	1.0001459121704102
43	201.1883749961853	pulse	0	t		41.0	2.5	/experiments/knapen_AOT/AOT_stimuli/rescaled_final/0735_rv.mp4	0.0	224.34102201461792	
43	201.60496282577515	movie	1		246	41.0	2.5	/experiments/knapen_AOT/AOT_stimuli/rescaled_final/0735_rv.mp4	0.0	224.75760984420776	2.5004141330718994
43	202.78877592086792	pulse	1	t		41.0	2.5	/experiments/knapen_AOT/AOT_stimuli/rescaled_final/0735_rv.mp4	0.0	225.94142293930054	
43	204.10537695884705	fix_post	2		12	41.0	2.5	/experiments/knapen_AOT/AOT_stimuli/rescaled_final/0735_rv.mp4	0.0	227.25802397727966	0.09996700286865234
44	204.2053439617157	fix_pre	0		120	42.0	2.5	blank	1.0	227.35799098014832	1.0001568794250488
44	204.3890039920807	pulse	0	t		42.0	2.5	blank	1.0	227.5416510105133	
44	205.20550084114075	movie	1		300	42.0	2.5	blank	1.0	228.35814785957336	2.5003750324249268
44	205.98909783363342	pulse	1	t		42.0	2.5	blank	1.0	229.14174485206604	
44	207.58939290046692	pulse	1	t		42.0	2.5	blank	1.0	230.74203991889954	
44	207.70587587356567	fix_post	2		12	42.0	2.5	blank	1.0	230.8585228919983	0.10004091262817383
45	207.80591678619385	fix_pre	0		120	43.0	2.5	/experiments/knapen_AOT/AOT_stimuli/rescaled_final/1240_fw.mp4	0.0	230.95856380462646	1.000190019607544
45	208.8061068058014	movie	1		244	43.0	2.5	/experiments/knapen_AOT/AOT_stimuli/rescaled_final/1240_fw.mp4	0.0	231.958753824234	2.4919650554656982
45	209.1900908946991	pulse	1	t		43.0	2.5	/experiments/knapen_AOT/AOT_stimuli/rescaled_final/1240_fw.mp4	0.0	232.3427379131317	
45	210.78997898101807	pulse	1	t		43.0	2.5	/experiments/knapen_AOT/AOT_stimuli/rescaled_final/1240_fw.mp4	0.0	233.94262599945068	
45	211.2980718612671	fix_post	2		12	43.0	2.5	/experiments/knapen_AOT/AOT_stimuli/rescaled_final/1240_fw.mp4	0.0	234.4507188796997	0.10000109672546387
46	211.39807295799255	fix_pre	0		120	44.0	2.5	/experiments/knapen_AOT/AOT_stimuli/rescaled_final/1103_rv.mp4	0.0	234.55071997642517	1.0001769065856934
46	212.39003992080688	pulse	0	t		44.0	2.5	/experiments/knapen_AOT/AOT_stimuli/rescaled_final/1103_rv.mp4	0.0	235.5426869392395	
46	212.39824986457825	movie	1		244	44.0	2.5	/experiments/knapen_AOT/AOT_stimuli/rescaled_final/1103_rv.mp4	0.0	235.55089688301086	2.5086729526519775
46	213.99088978767395	pulse	1	t		44.0	2.5	/experiments/knapen_AOT/AOT_stimuli/rescaled_final/1103_rv.mp4	0.0	237.14353680610657	
46	214.90692281723022	fix_post	2		12	44.0	2.5	/experiments/knapen_AOT/AOT_stimuli/rescaled_final/1103_rv.mp4	0.0	238.05956983566284	0.10002398490905762
47	215.00694680213928	fix_pre	0		120	45.0	2.5	/experiments/knapen_AOT/AOT_stimuli/rescaled_final/1425_rv.mp4	0.0	238.1595938205719	1.0002000331878662
47	215.59060096740723	pulse	0	t		45.0	2.5	/experiments/knapen_AOT/AOT_stimuli/rescaled_final/1425_rv.mp4	0.0	238.74324798583984	
47	216.00714683532715	movie	1		248	45.0	2.5	/experiments/knapen_AOT/AOT_stimuli/rescaled_final/1425_rv.mp4	0.0	239.15979385375977	2.5003530979156494
47	217.19087100028992	pulse	1	t		45.0	2.5	/experiments/knapen_AOT/AOT_stimuli/rescaled_final/1425_rv.mp4	0.0	240.34351801872253	
47	218.5074999332428	fix_post	2		12	45.0	2.5	/experiments/knapen_AOT/AOT_stimuli/rescaled_final/1425_rv.mp4	0.0	241.66014695167542	0.10010600090026855
48	218.60760593414307	fix_pre	0		120	46.0	2.5	/experiments/knapen_AOT/AOT_stimuli/rescaled_final/0526_fw.mp4	0.0	241.76025295257568	1.0000569820404053
48	218.7910759449005	pulse	0	t		46.0	2.5	/experiments/knapen_AOT/AOT_stimuli/rescaled_final/0526_fw.mp4	0.0	241.94372296333313	
48	219.60766291618347	movie	1		244	46.0	2.5	/experiments/knapen_AOT/AOT_stimuli/rescaled_final/0526_fw.mp4	0.0	242.7603099346161	2.5003459453582764
48	220.39123797416687	pulse	1	t		46.0	2.5	/experiments/knapen_AOT/AOT_stimuli/rescaled_final/0526_fw.mp4	0.0	243.5438849925995	
48	221.99170589447021	pulse	1	t		46.0	2.5	/experiments/knapen_AOT/AOT_stimuli/rescaled_final/0526_fw.mp4	0.0	245.14435291290283	
48	222.10800886154175	fix_post	2		11	46.0	2.5	/experiments/knapen_AOT/AOT_stimuli/rescaled_final/0526_fw.mp4	0.0	245.26065587997437	0.09178495407104492
49	222.1997938156128	fix_pre	0		120	47.0	2.5	/experiments/knapen_AOT/AOT_stimuli/rescaled_final/0729_rv.mp4	0.0	245.3524408340454	1.0001630783081055
49	223.1999568939209	movie	1		244	47.0	2.5	/experiments/knapen_AOT/AOT_stimuli/rescaled_final/0729_rv.mp4	0.0	246.35260391235352	2.5002779960632324
49	223.59192490577698	pulse	1	t		47.0	2.5	/experiments/knapen_AOT/AOT_stimuli/rescaled_final/0729_rv.mp4	0.0	246.7445719242096	
49	225.1920509338379	pulse	1	t		47.0	2.5	/experiments/knapen_AOT/AOT_stimuli/rescaled_final/0729_rv.mp4	0.0	248.3446979522705	
49	225.70023488998413	fix_post	2		12	47.0	2.5	/experiments/knapen_AOT/AOT_stimuli/rescaled_final/0729_rv.mp4	0.0	248.85288190841675	0.10002398490905762
50	225.8002588748932	fix_pre	0		120	48.0	2.5	/experiments/knapen_AOT/AOT_stimuli/rescaled_final/0744_rv.mp4	0.0	248.9529058933258	1.000136137008667
50	226.79222583770752	pulse	0	t		48.0	2.5	/experiments/knapen_AOT/AOT_stimuli/rescaled_final/0744_rv.mp4	0.0	249.94487285614014	
50	226.80039501190186	movie	1		246	48.0	2.5	/experiments/knapen_AOT/AOT_stimuli/rescaled_final/0744_rv.mp4	0.0	249.95304203033447	2.5086967945098877
50	228.39290189743042	pulse	1	t		48.0	2.5	/experiments/knapen_AOT/AOT_stimuli/rescaled_final/0744_rv.mp4	0.0	251.54554891586304	
50	229.30909180641174	fix_post	2		12	48.0	2.5	/experiments/knapen_AOT/AOT_stimuli/rescaled_final/0744_rv.mp4	0.0	252.46173882484436	0.10001897811889648
51	229.40911078453064	fix_pre	0		120	49.0	2.5	blank	1.0	252.56175780296326	1.0001392364501953
51	229.99269890785217	pulse	0	t		49.0	2.5	blank	1.0	253.1453459262848	
51	230.40925002098083	movie	1		300	49.0	2.5	blank	1.0	253.56189703941345	2.5003838539123535
51	231.59306001663208	pulse	1	t		49.0	2.5	blank	1.0	254.7457070350647	
51	232.9096338748932	fix_post	2		12	49.0	2.5	blank	1.0	256.0622808933258	0.10001611709594727
52	233.00964999198914	fix_pre	0		120	50.0	2.5	/experiments/knapen_AOT/AOT_stimuli/rescaled_final/1802_fw.mp4	0.0	256.16229701042175	1.000175952911377
52	233.19315099716187	pulse	0	t		50.0	2.5	/experiments/knapen_AOT/AOT_stimuli/rescaled_final/1802_fw.mp4	0.0	256.3457980155945	
52	234.0098259449005	movie	1		243	50.0	2.5	/experiments/knapen_AOT/AOT_stimuli/rescaled_final/1802_fw.mp4	0.0	257.16247296333313	2.5003559589385986
52	234.79346084594727	pulse	1	t		50.0	2.5	/experiments/knapen_AOT/AOT_stimuli/rescaled_final/1802_fw.mp4	0.0	257.9461078643799	
52	236.3935649394989	pulse	1	t		50.0	2.5	/experiments/knapen_AOT/AOT_stimuli/rescaled_final/1802_fw.mp4	0.0	259.5462119579315	
52	236.5101819038391	fix_post	2		12	50.0	2.5	/experiments/knapen_AOT/AOT_stimuli/rescaled_final/1802_fw.mp4	0.0	259.66282892227173	0.09998798370361328
53	236.61016988754272	fix_pre	0		120	51.0	2.5	/experiments/knapen_AOT/AOT_stimuli/rescaled_final/1678_fw.mp4	0.0	259.76281690597534	1.0001490116119385
53	237.61031889915466	movie	1		242	51.0	2.5	/experiments/knapen_AOT/AOT_stimuli/rescaled_final/1678_fw.mp4	0.0	260.7629659175873	2.4920549392700195
53	237.99803590774536	pulse	1	t		51.0	2.5	/experiments/knapen_AOT/AOT_stimuli/rescaled_final/1678_fw.mp4	0.0	261.150682926178	
53	239.59412479400635	pulse	1	t		51.0	2.5	/experiments/knapen_AOT/AOT_stimuli/rescaled_final/1678_fw.mp4	0.0	262.74677181243896	
53	240.10237383842468	fix_post	2		12	51.0	2.5	/experiments/knapen_AOT/AOT_stimuli/rescaled_final/1678_fw.mp4	0.0	263.2550208568573	0.09998703002929688
54	240.20236086845398	fix_pre	0		120	52.0	2.5	/experiments/knapen_AOT/AOT_stimuli/rescaled_final/1186_fw.mp4	0.0	263.3550078868866	1.0001559257507324
54	241.19439387321472	pulse	0	t		52.0	2.5	/experiments/knapen_AOT/AOT_stimuli/rescaled_final/1186_fw.mp4	0.0	264.34704089164734	
54	241.2025167942047	movie	1		245	52.0	2.5	/experiments/knapen_AOT/AOT_stimuli/rescaled_final/1186_fw.mp4	0.0	264.35516381263733	2.5087151527404785
54	242.79499292373657	pulse	1	t		52.0	2.5	/experiments/knapen_AOT/AOT_stimuli/rescaled_final/1186_fw.mp4	0.0	265.9476399421692	
54	243.7112319469452	fix_post	2		12	52.0	2.5	/experiments/knapen_AOT/AOT_stimuli/rescaled_final/1186_fw.mp4	0.0	266.8638789653778	0.10002493858337402
55	243.81125688552856	fix_pre	0		120	53.0	2.5	/experiments/knapen_AOT/AOT_stimuli/rescaled_final/1416_fw.mp4	0.0	266.9639039039612	1.0001330375671387
55	244.39496088027954	pulse	0	t		53.0	2.5	/experiments/knapen_AOT/AOT_stimuli/rescaled_final/1416_fw.mp4	0.0	267.54760789871216	
55	244.8113899230957	movie	1		244	53.0	2.5	/experiments/knapen_AOT/AOT_stimuli/rescaled_final/1416_fw.mp4	0.0	267.9640369415283	2.5005409717559814
55	245.98760199546814	pulse	1	t		53.0	2.5	/experiments/knapen_AOT/AOT_stimuli/rescaled_final/1416_fw.mp4	0.0	269.14024901390076	
55	247.31193089485168	fix_post	2		12	53.0	2.5	/experiments/knapen_AOT/AOT_stimuli/rescaled_final/1416_fw.mp4	0.0	270.4645779132843	0.09989309310913086
56	247.41182398796082	fix_pre	0		117	54.0	2.5	blank	1.0	270.56447100639343	1.0001108646392822
56	247.5879089832306	pulse	0	t		54.0	2.5	blank	1.0	270.7405560016632	
56	248.4119348526001	movie	1		300	54.0	2.5	blank	1.0	271.5645818710327	2.500447988510132
56	249.18797779083252	pulse	1	t		54.0	2.5	blank	1.0	272.34062480926514	
56	250.78760385513306	pulse	1	t		54.0	2.5	blank	1.0	273.9402508735657	
56	250.91238284111023	fix_post	2		12	54.0	2.5	blank	1.0	274.06502985954285	0.09998607635498047
57	251.0123689174652	fix_pre	0		120	55.0	2.5	/experiments/knapen_AOT/AOT_stimuli/rescaled_final/1367_fw.mp4	0.0	274.1650159358978	1.0001130104064941
57	252.0124819278717	movie	1		243	55.0	2.5	/experiments/knapen_AOT/AOT_stimuli/rescaled_final/1367_fw.mp4	0.0	275.1651289463043	2.4920260906219482
57	252.3877148628235	pulse	1	t		55.0	2.5	/experiments/knapen_AOT/AOT_stimuli/rescaled_final/1367_fw.mp4	0.0	275.5403618812561	
57	253.9880199432373	pulse	1	t		55.0	2.5	/experiments/knapen_AOT/AOT_stimuli/rescaled_final/1367_fw.mp4	0.0	277.1406669616699	
57	254.50450801849365	fix_post	2		12	55.0	2.5	/experiments/knapen_AOT/AOT_stimuli/rescaled_final/1367_fw.mp4	0.0	277.65715503692627	0.10003399848937988
58	254.60454201698303	fix_pre	0		119	56.0	2.5	/experiments/knapen_AOT/AOT_stimuli/rescaled_final/0221_rv.mp4	0.0	277.75718903541565	0.9917888641357422
58	255.5881588459015	pulse	0	t		56.0	2.5	/experiments/knapen_AOT/AOT_stimuli/rescaled_final/0221_rv.mp4	0.0	278.7408058643341	
58	255.59633088111877	movie	1		245	56.0	2.5	/experiments/knapen_AOT/AOT_stimuli/rescaled_final/0221_rv.mp4	0.0	278.7489778995514	2.508690118789673
58	257.1893298625946	pulse	1	t		56.0	2.5	/experiments/knapen_AOT/AOT_stimuli/rescaled_final/0221_rv.mp4	0.0	280.3419768810272	
58	258.10502099990845	fix_post	2		12	56.0	2.5	/experiments/knapen_AOT/AOT_stimuli/rescaled_final/0221_rv.mp4	0.0	281.25766801834106	0.10005378723144531
59	258.2050747871399	fix_pre	0		120	57.0	2.5	/experiments/knapen_AOT/AOT_stimuli/rescaled_final/0917_fw.mp4	0.0	281.3577218055725	1.0001652240753174
59	258.7886788845062	pulse	0	t		57.0	2.5	/experiments/knapen_AOT/AOT_stimuli/rescaled_final/0917_fw.mp4	0.0	281.94132590293884	
59	259.2052400112152	movie	1		244	57.0	2.5	/experiments/knapen_AOT/AOT_stimuli/rescaled_final/0917_fw.mp4	0.0	282.3578870296478	2.5003819465637207
59	260.3890619277954	pulse	1	t		57.0	2.5	/experiments/knapen_AOT/AOT_stimuli/rescaled_final/0917_fw.mp4	0.0	283.541708946228	
59	261.70562195777893	fix_post	2		12	57.0	2.5	/experiments/knapen_AOT/AOT_stimuli/rescaled_final/0917_fw.mp4	0.0	284.85826897621155	0.09999585151672363
60	261.80561780929565	fix_pre	0		120	58.0	2.5	/experiments/knapen_AOT/AOT_stimuli/rescaled_final/1307_rv.mp4	0.0	284.95826482772827	1.0001301765441895
60	261.98914885520935	pulse	0	t		58.0	2.5	/experiments/knapen_AOT/AOT_stimuli/rescaled_final/1307_rv.mp4	0.0	285.14179587364197	
60	262.80574798583984	movie	1		245	58.0	2.5	/experiments/knapen_AOT/AOT_stimuli/rescaled_final/1307_rv.mp4	0.0	285.95839500427246	2.5003769397735596
60	263.589537858963	pulse	1	t		58.0	2.5	/experiments/knapen_AOT/AOT_stimuli/rescaled_final/1307_rv.mp4	0.0	286.74218487739563	
60	265.18969082832336	pulse	1	t		58.0	2.5	/experiments/knapen_AOT/AOT_stimuli/rescaled_final/1307_rv.mp4	0.0	288.342337846756	
60	265.3061249256134	fix_post	2		12	58.0	2.5	/experiments/knapen_AOT/AOT_stimuli/rescaled_final/1307_rv.mp4	0.0	288.458771944046	0.1000359058380127
61	265.4061608314514	fix_pre	0		120	59.0	2.5	/experiments/knapen_AOT/AOT_stimuli/rescaled_final/1257_rv.mp4	0.0	288.55880784988403	1.0001771450042725
61	266.4063379764557	movie	1		245	59.0	2.5	/experiments/knapen_AOT/AOT_stimuli/rescaled_final/1257_rv.mp4	0.0	289.5589849948883	2.492027997970581
61	266.790354013443	pulse	1	t		59.0	2.5	/experiments/knapen_AOT/AOT_stimuli/rescaled_final/1257_rv.mp4	0.0	289.9430010318756	
61	268.39012598991394	pulse	1	t		59.0	2.5	/experiments/knapen_AOT/AOT_stimuli/rescaled_final/1257_rv.mp4	0.0	291.54277300834656	
61	268.89836597442627	fix_post	2		12	59.0	2.5	/experiments/knapen_AOT/AOT_stimuli/rescaled_final/1257_rv.mp4	0.0	292.0510129928589	0.10000300407409668
62	268.99836897850037	fix_pre	0		120	60.0	2.5	/experiments/knapen_AOT/AOT_stimuli/rescaled_final/1737_rv.mp4	0.0	292.151015996933	1.000128984451294
62	269.99032402038574	pulse	0	t		60.0	2.5	/experiments/knapen_AOT/AOT_stimuli/rescaled_final/1737_rv.mp4	0.0	293.14297103881836	
62	269.99849796295166	movie	1		244	60.0	2.5	/experiments/knapen_AOT/AOT_stimuli/rescaled_final/1737_rv.mp4	0.0	293.1511449813843	2.5086898803710938
62	271.59110593795776	pulse	1	t		60.0	2.5	/experiments/knapen_AOT/AOT_stimuli/rescaled_final/1737_rv.mp4	0.0	294.7437529563904	
62	272.50718784332275	fix_post	2		12	60.0	2.5	/experiments/knapen_AOT/AOT_stimuli/rescaled_final/1737_rv.mp4	0.0	295.65983486175537	0.1000220775604248
63	272.6072099208832	fix_pre	0		120	61.0	2.5	blank	1.0	295.7598569393158	1.0001568794250488
63	273.1908149719238	pulse	0	t		61.0	2.5	blank	1.0	296.34346199035645	
63	273.6073668003082	movie	1		300	61.0	2.5	blank	1.0	296.76001381874084	2.5004022121429443
63	274.7910919189453	pulse	1	t		61.0	2.5	blank	1.0	297.94373893737793	
63	276.1077690124512	fix_post	2		12	61.0	2.5	blank	1.0	299.2604160308838	0.10001087188720703
64	276.2077798843384	fix_pre	0		120	62.0	2.5	/experiments/knapen_AOT/AOT_stimuli/rescaled_final/0253_rv.mp4	0.0	299.360426902771	1.0001230239868164
64	276.3912818431854	pulse	0	t		62.0	2.5	/experiments/knapen_AOT/AOT_stimuli/rescaled_final/0253_rv.mp4	0.0	299.54392886161804	
64	277.2079029083252	movie	1		245	62.0	2.5	/experiments/knapen_AOT/AOT_stimuli/rescaled_final/0253_rv.mp4	0.0	300.3605499267578	2.5003581047058105
64	277.99154782295227	pulse	1	t		62.0	2.5	/experiments/knapen_AOT/AOT_stimuli/rescaled_final/0253_rv.mp4	0.0	301.1441948413849	
64	279.5894408226013	pulse	1	t		62.0	2.5	/experiments/knapen_AOT/AOT_stimuli/rescaled_final/0253_rv.mp4	0.0	302.74208784103394	
64	279.708261013031	fix_post	2		12	62.0	2.5	/experiments/knapen_AOT/AOT_stimuli/rescaled_final/0253_rv.mp4	0.0	302.8609080314636	0.10003089904785156
65	279.80829191207886	fix_pre	0		120	63.0	2.5	/experiments/knapen_AOT/AOT_stimuli/rescaled_final/1981_fw.mp4	0.0	302.9609389305115	1.0001559257507324
65	280.8084478378296	movie	1		243	63.0	2.5	/experiments/knapen_AOT/AOT_stimuli/rescaled_final/1981_fw.mp4	0.0	303.9610948562622	2.4920401573181152
65	281.1924719810486	pulse	1	t		63.0	2.5	/experiments/knapen_AOT/AOT_stimuli/rescaled_final/1981_fw.mp4	0.0	304.3451189994812	
65	282.7922649383545	pulse	1	t		63.0	2.5	/experiments/knapen_AOT/AOT_stimuli/rescaled_final/1981_fw.mp4	0.0	305.9449119567871	
65	283.3004879951477	fix_post	2		12	63.0	2.5	/experiments/knapen_AOT/AOT_stimuli/rescaled_final/1981_fw.mp4	0.0	306.4531350135803	0.1000359058380127
66	283.4005239009857	fix_pre	0		120	64.0	2.5	/experiments/knapen_AOT/AOT_stimuli/rescaled_final/1257_rv.mp4	0.0	306.55317091941833	1.0001270771026611
66	284.39264488220215	pulse	0	t		64.0	2.5	/experiments/knapen_AOT/AOT_stimuli/rescaled_final/1257_rv.mp4	0.0	307.54529190063477	
66	284.4006509780884	movie	1		247	64.0	2.5	/experiments/knapen_AOT/AOT_stimuli/rescaled_final/1257_rv.mp4	0.0	307.553297996521	2.508788824081421
66	285.9932589530945	pulse	1	t		64.0	2.5	/experiments/knapen_AOT/AOT_stimuli/rescaled_final/1257_rv.mp4	0.0	309.1459059715271	
66	286.9094398021698	fix_post	2		12	64.0	2.5	/experiments/knapen_AOT/AOT_stimuli/rescaled_final/1257_rv.mp4	0.0	310.0620868206024	0.09996819496154785
67	287.00940799713135	fix_pre	0		120	65.0	2.5	/experiments/knapen_AOT/AOT_stimuli/rescaled_final/0158_fw.mp4	0.0	310.16205501556396	1.0001440048217773
67	287.59298181533813	pulse	0	t		65.0	2.5	/experiments/knapen_AOT/AOT_stimuli/rescaled_final/0158_fw.mp4	0.0	310.74562883377075	
67	288.0095520019531	movie	1		244	65.0	2.5	/experiments/knapen_AOT/AOT_stimuli/rescaled_final/0158_fw.mp4	0.0	311.16219902038574	2.5003459453582764
67	289.19329380989075	pulse	1	t		65.0	2.5	/experiments/knapen_AOT/AOT_stimuli/rescaled_final/0158_fw.mp4	0.0	312.34594082832336	
67	290.5098979473114	fix_post	2		12	65.0	2.5	/experiments/knapen_AOT/AOT_stimuli/rescaled_final/0158_fw.mp4	0.0	313.662544965744	0.10000395774841309
68	290.6099019050598	fix_pre	0		120	66.0	2.5	/experiments/knapen_AOT/AOT_stimuli/rescaled_final/0932_rv.mp4	0.0	313.76254892349243	1.0001499652862549
68	290.7935209274292	pulse	0	t		66.0	2.5	/experiments/knapen_AOT/AOT_stimuli/rescaled_final/0932_rv.mp4	0.0	313.9461679458618	
68	291.61005187034607	movie	1		244	66.0	2.5	/experiments/knapen_AOT/AOT_stimuli/rescaled_final/0932_rv.mp4	0.0	314.7626988887787	2.5003600120544434
68	292.3938457965851	pulse	1	t		66.0	2.5	/experiments/knapen_AOT/AOT_stimuli/rescaled_final/0932_rv.mp4	0.0	315.5464928150177	
68	293.994019985199	pulse	1	t		66.0	2.5	/experiments/knapen_AOT/AOT_stimuli/rescaled_final/0932_rv.mp4	0.0	317.1466670036316	
68	294.1104118824005	fix_post	2		12	66.0	2.5	/experiments/knapen_AOT/AOT_stimuli/rescaled_final/0932_rv.mp4	0.0	317.26305890083313	0.10001492500305176
69	294.21042680740356	fix_pre	0		120	67.0	2.5	/experiments/knapen_AOT/AOT_stimuli/rescaled_final/0233_rv.mp4	0.0	317.3630738258362	1.0001990795135498
69	295.2106258869171	movie	1		243	67.0	2.5	/experiments/knapen_AOT/AOT_stimuli/rescaled_final/0233_rv.mp4	0.0	318.36327290534973	2.49200701713562
69	295.5947198867798	pulse	1	t		67.0	2.5	/experiments/knapen_AOT/AOT_stimuli/rescaled_final/0233_rv.mp4	0.0	318.7473669052124	
69	297.1944878101349	pulse	1	t		67.0	2.5	/experiments/knapen_AOT/AOT_stimuli/rescaled_final/0233_rv.mp4	0.0	320.3471348285675	
69	297.70263290405273	fix_post	2		12	67.0	2.5	/experiments/knapen_AOT/AOT_stimuli/rescaled_final/0233_rv.mp4	0.0	320.85527992248535	0.10003304481506348
70	297.8026659488678	fix_pre	0		120	68.0	2.5	/experiments/knapen_AOT/AOT_stimuli/rescaled_final/0594_fw.mp4	0.0	320.9553129673004	1.000133991241455
70	298.7947988510132	pulse	0	t		68.0	2.5	/experiments/knapen_AOT/AOT_stimuli/rescaled_final/0594_fw.mp4	0.0	321.9474458694458	
70	298.80279994010925	movie	1		244	68.0	2.5	/experiments/knapen_AOT/AOT_stimuli/rescaled_final/0594_fw.mp4	0.0	321.95544695854187	2.5087039470672607
70	300.3989748954773	pulse	1	t		68.0	2.5	/experiments/knapen_AOT/AOT_stimuli/rescaled_final/0594_fw.mp4	0.0	323.5516219139099	
70	301.3115038871765	fix_post	2		12	68.0	2.5	/experiments/knapen_AOT/AOT_stimuli/rescaled_final/0594_fw.mp4	0.0	324.46415090560913	0.10007810592651367
71	301.411581993103	fix_pre	0		120	69.0	2.5	blank	1.0	324.56422901153564	1.0001327991485596
71	301.9951260089874	pulse	0	t		69.0	2.5	blank	1.0	325.14777302742004	
71	302.4117147922516	movie	1		300	69.0	2.5	blank	1.0	325.5643618106842	2.5003151893615723
71	303.5953748226166	pulse	1	t		69.0	2.5	blank	1.0	326.7480218410492	
71	304.91202998161316	fix_post	2		12	69.0	2.5	blank	1.0	328.0646770000458	0.1000509262084961
72	305.01208090782166	fix_pre	0		120	70.0	2.5	/experiments/knapen_AOT/AOT_stimuli/rescaled_final/0802_rv.mp4	0.0	328.1647279262543	1.000143051147461
72	305.19574093818665	pulse	0	t		70.0	2.5	/experiments/knapen_AOT/AOT_stimuli/rescaled_final/0802_rv.mp4	0.0	328.34838795661926	
72	306.0122239589691	movie	1		245	70.0	2.5	/experiments/knapen_AOT/AOT_stimuli/rescaled_final/0802_rv.mp4	0.0	329.16487097740173	2.5003719329833984
72	306.78854179382324	pulse	1	t		70.0	2.5	/experiments/knapen_AOT/AOT_stimuli/rescaled_final/0802_rv.mp4	0.0	329.94118881225586	
72	308.3936688899994	pulse	1	t		70.0	2.5	/experiments/knapen_AOT/AOT_stimuli/rescaled_final/0802_rv.mp4	0.0	331.546315908432	
72	308.5125958919525	fix_post	2		12	70.0	2.5	/experiments/knapen_AOT/AOT_stimuli/rescaled_final/0802_rv.mp4	0.0	331.66524291038513	0.10005497932434082
73	308.61265087127686	fix_pre	0		120	71.0	2.5	/experiments/knapen_AOT/AOT_stimuli/rescaled_final/1821_rv.mp4	0.0	331.7652978897095	1.00058913230896
73	309.6132400035858	movie	1		241	71.0	2.5	/experiments/knapen_AOT/AOT_stimuli/rescaled_final/1821_rv.mp4	0.0	332.76588702201843	2.491581916809082
73	309.99675583839417	pulse	1	t		71.0	2.5	/experiments/knapen_AOT/AOT_stimuli/rescaled_final/1821_rv.mp4	0.0	333.1494028568268	
73	311.5891878604889	pulse	1	t		71.0	2.5	/experiments/knapen_AOT/AOT_stimuli/rescaled_final/1821_rv.mp4	0.0	334.7418348789215	
73	312.1048219203949	fix_post	2		12	71.0	2.5	/experiments/knapen_AOT/AOT_stimuli/rescaled_final/1821_rv.mp4	0.0	335.2574689388275	0.09998488426208496
74	312.204806804657	fix_pre	0		119	72.0	2.5	/experiments/knapen_AOT/AOT_stimuli/rescaled_final/2154_rv.mp4	0.0	335.3574538230896	0.9918081760406494
74	313.18840980529785	pulse	0	t		72.0	2.5	/experiments/knapen_AOT/AOT_stimuli/rescaled_final/2154_rv.mp4	0.0	336.34105682373047	
74	313.19661498069763	movie	1		258	72.0	2.5	/experiments/knapen_AOT/AOT_stimuli/rescaled_final/2154_rv.mp4	0.0	336.34926199913025	2.5087029933929443
74	314.7894449234009	pulse	1	t		72.0	2.5	/experiments/knapen_AOT/AOT_stimuli/rescaled_final/2154_rv.mp4	0.0	337.9420919418335	
74	315.7053179740906	fix_post	2		12	72.0	2.5	/experiments/knapen_AOT/AOT_stimuli/rescaled_final/2154_rv.mp4	0.0	338.8579649925232	0.10001301765441895
75	315.805330991745	fix_pre	0		120	73.0	2.5	/experiments/knapen_AOT/AOT_stimuli/rescaled_final/1963_rv.mp4	0.0	338.9579780101776	1.0001440048217773
75	316.3890550136566	pulse	0	t		73.0	2.5	/experiments/knapen_AOT/AOT_stimuli/rescaled_final/1963_rv.mp4	0.0	339.54170203208923	
75	316.8054749965668	movie	1		246	73.0	2.5	/experiments/knapen_AOT/AOT_stimuli/rescaled_final/1963_rv.mp4	0.0	339.9581220149994	2.500396966934204
75	317.9892439842224	pulse	1	t		73.0	2.5	/experiments/knapen_AOT/AOT_stimuli/rescaled_final/1963_rv.mp4	0.0	341.14189100265503	
75	319.305871963501	fix_post	2		12	73.0	2.5	/experiments/knapen_AOT/AOT_stimuli/rescaled_final/1963_rv.mp4	0.0	342.4585189819336	0.10002899169921875
76	319.4059009552002	fix_pre	0		120	74.0	2.5	/experiments/knapen_AOT/AOT_stimuli/rescaled_final/0425_rv.mp4	0.0	342.5585479736328	1.0001130104064941
76	319.58946084976196	pulse	0	t		74.0	2.5	/experiments/knapen_AOT/AOT_stimuli/rescaled_final/0425_rv.mp4	0.0	342.7421078681946	
76	320.4060139656067	movie	1		244	74.0	2.5	/experiments/knapen_AOT/AOT_stimuli/rescaled_final/0425_rv.mp4	0.0	343.5586609840393	2.5003838539123535
76	321.1897029876709	pulse	1	t		74.0	2.5	/experiments/knapen_AOT/AOT_stimuli/rescaled_final/0425_rv.mp4	0.0	344.3423500061035	
76	322.78972482681274	pulse	1	t		74.0	2.5	/experiments/knapen_AOT/AOT_stimuli/rescaled_final/0425_rv.mp4	0.0	345.94237184524536	
76	322.90639781951904	fix_post	2		12	74.0	2.5	/experiments/knapen_AOT/AOT_stimuli/rescaled_final/0425_rv.mp4	0.0	346.05904483795166	0.1000511646270752
77	323.0064489841461	fix_pre	0		119	75.0	2.5	blank	1.0	346.15909600257874	0.9917559623718262
77	323.99820494651794	movie	1		300	75.0	2.5	blank	1.0	347.15085196495056	2.5004470348358154
77	324.39012694358826	pulse	1	t		75.0	2.5	blank	1.0	347.5427739620209	
77	325.9903869628906	pulse	1	t		75.0	2.5	blank	1.0	349.14303398132324	
77	326.49865198135376	fix_post	2		12	75.0	2.5	blank	1.0	349.6512989997864	0.09996700286865234
78	326.5986189842224	fix_pre	0		120	76.0	2.5	/experiments/knapen_AOT/AOT_stimuli/rescaled_final/0681_rv.mp4	0.0	349.75126600265503	1.0001308917999268
78	327.59073996543884	pulse	0	t		76.0	2.5	/experiments/knapen_AOT/AOT_stimuli/rescaled_final/0681_rv.mp4	0.0	350.74338698387146	
78	327.59874987602234	movie	1		244	76.0	2.5	/experiments/knapen_AOT/AOT_stimuli/rescaled_final/0681_rv.mp4	0.0	350.75139689445496	2.508755922317505
78	329.1912808418274	pulse	1	t		76.0	2.5	/experiments/knapen_AOT/AOT_stimuli/rescaled_final/0681_rv.mp4	0.0	352.34392786026	
78	330.10750579833984	fix_post	2		12	76.0	2.5	/experiments/knapen_AOT/AOT_stimuli/rescaled_final/0681_rv.mp4	0.0	353.26015281677246	0.09998416900634766
79	330.2074899673462	fix_pre	0		120	77.0	2.5	/experiments/knapen_AOT/AOT_stimuli/rescaled_final/1344_fw.mp4	0.0	353.3601369857788	1.000143051147461
79	330.79109597206116	pulse	0	t		77.0	2.5	/experiments/knapen_AOT/AOT_stimuli/rescaled_final/1344_fw.mp4	0.0	353.9437429904938	
79	331.20763301849365	movie	1		244	77.0	2.5	/experiments/knapen_AOT/AOT_stimuli/rescaled_final/1344_fw.mp4	0.0	354.36028003692627	2.500347852706909
79	332.3914198875427	pulse	1	t		77.0	2.5	/experiments/knapen_AOT/AOT_stimuli/rescaled_final/1344_fw.mp4	0.0	355.54406690597534	
79	333.70798087120056	fix_post	2		12	77.0	2.5	/experiments/knapen_AOT/AOT_stimuli/rescaled_final/1344_fw.mp4	0.0	356.8606278896332	0.10005402565002441
80	333.8080348968506	fix_pre	0		120	78.0	2.5	/experiments/knapen_AOT/AOT_stimuli/rescaled_final/0029_fw.mp4	0.0	356.9606819152832	1.0001261234283447
80	333.99156880378723	pulse	0	t		78.0	2.5	/experiments/knapen_AOT/AOT_stimuli/rescaled_final/0029_fw.mp4	0.0	357.14421582221985	
80	334.80816102027893	movie	1		245	78.0	2.5	/experiments/knapen_AOT/AOT_stimuli/rescaled_final/0029_fw.mp4	0.0	357.96080803871155	2.500375986099243
80	335.59189200401306	pulse	1	t		78.0	2.5	/experiments/knapen_AOT/AOT_stimuli/rescaled_final/0029_fw.mp4	0.0	358.7445390224457	
80	337.1895840167999	pulse	1	t		78.0	2.5	/experiments/knapen_AOT/AOT_stimuli/rescaled_final/0029_fw.mp4	0.0	360.34223103523254	
80	337.3085370063782	fix_post	2		12	78.0	2.5	/experiments/knapen_AOT/AOT_stimuli/rescaled_final/0029_fw.mp4	0.0	360.4611840248108	0.10002994537353516
81	337.4085669517517	fix_pre	0		120	79.0	2.5	/experiments/knapen_AOT/AOT_stimuli/rescaled_final/0504_fw.mp4	0.0	360.5612139701843	1.000133991241455
81	338.40870094299316	movie	1		243	79.0	2.5	/experiments/knapen_AOT/AOT_stimuli/rescaled_final/0504_fw.mp4	0.0	361.5613479614258	2.492020845413208
81	338.7943048477173	pulse	1	t		79.0	2.5	/experiments/knapen_AOT/AOT_stimuli/rescaled_final/0504_fw.mp4	0.0	361.9469518661499	
81	340.39252400398254	pulse	1	t		79.0	2.5	/experiments/knapen_AOT/AOT_stimuli/rescaled_final/0504_fw.mp4	0.0	363.54517102241516	
81	340.9007217884064	fix_post	2		12	79.0	2.5	/experiments/knapen_AOT/AOT_stimuli/rescaled_final/0504_fw.mp4	0.0	364.053368806839	0.10001921653747559
82	341.00074100494385	fix_pre	0		120	80.0	2.5	/experiments/knapen_AOT/AOT_stimuli/rescaled_final/0932_fw.mp4	0.0	364.15338802337646	1.0001718997955322
82	341.9929039478302	pulse	0	t		80.0	2.5	/experiments/knapen_AOT/AOT_stimuli/rescaled_final/0932_fw.mp4	0.0	365.1455509662628	
82	342.0009129047394	movie	1		245	80.0	2.5	/experiments/knapen_AOT/AOT_stimuli/rescaled_final/0932_fw.mp4	0.0	365.153559923172	2.5087180137634277
82	343.59350991249084	pulse	1	t		80.0	2.5	/experiments/knapen_AOT/AOT_stimuli/rescaled_final/0932_fw.mp4	0.0	366.74615693092346	
82	344.5096309185028	fix_post	2		12	80.0	2.5	/experiments/knapen_AOT/AOT_stimuli/rescaled_final/0932_fw.mp4	0.0	367.6622779369354	0.1000070571899414
83	344.60963797569275	fix_pre	0		120	81.0	2.5	/experiments/knapen_AOT/AOT_stimuli/rescaled_final/0866_fw.mp4	0.0	367.76228499412537	1.000196933746338
83	345.19325399398804	pulse	0	t		81.0	2.5	/experiments/knapen_AOT/AOT_stimuli/rescaled_final/0866_fw.mp4	0.0	368.34590101242065	
83	345.6098349094391	movie	1		243	81.0	2.5	/experiments/knapen_AOT/AOT_stimuli/rescaled_final/0866_fw.mp4	0.0	368.7624819278717	2.5003418922424316
83	346.79362893104553	pulse	1	t		81.0	2.5	/experiments/knapen_AOT/AOT_stimuli/rescaled_final/0866_fw.mp4	0.0	369.94627594947815	
83	348.1101768016815	fix_post	2		12	81.0	2.5	/experiments/knapen_AOT/AOT_stimuli/rescaled_final/0866_fw.mp4	0.0	371.26282382011414	0.10004615783691406
84	348.21022295951843	fix_pre	0		120	82.0	2.5	/experiments/knapen_AOT/AOT_stimuli/rescaled_final/1365_rv.mp4	0.0	371.36286997795105	1.0001249313354492
84	348.39370679855347	pulse	0	t		82.0	2.5	/experiments/knapen_AOT/AOT_stimuli/rescaled_final/1365_rv.mp4	0.0	371.5463538169861	
84	349.2103478908539	movie	1		244	82.0	2.5	/experiments/knapen_AOT/AOT_stimuli/rescaled_final/1365_rv.mp4	0.0	372.3629949092865	2.5003459453582764
84	349.99396085739136	pulse	1	t		82.0	2.5	/experiments/knapen_AOT/AOT_stimuli/rescaled_final/1365_rv.mp4	0.0	373.146607875824	
84	351.594153881073	pulse	1	t		82.0	2.5	/experiments/knapen_AOT/AOT_stimuli/rescaled_final/1365_rv.mp4	0.0	374.7468008995056	
84	351.71069383621216	fix_post	2		12	82.0	2.5	/experiments/knapen_AOT/AOT_stimuli/rescaled_final/1365_rv.mp4	0.0	374.8633408546448	0.10001802444458008
85	351.81071186065674	fix_pre	0		120	83.0	2.5	blank	1.0	374.96335887908936	1.0002191066741943
85	352.81093096733093	movie	1		299	83.0	2.5	blank	1.0	375.96357798576355	2.491978883743286
85	353.1945788860321	pulse	1	t		83.0	2.5	blank	1.0	376.3472259044647	
85	354.79468393325806	pulse	1	t		83.0	2.5	blank	1.0	377.9473309516907	
85	355.3029098510742	fix_post	2		12	83.0	2.5	blank	1.0	378.45555686950684	0.10000801086425781
87	355.4029178619385	stim	0		1716					378.5555648803711	14.302139043807983
87	356.3949429988861	pulse	0	t						379.5475900173187	
87	357.98789501190186	pulse	0	t						381.1405420303345	
87	359.58809781074524	pulse	0	t						382.74074482917786	
87	361.18823194503784	pulse	0	t						384.34087896347046	
87	362.7884519100189	pulse	0	t						385.94109892845154	
87	364.38862586021423	pulse	0	t						387.54127287864685	
87	365.98794984817505	pulse	0	t						389.14059686660767	
87	367.588152885437	pulse	0	t						390.74079990386963	
87	369.188533782959	pulse	0	t						392.3411808013916	
