trial_nr	onset	event_type	phase	response	nr_frames	movie_index	movie_duration	movie_file	blank	onset_abs	duration
0	0.15830492973327637	stim	0		60					21.126496076583862	0.5000200271606445
0	0.6499829292297363	response	0	space						21.618174076080322	
1	0.6583249568939209	stim	0		4698					21.626516103744507	39.14940786361694
1	39.80057501792908	pulse	0	t						60.76876616477966	
1	39.807732820510864	stim	1		1717					60.77592396736145	14.308380126953125
1	41.399773836135864	pulse	1	t						62.36796498298645	
1	42.99956393241882	pulse	1	t						63.96775507926941	
1	44.599589824676514	pulse	1	t						65.5677809715271	
1	46.19959902763367	pulse	1	t						67.16779017448425	
1	47.79954791069031	pulse	1	t						68.7677390575409	
1	49.39958190917969	pulse	1	t						70.36777305603027	
1	50.99962902069092	pulse	1	t						71.9678201675415	
1	52.599522829055786	pulse	1	t						73.56771397590637	
2	54.11611294746399	fix_pre	0		11	0.0	2.5	/experiments/AOT/AOT_stimuli/rescaled_final/0161_rv.mp4	0.0	75.08430409431458	0.0912470817565918
2	54.19916892051697	pulse	0	t		0.0	2.5	/experiments/AOT/AOT_stimuli/rescaled_final/0161_rv.mp4	0.0	75.16736006736755	
2	54.20736002922058	movie	1		243	0.0	2.5	/experiments/AOT/AOT_stimuli/rescaled_final/0161_rv.mp4	0.0	75.17555117607117	2.5082099437713623
2	55.798987865448	pulse	1	t		0.0	2.5	/experiments/AOT/AOT_stimuli/rescaled_final/0161_rv.mp4	0.0	76.76717901229858	
2	56.71556997299194	fix_post	2		12	0.0	2.5	/experiments/AOT/AOT_stimuli/rescaled_final/0161_rv.mp4	0.0	77.68376111984253	0.10053491592407227
3	56.816104888916016	fix_pre	0		120	1.0	2.5	/experiments/AOT/AOT_stimuli/rescaled_final/0674_fw.mp4	0.0	77.7842960357666	0.9999339580535889
3	57.39951682090759	pulse	0	t		1.0	2.5	/experiments/AOT/AOT_stimuli/rescaled_final/0674_fw.mp4	0.0	78.36770796775818	
3	57.816038846969604	movie	1		245	1.0	2.5	/experiments/AOT/AOT_stimuli/rescaled_final/0674_fw.mp4	0.0	78.78422999382019	2.4996490478515625
3	58.99965190887451	pulse	1	t		1.0	2.5	/experiments/AOT/AOT_stimuli/rescaled_final/0674_fw.mp4	0.0	79.9678430557251	
3	60.31568789482117	fix_post	2		12	1.0	2.5	/experiments/AOT/AOT_stimuli/rescaled_final/0674_fw.mp4	0.0	81.28387904167175	0.1003260612487793
4	60.416013956069946	fix_pre	0		120	2.0	2.5	/experiments/AOT/AOT_stimuli/rescaled_final/0024_rv.mp4	0.0	81.38420510292053	1.0000100135803223
4	60.59961485862732	pulse	0	t		2.0	2.5	/experiments/AOT/AOT_stimuli/rescaled_final/0024_rv.mp4	0.0	81.5678060054779	
4	61.41602396965027	movie	1		246	2.0	2.5	/experiments/AOT/AOT_stimuli/rescaled_final/0024_rv.mp4	0.0	82.38421511650085	2.4999120235443115
4	62.19938087463379	pulse	1	t		2.0	2.5	/experiments/AOT/AOT_stimuli/rescaled_final/0024_rv.mp4	0.0	83.16757202148438	
4	63.79803681373596	pulse	1	t		2.0	2.5	/experiments/AOT/AOT_stimuli/rescaled_final/0024_rv.mp4	0.0	84.76622796058655	
4	63.91593599319458	fix_post	2		12	2.0	2.5	/experiments/AOT/AOT_stimuli/rescaled_final/0024_rv.mp4	0.0	84.88412714004517	0.10000491142272949
5	64.01594090461731	fix_pre	0		120	3.0	2.5	/experiments/AOT/AOT_stimuli/rescaled_final/0575_fw.mp4	0.0	84.9841320514679	1.000020980834961
5	65.01596188545227	movie	1		244	3.0	2.5	/experiments/AOT/AOT_stimuli/rescaled_final/0575_fw.mp4	0.0	85.98415303230286	2.499969959259033
5	65.39905500411987	pulse	1	t		3.0	2.5	/experiments/AOT/AOT_stimuli/rescaled_final/0575_fw.mp4	0.0	86.36724615097046	
5	66.99941086769104	pulse	1	t		3.0	2.5	/experiments/AOT/AOT_stimuli/rescaled_final/0575_fw.mp4	0.0	87.96760201454163	
5	67.5159318447113	fix_post	2		12	3.0	2.5	/experiments/AOT/AOT_stimuli/rescaled_final/0575_fw.mp4	0.0	88.48412299156189	0.0999901294708252
6	67.61592197418213	fix_pre	0		119	4.0	2.5	/experiments/AOT/AOT_stimuli/rescaled_final/0420_fw.mp4	0.0	88.58411312103271	0.9917030334472656
6	68.59952998161316	pulse	0	t		4.0	2.5	/experiments/AOT/AOT_stimuli/rescaled_final/0420_fw.mp4	0.0	89.56772112846375	
6	68.6076250076294	movie	1		246	4.0	2.5	/experiments/AOT/AOT_stimuli/rescaled_final/0420_fw.mp4	0.0	89.57581615447998	2.507917881011963
6	70.19921493530273	pulse	1	t		4.0	2.5	/experiments/AOT/AOT_stimuli/rescaled_final/0420_fw.mp4	0.0	91.16740608215332	
6	71.11554288864136	fix_post	2		12	4.0	2.5	/experiments/AOT/AOT_stimuli/rescaled_final/0420_fw.mp4	0.0	92.08373403549194	0.10060811042785645
7	71.21615099906921	fix_pre	0		120	5.0	2.5	blank	1.0	92.1843421459198	0.9998350143432617
7	71.79946303367615	pulse	0	t		5.0	2.5	blank	1.0	92.76765418052673	
7	72.21598601341248	movie	1		300	5.0	2.5	blank	1.0	93.18417716026306	2.4995298385620117
7	73.39945197105408	pulse	1	t		5.0	2.5	blank	1.0	94.36764311790466	
7	74.71551585197449	fix_post	2		12	5.0	2.5	blank	1.0	95.68370699882507	0.10034799575805664
8	74.81586384773254	fix_pre	0		120	6.0	2.5	/experiments/AOT/AOT_stimuli/rescaled_final/1923_fw.mp4	0.0	95.78405499458313	1.0001320838928223
8	74.99954986572266	pulse	0	t		6.0	2.5	/experiments/AOT/AOT_stimuli/rescaled_final/1923_fw.mp4	0.0	95.96774101257324	
8	75.81599593162537	movie	1		245	6.0	2.5	/experiments/AOT/AOT_stimuli/rescaled_final/1923_fw.mp4	0.0	96.78418707847595	2.4998579025268555
8	76.59945797920227	pulse	1	t		6.0	2.5	/experiments/AOT/AOT_stimuli/rescaled_final/1923_fw.mp4	0.0	97.56764912605286	
8	78.19543385505676	pulse	1	t		6.0	2.5	/experiments/AOT/AOT_stimuli/rescaled_final/1923_fw.mp4	0.0	99.16362500190735	
8	78.31585383415222	fix_post	2		12	6.0	2.5	/experiments/AOT/AOT_stimuli/rescaled_final/1923_fw.mp4	0.0	99.28404498100281	0.10008811950683594
9	78.41594195365906	fix_pre	0		120	7.0	2.5	/experiments/AOT/AOT_stimuli/rescaled_final/1566_fw.mp4	0.0	99.38413310050964	0.9999449253082275
9	79.41588687896729	movie	1		245	7.0	2.5	/experiments/AOT/AOT_stimuli/rescaled_final/1566_fw.mp4	0.0	100.38407802581787	2.4996049404144287
9	79.8006808757782	pulse	1	t		7.0	2.5	/experiments/AOT/AOT_stimuli/rescaled_final/1566_fw.mp4	0.0	100.76887202262878	
9	81.39946103096008	pulse	1	t		7.0	2.5	/experiments/AOT/AOT_stimuli/rescaled_final/1566_fw.mp4	0.0	102.36765217781067	
9	81.91549181938171	fix_post	2		12	7.0	2.5	/experiments/AOT/AOT_stimuli/rescaled_final/1566_fw.mp4	0.0	102.8836829662323	0.1004800796508789
10	82.01597189903259	fix_pre	0		119	8.0	2.5	/experiments/AOT/AOT_stimuli/rescaled_final/0868_fw.mp4	0.0	102.98416304588318	0.9915640354156494
10	82.99941897392273	pulse	0	t		8.0	2.5	/experiments/AOT/AOT_stimuli/rescaled_final/0868_fw.mp4	0.0	103.96761012077332	
10	83.00753593444824	movie	1		245	8.0	2.5	/experiments/AOT/AOT_stimuli/rescaled_final/0868_fw.mp4	0.0	103.97572708129883	2.508380889892578
10	84.59971380233765	pulse	1	t		8.0	2.5	/experiments/AOT/AOT_stimuli/rescaled_final/0868_fw.mp4	0.0	105.56790494918823	
10	85.51591682434082	fix_post	2		12	8.0	2.5	/experiments/AOT/AOT_stimuli/rescaled_final/0868_fw.mp4	0.0	106.4841079711914	0.0999600887298584
11	85.61587691307068	fix_pre	0		120	9.0	2.5	/experiments/AOT/AOT_stimuli/rescaled_final/1360_fw.mp4	0.0	106.58406805992126	1.00022292137146
11	86.19934391975403	pulse	0	t		9.0	2.5	/experiments/AOT/AOT_stimuli/rescaled_final/1360_fw.mp4	0.0	107.16753506660461	
11	86.61609983444214	movie	1		244	9.0	2.5	/experiments/AOT/AOT_stimuli/rescaled_final/1360_fw.mp4	0.0	107.58429098129272	2.49973201751709
11	87.79949998855591	pulse	1	t		9.0	2.5	/experiments/AOT/AOT_stimuli/rescaled_final/1360_fw.mp4	0.0	108.7676911354065	
11	89.11583185195923	fix_post	2		12	9.0	2.5	/experiments/AOT/AOT_stimuli/rescaled_final/1360_fw.mp4	0.0	110.08402299880981	0.09972906112670898
12	89.21556091308594	fix_pre	0		120	10.0	2.5	/experiments/AOT/AOT_stimuli/rescaled_final/1217_rv.mp4	0.0	110.18375205993652	1.000338077545166
12	89.39937496185303	pulse	0	t		10.0	2.5	/experiments/AOT/AOT_stimuli/rescaled_final/1217_rv.mp4	0.0	110.36756610870361	
12	90.2158989906311	movie	1		243	10.0	2.5	/experiments/AOT/AOT_stimuli/rescaled_final/1217_rv.mp4	0.0	111.18409013748169	2.499933958053589
12	90.99937701225281	pulse	1	t		10.0	2.5	/experiments/AOT/AOT_stimuli/rescaled_final/1217_rv.mp4	0.0	111.9675681591034	
12	92.59808588027954	pulse	1	t		10.0	2.5	/experiments/AOT/AOT_stimuli/rescaled_final/1217_rv.mp4	0.0	113.56627702713013	
12	92.71583294868469	fix_post	2		12	10.0	2.5	/experiments/AOT/AOT_stimuli/rescaled_final/1217_rv.mp4	0.0	113.68402409553528	0.09953999519348145
13	92.81537294387817	fix_pre	0		120	11.0	2.5	/experiments/AOT/AOT_stimuli/rescaled_final/0794_rv.mp4	0.0	113.78356409072876	1.0004539489746094
13	93.81582689285278	movie	1		244	11.0	2.5	/experiments/AOT/AOT_stimuli/rescaled_final/0794_rv.mp4	0.0	114.78401803970337	2.4999921321868896
13	94.19884586334229	pulse	1	t		11.0	2.5	/experiments/AOT/AOT_stimuli/rescaled_final/0794_rv.mp4	0.0	115.16703701019287	
13	95.79927182197571	pulse	1	t		11.0	2.5	/experiments/AOT/AOT_stimuli/rescaled_final/0794_rv.mp4	0.0	116.7674629688263	
13	96.31581902503967	fix_post	2		12	11.0	2.5	/experiments/AOT/AOT_stimuli/rescaled_final/0794_rv.mp4	0.0	117.28401017189026	0.0999758243560791
14	96.41579484939575	fix_pre	0		119	12.0	2.5	/experiments/AOT/AOT_stimuli/rescaled_final/1494_fw.mp4	0.0	117.38398599624634	0.9916520118713379
14	97.39928102493286	pulse	0	t		12.0	2.5	/experiments/AOT/AOT_stimuli/rescaled_final/1494_fw.mp4	0.0	118.36747217178345	
14	97.40744686126709	movie	1		245	12.0	2.5	/experiments/AOT/AOT_stimuli/rescaled_final/1494_fw.mp4	0.0	118.37563800811768	2.5083961486816406
14	98.99895882606506	pulse	1	t		12.0	2.5	/experiments/AOT/AOT_stimuli/rescaled_final/1494_fw.mp4	0.0	119.96714997291565	
14	99.91584300994873	fix_post	2		12	12.0	2.5	/experiments/AOT/AOT_stimuli/rescaled_final/1494_fw.mp4	0.0	120.88403415679932	0.10006999969482422
15	100.01591300964355	fix_pre	0		120	13.0	2.5	blank	1.0	120.98410415649414	0.9999649524688721
15	100.59927797317505	pulse	0	t		13.0	2.5	blank	1.0	121.56746912002563	
15	101.01587796211243	movie	1		300	13.0	2.5	blank	1.0	121.98406910896301	2.4999969005584717
15	102.19927883148193	pulse	1	t		13.0	2.5	blank	1.0	123.16746997833252	
15	103.5158748626709	fix_post	2		12	13.0	2.5	blank	1.0	124.48406600952148	0.0999910831451416
16	103.61586594581604	fix_pre	0		120	14.0	2.5	/experiments/AOT/AOT_stimuli/rescaled_final/0746_fw.mp4	0.0	124.58405709266663	0.9999549388885498
16	103.79927396774292	pulse	0	t		14.0	2.5	/experiments/AOT/AOT_stimuli/rescaled_final/0746_fw.mp4	0.0	124.7674651145935	
16	104.61582088470459	movie	1		244	14.0	2.5	/experiments/AOT/AOT_stimuli/rescaled_final/0746_fw.mp4	0.0	125.58401203155518	2.4995241165161133
16	105.39933490753174	pulse	1	t		14.0	2.5	/experiments/AOT/AOT_stimuli/rescaled_final/0746_fw.mp4	0.0	126.36752605438232	
16	106.9981369972229	pulse	1	t		14.0	2.5	/experiments/AOT/AOT_stimuli/rescaled_final/0746_fw.mp4	0.0	127.96632814407349	
16	107.1153450012207	fix_post	2		12	14.0	2.5	/experiments/AOT/AOT_stimuli/rescaled_final/0746_fw.mp4	0.0	128.0835361480713	0.10047602653503418
17	107.21582102775574	fix_pre	0		120	15.0	2.5	/experiments/AOT/AOT_stimuli/rescaled_final/1981_rv.mp4	0.0	128.18401217460632	0.9999938011169434
17	108.21581482887268	movie	1		245	15.0	2.5	/experiments/AOT/AOT_stimuli/rescaled_final/1981_rv.mp4	0.0	129.18400597572327	2.499751091003418
17	108.59825801849365	pulse	1	t		15.0	2.5	/experiments/AOT/AOT_stimuli/rescaled_final/1981_rv.mp4	0.0	129.56644916534424	
17	110.19883680343628	pulse	1	t		15.0	2.5	/experiments/AOT/AOT_stimuli/rescaled_final/1981_rv.mp4	0.0	131.16702795028687	
17	110.7155659198761	fix_post	2		12	15.0	2.5	/experiments/AOT/AOT_stimuli/rescaled_final/1981_rv.mp4	0.0	131.68375706672668	0.0999610424041748
18	110.81552696228027	fix_pre	0		119	16.0	2.5	/experiments/AOT/AOT_stimuli/rescaled_final/1259_rv.mp4	0.0	131.78371810913086	0.9917819499969482
18	111.79916381835938	pulse	0	t		16.0	2.5	/experiments/AOT/AOT_stimuli/rescaled_final/1259_rv.mp4	0.0	132.76735496520996	
18	111.80730891227722	movie	1		246	16.0	2.5	/experiments/AOT/AOT_stimuli/rescaled_final/1259_rv.mp4	0.0	132.7755000591278	2.5084710121154785
18	113.39870285987854	pulse	1	t		16.0	2.5	/experiments/AOT/AOT_stimuli/rescaled_final/1259_rv.mp4	0.0	134.36689400672913	
18	114.3157799243927	fix_post	2		12	16.0	2.5	/experiments/AOT/AOT_stimuli/rescaled_final/1259_rv.mp4	0.0	135.2839710712433	0.10002803802490234
19	114.4158079624176	fix_pre	0		120	17.0	2.5	/experiments/AOT/AOT_stimuli/rescaled_final/1980_rv.mp4	0.0	135.3839991092682	0.9999258518218994
19	114.99924397468567	pulse	0	t		17.0	2.5	/experiments/AOT/AOT_stimuli/rescaled_final/1980_rv.mp4	0.0	135.96743512153625	
19	115.4157338142395	movie	1		245	17.0	2.5	/experiments/AOT/AOT_stimuli/rescaled_final/1980_rv.mp4	0.0	136.3839249610901	2.4995570182800293
19	116.59932088851929	pulse	1	t		17.0	2.5	/experiments/AOT/AOT_stimuli/rescaled_final/1980_rv.mp4	0.0	137.56751203536987	
19	117.91529083251953	fix_post	2		12	17.0	2.5	/experiments/AOT/AOT_stimuli/rescaled_final/1980_rv.mp4	0.0	138.88348197937012	0.10041403770446777
20	118.015704870224	fix_pre	0		120	18.0	2.5	/experiments/AOT/AOT_stimuli/rescaled_final/0597_rv.mp4	0.0	138.98389601707458	0.9999761581420898
20	118.19919991493225	pulse	0	t		18.0	2.5	/experiments/AOT/AOT_stimuli/rescaled_final/0597_rv.mp4	0.0	139.16739106178284	
20	119.01568102836609	movie	1		244	18.0	2.5	/experiments/AOT/AOT_stimuli/rescaled_final/0597_rv.mp4	0.0	139.98387217521667	2.499579906463623
20	119.79927086830139	pulse	1	t		18.0	2.5	/experiments/AOT/AOT_stimuli/rescaled_final/0597_rv.mp4	0.0	140.76746201515198	
20	121.39779996871948	pulse	1	t		18.0	2.5	/experiments/AOT/AOT_stimuli/rescaled_final/0597_rv.mp4	0.0	142.36599111557007	
20	121.51526093482971	fix_post	2		12	18.0	2.5	/experiments/AOT/AOT_stimuli/rescaled_final/0597_rv.mp4	0.0	142.4834520816803	0.10037994384765625
21	121.61564087867737	fix_pre	0		120	19.0	2.5	/experiments/AOT/AOT_stimuli/rescaled_final/0892_rv.mp4	0.0	142.58383202552795	1.0000200271606445
21	122.61566090583801	movie	1		243	19.0	2.5	/experiments/AOT/AOT_stimuli/rescaled_final/0892_rv.mp4	0.0	143.5838520526886	2.4997060298919678
21	122.9985249042511	pulse	1	t		19.0	2.5	/experiments/AOT/AOT_stimuli/rescaled_final/0892_rv.mp4	0.0	143.96671605110168	
21	124.5991039276123	pulse	1	t		19.0	2.5	/experiments/AOT/AOT_stimuli/rescaled_final/0892_rv.mp4	0.0	145.5672950744629	
21	125.11536693572998	fix_post	2		12	19.0	2.5	/experiments/AOT/AOT_stimuli/rescaled_final/0892_rv.mp4	0.0	146.08355808258057	0.10038900375366211
22	125.21575593948364	fix_pre	0		119	20.0	2.5	blank	1.0	146.18394708633423	0.9915778636932373
22	126.19917893409729	pulse	0	t		20.0	2.5	blank	1.0	147.16737008094788	
22	126.20733380317688	movie	1		301	20.0	2.5	blank	1.0	147.17552495002747	2.5084831714630127
22	127.79924583435059	pulse	1	t		20.0	2.5	blank	1.0	148.76743698120117	
22	128.7158169746399	fix_post	2		12	20.0	2.5	blank	1.0	149.68400812149048	0.0998079776763916
23	128.81562495231628	fix_pre	0		120	21.0	2.5	/experiments/AOT/AOT_stimuli/rescaled_final/0618_fw.mp4	0.0	149.78381609916687	0.9996058940887451
23	129.39914393424988	pulse	0	t		21.0	2.5	/experiments/AOT/AOT_stimuli/rescaled_final/0618_fw.mp4	0.0	150.36733508110046	
23	129.81523084640503	movie	1		248	21.0	2.5	/experiments/AOT/AOT_stimuli/rescaled_final/0618_fw.mp4	0.0	150.78342199325562	2.500430107116699
23	130.99919891357422	pulse	1	t		21.0	2.5	/experiments/AOT/AOT_stimuli/rescaled_final/0618_fw.mp4	0.0	151.9673900604248	
23	132.31566095352173	fix_post	2		12	21.0	2.5	/experiments/AOT/AOT_stimuli/rescaled_final/0618_fw.mp4	0.0	153.28385210037231	0.09994697570800781
24	132.41560792922974	fix_pre	0		120	22.0	2.5	/experiments/AOT/AOT_stimuli/rescaled_final/1254_fw.mp4	0.0	153.38379907608032	1.0000059604644775
24	132.59909892082214	pulse	0	t		22.0	2.5	/experiments/AOT/AOT_stimuli/rescaled_final/1254_fw.mp4	0.0	153.56729006767273	
24	133.4156138896942	movie	1		246	22.0	2.5	/experiments/AOT/AOT_stimuli/rescaled_final/1254_fw.mp4	0.0	154.3838050365448	2.4995710849761963
24	134.19914889335632	pulse	1	t		22.0	2.5	/experiments/AOT/AOT_stimuli/rescaled_final/1254_fw.mp4	0.0	155.1673400402069	
24	135.79806280136108	pulse	1	t		22.0	2.5	/experiments/AOT/AOT_stimuli/rescaled_final/1254_fw.mp4	0.0	156.76625394821167	
24	135.9151849746704	fix_post	2		12	22.0	2.5	/experiments/AOT/AOT_stimuli/rescaled_final/1254_fw.mp4	0.0	156.883376121521	0.10050702095031738
25	136.01569199562073	fix_pre	0		120	23.0	2.5	/experiments/AOT/AOT_stimuli/rescaled_final/0625_rv.mp4	0.0	156.9838831424713	1.0
25	137.01569199562073	movie	1		243	23.0	2.5	/experiments/AOT/AOT_stimuli/rescaled_final/0625_rv.mp4	0.0	157.9838831424713	2.4995059967041016
25	137.39996695518494	pulse	1	t		23.0	2.5	/experiments/AOT/AOT_stimuli/rescaled_final/0625_rv.mp4	0.0	158.36815810203552	
25	138.99915099143982	pulse	1	t		23.0	2.5	/experiments/AOT/AOT_stimuli/rescaled_final/0625_rv.mp4	0.0	159.9673421382904	
25	139.51519799232483	fix_post	2		12	23.0	2.5	/experiments/AOT/AOT_stimuli/rescaled_final/0625_rv.mp4	0.0	160.48338913917542	0.10041999816894531
26	139.61561799049377	fix_pre	0		119	24.0	2.5	/experiments/AOT/AOT_stimuli/rescaled_final/0894_fw.mp4	0.0	160.58380913734436	0.991703987121582
26	140.59912586212158	pulse	0	t		24.0	2.5	/experiments/AOT/AOT_stimuli/rescaled_final/0894_fw.mp4	0.0	161.56731700897217	
26	140.60732197761536	movie	1		244	24.0	2.5	/experiments/AOT/AOT_stimuli/rescaled_final/0894_fw.mp4	0.0	161.57551312446594	2.5082929134368896
26	142.19891500473022	pulse	1	t		24.0	2.5	/experiments/AOT/AOT_stimuli/rescaled_final/0894_fw.mp4	0.0	163.1671061515808	
26	143.11561489105225	fix_post	2		12	24.0	2.5	/experiments/AOT/AOT_stimuli/rescaled_final/0894_fw.mp4	0.0	164.08380603790283	0.09994697570800781
27	143.21556186676025	fix_pre	0		120	25.0	2.5	/experiments/AOT/AOT_stimuli/rescaled_final/1997_rv.mp4	0.0	164.18375301361084	1.0000050067901611
27	143.7990379333496	pulse	0	t		25.0	2.5	/experiments/AOT/AOT_stimuli/rescaled_final/1997_rv.mp4	0.0	164.7672290802002	
27	144.21556687355042	movie	1		242	25.0	2.5	/experiments/AOT/AOT_stimuli/rescaled_final/1997_rv.mp4	0.0	165.183758020401	2.4997570514678955
27	145.39918184280396	pulse	1	t		25.0	2.5	/experiments/AOT/AOT_stimuli/rescaled_final/1997_rv.mp4	0.0	166.36737298965454	
27	146.7153239250183	fix_post	2		12	25.0	2.5	/experiments/AOT/AOT_stimuli/rescaled_final/1997_rv.mp4	0.0	167.6835150718689	0.10028290748596191
28	146.81560683250427	fix_pre	0		120	26.0	2.5	/experiments/AOT/AOT_stimuli/rescaled_final/0632_rv.mp4	0.0	167.78379797935486	1.000047206878662
28	146.9990530014038	pulse	0	t		26.0	2.5	/experiments/AOT/AOT_stimuli/rescaled_final/0632_rv.mp4	0.0	167.9672441482544	
28	147.81565403938293	movie	1		244	26.0	2.5	/experiments/AOT/AOT_stimuli/rescaled_final/0632_rv.mp4	0.0	168.78384518623352	2.499846935272217
28	148.5991439819336	pulse	1	t		26.0	2.5	/experiments/AOT/AOT_stimuli/rescaled_final/0632_rv.mp4	0.0	169.56733512878418	
28	150.19771599769592	pulse	1	t		26.0	2.5	/experiments/AOT/AOT_stimuli/rescaled_final/0632_rv.mp4	0.0	171.1659071445465	
28	150.31550097465515	fix_post	2		12	26.0	2.5	/experiments/AOT/AOT_stimuli/rescaled_final/0632_rv.mp4	0.0	171.28369212150574	0.10004782676696777
29	150.41554880142212	fix_pre	0		120	27.0	2.5	/experiments/AOT/AOT_stimuli/rescaled_final/1902_rv.mp4	0.0	171.3837399482727	0.9999980926513672
29	151.4155468940735	movie	1		245	27.0	2.5	/experiments/AOT/AOT_stimuli/rescaled_final/1902_rv.mp4	0.0	172.38373804092407	2.500019073486328
29	151.79883193969727	pulse	1	t		27.0	2.5	/experiments/AOT/AOT_stimuli/rescaled_final/1902_rv.mp4	0.0	172.76702308654785	
29	153.3990659713745	pulse	1	t		27.0	2.5	/experiments/AOT/AOT_stimuli/rescaled_final/1902_rv.mp4	0.0	174.3672571182251	
29	153.91556596755981	fix_post	2		12	27.0	2.5	/experiments/AOT/AOT_stimuli/rescaled_final/1902_rv.mp4	0.0	174.8837571144104	0.09995198249816895
30	154.01551795005798	fix_pre	0		119	28.0	2.5	blank	1.0	174.98370909690857	0.9917628765106201
30	154.99904990196228	pulse	0	t		28.0	2.5	blank	1.0	175.96724104881287	
30	155.0072808265686	movie	1		301	28.0	2.5	blank	1.0	175.9754719734192	2.5082240104675293
30	156.59910702705383	pulse	1	t		28.0	2.5	blank	1.0	177.56729817390442	
30	157.51550483703613	fix_post	2		12	28.0	2.5	blank	1.0	178.48369598388672	0.10000014305114746
31	157.61550498008728	fix_pre	0		120	29.0	2.5	/experiments/AOT/AOT_stimuli/rescaled_final/0517_rv.mp4	0.0	178.58369612693787	0.99959397315979
31	158.19907593727112	pulse	0	t		29.0	2.5	/experiments/AOT/AOT_stimuli/rescaled_final/0517_rv.mp4	0.0	179.1672670841217	
31	158.61509895324707	movie	1		244	29.0	2.5	/experiments/AOT/AOT_stimuli/rescaled_final/0517_rv.mp4	0.0	179.58329010009766	2.500370979309082
31	159.79903984069824	pulse	1	t		29.0	2.5	/experiments/AOT/AOT_stimuli/rescaled_final/0517_rv.mp4	0.0	180.76723098754883	
31	161.11546993255615	fix_post	2		12	29.0	2.5	/experiments/AOT/AOT_stimuli/rescaled_final/0517_rv.mp4	0.0	182.08366107940674	0.10001587867736816
32	161.21548581123352	fix_pre	0		120	30.0	2.5	/experiments/AOT/AOT_stimuli/rescaled_final/0163_rv.mp4	0.0	182.1836769580841	1.0001590251922607
32	161.39903497695923	pulse	0	t		30.0	2.5	/experiments/AOT/AOT_stimuli/rescaled_final/0163_rv.mp4	0.0	182.36722612380981	
32	162.21564483642578	movie	1		243	30.0	2.5	/experiments/AOT/AOT_stimuli/rescaled_final/0163_rv.mp4	0.0	183.18383598327637	2.499427080154419
32	162.99904084205627	pulse	1	t		30.0	2.5	/experiments/AOT/AOT_stimuli/rescaled_final/0163_rv.mp4	0.0	183.96723198890686	
32	164.5971908569336	pulse	1	t		30.0	2.5	/experiments/AOT/AOT_stimuli/rescaled_final/0163_rv.mp4	0.0	185.56538200378418	
32	164.7150719165802	fix_post	2		12	30.0	2.5	/experiments/AOT/AOT_stimuli/rescaled_final/0163_rv.mp4	0.0	185.6832630634308	0.10001802444458008
33	164.81508994102478	fix_pre	0		120	31.0	2.5	/experiments/AOT/AOT_stimuli/rescaled_final/0625_rv.mp4	0.0	185.78328108787537	1.0000369548797607
33	165.81512689590454	movie	1		243	31.0	2.5	/experiments/AOT/AOT_stimuli/rescaled_final/0625_rv.mp4	0.0	186.78331804275513	2.5003719329833984
33	166.1986289024353	pulse	1	t		31.0	2.5	/experiments/AOT/AOT_stimuli/rescaled_final/0625_rv.mp4	0.0	187.1668200492859	
33	167.79884886741638	pulse	1	t		31.0	2.5	/experiments/AOT/AOT_stimuli/rescaled_final/0625_rv.mp4	0.0	188.76704001426697	
33	168.31549882888794	fix_post	2		12	31.0	2.5	/experiments/AOT/AOT_stimuli/rescaled_final/0625_rv.mp4	0.0	189.28368997573853	0.09995508193969727
34	168.41545391082764	fix_pre	0		119	32.0	2.5	/experiments/AOT/AOT_stimuli/rescaled_final/0061_rv.mp4	0.0	189.38364505767822	0.9917049407958984
34	169.39909195899963	pulse	0	t		32.0	2.5	/experiments/AOT/AOT_stimuli/rescaled_final/0061_rv.mp4	0.0	190.36728310585022	
34	169.40715885162354	movie	1		244	32.0	2.5	/experiments/AOT/AOT_stimuli/rescaled_final/0061_rv.mp4	0.0	190.37534999847412	2.5082571506500244
34	170.99852895736694	pulse	1	t		32.0	2.5	/experiments/AOT/AOT_stimuli/rescaled_final/0061_rv.mp4	0.0	191.96672010421753	
34	171.91541600227356	fix_post	2		12	32.0	2.5	/experiments/AOT/AOT_stimuli/rescaled_final/0061_rv.mp4	0.0	192.88360714912415	0.10008001327514648
35	172.0154960155487	fix_pre	0		120	33.0	2.5	/experiments/AOT/AOT_stimuli/rescaled_final/1706_rv.mp4	0.0	192.9836871623993	0.9999148845672607
35	172.59907484054565	pulse	0	t		33.0	2.5	/experiments/AOT/AOT_stimuli/rescaled_final/1706_rv.mp4	0.0	193.56726598739624	
35	173.01541090011597	movie	1		245	33.0	2.5	/experiments/AOT/AOT_stimuli/rescaled_final/1706_rv.mp4	0.0	193.98360204696655	2.4996819496154785
35	174.19903898239136	pulse	1	t		33.0	2.5	/experiments/AOT/AOT_stimuli/rescaled_final/1706_rv.mp4	0.0	195.16723012924194	
35	175.51509284973145	fix_post	2		12	33.0	2.5	/experiments/AOT/AOT_stimuli/rescaled_final/1706_rv.mp4	0.0	196.48328399658203	0.10028314590454102
36	175.615375995636	fix_pre	0		120	34.0	2.5	blank	1.0	196.58356714248657	1.0000648498535156
36	175.79890084266663	pulse	0	t		34.0	2.5	blank	1.0	196.7670919895172	
36	176.6154408454895	movie	1		300	34.0	2.5	blank	1.0	197.5836319923401	2.499969005584717
36	177.39891695976257	pulse	1	t		34.0	2.5	blank	1.0	198.36710810661316	
36	178.99894499778748	pulse	1	t		34.0	2.5	blank	1.0	199.96713614463806	
36	179.11540985107422	fix_post	2		12	34.0	2.5	blank	1.0	200.0836009979248	0.09996914863586426
37	179.21537899971008	fix_pre	0		120	35.0	2.5	/experiments/AOT/AOT_stimuli/rescaled_final/1384_fw.mp4	0.0	200.18357014656067	1.0000128746032715
37	180.21539187431335	movie	1		242	35.0	2.5	/experiments/AOT/AOT_stimuli/rescaled_final/1384_fw.mp4	0.0	201.18358302116394	2.500020980834961
37	180.5989649295807	pulse	1	t		35.0	2.5	/experiments/AOT/AOT_stimuli/rescaled_final/1384_fw.mp4	0.0	201.56715607643127	
37	182.19884991645813	pulse	1	t		35.0	2.5	/experiments/AOT/AOT_stimuli/rescaled_final/1384_fw.mp4	0.0	203.16704106330872	
37	182.71541285514832	fix_post	2		12	35.0	2.5	/experiments/AOT/AOT_stimuli/rescaled_final/1384_fw.mp4	0.0	203.6836040019989	0.09992599487304688
38	182.81533885002136	fix_pre	0		119	36.0	2.5	/experiments/AOT/AOT_stimuli/rescaled_final/0830_rv.mp4	0.0	203.78352999687195	0.991692066192627
38	183.7989628314972	pulse	0	t		36.0	2.5	/experiments/AOT/AOT_stimuli/rescaled_final/0830_rv.mp4	0.0	204.76715397834778	
38	183.807030916214	movie	1		245	36.0	2.5	/experiments/AOT/AOT_stimuli/rescaled_final/0830_rv.mp4	0.0	204.77522206306458	2.508331060409546
38	185.39864587783813	pulse	1	t		36.0	2.5	/experiments/AOT/AOT_stimuli/rescaled_final/0830_rv.mp4	0.0	206.36683702468872	
38	186.31536197662354	fix_post	2		12	36.0	2.5	/experiments/AOT/AOT_stimuli/rescaled_final/0830_rv.mp4	0.0	207.28355312347412	0.09997105598449707
39	186.41533303260803	fix_pre	0		120	37.0	2.5	/experiments/AOT/AOT_stimuli/rescaled_final/0822_fw.mp4	0.0	207.38352417945862	1.000025987625122
39	186.99886083602905	pulse	0	t		37.0	2.5	/experiments/AOT/AOT_stimuli/rescaled_final/0822_fw.mp4	0.0	207.96705198287964	
39	187.41535902023315	movie	1		244	37.0	2.5	/experiments/AOT/AOT_stimuli/rescaled_final/0822_fw.mp4	0.0	208.38355016708374	2.5000078678131104
39	188.59896302223206	pulse	1	t		37.0	2.5	/experiments/AOT/AOT_stimuli/rescaled_final/0822_fw.mp4	0.0	209.56715416908264	
39	189.91536688804626	fix_post	2		12	37.0	2.5	/experiments/AOT/AOT_stimuli/rescaled_final/0822_fw.mp4	0.0	210.88355803489685	0.0999910831451416
40	190.0153579711914	fix_pre	0		120	38.0	2.5	/experiments/AOT/AOT_stimuli/rescaled_final/0863_fw.mp4	0.0	210.983549118042	0.9999589920043945
40	190.1988549232483	pulse	0	t		38.0	2.5	/experiments/AOT/AOT_stimuli/rescaled_final/0863_fw.mp4	0.0	211.16704607009888	
40	191.0153169631958	movie	1		244	38.0	2.5	/experiments/AOT/AOT_stimuli/rescaled_final/0863_fw.mp4	0.0	211.9835081100464	2.5000319480895996
40	191.79886102676392	pulse	1	t		38.0	2.5	/experiments/AOT/AOT_stimuli/rescaled_final/0863_fw.mp4	0.0	212.7670521736145	
40	193.39735102653503	pulse	1	t		38.0	2.5	/experiments/AOT/AOT_stimuli/rescaled_final/0863_fw.mp4	0.0	214.36554217338562	
40	193.5153489112854	fix_post	2		12	38.0	2.5	/experiments/AOT/AOT_stimuli/rescaled_final/0863_fw.mp4	0.0	214.483540058136	0.0999610424041748
41	193.61530995368958	fix_pre	0		120	39.0	2.5	/experiments/AOT/AOT_stimuli/rescaled_final/1300_rv.mp4	0.0	214.58350110054016	1.0000309944152832
41	194.61534094810486	movie	1		248	39.0	2.5	/experiments/AOT/AOT_stimuli/rescaled_final/1300_rv.mp4	0.0	215.58353209495544	2.499680995941162
41	194.99879097938538	pulse	1	t		39.0	2.5	/experiments/AOT/AOT_stimuli/rescaled_final/1300_rv.mp4	0.0	215.96698212623596	
41	196.59880900382996	pulse	1	t		39.0	2.5	/experiments/AOT/AOT_stimuli/rescaled_final/1300_rv.mp4	0.0	217.56700015068054	
41	197.11502194404602	fix_post	2		12	39.0	2.5	/experiments/AOT/AOT_stimuli/rescaled_final/1300_rv.mp4	0.0	218.0832130908966	0.10030293464660645
42	197.21532487869263	fix_pre	0		119	40.0	2.5	/experiments/AOT/AOT_stimuli/rescaled_final/2126_fw.mp4	0.0	218.1835160255432	0.9916141033172607
42	198.19884085655212	pulse	0	t		40.0	2.5	/experiments/AOT/AOT_stimuli/rescaled_final/2126_fw.mp4	0.0	219.1670320034027	
42	198.2069389820099	movie	1		246	40.0	2.5	/experiments/AOT/AOT_stimuli/rescaled_final/2126_fw.mp4	0.0	219.17513012886047	2.50849986076355
42	199.79876899719238	pulse	1	t		40.0	2.5	/experiments/AOT/AOT_stimuli/rescaled_final/2126_fw.mp4	0.0	220.76696014404297	
42	200.71543884277344	fix_post	2		12	40.0	2.5	/experiments/AOT/AOT_stimuli/rescaled_final/2126_fw.mp4	0.0	221.68362998962402	0.09990501403808594
43	200.81534385681152	fix_pre	0		120	41.0	2.5	blank	1.0	221.7835350036621	0.999701976776123
43	201.39883399009705	pulse	0	t		41.0	2.5	blank	1.0	222.36702513694763	
43	201.81504583358765	movie	1		300	41.0	2.5	blank	1.0	222.78323698043823	2.5003020763397217
43	202.99881386756897	pulse	1	t		41.0	2.5	blank	1.0	223.96700501441956	
43	204.31534790992737	fix_post	2		12	41.0	2.5	blank	1.0	225.28353905677795	0.10004806518554688
44	204.41539597511292	fix_pre	0		120	42.0	2.5	/experiments/AOT/AOT_stimuli/rescaled_final/1043_rv.mp4	0.0	225.3835871219635	0.9995930194854736
44	204.5988118648529	pulse	0	t		42.0	2.5	/experiments/AOT/AOT_stimuli/rescaled_final/1043_rv.mp4	0.0	225.5670030117035	
44	205.4149889945984	movie	1		246	42.0	2.5	/experiments/AOT/AOT_stimuli/rescaled_final/1043_rv.mp4	0.0	226.38318014144897	2.5002918243408203
44	206.19872903823853	pulse	1	t		42.0	2.5	/experiments/AOT/AOT_stimuli/rescaled_final/1043_rv.mp4	0.0	227.1669201850891	
44	207.79473185539246	pulse	1	t		42.0	2.5	/experiments/AOT/AOT_stimuli/rescaled_final/1043_rv.mp4	0.0	228.76292300224304	
44	207.9152808189392	fix_post	2		12	42.0	2.5	/experiments/AOT/AOT_stimuli/rescaled_final/1043_rv.mp4	0.0	228.8834719657898	0.09993219375610352
45	208.0152130126953	fix_pre	0		120	43.0	2.5	/experiments/AOT/AOT_stimuli/rescaled_final/1881_fw.mp4	0.0	228.9834041595459	1.0001258850097656
45	209.01533889770508	movie	1		245	43.0	2.5	/experiments/AOT/AOT_stimuli/rescaled_final/1881_fw.mp4	0.0	229.98353004455566	2.499906063079834
45	209.398334980011	pulse	1	t		43.0	2.5	/experiments/AOT/AOT_stimuli/rescaled_final/1881_fw.mp4	0.0	230.36652612686157	
45	210.99886894226074	pulse	1	t		43.0	2.5	/experiments/AOT/AOT_stimuli/rescaled_final/1881_fw.mp4	0.0	231.96706008911133	
45	211.5152449607849	fix_post	2		12	43.0	2.5	/experiments/AOT/AOT_stimuli/rescaled_final/1881_fw.mp4	0.0	232.4834361076355	0.1000359058380127
46	211.61528086662292	fix_pre	0		119	44.0	2.5	/experiments/AOT/AOT_stimuli/rescaled_final/0579_fw.mp4	0.0	232.5834720134735	0.9916751384735107
46	212.59876489639282	pulse	0	t		44.0	2.5	/experiments/AOT/AOT_stimuli/rescaled_final/0579_fw.mp4	0.0	233.5669560432434	
46	212.60695600509644	movie	1		244	44.0	2.5	/experiments/AOT/AOT_stimuli/rescaled_final/0579_fw.mp4	0.0	233.57514715194702	2.50785493850708
46	214.19862294197083	pulse	1	t		44.0	2.5	/experiments/AOT/AOT_stimuli/rescaled_final/0579_fw.mp4	0.0	235.1668140888214	
46	215.11481094360352	fix_post	2		12	44.0	2.5	/experiments/AOT/AOT_stimuli/rescaled_final/0579_fw.mp4	0.0	236.0830020904541	0.10055899620056152
47	215.21536993980408	fix_pre	0		120	45.0	2.5	/experiments/AOT/AOT_stimuli/rescaled_final/0212_fw.mp4	0.0	236.18356108665466	0.9998540878295898
47	215.7988200187683	pulse	0	t		45.0	2.5	/experiments/AOT/AOT_stimuli/rescaled_final/0212_fw.mp4	0.0	236.7670111656189	
47	216.21522402763367	movie	1		244	45.0	2.5	/experiments/AOT/AOT_stimuli/rescaled_final/0212_fw.mp4	0.0	237.18341517448425	2.5000178813934326
47	217.39884781837463	pulse	1	t		45.0	2.5	/experiments/AOT/AOT_stimuli/rescaled_final/0212_fw.mp4	0.0	238.36703896522522	
47	218.7152419090271	fix_post	2		12	45.0	2.5	/experiments/AOT/AOT_stimuli/rescaled_final/0212_fw.mp4	0.0	239.68343305587769	0.09994101524353027
48	218.81518292427063	fix_pre	0		120	46.0	2.5	/experiments/AOT/AOT_stimuli/rescaled_final/1507_fw.mp4	0.0	239.78337407112122	1.00006103515625
48	218.99872088432312	pulse	0	t		46.0	2.5	/experiments/AOT/AOT_stimuli/rescaled_final/1507_fw.mp4	0.0	239.9669120311737	
48	219.81524395942688	movie	1		247	46.0	2.5	/experiments/AOT/AOT_stimuli/rescaled_final/1507_fw.mp4	0.0	240.78343510627747	2.4997060298919678
48	220.59825801849365	pulse	1	t		46.0	2.5	/experiments/AOT/AOT_stimuli/rescaled_final/1507_fw.mp4	0.0	241.56644916534424	
48	222.19485092163086	pulse	1	t		46.0	2.5	/experiments/AOT/AOT_stimuli/rescaled_final/1507_fw.mp4	0.0	243.16304206848145	
48	222.31494998931885	fix_post	2		12	46.0	2.5	/experiments/AOT/AOT_stimuli/rescaled_final/1507_fw.mp4	0.0	243.28314113616943	0.10043191909790039
49	222.41538190841675	fix_pre	0		120	47.0	2.5	/experiments/AOT/AOT_stimuli/rescaled_final/0499_rv.mp4	0.0	243.38357305526733	1.0001029968261719
49	223.41548490524292	movie	1		247	47.0	2.5	/experiments/AOT/AOT_stimuli/rescaled_final/0499_rv.mp4	0.0	244.3836760520935	2.499819040298462
49	223.79831194877625	pulse	1	t		47.0	2.5	/experiments/AOT/AOT_stimuli/rescaled_final/0499_rv.mp4	0.0	244.76650309562683	
49	225.398619890213	pulse	1	t		47.0	2.5	/experiments/AOT/AOT_stimuli/rescaled_final/0499_rv.mp4	0.0	246.3668110370636	
49	225.91530394554138	fix_post	2		12	47.0	2.5	/experiments/AOT/AOT_stimuli/rescaled_final/0499_rv.mp4	0.0	246.88349509239197	0.09991598129272461
50	226.0152199268341	fix_pre	0		119	48.0	2.5	blank	1.0	246.9834110736847	0.9916419982910156
50	226.99871802330017	pulse	0	t		48.0	2.5	blank	1.0	247.96690917015076	
50	227.00686192512512	movie	1		301	48.0	2.5	blank	1.0	247.9750530719757	2.508352041244507
50	228.59866881370544	pulse	1	t		48.0	2.5	blank	1.0	249.56685996055603	
50	229.51521396636963	fix_post	2		12	48.0	2.5	blank	1.0	250.48340511322021	0.09951996803283691
51	229.61473393440247	fix_pre	0		120	49.0	2.5	/experiments/AOT/AOT_stimuli/rescaled_final/0428_rv.mp4	0.0	250.58292508125305	1.0003938674926758
51	230.19856095314026	pulse	0	t		49.0	2.5	/experiments/AOT/AOT_stimuli/rescaled_final/0428_rv.mp4	0.0	251.16675209999084	
51	230.61512780189514	movie	1		245	49.0	2.5	/experiments/AOT/AOT_stimuli/rescaled_final/0428_rv.mp4	0.0	251.58331894874573	2.500105142593384
51	231.79863786697388	pulse	1	t		49.0	2.5	/experiments/AOT/AOT_stimuli/rescaled_final/0428_rv.mp4	0.0	252.76682901382446	
51	233.11523294448853	fix_post	2		12	49.0	2.5	/experiments/AOT/AOT_stimuli/rescaled_final/0428_rv.mp4	0.0	254.0834240913391	0.09990906715393066
52	233.21514201164246	fix_pre	0		120	50.0	2.5	/experiments/AOT/AOT_stimuli/rescaled_final/1419_fw.mp4	0.0	254.18333315849304	0.99993896484375
52	233.39862298965454	pulse	0	t		50.0	2.5	/experiments/AOT/AOT_stimuli/rescaled_final/1419_fw.mp4	0.0	254.36681413650513	
52	234.2150809764862	movie	1		244	50.0	2.5	/experiments/AOT/AOT_stimuli/rescaled_final/1419_fw.mp4	0.0	255.1832721233368	2.500088930130005
52	234.99862790107727	pulse	1	t		50.0	2.5	/experiments/AOT/AOT_stimuli/rescaled_final/1419_fw.mp4	0.0	255.96681904792786	
52	236.5971918106079	pulse	1	t		50.0	2.5	/experiments/AOT/AOT_stimuli/rescaled_final/1419_fw.mp4	0.0	257.5653829574585	
52	236.7151699066162	fix_post	2		12	50.0	2.5	/experiments/AOT/AOT_stimuli/rescaled_final/1419_fw.mp4	0.0	257.6833610534668	0.09994196891784668
53	236.81511187553406	fix_pre	0		120	51.0	2.5	/experiments/AOT/AOT_stimuli/rescaled_final/1728_fw.mp4	0.0	257.78330302238464	1.0000641345977783
53	237.81517601013184	movie	1		245	51.0	2.5	/experiments/AOT/AOT_stimuli/rescaled_final/1728_fw.mp4	0.0	258.7833671569824	2.4999639987945557
53	238.19799280166626	pulse	1	t		51.0	2.5	/experiments/AOT/AOT_stimuli/rescaled_final/1728_fw.mp4	0.0	259.16618394851685	
53	239.79873085021973	pulse	1	t		51.0	2.5	/experiments/AOT/AOT_stimuli/rescaled_final/1728_fw.mp4	0.0	260.7669219970703	
53	240.3151400089264	fix_post	2		12	51.0	2.5	/experiments/AOT/AOT_stimuli/rescaled_final/1728_fw.mp4	0.0	261.283331155777	0.09997701644897461
54	240.41511702537537	fix_pre	0		119	52.0	2.5	/experiments/AOT/AOT_stimuli/rescaled_final/1284_rv.mp4	0.0	261.38330817222595	0.9916708469390869
54	241.3986358642578	pulse	0	t		52.0	2.5	/experiments/AOT/AOT_stimuli/rescaled_final/1284_rv.mp4	0.0	262.3668270111084	
54	241.40678787231445	movie	1		248	52.0	2.5	/experiments/AOT/AOT_stimuli/rescaled_final/1284_rv.mp4	0.0	262.37497901916504	2.507859945297241
54	242.99823689460754	pulse	1	t		52.0	2.5	/experiments/AOT/AOT_stimuli/rescaled_final/1284_rv.mp4	0.0	263.96642804145813	
54	243.9146478176117	fix_post	2		12	52.0	2.5	/experiments/AOT/AOT_stimuli/rescaled_final/1284_rv.mp4	0.0	264.8828389644623	0.09997105598449707
55	244.0146188735962	fix_pre	0		120	53.0	2.5	/experiments/AOT/AOT_stimuli/rescaled_final/0240_fw.mp4	0.0	264.9828100204468	1.000519037246704
55	244.59861087799072	pulse	0	t		53.0	2.5	/experiments/AOT/AOT_stimuli/rescaled_final/0240_fw.mp4	0.0	265.5668020248413	
55	245.0151379108429	movie	1		245	53.0	2.5	/experiments/AOT/AOT_stimuli/rescaled_final/0240_fw.mp4	0.0	265.9833290576935	2.499933958053589
55	246.1986699104309	pulse	1	t		53.0	2.5	/experiments/AOT/AOT_stimuli/rescaled_final/0240_fw.mp4	0.0	267.1668610572815	
55	247.51507186889648	fix_post	2		12	53.0	2.5	/experiments/AOT/AOT_stimuli/rescaled_final/0240_fw.mp4	0.0	268.48326301574707	0.10000014305114746
56	247.61507201194763	fix_pre	0		120	54.0	2.5	blank	1.0	268.5832631587982	1.0001099109649658
56	247.79857397079468	pulse	0	t		54.0	2.5	blank	1.0	268.76676511764526	
56	248.6151819229126	movie	1		300	54.0	2.5	blank	1.0	269.5833730697632	2.4999120235443115
56	249.39855980873108	pulse	1	t		54.0	2.5	blank	1.0	270.36675095558167	
56	250.99858689308167	pulse	1	t		54.0	2.5	blank	1.0	271.96677803993225	
56	251.1150939464569	fix_post	2		12	54.0	2.5	blank	1.0	272.0832850933075	0.10001492500305176
57	251.21510887145996	fix_pre	0		120	55.0	2.5	/experiments/AOT/AOT_stimuli/rescaled_final/0746_rv.mp4	0.0	272.18330001831055	0.9999380111694336
57	252.2150468826294	movie	1		244	55.0	2.5	/experiments/AOT/AOT_stimuli/rescaled_final/0746_rv.mp4	0.0	273.18323802948	2.4999630451202393
57	252.59820795059204	pulse	1	t		55.0	2.5	/experiments/AOT/AOT_stimuli/rescaled_final/0746_rv.mp4	0.0	273.5663990974426	
57	254.19859385490417	pulse	1	t		55.0	2.5	/experiments/AOT/AOT_stimuli/rescaled_final/0746_rv.mp4	0.0	275.16678500175476	
57	254.71500992774963	fix_post	2		12	55.0	2.5	/experiments/AOT/AOT_stimuli/rescaled_final/0746_rv.mp4	0.0	275.6832010746002	0.09998703002929688
58	254.81499695777893	fix_pre	0		119	56.0	2.5	/experiments/AOT/AOT_stimuli/rescaled_final/0930_fw.mp4	0.0	275.7831881046295	0.9917609691619873
58	255.79858589172363	pulse	0	t		56.0	2.5	/experiments/AOT/AOT_stimuli/rescaled_final/0930_fw.mp4	0.0	276.7667770385742	
58	255.80675792694092	movie	1		243	56.0	2.5	/experiments/AOT/AOT_stimuli/rescaled_final/0930_fw.mp4	0.0	276.7749490737915	2.5081980228424072
58	257.39812684059143	pulse	1	t		56.0	2.5	/experiments/AOT/AOT_stimuli/rescaled_final/0930_fw.mp4	0.0	278.366317987442	
58	258.3149559497833	fix_post	2		12	56.0	2.5	/experiments/AOT/AOT_stimuli/rescaled_final/0930_fw.mp4	0.0	279.2831470966339	0.10011696815490723
59	258.41507291793823	fix_pre	0		120	57.0	2.5	/experiments/AOT/AOT_stimuli/rescaled_final/1921_fw.mp4	0.0	279.3832640647888	0.9999198913574219
59	258.99858498573303	pulse	0	t		57.0	2.5	/experiments/AOT/AOT_stimuli/rescaled_final/1921_fw.mp4	0.0	279.9667761325836	
59	259.41499280929565	movie	1		245	57.0	2.5	/experiments/AOT/AOT_stimuli/rescaled_final/1921_fw.mp4	0.0	280.38318395614624	2.5000460147857666
59	260.59860396385193	pulse	1	t		57.0	2.5	/experiments/AOT/AOT_stimuli/rescaled_final/1921_fw.mp4	0.0	281.5667951107025	
59	261.9150388240814	fix_post	2		12	57.0	2.5	/experiments/AOT/AOT_stimuli/rescaled_final/1921_fw.mp4	0.0	282.883229970932	0.10003519058227539
60	262.0150740146637	fix_pre	0		120	58.0	2.5	/experiments/AOT/AOT_stimuli/rescaled_final/1349_fw.mp4	0.0	282.9832651615143	1.0000159740447998
60	262.1985659599304	pulse	0	t		58.0	2.5	/experiments/AOT/AOT_stimuli/rescaled_final/1349_fw.mp4	0.0	283.166757106781	
60	263.0150899887085	movie	1		245	58.0	2.5	/experiments/AOT/AOT_stimuli/rescaled_final/1349_fw.mp4	0.0	283.9832811355591	2.499871015548706
60	263.79859495162964	pulse	1	t		58.0	2.5	/experiments/AOT/AOT_stimuli/rescaled_final/1349_fw.mp4	0.0	284.7667860984802	
60	265.3970730304718	pulse	1	t		58.0	2.5	/experiments/AOT/AOT_stimuli/rescaled_final/1349_fw.mp4	0.0	286.3652641773224	
60	265.5149610042572	fix_post	2		12	58.0	2.5	/experiments/AOT/AOT_stimuli/rescaled_final/1349_fw.mp4	0.0	286.4831521511078	0.1000518798828125
61	265.61501288414	fix_pre	0		120	59.0	2.5	/experiments/AOT/AOT_stimuli/rescaled_final/0758_rv.mp4	0.0	286.5832040309906	1.0
61	266.61501288414	movie	1		244	59.0	2.5	/experiments/AOT/AOT_stimuli/rescaled_final/0758_rv.mp4	0.0	287.5832040309906	2.499530076980591
61	266.99862790107727	pulse	1	t		59.0	2.5	/experiments/AOT/AOT_stimuli/rescaled_final/0758_rv.mp4	0.0	287.96681904792786	
61	268.5984649658203	pulse	1	t		59.0	2.5	/experiments/AOT/AOT_stimuli/rescaled_final/0758_rv.mp4	0.0	289.5666561126709	
61	269.1145429611206	fix_post	2		12	59.0	2.5	/experiments/AOT/AOT_stimuli/rescaled_final/0758_rv.mp4	0.0	290.0827341079712	0.10041093826293945
62	269.21495389938354	fix_pre	0		119	60.0	2.5	/experiments/AOT/AOT_stimuli/rescaled_final/1328_fw.mp4	0.0	290.18314504623413	0.9917199611663818
62	270.19846081733704	pulse	0	t		60.0	2.5	/experiments/AOT/AOT_stimuli/rescaled_final/1328_fw.mp4	0.0	291.1666519641876	
62	270.2066738605499	movie	1		246	60.0	2.5	/experiments/AOT/AOT_stimuli/rescaled_final/1328_fw.mp4	0.0	291.1748650074005	2.507965087890625
62	271.7980978488922	pulse	1	t		60.0	2.5	/experiments/AOT/AOT_stimuli/rescaled_final/1328_fw.mp4	0.0	292.7662889957428	
62	272.71463894844055	fix_post	2		12	60.0	2.5	/experiments/AOT/AOT_stimuli/rescaled_final/1328_fw.mp4	0.0	293.68283009529114	0.10039806365966797
63	272.8150370121002	fix_pre	0		120	61.0	2.5	/experiments/AOT/AOT_stimuli/rescaled_final/0830_fw.mp4	0.0	293.7832281589508	0.9999418258666992
63	273.39849495887756	pulse	0	t		61.0	2.5	/experiments/AOT/AOT_stimuli/rescaled_final/0830_fw.mp4	0.0	294.36668610572815	
63	273.8149788379669	movie	1		245	61.0	2.5	/experiments/AOT/AOT_stimuli/rescaled_final/0830_fw.mp4	0.0	294.7831699848175	2.4996421337127686
63	274.99860191345215	pulse	1	t		61.0	2.5	/experiments/AOT/AOT_stimuli/rescaled_final/0830_fw.mp4	0.0	295.96679306030273	
63	276.3146209716797	fix_post	2		12	61.0	2.5	/experiments/AOT/AOT_stimuli/rescaled_final/0830_fw.mp4	0.0	297.2828121185303	0.09993505477905273
64	276.41455602645874	fix_pre	0		120	62.0	2.5	/experiments/AOT/AOT_stimuli/rescaled_final/1627_rv.mp4	0.0	297.3827471733093	1.000427007675171
64	276.59846687316895	pulse	0	t		62.0	2.5	/experiments/AOT/AOT_stimuli/rescaled_final/1627_rv.mp4	0.0	297.56665802001953	
64	277.4149830341339	movie	1		243	62.0	2.5	/experiments/AOT/AOT_stimuli/rescaled_final/1627_rv.mp4	0.0	298.3831741809845	2.4999308586120605
64	278.19854283332825	pulse	1	t		62.0	2.5	/experiments/AOT/AOT_stimuli/rescaled_final/1627_rv.mp4	0.0	299.16673398017883	
64	279.79691791534424	pulse	1	t		62.0	2.5	/experiments/AOT/AOT_stimuli/rescaled_final/1627_rv.mp4	0.0	300.7651090621948	
64	279.914913892746	fix_post	2		12	62.0	2.5	/experiments/AOT/AOT_stimuli/rescaled_final/1627_rv.mp4	0.0	300.88310503959656	0.10003304481506348
65	280.01494693756104	fix_pre	0		120	63.0	2.5	blank	1.0	300.9831380844116	0.9999690055847168
65	281.01491594314575	movie	1		300	63.0	2.5	blank	1.0	301.98310708999634	2.500053882598877
65	281.39841890335083	pulse	1	t		63.0	2.5	blank	1.0	302.3666100502014	
65	282.99836897850037	pulse	1	t		63.0	2.5	blank	1.0	303.96656012535095	
65	283.51496982574463	fix_post	2		12	63.0	2.5	blank	1.0	304.4831609725952	0.09994316101074219
66	283.61491298675537	fix_pre	0		119	64.0	2.5	/experiments/AOT/AOT_stimuli/rescaled_final/0055_fw.mp4	0.0	304.58310413360596	0.9916679859161377
66	284.5984070301056	pulse	0	t		64.0	2.5	/experiments/AOT/AOT_stimuli/rescaled_final/0055_fw.mp4	0.0	305.5665981769562	
66	284.6065809726715	movie	1		247	64.0	2.5	/experiments/AOT/AOT_stimuli/rescaled_final/0055_fw.mp4	0.0	305.5747721195221	2.507904052734375
66	286.19814682006836	pulse	1	t		64.0	2.5	/experiments/AOT/AOT_stimuli/rescaled_final/0055_fw.mp4	0.0	307.16633796691895	
66	287.1144850254059	fix_post	2		12	64.0	2.5	/experiments/AOT/AOT_stimuli/rescaled_final/0055_fw.mp4	0.0	308.08267617225647	0.10046696662902832
67	287.2149519920349	fix_pre	0		120	65.0	2.5	/experiments/AOT/AOT_stimuli/rescaled_final/0024_fw.mp4	0.0	308.1831431388855	0.9999089241027832
67	287.79832887649536	pulse	0	t		65.0	2.5	/experiments/AOT/AOT_stimuli/rescaled_final/0024_fw.mp4	0.0	308.76652002334595	
67	288.2148609161377	movie	1		247	65.0	2.5	/experiments/AOT/AOT_stimuli/rescaled_final/0024_fw.mp4	0.0	309.1830520629883	2.5000150203704834
67	289.39837098121643	pulse	1	t		65.0	2.5	/experiments/AOT/AOT_stimuli/rescaled_final/0024_fw.mp4	0.0	310.366562128067	
67	290.7148759365082	fix_post	2		12	65.0	2.5	/experiments/AOT/AOT_stimuli/rescaled_final/0024_fw.mp4	0.0	311.68306708335876	0.09994888305664062
68	290.8148248195648	fix_pre	0		120	66.0	2.5	/experiments/AOT/AOT_stimuli/rescaled_final/0989_rv.mp4	0.0	311.7830159664154	1.0000240802764893
68	290.9983329772949	pulse	0	t		66.0	2.5	/experiments/AOT/AOT_stimuli/rescaled_final/0989_rv.mp4	0.0	311.9665241241455	
68	291.8148488998413	movie	1		245	66.0	2.5	/experiments/AOT/AOT_stimuli/rescaled_final/0989_rv.mp4	0.0	312.7830400466919	2.499969005584717
68	292.5983409881592	pulse	1	t		66.0	2.5	/experiments/AOT/AOT_stimuli/rescaled_final/0989_rv.mp4	0.0	313.56653213500977	
68	294.19700598716736	pulse	1	t		66.0	2.5	/experiments/AOT/AOT_stimuli/rescaled_final/0989_rv.mp4	0.0	315.16519713401794	
68	294.314817905426	fix_post	2		12	66.0	2.5	/experiments/AOT/AOT_stimuli/rescaled_final/0989_rv.mp4	0.0	315.2830090522766	0.09969592094421387
69	294.41451382637024	fix_pre	0		120	67.0	2.5	/experiments/AOT/AOT_stimuli/rescaled_final/0575_rv.mp4	0.0	315.3827049732208	1.0003390312194824
69	295.4148528575897	movie	1		244	67.0	2.5	/experiments/AOT/AOT_stimuli/rescaled_final/0575_rv.mp4	0.0	316.3830440044403	2.4995851516723633
69	295.79829597473145	pulse	1	t		67.0	2.5	/experiments/AOT/AOT_stimuli/rescaled_final/0575_rv.mp4	0.0	316.76648712158203	
69	297.39839792251587	pulse	1	t		67.0	2.5	/experiments/AOT/AOT_stimuli/rescaled_final/0575_rv.mp4	0.0	318.36658906936646	
69	297.9144380092621	fix_post	2		12	67.0	2.5	/experiments/AOT/AOT_stimuli/rescaled_final/0575_rv.mp4	0.0	318.88262915611267	0.1004018783569336
70	298.014839887619	fix_pre	0		119	68.0	2.5	blank	1.0	318.9830310344696	0.9916419982910156
70	298.9984219074249	pulse	0	t		68.0	2.5	blank	1.0	319.9666130542755	
70	299.00648188591003	movie	1		301	68.0	2.5	blank	1.0	319.9746730327606	2.5079169273376465
70	300.5983099937439	pulse	1	t		68.0	2.5	blank	1.0	321.5665011405945	
70	301.5143988132477	fix_post	2		12	68.0	2.5	blank	1.0	322.48258996009827	0.10001516342163086
71	301.6144139766693	fix_pre	0		120	69.0	2.5	/experiments/AOT/AOT_stimuli/rescaled_final/1744_rv.mp4	0.0	322.5826051235199	1.0003108978271484
71	302.1982979774475	pulse	0	t		69.0	2.5	/experiments/AOT/AOT_stimuli/rescaled_final/1744_rv.mp4	0.0	323.1664891242981	
71	302.61472487449646	movie	1		246	69.0	2.5	/experiments/AOT/AOT_stimuli/rescaled_final/1744_rv.mp4	0.0	323.58291602134705	2.49967098236084
71	303.7983968257904	pulse	1	t		69.0	2.5	/experiments/AOT/AOT_stimuli/rescaled_final/1744_rv.mp4	0.0	324.766587972641	
71	305.1143958568573	fix_post	2		12	69.0	2.5	/experiments/AOT/AOT_stimuli/rescaled_final/1744_rv.mp4	0.0	326.0825870037079	0.10036611557006836
72	305.21476197242737	fix_pre	0		120	70.0	2.5	/experiments/AOT/AOT_stimuli/rescaled_final/0120_fw.mp4	0.0	326.18295311927795	0.9999818801879883
72	305.39835596084595	pulse	0	t		70.0	2.5	/experiments/AOT/AOT_stimuli/rescaled_final/0120_fw.mp4	0.0	326.36654710769653	
72	306.21474385261536	movie	1		246	70.0	2.5	/experiments/AOT/AOT_stimuli/rescaled_final/0120_fw.mp4	0.0	327.18293499946594	2.499717950820923
72	306.9983489513397	pulse	1	t		70.0	2.5	/experiments/AOT/AOT_stimuli/rescaled_final/0120_fw.mp4	0.0	327.9665400981903	
72	308.59679794311523	pulse	1	t		70.0	2.5	/experiments/AOT/AOT_stimuli/rescaled_final/0120_fw.mp4	0.0	329.5649890899658	
72	308.7144618034363	fix_post	2		12	70.0	2.5	/experiments/AOT/AOT_stimuli/rescaled_final/0120_fw.mp4	0.0	329.68265295028687	0.10028314590454102
73	308.8147449493408	fix_pre	0		120	71.0	2.5	/experiments/AOT/AOT_stimuli/rescaled_final/1430_rv.mp4	0.0	329.7829360961914	1.0000529289245605
73	309.8147978782654	movie	1		245	71.0	2.5	/experiments/AOT/AOT_stimuli/rescaled_final/1430_rv.mp4	0.0	330.78298902511597	2.4999499320983887
73	310.19824981689453	pulse	1	t		71.0	2.5	/experiments/AOT/AOT_stimuli/rescaled_final/1430_rv.mp4	0.0	331.1664409637451	
73	311.7984528541565	pulse	1	t		71.0	2.5	/experiments/AOT/AOT_stimuli/rescaled_final/1430_rv.mp4	0.0	332.7666440010071	
73	312.31474781036377	fix_post	2		12	71.0	2.5	/experiments/AOT/AOT_stimuli/rescaled_final/1430_rv.mp4	0.0	333.28293895721436	0.1000680923461914
74	312.41481590270996	fix_pre	0		119	72.0	2.5	/experiments/AOT/AOT_stimuli/rescaled_final/0120_rv.mp4	0.0	333.38300704956055	0.9916160106658936
74	313.39825987815857	pulse	0	t		72.0	2.5	/experiments/AOT/AOT_stimuli/rescaled_final/0120_rv.mp4	0.0	334.36645102500916	
74	313.40643191337585	movie	1		246	72.0	2.5	/experiments/AOT/AOT_stimuli/rescaled_final/0120_rv.mp4	0.0	334.37462306022644	2.507875919342041
74	314.9981689453125	pulse	1	t		72.0	2.5	/experiments/AOT/AOT_stimuli/rescaled_final/0120_rv.mp4	0.0	335.9663600921631	
74	315.9143078327179	fix_post	2		12	72.0	2.5	/experiments/AOT/AOT_stimuli/rescaled_final/0120_rv.mp4	0.0	336.8824989795685	0.1004021167755127
75	316.0147099494934	fix_pre	0		120	73.0	2.5	/experiments/AOT/AOT_stimuli/rescaled_final/0120_fw.mp4	0.0	336.982901096344	1.000082015991211
75	316.5982298851013	pulse	0	t		73.0	2.5	/experiments/AOT/AOT_stimuli/rescaled_final/0120_fw.mp4	0.0	337.5664210319519	
75	317.0147919654846	movie	1		244	73.0	2.5	/experiments/AOT/AOT_stimuli/rescaled_final/0120_fw.mp4	0.0	337.9829831123352	2.4999258518218994
75	318.1982970237732	pulse	1	t		73.0	2.5	/experiments/AOT/AOT_stimuli/rescaled_final/0120_fw.mp4	0.0	339.1664881706238	
75	319.5147178173065	fix_post	2		12	73.0	2.5	/experiments/AOT/AOT_stimuli/rescaled_final/0120_fw.mp4	0.0	340.4829089641571	0.10001111030578613
76	319.6147289276123	fix_pre	0		120	74.0	2.5	/experiments/AOT/AOT_stimuli/rescaled_final/0185_fw.mp4	0.0	340.5829200744629	1.0000779628753662
76	319.7982289791107	pulse	0	t		74.0	2.5	/experiments/AOT/AOT_stimuli/rescaled_final/0185_fw.mp4	0.0	340.7664201259613	
76	320.61480689048767	movie	1		244	74.0	2.5	/experiments/AOT/AOT_stimuli/rescaled_final/0185_fw.mp4	0.0	341.58299803733826	2.4995040893554688
76	321.39818382263184	pulse	1	t		74.0	2.5	/experiments/AOT/AOT_stimuli/rescaled_final/0185_fw.mp4	0.0	342.3663749694824	
76	322.9981470108032	pulse	1	t		74.0	2.5	/experiments/AOT/AOT_stimuli/rescaled_final/0185_fw.mp4	0.0	343.9663381576538	
76	323.11431097984314	fix_post	2		12	74.0	2.5	/experiments/AOT/AOT_stimuli/rescaled_final/0185_fw.mp4	0.0	344.0825021266937	0.10038304328918457
77	323.2146940231323	fix_pre	0		120	75.0	2.5	/experiments/AOT/AOT_stimuli/rescaled_final/0626_rv.mp4	0.0	344.1828851699829	1.000032901763916
77	324.21472692489624	movie	1		245	75.0	2.5	/experiments/AOT/AOT_stimuli/rescaled_final/0626_rv.mp4	0.0	345.1829180717468	2.499605894088745
77	324.5979368686676	pulse	1	t		75.0	2.5	/experiments/AOT/AOT_stimuli/rescaled_final/0626_rv.mp4	0.0	345.5661280155182	
77	326.19828701019287	pulse	1	t		75.0	2.5	/experiments/AOT/AOT_stimuli/rescaled_final/0626_rv.mp4	0.0	347.16647815704346	
77	326.714332818985	fix_post	2		12	75.0	2.5	/experiments/AOT/AOT_stimuli/rescaled_final/0626_rv.mp4	0.0	347.68252396583557	0.10046505928039551
78	326.8147978782654	fix_pre	0		119	76.0	2.5	/experiments/AOT/AOT_stimuli/rescaled_final/0670_rv.mp4	0.0	347.78298902511597	0.991624116897583
78	327.7982130050659	pulse	0	t		76.0	2.5	/experiments/AOT/AOT_stimuli/rescaled_final/0670_rv.mp4	0.0	348.7664041519165	
78	327.80642199516296	movie	1		243	76.0	2.5	/experiments/AOT/AOT_stimuli/rescaled_final/0670_rv.mp4	0.0	348.77461314201355	2.5082859992980957
78	329.39791989326477	pulse	1	t		76.0	2.5	/experiments/AOT/AOT_stimuli/rescaled_final/0670_rv.mp4	0.0	350.36611104011536	
78	330.31470799446106	fix_post	2		12	76.0	2.5	/experiments/AOT/AOT_stimuli/rescaled_final/0670_rv.mp4	0.0	351.28289914131165	0.10007596015930176
79	330.41478395462036	fix_pre	0		120	77.0	2.5	blank	1.0	351.38297510147095	0.9999549388885498
79	330.99831080436707	pulse	0	t		77.0	2.5	blank	1.0	351.96650195121765	
79	331.4147388935089	movie	1		300	77.0	2.5	blank	1.0	352.3829300403595	2.4995651245117188
79	332.59774899482727	pulse	1	t		77.0	2.5	blank	1.0	353.56594014167786	
79	333.91430401802063	fix_post	2		12	77.0	2.5	blank	1.0	354.8824951648712	0.10045886039733887
80	334.01476287841797	fix_pre	0		120	78.0	2.5	/experiments/AOT/AOT_stimuli/rescaled_final/0999_rv.mp4	0.0	354.98295402526855	1.0001189708709717
80	334.19833397865295	pulse	0	t		78.0	2.5	/experiments/AOT/AOT_stimuli/rescaled_final/0999_rv.mp4	0.0	355.16652512550354	
80	335.01488184928894	movie	1		245	78.0	2.5	/experiments/AOT/AOT_stimuli/rescaled_final/0999_rv.mp4	0.0	355.9830729961395	2.4997470378875732
80	335.7982349395752	pulse	1	t		78.0	2.5	/experiments/AOT/AOT_stimuli/rescaled_final/0999_rv.mp4	0.0	356.7664260864258	
80	337.3969519138336	pulse	1	t		78.0	2.5	/experiments/AOT/AOT_stimuli/rescaled_final/0999_rv.mp4	0.0	358.3651430606842	
80	337.5146288871765	fix_post	2		12	78.0	2.5	/experiments/AOT/AOT_stimuli/rescaled_final/0999_rv.mp4	0.0	358.4828200340271	0.0999760627746582
81	337.6146049499512	fix_pre	0		120	79.0	2.5	/experiments/AOT/AOT_stimuli/rescaled_final/1569_rv.mp4	0.0	358.58279609680176	1.0001139640808105
81	338.614718914032	movie	1		245	79.0	2.5	/experiments/AOT/AOT_stimuli/rescaled_final/1569_rv.mp4	0.0	359.58291006088257	2.4998390674591064
81	338.9976019859314	pulse	1	t		79.0	2.5	/experiments/AOT/AOT_stimuli/rescaled_final/1569_rv.mp4	0.0	359.965793132782	
81	340.59811997413635	pulse	1	t		79.0	2.5	/experiments/AOT/AOT_stimuli/rescaled_final/1569_rv.mp4	0.0	361.56631112098694	
81	341.1145579814911	fix_post	2		12	79.0	2.5	/experiments/AOT/AOT_stimuli/rescaled_final/1569_rv.mp4	0.0	362.0827491283417	0.1000208854675293
82	341.2145788669586	fix_pre	0		119	80.0	2.5	/experiments/AOT/AOT_stimuli/rescaled_final/1217_fw.mp4	0.0	362.1827700138092	0.9917490482330322
82	342.1981348991394	pulse	0	t		80.0	2.5	/experiments/AOT/AOT_stimuli/rescaled_final/1217_fw.mp4	0.0	363.16632604599	
82	342.20632791519165	movie	1		245	80.0	2.5	/experiments/AOT/AOT_stimuli/rescaled_final/1217_fw.mp4	0.0	363.17451906204224	2.508307933807373
82	343.7975058555603	pulse	1	t		80.0	2.5	/experiments/AOT/AOT_stimuli/rescaled_final/1217_fw.mp4	0.0	364.7656970024109	
82	344.714635848999	fix_post	2		12	80.0	2.5	/experiments/AOT/AOT_stimuli/rescaled_final/1217_fw.mp4	0.0	365.6828269958496	0.0995950698852539
83	344.8142309188843	fix_pre	0		120	81.0	2.5	/experiments/AOT/AOT_stimuli/rescaled_final/0141_fw.mp4	0.0	365.78242206573486	1.0004088878631592
83	345.39807200431824	pulse	0	t		81.0	2.5	/experiments/AOT/AOT_stimuli/rescaled_final/0141_fw.mp4	0.0	366.3662631511688	
83	345.81463980674744	movie	1		245	81.0	2.5	/experiments/AOT/AOT_stimuli/rescaled_final/0141_fw.mp4	0.0	366.782830953598	2.4999380111694336
83	346.9981098175049	pulse	1	t		81.0	2.5	/experiments/AOT/AOT_stimuli/rescaled_final/0141_fw.mp4	0.0	367.96630096435547	
83	348.31457781791687	fix_post	2		12	81.0	2.5	/experiments/AOT/AOT_stimuli/rescaled_final/0141_fw.mp4	0.0	369.28276896476746	0.09962105751037598
84	348.41419887542725	fix_pre	0		120	82.0	2.5	blank	1.0	369.38239002227783	1.0003960132598877
84	348.59809494018555	pulse	0	t		82.0	2.5	blank	1.0	369.56628608703613	
84	349.41459488868713	movie	1		300	82.0	2.5	blank	1.0	370.3827860355377	2.50004506111145
84	350.19806385040283	pulse	1	t		82.0	2.5	blank	1.0	371.1662549972534	
84	351.7980818748474	pulse	1	t		82.0	2.5	blank	1.0	372.766273021698	
84	351.9146399497986	fix_post	2		12	82.0	2.5	blank	1.0	372.88283109664917	0.0998990535736084
85	352.0145390033722	fix_pre	0		120	83.0	2.5	/experiments/AOT/AOT_stimuli/rescaled_final/1819_rv.mp4	0.0	372.9827301502228	0.9995918273925781
85	353.01413083076477	movie	1		247	83.0	2.5	/experiments/AOT/AOT_stimuli/rescaled_final/1819_rv.mp4	0.0	373.98232197761536	2.4999752044677734
85	353.39760088920593	pulse	1	t		83.0	2.5	/experiments/AOT/AOT_stimuli/rescaled_final/1819_rv.mp4	0.0	374.3657920360565	
85	354.9979798793793	pulse	1	t		83.0	2.5	/experiments/AOT/AOT_stimuli/rescaled_final/1819_rv.mp4	0.0	375.96617102622986	
85	355.51410603523254	fix_post	2		12	83.0	2.5	/experiments/AOT/AOT_stimuli/rescaled_final/1819_rv.mp4	0.0	376.48229718208313	0.10048580169677734
87	355.6145918369293	stim	0		1716					376.5827829837799	14.29990816116333
87	356.59810495376587	pulse	0	t						377.56629610061646	
87	358.19803380966187	pulse	0	t						379.16622495651245	
87	359.79801201820374	pulse	0	t						380.7662031650543	
87	361.3980348110199	pulse	0	t						382.3662259578705	
87	362.9980208873749	pulse	0	t						383.96621203422546	
87	364.59803795814514	pulse	0	t						385.5662291049957	
87	366.1980040073395	pulse	0	t						387.16619515419006	
87	367.7979209423065	pulse	0	t						388.7661120891571	
87	369.398001909256	pulse	0	t						390.36619305610657	
