trial_nr	onset	event_type	phase	response	nr_frames	movie_index	movie_duration	movie_file	blank	onset_abs	duration
0	0.20835494995117188	stim	0		1					17.861293077468872	0.016695022583007812
0	0.20091795921325684	response	0	space						17.853856086730957	
1	0.2250499725341797	stim	0		4640					17.87798810005188	38.680880069732666
1	38.895901918411255	pulse	0	t						56.548840045928955	
1	38.905930042266846	stim	1		1716					56.558868169784546	14.301861047744751
1	40.48937106132507	pulse	1	t						58.14230918884277	
1	42.08967304229736	pulse	1	t						59.74261116981506	
1	43.68990898132324	pulse	1	t						61.34284710884094	
1	45.290138959884644	pulse	1	t						62.943077087402344	
1	46.89036202430725	pulse	1	t						64.54330015182495	
1	48.490532875061035	pulse	1	t						66.14347100257874	
1	50.09072399139404	pulse	1	t						67.74366211891174	
1	51.691039085388184	pulse	1	t						69.34397721290588	
2	53.2077910900116	fix_pre	0		11	0.0	2.5	/experiments/knapen_AOT/AOT_stimuli/rescaled_final/1933_rv.mp4	0.0	70.8607292175293	0.09168577194213867
2	53.29126286506653	pulse	0	t		0.0	2.5	/experiments/knapen_AOT/AOT_stimuli/rescaled_final/1933_rv.mp4	0.0	70.94420099258423	
2	53.299476861953735	movie	1		243	0.0	2.5	/experiments/knapen_AOT/AOT_stimuli/rescaled_final/1933_rv.mp4	0.0	70.95241498947144	2.508742094039917
2	54.896146059036255	pulse	1	t		0.0	2.5	/experiments/knapen_AOT/AOT_stimuli/rescaled_final/1933_rv.mp4	0.0	72.54908418655396	
2	55.80821895599365	fix_post	2		12	0.0	2.5	/experiments/knapen_AOT/AOT_stimuli/rescaled_final/1933_rv.mp4	0.0	73.46115708351135	0.09989595413208008
3	55.90811491012573	fix_pre	0		120	1.0	2.5	/experiments/knapen_AOT/AOT_stimuli/rescaled_final/1174_fw.mp4	0.0	73.56105303764343	1.000204086303711
3	56.4844069480896	pulse	0	t		1.0	2.5	/experiments/knapen_AOT/AOT_stimuli/rescaled_final/1174_fw.mp4	0.0	74.1373450756073	
3	56.90831899642944	movie	1		242	1.0	2.5	/experiments/knapen_AOT/AOT_stimuli/rescaled_final/1174_fw.mp4	0.0	74.56125712394714	2.500581979751587
3	58.092177867889404	pulse	1	t		1.0	2.5	/experiments/knapen_AOT/AOT_stimuli/rescaled_final/1174_fw.mp4	0.0	75.7451159954071	
3	59.40890097618103	fix_post	2		12	1.0	2.5	/experiments/knapen_AOT/AOT_stimuli/rescaled_final/1174_fw.mp4	0.0	77.06183910369873	0.09980511665344238
4	59.50870609283447	fix_pre	0		120	2.0	2.5	/experiments/knapen_AOT/AOT_stimuli/rescaled_final/0961_fw.mp4	0.0	77.16164422035217	1.0001239776611328
4	59.6847939491272	pulse	0	t		2.0	2.5	/experiments/knapen_AOT/AOT_stimuli/rescaled_final/0961_fw.mp4	0.0	77.3377320766449	
4	60.508830070495605	movie	1		242	2.0	2.5	/experiments/knapen_AOT/AOT_stimuli/rescaled_final/0961_fw.mp4	0.0	78.1617681980133	2.500548839569092
4	61.28412199020386	pulse	1	t		2.0	2.5	/experiments/knapen_AOT/AOT_stimuli/rescaled_final/0961_fw.mp4	0.0	78.93706011772156	
4	62.88431191444397	pulse	1	t		2.0	2.5	/experiments/knapen_AOT/AOT_stimuli/rescaled_final/0961_fw.mp4	0.0	80.53725004196167	
4	63.0093789100647	fix_post	2		12	2.0	2.5	/experiments/knapen_AOT/AOT_stimuli/rescaled_final/0961_fw.mp4	0.0	80.6623170375824	0.09985518455505371
5	63.10923409461975	fix_pre	0		120	3.0	2.5	/experiments/knapen_AOT/AOT_stimuli/rescaled_final/2163_fw.mp4	0.0	80.76217222213745	1.0001249313354492
5	64.1093590259552	movie	1		243	3.0	2.5	/experiments/knapen_AOT/AOT_stimuli/rescaled_final/2163_fw.mp4	0.0	81.7622971534729	2.49206805229187
5	64.48464608192444	pulse	1	t		3.0	2.5	/experiments/knapen_AOT/AOT_stimuli/rescaled_final/2163_fw.mp4	0.0	82.13758420944214	
5	66.08503699302673	pulse	1	t		3.0	2.5	/experiments/knapen_AOT/AOT_stimuli/rescaled_final/2163_fw.mp4	0.0	83.73797512054443	
5	66.60142707824707	fix_post	2		12	3.0	2.5	/experiments/knapen_AOT/AOT_stimuli/rescaled_final/2163_fw.mp4	0.0	84.25436520576477	0.10000395774841309
6	66.70143103599548	fix_pre	0		119	4.0	2.5	/experiments/knapen_AOT/AOT_stimuli/rescaled_final/1174_rv.mp4	0.0	84.35436916351318	0.9918270111083984
6	67.6851499080658	pulse	0	t		4.0	2.5	/experiments/knapen_AOT/AOT_stimuli/rescaled_final/1174_rv.mp4	0.0	85.3380880355835	
6	67.69325804710388	movie	1		243	4.0	2.5	/experiments/knapen_AOT/AOT_stimuli/rescaled_final/1174_rv.mp4	0.0	85.34619617462158	2.508718967437744
6	69.2860860824585	pulse	1	t		4.0	2.5	/experiments/knapen_AOT/AOT_stimuli/rescaled_final/1174_rv.mp4	0.0	86.9390242099762	
6	70.20197701454163	fix_post	2		12	4.0	2.5	/experiments/knapen_AOT/AOT_stimuli/rescaled_final/1174_rv.mp4	0.0	87.85491514205933	0.10001397132873535
7	70.30199098587036	fix_pre	0		120	5.0	2.5	/experiments/knapen_AOT/AOT_stimuli/rescaled_final/0894_fw.mp4	0.0	87.95492911338806	1.0001540184020996
7	70.88556408882141	pulse	0	t		5.0	2.5	/experiments/knapen_AOT/AOT_stimuli/rescaled_final/0894_fw.mp4	0.0	88.53850221633911	
7	71.30214500427246	movie	1		242	5.0	2.5	/experiments/knapen_AOT/AOT_stimuli/rescaled_final/0894_fw.mp4	0.0	88.95508313179016	2.500472068786621
7	72.48595786094666	pulse	1	t		5.0	2.5	/experiments/knapen_AOT/AOT_stimuli/rescaled_final/0894_fw.mp4	0.0	90.13889598846436	
7	73.80261707305908	fix_post	2		12	5.0	2.5	/experiments/knapen_AOT/AOT_stimuli/rescaled_final/0894_fw.mp4	0.0	91.45555520057678	0.09988999366760254
8	73.90250706672668	fix_pre	0		120	6.0	2.5	/experiments/knapen_AOT/AOT_stimuli/rescaled_final/1058_rv.mp4	0.0	91.55544519424438	1.00016188621521
8	74.08606100082397	pulse	0	t		6.0	2.5	/experiments/knapen_AOT/AOT_stimuli/rescaled_final/1058_rv.mp4	0.0	91.73899912834167	
8	74.9026689529419	movie	1		243	6.0	2.5	/experiments/knapen_AOT/AOT_stimuli/rescaled_final/1058_rv.mp4	0.0	92.5556070804596	2.50052809715271
8	75.68627786636353	pulse	1	t		6.0	2.5	/experiments/knapen_AOT/AOT_stimuli/rescaled_final/1058_rv.mp4	0.0	93.33921599388123	
8	77.28649997711182	pulse	1	t		6.0	2.5	/experiments/knapen_AOT/AOT_stimuli/rescaled_final/1058_rv.mp4	0.0	94.93943810462952	
8	77.4031970500946	fix_post	2		12	6.0	2.5	/experiments/knapen_AOT/AOT_stimuli/rescaled_final/1058_rv.mp4	0.0	95.0561351776123	0.09987187385559082
9	77.5030689239502	fix_pre	0		120	7.0	2.5	blank	1.0	95.1560070514679	1.0001001358032227
9	78.50316905975342	movie	1		299	7.0	2.5	blank	1.0	96.15610718727112	2.492051839828491
9	78.88684296607971	pulse	1	t		7.0	2.5	blank	1.0	96.53978109359741	
9	80.48707985877991	pulse	1	t		7.0	2.5	blank	1.0	98.14001798629761	
9	80.99522089958191	fix_post	2		12	7.0	2.5	blank	1.0	98.64815902709961	0.10003399848937988
10	81.09525489807129	fix_pre	0		120	8.0	2.5	/experiments/knapen_AOT/AOT_stimuli/rescaled_final/1517_fw.mp4	0.0	98.74819302558899	1.0001401901245117
10	82.08728289604187	pulse	0	t		8.0	2.5	/experiments/knapen_AOT/AOT_stimuli/rescaled_final/1517_fw.mp4	0.0	99.74022102355957	
10	82.0953950881958	movie	1		244	8.0	2.5	/experiments/knapen_AOT/AOT_stimuli/rescaled_final/1517_fw.mp4	0.0	99.7483332157135	2.5087828636169434
10	83.68809604644775	pulse	1	t		8.0	2.5	/experiments/knapen_AOT/AOT_stimuli/rescaled_final/1517_fw.mp4	0.0	101.34103417396545	
10	84.60417795181274	fix_post	2		12	8.0	2.5	/experiments/knapen_AOT/AOT_stimuli/rescaled_final/1517_fw.mp4	0.0	102.25711607933044	0.09990096092224121
11	84.70407891273499	fix_pre	0		120	9.0	2.5	/experiments/knapen_AOT/AOT_stimuli/rescaled_final/2047_rv.mp4	0.0	102.35701704025269	1.0001649856567383
11	85.28770709037781	pulse	0	t		9.0	2.5	/experiments/knapen_AOT/AOT_stimuli/rescaled_final/2047_rv.mp4	0.0	102.94064521789551	
11	85.70424389839172	movie	1		243	9.0	2.5	/experiments/knapen_AOT/AOT_stimuli/rescaled_final/2047_rv.mp4	0.0	103.35718202590942	2.5005931854248047
11	86.88808107376099	pulse	1	t		9.0	2.5	/experiments/knapen_AOT/AOT_stimuli/rescaled_final/2047_rv.mp4	0.0	104.54101920127869	
11	88.20483708381653	fix_post	2		12	9.0	2.5	/experiments/knapen_AOT/AOT_stimuli/rescaled_final/2047_rv.mp4	0.0	105.85777521133423	0.09979581832885742
12	88.30463290214539	fix_pre	0		120	10.0	2.5	/experiments/knapen_AOT/AOT_stimuli/rescaled_final/0578_rv.mp4	0.0	105.95757102966309	1.0001461505889893
12	88.48825788497925	pulse	0	t		10.0	2.5	/experiments/knapen_AOT/AOT_stimuli/rescaled_final/0578_rv.mp4	0.0	106.14119601249695	
12	89.30477905273438	movie	1		242	10.0	2.5	/experiments/knapen_AOT/AOT_stimuli/rescaled_final/0578_rv.mp4	0.0	106.95771718025208	2.500476837158203
12	90.08846402168274	pulse	1	t		10.0	2.5	/experiments/knapen_AOT/AOT_stimuli/rescaled_final/0578_rv.mp4	0.0	107.74140214920044	
12	91.68930101394653	pulse	1	t		10.0	2.5	/experiments/knapen_AOT/AOT_stimuli/rescaled_final/0578_rv.mp4	0.0	109.34223914146423	
12	91.80525588989258	fix_post	2		12	10.0	2.5	/experiments/knapen_AOT/AOT_stimuli/rescaled_final/0578_rv.mp4	0.0	109.45819401741028	0.09991097450256348
13	91.90516686439514	fix_pre	0		120	11.0	2.5	/experiments/knapen_AOT/AOT_stimuli/rescaled_final/2051_fw.mp4	0.0	109.55810499191284	1.000171184539795
13	92.90533804893494	movie	1		241	11.0	2.5	/experiments/knapen_AOT/AOT_stimuli/rescaled_final/2051_fw.mp4	0.0	110.55827617645264	2.492151975631714
13	93.28958487510681	pulse	1	t		11.0	2.5	/experiments/knapen_AOT/AOT_stimuli/rescaled_final/2051_fw.mp4	0.0	110.94252300262451	
13	94.88917899131775	pulse	1	t		11.0	2.5	/experiments/knapen_AOT/AOT_stimuli/rescaled_final/2051_fw.mp4	0.0	112.54211711883545	
13	95.39749002456665	fix_post	2		12	11.0	2.5	/experiments/knapen_AOT/AOT_stimuli/rescaled_final/2051_fw.mp4	0.0	113.05042815208435	0.09991288185119629
14	95.49740290641785	fix_pre	0		120	12.0	2.5	blank	1.0	113.15034103393555	1.0001561641693115
14	96.48952388763428	pulse	0	t		12.0	2.5	blank	1.0	114.14246201515198	
14	96.49755907058716	movie	1		298	12.0	2.5	blank	1.0	114.15049719810486	2.5087499618530273
14	98.08964896202087	pulse	1	t		12.0	2.5	blank	1.0	115.74258708953857	
14	99.00630903244019	fix_post	2		12	12.0	2.5	blank	1.0	116.65924715995789	0.09999299049377441
15	99.10630202293396	fix_pre	0		120	13.0	2.5	/experiments/knapen_AOT/AOT_stimuli/rescaled_final/2092_fw.mp4	0.0	116.75924015045166	1.0000898838043213
15	99.68993401527405	pulse	0	t		13.0	2.5	/experiments/knapen_AOT/AOT_stimuli/rescaled_final/2092_fw.mp4	0.0	117.34287214279175	
15	100.10639190673828	movie	1		244	13.0	2.5	/experiments/knapen_AOT/AOT_stimuli/rescaled_final/2092_fw.mp4	0.0	117.75933003425598	2.5003931522369385
15	101.29017400741577	pulse	1	t		13.0	2.5	/experiments/knapen_AOT/AOT_stimuli/rescaled_final/2092_fw.mp4	0.0	118.94311213493347	
15	102.60678505897522	fix_post	2		12	13.0	2.5	/experiments/knapen_AOT/AOT_stimuli/rescaled_final/2092_fw.mp4	0.0	120.25972318649292	0.09999680519104004
16	102.70678186416626	fix_pre	0		120	14.0	2.5	/experiments/knapen_AOT/AOT_stimuli/rescaled_final/2054_rv.mp4	0.0	120.35971999168396	1.000148057937622
16	102.89031291007996	pulse	0	t		14.0	2.5	/experiments/knapen_AOT/AOT_stimuli/rescaled_final/2054_rv.mp4	0.0	120.54325103759766	
16	103.70692992210388	movie	1		243	14.0	2.5	/experiments/knapen_AOT/AOT_stimuli/rescaled_final/2054_rv.mp4	0.0	121.35986804962158	2.500404119491577
16	104.49065089225769	pulse	1	t		14.0	2.5	/experiments/knapen_AOT/AOT_stimuli/rescaled_final/2054_rv.mp4	0.0	122.14358901977539	
16	106.09071087837219	pulse	1	t		14.0	2.5	/experiments/knapen_AOT/AOT_stimuli/rescaled_final/2054_rv.mp4	0.0	123.74364900588989	
16	106.20733404159546	fix_post	2		12	14.0	2.5	/experiments/knapen_AOT/AOT_stimuli/rescaled_final/2054_rv.mp4	0.0	123.86027216911316	0.10005998611450195
17	106.30739402770996	fix_pre	0		120	15.0	2.5	/experiments/knapen_AOT/AOT_stimuli/rescaled_final/0106_fw.mp4	0.0	123.96033215522766	1.0001239776611328
17	107.3075180053711	movie	1		241	15.0	2.5	/experiments/knapen_AOT/AOT_stimuli/rescaled_final/0106_fw.mp4	0.0	124.9604561328888	2.492133855819702
17	107.691575050354	pulse	1	t		15.0	2.5	/experiments/knapen_AOT/AOT_stimuli/rescaled_final/0106_fw.mp4	0.0	125.3445131778717	
17	109.29125189781189	pulse	1	t		15.0	2.5	/experiments/knapen_AOT/AOT_stimuli/rescaled_final/0106_fw.mp4	0.0	126.94419002532959	
17	109.7996518611908	fix_post	2		12	15.0	2.5	/experiments/knapen_AOT/AOT_stimuli/rescaled_final/0106_fw.mp4	0.0	127.4525899887085	0.09990215301513672
18	109.89955401420593	fix_pre	0		120	16.0	2.5	/experiments/knapen_AOT/AOT_stimuli/rescaled_final/1448_rv.mp4	0.0	127.55249214172363	1.0001130104064941
18	110.891597032547	pulse	0	t		16.0	2.5	/experiments/knapen_AOT/AOT_stimuli/rescaled_final/1448_rv.mp4	0.0	128.5445351600647	
18	110.89966702461243	movie	1		244	16.0	2.5	/experiments/knapen_AOT/AOT_stimuli/rescaled_final/1448_rv.mp4	0.0	128.55260515213013	2.5087318420410156
18	112.49297595024109	pulse	1	t		16.0	2.5	/experiments/knapen_AOT/AOT_stimuli/rescaled_final/1448_rv.mp4	0.0	130.1459140777588	
18	113.40839886665344	fix_post	2		12	16.0	2.5	/experiments/knapen_AOT/AOT_stimuli/rescaled_final/1448_rv.mp4	0.0	131.06133699417114	0.10008120536804199
19	113.50848007202148	fix_pre	0		120	17.0	2.5	/experiments/knapen_AOT/AOT_stimuli/rescaled_final/1166_fw.mp4	0.0	131.16141819953918	1.0000858306884766
19	114.08466005325317	pulse	0	t		17.0	2.5	/experiments/knapen_AOT/AOT_stimuli/rescaled_final/1166_fw.mp4	0.0	131.73759818077087	
19	114.50856590270996	movie	1		243	17.0	2.5	/experiments/knapen_AOT/AOT_stimuli/rescaled_final/1166_fw.mp4	0.0	132.16150403022766	2.5004751682281494
19	115.6924638748169	pulse	1	t		17.0	2.5	/experiments/knapen_AOT/AOT_stimuli/rescaled_final/1166_fw.mp4	0.0	133.3454020023346	
19	117.00904107093811	fix_post	2		12	17.0	2.5	/experiments/knapen_AOT/AOT_stimuli/rescaled_final/1166_fw.mp4	0.0	134.6619791984558	0.09990787506103516
20	117.10894894599915	fix_pre	0		120	18.0	2.5	/experiments/knapen_AOT/AOT_stimuli/rescaled_final/0178_fw.mp4	0.0	134.76188707351685	1.0001411437988281
20	117.28507995605469	pulse	0	t		18.0	2.5	/experiments/knapen_AOT/AOT_stimuli/rescaled_final/0178_fw.mp4	0.0	134.9380180835724	
20	118.10909008979797	movie	1		243	18.0	2.5	/experiments/knapen_AOT/AOT_stimuli/rescaled_final/0178_fw.mp4	0.0	135.76202821731567	2.500379800796509
20	118.8853120803833	pulse	1	t		18.0	2.5	/experiments/knapen_AOT/AOT_stimuli/rescaled_final/0178_fw.mp4	0.0	136.538250207901	
20	120.49288892745972	pulse	1	t		18.0	2.5	/experiments/knapen_AOT/AOT_stimuli/rescaled_final/0178_fw.mp4	0.0	138.14582705497742	
20	120.60946989059448	fix_post	2		12	18.0	2.5	/experiments/knapen_AOT/AOT_stimuli/rescaled_final/0178_fw.mp4	0.0	138.26240801811218	0.10004210472106934
21	120.70951199531555	fix_pre	0		120	19.0	2.5	/experiments/knapen_AOT/AOT_stimuli/rescaled_final/1678_fw.mp4	0.0	138.36245012283325	1.0001180171966553
21	121.7096300125122	movie	1		241	19.0	2.5	/experiments/knapen_AOT/AOT_stimuli/rescaled_final/1678_fw.mp4	0.0	139.3625681400299	2.492155075073242
21	122.0849130153656	pulse	1	t		19.0	2.5	/experiments/knapen_AOT/AOT_stimuli/rescaled_final/1678_fw.mp4	0.0	139.7378511428833	
21	123.68514704704285	pulse	1	t		19.0	2.5	/experiments/knapen_AOT/AOT_stimuli/rescaled_final/1678_fw.mp4	0.0	141.33808517456055	
21	124.20178508758545	fix_post	2		12	19.0	2.5	/experiments/knapen_AOT/AOT_stimuli/rescaled_final/1678_fw.mp4	0.0	141.85472321510315	0.09992694854736328
22	124.30171203613281	fix_pre	0		119	20.0	2.5	blank	1.0	141.9546501636505	0.9918220043182373
22	125.28532791137695	pulse	0	t		20.0	2.5	blank	1.0	142.93826603889465	
22	125.29353404045105	movie	1		301	20.0	2.5	blank	1.0	142.94647216796875	2.5086669921875
22	126.88567399978638	pulse	1	t		20.0	2.5	blank	1.0	144.53861212730408	
22	127.80220103263855	fix_post	2		12	20.0	2.5	blank	1.0	145.45513916015625	0.09999203681945801
23	127.90219306945801	fix_pre	0		120	21.0	2.5	/experiments/knapen_AOT/AOT_stimuli/rescaled_final/2007_rv.mp4	0.0	145.5551311969757	1.0001659393310547
23	128.4859070777893	pulse	0	t		21.0	2.5	/experiments/knapen_AOT/AOT_stimuli/rescaled_final/2007_rv.mp4	0.0	146.138845205307	
23	128.90235900878906	movie	1		243	21.0	2.5	/experiments/knapen_AOT/AOT_stimuli/rescaled_final/2007_rv.mp4	0.0	146.55529713630676	2.500417947769165
23	130.08610105514526	pulse	1	t		21.0	2.5	/experiments/knapen_AOT/AOT_stimuli/rescaled_final/2007_rv.mp4	0.0	147.73903918266296	
23	131.40277695655823	fix_post	2		12	21.0	2.5	/experiments/knapen_AOT/AOT_stimuli/rescaled_final/2007_rv.mp4	0.0	149.05571508407593	0.09999299049377441
24	131.502769947052	fix_pre	0		120	22.0	2.5	/experiments/knapen_AOT/AOT_stimuli/rescaled_final/1619_rv.mp4	0.0	149.1557080745697	1.0001420974731445
24	131.68636798858643	pulse	0	t		22.0	2.5	/experiments/knapen_AOT/AOT_stimuli/rescaled_final/1619_rv.mp4	0.0	149.33930611610413	
24	132.50291204452515	movie	1		243	22.0	2.5	/experiments/knapen_AOT/AOT_stimuli/rescaled_final/1619_rv.mp4	0.0	150.15585017204285	2.5005240440368652
24	133.28660202026367	pulse	1	t		22.0	2.5	/experiments/knapen_AOT/AOT_stimuli/rescaled_final/1619_rv.mp4	0.0	150.93954014778137	
24	134.88678908348083	pulse	1	t		22.0	2.5	/experiments/knapen_AOT/AOT_stimuli/rescaled_final/1619_rv.mp4	0.0	152.53972721099854	
24	135.003436088562	fix_post	2		12	22.0	2.5	/experiments/knapen_AOT/AOT_stimuli/rescaled_final/1619_rv.mp4	0.0	152.6563742160797	0.0998389720916748
25	135.1032750606537	fix_pre	0		119	23.0	2.5	/experiments/knapen_AOT/AOT_stimuli/rescaled_final/2086_rv.mp4	0.0	152.7562131881714	0.9918508529663086
25	136.09512591362	movie	1		243	23.0	2.5	/experiments/knapen_AOT/AOT_stimuli/rescaled_final/2086_rv.mp4	0.0	153.7480640411377	2.5005640983581543
25	136.487144947052	pulse	1	t		23.0	2.5	/experiments/knapen_AOT/AOT_stimuli/rescaled_final/2086_rv.mp4	0.0	154.1400830745697	
25	138.08729195594788	pulse	1	t		23.0	2.5	/experiments/knapen_AOT/AOT_stimuli/rescaled_final/2086_rv.mp4	0.0	155.74023008346558	
25	138.59569001197815	fix_post	2		12	23.0	2.5	/experiments/knapen_AOT/AOT_stimuli/rescaled_final/2086_rv.mp4	0.0	156.24862813949585	0.09984993934631348
26	138.69553995132446	fix_pre	0		120	24.0	2.5	/experiments/knapen_AOT/AOT_stimuli/rescaled_final/1000_fw.mp4	0.0	156.34847807884216	1.0001060962677002
26	139.68754696846008	pulse	0	t		24.0	2.5	/experiments/knapen_AOT/AOT_stimuli/rescaled_final/1000_fw.mp4	0.0	157.34048509597778	
26	139.69564604759216	movie	1		244	24.0	2.5	/experiments/knapen_AOT/AOT_stimuli/rescaled_final/1000_fw.mp4	0.0	157.34858417510986	2.5088419914245605
26	141.28829288482666	pulse	1	t		24.0	2.5	/experiments/knapen_AOT/AOT_stimuli/rescaled_final/1000_fw.mp4	0.0	158.94123101234436	
26	142.20448803901672	fix_post	2		12	24.0	2.5	/experiments/knapen_AOT/AOT_stimuli/rescaled_final/1000_fw.mp4	0.0	159.85742616653442	0.09988284111022949
27	142.30437088012695	fix_pre	0		120	25.0	2.5	/experiments/knapen_AOT/AOT_stimuli/rescaled_final/1814_fw.mp4	0.0	159.95730900764465	1.0001440048217773
27	142.88802289962769	pulse	0	t		25.0	2.5	/experiments/knapen_AOT/AOT_stimuli/rescaled_final/1814_fw.mp4	0.0	160.54096102714539	
27	143.30451488494873	movie	1		243	25.0	2.5	/experiments/knapen_AOT/AOT_stimuli/rescaled_final/1814_fw.mp4	0.0	160.95745301246643	2.5005311965942383
27	144.4882528781891	pulse	1	t		25.0	2.5	/experiments/knapen_AOT/AOT_stimuli/rescaled_final/1814_fw.mp4	0.0	162.1411910057068	
27	145.80504608154297	fix_post	2		12	25.0	2.5	/experiments/knapen_AOT/AOT_stimuli/rescaled_final/1814_fw.mp4	0.0	163.45798420906067	0.09987282752990723
28	145.90491890907288	fix_pre	0		120	26.0	2.5	blank	1.0	163.55785703659058	1.0001161098480225
28	146.08847308158875	pulse	0	t		26.0	2.5	blank	1.0	163.74141120910645	
28	146.9050350189209	movie	1		300	26.0	2.5	blank	1.0	164.5579731464386	2.500419855117798
28	147.68878698349	pulse	1	t		26.0	2.5	blank	1.0	165.3417251110077	
28	149.28902006149292	pulse	1	t		26.0	2.5	blank	1.0	166.94195818901062	
28	149.4054548740387	fix_post	2		12	26.0	2.5	blank	1.0	167.0583930015564	0.0999901294708252
29	149.50544500350952	fix_pre	0		120	27.0	2.5	/experiments/knapen_AOT/AOT_stimuli/rescaled_final/1878_fw.mp4	0.0	167.15838313102722	1.0001640319824219
29	150.50560903549194	movie	1		243	27.0	2.5	/experiments/knapen_AOT/AOT_stimuli/rescaled_final/1878_fw.mp4	0.0	168.15854716300964	2.491999864578247
29	150.89134192466736	pulse	1	t		27.0	2.5	/experiments/knapen_AOT/AOT_stimuli/rescaled_final/1878_fw.mp4	0.0	168.54428005218506	
29	152.4894459247589	pulse	1	t		27.0	2.5	/experiments/knapen_AOT/AOT_stimuli/rescaled_final/1878_fw.mp4	0.0	170.1423840522766	
29	152.9976089000702	fix_post	2		12	27.0	2.5	/experiments/knapen_AOT/AOT_stimuli/rescaled_final/1878_fw.mp4	0.0	170.6505470275879	0.1000521183013916
30	153.09766101837158	fix_pre	0		120	28.0	2.5	/experiments/knapen_AOT/AOT_stimuli/rescaled_final/1174_rv.mp4	0.0	170.75059914588928	1.0001449584960938
30	154.089693069458	pulse	0	t		28.0	2.5	/experiments/knapen_AOT/AOT_stimuli/rescaled_final/1174_rv.mp4	0.0	171.7426311969757	
30	154.09780597686768	movie	1		243	28.0	2.5	/experiments/knapen_AOT/AOT_stimuli/rescaled_final/1174_rv.mp4	0.0	171.75074410438538	2.5086960792541504
30	155.69059586524963	pulse	1	t		28.0	2.5	/experiments/knapen_AOT/AOT_stimuli/rescaled_final/1174_rv.mp4	0.0	173.34353399276733	
30	156.60650205612183	fix_post	2		12	28.0	2.5	/experiments/knapen_AOT/AOT_stimuli/rescaled_final/1174_rv.mp4	0.0	174.25944018363953	0.1000368595123291
31	156.70653891563416	fix_pre	0		120	29.0	2.5	/experiments/knapen_AOT/AOT_stimuli/rescaled_final/0169_rv.mp4	0.0	174.35947704315186	1.0001230239868164
31	157.29007601737976	pulse	0	t		29.0	2.5	/experiments/knapen_AOT/AOT_stimuli/rescaled_final/0169_rv.mp4	0.0	174.94301414489746	
31	157.70666193962097	movie	1		242	29.0	2.5	/experiments/knapen_AOT/AOT_stimuli/rescaled_final/0169_rv.mp4	0.0	175.35960006713867	2.525468111038208
31	158.89053392410278	pulse	1	t		29.0	2.5	/experiments/knapen_AOT/AOT_stimuli/rescaled_final/0169_rv.mp4	0.0	176.54347205162048	
31	160.23213005065918	fix_post	2		9	29.0	2.5	/experiments/knapen_AOT/AOT_stimuli/rescaled_final/0169_rv.mp4	0.0	177.88506817817688	0.07494401931762695
32	160.3070740699768	fix_pre	0		120	30.0	2.5	/experiments/knapen_AOT/AOT_stimuli/rescaled_final/0326_rv.mp4	0.0	177.9600121974945	1.0001428127288818
32	160.4905970096588	pulse	0	t		30.0	2.5	/experiments/knapen_AOT/AOT_stimuli/rescaled_final/0326_rv.mp4	0.0	178.1435351371765	
32	161.3072168827057	movie	1		244	30.0	2.5	/experiments/knapen_AOT/AOT_stimuli/rescaled_final/0326_rv.mp4	0.0	178.9601550102234	2.500369071960449
32	162.09091091156006	pulse	1	t		30.0	2.5	/experiments/knapen_AOT/AOT_stimuli/rescaled_final/0326_rv.mp4	0.0	179.74384903907776	
32	163.69457387924194	pulse	1	t		30.0	2.5	/experiments/knapen_AOT/AOT_stimuli/rescaled_final/0326_rv.mp4	0.0	181.34751200675964	
32	163.80758595466614	fix_post	2		12	30.0	2.5	/experiments/knapen_AOT/AOT_stimuli/rescaled_final/0326_rv.mp4	0.0	181.46052408218384	0.10001111030578613
33	163.90759706497192	fix_pre	0		120	31.0	2.5	/experiments/knapen_AOT/AOT_stimuli/rescaled_final/1563_rv.mp4	0.0	181.56053519248962	1.000147819519043
33	164.90774488449097	movie	1		242	31.0	2.5	/experiments/knapen_AOT/AOT_stimuli/rescaled_final/1563_rv.mp4	0.0	182.56068301200867	2.4922640323638916
33	165.2921838760376	pulse	1	t		31.0	2.5	/experiments/knapen_AOT/AOT_stimuli/rescaled_final/1563_rv.mp4	0.0	182.9451220035553	
33	166.88414692878723	pulse	1	t		31.0	2.5	/experiments/knapen_AOT/AOT_stimuli/rescaled_final/1563_rv.mp4	0.0	184.53708505630493	
33	167.40000891685486	fix_post	2		12	31.0	2.5	/experiments/knapen_AOT/AOT_stimuli/rescaled_final/1563_rv.mp4	0.0	185.05294704437256	0.09979104995727539
34	167.49979996681213	fix_pre	0		120	32.0	2.5	/experiments/knapen_AOT/AOT_stimuli/rescaled_final/0735_fw.mp4	0.0	185.15273809432983	1.0001389980316162
34	168.4842689037323	pulse	0	t		32.0	2.5	/experiments/knapen_AOT/AOT_stimuli/rescaled_final/0735_fw.mp4	0.0	186.13720703125	
34	168.49993896484375	movie	1		245	32.0	2.5	/experiments/knapen_AOT/AOT_stimuli/rescaled_final/0735_fw.mp4	0.0	186.15287709236145	2.508774995803833
34	170.0966670513153	pulse	1	t		32.0	2.5	/experiments/knapen_AOT/AOT_stimuli/rescaled_final/0735_fw.mp4	0.0	187.749605178833	
34	171.00871396064758	fix_post	2		12	32.0	2.5	/experiments/knapen_AOT/AOT_stimuli/rescaled_final/0735_fw.mp4	0.0	188.66165208816528	0.09999299049377441
35	171.10870695114136	fix_pre	0		120	33.0	2.5	/experiments/knapen_AOT/AOT_stimuli/rescaled_final/0527_rv.mp4	0.0	188.76164507865906	1.0000989437103271
35	171.684818983078	pulse	0	t		33.0	2.5	/experiments/knapen_AOT/AOT_stimuli/rescaled_final/0527_rv.mp4	0.0	189.3377571105957	
35	172.10880589485168	movie	1		242	33.0	2.5	/experiments/knapen_AOT/AOT_stimuli/rescaled_final/0527_rv.mp4	0.0	189.76174402236938	2.5005040168762207
35	173.28470587730408	pulse	1	t		33.0	2.5	/experiments/knapen_AOT/AOT_stimuli/rescaled_final/0527_rv.mp4	0.0	190.93764400482178	
35	174.6093099117279	fix_post	2		12	33.0	2.5	/experiments/knapen_AOT/AOT_stimuli/rescaled_final/0527_rv.mp4	0.0	192.2622480392456	0.09987211227416992
36	174.70918202400208	fix_pre	0		120	34.0	2.5	blank	1.0	192.36212015151978	1.0001869201660156
36	174.88437795639038	pulse	0	t		34.0	2.5	blank	1.0	192.53731608390808	
36	175.7093689441681	movie	1		300	34.0	2.5	blank	1.0	193.3623070716858	2.500339984893799
36	176.48458886146545	pulse	1	t		34.0	2.5	blank	1.0	194.13752698898315	
36	178.08487200737	pulse	1	t		34.0	2.5	blank	1.0	195.7378101348877	
36	178.2097089290619	fix_post	2		12	34.0	2.5	blank	1.0	195.8626470565796	0.10000109672546387
37	178.30971002578735	fix_pre	0		119	35.0	2.5	/experiments/knapen_AOT/AOT_stimuli/rescaled_final/0576_fw.mp4	0.0	195.96264815330505	0.9918699264526367
37	179.30157995224	movie	1		244	35.0	2.5	/experiments/knapen_AOT/AOT_stimuli/rescaled_final/0576_fw.mp4	0.0	196.9545180797577	2.5003390312194824
37	179.6855869293213	pulse	1	t		35.0	2.5	/experiments/knapen_AOT/AOT_stimuli/rescaled_final/0576_fw.mp4	0.0	197.338525056839	
37	181.2853720188141	pulse	1	t		35.0	2.5	/experiments/knapen_AOT/AOT_stimuli/rescaled_final/0576_fw.mp4	0.0	198.9383101463318	
37	181.80191898345947	fix_post	2		12	35.0	2.5	/experiments/knapen_AOT/AOT_stimuli/rescaled_final/0576_fw.mp4	0.0	199.45485711097717	0.1000220775604248
38	181.9019410610199	fix_pre	0		119	36.0	2.5	/experiments/knapen_AOT/AOT_stimuli/rescaled_final/0706_fw.mp4	0.0	199.5548791885376	0.9918467998504639
38	182.88566708564758	pulse	0	t		36.0	2.5	/experiments/knapen_AOT/AOT_stimuli/rescaled_final/0706_fw.mp4	0.0	200.53860521316528	
38	182.89378786087036	movie	1		245	36.0	2.5	/experiments/knapen_AOT/AOT_stimuli/rescaled_final/0706_fw.mp4	0.0	200.54672598838806	2.5087192058563232
38	184.48650789260864	pulse	1	t		36.0	2.5	/experiments/knapen_AOT/AOT_stimuli/rescaled_final/0706_fw.mp4	0.0	202.13944602012634	
38	185.40250706672668	fix_post	2		12	36.0	2.5	/experiments/knapen_AOT/AOT_stimuli/rescaled_final/0706_fw.mp4	0.0	203.05544519424438	0.09996700286865234
39	185.50247406959534	fix_pre	0		120	37.0	2.5	/experiments/knapen_AOT/AOT_stimuli/rescaled_final/1221_rv.mp4	0.0	203.15541219711304	1.0001509189605713
39	186.08615493774414	pulse	0	t		37.0	2.5	/experiments/knapen_AOT/AOT_stimuli/rescaled_final/1221_rv.mp4	0.0	203.73909306526184	
39	186.5026249885559	movie	1		242	37.0	2.5	/experiments/knapen_AOT/AOT_stimuli/rescaled_final/1221_rv.mp4	0.0	204.1555631160736	2.50046706199646
39	187.6863980293274	pulse	1	t		37.0	2.5	/experiments/knapen_AOT/AOT_stimuli/rescaled_final/1221_rv.mp4	0.0	205.3393361568451	
39	189.00309205055237	fix_post	2		12	37.0	2.5	/experiments/knapen_AOT/AOT_stimuli/rescaled_final/1221_rv.mp4	0.0	206.65603017807007	0.0999288558959961
40	189.10302090644836	fix_pre	0		120	38.0	2.5	/experiments/knapen_AOT/AOT_stimuli/rescaled_final/0944_rv.mp4	0.0	206.75595903396606	1.0001890659332275
40	189.28663206100464	pulse	0	t		38.0	2.5	/experiments/knapen_AOT/AOT_stimuli/rescaled_final/0944_rv.mp4	0.0	206.93957018852234	
40	190.1032099723816	movie	1		242	38.0	2.5	/experiments/knapen_AOT/AOT_stimuli/rescaled_final/0944_rv.mp4	0.0	207.7561480998993	2.5005040168762207
40	190.88680005073547	pulse	1	t		38.0	2.5	/experiments/knapen_AOT/AOT_stimuli/rescaled_final/0944_rv.mp4	0.0	208.53973817825317	
40	192.48700094223022	pulse	1	t		38.0	2.5	/experiments/knapen_AOT/AOT_stimuli/rescaled_final/0944_rv.mp4	0.0	210.13993906974792	
40	192.6037139892578	fix_post	2		12	38.0	2.5	/experiments/knapen_AOT/AOT_stimuli/rescaled_final/0944_rv.mp4	0.0	210.2566521167755	0.09984993934631348
41	192.70356392860413	fix_pre	0		120	39.0	2.5	/experiments/knapen_AOT/AOT_stimuli/rescaled_final/1200_fw.mp4	0.0	210.35650205612183	1.0001201629638672
41	193.703684091568	movie	1		241	39.0	2.5	/experiments/knapen_AOT/AOT_stimuli/rescaled_final/1200_fw.mp4	0.0	211.3566222190857	2.4921047687530518
41	194.08859586715698	pulse	1	t		39.0	2.5	/experiments/knapen_AOT/AOT_stimuli/rescaled_final/1200_fw.mp4	0.0	211.74153399467468	
41	195.68760299682617	pulse	1	t		39.0	2.5	/experiments/knapen_AOT/AOT_stimuli/rescaled_final/1200_fw.mp4	0.0	213.34054112434387	
41	196.19578886032104	fix_post	2		12	39.0	2.5	/experiments/knapen_AOT/AOT_stimuli/rescaled_final/1200_fw.mp4	0.0	213.84872698783875	0.09996414184570312
42	196.29575300216675	fix_pre	0		120	40.0	2.5	blank	1.0	213.94869112968445	1.0001540184020996
42	197.2878270149231	pulse	0	t		40.0	2.5	blank	1.0	214.9407651424408	
42	197.29590702056885	movie	1		301	40.0	2.5	blank	1.0	214.94884514808655	2.508708953857422
42	198.888041973114	pulse	1	t		40.0	2.5	blank	1.0	216.5409801006317	
42	199.80461597442627	fix_post	2		12	40.0	2.5	blank	1.0	217.45755410194397	0.10001492500305176
43	199.90463089942932	fix_pre	0		120	41.0	2.5	/experiments/knapen_AOT/AOT_stimuli/rescaled_final/0717_rv.mp4	0.0	217.55756902694702	1.0001630783081055
43	200.48828291893005	pulse	0	t		41.0	2.5	/experiments/knapen_AOT/AOT_stimuli/rescaled_final/0717_rv.mp4	0.0	218.14122104644775	
43	200.90479397773743	movie	1		244	41.0	2.5	/experiments/knapen_AOT/AOT_stimuli/rescaled_final/0717_rv.mp4	0.0	218.55773210525513	2.5003459453582764
43	202.08857989311218	pulse	1	t		41.0	2.5	/experiments/knapen_AOT/AOT_stimuli/rescaled_final/0717_rv.mp4	0.0	219.74151802062988	
43	203.4051399230957	fix_post	2		12	41.0	2.5	/experiments/knapen_AOT/AOT_stimuli/rescaled_final/0717_rv.mp4	0.0	221.0580780506134	0.10000896453857422
44	203.50514888763428	fix_pre	0		120	42.0	2.5	/experiments/knapen_AOT/AOT_stimuli/rescaled_final/0106_fw.mp4	0.0	221.15808701515198	1.0001850128173828
44	203.68891406059265	pulse	0	t		42.0	2.5	/experiments/knapen_AOT/AOT_stimuli/rescaled_final/0106_fw.mp4	0.0	221.34185218811035	
44	204.50533390045166	movie	1		242	42.0	2.5	/experiments/knapen_AOT/AOT_stimuli/rescaled_final/0106_fw.mp4	0.0	222.15827202796936	2.500373125076294
44	205.2889039516449	pulse	1	t		42.0	2.5	/experiments/knapen_AOT/AOT_stimuli/rescaled_final/0106_fw.mp4	0.0	222.9418420791626	
44	206.88901686668396	pulse	1	t		42.0	2.5	/experiments/knapen_AOT/AOT_stimuli/rescaled_final/0106_fw.mp4	0.0	224.54195499420166	
44	207.00570702552795	fix_post	2		12	42.0	2.5	/experiments/knapen_AOT/AOT_stimuli/rescaled_final/0106_fw.mp4	0.0	224.65864515304565	0.09998488426208496
45	207.10569190979004	fix_pre	0		120	43.0	2.5	/experiments/knapen_AOT/AOT_stimuli/rescaled_final/0796_rv.mp4	0.0	224.75863003730774	1.0001590251922607
45	208.1058509349823	movie	1		241	43.0	2.5	/experiments/knapen_AOT/AOT_stimuli/rescaled_final/0796_rv.mp4	0.0	225.7587890625	2.4921300411224365
45	208.49010300636292	pulse	1	t		43.0	2.5	/experiments/knapen_AOT/AOT_stimuli/rescaled_final/0796_rv.mp4	0.0	226.14304113388062	
45	210.08975100517273	pulse	1	t		43.0	2.5	/experiments/knapen_AOT/AOT_stimuli/rescaled_final/0796_rv.mp4	0.0	227.74268913269043	
45	210.59798097610474	fix_post	2		12	43.0	2.5	/experiments/knapen_AOT/AOT_stimuli/rescaled_final/0796_rv.mp4	0.0	228.25091910362244	0.09991598129272461
46	210.69789695739746	fix_pre	0		120	44.0	2.5	/experiments/knapen_AOT/AOT_stimuli/rescaled_final/2047_fw.mp4	0.0	228.35083508491516	1.0001459121704102
46	211.6899299621582	pulse	0	t		44.0	2.5	/experiments/knapen_AOT/AOT_stimuli/rescaled_final/2047_fw.mp4	0.0	229.3428680896759	
46	211.69804286956787	movie	1		244	44.0	2.5	/experiments/knapen_AOT/AOT_stimuli/rescaled_final/2047_fw.mp4	0.0	229.35098099708557	2.508857011795044
46	213.29149293899536	pulse	1	t		44.0	2.5	/experiments/knapen_AOT/AOT_stimuli/rescaled_final/2047_fw.mp4	0.0	230.94443106651306	
46	214.20689988136292	fix_post	2		12	44.0	2.5	/experiments/knapen_AOT/AOT_stimuli/rescaled_final/2047_fw.mp4	0.0	231.85983800888062	0.09990406036376953
47	214.30680394172668	fix_pre	0		120	45.0	2.5	/experiments/knapen_AOT/AOT_stimuli/rescaled_final/1392_fw.mp4	0.0	231.95974206924438	1.0001521110534668
47	214.8904299736023	pulse	0	t		45.0	2.5	/experiments/knapen_AOT/AOT_stimuli/rescaled_final/1392_fw.mp4	0.0	232.54336810112	
47	215.30695605278015	movie	1		243	45.0	2.5	/experiments/knapen_AOT/AOT_stimuli/rescaled_final/1392_fw.mp4	0.0	232.95989418029785	2.500553846359253
47	216.4906930923462	pulse	1	t		45.0	2.5	/experiments/knapen_AOT/AOT_stimuli/rescaled_final/1392_fw.mp4	0.0	234.1436312198639	
47	217.8075098991394	fix_post	2		12	45.0	2.5	/experiments/knapen_AOT/AOT_stimuli/rescaled_final/1392_fw.mp4	0.0	235.4604480266571	0.09980297088623047
48	217.90731287002563	fix_pre	0		120	46.0	2.5	/experiments/knapen_AOT/AOT_stimuli/rescaled_final/0994_fw.mp4	0.0	235.56025099754333	1.0001401901245117
48	218.09092807769775	pulse	0	t		46.0	2.5	/experiments/knapen_AOT/AOT_stimuli/rescaled_final/0994_fw.mp4	0.0	235.74386620521545	
48	218.90745306015015	movie	1		242	46.0	2.5	/experiments/knapen_AOT/AOT_stimuli/rescaled_final/0994_fw.mp4	0.0	236.56039118766785	2.5005428791046143
48	219.6912260055542	pulse	1	t		46.0	2.5	/experiments/knapen_AOT/AOT_stimuli/rescaled_final/0994_fw.mp4	0.0	237.3441641330719	
48	221.2912938594818	pulse	1	t		46.0	2.5	/experiments/knapen_AOT/AOT_stimuli/rescaled_final/0994_fw.mp4	0.0	238.9442319869995	
48	221.40799593925476	fix_post	2		12	46.0	2.5	/experiments/knapen_AOT/AOT_stimuli/rescaled_final/0994_fw.mp4	0.0	239.06093406677246	0.09985709190368652
49	221.50785303115845	fix_pre	0		117	47.0	2.5	/experiments/knapen_AOT/AOT_stimuli/rescaled_final/0832_fw.mp4	0.0	239.16079115867615	1.0001389980316162
49	222.50799202919006	movie	1		241	47.0	2.5	/experiments/knapen_AOT/AOT_stimuli/rescaled_final/0832_fw.mp4	0.0	240.16093015670776	2.4920449256896973
49	222.89227104187012	pulse	1	t		47.0	2.5	/experiments/knapen_AOT/AOT_stimuli/rescaled_final/0832_fw.mp4	0.0	240.54520916938782	
49	224.49188089370728	pulse	1	t		47.0	2.5	/experiments/knapen_AOT/AOT_stimuli/rescaled_final/0832_fw.mp4	0.0	242.14481902122498	
49	225.00003695487976	fix_post	2		12	47.0	2.5	/experiments/knapen_AOT/AOT_stimuli/rescaled_final/0832_fw.mp4	0.0	242.65297508239746	0.1000070571899414
50	225.1000440120697	fix_pre	0		120	48.0	2.5	blank	1.0	242.7529821395874	1.000143051147461
50	226.09206986427307	pulse	0	t		48.0	2.5	blank	1.0	243.74500799179077	
50	226.10018706321716	movie	1		301	48.0	2.5	blank	1.0	243.75312519073486	2.508754014968872
50	227.69224786758423	pulse	1	t		48.0	2.5	blank	1.0	245.34518599510193	
50	228.60894107818604	fix_post	2		12	48.0	2.5	blank	1.0	246.26187920570374	0.09997892379760742
51	228.70892000198364	fix_pre	0		120	49.0	2.5	/experiments/knapen_AOT/AOT_stimuli/rescaled_final/0784_fw.mp4	0.0	246.36185812950134	1.0001509189605713
51	229.2851219177246	pulse	0	t		49.0	2.5	/experiments/knapen_AOT/AOT_stimuli/rescaled_final/0784_fw.mp4	0.0	246.9380600452423	
51	229.7090709209442	movie	1		243	49.0	2.5	/experiments/knapen_AOT/AOT_stimuli/rescaled_final/0784_fw.mp4	0.0	247.3620090484619	2.5005900859832764
51	230.8858299255371	pulse	1	t		49.0	2.5	/experiments/knapen_AOT/AOT_stimuli/rescaled_final/0784_fw.mp4	0.0	248.5387680530548	
51	232.2096610069275	fix_post	2		12	49.0	2.5	/experiments/knapen_AOT/AOT_stimuli/rescaled_final/0784_fw.mp4	0.0	249.8625991344452	0.0997920036315918
52	232.30945301055908	fix_pre	0		120	50.0	2.5	/experiments/knapen_AOT/AOT_stimuli/rescaled_final/2095_fw.mp4	0.0	249.96239113807678	1.0001449584960938
52	232.48549604415894	pulse	0	t		50.0	2.5	/experiments/knapen_AOT/AOT_stimuli/rescaled_final/2095_fw.mp4	0.0	250.13843417167664	
52	233.30959796905518	movie	1		243	50.0	2.5	/experiments/knapen_AOT/AOT_stimuli/rescaled_final/2095_fw.mp4	0.0	250.96253609657288	2.5005879402160645
52	234.08577489852905	pulse	1	t		50.0	2.5	/experiments/knapen_AOT/AOT_stimuli/rescaled_final/2095_fw.mp4	0.0	251.73871302604675	
52	235.68523597717285	pulse	1	t		50.0	2.5	/experiments/knapen_AOT/AOT_stimuli/rescaled_final/2095_fw.mp4	0.0	253.33817410469055	
52	235.81018590927124	fix_post	2		12	50.0	2.5	/experiments/knapen_AOT/AOT_stimuli/rescaled_final/2095_fw.mp4	0.0	253.46312403678894	0.09980201721191406
53	235.90998792648315	fix_pre	0		120	51.0	2.5	/experiments/knapen_AOT/AOT_stimuli/rescaled_final/0326_rv.mp4	0.0	253.56292605400085	1.0001449584960938
53	236.91013288497925	movie	1		243	51.0	2.5	/experiments/knapen_AOT/AOT_stimuli/rescaled_final/0326_rv.mp4	0.0	254.56307101249695	2.4920520782470703
53	237.28535103797913	pulse	1	t		51.0	2.5	/experiments/knapen_AOT/AOT_stimuli/rescaled_final/0326_rv.mp4	0.0	254.93828916549683	
53	238.8857409954071	pulse	1	t		51.0	2.5	/experiments/knapen_AOT/AOT_stimuli/rescaled_final/0326_rv.mp4	0.0	256.5386791229248	
53	239.40218496322632	fix_post	2		12	51.0	2.5	/experiments/knapen_AOT/AOT_stimuli/rescaled_final/0326_rv.mp4	0.0	257.055123090744	0.10004711151123047
54	239.50223207473755	fix_pre	0		119	52.0	2.5	/experiments/knapen_AOT/AOT_stimuli/rescaled_final/0456_fw.mp4	0.0	257.15517020225525	0.991811990737915
54	240.48596906661987	pulse	0	t		52.0	2.5	/experiments/knapen_AOT/AOT_stimuli/rescaled_final/0456_fw.mp4	0.0	258.1389071941376	
54	240.49404406547546	movie	1		244	52.0	2.5	/experiments/knapen_AOT/AOT_stimuli/rescaled_final/0456_fw.mp4	0.0	258.14698219299316	2.5087218284606934
54	242.0906240940094	pulse	1	t		52.0	2.5	/experiments/knapen_AOT/AOT_stimuli/rescaled_final/0456_fw.mp4	0.0	259.7435622215271	
54	243.00276589393616	fix_post	2		12	52.0	2.5	/experiments/knapen_AOT/AOT_stimuli/rescaled_final/0456_fw.mp4	0.0	260.65570402145386	0.09996414184570312
55	243.10273003578186	fix_pre	0		120	53.0	2.5	/experiments/knapen_AOT/AOT_stimuli/rescaled_final/0604_fw.mp4	0.0	260.75566816329956	1.0001490116119385
55	243.68639397621155	pulse	0	t		53.0	2.5	/experiments/knapen_AOT/AOT_stimuli/rescaled_final/0604_fw.mp4	0.0	261.33933210372925	
55	244.1028790473938	movie	1		243	53.0	2.5	/experiments/knapen_AOT/AOT_stimuli/rescaled_final/0604_fw.mp4	0.0	261.7558171749115	2.5003509521484375
55	245.28665709495544	pulse	1	t		53.0	2.5	/experiments/knapen_AOT/AOT_stimuli/rescaled_final/0604_fw.mp4	0.0	262.93959522247314	
55	246.60322999954224	fix_post	2		12	53.0	2.5	/experiments/knapen_AOT/AOT_stimuli/rescaled_final/0604_fw.mp4	0.0	264.25616812705994	0.10008001327514648
56	246.70331001281738	fix_pre	0		120	54.0	2.5	blank	1.0	264.3562481403351	1.000096082687378
56	246.8869218826294	pulse	0	t		54.0	2.5	blank	1.0	264.5398600101471	
56	247.70340609550476	movie	1		300	54.0	2.5	blank	1.0	265.35634422302246	2.5004208087921143
56	248.487135887146	pulse	1	t		54.0	2.5	blank	1.0	266.1400740146637	
56	250.08729100227356	pulse	1	t		54.0	2.5	blank	1.0	267.74022912979126	
56	250.20382690429688	fix_post	2		12	54.0	2.5	blank	1.0	267.8567650318146	0.1000211238861084
57	250.30384802818298	fix_pre	0		120	55.0	2.5	/experiments/knapen_AOT/AOT_stimuli/rescaled_final/0500_rv.mp4	0.0	267.9567861557007	1.0001020431518555
57	251.30395007133484	movie	1		242	55.0	2.5	/experiments/knapen_AOT/AOT_stimuli/rescaled_final/0500_rv.mp4	0.0	268.95688819885254	2.4920449256896973
57	251.6913869380951	pulse	1	t		55.0	2.5	/experiments/knapen_AOT/AOT_stimuli/rescaled_final/0500_rv.mp4	0.0	269.3443250656128	
57	253.28783798217773	pulse	1	t		55.0	2.5	/experiments/knapen_AOT/AOT_stimuli/rescaled_final/0500_rv.mp4	0.0	270.94077610969543	
57	253.79599499702454	fix_post	2		12	55.0	2.5	/experiments/knapen_AOT/AOT_stimuli/rescaled_final/0500_rv.mp4	0.0	271.44893312454224	0.10000491142272949
58	253.89599990844727	fix_pre	0		120	56.0	2.5	/experiments/knapen_AOT/AOT_stimuli/rescaled_final/1998_rv.mp4	0.0	271.54893803596497	1.0001630783081055
58	254.8880660533905	pulse	0	t		56.0	2.5	/experiments/knapen_AOT/AOT_stimuli/rescaled_final/1998_rv.mp4	0.0	272.5410041809082	
58	254.89616298675537	movie	1		243	56.0	2.5	/experiments/knapen_AOT/AOT_stimuli/rescaled_final/1998_rv.mp4	0.0	272.54910111427307	2.5088210105895996
58	256.4895839691162	pulse	1	t		56.0	2.5	/experiments/knapen_AOT/AOT_stimuli/rescaled_final/1998_rv.mp4	0.0	274.1425220966339	
58	257.40498399734497	fix_post	2		12	56.0	2.5	/experiments/knapen_AOT/AOT_stimuli/rescaled_final/1998_rv.mp4	0.0	275.05792212486267	0.09990692138671875
59	257.5048909187317	fix_pre	0		120	57.0	2.5	/experiments/knapen_AOT/AOT_stimuli/rescaled_final/0364_rv.mp4	0.0	275.1578290462494	1.0001189708709717
59	258.0885260105133	pulse	0	t		57.0	2.5	/experiments/knapen_AOT/AOT_stimuli/rescaled_final/0364_rv.mp4	0.0	275.741464138031	
59	258.50500988960266	movie	1		243	57.0	2.5	/experiments/knapen_AOT/AOT_stimuli/rescaled_final/0364_rv.mp4	0.0	276.15794801712036	2.5005171298980713
59	259.6887938976288	pulse	1	t		57.0	2.5	/experiments/knapen_AOT/AOT_stimuli/rescaled_final/0364_rv.mp4	0.0	277.3417320251465	
59	261.00552701950073	fix_post	2		12	57.0	2.5	/experiments/knapen_AOT/AOT_stimuli/rescaled_final/0364_rv.mp4	0.0	278.65846514701843	0.09990501403808594
60	261.1054320335388	fix_pre	0		120	58.0	2.5	/experiments/knapen_AOT/AOT_stimuli/rescaled_final/0968_rv.mp4	0.0	278.7583701610565	1.00010085105896
60	261.28900599479675	pulse	0	t		58.0	2.5	/experiments/knapen_AOT/AOT_stimuli/rescaled_final/0968_rv.mp4	0.0	278.94194412231445	
60	262.1055328845978	movie	1		242	58.0	2.5	/experiments/knapen_AOT/AOT_stimuli/rescaled_final/0968_rv.mp4	0.0	279.7584710121155	2.500581979751587
60	262.88921189308167	pulse	1	t		58.0	2.5	/experiments/knapen_AOT/AOT_stimuli/rescaled_final/0968_rv.mp4	0.0	280.54215002059937	
60	264.4894058704376	pulse	1	t		58.0	2.5	/experiments/knapen_AOT/AOT_stimuli/rescaled_final/0968_rv.mp4	0.0	282.1423439979553	
60	264.60611486434937	fix_post	2		12	58.0	2.5	/experiments/knapen_AOT/AOT_stimuli/rescaled_final/0968_rv.mp4	0.0	282.25905299186707	0.09987902641296387
61	264.70599389076233	fix_pre	0		120	59.0	2.5	/experiments/knapen_AOT/AOT_stimuli/rescaled_final/0360_fw.mp4	0.0	282.35893201828003	1.0001020431518555
61	265.7060959339142	movie	1		242	59.0	2.5	/experiments/knapen_AOT/AOT_stimuli/rescaled_final/0360_fw.mp4	0.0	283.3590340614319	2.4921669960021973
61	266.0905809402466	pulse	1	t		59.0	2.5	/experiments/knapen_AOT/AOT_stimuli/rescaled_final/0360_fw.mp4	0.0	283.7435190677643	
61	267.68998503685	pulse	1	t		59.0	2.5	/experiments/knapen_AOT/AOT_stimuli/rescaled_final/0360_fw.mp4	0.0	285.3429231643677	
61	268.1982629299164	fix_post	2		12	59.0	2.5	/experiments/knapen_AOT/AOT_stimuli/rescaled_final/0360_fw.mp4	0.0	285.8512010574341	0.09992313385009766
62	268.2981860637665	fix_pre	0		120	60.0	2.5	/experiments/knapen_AOT/AOT_stimuli/rescaled_final/2168_fw.mp4	0.0	285.9511241912842	1.0001518726348877
62	269.29013204574585	pulse	0	t		60.0	2.5	/experiments/knapen_AOT/AOT_stimuli/rescaled_final/2168_fw.mp4	0.0	286.94307017326355	
62	269.29833793640137	movie	1		244	60.0	2.5	/experiments/knapen_AOT/AOT_stimuli/rescaled_final/2168_fw.mp4	0.0	286.95127606391907	2.508777141571045
62	270.8908619880676	pulse	1	t		60.0	2.5	/experiments/knapen_AOT/AOT_stimuli/rescaled_final/2168_fw.mp4	0.0	288.5438001155853	
62	271.8071150779724	fix_post	2		12	60.0	2.5	/experiments/knapen_AOT/AOT_stimuli/rescaled_final/2168_fw.mp4	0.0	289.4600532054901	0.09990692138671875
63	271.90702199935913	fix_pre	0		120	61.0	2.5	/experiments/knapen_AOT/AOT_stimuli/rescaled_final/0231_rv.mp4	0.0	289.55996012687683	1.0001499652862549
63	272.49066495895386	pulse	0	t		61.0	2.5	/experiments/knapen_AOT/AOT_stimuli/rescaled_final/0231_rv.mp4	0.0	290.14360308647156	
63	272.9071719646454	movie	1		243	61.0	2.5	/experiments/knapen_AOT/AOT_stimuli/rescaled_final/0231_rv.mp4	0.0	290.5601100921631	2.500356912612915
63	274.0909700393677	pulse	1	t		61.0	2.5	/experiments/knapen_AOT/AOT_stimuli/rescaled_final/0231_rv.mp4	0.0	291.7439081668854	
63	275.4075288772583	fix_post	2		12	61.0	2.5	/experiments/knapen_AOT/AOT_stimuli/rescaled_final/0231_rv.mp4	0.0	293.060467004776	0.10001015663146973
64	275.50753903388977	fix_pre	0		120	62.0	2.5	/experiments/knapen_AOT/AOT_stimuli/rescaled_final/0780_fw.mp4	0.0	293.16047716140747	1.0002009868621826
64	275.69116592407227	pulse	0	t		62.0	2.5	/experiments/knapen_AOT/AOT_stimuli/rescaled_final/0780_fw.mp4	0.0	293.34410405158997	
64	276.50774002075195	movie	1		244	62.0	2.5	/experiments/knapen_AOT/AOT_stimuli/rescaled_final/0780_fw.mp4	0.0	294.16067814826965	2.5003459453582764
64	277.291405916214	pulse	1	t		62.0	2.5	/experiments/knapen_AOT/AOT_stimuli/rescaled_final/0780_fw.mp4	0.0	294.9443440437317	
64	278.8915710449219	pulse	1	t		62.0	2.5	/experiments/knapen_AOT/AOT_stimuli/rescaled_final/0780_fw.mp4	0.0	296.5445091724396	
64	279.00808596611023	fix_post	2		12	62.0	2.5	/experiments/knapen_AOT/AOT_stimuli/rescaled_final/0780_fw.mp4	0.0	296.66102409362793	0.10003805160522461
65	279.10812401771545	fix_pre	0		120	63.0	2.5	blank	1.0	296.76106214523315	1.000143051147461
65	280.1082670688629	movie	1		299	63.0	2.5	blank	1.0	297.7612051963806	2.492025852203369
65	280.49188804626465	pulse	1	t		63.0	2.5	blank	1.0	298.14482617378235	
65	282.084636926651	pulse	1	t		63.0	2.5	blank	1.0	299.7375750541687	
65	282.6002929210663	fix_post	2		12	63.0	2.5	blank	1.0	300.253231048584	0.10001707077026367
66	282.70030999183655	fix_pre	0		120	64.0	2.5	/experiments/knapen_AOT/AOT_stimuli/rescaled_final/1058_fw.mp4	0.0	300.35324811935425	1.0001959800720215
66	283.68482089042664	pulse	0	t		64.0	2.5	/experiments/knapen_AOT/AOT_stimuli/rescaled_final/1058_fw.mp4	0.0	301.33775901794434	
66	283.70050597190857	movie	1		241	64.0	2.5	/experiments/knapen_AOT/AOT_stimuli/rescaled_final/1058_fw.mp4	0.0	301.35344409942627	2.520616054534912
66	285.2940719127655	pulse	1	t		64.0	2.5	/experiments/knapen_AOT/AOT_stimuli/rescaled_final/1058_fw.mp4	0.0	302.9470100402832	
66	286.2211220264435	fix_post	2		11	64.0	2.5	/experiments/knapen_AOT/AOT_stimuli/rescaled_final/1058_fw.mp4	0.0	303.8740601539612	0.08805203437805176
67	286.30917406082153	fix_pre	0		120	65.0	2.5	/experiments/knapen_AOT/AOT_stimuli/rescaled_final/0684_rv.mp4	0.0	303.96211218833923	1.0002119541168213
67	286.8847088813782	pulse	0	t		65.0	2.5	/experiments/knapen_AOT/AOT_stimuli/rescaled_final/0684_rv.mp4	0.0	304.5376470088959	
67	287.30938601493835	movie	1		242	65.0	2.5	/experiments/knapen_AOT/AOT_stimuli/rescaled_final/0684_rv.mp4	0.0	304.96232414245605	2.500393867492676
67	288.4894518852234	pulse	1	t		65.0	2.5	/experiments/knapen_AOT/AOT_stimuli/rescaled_final/0684_rv.mp4	0.0	306.1423900127411	
67	289.80977988243103	fix_post	2		12	65.0	2.5	/experiments/knapen_AOT/AOT_stimuli/rescaled_final/0684_rv.mp4	0.0	307.46271800994873	0.09995508193969727
68	289.9097349643707	fix_pre	0		120	66.0	2.5	/experiments/knapen_AOT/AOT_stimuli/rescaled_final/0148_fw.mp4	0.0	307.5626730918884	1.0001370906829834
68	290.0848898887634	pulse	0	t		66.0	2.5	/experiments/knapen_AOT/AOT_stimuli/rescaled_final/0148_fw.mp4	0.0	307.7378280162811	
68	290.9098720550537	movie	1		243	66.0	2.5	/experiments/knapen_AOT/AOT_stimuli/rescaled_final/0148_fw.mp4	0.0	308.5628101825714	2.5005948543548584
68	291.6851270198822	pulse	1	t		66.0	2.5	/experiments/knapen_AOT/AOT_stimuli/rescaled_final/0148_fw.mp4	0.0	309.3380651473999	
68	293.2855169773102	pulse	1	t		66.0	2.5	/experiments/knapen_AOT/AOT_stimuli/rescaled_final/0148_fw.mp4	0.0	310.9384551048279	
68	293.41046690940857	fix_post	2		12	66.0	2.5	/experiments/knapen_AOT/AOT_stimuli/rescaled_final/0148_fw.mp4	0.0	311.06340503692627	0.09979510307312012
69	293.5102620124817	fix_pre	0		120	67.0	2.5	/experiments/knapen_AOT/AOT_stimuli/rescaled_final/1335_rv.mp4	0.0	311.1632001399994	1.0001718997955322
69	294.5104339122772	movie	1		242	67.0	2.5	/experiments/knapen_AOT/AOT_stimuli/rescaled_final/1335_rv.mp4	0.0	312.1633720397949	2.4920151233673096
69	294.8857378959656	pulse	1	t		67.0	2.5	/experiments/knapen_AOT/AOT_stimuli/rescaled_final/1335_rv.mp4	0.0	312.5386760234833	
69	296.4860019683838	pulse	1	t		67.0	2.5	/experiments/knapen_AOT/AOT_stimuli/rescaled_final/1335_rv.mp4	0.0	314.1389400959015	
69	297.00244903564453	fix_post	2		12	67.0	2.5	/experiments/knapen_AOT/AOT_stimuli/rescaled_final/1335_rv.mp4	0.0	314.65538716316223	0.10002589225769043
70	297.1024749279022	fix_pre	0		119	68.0	2.5	/experiments/knapen_AOT/AOT_stimuli/rescaled_final/1076_fw.mp4	0.0	314.7554130554199	0.991814136505127
70	298.08610486984253	pulse	0	t		68.0	2.5	/experiments/knapen_AOT/AOT_stimuli/rescaled_final/1076_fw.mp4	0.0	315.73904299736023	
70	298.09428906440735	movie	1		243	68.0	2.5	/experiments/knapen_AOT/AOT_stimuli/rescaled_final/1076_fw.mp4	0.0	315.74722719192505	2.5088038444519043
70	299.6870150566101	pulse	1	t		68.0	2.5	/experiments/knapen_AOT/AOT_stimuli/rescaled_final/1076_fw.mp4	0.0	317.3399531841278	
70	300.60309290885925	fix_post	2		12	68.0	2.5	/experiments/knapen_AOT/AOT_stimuli/rescaled_final/1076_fw.mp4	0.0	318.25603103637695	0.09989500045776367
71	300.702987909317	fix_pre	0		120	69.0	2.5	blank	1.0	318.3559260368347	1.0001420974731445
71	301.28672885894775	pulse	0	t		69.0	2.5	blank	1.0	318.93966698646545	
71	301.70313000679016	movie	1		300	69.0	2.5	blank	1.0	319.35606813430786	2.5004429817199707
71	302.88690996170044	pulse	1	t		69.0	2.5	blank	1.0	320.53984808921814	
71	304.20357298851013	fix_post	2		12	69.0	2.5	blank	1.0	321.85651111602783	0.09996891021728516
72	304.3035418987274	fix_pre	0		120	70.0	2.5	/experiments/knapen_AOT/AOT_stimuli/rescaled_final/0985_rv.mp4	0.0	321.9564800262451	1.000230073928833
72	304.4870879650116	pulse	0	t		70.0	2.5	/experiments/knapen_AOT/AOT_stimuli/rescaled_final/0985_rv.mp4	0.0	322.1400260925293	
72	305.30377197265625	movie	1		242	70.0	2.5	/experiments/knapen_AOT/AOT_stimuli/rescaled_final/0985_rv.mp4	0.0	322.95671010017395	2.492156982421875
72	306.0874230861664	pulse	1	t		70.0	2.5	/experiments/knapen_AOT/AOT_stimuli/rescaled_final/0985_rv.mp4	0.0	323.7403612136841	
72	307.6875009536743	pulse	1	t		70.0	2.5	/experiments/knapen_AOT/AOT_stimuli/rescaled_final/0985_rv.mp4	0.0	325.340439081192	
72	307.7959289550781	fix_post	2		13	70.0	2.5	/experiments/knapen_AOT/AOT_stimuli/rescaled_final/0985_rv.mp4	0.0	325.4488670825958	0.10811090469360352
73	307.90403985977173	fix_pre	0		119	71.0	2.5	/experiments/knapen_AOT/AOT_stimuli/rescaled_final/1921_rv.mp4	0.0	325.55697798728943	0.9918060302734375
73	308.89584589004517	movie	1		242	71.0	2.5	/experiments/knapen_AOT/AOT_stimuli/rescaled_final/1921_rv.mp4	0.0	326.54878401756287	2.5006210803985596
73	309.28787207603455	pulse	1	t		71.0	2.5	/experiments/knapen_AOT/AOT_stimuli/rescaled_final/1921_rv.mp4	0.0	326.94081020355225	
73	310.888060092926	pulse	1	t		71.0	2.5	/experiments/knapen_AOT/AOT_stimuli/rescaled_final/1921_rv.mp4	0.0	328.5409982204437	
73	311.3964669704437	fix_post	2		12	71.0	2.5	/experiments/knapen_AOT/AOT_stimuli/rescaled_final/1921_rv.mp4	0.0	329.0494050979614	0.09977602958679199
74	311.4962430000305	fix_pre	0		120	72.0	2.5	/experiments/knapen_AOT/AOT_stimuli/rescaled_final/0991_fw.mp4	0.0	329.1491811275482	1.000216007232666
74	312.488303899765	pulse	0	t		72.0	2.5	/experiments/knapen_AOT/AOT_stimuli/rescaled_final/0991_fw.mp4	0.0	330.1412420272827	
74	312.4964590072632	movie	1		243	72.0	2.5	/experiments/knapen_AOT/AOT_stimuli/rescaled_final/0991_fw.mp4	0.0	330.1493971347809	2.508759021759033
74	314.08992195129395	pulse	1	t		72.0	2.5	/experiments/knapen_AOT/AOT_stimuli/rescaled_final/0991_fw.mp4	0.0	331.74286007881165	
74	315.0052180290222	fix_post	2		12	72.0	2.5	/experiments/knapen_AOT/AOT_stimuli/rescaled_final/0991_fw.mp4	0.0	332.6581561565399	0.0999288558959961
75	315.1051468849182	fix_pre	0		120	73.0	2.5	/experiments/knapen_AOT/AOT_stimuli/rescaled_final/1599_fw.mp4	0.0	332.7580850124359	1.0001280307769775
75	315.6888930797577	pulse	0	t		73.0	2.5	/experiments/knapen_AOT/AOT_stimuli/rescaled_final/1599_fw.mp4	0.0	333.3418312072754	
75	316.1052749156952	movie	1		242	73.0	2.5	/experiments/knapen_AOT/AOT_stimuli/rescaled_final/1599_fw.mp4	0.0	333.7582130432129	2.500648021697998
75	317.28915190696716	pulse	1	t		73.0	2.5	/experiments/knapen_AOT/AOT_stimuli/rescaled_final/1599_fw.mp4	0.0	334.94209003448486	
75	318.6059229373932	fix_post	2		12	73.0	2.5	/experiments/knapen_AOT/AOT_stimuli/rescaled_final/1599_fw.mp4	0.0	336.2588610649109	0.09977602958679199
76	318.70569896698	fix_pre	0		120	74.0	2.5	/experiments/knapen_AOT/AOT_stimuli/rescaled_final/1726_rv.mp4	0.0	336.3586370944977	1.000143051147461
76	318.88923597335815	pulse	0	t		74.0	2.5	/experiments/knapen_AOT/AOT_stimuli/rescaled_final/1726_rv.mp4	0.0	336.54217410087585	
76	319.70584201812744	movie	1		242	74.0	2.5	/experiments/knapen_AOT/AOT_stimuli/rescaled_final/1726_rv.mp4	0.0	337.35878014564514	2.500560998916626
76	320.4895339012146	pulse	1	t		74.0	2.5	/experiments/knapen_AOT/AOT_stimuli/rescaled_final/1726_rv.mp4	0.0	338.1424720287323	
76	322.0895779132843	pulse	1	t		74.0	2.5	/experiments/knapen_AOT/AOT_stimuli/rescaled_final/1726_rv.mp4	0.0	339.742516040802	
76	322.20640301704407	fix_post	2		12	74.0	2.5	/experiments/knapen_AOT/AOT_stimuli/rescaled_final/1726_rv.mp4	0.0	339.85934114456177	0.09978199005126953
77	322.30618500709534	fix_pre	0		120	75.0	2.5	/experiments/knapen_AOT/AOT_stimuli/rescaled_final/0991_rv.mp4	0.0	339.95912313461304	1.000204086303711
77	323.30638909339905	movie	1		241	75.0	2.5	/experiments/knapen_AOT/AOT_stimuli/rescaled_final/0991_rv.mp4	0.0	340.95932722091675	2.4920737743377686
77	323.69057393074036	pulse	1	t		75.0	2.5	/experiments/knapen_AOT/AOT_stimuli/rescaled_final/0991_rv.mp4	0.0	341.34351205825806	
77	325.2901499271393	pulse	1	t		75.0	2.5	/experiments/knapen_AOT/AOT_stimuli/rescaled_final/0991_rv.mp4	0.0	342.943088054657	
77	325.7984628677368	fix_post	2		12	75.0	2.5	/experiments/knapen_AOT/AOT_stimuli/rescaled_final/0991_rv.mp4	0.0	343.4514009952545	0.09993100166320801
78	325.8983938694	fix_pre	0		120	76.0	2.5	/experiments/knapen_AOT/AOT_stimuli/rescaled_final/1128_fw.mp4	0.0	343.5513319969177	1.000190019607544
78	326.89048290252686	pulse	0	t		76.0	2.5	/experiments/knapen_AOT/AOT_stimuli/rescaled_final/1128_fw.mp4	0.0	344.54342103004456	
78	326.89858388900757	movie	1		244	76.0	2.5	/experiments/knapen_AOT/AOT_stimuli/rescaled_final/1128_fw.mp4	0.0	344.55152201652527	2.5087380409240723
78	328.49122500419617	pulse	1	t		76.0	2.5	/experiments/knapen_AOT/AOT_stimuli/rescaled_final/1128_fw.mp4	0.0	346.14416313171387	
78	329.40732192993164	fix_post	2		12	76.0	2.5	/experiments/knapen_AOT/AOT_stimuli/rescaled_final/1128_fw.mp4	0.0	347.06026005744934	0.09997200965881348
79	329.50729393959045	fix_pre	0		120	77.0	2.5	blank	1.0	347.16023206710815	1.0002751350402832
79	330.09105801582336	pulse	0	t		77.0	2.5	blank	1.0	347.74399614334106	
79	330.50756907463074	movie	1		300	77.0	2.5	blank	1.0	348.16050720214844	2.500239849090576
79	331.6911070346832	pulse	1	t		77.0	2.5	blank	1.0	349.3440451622009	
79	333.0078089237213	fix_post	2		12	77.0	2.5	blank	1.0	350.660747051239	0.10005903244018555
80	333.1078679561615	fix_pre	0		120	78.0	2.5	/experiments/knapen_AOT/AOT_stimuli/rescaled_final/2168_fw.mp4	0.0	350.7608060836792	1.0001299381256104
80	333.29134702682495	pulse	0	t		78.0	2.5	/experiments/knapen_AOT/AOT_stimuli/rescaled_final/2168_fw.mp4	0.0	350.94428515434265	
80	334.1079978942871	movie	1		243	78.0	2.5	/experiments/knapen_AOT/AOT_stimuli/rescaled_final/2168_fw.mp4	0.0	351.7609360218048	2.50040602684021
80	334.89164090156555	pulse	1	t		78.0	2.5	/experiments/knapen_AOT/AOT_stimuli/rescaled_final/2168_fw.mp4	0.0	352.54457902908325	
80	336.4920599460602	pulse	1	t		78.0	2.5	/experiments/knapen_AOT/AOT_stimuli/rescaled_final/2168_fw.mp4	0.0	354.1449980735779	
80	336.6084039211273	fix_post	2		12	78.0	2.5	/experiments/knapen_AOT/AOT_stimuli/rescaled_final/2168_fw.mp4	0.0	354.261342048645	0.09995412826538086
81	336.7083580493927	fix_pre	0		120	79.0	2.5	/experiments/knapen_AOT/AOT_stimuli/rescaled_final/2161_fw.mp4	0.0	354.3612961769104	1.000187873840332
81	337.70854592323303	movie	1		242	79.0	2.5	/experiments/knapen_AOT/AOT_stimuli/rescaled_final/2161_fw.mp4	0.0	355.36148405075073	2.492011070251465
81	338.09276604652405	pulse	1	t		79.0	2.5	/experiments/knapen_AOT/AOT_stimuli/rescaled_final/2161_fw.mp4	0.0	355.74570417404175	
81	339.68510603904724	pulse	1	t		79.0	2.5	/experiments/knapen_AOT/AOT_stimuli/rescaled_final/2161_fw.mp4	0.0	357.33804416656494	
81	340.2005569934845	fix_post	2		12	79.0	2.5	/experiments/knapen_AOT/AOT_stimuli/rescaled_final/2161_fw.mp4	0.0	357.8534951210022	0.10004901885986328
82	340.30060601234436	fix_pre	0		120	80.0	2.5	/experiments/knapen_AOT/AOT_stimuli/rescaled_final/0054_rv.mp4	0.0	357.95354413986206	1.0001540184020996
82	341.292622089386	pulse	0	t		80.0	2.5	/experiments/knapen_AOT/AOT_stimuli/rescaled_final/0054_rv.mp4	0.0	358.9455602169037	
82	341.30076003074646	movie	1		244	80.0	2.5	/experiments/knapen_AOT/AOT_stimuli/rescaled_final/0054_rv.mp4	0.0	358.95369815826416	2.5087480545043945
82	342.89343905448914	pulse	1	t		80.0	2.5	/experiments/knapen_AOT/AOT_stimuli/rescaled_final/0054_rv.mp4	0.0	360.54637718200684	
82	343.80950808525085	fix_post	2		12	80.0	2.5	/experiments/knapen_AOT/AOT_stimuli/rescaled_final/0054_rv.mp4	0.0	361.46244621276855	0.09992384910583496
83	343.9094319343567	fix_pre	0		120	81.0	2.5	/experiments/knapen_AOT/AOT_stimuli/rescaled_final/1389_rv.mp4	0.0	361.5623700618744	1.0001280307769775
83	344.48547887802124	pulse	0	t		81.0	2.5	/experiments/knapen_AOT/AOT_stimuli/rescaled_final/1389_rv.mp4	0.0	362.13841700553894	
83	344.90955996513367	movie	1		243	81.0	2.5	/experiments/knapen_AOT/AOT_stimuli/rescaled_final/1389_rv.mp4	0.0	362.56249809265137	2.5004029273986816
83	346.0855529308319	pulse	1	t		81.0	2.5	/experiments/knapen_AOT/AOT_stimuli/rescaled_final/1389_rv.mp4	0.0	363.7384910583496	
83	347.40996289253235	fix_post	2		12	81.0	2.5	/experiments/knapen_AOT/AOT_stimuli/rescaled_final/1389_rv.mp4	0.0	365.06290102005005	0.09998106956481934
84	347.50994396209717	fix_pre	0		120	82.0	2.5	/experiments/knapen_AOT/AOT_stimuli/rescaled_final/0713_rv.mp4	0.0	365.16288208961487	1.0001630783081055
84	347.6859290599823	pulse	0	t		82.0	2.5	/experiments/knapen_AOT/AOT_stimuli/rescaled_final/0713_rv.mp4	0.0	365.3388671875	
84	348.5101070404053	movie	1		240	82.0	2.5	/experiments/knapen_AOT/AOT_stimuli/rescaled_final/0713_rv.mp4	0.0	366.163045167923	2.5003678798675537
84	349.28545594215393	pulse	1	t		82.0	2.5	/experiments/knapen_AOT/AOT_stimuli/rescaled_final/0713_rv.mp4	0.0	366.93839406967163	
84	350.88563895225525	pulse	1	t		82.0	2.5	/experiments/knapen_AOT/AOT_stimuli/rescaled_final/0713_rv.mp4	0.0	368.53857707977295	
84	351.0104749202728	fix_post	2		12	82.0	2.5	/experiments/knapen_AOT/AOT_stimuli/rescaled_final/0713_rv.mp4	0.0	368.6634130477905	0.10009312629699707
85	351.1105680465698	fix_pre	0		120	83.0	2.5	blank	1.0	368.7635061740875	1.000074863433838
85	352.11064291000366	movie	1		299	83.0	2.5	blank	1.0	369.76358103752136	2.4920830726623535
85	352.48592495918274	pulse	1	t		83.0	2.5	blank	1.0	370.13886308670044	
85	354.0861210823059	pulse	1	t		83.0	2.5	blank	1.0	371.7390592098236	
85	354.602725982666	fix_post	2		12	83.0	2.5	blank	1.0	372.2556641101837	0.09998488426208496
87	354.7027108669281	stim	0		1716					372.3556489944458	14.302202224731445
87	355.68646597862244	pulse	0	t						373.33940410614014	
87	357.2865979671478	pulse	0	t						374.9395360946655	
87	358.88679003715515	pulse	0	t						376.53972816467285	
87	360.48711705207825	pulse	0	t						378.14005517959595	
87	362.08727502822876	pulse	0	t						379.74021315574646	
87	363.68759298324585	pulse	0	t						381.34053111076355	
87	365.28775000572205	pulse	0	t						382.94068813323975	
87	366.88807487487793	pulse	0	t						384.54101300239563	
87	368.4883050918579	pulse	0	t						386.1412432193756	
