trial_nr	onset	event_type	phase	response	nr_frames	movie_index	movie_duration	movie_file	blank	onset_abs	duration
0	0.17508983612060547	stim	0		1					23.41874670982361	0.01650261878967285
0	0.1504991054534912	response	0	space						23.394155979156494	
1	0.19159245491027832	stim	0		4630					23.43524932861328	38.59953331947327
1	38.78096556663513	pulse	0	t						62.024622440338135	
1	38.791125774383545	stim	1		1715					62.03478264808655	14.299987077713013
1	40.3727753162384	pulse	1	t						63.616432189941406	
1	41.9730019569397	pulse	1	t						65.2166588306427	
1	43.573246002197266	pulse	1	t						66.81690287590027	
1	45.17343020439148	pulse	1	t						68.41708707809448	
1	46.77374625205994	pulse	1	t						70.01740312576294	
1	48.373913049697876	pulse	1	t						71.61756992340088	
1	49.97416162490845	pulse	1	t						73.21781849861145	
1	51.57437515258789	pulse	1	t						74.8180320262909	
2	53.09111285209656	fix_pre	0		11	0.0	2.5	/experiments/knapen_AOT/AOT_stimuli/rescaled_final/0515_fw.mp4	0.0	76.33476972579956	0.11678338050842285
2	53.174715995788574	pulse	0	t		0.0	2.5	/experiments/knapen_AOT/AOT_stimuli/rescaled_final/0515_fw.mp4	0.0	76.41837286949158	
2	53.20789623260498	movie	1		275	0.0	2.5	/experiments/knapen_AOT/AOT_stimuli/rescaled_final/0515_fw.mp4	0.0	76.45155310630798	2.4836113452911377
2	54.774959325790405	pulse	1	t		0.0	2.5	/experiments/knapen_AOT/AOT_stimuli/rescaled_final/0515_fw.mp4	0.0	78.01861619949341	
2	55.69150757789612	fix_post	2		12	0.0	2.5	/experiments/knapen_AOT/AOT_stimuli/rescaled_final/0515_fw.mp4	0.0	78.93516445159912	0.10009908676147461
3	55.79160666465759	fix_pre	0		120	1.0	2.5	/experiments/knapen_AOT/AOT_stimuli/rescaled_final/0880_fw.mp4	0.0	79.0352635383606	1.0084049701690674
3	56.37514853477478	pulse	0	t		1.0	2.5	/experiments/knapen_AOT/AOT_stimuli/rescaled_final/0880_fw.mp4	0.0	79.61880540847778	
3	56.80001163482666	movie	1		290	1.0	2.5	/experiments/knapen_AOT/AOT_stimuli/rescaled_final/0880_fw.mp4	0.0	80.04366850852966	2.4920878410339355
3	57.97348690032959	pulse	1	t		1.0	2.5	/experiments/knapen_AOT/AOT_stimuli/rescaled_final/0880_fw.mp4	0.0	81.21714377403259	
3	59.292099475860596	fix_post	2		12	1.0	2.5	/experiments/knapen_AOT/AOT_stimuli/rescaled_final/0880_fw.mp4	0.0	82.5357563495636	0.10015869140625
4	59.392258167266846	fix_pre	0		120	2.0	2.5	/experiments/knapen_AOT/AOT_stimuli/rescaled_final/0510_rv.mp4	0.0	82.63591504096985	1.0082926750183105
4	59.575693130493164	pulse	0	t		2.0	2.5	/experiments/knapen_AOT/AOT_stimuli/rescaled_final/0510_rv.mp4	0.0	82.81935000419617	
4	60.400550842285156	movie	1		266	2.0	2.5	/experiments/knapen_AOT/AOT_stimuli/rescaled_final/0510_rv.mp4	0.0	83.64420771598816	2.4920291900634766
4	61.17351722717285	pulse	1	t		2.0	2.5	/experiments/knapen_AOT/AOT_stimuli/rescaled_final/0510_rv.mp4	0.0	84.41717410087585	
4	62.773898124694824	pulse	1	t		2.0	2.5	/experiments/knapen_AOT/AOT_stimuli/rescaled_final/0510_rv.mp4	0.0	86.01755499839783	
4	62.89258003234863	fix_post	2		12	2.0	2.5	/experiments/knapen_AOT/AOT_stimuli/rescaled_final/0510_rv.mp4	0.0	86.13623690605164	0.10001564025878906
5	62.99259567260742	fix_pre	0		120	3.0	2.5	/experiments/knapen_AOT/AOT_stimuli/rescaled_final/1839_fw.mp4	0.0	86.23625254631042	1.0084803104400635
5	64.00107598304749	movie	1		281	3.0	2.5	/experiments/knapen_AOT/AOT_stimuli/rescaled_final/1839_fw.mp4	0.0	87.24473285675049	2.4921059608459473
5	64.37439346313477	pulse	1	t		3.0	2.5	/experiments/knapen_AOT/AOT_stimuli/rescaled_final/1839_fw.mp4	0.0	87.61805033683777	
5	65.97450256347656	pulse	1	t		3.0	2.5	/experiments/knapen_AOT/AOT_stimuli/rescaled_final/1839_fw.mp4	0.0	89.21815943717957	
5	66.49318194389343	fix_post	2		12	3.0	2.5	/experiments/knapen_AOT/AOT_stimuli/rescaled_final/1839_fw.mp4	0.0	89.73683881759644	0.09998559951782227
6	66.59316754341125	fix_pre	0		119	4.0	2.5	/experiments/knapen_AOT/AOT_stimuli/rescaled_final/0245_rv.mp4	0.0	89.83682441711426	1.0001423358917236
6	67.57702660560608	pulse	0	t		4.0	2.5	/experiments/knapen_AOT/AOT_stimuli/rescaled_final/0245_rv.mp4	0.0	90.82068347930908	
6	67.59330987930298	movie	1		274	4.0	2.5	/experiments/knapen_AOT/AOT_stimuli/rescaled_final/0245_rv.mp4	0.0	90.83696675300598	2.5003507137298584
6	69.17569255828857	pulse	1	t		4.0	2.5	/experiments/knapen_AOT/AOT_stimuli/rescaled_final/0245_rv.mp4	0.0	92.41934943199158	
6	70.09366059303284	fix_post	2		12	4.0	2.5	/experiments/knapen_AOT/AOT_stimuli/rescaled_final/0245_rv.mp4	0.0	93.33731746673584	0.10002493858337402
7	70.19368553161621	fix_pre	0		120	5.0	2.5	blank	1.0	93.43734240531921	1.000138759613037
7	70.77730822563171	pulse	0	t		5.0	2.5	blank	1.0	94.02096509933472	
7	71.19382429122925	movie	1		300	5.0	2.5	blank	1.0	94.43748116493225	2.5004875659942627
7	72.37762308120728	pulse	1	t		5.0	2.5	blank	1.0	95.62127995491028	
7	73.69431185722351	fix_post	2		12	5.0	2.5	blank	1.0	96.93796873092651	0.09992289543151855
8	73.79423475265503	fix_pre	0		120	6.0	2.5	/experiments/knapen_AOT/AOT_stimuli/rescaled_final/2038_rv.mp4	0.0	97.03789162635803	1.0085053443908691
8	73.97791409492493	pulse	0	t		6.0	2.5	/experiments/knapen_AOT/AOT_stimuli/rescaled_final/2038_rv.mp4	0.0	97.22157096862793	
8	74.8027400970459	movie	1		273	6.0	2.5	/experiments/knapen_AOT/AOT_stimuli/rescaled_final/2038_rv.mp4	0.0	98.0463969707489	2.4920108318328857
8	75.57733416557312	pulse	1	t		6.0	2.5	/experiments/knapen_AOT/AOT_stimuli/rescaled_final/2038_rv.mp4	0.0	98.82099103927612	
8	77.17628240585327	pulse	1	t		6.0	2.5	/experiments/knapen_AOT/AOT_stimuli/rescaled_final/2038_rv.mp4	0.0	100.41993927955627	
8	77.29475092887878	fix_post	2		12	6.0	2.5	/experiments/knapen_AOT/AOT_stimuli/rescaled_final/2038_rv.mp4	0.0	100.53840780258179	0.10001420974731445
9	77.3947651386261	fix_pre	0		120	7.0	2.5	/experiments/knapen_AOT/AOT_stimuli/rescaled_final/1227_fw.mp4	0.0	100.6384220123291	1.0085065364837646
9	78.40327167510986	movie	1		275	7.0	2.5	/experiments/knapen_AOT/AOT_stimuli/rescaled_final/1227_fw.mp4	0.0	101.64692854881287	2.4920125007629395
9	78.77689170837402	pulse	1	t		7.0	2.5	/experiments/knapen_AOT/AOT_stimuli/rescaled_final/1227_fw.mp4	0.0	102.02054858207703	
9	80.37722826004028	pulse	1	t		7.0	2.5	/experiments/knapen_AOT/AOT_stimuli/rescaled_final/1227_fw.mp4	0.0	103.62088513374329	
9	80.8952841758728	fix_post	2		12	7.0	2.5	/experiments/knapen_AOT/AOT_stimuli/rescaled_final/1227_fw.mp4	0.0	104.1389410495758	0.10019111633300781
10	80.99547529220581	fix_pre	0		118	8.0	2.5	/experiments/knapen_AOT/AOT_stimuli/rescaled_final/0823_rv.mp4	0.0	104.23913216590881	0.9916369915008545
10	81.97093391418457	pulse	0	t		8.0	2.5	/experiments/knapen_AOT/AOT_stimuli/rescaled_final/0823_rv.mp4	0.0	105.21459078788757	
10	81.98711228370667	movie	1		278	8.0	2.5	/experiments/knapen_AOT/AOT_stimuli/rescaled_final/0823_rv.mp4	0.0	105.23076915740967	2.500392436981201
10	83.57117342948914	pulse	1	t		8.0	2.5	/experiments/knapen_AOT/AOT_stimuli/rescaled_final/0823_rv.mp4	0.0	106.81483030319214	
10	84.48750472068787	fix_post	2		12	8.0	2.5	/experiments/knapen_AOT/AOT_stimuli/rescaled_final/0823_rv.mp4	0.0	107.73116159439087	0.1000983715057373
11	84.5876030921936	fix_pre	0		120	9.0	2.5	/experiments/knapen_AOT/AOT_stimuli/rescaled_final/1765_rv.mp4	0.0	107.8312599658966	1.0084455013275146
11	85.17128372192383	pulse	0	t		9.0	2.5	/experiments/knapen_AOT/AOT_stimuli/rescaled_final/1765_rv.mp4	0.0	108.41494059562683	
11	85.59604859352112	movie	1		285	9.0	2.5	/experiments/knapen_AOT/AOT_stimuli/rescaled_final/1765_rv.mp4	0.0	108.83970546722412	2.4919984340667725
11	86.77139258384705	pulse	1	t		9.0	2.5	/experiments/knapen_AOT/AOT_stimuli/rescaled_final/1765_rv.mp4	0.0	110.01504945755005	
11	88.08804702758789	fix_post	2		12	9.0	2.5	/experiments/knapen_AOT/AOT_stimuli/rescaled_final/1765_rv.mp4	0.0	111.3317039012909	0.10001277923583984
12	88.18805980682373	fix_pre	0		120	10.0	2.5	/experiments/knapen_AOT/AOT_stimuli/rescaled_final/2135_rv.mp4	0.0	111.43171668052673	1.0084819793701172
12	88.37163758277893	pulse	0	t		10.0	2.5	/experiments/knapen_AOT/AOT_stimuli/rescaled_final/2135_rv.mp4	0.0	111.61529445648193	
12	89.19654178619385	movie	1		265	10.0	2.5	/experiments/knapen_AOT/AOT_stimuli/rescaled_final/2135_rv.mp4	0.0	112.44019865989685	2.4920589923858643
12	89.9720389842987	pulse	1	t		10.0	2.5	/experiments/knapen_AOT/AOT_stimuli/rescaled_final/2135_rv.mp4	0.0	113.21569585800171	
12	91.57005643844604	pulse	1	t		10.0	2.5	/experiments/knapen_AOT/AOT_stimuli/rescaled_final/2135_rv.mp4	0.0	114.81371331214905	
12	91.68860077857971	fix_post	2		12	10.0	2.5	/experiments/knapen_AOT/AOT_stimuli/rescaled_final/2135_rv.mp4	0.0	114.93225765228271	0.09997773170471191
13	91.78857851028442	fix_pre	0		120	11.0	2.5	/experiments/knapen_AOT/AOT_stimuli/rescaled_final/1803_fw.mp4	0.0	115.03223538398743	1.0085358619689941
13	92.79711437225342	movie	1		272	11.0	2.5	/experiments/knapen_AOT/AOT_stimuli/rescaled_final/1803_fw.mp4	0.0	116.04077124595642	2.492018222808838
13	93.17085695266724	pulse	1	t		11.0	2.5	/experiments/knapen_AOT/AOT_stimuli/rescaled_final/1803_fw.mp4	0.0	116.41451382637024	
13	94.77025294303894	pulse	1	t		11.0	2.5	/experiments/knapen_AOT/AOT_stimuli/rescaled_final/1803_fw.mp4	0.0	118.01390981674194	
13	95.28913259506226	fix_post	2		12	11.0	2.5	/experiments/knapen_AOT/AOT_stimuli/rescaled_final/1803_fw.mp4	0.0	118.53278946876526	0.10000443458557129
14	95.38913702964783	fix_pre	0		119	12.0	2.5	/experiments/knapen_AOT/AOT_stimuli/rescaled_final/0900_fw.mp4	0.0	118.63279390335083	1.0001304149627686
14	96.37277126312256	pulse	0	t		12.0	2.5	/experiments/knapen_AOT/AOT_stimuli/rescaled_final/0900_fw.mp4	0.0	119.61642813682556	
14	96.3892674446106	movie	1		279	12.0	2.5	/experiments/knapen_AOT/AOT_stimuli/rescaled_final/0900_fw.mp4	0.0	119.6329243183136	2.5004079341888428
14	97.9716067314148	pulse	1	t		12.0	2.5	/experiments/knapen_AOT/AOT_stimuli/rescaled_final/0900_fw.mp4	0.0	121.2152636051178	
14	98.88967537879944	fix_post	2		12	12.0	2.5	/experiments/knapen_AOT/AOT_stimuli/rescaled_final/0900_fw.mp4	0.0	122.13333225250244	0.09999847412109375
15	98.98967385292053	fix_pre	0		120	13.0	2.5	/experiments/knapen_AOT/AOT_stimuli/rescaled_final/0245_rv.mp4	0.0	122.23333072662354	1.0084788799285889
15	99.57326149940491	pulse	0	t		13.0	2.5	/experiments/knapen_AOT/AOT_stimuli/rescaled_final/0245_rv.mp4	0.0	122.81691837310791	
15	99.99815273284912	movie	1		274	13.0	2.5	/experiments/knapen_AOT/AOT_stimuli/rescaled_final/0245_rv.mp4	0.0	123.24180960655212	2.492041826248169
15	101.17298722267151	pulse	1	t		13.0	2.5	/experiments/knapen_AOT/AOT_stimuli/rescaled_final/0245_rv.mp4	0.0	124.41664409637451	
15	102.49019455909729	fix_post	2		12	13.0	2.5	/experiments/knapen_AOT/AOT_stimuli/rescaled_final/0245_rv.mp4	0.0	125.7338514328003	0.10002660751342773
16	102.59022116661072	fix_pre	0		120	14.0	2.5	blank	1.0	125.83387804031372	1.0001389980316162
16	102.77389812469482	pulse	0	t		14.0	2.5	blank	1.0	126.01755499839783	
16	103.59036016464233	movie	1		300	14.0	2.5	blank	1.0	126.83401703834534	2.500411033630371
16	104.37408804893494	pulse	1	t		14.0	2.5	blank	1.0	127.61774492263794	
16	105.9744200706482	pulse	1	t		14.0	2.5	blank	1.0	129.2180769443512	
16	106.0907711982727	fix_post	2		12	14.0	2.5	blank	1.0	129.3344280719757	0.0999903678894043
17	106.19076156616211	fix_pre	0		120	15.0	2.5	/experiments/knapen_AOT/AOT_stimuli/rescaled_final/1242_rv.mp4	0.0	129.4344184398651	1.008467435836792
17	107.1992290019989	movie	1		275	15.0	2.5	/experiments/knapen_AOT/AOT_stimuli/rescaled_final/1242_rv.mp4	0.0	130.4428858757019	2.4920592308044434
17	107.57276177406311	pulse	1	t		15.0	2.5	/experiments/knapen_AOT/AOT_stimuli/rescaled_final/1242_rv.mp4	0.0	130.8164186477661	
17	109.17263746261597	pulse	1	t		15.0	2.5	/experiments/knapen_AOT/AOT_stimuli/rescaled_final/1242_rv.mp4	0.0	132.41629433631897	
17	109.69128823280334	fix_post	2		12	15.0	2.5	/experiments/knapen_AOT/AOT_stimuli/rescaled_final/1242_rv.mp4	0.0	132.93494510650635	0.10004138946533203
18	109.79132962226868	fix_pre	0		119	16.0	2.5	/experiments/knapen_AOT/AOT_stimuli/rescaled_final/0330_fw.mp4	0.0	133.03498649597168	1.000178575515747
18	110.77502965927124	pulse	0	t		16.0	2.5	/experiments/knapen_AOT/AOT_stimuli/rescaled_final/0330_fw.mp4	0.0	134.01868653297424	
18	110.79150819778442	movie	1		281	16.0	2.5	/experiments/knapen_AOT/AOT_stimuli/rescaled_final/0330_fw.mp4	0.0	134.03516507148743	2.5086498260498047
18	112.37462592124939	pulse	1	t		16.0	2.5	/experiments/knapen_AOT/AOT_stimuli/rescaled_final/0330_fw.mp4	0.0	135.6182827949524	
18	113.30015802383423	fix_post	2		11	16.0	2.5	/experiments/knapen_AOT/AOT_stimuli/rescaled_final/0330_fw.mp4	0.0	136.54381489753723	0.09172511100769043
19	113.39188313484192	fix_pre	0		120	17.0	2.5	/experiments/knapen_AOT/AOT_stimuli/rescaled_final/1612_fw.mp4	0.0	136.63554000854492	1.0084466934204102
19	113.97548246383667	pulse	0	t		17.0	2.5	/experiments/knapen_AOT/AOT_stimuli/rescaled_final/1612_fw.mp4	0.0	137.21913933753967	
19	114.40032982826233	movie	1		277	17.0	2.5	/experiments/knapen_AOT/AOT_stimuli/rescaled_final/1612_fw.mp4	0.0	137.64398670196533	2.492046356201172
19	115.57388067245483	pulse	1	t		17.0	2.5	/experiments/knapen_AOT/AOT_stimuli/rescaled_final/1612_fw.mp4	0.0	138.81753754615784	
19	116.8923761844635	fix_post	2		12	17.0	2.5	/experiments/knapen_AOT/AOT_stimuli/rescaled_final/1612_fw.mp4	0.0	140.1360330581665	0.10015726089477539
20	116.99253344535828	fix_pre	0		120	18.0	2.5	/experiments/knapen_AOT/AOT_stimuli/rescaled_final/1328_fw.mp4	0.0	140.23619031906128	1.0083801746368408
20	117.17619013786316	pulse	0	t		18.0	2.5	/experiments/knapen_AOT/AOT_stimuli/rescaled_final/1328_fw.mp4	0.0	140.41984701156616	
20	118.00091361999512	movie	1		275	18.0	2.5	/experiments/knapen_AOT/AOT_stimuli/rescaled_final/1328_fw.mp4	0.0	141.24457049369812	2.492025136947632
20	118.77633023262024	pulse	1	t		18.0	2.5	/experiments/knapen_AOT/AOT_stimuli/rescaled_final/1328_fw.mp4	0.0	142.01998710632324	
20	120.37441492080688	pulse	1	t		18.0	2.5	/experiments/knapen_AOT/AOT_stimuli/rescaled_final/1328_fw.mp4	0.0	143.6180717945099	
20	120.49293875694275	fix_post	2		12	18.0	2.5	/experiments/knapen_AOT/AOT_stimuli/rescaled_final/1328_fw.mp4	0.0	143.73659563064575	0.09998798370361328
21	120.59292674064636	fix_pre	0		120	19.0	2.5	/experiments/knapen_AOT/AOT_stimuli/rescaled_final/1513_rv.mp4	0.0	143.83658361434937	1.0085597038269043
21	121.60148644447327	movie	1		268	19.0	2.5	/experiments/knapen_AOT/AOT_stimuli/rescaled_final/1513_rv.mp4	0.0	144.84514331817627	2.4919607639312744
21	121.97788405418396	pulse	1	t		19.0	2.5	/experiments/knapen_AOT/AOT_stimuli/rescaled_final/1513_rv.mp4	0.0	145.22154092788696	
21	123.57474064826965	pulse	1	t		19.0	2.5	/experiments/knapen_AOT/AOT_stimuli/rescaled_final/1513_rv.mp4	0.0	146.81839752197266	
21	124.09344720840454	fix_post	2		12	19.0	2.5	/experiments/knapen_AOT/AOT_stimuli/rescaled_final/1513_rv.mp4	0.0	147.33710408210754	0.10005974769592285
22	124.19350695610046	fix_pre	0		119	20.0	2.5	/experiments/knapen_AOT/AOT_stimuli/rescaled_final/0823_rv.mp4	0.0	147.43716382980347	1.000108242034912
22	125.17716002464294	pulse	0	t		20.0	2.5	/experiments/knapen_AOT/AOT_stimuli/rescaled_final/0823_rv.mp4	0.0	148.42081689834595	
22	125.19361519813538	movie	1		280	20.0	2.5	/experiments/knapen_AOT/AOT_stimuli/rescaled_final/0823_rv.mp4	0.0	148.43727207183838	2.500398874282837
22	126.77668046951294	pulse	1	t		20.0	2.5	/experiments/knapen_AOT/AOT_stimuli/rescaled_final/0823_rv.mp4	0.0	150.02033734321594	
22	127.69401407241821	fix_post	2		12	20.0	2.5	/experiments/knapen_AOT/AOT_stimuli/rescaled_final/0823_rv.mp4	0.0	150.93767094612122	0.09999704360961914
23	127.79401111602783	fix_pre	0		120	21.0	2.5	blank	1.0	151.03766798973083	1.0001654624938965
23	128.37766432762146	pulse	0	t		21.0	2.5	blank	1.0	151.62132120132446	
23	128.79417657852173	movie	1		300	21.0	2.5	blank	1.0	152.03783345222473	2.500342845916748
23	129.97791409492493	pulse	1	t		21.0	2.5	blank	1.0	153.22157096862793	
23	131.29451942443848	fix_post	2		12	21.0	2.5	blank	1.0	154.53817629814148	0.10003042221069336
24	131.39454984664917	fix_pre	0		120	22.0	2.5	/experiments/knapen_AOT/AOT_stimuli/rescaled_final/2114_rv.mp4	0.0	154.63820672035217	1.0085320472717285
24	131.57083868980408	pulse	0	t		22.0	2.5	/experiments/knapen_AOT/AOT_stimuli/rescaled_final/2114_rv.mp4	0.0	154.81449556350708	
24	132.4030818939209	movie	1		263	22.0	2.5	/experiments/knapen_AOT/AOT_stimuli/rescaled_final/2114_rv.mp4	0.0	155.6467387676239	2.491997003555298
24	133.17037224769592	pulse	1	t		22.0	2.5	/experiments/knapen_AOT/AOT_stimuli/rescaled_final/2114_rv.mp4	0.0	156.41402912139893	
24	134.77077460289001	pulse	1	t		22.0	2.5	/experiments/knapen_AOT/AOT_stimuli/rescaled_final/2114_rv.mp4	0.0	158.01443147659302	
24	134.8950788974762	fix_post	2		12	22.0	2.5	/experiments/knapen_AOT/AOT_stimuli/rescaled_final/2114_rv.mp4	0.0	158.1387357711792	0.10003256797790527
25	134.9951114654541	fix_pre	0		120	23.0	2.5	/experiments/knapen_AOT/AOT_stimuli/rescaled_final/0039_rv.mp4	0.0	158.2387683391571	1.0084705352783203
25	136.00358200073242	movie	1		269	23.0	2.5	/experiments/knapen_AOT/AOT_stimuli/rescaled_final/0039_rv.mp4	0.0	159.24723887443542	2.4920201301574707
25	136.37053394317627	pulse	1	t		23.0	2.5	/experiments/knapen_AOT/AOT_stimuli/rescaled_final/0039_rv.mp4	0.0	159.61419081687927	
25	137.9711332321167	pulse	1	t		23.0	2.5	/experiments/knapen_AOT/AOT_stimuli/rescaled_final/0039_rv.mp4	0.0	161.2147901058197	
25	138.4956021308899	fix_post	2		12	23.0	2.5	/experiments/knapen_AOT/AOT_stimuli/rescaled_final/0039_rv.mp4	0.0	161.7392590045929	0.10003423690795898
26	138.59563636779785	fix_pre	0		118	24.0	2.5	/experiments/knapen_AOT/AOT_stimuli/rescaled_final/0172_fw.mp4	0.0	161.83929324150085	0.9918687343597412
26	139.57106018066406	pulse	0	t		24.0	2.5	/experiments/knapen_AOT/AOT_stimuli/rescaled_final/0172_fw.mp4	0.0	162.81471705436707	
26	139.5875051021576	movie	1		276	24.0	2.5	/experiments/knapen_AOT/AOT_stimuli/rescaled_final/0172_fw.mp4	0.0	162.8311619758606	2.5003182888031006
26	141.17132711410522	pulse	1	t		24.0	2.5	/experiments/knapen_AOT/AOT_stimuli/rescaled_final/0172_fw.mp4	0.0	164.41498398780823	
26	142.0878233909607	fix_post	2		12	24.0	2.5	/experiments/knapen_AOT/AOT_stimuli/rescaled_final/0172_fw.mp4	0.0	165.3314802646637	0.10000348091125488
27	142.18782687187195	fix_pre	0		120	25.0	2.5	/experiments/knapen_AOT/AOT_stimuli/rescaled_final/0772_rv.mp4	0.0	165.43148374557495	1.0085277557373047
27	142.77153253555298	pulse	0	t		25.0	2.5	/experiments/knapen_AOT/AOT_stimuli/rescaled_final/0772_rv.mp4	0.0	166.01518940925598	
27	143.19635462760925	movie	1		271	25.0	2.5	/experiments/knapen_AOT/AOT_stimuli/rescaled_final/0772_rv.mp4	0.0	166.44001150131226	2.4920060634613037
27	144.37175822257996	pulse	1	t		25.0	2.5	/experiments/knapen_AOT/AOT_stimuli/rescaled_final/0772_rv.mp4	0.0	167.61541509628296	
27	145.68836069107056	fix_post	2		12	25.0	2.5	/experiments/knapen_AOT/AOT_stimuli/rescaled_final/0772_rv.mp4	0.0	168.93201756477356	0.10001778602600098
28	145.78837847709656	fix_pre	0		120	26.0	2.5	blank	1.0	169.03203535079956	1.0001659393310547
28	145.97192120552063	pulse	0	t		26.0	2.5	blank	1.0	169.21557807922363	
28	146.7885444164276	movie	1		300	26.0	2.5	blank	1.0	170.03220129013062	2.50034761428833
28	147.57225060462952	pulse	1	t		26.0	2.5	blank	1.0	170.81590747833252	
28	149.17247462272644	pulse	1	t		26.0	2.5	blank	1.0	172.41613149642944	
28	149.28889203071594	fix_post	2		12	26.0	2.5	blank	1.0	172.53254890441895	0.10005497932434082
29	149.38894701004028	fix_pre	0		120	27.0	2.5	/experiments/knapen_AOT/AOT_stimuli/rescaled_final/0091_rv.mp4	0.0	172.6326038837433	1.0085182189941406
29	150.39746522903442	movie	1		269	27.0	2.5	/experiments/knapen_AOT/AOT_stimuli/rescaled_final/0091_rv.mp4	0.0	173.64112210273743	2.492032527923584
29	150.77147030830383	pulse	1	t		27.0	2.5	/experiments/knapen_AOT/AOT_stimuli/rescaled_final/0091_rv.mp4	0.0	174.01512718200684	
29	152.37093329429626	pulse	1	t		27.0	2.5	/experiments/knapen_AOT/AOT_stimuli/rescaled_final/0091_rv.mp4	0.0	175.61459016799927	
29	152.889497756958	fix_post	2		12	27.0	2.5	/experiments/knapen_AOT/AOT_stimuli/rescaled_final/0091_rv.mp4	0.0	176.133154630661	0.09996914863586426
30	152.98946690559387	fix_pre	0		119	28.0	2.5	/experiments/knapen_AOT/AOT_stimuli/rescaled_final/0865_fw.mp4	0.0	176.23312377929688	1.0001845359802246
30	153.97318863868713	pulse	0	t		28.0	2.5	/experiments/knapen_AOT/AOT_stimuli/rescaled_final/0865_fw.mp4	0.0	177.21684551239014	
30	153.9896514415741	movie	1		257	28.0	2.5	/experiments/knapen_AOT/AOT_stimuli/rescaled_final/0865_fw.mp4	0.0	177.2333083152771	2.5003669261932373
30	155.57277941703796	pulse	1	t		28.0	2.5	/experiments/knapen_AOT/AOT_stimuli/rescaled_final/0865_fw.mp4	0.0	178.81643629074097	
30	156.49001836776733	fix_post	2		12	28.0	2.5	/experiments/knapen_AOT/AOT_stimuli/rescaled_final/0865_fw.mp4	0.0	179.73367524147034	0.10003495216369629
31	156.59005331993103	fix_pre	0		120	29.0	2.5	/experiments/knapen_AOT/AOT_stimuli/rescaled_final/1242_rv.mp4	0.0	179.83371019363403	1.0084929466247559
31	157.1736936569214	pulse	0	t		29.0	2.5	/experiments/knapen_AOT/AOT_stimuli/rescaled_final/1242_rv.mp4	0.0	180.4173505306244	
31	157.5985462665558	movie	1		269	29.0	2.5	/experiments/knapen_AOT/AOT_stimuli/rescaled_final/1242_rv.mp4	0.0	180.8422031402588	2.4920718669891357
31	158.77213859558105	pulse	1	t		29.0	2.5	/experiments/knapen_AOT/AOT_stimuli/rescaled_final/1242_rv.mp4	0.0	182.01579546928406	
31	160.09061813354492	fix_post	2		12	29.0	2.5	/experiments/knapen_AOT/AOT_stimuli/rescaled_final/1242_rv.mp4	0.0	183.33427500724792	0.09997367858886719
32	160.1905918121338	fix_pre	0		120	30.0	2.5	/experiments/knapen_AOT/AOT_stimuli/rescaled_final/0854_fw.mp4	0.0	183.4342486858368	1.0084547996520996
32	160.3740918636322	pulse	0	t		30.0	2.5	/experiments/knapen_AOT/AOT_stimuli/rescaled_final/0854_fw.mp4	0.0	183.6177487373352	
32	161.1990466117859	movie	1		281	30.0	2.5	/experiments/knapen_AOT/AOT_stimuli/rescaled_final/0854_fw.mp4	0.0	184.4427034854889	2.4920194149017334
32	161.97228837013245	pulse	1	t		30.0	2.5	/experiments/knapen_AOT/AOT_stimuli/rescaled_final/0854_fw.mp4	0.0	185.21594524383545	
32	163.57252621650696	pulse	1	t		30.0	2.5	/experiments/knapen_AOT/AOT_stimuli/rescaled_final/0854_fw.mp4	0.0	186.81618309020996	
32	163.69106602668762	fix_post	2		12	30.0	2.5	/experiments/knapen_AOT/AOT_stimuli/rescaled_final/0854_fw.mp4	0.0	186.93472290039062	0.10006928443908691
33	163.7911353111267	fix_pre	0		120	31.0	2.5	/experiments/knapen_AOT/AOT_stimuli/rescaled_final/1845_fw.mp4	0.0	187.0347921848297	1.00848388671875
33	164.79961919784546	movie	1		276	31.0	2.5	/experiments/knapen_AOT/AOT_stimuli/rescaled_final/1845_fw.mp4	0.0	188.04327607154846	2.4919848442077637
33	165.17392539978027	pulse	1	t		31.0	2.5	/experiments/knapen_AOT/AOT_stimuli/rescaled_final/1845_fw.mp4	0.0	188.41758227348328	
33	166.77451300621033	pulse	1	t		31.0	2.5	/experiments/knapen_AOT/AOT_stimuli/rescaled_final/1845_fw.mp4	0.0	190.01816987991333	
33	167.29160404205322	fix_post	2		12	31.0	2.5	/experiments/knapen_AOT/AOT_stimuli/rescaled_final/1845_fw.mp4	0.0	190.53526091575623	0.10001897811889648
34	167.39162302017212	fix_pre	0		119	32.0	2.5	/experiments/knapen_AOT/AOT_stimuli/rescaled_final/1777_rv.mp4	0.0	190.63527989387512	1.0001804828643799
34	168.37537908554077	pulse	0	t		32.0	2.5	/experiments/knapen_AOT/AOT_stimuli/rescaled_final/1777_rv.mp4	0.0	191.61903595924377	
34	168.3918035030365	movie	1		272	32.0	2.5	/experiments/knapen_AOT/AOT_stimuli/rescaled_final/1777_rv.mp4	0.0	191.6354603767395	2.5003387928009033
34	169.9745752811432	pulse	1	t		32.0	2.5	/experiments/knapen_AOT/AOT_stimuli/rescaled_final/1777_rv.mp4	0.0	193.2182321548462	
34	170.8921422958374	fix_post	2		12	32.0	2.5	/experiments/knapen_AOT/AOT_stimuli/rescaled_final/1777_rv.mp4	0.0	194.1357991695404	0.10002756118774414
35	170.99216985702515	fix_pre	0		120	33.0	2.5	/experiments/knapen_AOT/AOT_stimuli/rescaled_final/2152_fw.mp4	0.0	194.23582673072815	1.0084857940673828
35	171.57588911056519	pulse	0	t		33.0	2.5	/experiments/knapen_AOT/AOT_stimuli/rescaled_final/2152_fw.mp4	0.0	194.8195459842682	
35	172.00065565109253	movie	1		284	33.0	2.5	/experiments/knapen_AOT/AOT_stimuli/rescaled_final/2152_fw.mp4	0.0	195.24431252479553	2.49204158782959
35	173.17450594902039	pulse	1	t		33.0	2.5	/experiments/knapen_AOT/AOT_stimuli/rescaled_final/2152_fw.mp4	0.0	196.4181628227234	
35	174.49269723892212	fix_post	2		12	33.0	2.5	/experiments/knapen_AOT/AOT_stimuli/rescaled_final/2152_fw.mp4	0.0	197.73635411262512	0.10001087188720703
36	174.59270811080933	fix_pre	0		120	34.0	2.5	/experiments/knapen_AOT/AOT_stimuli/rescaled_final/0322_rv.mp4	0.0	197.83636498451233	1.0085501670837402
36	174.77628684043884	pulse	0	t		34.0	2.5	/experiments/knapen_AOT/AOT_stimuli/rescaled_final/0322_rv.mp4	0.0	198.01994371414185	
36	175.60125827789307	movie	1		288	34.0	2.5	/experiments/knapen_AOT/AOT_stimuli/rescaled_final/0322_rv.mp4	0.0	198.84491515159607	2.4919707775115967
36	176.37442779541016	pulse	1	t		34.0	2.5	/experiments/knapen_AOT/AOT_stimuli/rescaled_final/0322_rv.mp4	0.0	199.61808466911316	
36	177.97478699684143	pulse	1	t		34.0	2.5	/experiments/knapen_AOT/AOT_stimuli/rescaled_final/0322_rv.mp4	0.0	201.21844387054443	
36	178.09322905540466	fix_post	2		12	34.0	2.5	/experiments/knapen_AOT/AOT_stimuli/rescaled_final/0322_rv.mp4	0.0	201.33688592910767	0.10000348091125488
37	178.19323253631592	fix_pre	0		120	35.0	2.5	blank	1.0	201.43688941001892	1.0001740455627441
37	179.19340658187866	movie	1		300	35.0	2.5	blank	1.0	202.43706345558167	2.50040864944458
37	179.57702565193176	pulse	1	t		35.0	2.5	blank	1.0	202.82068252563477	
37	181.17722010612488	pulse	1	t		35.0	2.5	blank	1.0	204.42087697982788	
37	181.69381523132324	fix_post	2		12	35.0	2.5	blank	1.0	204.93747210502625	0.09996938705444336
38	181.79378461837769	fix_pre	0		119	36.0	2.5	/experiments/knapen_AOT/AOT_stimuli/rescaled_final/0834_rv.mp4	0.0	205.0374414920807	1.000258445739746
38	182.7776279449463	pulse	0	t		36.0	2.5	/experiments/knapen_AOT/AOT_stimuli/rescaled_final/0834_rv.mp4	0.0	206.0212848186493	
38	182.79404306411743	movie	1		287	36.0	2.5	/experiments/knapen_AOT/AOT_stimuli/rescaled_final/0834_rv.mp4	0.0	206.03769993782043	2.5002739429473877
38	184.37594866752625	pulse	1	t		36.0	2.5	/experiments/knapen_AOT/AOT_stimuli/rescaled_final/0834_rv.mp4	0.0	207.61960554122925	
38	185.29431700706482	fix_post	2		12	36.0	2.5	/experiments/knapen_AOT/AOT_stimuli/rescaled_final/0834_rv.mp4	0.0	208.53797388076782	0.10001611709594727
39	185.39433312416077	fix_pre	0		120	37.0	2.5	/experiments/knapen_AOT/AOT_stimuli/rescaled_final/2033_rv.mp4	0.0	208.63798999786377	1.0084960460662842
39	185.97807216644287	pulse	0	t		37.0	2.5	/experiments/knapen_AOT/AOT_stimuli/rescaled_final/2033_rv.mp4	0.0	209.22172904014587	
39	186.40282917022705	movie	1		275	37.0	2.5	/experiments/knapen_AOT/AOT_stimuli/rescaled_final/2033_rv.mp4	0.0	209.64648604393005	2.492030620574951
39	187.57727813720703	pulse	1	t		37.0	2.5	/experiments/knapen_AOT/AOT_stimuli/rescaled_final/2033_rv.mp4	0.0	210.82093501091003	
39	188.894859790802	fix_post	2		12	37.0	2.5	/experiments/knapen_AOT/AOT_stimuli/rescaled_final/2033_rv.mp4	0.0	212.138516664505	0.10000872611999512
40	188.994868516922	fix_pre	0		120	38.0	2.5	/experiments/knapen_AOT/AOT_stimuli/rescaled_final/1281_fw.mp4	0.0	212.238525390625	1.0085668563842773
40	189.17138624191284	pulse	0	t		38.0	2.5	/experiments/knapen_AOT/AOT_stimuli/rescaled_final/1281_fw.mp4	0.0	212.41504311561584	
40	190.00343537330627	movie	1		277	38.0	2.5	/experiments/knapen_AOT/AOT_stimuli/rescaled_final/1281_fw.mp4	0.0	213.24709224700928	2.491961717605591
40	190.77072405815125	pulse	1	t		38.0	2.5	/experiments/knapen_AOT/AOT_stimuli/rescaled_final/1281_fw.mp4	0.0	214.01438093185425	
40	192.370787858963	pulse	1	t		38.0	2.5	/experiments/knapen_AOT/AOT_stimuli/rescaled_final/1281_fw.mp4	0.0	215.61444473266602	
40	192.49539709091187	fix_post	2		12	38.0	2.5	/experiments/knapen_AOT/AOT_stimuli/rescaled_final/1281_fw.mp4	0.0	215.73905396461487	0.10004806518554688
41	192.5954451560974	fix_pre	0		120	39.0	2.5	/experiments/knapen_AOT/AOT_stimuli/rescaled_final/0765_fw.mp4	0.0	215.83910202980042	1.008474349975586
41	193.603919506073	movie	1		273	39.0	2.5	/experiments/knapen_AOT/AOT_stimuli/rescaled_final/0765_fw.mp4	0.0	216.847576379776	2.4920146465301514
41	193.97150540351868	pulse	1	t		39.0	2.5	/experiments/knapen_AOT/AOT_stimuli/rescaled_final/0765_fw.mp4	0.0	217.21516227722168	
41	195.57109904289246	pulse	1	t		39.0	2.5	/experiments/knapen_AOT/AOT_stimuli/rescaled_final/0765_fw.mp4	0.0	218.81475591659546	
41	196.09593415260315	fix_post	2		12	39.0	2.5	/experiments/knapen_AOT/AOT_stimuli/rescaled_final/0765_fw.mp4	0.0	219.33959102630615	0.10005402565002441
42	196.19598817825317	fix_pre	0		118	40.0	2.5	/experiments/knapen_AOT/AOT_stimuli/rescaled_final/0674_fw.mp4	0.0	219.43964505195618	1.0002250671386719
42	197.17135405540466	pulse	0	t		40.0	2.5	/experiments/knapen_AOT/AOT_stimuli/rescaled_final/0674_fw.mp4	0.0	220.41501092910767	
42	197.19621324539185	movie	1		286	40.0	2.5	/experiments/knapen_AOT/AOT_stimuli/rescaled_final/0674_fw.mp4	0.0	220.43987011909485	2.4920480251312256
42	198.77163314819336	pulse	1	t		40.0	2.5	/experiments/knapen_AOT/AOT_stimuli/rescaled_final/0674_fw.mp4	0.0	222.01529002189636	
42	199.68826127052307	fix_post	2		12	40.0	2.5	/experiments/knapen_AOT/AOT_stimuli/rescaled_final/0674_fw.mp4	0.0	222.93191814422607	0.09995651245117188
43	199.78821778297424	fix_pre	0		120	41.0	2.5	blank	1.0	223.03187465667725	1.0000886917114258
43	200.37187838554382	pulse	0	t		41.0	2.5	blank	1.0	223.61553525924683	
43	200.78830647468567	movie	1		300	41.0	2.5	blank	1.0	224.03196334838867	2.5003743171691895
43	201.97204995155334	pulse	1	t		41.0	2.5	blank	1.0	225.21570682525635	
43	203.28868079185486	fix_post	2		12	41.0	2.5	blank	1.0	226.53233766555786	0.10002350807189941
44	203.38870429992676	fix_pre	0		120	42.0	2.5	/experiments/knapen_AOT/AOT_stimuli/rescaled_final/0480_fw.mp4	0.0	226.63236117362976	1.0084679126739502
44	203.5725040435791	pulse	0	t		42.0	2.5	/experiments/knapen_AOT/AOT_stimuli/rescaled_final/0480_fw.mp4	0.0	226.8161609172821	
44	204.3971722126007	movie	1		275	42.0	2.5	/experiments/knapen_AOT/AOT_stimuli/rescaled_final/0480_fw.mp4	0.0	227.6408290863037	2.4920554161071777
44	205.1725296974182	pulse	1	t		42.0	2.5	/experiments/knapen_AOT/AOT_stimuli/rescaled_final/0480_fw.mp4	0.0	228.41618657112122	
44	206.77279043197632	pulse	1	t		42.0	2.5	/experiments/knapen_AOT/AOT_stimuli/rescaled_final/0480_fw.mp4	0.0	230.01644730567932	
44	206.88922762870789	fix_post	2		12	42.0	2.5	/experiments/knapen_AOT/AOT_stimuli/rescaled_final/0480_fw.mp4	0.0	230.1328845024109	0.10001516342163086
45	206.98924279212952	fix_pre	0		120	43.0	2.5	/experiments/knapen_AOT/AOT_stimuli/rescaled_final/1655_fw.mp4	0.0	230.23289966583252	1.0084912776947021
45	207.99773406982422	movie	1		278	43.0	2.5	/experiments/knapen_AOT/AOT_stimuli/rescaled_final/1655_fw.mp4	0.0	231.24139094352722	2.4920260906219482
45	208.37319707870483	pulse	1	t		43.0	2.5	/experiments/knapen_AOT/AOT_stimuli/rescaled_final/1655_fw.mp4	0.0	231.61685395240784	
45	209.9712929725647	pulse	1	t		43.0	2.5	/experiments/knapen_AOT/AOT_stimuli/rescaled_final/1655_fw.mp4	0.0	233.2149498462677	
45	210.48976016044617	fix_post	2		12	43.0	2.5	/experiments/knapen_AOT/AOT_stimuli/rescaled_final/1655_fw.mp4	0.0	233.73341703414917	0.10007619857788086
46	210.58983635902405	fix_pre	0		119	44.0	2.5	/experiments/knapen_AOT/AOT_stimuli/rescaled_final/1788_rv.mp4	0.0	233.83349323272705	1.0001072883605957
46	211.57348942756653	pulse	0	t		44.0	2.5	/experiments/knapen_AOT/AOT_stimuli/rescaled_final/1788_rv.mp4	0.0	234.81714630126953	
46	211.58994364738464	movie	1		280	44.0	2.5	/experiments/knapen_AOT/AOT_stimuli/rescaled_final/1788_rv.mp4	0.0	234.83360052108765	2.5003795623779297
46	213.17194604873657	pulse	1	t		44.0	2.5	/experiments/knapen_AOT/AOT_stimuli/rescaled_final/1788_rv.mp4	0.0	236.41560292243958	
46	214.09032320976257	fix_post	2		12	44.0	2.5	/experiments/knapen_AOT/AOT_stimuli/rescaled_final/1788_rv.mp4	0.0	237.33398008346558	0.09999871253967285
47	214.19032192230225	fix_pre	0		120	45.0	2.5	/experiments/knapen_AOT/AOT_stimuli/rescaled_final/1803_fw.mp4	0.0	237.43397879600525	1.0084879398345947
47	214.77394127845764	pulse	0	t		45.0	2.5	/experiments/knapen_AOT/AOT_stimuli/rescaled_final/1803_fw.mp4	0.0	238.01759815216064	
47	215.19880986213684	movie	1		287	45.0	2.5	/experiments/knapen_AOT/AOT_stimuli/rescaled_final/1803_fw.mp4	0.0	238.44246673583984	2.492039203643799
47	216.3722641468048	pulse	1	t		45.0	2.5	/experiments/knapen_AOT/AOT_stimuli/rescaled_final/1803_fw.mp4	0.0	239.6159210205078	
47	217.69084906578064	fix_post	2		12	45.0	2.5	/experiments/knapen_AOT/AOT_stimuli/rescaled_final/1803_fw.mp4	0.0	240.93450593948364	0.10002422332763672
48	217.79087328910828	fix_pre	0		120	46.0	2.5	/experiments/knapen_AOT/AOT_stimuli/rescaled_final/0680_fw.mp4	0.0	241.03453016281128	1.0085327625274658
48	217.97446084022522	pulse	0	t		46.0	2.5	/experiments/knapen_AOT/AOT_stimuli/rescaled_final/0680_fw.mp4	0.0	241.21811771392822	
48	218.79940605163574	movie	1		263	46.0	2.5	/experiments/knapen_AOT/AOT_stimuli/rescaled_final/0680_fw.mp4	0.0	242.04306292533875	2.491992235183716
48	219.57288813591003	pulse	1	t		46.0	2.5	/experiments/knapen_AOT/AOT_stimuli/rescaled_final/0680_fw.mp4	0.0	242.81654500961304	
48	221.17279481887817	pulse	1	t		46.0	2.5	/experiments/knapen_AOT/AOT_stimuli/rescaled_final/0680_fw.mp4	0.0	244.41645169258118	
48	221.29139828681946	fix_post	2		12	46.0	2.5	/experiments/knapen_AOT/AOT_stimuli/rescaled_final/0680_fw.mp4	0.0	244.53505516052246	0.0999908447265625
49	221.39138913154602	fix_pre	0		120	47.0	2.5	/experiments/knapen_AOT/AOT_stimuli/rescaled_final/0813_rv.mp4	0.0	244.63504600524902	1.0085539817810059
49	222.39994311332703	movie	1		277	47.0	2.5	/experiments/knapen_AOT/AOT_stimuli/rescaled_final/0813_rv.mp4	0.0	245.64359998703003	2.491997003555298
49	222.77334427833557	pulse	1	t		47.0	2.5	/experiments/knapen_AOT/AOT_stimuli/rescaled_final/0813_rv.mp4	0.0	246.01700115203857	
49	224.37579083442688	pulse	1	t		47.0	2.5	/experiments/knapen_AOT/AOT_stimuli/rescaled_final/0813_rv.mp4	0.0	247.61944770812988	
49	224.89194011688232	fix_post	2		12	47.0	2.5	/experiments/knapen_AOT/AOT_stimuli/rescaled_final/0813_rv.mp4	0.0	248.13559699058533	0.10000824928283691
50	224.99194836616516	fix_pre	0		119	48.0	2.5	/experiments/knapen_AOT/AOT_stimuli/rescaled_final/0034_rv.mp4	0.0	248.23560523986816	1.0001695156097412
50	225.9756782054901	pulse	0	t		48.0	2.5	/experiments/knapen_AOT/AOT_stimuli/rescaled_final/0034_rv.mp4	0.0	249.21933507919312	
50	225.9921178817749	movie	1		264	48.0	2.5	/experiments/knapen_AOT/AOT_stimuli/rescaled_final/0034_rv.mp4	0.0	249.2357747554779	2.5087618827819824
50	227.57427597045898	pulse	1	t		48.0	2.5	/experiments/knapen_AOT/AOT_stimuli/rescaled_final/0034_rv.mp4	0.0	250.817932844162	
50	228.50087976455688	fix_post	2		11	48.0	2.5	/experiments/knapen_AOT/AOT_stimuli/rescaled_final/0034_rv.mp4	0.0	251.7445366382599	0.09162688255310059
51	228.59250664710999	fix_pre	0		120	49.0	2.5	blank	1.0	251.836163520813	1.0001227855682373
51	229.17609024047852	pulse	0	t		49.0	2.5	blank	1.0	252.41974711418152	
51	229.59262943267822	movie	1		300	49.0	2.5	blank	1.0	252.83628630638123	2.5003981590270996
51	230.7763478755951	pulse	1	t		49.0	2.5	blank	1.0	254.0200047492981	
51	232.09302759170532	fix_post	2		12	49.0	2.5	blank	1.0	255.33668446540833	0.1000070571899414
52	232.19303464889526	fix_pre	0		120	50.0	2.5	/experiments/knapen_AOT/AOT_stimuli/rescaled_final/1635_rv.mp4	0.0	255.43669152259827	1.0085101127624512
52	232.37661504745483	pulse	0	t		50.0	2.5	/experiments/knapen_AOT/AOT_stimuli/rescaled_final/1635_rv.mp4	0.0	255.62027192115784	
52	233.20154476165771	movie	1		269	50.0	2.5	/experiments/knapen_AOT/AOT_stimuli/rescaled_final/1635_rv.mp4	0.0	256.4452016353607	2.4920151233673096
52	233.97487425804138	pulse	1	t		50.0	2.5	/experiments/knapen_AOT/AOT_stimuli/rescaled_final/1635_rv.mp4	0.0	257.2185311317444	
52	235.5755672454834	pulse	1	t		50.0	2.5	/experiments/knapen_AOT/AOT_stimuli/rescaled_final/1635_rv.mp4	0.0	258.8192241191864	
52	235.69355988502502	fix_post	2		12	50.0	2.5	/experiments/knapen_AOT/AOT_stimuli/rescaled_final/1635_rv.mp4	0.0	258.937216758728	0.10001564025878906
53	235.7935755252838	fix_pre	0		120	51.0	2.5	/experiments/knapen_AOT/AOT_stimuli/rescaled_final/1309_rv.mp4	0.0	259.0372323989868	1.008516788482666
53	236.80209231376648	movie	1		280	51.0	2.5	/experiments/knapen_AOT/AOT_stimuli/rescaled_final/1309_rv.mp4	0.0	260.0457491874695	2.4920012950897217
53	237.1754252910614	pulse	1	t		51.0	2.5	/experiments/knapen_AOT/AOT_stimuli/rescaled_final/1309_rv.mp4	0.0	260.4190821647644	
53	238.77543997764587	pulse	1	t		51.0	2.5	/experiments/knapen_AOT/AOT_stimuli/rescaled_final/1309_rv.mp4	0.0	262.0190968513489	
53	239.2940936088562	fix_post	2		12	51.0	2.5	/experiments/knapen_AOT/AOT_stimuli/rescaled_final/1309_rv.mp4	0.0	262.5377504825592	0.10003113746643066
54	239.39412474632263	fix_pre	0		119	52.0	2.5	/experiments/knapen_AOT/AOT_stimuli/rescaled_final/1383_rv.mp4	0.0	262.63778162002563	1.0001521110534668
54	240.3777732849121	pulse	0	t		52.0	2.5	/experiments/knapen_AOT/AOT_stimuli/rescaled_final/1383_rv.mp4	0.0	263.6214301586151	
54	240.3942768573761	movie	1		277	52.0	2.5	/experiments/knapen_AOT/AOT_stimuli/rescaled_final/1383_rv.mp4	0.0	263.6379337310791	2.500368356704712
54	241.9770631790161	pulse	1	t		52.0	2.5	/experiments/knapen_AOT/AOT_stimuli/rescaled_final/1383_rv.mp4	0.0	265.2207200527191	
54	242.8946452140808	fix_post	2		12	52.0	2.5	/experiments/knapen_AOT/AOT_stimuli/rescaled_final/1383_rv.mp4	0.0	266.1383020877838	0.1000051498413086
55	242.99465036392212	fix_pre	0		120	53.0	2.5	/experiments/knapen_AOT/AOT_stimuli/rescaled_final/1513_fw.mp4	0.0	266.2383072376251	1.0085744857788086
55	243.57833242416382	pulse	0	t		53.0	2.5	/experiments/knapen_AOT/AOT_stimuli/rescaled_final/1513_fw.mp4	0.0	266.8219892978668	
55	244.00322484970093	movie	1		283	53.0	2.5	/experiments/knapen_AOT/AOT_stimuli/rescaled_final/1513_fw.mp4	0.0	267.24688172340393	2.491973400115967
55	245.17674255371094	pulse	1	t		53.0	2.5	/experiments/knapen_AOT/AOT_stimuli/rescaled_final/1513_fw.mp4	0.0	268.42039942741394	
55	246.4951982498169	fix_post	2		12	53.0	2.5	/experiments/knapen_AOT/AOT_stimuli/rescaled_final/1513_fw.mp4	0.0	269.7388551235199	0.10003471374511719
56	246.595232963562	fix_pre	0		120	54.0	2.5	/experiments/knapen_AOT/AOT_stimuli/rescaled_final/1309_fw.mp4	0.0	269.838889837265	1.008495807647705
56	246.77176976203918	pulse	0	t		54.0	2.5	/experiments/knapen_AOT/AOT_stimuli/rescaled_final/1309_fw.mp4	0.0	270.0154266357422	
56	247.60372877120972	movie	1		293	54.0	2.5	/experiments/knapen_AOT/AOT_stimuli/rescaled_final/1309_fw.mp4	0.0	270.8473856449127	2.4919698238372803
56	248.37707543373108	pulse	1	t		54.0	2.5	/experiments/knapen_AOT/AOT_stimuli/rescaled_final/1309_fw.mp4	0.0	271.6207323074341	
56	249.97097182273865	pulse	1	t		54.0	2.5	/experiments/knapen_AOT/AOT_stimuli/rescaled_final/1309_fw.mp4	0.0	273.21462869644165	
56	250.095698595047	fix_post	2		12	54.0	2.5	/experiments/knapen_AOT/AOT_stimuli/rescaled_final/1309_fw.mp4	0.0	273.33935546875	0.1000068187713623
57	250.19570541381836	fix_pre	0		120	55.0	2.5	blank	1.0	273.43936228752136	1.0001566410064697
57	251.19586205482483	movie	1		300	55.0	2.5	blank	1.0	274.43951892852783	2.5004124641418457
57	251.57115578651428	pulse	1	t		55.0	2.5	blank	1.0	274.8148126602173	
57	253.17145037651062	pulse	1	t		55.0	2.5	blank	1.0	276.4151072502136	
57	253.69627451896667	fix_post	2		12	55.0	2.5	blank	1.0	276.9399313926697	0.09999251365661621
58	253.7962670326233	fix_pre	0		118	56.0	2.5	/experiments/knapen_AOT/AOT_stimuli/rescaled_final/0330_fw.mp4	0.0	277.0399239063263	0.9918184280395508
58	254.77166366577148	pulse	0	t		56.0	2.5	/experiments/knapen_AOT/AOT_stimuli/rescaled_final/0330_fw.mp4	0.0	278.0153205394745	
58	254.78808546066284	movie	1		259	56.0	2.5	/experiments/knapen_AOT/AOT_stimuli/rescaled_final/0330_fw.mp4	0.0	278.03174233436584	2.5004162788391113
58	256.372008562088	pulse	1	t		56.0	2.5	/experiments/knapen_AOT/AOT_stimuli/rescaled_final/0330_fw.mp4	0.0	279.615665435791	
58	257.28850173950195	fix_post	2		12	56.0	2.5	/experiments/knapen_AOT/AOT_stimuli/rescaled_final/0330_fw.mp4	0.0	280.53215861320496	0.09999990463256836
59	257.3885016441345	fix_pre	0		120	57.0	2.5	/experiments/knapen_AOT/AOT_stimuli/rescaled_final/1526_rv.mp4	0.0	280.6321585178375	1.0084471702575684
59	257.97216415405273	pulse	0	t		57.0	2.5	/experiments/knapen_AOT/AOT_stimuli/rescaled_final/1526_rv.mp4	0.0	281.21582102775574	
59	258.3969488143921	movie	1		273	57.0	2.5	/experiments/knapen_AOT/AOT_stimuli/rescaled_final/1526_rv.mp4	0.0	281.6406056880951	2.492086887359619
59	259.5724608898163	pulse	1	t		57.0	2.5	/experiments/knapen_AOT/AOT_stimuli/rescaled_final/1526_rv.mp4	0.0	282.8161177635193	
59	260.8890357017517	fix_post	2		12	57.0	2.5	/experiments/knapen_AOT/AOT_stimuli/rescaled_final/1526_rv.mp4	0.0	284.1326925754547	0.10000014305114746
60	260.98903584480286	fix_pre	0		120	58.0	2.5	/experiments/knapen_AOT/AOT_stimuli/rescaled_final/0189_fw.mp4	0.0	284.23269271850586	1.0084969997406006
60	261.1726384162903	pulse	0	t		58.0	2.5	/experiments/knapen_AOT/AOT_stimuli/rescaled_final/0189_fw.mp4	0.0	284.4162952899933	
60	261.99753284454346	movie	1		276	58.0	2.5	/experiments/knapen_AOT/AOT_stimuli/rescaled_final/0189_fw.mp4	0.0	285.24118971824646	2.492082118988037
60	262.77307176589966	pulse	1	t		58.0	2.5	/experiments/knapen_AOT/AOT_stimuli/rescaled_final/0189_fw.mp4	0.0	286.01672863960266	
60	264.3710479736328	pulse	1	t		58.0	2.5	/experiments/knapen_AOT/AOT_stimuli/rescaled_final/0189_fw.mp4	0.0	287.6147048473358	
60	264.4896149635315	fix_post	2		12	58.0	2.5	/experiments/knapen_AOT/AOT_stimuli/rescaled_final/0189_fw.mp4	0.0	287.7332718372345	0.10000443458557129
61	264.58961939811707	fix_pre	0		120	59.0	2.5	/experiments/knapen_AOT/AOT_stimuli/rescaled_final/0510_fw.mp4	0.0	287.83327627182007	1.0084350109100342
61	265.5980544090271	movie	1		280	59.0	2.5	/experiments/knapen_AOT/AOT_stimuli/rescaled_final/0510_fw.mp4	0.0	288.8417112827301	2.4920310974121094
61	265.9715323448181	pulse	1	t		59.0	2.5	/experiments/knapen_AOT/AOT_stimuli/rescaled_final/0510_fw.mp4	0.0	289.2151892185211	
61	267.57139587402344	pulse	1	t		59.0	2.5	/experiments/knapen_AOT/AOT_stimuli/rescaled_final/0510_fw.mp4	0.0	290.81505274772644	
61	268.0900855064392	fix_post	2		12	59.0	2.5	/experiments/knapen_AOT/AOT_stimuli/rescaled_final/0510_fw.mp4	0.0	291.3337423801422	0.10002684593200684
62	268.1901123523712	fix_pre	0		119	60.0	2.5	/experiments/knapen_AOT/AOT_stimuli/rescaled_final/0245_fw.mp4	0.0	291.4337692260742	1.0001420974731445
62	269.17390036582947	pulse	0	t		60.0	2.5	/experiments/knapen_AOT/AOT_stimuli/rescaled_final/0245_fw.mp4	0.0	292.41755723953247	
62	269.19025444984436	movie	1		290	60.0	2.5	/experiments/knapen_AOT/AOT_stimuli/rescaled_final/0245_fw.mp4	0.0	292.43391132354736	2.5003774166107178
62	270.77252101898193	pulse	1	t		60.0	2.5	/experiments/knapen_AOT/AOT_stimuli/rescaled_final/0245_fw.mp4	0.0	294.01617789268494	
62	271.6906318664551	fix_post	2		12	60.0	2.5	/experiments/knapen_AOT/AOT_stimuli/rescaled_final/0245_fw.mp4	0.0	294.9342887401581	0.10002517700195312
63	271.79065704345703	fix_pre	0		120	61.0	2.5	blank	1.0	295.03431391716003	1.000162124633789
63	272.37443590164185	pulse	0	t		61.0	2.5	blank	1.0	295.61809277534485	
63	272.7908191680908	movie	1		300	61.0	2.5	blank	1.0	296.0344760417938	2.50034761428833
63	273.97458362579346	pulse	1	t		61.0	2.5	blank	1.0	297.21824049949646	
63	275.29116678237915	fix_post	2		12	61.0	2.5	blank	1.0	298.53482365608215	0.10001969337463379
64	275.3911864757538	fix_pre	0		120	62.0	2.5	/experiments/knapen_AOT/AOT_stimuli/rescaled_final/0927_fw.mp4	0.0	298.6348433494568	1.0085208415985107
64	275.57474637031555	pulse	0	t		62.0	2.5	/experiments/knapen_AOT/AOT_stimuli/rescaled_final/0927_fw.mp4	0.0	298.81840324401855	
64	276.3997073173523	movie	1		283	62.0	2.5	/experiments/knapen_AOT/AOT_stimuli/rescaled_final/0927_fw.mp4	0.0	299.6433641910553	2.492018222808838
64	277.1729106903076	pulse	1	t		62.0	2.5	/experiments/knapen_AOT/AOT_stimuli/rescaled_final/0927_fw.mp4	0.0	300.4165675640106	
64	278.77360343933105	pulse	1	t		62.0	2.5	/experiments/knapen_AOT/AOT_stimuli/rescaled_final/0927_fw.mp4	0.0	302.01726031303406	
64	278.89172554016113	fix_post	2		12	62.0	2.5	/experiments/knapen_AOT/AOT_stimuli/rescaled_final/0927_fw.mp4	0.0	302.13538241386414	0.10008072853088379
65	278.991806268692	fix_pre	0		120	63.0	2.5	/experiments/knapen_AOT/AOT_stimuli/rescaled_final/2114_fw.mp4	0.0	302.235463142395	1.0084338188171387
65	280.00024008750916	movie	1		285	63.0	2.5	/experiments/knapen_AOT/AOT_stimuli/rescaled_final/2114_fw.mp4	0.0	303.24389696121216	2.492011547088623
65	280.37380385398865	pulse	1	t		63.0	2.5	/experiments/knapen_AOT/AOT_stimuli/rescaled_final/2114_fw.mp4	0.0	303.61746072769165	
65	281.97364807128906	pulse	1	t		63.0	2.5	/experiments/knapen_AOT/AOT_stimuli/rescaled_final/2114_fw.mp4	0.0	305.21730494499207	
65	282.4922516345978	fix_post	2		12	63.0	2.5	/experiments/knapen_AOT/AOT_stimuli/rescaled_final/2114_fw.mp4	0.0	305.7359085083008	0.1000516414642334
66	282.592303276062	fix_pre	0		119	64.0	2.5	/experiments/knapen_AOT/AOT_stimuli/rescaled_final/1757_fw.mp4	0.0	305.835960149765	1.0001640319824219
66	283.5760283470154	pulse	0	t		64.0	2.5	/experiments/knapen_AOT/AOT_stimuli/rescaled_final/1757_fw.mp4	0.0	306.8196852207184	
66	283.59246730804443	movie	1		277	64.0	2.5	/experiments/knapen_AOT/AOT_stimuli/rescaled_final/1757_fw.mp4	0.0	306.83612418174744	2.5003371238708496
66	285.17448687553406	pulse	1	t		64.0	2.5	/experiments/knapen_AOT/AOT_stimuli/rescaled_final/1757_fw.mp4	0.0	308.41814374923706	
66	286.0928044319153	fix_post	2		12	64.0	2.5	/experiments/knapen_AOT/AOT_stimuli/rescaled_final/1757_fw.mp4	0.0	309.3364613056183	0.10002303123474121
67	286.19282746315	fix_pre	0		120	65.0	2.5	/experiments/knapen_AOT/AOT_stimuli/rescaled_final/0511_rv.mp4	0.0	309.436484336853	1.0084729194641113
67	286.7767279148102	pulse	0	t		65.0	2.5	/experiments/knapen_AOT/AOT_stimuli/rescaled_final/0511_rv.mp4	0.0	310.0203847885132	
67	287.20130038261414	movie	1		282	65.0	2.5	/experiments/knapen_AOT/AOT_stimuli/rescaled_final/0511_rv.mp4	0.0	310.44495725631714	2.4920268058776855
67	288.37516260147095	pulse	1	t		65.0	2.5	/experiments/knapen_AOT/AOT_stimuli/rescaled_final/0511_rv.mp4	0.0	311.61881947517395	
67	289.6933271884918	fix_post	2		12	65.0	2.5	/experiments/knapen_AOT/AOT_stimuli/rescaled_final/0511_rv.mp4	0.0	312.9369840621948	0.10002803802490234
68	289.7933552265167	fix_pre	0		120	66.0	2.5	/experiments/knapen_AOT/AOT_stimuli/rescaled_final/1664_fw.mp4	0.0	313.0370121002197	1.0085933208465576
68	289.97697019577026	pulse	0	t		66.0	2.5	/experiments/knapen_AOT/AOT_stimuli/rescaled_final/1664_fw.mp4	0.0	313.22062706947327	
68	290.8019485473633	movie	1		278	66.0	2.5	/experiments/knapen_AOT/AOT_stimuli/rescaled_final/1664_fw.mp4	0.0	314.0456054210663	2.4919443130493164
68	291.57538199424744	pulse	1	t		66.0	2.5	/experiments/knapen_AOT/AOT_stimuli/rescaled_final/1664_fw.mp4	0.0	314.81903886795044	
68	293.175418138504	pulse	1	t		66.0	2.5	/experiments/knapen_AOT/AOT_stimuli/rescaled_final/1664_fw.mp4	0.0	316.41907501220703	
68	293.2938928604126	fix_post	2		12	66.0	2.5	/experiments/knapen_AOT/AOT_stimuli/rescaled_final/1664_fw.mp4	0.0	316.5375497341156	0.1000516414642334
69	293.39394450187683	fix_pre	0		120	67.0	2.5	/experiments/knapen_AOT/AOT_stimuli/rescaled_final/1629_fw.mp4	0.0	316.63760137557983	1.0084598064422607
69	294.4024043083191	movie	1		282	67.0	2.5	/experiments/knapen_AOT/AOT_stimuli/rescaled_final/1629_fw.mp4	0.0	317.6460611820221	2.4920291900634766
69	294.7757873535156	pulse	1	t		67.0	2.5	/experiments/knapen_AOT/AOT_stimuli/rescaled_final/1629_fw.mp4	0.0	318.0194442272186	
69	296.37870740890503	pulse	1	t		67.0	2.5	/experiments/knapen_AOT/AOT_stimuli/rescaled_final/1629_fw.mp4	0.0	319.62236428260803	
69	296.89443349838257	fix_post	2		12	67.0	2.5	/experiments/knapen_AOT/AOT_stimuli/rescaled_final/1629_fw.mp4	0.0	320.13809037208557	0.10004353523254395
70	296.9944770336151	fix_pre	0		119	68.0	2.5	/experiments/knapen_AOT/AOT_stimuli/rescaled_final/1765_fw.mp4	0.0	320.2381339073181	1.0085780620574951
70	297.970458984375	pulse	0	t		68.0	2.5	/experiments/knapen_AOT/AOT_stimuli/rescaled_final/1765_fw.mp4	0.0	321.214115858078	
70	298.0030550956726	movie	1		280	68.0	2.5	/experiments/knapen_AOT/AOT_stimuli/rescaled_final/1765_fw.mp4	0.0	321.2467119693756	2.4919307231903076
70	299.5776491165161	pulse	1	t		68.0	2.5	/experiments/knapen_AOT/AOT_stimuli/rescaled_final/1765_fw.mp4	0.0	322.8213059902191	
70	300.4949858188629	fix_post	2		12	68.0	2.5	/experiments/knapen_AOT/AOT_stimuli/rescaled_final/1765_fw.mp4	0.0	323.7386426925659	0.1000070571899414
71	300.59499287605286	fix_pre	0		120	69.0	2.5	blank	1.0	323.83864974975586	1.0002741813659668
71	301.17052578926086	pulse	0	t		69.0	2.5	blank	1.0	324.41418266296387	
71	301.5952670574188	movie	1		300	69.0	2.5	blank	1.0	324.8389239311218	2.50024151802063
71	302.77063512802124	pulse	1	t		69.0	2.5	blank	1.0	326.01429200172424	
71	304.09550857543945	fix_post	2		12	69.0	2.5	blank	1.0	327.33916544914246	0.10002350807189941
72	304.19553208351135	fix_pre	0		120	70.0	2.5	/experiments/knapen_AOT/AOT_stimuli/rescaled_final/0413_fw.mp4	0.0	327.43918895721436	1.0085058212280273
72	304.3707458972931	pulse	0	t		70.0	2.5	/experiments/knapen_AOT/AOT_stimuli/rescaled_final/0413_fw.mp4	0.0	327.6144027709961	
72	305.2040379047394	movie	1		275	70.0	2.5	/experiments/knapen_AOT/AOT_stimuli/rescaled_final/0413_fw.mp4	0.0	328.4476947784424	2.49202561378479
72	305.9710259437561	pulse	1	t		70.0	2.5	/experiments/knapen_AOT/AOT_stimuli/rescaled_final/0413_fw.mp4	0.0	329.2146828174591	
72	307.57123136520386	pulse	1	t		70.0	2.5	/experiments/knapen_AOT/AOT_stimuli/rescaled_final/0413_fw.mp4	0.0	330.81488823890686	
72	307.69606351852417	fix_post	2		12	70.0	2.5	/experiments/knapen_AOT/AOT_stimuli/rescaled_final/0413_fw.mp4	0.0	330.9397203922272	0.10001540184020996
73	307.7960789203644	fix_pre	0		120	71.0	2.5	/experiments/knapen_AOT/AOT_stimuli/rescaled_final/1211_fw.mp4	0.0	331.0397357940674	1.0084857940673828
73	308.80456471443176	movie	1		257	71.0	2.5	/experiments/knapen_AOT/AOT_stimuli/rescaled_final/1211_fw.mp4	0.0	332.04822158813477	2.4920337200164795
73	309.1714737415314	pulse	1	t		71.0	2.5	/experiments/knapen_AOT/AOT_stimuli/rescaled_final/1211_fw.mp4	0.0	332.4151306152344	
73	310.77177238464355	pulse	1	t		71.0	2.5	/experiments/knapen_AOT/AOT_stimuli/rescaled_final/1211_fw.mp4	0.0	334.01542925834656	
73	311.29659843444824	fix_post	2		12	71.0	2.5	/experiments/knapen_AOT/AOT_stimuli/rescaled_final/1211_fw.mp4	0.0	334.54025530815125	0.10001873970031738
74	311.39661717414856	fix_pre	0		118	72.0	2.5	/experiments/knapen_AOT/AOT_stimuli/rescaled_final/1269_fw.mp4	0.0	334.64027404785156	0.9918930530548096
74	312.37194633483887	pulse	0	t		72.0	2.5	/experiments/knapen_AOT/AOT_stimuli/rescaled_final/1269_fw.mp4	0.0	335.61560320854187	
74	312.38851022720337	movie	1		279	72.0	2.5	/experiments/knapen_AOT/AOT_stimuli/rescaled_final/1269_fw.mp4	0.0	335.6321671009064	2.5002853870391846
74	313.97082805633545	pulse	1	t		72.0	2.5	/experiments/knapen_AOT/AOT_stimuli/rescaled_final/1269_fw.mp4	0.0	337.21448493003845	
74	314.88879561424255	fix_post	2		12	72.0	2.5	/experiments/knapen_AOT/AOT_stimuli/rescaled_final/1269_fw.mp4	0.0	338.13245248794556	0.10001730918884277
75	314.9888129234314	fix_pre	0		120	73.0	2.5	/experiments/knapen_AOT/AOT_stimuli/rescaled_final/1399_rv.mp4	0.0	338.2324697971344	1.0085585117340088
75	315.5725269317627	pulse	0	t		73.0	2.5	/experiments/knapen_AOT/AOT_stimuli/rescaled_final/1399_rv.mp4	0.0	338.8161838054657	
75	315.9973714351654	movie	1		273	73.0	2.5	/experiments/knapen_AOT/AOT_stimuli/rescaled_final/1399_rv.mp4	0.0	339.2410283088684	2.4920480251312256
75	317.17248249053955	pulse	1	t		73.0	2.5	/experiments/knapen_AOT/AOT_stimuli/rescaled_final/1399_rv.mp4	0.0	340.41613936424255	
75	318.48941946029663	fix_post	2		12	73.0	2.5	/experiments/knapen_AOT/AOT_stimuli/rescaled_final/1399_rv.mp4	0.0	341.73307633399963	0.09997200965881348
76	318.58939146995544	fix_pre	0		120	74.0	2.5	/experiments/knapen_AOT/AOT_stimuli/rescaled_final/0834_rv.mp4	0.0	341.83304834365845	1.0084609985351562
76	318.77295112609863	pulse	0	t		74.0	2.5	/experiments/knapen_AOT/AOT_stimuli/rescaled_final/0834_rv.mp4	0.0	342.01660799980164	
76	319.5978524684906	movie	1		280	74.0	2.5	/experiments/knapen_AOT/AOT_stimuli/rescaled_final/0834_rv.mp4	0.0	342.8415093421936	2.4920334815979004
76	320.37117052078247	pulse	1	t		74.0	2.5	/experiments/knapen_AOT/AOT_stimuli/rescaled_final/0834_rv.mp4	0.0	343.6148273944855	
76	321.9715459346771	pulse	1	t		74.0	2.5	/experiments/knapen_AOT/AOT_stimuli/rescaled_final/0834_rv.mp4	0.0	345.2152028083801	
76	322.0898859500885	fix_post	2		12	74.0	2.5	/experiments/knapen_AOT/AOT_stimuli/rescaled_final/0834_rv.mp4	0.0	345.3335428237915	0.1000220775604248
77	322.1899080276489	fix_pre	0		120	75.0	2.5	/experiments/knapen_AOT/AOT_stimuli/rescaled_final/1777_fw.mp4	0.0	345.43356490135193	1.008570671081543
77	323.19847869873047	movie	1		286	75.0	2.5	/experiments/knapen_AOT/AOT_stimuli/rescaled_final/1777_fw.mp4	0.0	346.4421355724335	2.4920754432678223
77	323.57323455810547	pulse	1	t		75.0	2.5	/experiments/knapen_AOT/AOT_stimuli/rescaled_final/1777_fw.mp4	0.0	346.8168914318085	
77	325.1717646121979	pulse	1	t		75.0	2.5	/experiments/knapen_AOT/AOT_stimuli/rescaled_final/1777_fw.mp4	0.0	348.4154214859009	
77	325.6905541419983	fix_post	2		12	75.0	2.5	/experiments/knapen_AOT/AOT_stimuli/rescaled_final/1777_fw.mp4	0.0	348.9342110157013	0.10009574890136719
78	325.79064989089966	fix_pre	0		119	76.0	2.5	blank	1.0	349.03430676460266	0.9915809631347656
78	326.7742745876312	pulse	0	t		76.0	2.5	blank	1.0	350.01793146133423	
78	326.7822308540344	movie	1		301	76.0	2.5	blank	1.0	350.0258877277374	2.508734941482544
78	328.37440848350525	pulse	1	t		76.0	2.5	blank	1.0	351.61806535720825	
78	329.29096579551697	fix_post	2		12	76.0	2.5	blank	1.0	352.53462266921997	0.0999755859375
79	329.39094138145447	fix_pre	0		120	77.0	2.5	/experiments/knapen_AOT/AOT_stimuli/rescaled_final/1635_rv.mp4	0.0	352.63459825515747	1.008500099182129
79	329.97460675239563	pulse	0	t		77.0	2.5	/experiments/knapen_AOT/AOT_stimuli/rescaled_final/1635_rv.mp4	0.0	353.21826362609863	
79	330.3994414806366	movie	1		283	77.0	2.5	/experiments/knapen_AOT/AOT_stimuli/rescaled_final/1635_rv.mp4	0.0	353.6430983543396	2.492112636566162
79	331.57500982284546	pulse	1	t		77.0	2.5	/experiments/knapen_AOT/AOT_stimuli/rescaled_final/1635_rv.mp4	0.0	354.81866669654846	
79	332.89155411720276	fix_post	2		12	77.0	2.5	/experiments/knapen_AOT/AOT_stimuli/rescaled_final/1635_rv.mp4	0.0	356.13521099090576	0.09999513626098633
80	332.99154925346375	fix_pre	0		120	78.0	2.5	/experiments/knapen_AOT/AOT_stimuli/rescaled_final/1757_rv.mp4	0.0	356.23520612716675	1.0084588527679443
80	333.175096988678	pulse	0	t		78.0	2.5	/experiments/knapen_AOT/AOT_stimuli/rescaled_final/1757_rv.mp4	0.0	356.418753862381	
80	334.0000081062317	movie	1		277	78.0	2.5	/experiments/knapen_AOT/AOT_stimuli/rescaled_final/1757_rv.mp4	0.0	357.2436649799347	2.4920272827148438
80	334.77342438697815	pulse	1	t		78.0	2.5	/experiments/knapen_AOT/AOT_stimuli/rescaled_final/1757_rv.mp4	0.0	358.01708126068115	
80	336.3736307621002	pulse	1	t		78.0	2.5	/experiments/knapen_AOT/AOT_stimuli/rescaled_final/1757_rv.mp4	0.0	359.6172876358032	
80	336.49203538894653	fix_post	2		12	78.0	2.5	/experiments/knapen_AOT/AOT_stimuli/rescaled_final/1757_rv.mp4	0.0	359.73569226264954	0.10002017021179199
81	336.5920555591583	fix_pre	0		120	79.0	2.5	/experiments/knapen_AOT/AOT_stimuli/rescaled_final/1532_rv.mp4	0.0	359.8357124328613	1.0084826946258545
81	337.6005382537842	movie	1		277	79.0	2.5	/experiments/knapen_AOT/AOT_stimuli/rescaled_final/1532_rv.mp4	0.0	360.8441951274872	2.492072343826294
81	337.97528290748596	pulse	1	t		79.0	2.5	/experiments/knapen_AOT/AOT_stimuli/rescaled_final/1532_rv.mp4	0.0	361.21893978118896	
81	339.573849439621	pulse	1	t		79.0	2.5	/experiments/knapen_AOT/AOT_stimuli/rescaled_final/1532_rv.mp4	0.0	362.817506313324	
81	340.0926105976105	fix_post	2		12	79.0	2.5	/experiments/knapen_AOT/AOT_stimuli/rescaled_final/1532_rv.mp4	0.0	363.3362674713135	0.1000511646270752
82	340.19266176223755	fix_pre	0		119	80.0	2.5	/experiments/knapen_AOT/AOT_stimuli/rescaled_final/1558_rv.mp4	0.0	363.43631863594055	1.0000898838043213
82	341.17629623413086	pulse	0	t		80.0	2.5	/experiments/knapen_AOT/AOT_stimuli/rescaled_final/1558_rv.mp4	0.0	364.41995310783386	
82	341.19275164604187	movie	1		284	80.0	2.5	/experiments/knapen_AOT/AOT_stimuli/rescaled_final/1558_rv.mp4	0.0	364.4364085197449	2.5004031658172607
82	342.7748165130615	pulse	1	t		80.0	2.5	/experiments/knapen_AOT/AOT_stimuli/rescaled_final/1558_rv.mp4	0.0	366.0184733867645	
82	343.69315481185913	fix_post	2		12	80.0	2.5	/experiments/knapen_AOT/AOT_stimuli/rescaled_final/1558_rv.mp4	0.0	366.93681168556213	0.09997415542602539
83	343.79312896728516	fix_pre	0		120	81.0	2.5	/experiments/knapen_AOT/AOT_stimuli/rescaled_final/0636_rv.mp4	0.0	367.03678584098816	1.0084903240203857
83	344.37680864334106	pulse	0	t		81.0	2.5	/experiments/knapen_AOT/AOT_stimuli/rescaled_final/0636_rv.mp4	0.0	367.62046551704407	
83	344.80161929130554	movie	1		271	81.0	2.5	/experiments/knapen_AOT/AOT_stimuli/rescaled_final/0636_rv.mp4	0.0	368.04527616500854	2.4921069145202637
83	345.9750678539276	pulse	1	t		81.0	2.5	/experiments/knapen_AOT/AOT_stimuli/rescaled_final/0636_rv.mp4	0.0	369.2187247276306	
83	347.2937262058258	fix_post	2		12	81.0	2.5	/experiments/knapen_AOT/AOT_stimuli/rescaled_final/0636_rv.mp4	0.0	370.5373830795288	0.0999898910522461
84	347.39371609687805	fix_pre	0		120	82.0	2.5	blank	1.0	370.63737297058105	1.0001091957092285
84	347.577299118042	pulse	0	t		82.0	2.5	blank	1.0	370.820955991745	
84	348.3938252925873	movie	1		300	82.0	2.5	blank	1.0	371.6374821662903	2.500399351119995
84	349.17749762535095	pulse	1	t		82.0	2.5	blank	1.0	372.42115449905396	
84	350.77799916267395	pulse	1	t		82.0	2.5	blank	1.0	374.02165603637695	
84	350.8942246437073	fix_post	2		12	82.0	2.5	blank	1.0	374.1378815174103	0.10001420974731445
85	350.9942388534546	fix_pre	0		119	83.0	2.5	/experiments/knapen_AOT/AOT_stimuli/rescaled_final/0527_rv.mp4	0.0	374.2378957271576	1.0084757804870605
85	352.00271463394165	movie	1		263	83.0	2.5	/experiments/knapen_AOT/AOT_stimuli/rescaled_final/0527_rv.mp4	0.0	375.24637150764465	2.4920413494110107
85	352.37822365760803	pulse	1	t		83.0	2.5	/experiments/knapen_AOT/AOT_stimuli/rescaled_final/0527_rv.mp4	0.0	375.62188053131104	
85	353.9760117530823	pulse	1	t		83.0	2.5	/experiments/knapen_AOT/AOT_stimuli/rescaled_final/0527_rv.mp4	0.0	377.2196686267853	
85	354.49475598335266	fix_post	2		12	83.0	2.5	/experiments/knapen_AOT/AOT_stimuli/rescaled_final/0527_rv.mp4	0.0	377.73841285705566	0.09996461868286133
87	354.5947206020355	stim	0		1716					377.8383774757385	14.302201509475708
87	355.57202911376953	pulse	0	t						378.81568598747253	
87	357.1712009906769	pulse	0	t						380.4148578643799	
87	358.7709369659424	pulse	0	t						382.0145938396454	
87	360.37099623680115	pulse	0	t						383.61465311050415	
87	361.9710988998413	pulse	0	t						385.2147557735443	
87	363.5713186264038	pulse	0	t						386.8149755001068	
87	365.17174315452576	pulse	0	t						388.41540002822876	
87	366.7721211910248	pulse	0	t						390.0157780647278	
87	368.3720951080322	pulse	0	t						391.61575198173523	
