trial_nr	onset	event_type	phase	response	nr_frames	movie_index	movie_duration	movie_file	blank	onset_abs	duration
0	0.15826797485351562	stim	0		82					18.356724977493286	0.6833071708679199
0	0.8334469795227051	response	0	space						19.031903982162476	
1	0.8415751457214355	stim	0		4489					19.040032148361206	37.408116817474365
1	38.24531102180481	pulse	0	t						56.44376802444458	
1	38.2496919631958	stim	1		1717					56.44814896583557	14.308284997940063
1	39.84154915809631	pulse	1	t						58.040006160736084	
1	41.441569089889526	pulse	1	t						59.6400260925293	
1	43.0415141582489	pulse	1	t						61.23997116088867	
1	44.641582012176514	pulse	1	t						62.840039014816284	
1	46.24154305458069	pulse	1	t						64.44000005722046	
1	47.84151005744934	pulse	1	t						66.03996706008911	
1	49.44152617454529	pulse	1	t						67.63998317718506	
1	51.041496992111206	pulse	1	t						69.23995399475098	
2	52.557976961135864	fix_pre	0		11	0.0	2.5	/experiments/aot/R_S_yt-AbJBxqEYoMg_27.mp4	0.0	70.75643396377563	0.0916910171508789
2	52.64152407646179	pulse	0	t		0.0	2.5	/experiments/aot/R_S_yt-AbJBxqEYoMg_27.mp4	0.0	70.83998107910156	
2	52.64966797828674	movie	1		300	0.0	2.5	/experiments/aot/R_S_yt-AbJBxqEYoMg_27.mp4	0.0	70.84812498092651	2.50823712348938
2	54.23737096786499	pulse	1	t		0.0	2.5	/experiments/aot/R_S_yt-AbJBxqEYoMg_27.mp4	0.0	72.43582797050476	
2	55.15790510177612	fix_post	2		12	0.0	2.5	/experiments/aot/R_S_yt-AbJBxqEYoMg_27.mp4	0.0	73.3563621044159	0.10012507438659668
3	55.25803017616272	fix_pre	0		120	1.0	2.5	/experiments/aot/R_S_yt-GjFQxAklviE_25.mp4	0.0	73.45648717880249	1.0000128746032715
3	55.8415310382843	pulse	0	t		1.0	2.5	/experiments/aot/R_S_yt-GjFQxAklviE_25.mp4	0.0	74.03998804092407	
3	56.25804305076599	movie	1		300	1.0	2.5	/experiments/aot/R_S_yt-GjFQxAklviE_25.mp4	0.0	74.45650005340576	2.4994900226593018
3	57.441508054733276	pulse	1	t		1.0	2.5	/experiments/aot/R_S_yt-GjFQxAklviE_25.mp4	0.0	75.63996505737305	
3	58.75753307342529	fix_post	2		12	1.0	2.5	/experiments/aot/R_S_yt-GjFQxAklviE_25.mp4	0.0	76.95599007606506	0.1006019115447998
4	58.85813498497009	fix_pre	0		120	2.0	2.5	/experiments/aot/S_pexels-kindel-media-8165572.mp4	0.0	77.05659198760986	0.9998021125793457
4	59.041502952575684	pulse	0	t		2.0	2.5	/experiments/aot/S_pexels-kindel-media-8165572.mp4	0.0	77.23995995521545	
4	59.85793709754944	movie	1		163	2.0	2.5	/experiments/aot/S_pexels-kindel-media-8165572.mp4	0.0	78.05639410018921	2.499969959259033
4	60.6415491104126	pulse	1	t		2.0	2.5	/experiments/aot/S_pexels-kindel-media-8165572.mp4	0.0	78.84000611305237	
4	62.234676122665405	pulse	1	t		2.0	2.5	/experiments/aot/S_pexels-kindel-media-8165572.mp4	0.0	80.43313312530518	
4	62.35790705680847	fix_post	2		12	2.0	2.5	/experiments/aot/S_pexels-kindel-media-8165572.mp4	0.0	80.55636405944824	0.09995412826538086
5	62.45786118507385	fix_pre	0		120	3.0	2.5	/experiments/aot/S_IrGYVLkWeQs_9.mp4	0.0	80.65631818771362	1.0000557899475098
5	63.45791697502136	movie	1		300	3.0	2.5	/experiments/aot/S_IrGYVLkWeQs_9.mp4	0.0	81.65637397766113	2.499580144882202
5	63.8414831161499	pulse	1	t		3.0	2.5	/experiments/aot/S_IrGYVLkWeQs_9.mp4	0.0	82.03994011878967	
5	65.4416229724884	pulse	1	t		3.0	2.5	/experiments/aot/S_IrGYVLkWeQs_9.mp4	0.0	83.64007997512817	
5	65.95749711990356	fix_post	2		12	3.0	2.5	/experiments/aot/S_IrGYVLkWeQs_9.mp4	0.0	84.15595412254333	0.09999704360961914
6	66.05749416351318	fix_pre	0		119	4.0	2.5	/experiments/aot/R_S_yt-uSHBdUi8_V0_24.mp4	0.0	84.25595116615295	0.9921078681945801
6	67.04138803482056	pulse	0	t		4.0	2.5	/experiments/aot/R_S_yt-uSHBdUi8_V0_24.mp4	0.0	85.23984503746033	
6	67.04960203170776	movie	1		301	4.0	2.5	/experiments/aot/R_S_yt-uSHBdUi8_V0_24.mp4	0.0	85.24805903434753	2.5079410076141357
6	68.63747096061707	pulse	1	t		4.0	2.5	/experiments/aot/R_S_yt-uSHBdUi8_V0_24.mp4	0.0	86.83592796325684	
6	69.5575430393219	fix_post	2		12	4.0	2.5	/experiments/aot/R_S_yt-uSHBdUi8_V0_24.mp4	0.0	87.75600004196167	0.10037493705749512
7	69.6579179763794	fix_pre	0		120	5.0	2.5	/experiments/aot/S_yt-dO0OuozAgt0_225.mp4	0.0	87.85637497901917	0.9999480247497559
7	70.2415201663971	pulse	0	t		5.0	2.5	/experiments/aot/S_yt-dO0OuozAgt0_225.mp4	0.0	88.43997716903687	
7	70.65786600112915	movie	1		300	5.0	2.5	/experiments/aot/S_yt-dO0OuozAgt0_225.mp4	0.0	88.85632300376892	2.500023126602173
7	71.84135317802429	pulse	1	t		5.0	2.5	/experiments/aot/S_yt-dO0OuozAgt0_225.mp4	0.0	90.03981018066406	
7	73.15788912773132	fix_post	2		12	5.0	2.5	/experiments/aot/S_yt-dO0OuozAgt0_225.mp4	0.0	91.3563461303711	0.09997892379760742
8	73.25786805152893	fix_pre	0		120	6.0	2.5	blank	1.0	91.4563250541687	0.9999561309814453
8	73.44137406349182	pulse	0	t		6.0	2.5	blank	1.0	91.63983106613159	
8	74.25782418251038	movie	1		300	6.0	2.5	blank	1.0	92.45628118515015	2.5000648498535156
8	75.04162907600403	pulse	1	t		6.0	2.5	blank	1.0	93.2400860786438	
8	76.64148998260498	pulse	1	t		6.0	2.5	blank	1.0	94.83994698524475	
8	76.75788903236389	fix_post	2		12	6.0	2.5	blank	1.0	94.95634603500366	0.09998512268066406
9	76.85787415504456	fix_pre	0		120	7.0	2.5	/experiments/aot/R_S_pexels-laker-5793000.mp4	0.0	95.05633115768433	1.0000309944152832
9	77.85790514945984	movie	1		161	7.0	2.5	/experiments/aot/R_S_pexels-laker-5793000.mp4	0.0	96.05636215209961	2.4997940063476562
9	78.2409930229187	pulse	1	t		7.0	2.5	/experiments/aot/R_S_pexels-laker-5793000.mp4	0.0	96.43945002555847	
9	79.84149098396301	pulse	1	t		7.0	2.5	/experiments/aot/R_S_pexels-laker-5793000.mp4	0.0	98.03994798660278	
9	80.3576991558075	fix_post	2		12	7.0	2.5	/experiments/aot/R_S_pexels-laker-5793000.mp4	0.0	98.55615615844727	0.10045099258422852
10	80.45815014839172	fix_pre	0		119	8.0	2.5	/experiments/aot/R_S_pexels-tima-miroshnichenko-8724308.mp4	0.0	98.6566071510315	0.9914019107818604
10	81.44126415252686	pulse	0	t		8.0	2.5	/experiments/aot/R_S_pexels-tima-miroshnichenko-8724308.mp4	0.0	99.63972115516663	
10	81.44955205917358	movie	1		164	8.0	2.5	/experiments/aot/R_S_pexels-tima-miroshnichenko-8724308.mp4	0.0	99.64800906181335	2.508345127105713
10	83.04190707206726	pulse	1	t		8.0	2.5	/experiments/aot/R_S_pexels-tima-miroshnichenko-8724308.mp4	0.0	101.24036407470703	
10	83.9578971862793	fix_post	2		12	8.0	2.5	/experiments/aot/R_S_pexels-tima-miroshnichenko-8724308.mp4	0.0	102.15635418891907	0.09994292259216309
11	84.05784010887146	fix_pre	0		120	9.0	2.5	/experiments/aot/S_yt-K_gHa2x2OQA_319.mp4	0.0	102.25629711151123	1.0000300407409668
11	84.64254403114319	pulse	0	t		9.0	2.5	/experiments/aot/S_yt-K_gHa2x2OQA_319.mp4	0.0	102.84100103378296	
11	85.05787014961243	movie	1		300	9.0	2.5	/experiments/aot/S_yt-K_gHa2x2OQA_319.mp4	0.0	103.2563271522522	2.4999430179595947
11	86.2412281036377	pulse	1	t		9.0	2.5	/experiments/aot/S_yt-K_gHa2x2OQA_319.mp4	0.0	104.43968510627747	
11	87.55781316757202	fix_post	2		12	9.0	2.5	/experiments/aot/S_yt-K_gHa2x2OQA_319.mp4	0.0	105.75627017021179	0.10009384155273438
12	87.65790700912476	fix_pre	0		120	10.0	2.5	/experiments/aot/S_pexels-mikhail-nilov-8410084.mp4	0.0	105.85636401176453	0.99983811378479
12	87.84127712249756	pulse	0	t		10.0	2.5	/experiments/aot/S_pexels-mikhail-nilov-8410084.mp4	0.0	106.03973412513733	
12	88.65774512290955	movie	1		158	10.0	2.5	/experiments/aot/S_pexels-mikhail-nilov-8410084.mp4	0.0	106.85620212554932	2.500032901763916
12	89.44088697433472	pulse	1	t		10.0	2.5	/experiments/aot/S_pexels-mikhail-nilov-8410084.mp4	0.0	107.63934397697449	
12	91.03761696815491	pulse	1	t		10.0	2.5	/experiments/aot/S_pexels-mikhail-nilov-8410084.mp4	0.0	109.23607397079468	
12	91.15777802467346	fix_post	2		12	10.0	2.5	/experiments/aot/S_pexels-mikhail-nilov-8410084.mp4	0.0	109.35623502731323	0.1000211238861084
13	91.25779914855957	fix_pre	0		120	11.0	2.5	/experiments/aot/S_yt-Jo6PxivsTOg_247.mp4	0.0	109.45625615119934	1.0000050067901611
13	92.25780415534973	movie	1		300	11.0	2.5	/experiments/aot/S_yt-Jo6PxivsTOg_247.mp4	0.0	110.4562611579895	2.4999279975891113
13	92.64125895500183	pulse	1	t		11.0	2.5	/experiments/aot/S_yt-Jo6PxivsTOg_247.mp4	0.0	110.8397159576416	
13	94.24125504493713	pulse	1	t		11.0	2.5	/experiments/aot/S_yt-Jo6PxivsTOg_247.mp4	0.0	112.4397120475769	
13	94.75773215293884	fix_post	2		12	11.0	2.5	/experiments/aot/S_yt-Jo6PxivsTOg_247.mp4	0.0	112.95618915557861	0.1000359058380127
14	94.85776805877686	fix_pre	0		119	12.0	2.5	/experiments/aot/S_yt-F3hhts3bwWg_25.mp4	0.0	113.05622506141663	0.9917409420013428
14	95.84122610092163	pulse	0	t		12.0	2.5	/experiments/aot/S_yt-F3hhts3bwWg_25.mp4	0.0	114.0396831035614	
14	95.8495090007782	movie	1		301	12.0	2.5	/experiments/aot/S_yt-F3hhts3bwWg_25.mp4	0.0	114.04796600341797	2.508242130279541
14	97.43776416778564	pulse	1	t		12.0	2.5	/experiments/aot/S_yt-F3hhts3bwWg_25.mp4	0.0	115.63622117042542	
14	98.35775113105774	fix_post	2		12	12.0	2.5	/experiments/aot/S_yt-F3hhts3bwWg_25.mp4	0.0	116.55620813369751	0.09993696212768555
15	98.45768809318542	fix_pre	0		120	13.0	2.5	/experiments/aot/R_S_yt-6aqg1P9YqR8_38.mp4	0.0	116.6561450958252	1.0000169277191162
15	99.04127311706543	pulse	0	t		13.0	2.5	/experiments/aot/R_S_yt-6aqg1P9YqR8_38.mp4	0.0	117.2397301197052	
15	99.45770502090454	movie	1		300	13.0	2.5	/experiments/aot/R_S_yt-6aqg1P9YqR8_38.mp4	0.0	117.65616202354431	2.49997615814209
15	100.64130902290344	pulse	1	t		13.0	2.5	/experiments/aot/R_S_yt-6aqg1P9YqR8_38.mp4	0.0	118.83976602554321	
15	101.95768117904663	fix_post	2		12	13.0	2.5	/experiments/aot/R_S_yt-6aqg1P9YqR8_38.mp4	0.0	120.1561381816864	0.1000368595123291
16	102.05771803855896	fix_pre	0		120	14.0	2.5	blank	1.0	120.25617504119873	0.9996259212493896
16	102.24130606651306	pulse	0	t		14.0	2.5	blank	1.0	120.43976306915283	
16	103.05734395980835	movie	1		300	14.0	2.5	blank	1.0	121.25580096244812	2.5004401206970215
16	103.84131217002869	pulse	1	t		14.0	2.5	blank	1.0	122.03976917266846	
16	105.44126796722412	pulse	1	t		14.0	2.5	blank	1.0	123.63972496986389	
16	105.55778408050537	fix_post	2		12	14.0	2.5	blank	1.0	123.75624108314514	0.09949302673339844
17	105.65727710723877	fix_pre	0		120	15.0	2.5	/experiments/aot/R_S_yt-BAQ3Xhm_PPE_23.mp4	0.0	123.85573410987854	1.000452995300293
17	106.65773010253906	movie	1		300	15.0	2.5	/experiments/aot/R_S_yt-BAQ3Xhm_PPE_23.mp4	0.0	124.85618710517883	2.4999380111694336
17	107.04129195213318	pulse	1	t		15.0	2.5	/experiments/aot/R_S_yt-BAQ3Xhm_PPE_23.mp4	0.0	125.23974895477295	
17	108.6412181854248	pulse	1	t		15.0	2.5	/experiments/aot/R_S_yt-BAQ3Xhm_PPE_23.mp4	0.0	126.83967518806458	
17	109.1576681137085	fix_post	2		12	15.0	2.5	/experiments/aot/R_S_yt-BAQ3Xhm_PPE_23.mp4	0.0	127.35612511634827	0.10000801086425781
18	109.25767612457275	fix_pre	0		119	16.0	2.5	/experiments/aot/R_S_yt-sPhtPyQM00c_106.mp4	0.0	127.45613312721252	0.9916739463806152
18	110.24127507209778	pulse	0	t		16.0	2.5	/experiments/aot/R_S_yt-sPhtPyQM00c_106.mp4	0.0	128.43973207473755	
18	110.24935007095337	movie	1		301	16.0	2.5	/experiments/aot/R_S_yt-sPhtPyQM00c_106.mp4	0.0	128.44780707359314	2.508404016494751
18	111.83710408210754	pulse	1	t		16.0	2.5	/experiments/aot/R_S_yt-sPhtPyQM00c_106.mp4	0.0	130.03556108474731	
18	112.75775408744812	fix_post	2		12	16.0	2.5	/experiments/aot/R_S_yt-sPhtPyQM00c_106.mp4	0.0	130.9562110900879	0.10001087188720703
19	112.85776495933533	fix_pre	0		120	17.0	2.5	/experiments/aot/S_yt-mL3MuCfKtdY_79.mp4	0.0	131.0562219619751	0.9995291233062744
19	113.4413390159607	pulse	0	t		17.0	2.5	/experiments/aot/S_yt-mL3MuCfKtdY_79.mp4	0.0	131.63979601860046	
19	113.8572940826416	movie	1		300	17.0	2.5	/experiments/aot/S_yt-mL3MuCfKtdY_79.mp4	0.0	132.05575108528137	2.5003318786621094
19	115.04114508628845	pulse	1	t		17.0	2.5	/experiments/aot/S_yt-mL3MuCfKtdY_79.mp4	0.0	133.23960208892822	
19	116.35762596130371	fix_post	2		12	17.0	2.5	/experiments/aot/S_yt-mL3MuCfKtdY_79.mp4	0.0	134.55608296394348	0.09965705871582031
20	116.45728302001953	fix_pre	0		120	18.0	2.5	/experiments/aot/S_yt-qurTr1BJMec_244.mp4	0.0	134.6557400226593	1.0003759860992432
20	116.64121198654175	pulse	0	t		18.0	2.5	/experiments/aot/S_yt-qurTr1BJMec_244.mp4	0.0	134.83966898918152	
20	117.45765900611877	movie	1		300	18.0	2.5	/experiments/aot/S_yt-qurTr1BJMec_244.mp4	0.0	135.65611600875854	2.5
20	118.2413101196289	pulse	1	t		18.0	2.5	/experiments/aot/S_yt-qurTr1BJMec_244.mp4	0.0	136.43976712226868	
20	119.84111499786377	pulse	1	t		18.0	2.5	/experiments/aot/S_yt-qurTr1BJMec_244.mp4	0.0	138.03957200050354	
20	119.95765900611877	fix_post	2		12	18.0	2.5	/experiments/aot/S_yt-qurTr1BJMec_244.mp4	0.0	138.15611600875854	0.10001111030578613
21	120.05767011642456	fix_pre	0		120	19.0	2.5	blank	1.0	138.25612711906433	0.9999470710754395
21	121.0576171875	movie	1		300	19.0	2.5	blank	1.0	139.25607419013977	2.500121831893921
21	121.4412260055542	pulse	1	t		19.0	2.5	blank	1.0	139.63968300819397	
21	123.04131507873535	pulse	1	t		19.0	2.5	blank	1.0	141.23977208137512	
21	123.55773901939392	fix_post	2		12	19.0	2.5	blank	1.0	141.7561960220337	0.09987902641296387
22	123.65761804580688	fix_pre	0		119	20.0	2.5	/experiments/aot/R_S_ILSVRC2015_train_00165009.mp4	0.0	141.85607504844666	0.9916720390319824
22	124.64109802246094	pulse	0	t		20.0	2.5	/experiments/aot/R_S_ILSVRC2015_train_00165009.mp4	0.0	142.8395550251007	
22	124.64929008483887	movie	1		301	20.0	2.5	/experiments/aot/R_S_ILSVRC2015_train_00165009.mp4	0.0	142.84774708747864	2.5083088874816895
22	126.23713302612305	pulse	1	t		20.0	2.5	/experiments/aot/R_S_ILSVRC2015_train_00165009.mp4	0.0	144.43559002876282	
22	127.15759897232056	fix_post	2		12	20.0	2.5	/experiments/aot/R_S_ILSVRC2015_train_00165009.mp4	0.0	145.35605597496033	0.09997415542602539
23	127.25757312774658	fix_pre	0		120	21.0	2.5	/experiments/aot/S_yt-kINZMjys3O4_112.mp4	0.0	145.45603013038635	1.000040054321289
23	127.84118509292603	pulse	0	t		21.0	2.5	/experiments/aot/S_yt-kINZMjys3O4_112.mp4	0.0	146.0396420955658	
23	128.25761318206787	movie	1		300	21.0	2.5	/experiments/aot/S_yt-kINZMjys3O4_112.mp4	0.0	146.45607018470764	2.5000038146972656
23	129.44112515449524	pulse	1	t		21.0	2.5	/experiments/aot/S_yt-kINZMjys3O4_112.mp4	0.0	147.639582157135	
23	130.75761699676514	fix_post	2		12	21.0	2.5	/experiments/aot/S_yt-kINZMjys3O4_112.mp4	0.0	148.9560739994049	0.10001301765441895
24	130.85763001441956	fix_pre	0		120	22.0	2.5	/experiments/aot/R_S_yt-0xzYSBvVfYM_197.mp4	0.0	149.05608701705933	0.9999790191650391
24	131.04121613502502	pulse	0	t		22.0	2.5	/experiments/aot/R_S_yt-0xzYSBvVfYM_197.mp4	0.0	149.2396731376648	
24	131.8576090335846	movie	1		300	22.0	2.5	/experiments/aot/R_S_yt-0xzYSBvVfYM_197.mp4	0.0	150.05606603622437	2.499674081802368
24	132.64107203483582	pulse	1	t		22.0	2.5	/experiments/aot/R_S_yt-0xzYSBvVfYM_197.mp4	0.0	150.8395290374756	
24	134.24069499969482	pulse	1	t		22.0	2.5	/experiments/aot/R_S_yt-0xzYSBvVfYM_197.mp4	0.0	152.4391520023346	
24	134.35728311538696	fix_post	2		12	22.0	2.5	/experiments/aot/R_S_yt-0xzYSBvVfYM_197.mp4	0.0	152.55574011802673	0.10000300407409668
25	134.45728611946106	fix_pre	0		120	23.0	2.5	/experiments/aot/S_yt-EAMpitsjbbA_153.mp4	0.0	152.65574312210083	1.0001139640808105
25	135.45740008354187	movie	1		300	23.0	2.5	/experiments/aot/S_yt-EAMpitsjbbA_153.mp4	0.0	153.65585708618164	2.500322103500366
25	135.84086418151855	pulse	1	t		23.0	2.5	/experiments/aot/S_yt-EAMpitsjbbA_153.mp4	0.0	154.03932118415833	
25	137.44098806381226	pulse	1	t		23.0	2.5	/experiments/aot/S_yt-EAMpitsjbbA_153.mp4	0.0	155.63944506645203	
25	137.95772218704224	fix_post	2		12	23.0	2.5	/experiments/aot/S_yt-EAMpitsjbbA_153.mp4	0.0	156.156179189682	0.09989690780639648
26	138.05761909484863	fix_pre	0		119	24.0	2.5	/experiments/aot/S_yt-eF5J5Kjt6oY_23.mp4	0.0	156.2560760974884	0.9916160106658936
26	139.04119110107422	pulse	0	t		24.0	2.5	/experiments/aot/S_yt-eF5J5Kjt6oY_23.mp4	0.0	157.239648103714	
26	139.04923510551453	movie	1		301	24.0	2.5	/experiments/aot/S_yt-eF5J5Kjt6oY_23.mp4	0.0	157.2476921081543	2.50826096534729
26	140.63687205314636	pulse	1	t		24.0	2.5	/experiments/aot/S_yt-eF5J5Kjt6oY_23.mp4	0.0	158.83532905578613	
26	141.55749607086182	fix_post	2		12	24.0	2.5	/experiments/aot/S_yt-eF5J5Kjt6oY_23.mp4	0.0	159.7559530735016	0.10010504722595215
27	141.65760111808777	fix_pre	0		120	25.0	2.5	/experiments/aot/R_S_ILSVRC2015_train_00559000.mp4	0.0	159.85605812072754	0.9995250701904297
27	142.24100995063782	pulse	0	t		25.0	2.5	/experiments/aot/R_S_ILSVRC2015_train_00559000.mp4	0.0	160.4394669532776	
27	142.6571261882782	movie	1		300	25.0	2.5	/experiments/aot/R_S_ILSVRC2015_train_00559000.mp4	0.0	160.85558319091797	2.5004918575286865
27	143.84109902381897	pulse	1	t		25.0	2.5	/experiments/aot/R_S_ILSVRC2015_train_00559000.mp4	0.0	162.03955602645874	
27	145.15761804580688	fix_post	2		12	25.0	2.5	/experiments/aot/R_S_ILSVRC2015_train_00559000.mp4	0.0	163.35607504844666	0.0999000072479248
28	145.2575180530548	fix_pre	0		120	26.0	2.5	/experiments/aot/R_S_Pexels_Videos_2791797.mp4	0.0	163.45597505569458	0.9999990463256836
28	145.44103407859802	pulse	0	t		26.0	2.5	/experiments/aot/R_S_Pexels_Videos_2791797.mp4	0.0	163.6394910812378	
28	146.2575170993805	movie	1		163	26.0	2.5	/experiments/aot/R_S_Pexels_Videos_2791797.mp4	0.0	164.45597410202026	2.500067949295044
28	147.0411159992218	pulse	1	t		26.0	2.5	/experiments/aot/R_S_Pexels_Videos_2791797.mp4	0.0	165.23957300186157	
28	148.64105606079102	pulse	1	t		26.0	2.5	/experiments/aot/R_S_Pexels_Videos_2791797.mp4	0.0	166.8395130634308	
28	148.75758504867554	fix_post	2		12	26.0	2.5	/experiments/aot/R_S_Pexels_Videos_2791797.mp4	0.0	166.9560420513153	0.09993910789489746
29	148.85752415657043	fix_pre	0		120	27.0	2.5	blank	1.0	167.0559811592102	0.9999768733978271
29	149.85750102996826	movie	1		300	27.0	2.5	blank	1.0	168.05595803260803	2.500030040740967
29	150.24096417427063	pulse	1	t		27.0	2.5	blank	1.0	168.4394211769104	
29	151.8410279750824	pulse	1	t		27.0	2.5	blank	1.0	170.03948497772217	
29	152.35753107070923	fix_post	2		12	27.0	2.5	blank	1.0	170.555988073349	0.0999150276184082
30	152.45744609832764	fix_pre	0		119	28.0	2.5	/experiments/aot/S_ILSVRC2015_train_00369000.mp4	0.0	170.6559031009674	0.9916908740997314
30	153.4409601688385	pulse	0	t		28.0	2.5	/experiments/aot/S_ILSVRC2015_train_00369000.mp4	0.0	171.63941717147827	
30	153.44913697242737	movie	1		301	28.0	2.5	/experiments/aot/S_ILSVRC2015_train_00369000.mp4	0.0	171.64759397506714	2.5082650184631348
30	155.0370590686798	pulse	1	t		28.0	2.5	/experiments/aot/S_ILSVRC2015_train_00369000.mp4	0.0	173.23551607131958	
30	155.9574019908905	fix_post	2		12	28.0	2.5	/experiments/aot/S_ILSVRC2015_train_00369000.mp4	0.0	174.15585899353027	0.10004806518554688
31	156.05745005607605	fix_pre	0		120	29.0	2.5	/experiments/aot/S_yt-2lnxIdOTxog_157.mp4	0.0	174.25590705871582	0.9999780654907227
31	156.6409831047058	pulse	0	t		29.0	2.5	/experiments/aot/S_yt-2lnxIdOTxog_157.mp4	0.0	174.83944010734558	
31	157.05742812156677	movie	1		300	29.0	2.5	/experiments/aot/S_yt-2lnxIdOTxog_157.mp4	0.0	175.25588512420654	2.499760866165161
31	158.2409520149231	pulse	1	t		29.0	2.5	/experiments/aot/S_yt-2lnxIdOTxog_157.mp4	0.0	176.43940901756287	
31	159.55718898773193	fix_post	2		12	29.0	2.5	/experiments/aot/S_yt-2lnxIdOTxog_157.mp4	0.0	177.7556459903717	0.10022616386413574
32	159.65741515159607	fix_pre	0		120	30.0	2.5	/experiments/aot/R_S_ILSVRC2015_train_00417000.mp4	0.0	177.85587215423584	1.0001609325408936
32	159.84095001220703	pulse	0	t		30.0	2.5	/experiments/aot/R_S_ILSVRC2015_train_00417000.mp4	0.0	178.0394070148468	
32	160.65757608413696	movie	1		300	30.0	2.5	/experiments/aot/R_S_ILSVRC2015_train_00417000.mp4	0.0	178.85603308677673	2.499830961227417
32	161.44099116325378	pulse	1	t		30.0	2.5	/experiments/aot/R_S_ILSVRC2015_train_00417000.mp4	0.0	179.63944816589355	
32	163.0409619808197	pulse	1	t		30.0	2.5	/experiments/aot/R_S_ILSVRC2015_train_00417000.mp4	0.0	181.23941898345947	
32	163.15740704536438	fix_post	2		12	30.0	2.5	/experiments/aot/R_S_ILSVRC2015_train_00417000.mp4	0.0	181.35586404800415	0.10002398490905762
33	163.25743103027344	fix_pre	0		120	31.0	2.5	/experiments/aot/S_yt--5ls65Ue1RA_52.mp4	0.0	181.4558880329132	1.0000369548797607
33	164.2574679851532	movie	1		300	31.0	2.5	/experiments/aot/S_yt--5ls65Ue1RA_52.mp4	0.0	182.45592498779297	2.499556064605713
33	164.64090418815613	pulse	1	t		31.0	2.5	/experiments/aot/S_yt--5ls65Ue1RA_52.mp4	0.0	182.8393611907959	
33	166.24098896980286	pulse	1	t		31.0	2.5	/experiments/aot/S_yt--5ls65Ue1RA_52.mp4	0.0	184.43944597244263	
33	166.7570240497589	fix_post	2		12	31.0	2.5	/experiments/aot/S_yt--5ls65Ue1RA_52.mp4	0.0	184.95548105239868	0.10035896301269531
34	166.8573830127716	fix_pre	0		119	32.0	2.5	/experiments/aot/R_S_yt-RlHmMGUjT9E_130.mp4	0.0	185.05584001541138	0.9917421340942383
34	167.8409640789032	pulse	0	t		32.0	2.5	/experiments/aot/R_S_yt-RlHmMGUjT9E_130.mp4	0.0	186.03942108154297	
34	167.84912514686584	movie	1		301	32.0	2.5	/experiments/aot/R_S_yt-RlHmMGUjT9E_130.mp4	0.0	186.04758214950562	2.5082318782806396
34	169.43673515319824	pulse	1	t		32.0	2.5	/experiments/aot/R_S_yt-RlHmMGUjT9E_130.mp4	0.0	187.635192155838	
34	170.35735702514648	fix_post	2		12	32.0	2.5	/experiments/aot/R_S_yt-RlHmMGUjT9E_130.mp4	0.0	188.55581402778625	0.10006403923034668
35	170.45742106437683	fix_pre	0		120	33.0	2.5	/experiments/aot/R_S_ILSVRC2015_train_00165012.mp4	0.0	188.6558780670166	0.9999890327453613
35	171.04097604751587	pulse	0	t		33.0	2.5	/experiments/aot/R_S_ILSVRC2015_train_00165012.mp4	0.0	189.23943305015564	
35	171.4574100971222	movie	1		299	33.0	2.5	/experiments/aot/R_S_ILSVRC2015_train_00165012.mp4	0.0	189.65586709976196	2.499600887298584
35	172.640949010849	pulse	1	t		33.0	2.5	/experiments/aot/R_S_ILSVRC2015_train_00165012.mp4	0.0	190.83940601348877	
35	173.95701098442078	fix_post	2		12	33.0	2.5	/experiments/aot/R_S_ILSVRC2015_train_00165012.mp4	0.0	192.15546798706055	0.10055112838745117
36	174.05756211280823	fix_pre	0		120	34.0	2.5	blank	1.0	192.256019115448	0.9998888969421387
36	174.24094414710999	pulse	0	t		34.0	2.5	blank	1.0	192.43940114974976	
36	175.05745100975037	movie	1		300	34.0	2.5	blank	1.0	193.25590801239014	2.4999489784240723
36	175.8409149646759	pulse	1	t		34.0	2.5	blank	1.0	194.03937196731567	
36	177.44089603424072	pulse	1	t		34.0	2.5	blank	1.0	195.6393530368805	
36	177.55739998817444	fix_post	2		12	34.0	2.5	blank	1.0	195.7558569908142	0.09960198402404785
37	177.6570019721985	fix_pre	0		120	35.0	2.5	/experiments/aot/R_S_comp_DB_D002_C003_PSNK_v04_SDR_PS_20180914_SDR_2K_AVC.mp4	0.0	195.85545897483826	1.0
37	178.6570019721985	movie	1		163	35.0	2.5	/experiments/aot/R_S_comp_DB_D002_C003_PSNK_v04_SDR_PS_20180914_SDR_2K_AVC.mp4	0.0	196.85545897483826	2.5004031658172607
37	179.0408730506897	pulse	1	t		35.0	2.5	/experiments/aot/R_S_comp_DB_D002_C003_PSNK_v04_SDR_PS_20180914_SDR_2K_AVC.mp4	0.0	197.23933005332947	
37	180.640869140625	pulse	1	t		35.0	2.5	/experiments/aot/R_S_comp_DB_D002_C003_PSNK_v04_SDR_PS_20180914_SDR_2K_AVC.mp4	0.0	198.83932614326477	
37	181.15740513801575	fix_post	2		12	35.0	2.5	/experiments/aot/R_S_comp_DB_D002_C003_PSNK_v04_SDR_PS_20180914_SDR_2K_AVC.mp4	0.0	199.35586214065552	0.10000896453857422
38	181.25741410255432	fix_pre	0		119	36.0	2.5	/experiments/aot/R_S_yt-kINZMjys3O4_112.mp4	0.0	199.4558711051941	0.9916610717773438
38	182.2408640384674	pulse	0	t		36.0	2.5	/experiments/aot/R_S_yt-kINZMjys3O4_112.mp4	0.0	200.43932104110718	
38	182.24907517433167	movie	1		301	36.0	2.5	/experiments/aot/R_S_yt-kINZMjys3O4_112.mp4	0.0	200.44753217697144	2.507838010787964
38	183.83666801452637	pulse	1	t		36.0	2.5	/experiments/aot/R_S_yt-kINZMjys3O4_112.mp4	0.0	202.03512501716614	
38	184.75691318511963	fix_post	2		12	36.0	2.5	/experiments/aot/R_S_yt-kINZMjys3O4_112.mp4	0.0	202.9553701877594	0.10050392150878906
39	184.85741710662842	fix_pre	0		120	37.0	2.5	/experiments/aot/R_S_yt-EuyfT0PuOoQ_91.mp4	0.0	203.0558741092682	0.9995639324188232
39	185.44093418121338	pulse	0	t		37.0	2.5	/experiments/aot/R_S_yt-EuyfT0PuOoQ_91.mp4	0.0	203.63939118385315	
39	185.85698103904724	movie	1		299	37.0	2.5	/experiments/aot/R_S_yt-EuyfT0PuOoQ_91.mp4	0.0	204.055438041687	2.500361919403076
39	187.04086208343506	pulse	1	t		37.0	2.5	/experiments/aot/R_S_yt-EuyfT0PuOoQ_91.mp4	0.0	205.23931908607483	
39	188.35734295845032	fix_post	2		12	37.0	2.5	/experiments/aot/R_S_yt-EuyfT0PuOoQ_91.mp4	0.0	206.5557999610901	0.09998321533203125
40	188.45732617378235	fix_pre	0		120	38.0	2.5	/experiments/aot/S_yt-4rwBpRuHg-c_1308.mp4	0.0	206.65578317642212	1.0000889301300049
40	188.6408450603485	pulse	0	t		38.0	2.5	/experiments/aot/S_yt-4rwBpRuHg-c_1308.mp4	0.0	206.83930206298828	
40	189.45741510391235	movie	1		300	38.0	2.5	/experiments/aot/S_yt-4rwBpRuHg-c_1308.mp4	0.0	207.65587210655212	2.5001819133758545
40	190.2403860092163	pulse	1	t		38.0	2.5	/experiments/aot/S_yt-4rwBpRuHg-c_1308.mp4	0.0	208.43884301185608	
40	191.84101915359497	pulse	1	t		38.0	2.5	/experiments/aot/S_yt-4rwBpRuHg-c_1308.mp4	0.0	210.03947615623474	
40	191.9575970172882	fix_post	2		12	38.0	2.5	/experiments/aot/S_yt-4rwBpRuHg-c_1308.mp4	0.0	210.15605401992798	0.09951400756835938
41	192.05711102485657	fix_pre	0		120	39.0	2.5	/experiments/aot/R_S_yt-cjndulbUtRc_51.mp4	0.0	210.25556802749634	1.000204086303711
41	193.05731511116028	movie	1		300	39.0	2.5	/experiments/aot/R_S_yt-cjndulbUtRc_51.mp4	0.0	211.25577211380005	2.4996109008789062
41	193.44081497192383	pulse	1	t		39.0	2.5	/experiments/aot/R_S_yt-cjndulbUtRc_51.mp4	0.0	211.6392719745636	
41	195.04080605506897	pulse	1	t		39.0	2.5	/experiments/aot/R_S_yt-cjndulbUtRc_51.mp4	0.0	213.23926305770874	
41	195.55692601203918	fix_post	2		12	39.0	2.5	/experiments/aot/R_S_yt-cjndulbUtRc_51.mp4	0.0	213.75538301467896	0.10002017021179199
42	195.65694618225098	fix_pre	0		119	40.0	2.5	/experiments/aot/R_S_yt-wnQFgNEnHUI_109.mp4	0.0	213.85540318489075	0.9920139312744141
42	196.6407871246338	pulse	0	t		40.0	2.5	/experiments/aot/R_S_yt-wnQFgNEnHUI_109.mp4	0.0	214.83924412727356	
42	196.6489601135254	movie	1		301	40.0	2.5	/experiments/aot/R_S_yt-wnQFgNEnHUI_109.mp4	0.0	214.84741711616516	2.5083210468292236
42	198.23643016815186	pulse	1	t		40.0	2.5	/experiments/aot/R_S_yt-wnQFgNEnHUI_109.mp4	0.0	216.43488717079163	
42	199.15728116035461	fix_post	2		12	40.0	2.5	/experiments/aot/R_S_yt-wnQFgNEnHUI_109.mp4	0.0	217.35573816299438	0.09998202323913574
43	199.25726318359375	fix_pre	0		120	41.0	2.5	/experiments/aot/R_S_yt-j3Sk8ZnAiEA_32.mp4	0.0	217.45572018623352	1.0000028610229492
43	199.84083104133606	pulse	0	t		41.0	2.5	/experiments/aot/R_S_yt-j3Sk8ZnAiEA_32.mp4	0.0	218.03928804397583	
43	200.2572660446167	movie	1		300	41.0	2.5	/experiments/aot/R_S_yt-j3Sk8ZnAiEA_32.mp4	0.0	218.45572304725647	2.4999380111694336
43	201.44073915481567	pulse	1	t		41.0	2.5	/experiments/aot/R_S_yt-j3Sk8ZnAiEA_32.mp4	0.0	219.63919615745544	
43	202.75720405578613	fix_post	2		12	41.0	2.5	/experiments/aot/R_S_yt-j3Sk8ZnAiEA_32.mp4	0.0	220.9556610584259	0.10001993179321289
44	202.85722398757935	fix_pre	0		120	42.0	2.5	blank	1.0	221.05568099021912	0.9999511241912842
44	203.04076409339905	pulse	0	t		42.0	2.5	blank	1.0	221.23922109603882	
44	203.85717511177063	movie	1		300	42.0	2.5	blank	1.0	222.0556321144104	2.500072956085205
44	204.64083218574524	pulse	1	t		42.0	2.5	blank	1.0	222.839289188385	
44	206.24081897735596	pulse	1	t		42.0	2.5	blank	1.0	224.43927597999573	
44	206.35724806785583	fix_post	2		12	42.0	2.5	blank	1.0	224.5557050704956	0.09993505477905273
45	206.4571831226349	fix_pre	0		120	43.0	2.5	/experiments/aot/S_yt-7W50lcw5FCo_37.mp4	0.0	224.65564012527466	1.0000629425048828
45	207.45724606513977	movie	1		300	43.0	2.5	/experiments/aot/S_yt-7W50lcw5FCo_37.mp4	0.0	225.65570306777954	2.5000030994415283
45	207.8407871723175	pulse	1	t		43.0	2.5	/experiments/aot/S_yt-7W50lcw5FCo_37.mp4	0.0	226.03924417495728	
45	209.44066405296326	pulse	1	t		43.0	2.5	/experiments/aot/S_yt-7W50lcw5FCo_37.mp4	0.0	227.63912105560303	
45	209.9572491645813	fix_post	2		12	43.0	2.5	/experiments/aot/S_yt-7W50lcw5FCo_37.mp4	0.0	228.15570616722107	0.09998297691345215
46	210.05723214149475	fix_pre	0		119	44.0	2.5	/experiments/aot/S_yt-Bx2kLEUuN0E_456.mp4	0.0	228.25568914413452	0.991595983505249
46	211.04074096679688	pulse	0	t		44.0	2.5	/experiments/aot/S_yt-Bx2kLEUuN0E_456.mp4	0.0	229.23919796943665	
46	211.048828125	movie	1		301	44.0	2.5	/experiments/aot/S_yt-Bx2kLEUuN0E_456.mp4	0.0	229.24728512763977	2.508453845977783
46	212.6364710330963	pulse	1	t		44.0	2.5	/experiments/aot/S_yt-Bx2kLEUuN0E_456.mp4	0.0	230.83492803573608	
46	213.55728197097778	fix_post	2		12	44.0	2.5	/experiments/aot/S_yt-Bx2kLEUuN0E_456.mp4	0.0	231.75573897361755	0.09998607635498047
47	213.65726804733276	fix_pre	0		120	45.0	2.5	/experiments/aot/S_yt-22c5eZ1UNME_76.mp4	0.0	231.85572504997253	0.9999251365661621
47	214.24069499969482	pulse	0	t		45.0	2.5	/experiments/aot/S_yt-22c5eZ1UNME_76.mp4	0.0	232.4391520023346	
47	214.65719318389893	movie	1		300	45.0	2.5	/experiments/aot/S_yt-22c5eZ1UNME_76.mp4	0.0	232.8556501865387	2.4996228218078613
47	215.84067702293396	pulse	1	t		45.0	2.5	/experiments/aot/S_yt-22c5eZ1UNME_76.mp4	0.0	234.03913402557373	
47	217.1568160057068	fix_post	2		12	45.0	2.5	/experiments/aot/S_yt-22c5eZ1UNME_76.mp4	0.0	235.35527300834656	0.10044598579406738
48	217.25726199150085	fix_pre	0		120	46.0	2.5	/experiments/aot/R_S_yt-06XMUn9DTKc_35.mp4	0.0	235.45571899414062	0.9998941421508789
48	217.44071698188782	pulse	0	t		46.0	2.5	/experiments/aot/R_S_yt-06XMUn9DTKc_35.mp4	0.0	235.6391739845276	
48	218.25715613365173	movie	1		300	46.0	2.5	/experiments/aot/R_S_yt-06XMUn9DTKc_35.mp4	0.0	236.4556131362915	2.5000178813934326
48	219.0406301021576	pulse	1	t		46.0	2.5	/experiments/aot/R_S_yt-06XMUn9DTKc_35.mp4	0.0	237.23908710479736	
48	220.63515615463257	pulse	1	t		46.0	2.5	/experiments/aot/R_S_yt-06XMUn9DTKc_35.mp4	0.0	238.83361315727234	
48	220.75717401504517	fix_post	2		12	46.0	2.5	/experiments/aot/R_S_yt-06XMUn9DTKc_35.mp4	0.0	238.95563101768494	0.1000981330871582
49	220.85727214813232	fix_pre	0		120	47.0	2.5	blank	1.0	239.0557291507721	0.999953031539917
49	221.85722517967224	movie	1		300	47.0	2.5	blank	1.0	240.055682182312	2.499941825866699
49	222.240709066391	pulse	1	t		47.0	2.5	blank	1.0	240.43916606903076	
49	223.8406331539154	pulse	1	t		47.0	2.5	blank	1.0	242.03909015655518	
49	224.35716700553894	fix_post	2		12	47.0	2.5	blank	1.0	242.5556240081787	0.09957313537597656
50	224.45674014091492	fix_pre	0		119	48.0	2.5	/experiments/aot/R_S_yt-ejSzwn8tY8g_49.mp4	0.0	242.6551971435547	0.992236852645874
50	225.44064211845398	pulse	0	t		48.0	2.5	/experiments/aot/R_S_yt-ejSzwn8tY8g_49.mp4	0.0	243.63909912109375	
50	225.4489769935608	movie	1		301	48.0	2.5	/experiments/aot/R_S_yt-ejSzwn8tY8g_49.mp4	0.0	243.64743399620056	2.508172035217285
50	227.0363371372223	pulse	1	t		48.0	2.5	/experiments/aot/R_S_yt-ejSzwn8tY8g_49.mp4	0.0	245.23479413986206	
50	227.95714902877808	fix_post	2		12	48.0	2.5	/experiments/aot/R_S_yt-ejSzwn8tY8g_49.mp4	0.0	246.15560603141785	0.09999203681945801
51	228.05714106559753	fix_pre	0		120	49.0	2.5	/experiments/aot/R_S_ILSVRC2015_train_00473000.mp4	0.0	246.2555980682373	1.0001211166381836
51	228.64059209823608	pulse	0	t		49.0	2.5	/experiments/aot/R_S_ILSVRC2015_train_00473000.mp4	0.0	246.83904910087585	
51	229.05726218223572	movie	1		300	49.0	2.5	/experiments/aot/R_S_ILSVRC2015_train_00473000.mp4	0.0	247.2557191848755	2.4998598098754883
51	230.2406520843506	pulse	1	t		49.0	2.5	/experiments/aot/R_S_ILSVRC2015_train_00473000.mp4	0.0	248.43910908699036	
51	231.5571219921112	fix_post	2		12	49.0	2.5	/experiments/aot/R_S_ILSVRC2015_train_00473000.mp4	0.0	249.75557899475098	0.09965395927429199
52	231.6567759513855	fix_pre	0		120	50.0	2.5	/experiments/aot/S_yt-HMAa2QbfFPI_216.mp4	0.0	249.85523295402527	1.0003681182861328
52	231.84064602851868	pulse	0	t		50.0	2.5	/experiments/aot/S_yt-HMAa2QbfFPI_216.mp4	0.0	250.03910303115845	
52	232.65714406967163	movie	1		300	50.0	2.5	/experiments/aot/S_yt-HMAa2QbfFPI_216.mp4	0.0	250.8556010723114	2.499941110610962
52	233.44060516357422	pulse	1	t		50.0	2.5	/experiments/aot/S_yt-HMAa2QbfFPI_216.mp4	0.0	251.639062166214	
52	235.0406529903412	pulse	1	t		50.0	2.5	/experiments/aot/S_yt-HMAa2QbfFPI_216.mp4	0.0	253.23910999298096	
52	235.1570851802826	fix_post	2		12	50.0	2.5	/experiments/aot/S_yt-HMAa2QbfFPI_216.mp4	0.0	253.35554218292236	0.09993290901184082
53	235.25701808929443	fix_pre	0		120	51.0	2.5	/experiments/aot/R_S_comp_GL_G002_C002_PSNK_v03_SDR_PS_20180925_SDR_2K_AVC.mp4	0.0	253.4554750919342	1.0000340938568115
53	236.25705218315125	movie	1		163	51.0	2.5	/experiments/aot/R_S_comp_GL_G002_C002_PSNK_v03_SDR_PS_20180925_SDR_2K_AVC.mp4	0.0	254.45550918579102	2.500032901763916
53	236.64056015014648	pulse	1	t		51.0	2.5	/experiments/aot/R_S_comp_GL_G002_C002_PSNK_v03_SDR_PS_20180925_SDR_2K_AVC.mp4	0.0	254.83901715278625	
53	238.24076414108276	pulse	1	t		51.0	2.5	/experiments/aot/R_S_comp_GL_G002_C002_PSNK_v03_SDR_PS_20180925_SDR_2K_AVC.mp4	0.0	256.43922114372253	
53	238.75708508491516	fix_post	2		12	51.0	2.5	/experiments/aot/R_S_comp_GL_G002_C002_PSNK_v03_SDR_PS_20180925_SDR_2K_AVC.mp4	0.0	256.95554208755493	0.09973287582397461
54	238.85681796073914	fix_pre	0		119	52.0	2.5	/experiments/aot/R_S_yt-rB3YVZvA78w_20.mp4	0.0	257.0552749633789	0.9919531345367432
54	239.84065198898315	pulse	0	t		52.0	2.5	/experiments/aot/R_S_yt-rB3YVZvA78w_20.mp4	0.0	258.0391089916229	
54	239.84877109527588	movie	1		301	52.0	2.5	/experiments/aot/R_S_yt-rB3YVZvA78w_20.mp4	0.0	258.04722809791565	2.5083489418029785
54	241.4365050792694	pulse	1	t		52.0	2.5	/experiments/aot/R_S_yt-rB3YVZvA78w_20.mp4	0.0	259.6349620819092	
54	242.35712003707886	fix_post	2		12	52.0	2.5	/experiments/aot/R_S_yt-rB3YVZvA78w_20.mp4	0.0	260.5555770397186	0.0999610424041748
55	242.45708107948303	fix_pre	0		120	53.0	2.5	/experiments/aot/R_S_yt-mL3MuCfKtdY_79.mp4	0.0	260.6555380821228	0.9999649524688721
55	243.04063200950623	pulse	0	t		53.0	2.5	/experiments/aot/R_S_yt-mL3MuCfKtdY_79.mp4	0.0	261.239089012146	
55	243.4570460319519	movie	1		300	53.0	2.5	/experiments/aot/R_S_yt-mL3MuCfKtdY_79.mp4	0.0	261.6555030345917	2.4996390342712402
55	244.64051008224487	pulse	1	t		53.0	2.5	/experiments/aot/R_S_yt-mL3MuCfKtdY_79.mp4	0.0	262.83896708488464	
55	245.95668506622314	fix_post	2		12	53.0	2.5	/experiments/aot/R_S_yt-mL3MuCfKtdY_79.mp4	0.0	264.1551420688629	0.09998607635498047
56	246.05667114257812	fix_pre	0		120	54.0	2.5	/experiments/aot/R_S_yt-etQaTgGOhR4_69.mp4	0.0	264.2551281452179	1.000180959701538
56	246.24014902114868	pulse	0	t		54.0	2.5	/experiments/aot/R_S_yt-etQaTgGOhR4_69.mp4	0.0	264.43860602378845	
56	247.05685210227966	movie	1		300	54.0	2.5	/experiments/aot/R_S_yt-etQaTgGOhR4_69.mp4	0.0	265.25530910491943	2.500230073928833
56	247.84073996543884	pulse	1	t		54.0	2.5	/experiments/aot/R_S_yt-etQaTgGOhR4_69.mp4	0.0	266.0391969680786	
56	249.4405779838562	pulse	1	t		54.0	2.5	/experiments/aot/R_S_yt-etQaTgGOhR4_69.mp4	0.0	267.639034986496	
56	249.5570821762085	fix_post	2		12	54.0	2.5	/experiments/aot/R_S_yt-etQaTgGOhR4_69.mp4	0.0	267.75553917884827	0.10002398490905762
57	249.65710616111755	fix_pre	0		120	55.0	2.5	blank	1.0	267.8555631637573	0.9999508857727051
57	250.65705704689026	movie	1		300	55.0	2.5	blank	1.0	268.85551404953003	2.4999499320983887
57	251.04066395759583	pulse	1	t		55.0	2.5	blank	1.0	269.2391209602356	
57	252.64057397842407	pulse	1	t		55.0	2.5	blank	1.0	270.83903098106384	
57	253.15700697898865	fix_post	2		12	55.0	2.5	blank	1.0	271.3554639816284	0.10007810592651367
58	253.25708508491516	fix_pre	0		119	56.0	2.5	/experiments/aot/R_S_yt-zgimmOcW5Mc_127.mp4	0.0	271.45554208755493	0.9915750026702881
58	254.24042415618896	pulse	0	t		56.0	2.5	/experiments/aot/R_S_yt-zgimmOcW5Mc_127.mp4	0.0	272.43888115882874	
58	254.24866008758545	movie	1		301	56.0	2.5	/experiments/aot/R_S_yt-zgimmOcW5Mc_127.mp4	0.0	272.4471170902252	2.5079119205474854
58	255.8362910747528	pulse	1	t		56.0	2.5	/experiments/aot/R_S_yt-zgimmOcW5Mc_127.mp4	0.0	274.0347480773926	
58	256.75657200813293	fix_post	2		12	56.0	2.5	/experiments/aot/R_S_yt-zgimmOcW5Mc_127.mp4	0.0	274.9550290107727	0.10042095184326172
59	256.8569929599762	fix_pre	0		120	57.0	2.5	/experiments/aot/R_S_yt-22c5eZ1UNME_76.mp4	0.0	275.05544996261597	0.9999330043792725
59	257.44049096107483	pulse	0	t		57.0	2.5	/experiments/aot/R_S_yt-22c5eZ1UNME_76.mp4	0.0	275.6389479637146	
59	257.85692596435547	movie	1		300	57.0	2.5	/experiments/aot/R_S_yt-22c5eZ1UNME_76.mp4	0.0	276.05538296699524	2.50002121925354
59	259.04048895835876	pulse	1	t		57.0	2.5	/experiments/aot/R_S_yt-22c5eZ1UNME_76.mp4	0.0	277.23894596099854	
59	260.356947183609	fix_post	2		12	57.0	2.5	/experiments/aot/R_S_yt-22c5eZ1UNME_76.mp4	0.0	278.5554041862488	0.10001087188720703
60	260.4569580554962	fix_pre	0		120	58.0	2.5	/experiments/aot/R_S_yt-n6aLw10f2Yw_317.mp4	0.0	278.655415058136	0.9996979236602783
60	260.6404461860657	pulse	0	t		58.0	2.5	/experiments/aot/R_S_yt-n6aLw10f2Yw_317.mp4	0.0	278.83890318870544	
60	261.4566559791565	movie	1		300	58.0	2.5	/experiments/aot/R_S_yt-n6aLw10f2Yw_317.mp4	0.0	279.65511298179626	2.499861001968384
60	262.2404410839081	pulse	1	t		58.0	2.5	/experiments/aot/R_S_yt-n6aLw10f2Yw_317.mp4	0.0	280.43889808654785	
60	263.8405201435089	pulse	1	t		58.0	2.5	/experiments/aot/R_S_yt-n6aLw10f2Yw_317.mp4	0.0	282.0389771461487	
60	263.9565169811249	fix_post	2		12	58.0	2.5	/experiments/aot/R_S_yt-n6aLw10f2Yw_317.mp4	0.0	282.15497398376465	0.10041213035583496
61	264.0569291114807	fix_pre	0		120	59.0	2.5	/experiments/aot/R_S_yt-6xXEMHBQ08A_28.mp4	0.0	282.2553861141205	1.0000040531158447
61	265.05693316459656	movie	1		300	59.0	2.5	/experiments/aot/R_S_yt-6xXEMHBQ08A_28.mp4	0.0	283.2553901672363	2.4996650218963623
61	265.4404981136322	pulse	1	t		59.0	2.5	/experiments/aot/R_S_yt-6xXEMHBQ08A_28.mp4	0.0	283.638955116272	
61	267.0405101776123	pulse	1	t		59.0	2.5	/experiments/aot/R_S_yt-6xXEMHBQ08A_28.mp4	0.0	285.2389671802521	
61	267.5565981864929	fix_post	2		12	59.0	2.5	/experiments/aot/R_S_yt-6xXEMHBQ08A_28.mp4	0.0	285.7550551891327	0.10033178329467773
62	267.6569299697876	fix_pre	0		119	60.0	2.5	/experiments/aot/S_yt-Ub5Xx5BqIOk_74.mp4	0.0	285.85538697242737	0.9916560649871826
62	268.6403970718384	pulse	0	t		60.0	2.5	/experiments/aot/S_yt-Ub5Xx5BqIOk_74.mp4	0.0	286.83885407447815	
62	268.6485860347748	movie	1		301	60.0	2.5	/experiments/aot/S_yt-Ub5Xx5BqIOk_74.mp4	0.0	286.84704303741455	2.5083370208740234
62	270.2362451553345	pulse	1	t		60.0	2.5	/experiments/aot/S_yt-Ub5Xx5BqIOk_74.mp4	0.0	288.43470215797424	
62	271.1569230556488	fix_post	2		12	60.0	2.5	/experiments/aot/S_yt-Ub5Xx5BqIOk_74.mp4	0.0	289.3553800582886	0.10000491142272949
63	271.25692796707153	fix_pre	0		120	61.0	2.5	/experiments/aot/S_yt-Ev39pXXfr1Y_152.mp4	0.0	289.4553849697113	1.0000340938568115
63	271.84046602249146	pulse	0	t		61.0	2.5	/experiments/aot/S_yt-Ev39pXXfr1Y_152.mp4	0.0	290.0389230251312	
63	272.25696206092834	movie	1		300	61.0	2.5	/experiments/aot/S_yt-Ev39pXXfr1Y_152.mp4	0.0	290.4554190635681	2.500054121017456
63	273.4404740333557	pulse	1	t		61.0	2.5	/experiments/aot/S_yt-Ev39pXXfr1Y_152.mp4	0.0	291.6389310359955	
63	274.7570161819458	fix_post	2		12	61.0	2.5	/experiments/aot/S_yt-Ev39pXXfr1Y_152.mp4	0.0	292.95547318458557	0.09991979598999023
64	274.8569359779358	fix_pre	0		120	62.0	2.5	blank	1.0	293.05539298057556	1.0000121593475342
64	275.0404419898987	pulse	0	t		62.0	2.5	blank	1.0	293.23889899253845	
64	275.8569481372833	movie	1		300	62.0	2.5	blank	1.0	294.0554051399231	2.499579906463623
64	276.6403980255127	pulse	1	t		62.0	2.5	blank	1.0	294.83885502815247	
64	278.2404179573059	pulse	1	t		62.0	2.5	blank	1.0	296.4388749599457	
64	278.35652804374695	fix_post	2		12	62.0	2.5	blank	1.0	296.5549850463867	0.1004340648651123
65	278.45696210861206	fix_pre	0		120	63.0	2.5	/experiments/aot/R_S_yt-0xzYSBvVfYM_197.mp4	0.0	296.65541911125183	1.0000169277191162
65	279.4569790363312	movie	1		300	63.0	2.5	/experiments/aot/R_S_yt-0xzYSBvVfYM_197.mp4	0.0	297.65543603897095	2.4999840259552
65	279.8404040336609	pulse	1	t		63.0	2.5	/experiments/aot/R_S_yt-0xzYSBvVfYM_197.mp4	0.0	298.03886103630066	
65	281.44044399261475	pulse	1	t		63.0	2.5	/experiments/aot/R_S_yt-0xzYSBvVfYM_197.mp4	0.0	299.6389009952545	
65	281.9569630622864	fix_post	2		12	63.0	2.5	/experiments/aot/R_S_yt-0xzYSBvVfYM_197.mp4	0.0	300.15542006492615	0.09992408752441406
66	282.0568871498108	fix_pre	0		119	64.0	2.5	/experiments/aot/R_S_yt-O_4DgW-XKvA_35.mp4	0.0	300.25534415245056	0.9917318820953369
66	283.04043102264404	pulse	0	t		64.0	2.5	/experiments/aot/R_S_yt-O_4DgW-XKvA_35.mp4	0.0	301.2388880252838	
66	283.0486190319061	movie	1		301	64.0	2.5	/experiments/aot/R_S_yt-O_4DgW-XKvA_35.mp4	0.0	301.2470760345459	2.5079030990600586
66	284.6362409591675	pulse	1	t		64.0	2.5	/experiments/aot/R_S_yt-O_4DgW-XKvA_35.mp4	0.0	302.83469796180725	
66	285.5565221309662	fix_post	2		12	64.0	2.5	/experiments/aot/R_S_yt-O_4DgW-XKvA_35.mp4	0.0	303.75497913360596	0.10036396980285645
67	285.65688610076904	fix_pre	0		120	65.0	2.5	/experiments/aot/S_bing-www_dailymotion_com_video_x4kcklg_53.mp4	0.0	303.8553431034088	1.0000078678131104
67	286.2403450012207	pulse	0	t		65.0	2.5	/experiments/aot/S_bing-www_dailymotion_com_video_x4kcklg_53.mp4	0.0	304.4388020038605	
67	286.65689396858215	movie	1		160	65.0	2.5	/experiments/aot/S_bing-www_dailymotion_com_video_x4kcklg_53.mp4	0.0	304.8553509712219	2.4999780654907227
67	287.8403961658478	pulse	1	t		65.0	2.5	/experiments/aot/S_bing-www_dailymotion_com_video_x4kcklg_53.mp4	0.0	306.03885316848755	
67	289.1568720340729	fix_post	2		12	65.0	2.5	/experiments/aot/S_bing-www_dailymotion_com_video_x4kcklg_53.mp4	0.0	307.35532903671265	0.10002994537353516
68	289.2569019794464	fix_pre	0		120	66.0	2.5	/experiments/aot/R_S_yt-4sSV4iIs8gQ_55.mp4	0.0	307.4553589820862	0.9999752044677734
68	289.4403221607208	pulse	0	t		66.0	2.5	/experiments/aot/R_S_yt-4sSV4iIs8gQ_55.mp4	0.0	307.6387791633606	
68	290.2568771839142	movie	1		300	66.0	2.5	/experiments/aot/R_S_yt-4sSV4iIs8gQ_55.mp4	0.0	308.45533418655396	2.4996068477630615
68	291.04033517837524	pulse	1	t		66.0	2.5	/experiments/aot/R_S_yt-4sSV4iIs8gQ_55.mp4	0.0	309.238792181015	
68	292.6402680873871	pulse	1	t		66.0	2.5	/experiments/aot/R_S_yt-4sSV4iIs8gQ_55.mp4	0.0	310.83872509002686	
68	292.75648403167725	fix_post	2		12	66.0	2.5	/experiments/aot/R_S_yt-4sSV4iIs8gQ_55.mp4	0.0	310.954941034317	0.09992408752441406
69	292.85640811920166	fix_pre	0		120	67.0	2.5	/experiments/aot/S_production_ID_4707837.mp4	0.0	311.05486512184143	1.0004289150238037
69	293.85683703422546	movie	1		162	67.0	2.5	/experiments/aot/S_production_ID_4707837.mp4	0.0	312.05529403686523	2.499645948410034
69	294.24038314819336	pulse	1	t		67.0	2.5	/experiments/aot/S_production_ID_4707837.mp4	0.0	312.43884015083313	
69	295.84034609794617	pulse	1	t		67.0	2.5	/experiments/aot/S_production_ID_4707837.mp4	0.0	314.03880310058594	
69	296.3564829826355	fix_post	2		12	67.0	2.5	/experiments/aot/S_production_ID_4707837.mp4	0.0	314.55493998527527	0.10039615631103516
70	296.45687913894653	fix_pre	0		119	68.0	2.5	blank	1.0	314.6553361415863	0.9916398525238037
70	297.44029998779297	pulse	0	t		68.0	2.5	blank	1.0	315.63875699043274	
70	297.44851899147034	movie	1		301	68.0	2.5	blank	1.0	315.6469759941101	2.5082249641418457
70	299.04040598869324	pulse	1	t		68.0	2.5	blank	1.0	317.238862991333	
70	299.9567439556122	fix_post	2		12	68.0	2.5	blank	1.0	318.15520095825195	0.0996401309967041
71	300.0563840866089	fix_pre	0		120	69.0	2.5	/experiments/aot/S_yt-wEbfIR14zZ8_7.mp4	0.0	318.25484108924866	0.9999599456787109
71	300.6403920650482	pulse	0	t		69.0	2.5	/experiments/aot/S_yt-wEbfIR14zZ8_7.mp4	0.0	318.838849067688	
71	301.0563440322876	movie	1		300	69.0	2.5	/experiments/aot/S_yt-wEbfIR14zZ8_7.mp4	0.0	319.25480103492737	2.5002880096435547
71	302.24048805236816	pulse	1	t		69.0	2.5	/experiments/aot/S_yt-wEbfIR14zZ8_7.mp4	0.0	320.43894505500793	
71	303.55663204193115	fix_post	2		12	69.0	2.5	/experiments/aot/S_yt-wEbfIR14zZ8_7.mp4	0.0	321.7550890445709	0.10037994384765625
72	303.6570119857788	fix_pre	0		120	70.0	2.5	/experiments/aot/R_S_yt-n_eO-7KedAE_21.mp4	0.0	321.8554689884186	1.0001580715179443
72	303.8401520252228	pulse	0	t		70.0	2.5	/experiments/aot/R_S_yt-n_eO-7KedAE_21.mp4	0.0	322.03860902786255	
72	304.65717005729675	movie	1		300	70.0	2.5	/experiments/aot/R_S_yt-n_eO-7KedAE_21.mp4	0.0	322.8556270599365	2.4995920658111572
72	305.4402720928192	pulse	1	t		70.0	2.5	/experiments/aot/R_S_yt-n_eO-7KedAE_21.mp4	0.0	323.638729095459	
72	307.04034304618835	pulse	1	t		70.0	2.5	/experiments/aot/R_S_yt-n_eO-7KedAE_21.mp4	0.0	325.2388000488281	
72	307.1567621231079	fix_post	2		12	70.0	2.5	/experiments/aot/R_S_yt-n_eO-7KedAE_21.mp4	0.0	325.3552191257477	0.10003185272216797
73	307.2567939758301	fix_pre	0		120	71.0	2.5	/experiments/aot/R_S_yt-rB3YVZvA78w_20.mp4	0.0	325.45525097846985	0.9995582103729248
73	308.256352186203	movie	1		299	71.0	2.5	/experiments/aot/R_S_yt-rB3YVZvA78w_20.mp4	0.0	326.4548091888428	2.500382900238037
73	308.64019203186035	pulse	1	t		71.0	2.5	/experiments/aot/R_S_yt-rB3YVZvA78w_20.mp4	0.0	326.8386490345001	
73	310.2401850223541	pulse	1	t		71.0	2.5	/experiments/aot/R_S_yt-rB3YVZvA78w_20.mp4	0.0	328.4386420249939	
73	310.75673508644104	fix_post	2		12	71.0	2.5	/experiments/aot/R_S_yt-rB3YVZvA78w_20.mp4	0.0	328.9551920890808	0.09998202323913574
74	310.8567171096802	fix_pre	0		119	72.0	2.5	/experiments/aot/R_S_ILSVRC2015_train_00689000.mp4	0.0	329.05517411231995	0.9916889667510986
74	311.84025597572327	pulse	0	t		72.0	2.5	/experiments/aot/R_S_ILSVRC2015_train_00689000.mp4	0.0	330.03871297836304	
74	311.8484060764313	movie	1		301	72.0	2.5	/experiments/aot/R_S_ILSVRC2015_train_00689000.mp4	0.0	330.04686307907104	2.5082850456237793
74	313.43624997138977	pulse	1	t		72.0	2.5	/experiments/aot/R_S_ILSVRC2015_train_00689000.mp4	0.0	331.63470697402954	
74	314.35669112205505	fix_post	2		12	72.0	2.5	/experiments/aot/R_S_ILSVRC2015_train_00689000.mp4	0.0	332.5551481246948	0.10006189346313477
75	314.4567530155182	fix_pre	0		120	73.0	2.5	/experiments/aot/R_S_yt-kINZMjys3O4_112.mp4	0.0	332.65521001815796	0.9999749660491943
75	315.0402240753174	pulse	0	t		73.0	2.5	/experiments/aot/R_S_yt-kINZMjys3O4_112.mp4	0.0	333.23868107795715	
75	315.4567279815674	movie	1		300	73.0	2.5	/experiments/aot/R_S_yt-kINZMjys3O4_112.mp4	0.0	333.65518498420715	2.499912977218628
75	316.6401650905609	pulse	1	t		73.0	2.5	/experiments/aot/R_S_yt-kINZMjys3O4_112.mp4	0.0	334.8386220932007	
75	317.956640958786	fix_post	2		12	73.0	2.5	/experiments/aot/R_S_yt-kINZMjys3O4_112.mp4	0.0	336.1550979614258	0.10003304481506348
76	318.0566740036011	fix_pre	0		120	74.0	2.5	/experiments/aot/R_S__6qAy77ODUI_175.mp4	0.0	336.25513100624084	0.9999561309814453
76	318.2401931285858	pulse	0	t		74.0	2.5	/experiments/aot/R_S__6qAy77ODUI_175.mp4	0.0	336.4386501312256	
76	319.0566301345825	movie	1		300	74.0	2.5	/experiments/aot/R_S__6qAy77ODUI_175.mp4	0.0	337.2550871372223	2.500030994415283
76	319.84019708633423	pulse	1	t		74.0	2.5	/experiments/aot/R_S__6qAy77ODUI_175.mp4	0.0	338.038654088974	
76	321.44020915031433	pulse	1	t		74.0	2.5	/experiments/aot/R_S__6qAy77ODUI_175.mp4	0.0	339.6386661529541	
76	321.5566611289978	fix_post	2		12	74.0	2.5	/experiments/aot/R_S__6qAy77ODUI_175.mp4	0.0	339.7551181316376	0.09995889663696289
77	321.65662002563477	fix_pre	0		120	75.0	2.5	/experiments/aot/S_yt-_7HJhRPVmHw_255.mp4	0.0	339.85507702827454	0.9996140003204346
77	322.6562340259552	movie	1		300	75.0	2.5	/experiments/aot/S_yt-_7HJhRPVmHw_255.mp4	0.0	340.85469102859497	2.4999821186065674
77	323.0402920246124	pulse	1	t		75.0	2.5	/experiments/aot/S_yt-_7HJhRPVmHw_255.mp4	0.0	341.2387490272522	
77	324.64011216163635	pulse	1	t		75.0	2.5	/experiments/aot/S_yt-_7HJhRPVmHw_255.mp4	0.0	342.8385691642761	
77	325.15621614456177	fix_post	2		12	75.0	2.5	/experiments/aot/S_yt-_7HJhRPVmHw_255.mp4	0.0	343.35467314720154	0.10051488876342773
78	325.2567310333252	fix_pre	0		119	76.0	2.5	/experiments/aot/S_yt-cokedWwwYYs_136.mp4	0.0	343.45518803596497	0.9916501045227051
78	326.24019503593445	pulse	0	t		76.0	2.5	/experiments/aot/S_yt-cokedWwwYYs_136.mp4	0.0	344.4386520385742	
78	326.2483811378479	movie	1		301	76.0	2.5	/experiments/aot/S_yt-cokedWwwYYs_136.mp4	0.0	344.44683814048767	2.5079288482666016
78	327.8359191417694	pulse	1	t		76.0	2.5	/experiments/aot/S_yt-cokedWwwYYs_136.mp4	0.0	346.0343761444092	
78	328.7563099861145	fix_post	2		12	76.0	2.5	/experiments/aot/S_yt-cokedWwwYYs_136.mp4	0.0	346.9547669887543	0.10032200813293457
79	328.85663199424744	fix_pre	0		120	77.0	2.5	blank	1.0	347.0550889968872	0.9997010231018066
79	329.44032096862793	pulse	0	t		77.0	2.5	blank	1.0	347.6387779712677	
79	329.85633301734924	movie	1		300	77.0	2.5	blank	1.0	348.054790019989	2.500331163406372
79	331.0400950908661	pulse	1	t		77.0	2.5	blank	1.0	349.23855209350586	
79	332.3566641807556	fix_post	2		12	77.0	2.5	blank	1.0	350.5551211833954	0.1000368595123291
80	332.45670104026794	fix_pre	0		120	78.0	2.5	/experiments/aot/R_S_ILSVRC2015_train_00584001.mp4	0.0	350.6551580429077	0.9999840259552002
80	332.6401700973511	pulse	0	t		78.0	2.5	/experiments/aot/R_S_ILSVRC2015_train_00584001.mp4	0.0	350.83862709999084	
80	333.45668506622314	movie	1		299	78.0	2.5	/experiments/aot/R_S_ILSVRC2015_train_00584001.mp4	0.0	351.6551420688629	2.4999890327453613
80	334.24017095565796	pulse	1	t		78.0	2.5	/experiments/aot/R_S_ILSVRC2015_train_00584001.mp4	0.0	352.43862795829773	
80	335.8406400680542	pulse	1	t		78.0	2.5	/experiments/aot/R_S_ILSVRC2015_train_00584001.mp4	0.0	354.03909707069397	
80	335.9566740989685	fix_post	2		12	78.0	2.5	/experiments/aot/R_S_ILSVRC2015_train_00584001.mp4	0.0	354.1551311016083	0.10003185272216797
81	336.0567059516907	fix_pre	0		120	79.0	2.5	/experiments/aot/R_S_yt-UzWRbs9Syf4_7.mp4	0.0	354.25516295433044	0.9999401569366455
81	337.0566461086273	movie	1		300	79.0	2.5	/experiments/aot/R_S_yt-UzWRbs9Syf4_7.mp4	0.0	355.2551031112671	2.5000009536743164
81	337.44016313552856	pulse	1	t		79.0	2.5	/experiments/aot/R_S_yt-UzWRbs9Syf4_7.mp4	0.0	355.63862013816833	
81	339.0401520729065	pulse	1	t		79.0	2.5	/experiments/aot/R_S_yt-UzWRbs9Syf4_7.mp4	0.0	357.23860907554626	
81	339.55664706230164	fix_post	2		12	79.0	2.5	/experiments/aot/R_S_yt-UzWRbs9Syf4_7.mp4	0.0	357.7551040649414	0.09968090057373047
82	339.65632796287537	fix_pre	0		119	80.0	2.5	/experiments/aot/R_S_b5-3.mp4	0.0	357.85478496551514	0.9919931888580322
82	340.6401700973511	pulse	0	t		80.0	2.5	/experiments/aot/R_S_b5-3.mp4	0.0	358.83862709999084	
82	340.6483211517334	movie	1		165	80.0	2.5	/experiments/aot/R_S_b5-3.mp4	0.0	358.84677815437317	2.508220911026001
82	342.2402939796448	pulse	1	t		80.0	2.5	/experiments/aot/R_S_b5-3.mp4	0.0	360.43875098228455	
82	343.1565420627594	fix_post	2		12	80.0	2.5	/experiments/aot/R_S_b5-3.mp4	0.0	361.35499906539917	0.10002708435058594
83	343.25656914711	fix_pre	0		120	81.0	2.5	/experiments/aot/S_pexels-cottonbro-5310858.mp4	0.0	361.45502614974976	0.9999289512634277
83	343.84014797210693	pulse	0	t		81.0	2.5	/experiments/aot/S_pexels-cottonbro-5310858.mp4	0.0	362.0386049747467	
83	344.2564980983734	movie	1		162	81.0	2.5	/experiments/aot/S_pexels-cottonbro-5310858.mp4	0.0	362.4549551010132	2.5000569820404053
83	345.4401340484619	pulse	1	t		81.0	2.5	/experiments/aot/S_pexels-cottonbro-5310858.mp4	0.0	363.6385910511017	
83	346.7565550804138	fix_post	2		12	81.0	2.5	/experiments/aot/S_pexels-cottonbro-5310858.mp4	0.0	364.9550120830536	0.10005307197570801
84	346.8566081523895	fix_pre	0		120	82.0	2.5	/experiments/aot/S_3WAnGcPubBY_143.mp4	0.0	365.0550651550293	1.0000338554382324
84	347.0400421619415	pulse	0	t		82.0	2.5	/experiments/aot/S_3WAnGcPubBY_143.mp4	0.0	365.2384991645813	
84	347.85664200782776	movie	1		299	82.0	2.5	/experiments/aot/S_3WAnGcPubBY_143.mp4	0.0	366.05509901046753	2.499885082244873
84	348.63997197151184	pulse	1	t		82.0	2.5	/experiments/aot/S_3WAnGcPubBY_143.mp4	0.0	366.8384289741516	
84	350.2399959564209	pulse	1	t		82.0	2.5	/experiments/aot/S_3WAnGcPubBY_143.mp4	0.0	368.43845295906067	
84	350.35652709007263	fix_post	2		12	82.0	2.5	/experiments/aot/S_3WAnGcPubBY_143.mp4	0.0	368.5549840927124	0.09994292259216309
85	350.4564700126648	fix_pre	0		120	83.0	2.5	blank	1.0	368.65492701530457	1.000128984451294
85	351.4565989971161	movie	1		300	83.0	2.5	blank	1.0	369.65505599975586	2.49992299079895
85	351.84009313583374	pulse	1	t		83.0	2.5	blank	1.0	370.0385501384735	
85	353.4399471282959	pulse	1	t		83.0	2.5	blank	1.0	371.63840413093567	
85	353.95652198791504	fix_post	2		12	83.0	2.5	blank	1.0	372.1549789905548	0.10005497932434082
87	354.0565769672394	stim	0		1716					372.25503396987915	14.299951076507568
87	355.0399830341339	pulse	0	t						373.2384400367737	
87	356.64020109176636	pulse	0	t						374.8386580944061	
87	358.2399981021881	pulse	0	t						376.4384551048279	
87	359.8398549556732	pulse	0	t						378.038311958313	
87	361.43999004364014	pulse	0	t						379.6384470462799	
87	363.03998017311096	pulse	0	t						381.23843717575073	
87	364.6400101184845	pulse	0	t						382.83846712112427	
87	366.23986196517944	pulse	0	t						384.4383189678192	
87	367.83990716934204	pulse	0	t						386.0383641719818	
