trial_nr	onset	event_type	phase	response	nr_frames	movie_index	movie_duration	movie_file	blank	onset_abs	duration
0	0.15834999084472656	stim	0		121					20.538707971572876	1.0083210468292236
0	1.1586310863494873	response	0	space						21.538989067077637	
1	1.1666710376739502	stim	0		4160					21.5470290184021	34.66686010360718
1	35.823363065719604	pulse	0	t						56.203721046447754	
1	35.83353114128113	stim	1		1717					56.21388912200928	14.308169841766357
1	37.417720079422	pulse	1	t						57.79807806015015	
1	39.017817974090576	pulse	1	t						59.398175954818726	
1	40.617133140563965	pulse	1	t						60.997491121292114	
1	42.217769145965576	pulse	1	t						62.598127126693726	
1	43.82524299621582	pulse	1	t						64.20560097694397	
1	45.42518496513367	pulse	1	t						65.80554294586182	
1	47.02519416809082	pulse	1	t						67.40555214881897	
1	48.61774301528931	pulse	1	t						68.99810099601746	
2	50.141700983047485	fix_pre	0		11	0.0	2.5	/experiments/AOT/AOT_stimuli/rescaled_final/2152_fw.mp4	0.0	70.52205896377563	0.09167909622192383
2	50.21789908409119	pulse	0	t		0.0	2.5	/experiments/AOT/AOT_stimuli/rescaled_final/2152_fw.mp4	0.0	70.59825706481934	
2	50.23338007926941	movie	1		243	0.0	2.5	/experiments/AOT/AOT_stimuli/rescaled_final/2152_fw.mp4	0.0	70.61373805999756	2.5083470344543457
2	51.8247549533844	pulse	1	t		0.0	2.5	/experiments/AOT/AOT_stimuli/rescaled_final/2152_fw.mp4	0.0	72.20511293411255	
2	52.741727113723755	fix_post	2		12	0.0	2.5	/experiments/AOT/AOT_stimuli/rescaled_final/2152_fw.mp4	0.0	73.1220850944519	0.10004901885986328
3	52.84177613258362	fix_pre	0		120	1.0	2.5	/experiments/AOT/AOT_stimuli/rescaled_final/0210_rv.mp4	0.0	73.22213411331177	1.0001049041748047
3	53.41771602630615	pulse	0	t		1.0	2.5	/experiments/AOT/AOT_stimuli/rescaled_final/0210_rv.mp4	0.0	73.7980740070343	
3	53.84188103675842	movie	1		244	1.0	2.5	/experiments/AOT/AOT_stimuli/rescaled_final/0210_rv.mp4	0.0	74.22223901748657	2.4998629093170166
3	55.025283098220825	pulse	1	t		1.0	2.5	/experiments/AOT/AOT_stimuli/rescaled_final/0210_rv.mp4	0.0	75.40564107894897	
3	56.34174394607544	fix_post	2		12	1.0	2.5	/experiments/AOT/AOT_stimuli/rescaled_final/0210_rv.mp4	0.0	76.72210192680359	0.09960699081420898
4	56.44135093688965	fix_pre	0		120	2.0	2.5	/experiments/AOT/AOT_stimuli/rescaled_final/1598_fw.mp4	0.0	76.8217089176178	1.000075101852417
4	56.61728596687317	pulse	0	t		2.0	2.5	/experiments/AOT/AOT_stimuli/rescaled_final/1598_fw.mp4	0.0	76.99764394760132	
4	57.441426038742065	movie	1		242	2.0	2.5	/experiments/AOT/AOT_stimuli/rescaled_final/1598_fw.mp4	0.0	77.82178401947021	2.500314950942993
4	58.217610120773315	pulse	1	t		2.0	2.5	/experiments/AOT/AOT_stimuli/rescaled_final/1598_fw.mp4	0.0	78.59796810150146	
4	59.82344102859497	pulse	1	t		2.0	2.5	/experiments/AOT/AOT_stimuli/rescaled_final/1598_fw.mp4	0.0	80.20379900932312	
4	59.94174098968506	fix_post	2		12	2.0	2.5	/experiments/AOT/AOT_stimuli/rescaled_final/1598_fw.mp4	0.0	80.32209897041321	0.099945068359375
5	60.041686058044434	fix_pre	0		120	3.0	2.5	/experiments/AOT/AOT_stimuli/rescaled_final/1252_rv.mp4	0.0	80.42204403877258	1.0000569820404053
5	61.04174304008484	movie	1		243	3.0	2.5	/experiments/AOT/AOT_stimuli/rescaled_final/1252_rv.mp4	0.0	81.42210102081299	2.499941110610962
5	61.42509603500366	pulse	1	t		3.0	2.5	/experiments/AOT/AOT_stimuli/rescaled_final/1252_rv.mp4	0.0	81.80545401573181	
5	63.02513909339905	pulse	1	t		3.0	2.5	/experiments/AOT/AOT_stimuli/rescaled_final/1252_rv.mp4	0.0	83.4054970741272	
5	63.5416841506958	fix_post	2		12	3.0	2.5	/experiments/AOT/AOT_stimuli/rescaled_final/1252_rv.mp4	0.0	83.92204213142395	0.09997200965881348
6	63.641656160354614	fix_pre	0		119	4.0	2.5	/experiments/AOT/AOT_stimuli/rescaled_final/1911_rv.mp4	0.0	84.02201414108276	0.9916739463806152
6	64.6251130104065	pulse	0	t		4.0	2.5	/experiments/AOT/AOT_stimuli/rescaled_final/1911_rv.mp4	0.0	85.00547099113464	
6	64.63333010673523	movie	1		245	4.0	2.5	/experiments/AOT/AOT_stimuli/rescaled_final/1911_rv.mp4	0.0	85.01368808746338	2.5083000659942627
6	66.2254011631012	pulse	1	t		4.0	2.5	/experiments/AOT/AOT_stimuli/rescaled_final/1911_rv.mp4	0.0	86.60575914382935	
6	67.14163017272949	fix_post	2		12	4.0	2.5	/experiments/AOT/AOT_stimuli/rescaled_final/1911_rv.mp4	0.0	87.52198815345764	0.10004281997680664
7	67.2416729927063	fix_pre	0		120	5.0	2.5	/experiments/AOT/AOT_stimuli/rescaled_final/1867_fw.mp4	0.0	87.62203097343445	0.9999370574951172
7	67.81765794754028	pulse	0	t		5.0	2.5	/experiments/AOT/AOT_stimuli/rescaled_final/1867_fw.mp4	0.0	88.19801592826843	
7	68.24161005020142	movie	1		246	5.0	2.5	/experiments/AOT/AOT_stimuli/rescaled_final/1867_fw.mp4	0.0	88.62196803092957	2.5000479221343994
7	69.41782402992249	pulse	1	t		5.0	2.5	/experiments/AOT/AOT_stimuli/rescaled_final/1867_fw.mp4	0.0	89.79818201065063	
7	70.74165797233582	fix_post	2		12	5.0	2.5	/experiments/AOT/AOT_stimuli/rescaled_final/1867_fw.mp4	0.0	91.12201595306396	0.09989118576049805
8	70.84154915809631	fix_pre	0		120	6.0	2.5	blank	1.0	91.22190713882446	1.0000438690185547
8	71.01764106750488	pulse	0	t		6.0	2.5	blank	1.0	91.39799904823303	
8	71.84159302711487	movie	1		300	6.0	2.5	blank	1.0	92.22195100784302	2.500070095062256
8	72.61774897575378	pulse	1	t		6.0	2.5	blank	1.0	92.99810695648193	
8	74.21766495704651	pulse	1	t		6.0	2.5	blank	1.0	94.59802293777466	
8	74.34166312217712	fix_post	2		12	6.0	2.5	blank	1.0	94.72202110290527	0.09996390342712402
9	74.44162702560425	fix_pre	0		120	7.0	2.5	/experiments/AOT/AOT_stimuli/rescaled_final/1686_fw.mp4	0.0	94.8219850063324	1.0000040531158447
9	75.44163107872009	movie	1		245	7.0	2.5	/experiments/AOT/AOT_stimuli/rescaled_final/1686_fw.mp4	0.0	95.82198905944824	2.500051975250244
9	75.82456398010254	pulse	1	t		7.0	2.5	/experiments/AOT/AOT_stimuli/rescaled_final/1686_fw.mp4	0.0	96.20492196083069	
9	77.42513108253479	pulse	1	t		7.0	2.5	/experiments/AOT/AOT_stimuli/rescaled_final/1686_fw.mp4	0.0	97.80548906326294	
9	77.94168305397034	fix_post	2		12	7.0	2.5	/experiments/AOT/AOT_stimuli/rescaled_final/1686_fw.mp4	0.0	98.32204103469849	0.09992098808288574
10	78.04160404205322	fix_pre	0		119	8.0	2.5	/experiments/AOT/AOT_stimuli/rescaled_final/1729_rv.mp4	0.0	98.42196202278137	0.9916930198669434
10	79.02516913414001	pulse	0	t		8.0	2.5	/experiments/AOT/AOT_stimuli/rescaled_final/1729_rv.mp4	0.0	99.40552711486816	
10	79.03329706192017	movie	1		244	8.0	2.5	/experiments/AOT/AOT_stimuli/rescaled_final/1729_rv.mp4	0.0	99.41365504264832	2.508557081222534
10	80.6247980594635	pulse	1	t		8.0	2.5	/experiments/AOT/AOT_stimuli/rescaled_final/1729_rv.mp4	0.0	101.00515604019165	
10	81.5418541431427	fix_post	2		12	8.0	2.5	/experiments/AOT/AOT_stimuli/rescaled_final/1729_rv.mp4	0.0	101.92221212387085	0.09972190856933594
11	81.64157605171204	fix_pre	0		120	9.0	2.5	/experiments/AOT/AOT_stimuli/rescaled_final/0422_fw.mp4	0.0	102.02193403244019	1.0000278949737549
11	82.22508597373962	pulse	0	t		9.0	2.5	/experiments/AOT/AOT_stimuli/rescaled_final/0422_fw.mp4	0.0	102.60544395446777	
11	82.64160394668579	movie	1		244	9.0	2.5	/experiments/AOT/AOT_stimuli/rescaled_final/0422_fw.mp4	0.0	103.02196192741394	2.4994962215423584
11	83.81807112693787	pulse	1	t		9.0	2.5	/experiments/AOT/AOT_stimuli/rescaled_final/0422_fw.mp4	0.0	104.19842910766602	
11	85.14110016822815	fix_post	2		12	9.0	2.5	/experiments/AOT/AOT_stimuli/rescaled_final/0422_fw.mp4	0.0	105.5214581489563	0.10058283805847168
12	85.24168300628662	fix_pre	0		120	10.0	2.5	/experiments/AOT/AOT_stimuli/rescaled_final/0088_rv.mp4	0.0	105.62204098701477	0.9994771480560303
12	85.42513608932495	pulse	0	t		10.0	2.5	/experiments/AOT/AOT_stimuli/rescaled_final/0088_rv.mp4	0.0	105.8054940700531	
12	86.24116015434265	movie	1		245	10.0	2.5	/experiments/AOT/AOT_stimuli/rescaled_final/0088_rv.mp4	0.0	106.6215181350708	2.500466823577881
12	87.01760601997375	pulse	1	t		10.0	2.5	/experiments/AOT/AOT_stimuli/rescaled_final/0088_rv.mp4	0.0	107.3979640007019	
12	88.62350296974182	pulse	1	t		10.0	2.5	/experiments/AOT/AOT_stimuli/rescaled_final/0088_rv.mp4	0.0	109.00386095046997	
12	88.74162697792053	fix_post	2		12	10.0	2.5	/experiments/AOT/AOT_stimuli/rescaled_final/0088_rv.mp4	0.0	109.12198495864868	0.09990096092224121
13	88.84152793884277	fix_pre	0		120	11.0	2.5	/experiments/AOT/AOT_stimuli/rescaled_final/1599_fw.mp4	0.0	109.22188591957092	1.0001130104064941
13	89.84164094924927	movie	1		244	11.0	2.5	/experiments/AOT/AOT_stimuli/rescaled_final/1599_fw.mp4	0.0	110.22199892997742	2.4999380111694336
13	90.22509598731995	pulse	1	t		11.0	2.5	/experiments/AOT/AOT_stimuli/rescaled_final/1599_fw.mp4	0.0	110.6054539680481	
13	91.82508611679077	pulse	1	t		11.0	2.5	/experiments/AOT/AOT_stimuli/rescaled_final/1599_fw.mp4	0.0	112.20544409751892	
13	92.3415789604187	fix_post	2		12	11.0	2.5	/experiments/AOT/AOT_stimuli/rescaled_final/1599_fw.mp4	0.0	112.72193694114685	0.09998512268066406
14	92.44156408309937	fix_pre	0		119	12.0	2.5	/experiments/AOT/AOT_stimuli/rescaled_final/1387_fw.mp4	0.0	112.82192206382751	0.9916160106658936
14	93.4250340461731	pulse	0	t		12.0	2.5	/experiments/AOT/AOT_stimuli/rescaled_final/1387_fw.mp4	0.0	113.80539202690125	
14	93.43318009376526	movie	1		246	12.0	2.5	/experiments/AOT/AOT_stimuli/rescaled_final/1387_fw.mp4	0.0	113.81353807449341	2.5084359645843506
14	95.0251829624176	pulse	1	t		12.0	2.5	/experiments/AOT/AOT_stimuli/rescaled_final/1387_fw.mp4	0.0	115.40554094314575	
14	95.94161605834961	fix_post	2		12	12.0	2.5	/experiments/AOT/AOT_stimuli/rescaled_final/1387_fw.mp4	0.0	116.32197403907776	0.09986400604248047
15	96.04148006439209	fix_pre	0		120	13.0	2.5	blank	1.0	116.42183804512024	1.0000739097595215
15	96.62505316734314	pulse	0	t		13.0	2.5	blank	1.0	117.00541114807129	
15	97.04155397415161	movie	1		300	13.0	2.5	blank	1.0	117.42191195487976	2.499641180038452
15	98.22499012947083	pulse	1	t		13.0	2.5	blank	1.0	118.60534811019897	
15	99.54119515419006	fix_post	2		12	13.0	2.5	blank	1.0	119.92155313491821	0.10034894943237305
16	99.64154410362244	fix_pre	0		120	14.0	2.5	/experiments/AOT/AOT_stimuli/rescaled_final/1517_rv.mp4	0.0	120.02190208435059	0.9999649524688721
16	99.825040102005	pulse	0	t		14.0	2.5	/experiments/AOT/AOT_stimuli/rescaled_final/1517_rv.mp4	0.0	120.20539808273315	
16	100.64150905609131	movie	1		244	14.0	2.5	/experiments/AOT/AOT_stimuli/rescaled_final/1517_rv.mp4	0.0	121.02186703681946	2.4999969005584717
16	101.41755509376526	pulse	1	t		14.0	2.5	/experiments/AOT/AOT_stimuli/rescaled_final/1517_rv.mp4	0.0	121.79791307449341	
16	103.02350115776062	pulse	1	t		14.0	2.5	/experiments/AOT/AOT_stimuli/rescaled_final/1517_rv.mp4	0.0	123.40385913848877	
16	103.14150595664978	fix_post	2		12	14.0	2.5	/experiments/AOT/AOT_stimuli/rescaled_final/1517_rv.mp4	0.0	123.52186393737793	0.10005307197570801
17	103.24155902862549	fix_pre	0		120	15.0	2.5	/experiments/AOT/AOT_stimuli/rescaled_final/1885_fw.mp4	0.0	123.62191700935364	0.9999680519104004
17	104.24152708053589	movie	1		244	15.0	2.5	/experiments/AOT/AOT_stimuli/rescaled_final/1885_fw.mp4	0.0	124.62188506126404	2.4999349117279053
17	104.62605404853821	pulse	1	t		15.0	2.5	/experiments/AOT/AOT_stimuli/rescaled_final/1885_fw.mp4	0.0	125.00641202926636	
17	106.21778512001038	pulse	1	t		15.0	2.5	/experiments/AOT/AOT_stimuli/rescaled_final/1885_fw.mp4	0.0	126.59814310073853	
17	106.7414619922638	fix_post	2		12	15.0	2.5	/experiments/AOT/AOT_stimuli/rescaled_final/1885_fw.mp4	0.0	127.12181997299194	0.10004806518554688
18	106.84151005744934	fix_pre	0		119	16.0	2.5	/experiments/AOT/AOT_stimuli/rescaled_final/0994_rv.mp4	0.0	127.22186803817749	0.9916889667510986
18	107.82506203651428	pulse	0	t		16.0	2.5	/experiments/AOT/AOT_stimuli/rescaled_final/0994_rv.mp4	0.0	128.20542001724243	
18	107.83319902420044	movie	1		244	16.0	2.5	/experiments/AOT/AOT_stimuli/rescaled_final/0994_rv.mp4	0.0	128.2135570049286	2.508435010910034
18	109.42436408996582	pulse	1	t		16.0	2.5	/experiments/AOT/AOT_stimuli/rescaled_final/0994_rv.mp4	0.0	129.80472207069397	
18	110.34163403511047	fix_post	2		12	16.0	2.5	/experiments/AOT/AOT_stimuli/rescaled_final/0994_rv.mp4	0.0	130.72199201583862	0.09994196891784668
19	110.44157600402832	fix_pre	0		120	17.0	2.5	/experiments/AOT/AOT_stimuli/rescaled_final/1892_rv.mp4	0.0	130.82193398475647	0.9995009899139404
19	111.02503108978271	pulse	0	t		17.0	2.5	/experiments/AOT/AOT_stimuli/rescaled_final/1892_rv.mp4	0.0	131.40538907051086	
19	111.44107699394226	movie	1		247	17.0	2.5	/experiments/AOT/AOT_stimuli/rescaled_final/1892_rv.mp4	0.0	131.8214349746704	2.5006320476531982
19	112.6246120929718	pulse	1	t		17.0	2.5	/experiments/AOT/AOT_stimuli/rescaled_final/1892_rv.mp4	0.0	133.00497007369995	
19	113.94170904159546	fix_post	2		12	17.0	2.5	/experiments/AOT/AOT_stimuli/rescaled_final/1892_rv.mp4	0.0	134.3220670223236	0.10002899169921875
20	114.04173803329468	fix_pre	0		120	18.0	2.5	/experiments/AOT/AOT_stimuli/rescaled_final/1852_fw.mp4	0.0	134.42209601402283	0.9997661113739014
20	114.21780300140381	pulse	0	t		18.0	2.5	/experiments/AOT/AOT_stimuli/rescaled_final/1852_fw.mp4	0.0	134.59816098213196	
20	115.04150414466858	movie	1		245	18.0	2.5	/experiments/AOT/AOT_stimuli/rescaled_final/1852_fw.mp4	0.0	135.42186212539673	2.4999988079071045
20	115.82512402534485	pulse	1	t		18.0	2.5	/experiments/AOT/AOT_stimuli/rescaled_final/1852_fw.mp4	0.0	136.205482006073	
20	117.42368698120117	pulse	1	t		18.0	2.5	/experiments/AOT/AOT_stimuli/rescaled_final/1852_fw.mp4	0.0	137.80404496192932	
20	117.54150295257568	fix_post	2		12	18.0	2.5	/experiments/AOT/AOT_stimuli/rescaled_final/1852_fw.mp4	0.0	137.92186093330383	0.1000521183013916
21	117.64155507087708	fix_pre	0		120	19.0	2.5	blank	1.0	138.02191305160522	0.9998950958251953
21	118.64145016670227	movie	1		300	19.0	2.5	blank	1.0	139.02180814743042	2.4999868869781494
21	119.02489399909973	pulse	1	t		19.0	2.5	blank	1.0	139.40525197982788	
21	120.61728501319885	pulse	1	t		19.0	2.5	blank	1.0	140.997642993927	
21	121.14143705368042	fix_post	2		12	19.0	2.5	blank	1.0	141.52179503440857	0.09997010231018066
22	121.2414071559906	fix_pre	0		119	20.0	2.5	/experiments/AOT/AOT_stimuli/rescaled_final/2073_fw.mp4	0.0	141.62176513671875	0.9916379451751709
22	122.21740412712097	pulse	0	t		20.0	2.5	/experiments/AOT/AOT_stimuli/rescaled_final/2073_fw.mp4	0.0	142.59776210784912	
22	122.23304510116577	movie	1		245	20.0	2.5	/experiments/AOT/AOT_stimuli/rescaled_final/2073_fw.mp4	0.0	142.61340308189392	2.5082900524139404
22	123.82451915740967	pulse	1	t		20.0	2.5	/experiments/AOT/AOT_stimuli/rescaled_final/2073_fw.mp4	0.0	144.20487713813782	
22	124.74133515357971	fix_post	2		12	20.0	2.5	/experiments/AOT/AOT_stimuli/rescaled_final/2073_fw.mp4	0.0	145.12169313430786	0.10001587867736816
23	124.84135103225708	fix_pre	0		120	21.0	2.5	/experiments/AOT/AOT_stimuli/rescaled_final/0251_fw.mp4	0.0	145.22170901298523	1.0000181198120117
23	125.4249701499939	pulse	0	t		21.0	2.5	/experiments/AOT/AOT_stimuli/rescaled_final/0251_fw.mp4	0.0	145.80532813072205	
23	125.84136915206909	movie	1		244	21.0	2.5	/experiments/AOT/AOT_stimuli/rescaled_final/0251_fw.mp4	0.0	146.22172713279724	2.499926805496216
23	127.02487897872925	pulse	1	t		21.0	2.5	/experiments/AOT/AOT_stimuli/rescaled_final/0251_fw.mp4	0.0	147.4052369594574	
23	128.3412959575653	fix_post	2		12	21.0	2.5	/experiments/AOT/AOT_stimuli/rescaled_final/0251_fw.mp4	0.0	148.72165393829346	0.1000821590423584
24	128.44137811660767	fix_pre	0		120	22.0	2.5	/experiments/AOT/AOT_stimuli/rescaled_final/2073_rv.mp4	0.0	148.82173609733582	0.9995908737182617
24	128.62488102912903	pulse	0	t		22.0	2.5	/experiments/AOT/AOT_stimuli/rescaled_final/2073_rv.mp4	0.0	149.00523900985718	
24	129.44096899032593	movie	1		245	22.0	2.5	/experiments/AOT/AOT_stimuli/rescaled_final/2073_rv.mp4	0.0	149.82132697105408	2.499983072280884
24	130.2248649597168	pulse	1	t		22.0	2.5	/experiments/AOT/AOT_stimuli/rescaled_final/2073_rv.mp4	0.0	150.60522294044495	
24	131.82331609725952	pulse	1	t		22.0	2.5	/experiments/AOT/AOT_stimuli/rescaled_final/2073_rv.mp4	0.0	152.20367407798767	
24	131.9409520626068	fix_post	2		12	22.0	2.5	/experiments/AOT/AOT_stimuli/rescaled_final/2073_rv.mp4	0.0	152.32131004333496	0.10053896903991699
25	132.04149103164673	fix_pre	0		120	23.0	2.5	/experiments/AOT/AOT_stimuli/rescaled_final/0063_rv.mp4	0.0	152.42184901237488	0.999859094619751
25	133.04135012626648	movie	1		245	23.0	2.5	/experiments/AOT/AOT_stimuli/rescaled_final/0063_rv.mp4	0.0	153.42170810699463	2.5000109672546387
25	133.42487812042236	pulse	1	t		23.0	2.5	/experiments/AOT/AOT_stimuli/rescaled_final/0063_rv.mp4	0.0	153.8052361011505	
25	135.0175540447235	pulse	1	t		23.0	2.5	/experiments/AOT/AOT_stimuli/rescaled_final/0063_rv.mp4	0.0	155.39791202545166	
25	135.54136109352112	fix_post	2		12	23.0	2.5	/experiments/AOT/AOT_stimuli/rescaled_final/0063_rv.mp4	0.0	155.92171907424927	0.09996485710144043
26	135.64132595062256	fix_pre	0		119	24.0	2.5	/experiments/AOT/AOT_stimuli/rescaled_final/1979_rv.mp4	0.0	156.0216839313507	0.9916541576385498
26	136.62481808662415	pulse	0	t		24.0	2.5	/experiments/AOT/AOT_stimuli/rescaled_final/1979_rv.mp4	0.0	157.0051760673523	
26	136.6329801082611	movie	1		246	24.0	2.5	/experiments/AOT/AOT_stimuli/rescaled_final/1979_rv.mp4	0.0	157.01333808898926	2.5079920291900635
26	138.2246241569519	pulse	1	t		24.0	2.5	/experiments/AOT/AOT_stimuli/rescaled_final/1979_rv.mp4	0.0	158.60498213768005	
26	139.14097213745117	fix_post	2		12	24.0	2.5	/experiments/AOT/AOT_stimuli/rescaled_final/1979_rv.mp4	0.0	159.52133011817932	0.10030698776245117
27	139.24127912521362	fix_pre	0		120	25.0	2.5	/experiments/AOT/AOT_stimuli/rescaled_final/0437_rv.mp4	0.0	159.62163710594177	0.9999740123748779
27	139.82481813430786	pulse	0	t		25.0	2.5	/experiments/AOT/AOT_stimuli/rescaled_final/0437_rv.mp4	0.0	160.205176115036	
27	140.2412531375885	movie	1		244	25.0	2.5	/experiments/AOT/AOT_stimuli/rescaled_final/0437_rv.mp4	0.0	160.62161111831665	2.500005006790161
27	141.42497205734253	pulse	1	t		25.0	2.5	/experiments/AOT/AOT_stimuli/rescaled_final/0437_rv.mp4	0.0	161.80533003807068	
27	142.74125814437866	fix_post	2		12	25.0	2.5	/experiments/AOT/AOT_stimuli/rescaled_final/0437_rv.mp4	0.0	163.1216161251068	0.09997391700744629
28	142.8412320613861	fix_pre	0		120	26.0	2.5	/experiments/AOT/AOT_stimuli/rescaled_final/0318_rv.mp4	0.0	163.22159004211426	1.0000460147857666
28	143.02474904060364	pulse	0	t		26.0	2.5	/experiments/AOT/AOT_stimuli/rescaled_final/0318_rv.mp4	0.0	163.4051070213318	
28	143.84127807617188	movie	1		245	26.0	2.5	/experiments/AOT/AOT_stimuli/rescaled_final/0318_rv.mp4	0.0	164.22163605690002	2.499980926513672
28	144.62484097480774	pulse	1	t		26.0	2.5	/experiments/AOT/AOT_stimuli/rescaled_final/0318_rv.mp4	0.0	165.0051989555359	
28	146.22366499900818	pulse	1	t		26.0	2.5	/experiments/AOT/AOT_stimuli/rescaled_final/0318_rv.mp4	0.0	166.60402297973633	
28	146.34125900268555	fix_post	2		12	26.0	2.5	/experiments/AOT/AOT_stimuli/rescaled_final/0318_rv.mp4	0.0	166.7216169834137	0.10001802444458008
29	146.44127702713013	fix_pre	0		120	27.0	2.5	blank	1.0	166.82163500785828	1.000049114227295
29	147.44132614135742	movie	1		300	27.0	2.5	blank	1.0	167.82168412208557	2.4999589920043945
29	147.8247640132904	pulse	1	t		27.0	2.5	blank	1.0	168.20512199401855	
29	149.42478203773499	pulse	1	t		27.0	2.5	blank	1.0	169.80514001846313	
29	149.94128513336182	fix_post	2		12	27.0	2.5	blank	1.0	170.32164311408997	0.10000801086425781
30	150.04129314422607	fix_pre	0		119	28.0	2.5	/experiments/AOT/AOT_stimuli/rescaled_final/1166_rv.mp4	0.0	170.42165112495422	0.9916188716888428
30	151.02476716041565	pulse	0	t		28.0	2.5	/experiments/AOT/AOT_stimuli/rescaled_final/1166_rv.mp4	0.0	171.4051251411438	
30	151.03291201591492	movie	1		247	28.0	2.5	/experiments/AOT/AOT_stimuli/rescaled_final/1166_rv.mp4	0.0	171.41326999664307	2.5084080696105957
30	152.62431406974792	pulse	1	t		28.0	2.5	/experiments/AOT/AOT_stimuli/rescaled_final/1166_rv.mp4	0.0	173.00467205047607	
30	153.5413200855255	fix_post	2		12	28.0	2.5	/experiments/AOT/AOT_stimuli/rescaled_final/1166_rv.mp4	0.0	173.92167806625366	0.09989190101623535
31	153.64121198654175	fix_pre	0		120	29.0	2.5	/experiments/AOT/AOT_stimuli/rescaled_final/1429_rv.mp4	0.0	174.0215699672699	1.000046968460083
31	154.22476816177368	pulse	0	t		29.0	2.5	/experiments/AOT/AOT_stimuli/rescaled_final/1429_rv.mp4	0.0	174.60512614250183	
31	154.64125895500183	movie	1		243	29.0	2.5	/experiments/AOT/AOT_stimuli/rescaled_final/1429_rv.mp4	0.0	175.02161693572998	2.500014066696167
31	155.82479810714722	pulse	1	t		29.0	2.5	/experiments/AOT/AOT_stimuli/rescaled_final/1429_rv.mp4	0.0	176.20515608787537	
31	157.141273021698	fix_post	2		12	29.0	2.5	/experiments/AOT/AOT_stimuli/rescaled_final/1429_rv.mp4	0.0	177.52163100242615	0.09997391700744629
32	157.24124693870544	fix_pre	0		120	30.0	2.5	/experiments/AOT/AOT_stimuli/rescaled_final/0638_rv.mp4	0.0	177.6216049194336	0.9999580383300781
32	157.42486906051636	pulse	0	t		30.0	2.5	/experiments/AOT/AOT_stimuli/rescaled_final/0638_rv.mp4	0.0	177.8052270412445	
32	158.24120497703552	movie	1		245	30.0	2.5	/experiments/AOT/AOT_stimuli/rescaled_final/0638_rv.mp4	0.0	178.62156295776367	2.5000431537628174
32	159.02467393875122	pulse	1	t		30.0	2.5	/experiments/AOT/AOT_stimuli/rescaled_final/0638_rv.mp4	0.0	179.40503191947937	
32	160.6234951019287	pulse	1	t		30.0	2.5	/experiments/AOT/AOT_stimuli/rescaled_final/0638_rv.mp4	0.0	181.00385308265686	
32	160.74124813079834	fix_post	2		12	30.0	2.5	/experiments/AOT/AOT_stimuli/rescaled_final/0638_rv.mp4	0.0	181.1216061115265	0.0999598503112793
33	160.84120798110962	fix_pre	0		120	31.0	2.5	/experiments/AOT/AOT_stimuli/rescaled_final/1086_rv.mp4	0.0	181.22156596183777	1.0000309944152832
33	161.8412389755249	movie	1		245	31.0	2.5	/experiments/AOT/AOT_stimuli/rescaled_final/1086_rv.mp4	0.0	182.22159695625305	2.5001261234283447
33	162.22576594352722	pulse	1	t		31.0	2.5	/experiments/AOT/AOT_stimuli/rescaled_final/1086_rv.mp4	0.0	182.60612392425537	
33	163.82480001449585	pulse	1	t		31.0	2.5	/experiments/AOT/AOT_stimuli/rescaled_final/1086_rv.mp4	0.0	184.205157995224	
33	164.34136509895325	fix_post	2		12	31.0	2.5	/experiments/AOT/AOT_stimuli/rescaled_final/1086_rv.mp4	0.0	184.7217230796814	0.09981203079223633
34	164.44117712974548	fix_pre	0		119	32.0	2.5	/experiments/AOT/AOT_stimuli/rescaled_final/0422_rv.mp4	0.0	184.82153511047363	0.9917178153991699
34	165.4247989654541	pulse	0	t		32.0	2.5	/experiments/AOT/AOT_stimuli/rescaled_final/0422_rv.mp4	0.0	185.80515694618225	
34	165.43289494514465	movie	1		245	32.0	2.5	/experiments/AOT/AOT_stimuli/rescaled_final/0422_rv.mp4	0.0	185.8132529258728	2.5079100131988525
34	167.0242199897766	pulse	1	t		32.0	2.5	/experiments/AOT/AOT_stimuli/rescaled_final/0422_rv.mp4	0.0	187.40457797050476	
34	167.9408049583435	fix_post	2		12	32.0	2.5	/experiments/AOT/AOT_stimuli/rescaled_final/0422_rv.mp4	0.0	188.32116293907166	0.10001420974731445
35	168.04081916809082	fix_pre	0		120	33.0	2.5	/experiments/AOT/AOT_stimuli/rescaled_final/0436_rv.mp4	0.0	188.42117714881897	1.000485897064209
35	168.62440609931946	pulse	0	t		33.0	2.5	/experiments/AOT/AOT_stimuli/rescaled_final/0436_rv.mp4	0.0	189.0047640800476	
35	169.04130506515503	movie	1		243	33.0	2.5	/experiments/AOT/AOT_stimuli/rescaled_final/0436_rv.mp4	0.0	189.42166304588318	2.4998390674591064
35	170.2246069908142	pulse	1	t		33.0	2.5	/experiments/AOT/AOT_stimuli/rescaled_final/0436_rv.mp4	0.0	190.60496497154236	
35	171.54114413261414	fix_post	2		12	33.0	2.5	/experiments/AOT/AOT_stimuli/rescaled_final/0436_rv.mp4	0.0	191.92150211334229	0.10005998611450195
36	171.64120411872864	fix_pre	0		120	34.0	2.5	blank	1.0	192.0215620994568	0.9999549388885498
36	171.824716091156	pulse	0	t		34.0	2.5	blank	1.0	192.20507407188416	
36	172.6411590576172	movie	1		300	34.0	2.5	blank	1.0	193.02151703834534	2.5001330375671387
36	173.4246950149536	pulse	1	t		34.0	2.5	blank	1.0	193.80505299568176	
36	175.02454710006714	pulse	1	t		34.0	2.5	blank	1.0	195.4049050807953	
36	175.14129209518433	fix_post	2		12	34.0	2.5	blank	1.0	195.52165007591248	0.09981584548950195
37	175.24110794067383	fix_pre	0		120	35.0	2.5	/experiments/AOT/AOT_stimuli/rescaled_final/0188_rv.mp4	0.0	195.62146592140198	1.000002145767212
37	176.24111008644104	movie	1		246	35.0	2.5	/experiments/AOT/AOT_stimuli/rescaled_final/0188_rv.mp4	0.0	196.6214680671692	2.4999959468841553
37	176.62409210205078	pulse	1	t		35.0	2.5	/experiments/AOT/AOT_stimuli/rescaled_final/0188_rv.mp4	0.0	197.00445008277893	
37	178.22457599639893	pulse	1	t		35.0	2.5	/experiments/AOT/AOT_stimuli/rescaled_final/0188_rv.mp4	0.0	198.60493397712708	
37	178.7411060333252	fix_post	2		12	35.0	2.5	/experiments/AOT/AOT_stimuli/rescaled_final/0188_rv.mp4	0.0	199.12146401405334	0.10011005401611328
38	178.8412160873413	fix_pre	0		119	36.0	2.5	/experiments/AOT/AOT_stimuli/rescaled_final/1580_rv.mp4	0.0	199.22157406806946	0.9915618896484375
38	179.82470417022705	pulse	0	t		36.0	2.5	/experiments/AOT/AOT_stimuli/rescaled_final/1580_rv.mp4	0.0	200.2050621509552	
38	179.83277797698975	movie	1		247	36.0	2.5	/experiments/AOT/AOT_stimuli/rescaled_final/1580_rv.mp4	0.0	200.2131359577179	2.508254051208496
38	181.42455410957336	pulse	1	t		36.0	2.5	/experiments/AOT/AOT_stimuli/rescaled_final/1580_rv.mp4	0.0	201.8049120903015	
38	182.34103202819824	fix_post	2		12	36.0	2.5	/experiments/AOT/AOT_stimuli/rescaled_final/1580_rv.mp4	0.0	202.7213900089264	0.10006093978881836
39	182.44109296798706	fix_pre	0		120	37.0	2.5	/experiments/AOT/AOT_stimuli/rescaled_final/0265_fw.mp4	0.0	202.8214509487152	0.9999940395355225
39	183.02459001541138	pulse	0	t		37.0	2.5	/experiments/AOT/AOT_stimuli/rescaled_final/0265_fw.mp4	0.0	203.40494799613953	
39	183.44108700752258	movie	1		244	37.0	2.5	/experiments/AOT/AOT_stimuli/rescaled_final/0265_fw.mp4	0.0	203.82144498825073	2.5000510215759277
39	184.62468910217285	pulse	1	t		37.0	2.5	/experiments/AOT/AOT_stimuli/rescaled_final/0265_fw.mp4	0.0	205.005047082901	
39	185.9411380290985	fix_post	2		12	37.0	2.5	/experiments/AOT/AOT_stimuli/rescaled_final/0265_fw.mp4	0.0	206.32149600982666	0.09989309310913086
40	186.04103112220764	fix_pre	0		120	38.0	2.5	/experiments/AOT/AOT_stimuli/rescaled_final/1352_fw.mp4	0.0	206.4213891029358	1.00003981590271
40	186.22463202476501	pulse	0	t		38.0	2.5	/experiments/AOT/AOT_stimuli/rescaled_final/1352_fw.mp4	0.0	206.60499000549316	
40	187.04107093811035	movie	1		244	38.0	2.5	/experiments/AOT/AOT_stimuli/rescaled_final/1352_fw.mp4	0.0	207.4214289188385	2.5000290870666504
40	187.82460498809814	pulse	1	t		38.0	2.5	/experiments/AOT/AOT_stimuli/rescaled_final/1352_fw.mp4	0.0	208.2049629688263	
40	189.4227910041809	pulse	1	t		38.0	2.5	/experiments/AOT/AOT_stimuli/rescaled_final/1352_fw.mp4	0.0	209.80314898490906	
40	189.541100025177	fix_post	2		12	38.0	2.5	/experiments/AOT/AOT_stimuli/rescaled_final/1352_fw.mp4	0.0	209.92145800590515	0.0999751091003418
41	189.64107513427734	fix_pre	0		120	39.0	2.5	/experiments/AOT/AOT_stimuli/rescaled_final/1716_fw.mp4	0.0	210.0214331150055	0.9999949932098389
41	190.64107012748718	movie	1		243	39.0	2.5	/experiments/AOT/AOT_stimuli/rescaled_final/1716_fw.mp4	0.0	211.02142810821533	2.5000908374786377
41	191.02435493469238	pulse	1	t		39.0	2.5	/experiments/AOT/AOT_stimuli/rescaled_final/1716_fw.mp4	0.0	211.40471291542053	
41	192.62455296516418	pulse	1	t		39.0	2.5	/experiments/AOT/AOT_stimuli/rescaled_final/1716_fw.mp4	0.0	213.00491094589233	
41	193.14116096496582	fix_post	2		12	39.0	2.5	/experiments/AOT/AOT_stimuli/rescaled_final/1716_fw.mp4	0.0	213.52151894569397	0.09990310668945312
42	193.24106407165527	fix_pre	0		119	40.0	2.5	/experiments/AOT/AOT_stimuli/rescaled_final/2027_fw.mp4	0.0	213.62142205238342	0.9916150569915771
42	194.2245900630951	pulse	0	t		40.0	2.5	/experiments/AOT/AOT_stimuli/rescaled_final/2027_fw.mp4	0.0	214.60494804382324	
42	194.23267912864685	movie	1		243	40.0	2.5	/experiments/AOT/AOT_stimuli/rescaled_final/2027_fw.mp4	0.0	214.613037109375	2.5083909034729004
42	195.82431197166443	pulse	1	t		40.0	2.5	/experiments/AOT/AOT_stimuli/rescaled_final/2027_fw.mp4	0.0	216.20466995239258	
42	196.74107003211975	fix_post	2		12	40.0	2.5	/experiments/AOT/AOT_stimuli/rescaled_final/2027_fw.mp4	0.0	217.1214280128479	0.09994101524353027
43	196.84101104736328	fix_pre	0		120	41.0	2.5	/experiments/AOT/AOT_stimuli/rescaled_final/0436_rv.mp4	0.0	217.22136902809143	1.000162124633789
43	197.42447710037231	pulse	0	t		41.0	2.5	/experiments/AOT/AOT_stimuli/rescaled_final/0436_rv.mp4	0.0	217.80483508110046	
43	197.84117317199707	movie	1		244	41.0	2.5	/experiments/AOT/AOT_stimuli/rescaled_final/0436_rv.mp4	0.0	218.22153115272522	2.4999358654022217
43	199.0245680809021	pulse	1	t		41.0	2.5	/experiments/AOT/AOT_stimuli/rescaled_final/0436_rv.mp4	0.0	219.40492606163025	
43	200.3411090373993	fix_post	2		12	41.0	2.5	/experiments/AOT/AOT_stimuli/rescaled_final/0436_rv.mp4	0.0	220.72146701812744	0.09992408752441406
44	200.4410331249237	fix_pre	0		120	42.0	2.5	blank	1.0	220.82139110565186	0.999985933303833
44	200.6244921684265	pulse	0	t		42.0	2.5	blank	1.0	221.00485014915466	
44	201.44101905822754	movie	1		300	42.0	2.5	blank	1.0	221.8213770389557	2.500009059906006
44	202.22440195083618	pulse	1	t		42.0	2.5	blank	1.0	222.60475993156433	
44	203.82449102401733	pulse	1	t		42.0	2.5	blank	1.0	224.20484900474548	
44	203.94102811813354	fix_post	2		12	42.0	2.5	blank	1.0	224.3213860988617	0.09997200965881348
45	204.04100012779236	fix_pre	0		120	43.0	2.5	/experiments/AOT/AOT_stimuli/rescaled_final/1182_rv.mp4	0.0	224.4213581085205	1.000013828277588
45	205.04101395606995	movie	1		245	43.0	2.5	/experiments/AOT/AOT_stimuli/rescaled_final/1182_rv.mp4	0.0	225.4213719367981	2.4999611377716064
45	205.42543506622314	pulse	1	t		43.0	2.5	/experiments/AOT/AOT_stimuli/rescaled_final/1182_rv.mp4	0.0	225.8057930469513	
45	207.02449011802673	pulse	1	t		43.0	2.5	/experiments/AOT/AOT_stimuli/rescaled_final/1182_rv.mp4	0.0	227.40484809875488	
45	207.54097509384155	fix_post	2		12	43.0	2.5	/experiments/AOT/AOT_stimuli/rescaled_final/1182_rv.mp4	0.0	227.9213330745697	0.10006403923034668
46	207.6410391330719	fix_pre	0		119	44.0	2.5	/experiments/AOT/AOT_stimuli/rescaled_final/0498_rv.mp4	0.0	228.02139711380005	0.9916009902954102
46	208.62445712089539	pulse	0	t		44.0	2.5	/experiments/AOT/AOT_stimuli/rescaled_final/0498_rv.mp4	0.0	229.00481510162354	
46	208.6326401233673	movie	1		245	44.0	2.5	/experiments/AOT/AOT_stimuli/rescaled_final/0498_rv.mp4	0.0	229.01299810409546	2.5083248615264893
46	210.22416806221008	pulse	1	t		44.0	2.5	/experiments/AOT/AOT_stimuli/rescaled_final/0498_rv.mp4	0.0	230.60452604293823	
46	211.1409649848938	fix_post	2		12	44.0	2.5	/experiments/AOT/AOT_stimuli/rescaled_final/0498_rv.mp4	0.0	231.52132296562195	0.10000205039978027
47	211.24096703529358	fix_pre	0		120	45.0	2.5	/experiments/AOT/AOT_stimuli/rescaled_final/0549_rv.mp4	0.0	231.62132501602173	0.9999840259552002
47	211.82457304000854	pulse	0	t		45.0	2.5	/experiments/AOT/AOT_stimuli/rescaled_final/0549_rv.mp4	0.0	232.2049310207367	
47	212.24095106124878	movie	1		243	45.0	2.5	/experiments/AOT/AOT_stimuli/rescaled_final/0549_rv.mp4	0.0	232.62130904197693	2.499988079071045
47	213.42456007003784	pulse	1	t		45.0	2.5	/experiments/AOT/AOT_stimuli/rescaled_final/0549_rv.mp4	0.0	233.804918050766	
47	214.74093914031982	fix_post	2		12	45.0	2.5	/experiments/AOT/AOT_stimuli/rescaled_final/0549_rv.mp4	0.0	235.12129712104797	0.09999299049377441
48	214.8409321308136	fix_pre	0		120	46.0	2.5	/experiments/AOT/AOT_stimuli/rescaled_final/1459_rv.mp4	0.0	235.22129011154175	1.0000050067901611
48	215.02446293830872	pulse	0	t		46.0	2.5	/experiments/AOT/AOT_stimuli/rescaled_final/1459_rv.mp4	0.0	235.40482091903687	
48	215.84093713760376	movie	1		244	46.0	2.5	/experiments/AOT/AOT_stimuli/rescaled_final/1459_rv.mp4	0.0	236.2212951183319	2.499933958053589
48	216.62448811531067	pulse	1	t		46.0	2.5	/experiments/AOT/AOT_stimuli/rescaled_final/1459_rv.mp4	0.0	237.00484609603882	
48	218.22297406196594	pulse	1	t		46.0	2.5	/experiments/AOT/AOT_stimuli/rescaled_final/1459_rv.mp4	0.0	238.6033320426941	
48	218.34087109565735	fix_post	2		12	46.0	2.5	/experiments/AOT/AOT_stimuli/rescaled_final/1459_rv.mp4	0.0	238.7212290763855	0.10016989707946777
49	218.44104099273682	fix_pre	0		120	47.0	2.5	/experiments/AOT/AOT_stimuli/rescaled_final/1867_fw.mp4	0.0	238.82139897346497	0.9999151229858398
49	219.44095611572266	movie	1		243	47.0	2.5	/experiments/AOT/AOT_stimuli/rescaled_final/1867_fw.mp4	0.0	239.8213140964508	2.4999139308929443
49	219.82391905784607	pulse	1	t		47.0	2.5	/experiments/AOT/AOT_stimuli/rescaled_final/1867_fw.mp4	0.0	240.20427703857422	
49	221.42448496818542	pulse	1	t		47.0	2.5	/experiments/AOT/AOT_stimuli/rescaled_final/1867_fw.mp4	0.0	241.80484294891357	
49	221.9408700466156	fix_post	2		12	47.0	2.5	/experiments/AOT/AOT_stimuli/rescaled_final/1867_fw.mp4	0.0	242.32122802734375	0.10004591941833496
50	222.04091596603394	fix_pre	0		119	48.0	2.5	/experiments/AOT/AOT_stimuli/rescaled_final/1274_fw.mp4	0.0	242.42127394676208	0.9912600517272949
50	223.0239450931549	pulse	0	t		48.0	2.5	/experiments/AOT/AOT_stimuli/rescaled_final/1274_fw.mp4	0.0	243.40430307388306	
50	223.03217601776123	movie	1		247	48.0	2.5	/experiments/AOT/AOT_stimuli/rescaled_final/1274_fw.mp4	0.0	243.41253399848938	2.508594036102295
50	224.6240770816803	pulse	1	t		48.0	2.5	/experiments/AOT/AOT_stimuli/rescaled_final/1274_fw.mp4	0.0	245.00443506240845	
50	225.54077005386353	fix_post	2		12	48.0	2.5	/experiments/AOT/AOT_stimuli/rescaled_final/1274_fw.mp4	0.0	245.92112803459167	0.09994006156921387
51	225.64071011543274	fix_pre	0		120	49.0	2.5	blank	1.0	246.0210680961609	1.0002338886260986
51	226.22436594963074	pulse	0	t		49.0	2.5	blank	1.0	246.6047239303589	
51	226.64094400405884	movie	1		300	49.0	2.5	blank	1.0	247.021301984787	2.4999430179595947
51	227.8244321346283	pulse	1	t		49.0	2.5	blank	1.0	248.20479011535645	
51	229.14088702201843	fix_post	2		12	49.0	2.5	blank	1.0	249.52124500274658	0.10009002685546875
52	229.2409770488739	fix_pre	0		120	50.0	2.5	/experiments/AOT/AOT_stimuli/rescaled_final/0845_fw.mp4	0.0	249.62133502960205	0.9999449253082275
52	229.42443013191223	pulse	0	t		50.0	2.5	/experiments/AOT/AOT_stimuli/rescaled_final/0845_fw.mp4	0.0	249.80478811264038	
52	230.24092197418213	movie	1		246	50.0	2.5	/experiments/AOT/AOT_stimuli/rescaled_final/0845_fw.mp4	0.0	250.62127995491028	2.499974012374878
52	231.02430701255798	pulse	1	t		50.0	2.5	/experiments/AOT/AOT_stimuli/rescaled_final/0845_fw.mp4	0.0	251.40466499328613	
52	232.62029910087585	pulse	1	t		50.0	2.5	/experiments/AOT/AOT_stimuli/rescaled_final/0845_fw.mp4	0.0	253.000657081604	
52	232.740895986557	fix_post	2		12	50.0	2.5	/experiments/AOT/AOT_stimuli/rescaled_final/0845_fw.mp4	0.0	253.12125396728516	0.09996914863586426
53	232.84086513519287	fix_pre	0		120	51.0	2.5	/experiments/AOT/AOT_stimuli/rescaled_final/0492_rv.mp4	0.0	253.22122311592102	0.9999608993530273
53	233.8408260345459	movie	1		243	51.0	2.5	/experiments/AOT/AOT_stimuli/rescaled_final/0492_rv.mp4	0.0	254.22118401527405	2.4999969005584717
53	234.225515127182	pulse	1	t		51.0	2.5	/experiments/AOT/AOT_stimuli/rescaled_final/0492_rv.mp4	0.0	254.60587310791016	
53	235.82428312301636	pulse	1	t		51.0	2.5	/experiments/AOT/AOT_stimuli/rescaled_final/0492_rv.mp4	0.0	256.2046411037445	
53	236.34082293510437	fix_post	2		12	51.0	2.5	/experiments/AOT/AOT_stimuli/rescaled_final/0492_rv.mp4	0.0	256.7211809158325	0.10006117820739746
54	236.44088411331177	fix_pre	0		119	52.0	2.5	/experiments/AOT/AOT_stimuli/rescaled_final/0100_fw.mp4	0.0	256.8212420940399	0.9915668964385986
54	237.42429113388062	pulse	0	t		52.0	2.5	/experiments/AOT/AOT_stimuli/rescaled_final/0100_fw.mp4	0.0	257.80464911460876	
54	237.43245100975037	movie	1		247	52.0	2.5	/experiments/AOT/AOT_stimuli/rescaled_final/0100_fw.mp4	0.0	257.8128089904785	2.508319139480591
54	239.0243480205536	pulse	1	t		52.0	2.5	/experiments/AOT/AOT_stimuli/rescaled_final/0100_fw.mp4	0.0	259.40470600128174	
54	239.94077014923096	fix_post	2		12	52.0	2.5	/experiments/AOT/AOT_stimuli/rescaled_final/0100_fw.mp4	0.0	260.3211281299591	0.10008597373962402
55	240.04085612297058	fix_pre	0		120	53.0	2.5	/experiments/AOT/AOT_stimuli/rescaled_final/1892_rv.mp4	0.0	260.42121410369873	0.9998898506164551
55	240.6255669593811	pulse	0	t		53.0	2.5	/experiments/AOT/AOT_stimuli/rescaled_final/1892_rv.mp4	0.0	261.00592494010925	
55	241.04074597358704	movie	1		244	53.0	2.5	/experiments/AOT/AOT_stimuli/rescaled_final/1892_rv.mp4	0.0	261.4211039543152	2.5000979900360107
55	242.2243709564209	pulse	1	t		53.0	2.5	/experiments/AOT/AOT_stimuli/rescaled_final/1892_rv.mp4	0.0	262.60472893714905	
55	243.54084396362305	fix_post	2		12	53.0	2.5	/experiments/AOT/AOT_stimuli/rescaled_final/1892_rv.mp4	0.0	263.9212019443512	0.09994912147521973
56	243.64079308509827	fix_pre	0		120	54.0	2.5	/experiments/AOT/AOT_stimuli/rescaled_final/1509_fw.mp4	0.0	264.0211510658264	1.0000789165496826
56	243.82432913780212	pulse	0	t		54.0	2.5	/experiments/AOT/AOT_stimuli/rescaled_final/1509_fw.mp4	0.0	264.2046871185303	
56	244.64087200164795	movie	1		247	54.0	2.5	/experiments/AOT/AOT_stimuli/rescaled_final/1509_fw.mp4	0.0	265.0212299823761	2.499886989593506
56	245.4242730140686	pulse	1	t		54.0	2.5	/experiments/AOT/AOT_stimuli/rescaled_final/1509_fw.mp4	0.0	265.80463099479675	
56	247.02380800247192	pulse	1	t		54.0	2.5	/experiments/AOT/AOT_stimuli/rescaled_final/1509_fw.mp4	0.0	267.4041659832001	
56	247.14075899124146	fix_post	2		12	54.0	2.5	/experiments/AOT/AOT_stimuli/rescaled_final/1509_fw.mp4	0.0	267.5211169719696	0.10001897811889648
57	247.24077796936035	fix_pre	0		120	55.0	2.5	blank	1.0	267.6211359500885	0.9999921321868896
57	248.24077010154724	movie	1		300	55.0	2.5	blank	1.0	268.6211280822754	2.5000500679016113
57	248.6242959499359	pulse	1	t		55.0	2.5	blank	1.0	269.00465393066406	
57	250.2242031097412	pulse	1	t		55.0	2.5	blank	1.0	270.60456109046936	
57	250.74082016944885	fix_post	2		12	55.0	2.5	blank	1.0	271.121178150177	0.10017776489257812
58	250.84099793434143	fix_pre	0		119	56.0	2.5	/experiments/AOT/AOT_stimuli/rescaled_final/0534_rv.mp4	0.0	271.2213559150696	0.9914381504058838
58	251.8243100643158	pulse	0	t		56.0	2.5	/experiments/AOT/AOT_stimuli/rescaled_final/0534_rv.mp4	0.0	272.20466804504395	
58	251.83243608474731	movie	1		246	56.0	2.5	/experiments/AOT/AOT_stimuli/rescaled_final/0534_rv.mp4	0.0	272.21279406547546	2.5083320140838623
58	253.42445516586304	pulse	1	t		56.0	2.5	/experiments/AOT/AOT_stimuli/rescaled_final/0534_rv.mp4	0.0	273.8048131465912	
58	254.34076809883118	fix_post	2		12	56.0	2.5	/experiments/AOT/AOT_stimuli/rescaled_final/0534_rv.mp4	0.0	274.7211260795593	0.09997105598449707
59	254.44073915481567	fix_pre	0		120	57.0	2.5	/experiments/AOT/AOT_stimuli/rescaled_final/1985_rv.mp4	0.0	274.8210971355438	1.0000228881835938
59	255.02562308311462	pulse	0	t		57.0	2.5	/experiments/AOT/AOT_stimuli/rescaled_final/1985_rv.mp4	0.0	275.4059810638428	
59	255.44076204299927	movie	1		245	57.0	2.5	/experiments/AOT/AOT_stimuli/rescaled_final/1985_rv.mp4	0.0	275.8211200237274	2.499998092651367
59	256.6243131160736	pulse	1	t		57.0	2.5	/experiments/AOT/AOT_stimuli/rescaled_final/1985_rv.mp4	0.0	277.00467109680176	
59	257.94076013565063	fix_post	2		12	57.0	2.5	/experiments/AOT/AOT_stimuli/rescaled_final/1985_rv.mp4	0.0	278.3211181163788	0.09992384910583496
60	258.04068398475647	fix_pre	0		120	58.0	2.5	/experiments/AOT/AOT_stimuli/rescaled_final/0738_rv.mp4	0.0	278.4210419654846	1.0000231266021729
60	258.2242341041565	pulse	0	t		58.0	2.5	/experiments/AOT/AOT_stimuli/rescaled_final/0738_rv.mp4	0.0	278.60459208488464	
60	259.04070711135864	movie	1		244	58.0	2.5	/experiments/AOT/AOT_stimuli/rescaled_final/0738_rv.mp4	0.0	279.4210650920868	2.5000908374786377
60	259.8243350982666	pulse	1	t		58.0	2.5	/experiments/AOT/AOT_stimuli/rescaled_final/0738_rv.mp4	0.0	280.20469307899475	
60	261.4229681491852	pulse	1	t		58.0	2.5	/experiments/AOT/AOT_stimuli/rescaled_final/0738_rv.mp4	0.0	281.80332612991333	
60	261.5407979488373	fix_post	2		12	58.0	2.5	/experiments/AOT/AOT_stimuli/rescaled_final/0738_rv.mp4	0.0	281.92115592956543	0.09991908073425293
61	261.64071702957153	fix_pre	0		120	59.0	2.5	/experiments/AOT/AOT_stimuli/rescaled_final/1709_fw.mp4	0.0	282.0210750102997	1.0000300407409668
61	262.6407470703125	movie	1		243	59.0	2.5	/experiments/AOT/AOT_stimuli/rescaled_final/1709_fw.mp4	0.0	283.02110505104065	2.4999749660491943
61	263.0241310596466	pulse	1	t		59.0	2.5	/experiments/AOT/AOT_stimuli/rescaled_final/1709_fw.mp4	0.0	283.40448904037476	
61	264.62420296669006	pulse	1	t		59.0	2.5	/experiments/AOT/AOT_stimuli/rescaled_final/1709_fw.mp4	0.0	285.0045609474182	
61	265.1407220363617	fix_post	2		12	59.0	2.5	/experiments/AOT/AOT_stimuli/rescaled_final/1709_fw.mp4	0.0	285.52108001708984	0.1000359058380127
62	265.2407579421997	fix_pre	0		119	60.0	2.5	/experiments/AOT/AOT_stimuli/rescaled_final/0715_fw.mp4	0.0	285.62111592292786	0.9916050434112549
62	266.22417998313904	pulse	0	t		60.0	2.5	/experiments/AOT/AOT_stimuli/rescaled_final/0715_fw.mp4	0.0	286.6045379638672	
62	266.23236298561096	movie	1		245	60.0	2.5	/experiments/AOT/AOT_stimuli/rescaled_final/0715_fw.mp4	0.0	286.6127209663391	2.5083491802215576
62	267.82443714141846	pulse	1	t		60.0	2.5	/experiments/AOT/AOT_stimuli/rescaled_final/0715_fw.mp4	0.0	288.2047951221466	
62	268.7407121658325	fix_post	2		12	60.0	2.5	/experiments/AOT/AOT_stimuli/rescaled_final/0715_fw.mp4	0.0	289.12107014656067	0.0999608039855957
63	268.8406729698181	fix_pre	0		120	61.0	2.5	/experiments/AOT/AOT_stimuli/rescaled_final/0054_fw.mp4	0.0	289.22103095054626	1.0001091957092285
63	269.4242160320282	pulse	0	t		61.0	2.5	/experiments/AOT/AOT_stimuli/rescaled_final/0054_fw.mp4	0.0	289.80457401275635	
63	269.84078216552734	movie	1		244	61.0	2.5	/experiments/AOT/AOT_stimuli/rescaled_final/0054_fw.mp4	0.0	290.2211401462555	2.4999258518218994
63	271.0244040489197	pulse	1	t		61.0	2.5	/experiments/AOT/AOT_stimuli/rescaled_final/0054_fw.mp4	0.0	291.4047620296478	
63	272.34070801734924	fix_post	2		12	61.0	2.5	/experiments/AOT/AOT_stimuli/rescaled_final/0054_fw.mp4	0.0	292.7210659980774	0.09993314743041992
64	272.44064116477966	fix_pre	0		120	62.0	2.5	/experiments/AOT/AOT_stimuli/rescaled_final/0210_fw.mp4	0.0	292.8209991455078	1.0000059604644775
64	272.62415409088135	pulse	0	t		62.0	2.5	/experiments/AOT/AOT_stimuli/rescaled_final/0210_fw.mp4	0.0	293.0045120716095	
64	273.44064712524414	movie	1		244	62.0	2.5	/experiments/AOT/AOT_stimuli/rescaled_final/0210_fw.mp4	0.0	293.8210051059723	2.500005006790161
64	274.2241311073303	pulse	1	t		62.0	2.5	/experiments/AOT/AOT_stimuli/rescaled_final/0210_fw.mp4	0.0	294.6044890880585	
64	275.8225910663605	pulse	1	t		62.0	2.5	/experiments/AOT/AOT_stimuli/rescaled_final/0210_fw.mp4	0.0	296.2029490470886	
64	275.9406521320343	fix_post	2		12	62.0	2.5	/experiments/AOT/AOT_stimuli/rescaled_final/0210_fw.mp4	0.0	296.32101011276245	0.10004401206970215
65	276.040696144104	fix_pre	0		120	63.0	2.5	blank	1.0	296.42105412483215	0.9999480247497559
65	277.04064416885376	movie	1		300	63.0	2.5	blank	1.0	297.4210021495819	2.5000088214874268
65	277.42421317100525	pulse	1	t		63.0	2.5	blank	1.0	297.8045711517334	
65	279.0237181186676	pulse	1	t		63.0	2.5	blank	1.0	299.40407609939575	
65	279.5406529903412	fix_post	2		12	63.0	2.5	blank	1.0	299.92101097106934	0.0999760627746582
66	279.64062905311584	fix_pre	0		119	64.0	2.5	/experiments/AOT/AOT_stimuli/rescaled_final/2131_rv.mp4	0.0	300.020987033844	0.9918670654296875
66	280.6243281364441	pulse	0	t		64.0	2.5	/experiments/AOT/AOT_stimuli/rescaled_final/2131_rv.mp4	0.0	301.00468611717224	
66	280.63249611854553	movie	1		245	64.0	2.5	/experiments/AOT/AOT_stimuli/rescaled_final/2131_rv.mp4	0.0	301.0128540992737	2.5080909729003906
66	282.2235310077667	pulse	1	t		64.0	2.5	/experiments/AOT/AOT_stimuli/rescaled_final/2131_rv.mp4	0.0	302.6038889884949	
66	283.1405870914459	fix_post	2		12	64.0	2.5	/experiments/AOT/AOT_stimuli/rescaled_final/2131_rv.mp4	0.0	303.5209450721741	0.10013008117675781
67	283.2407171726227	fix_pre	0		120	65.0	2.5	/experiments/AOT/AOT_stimuli/rescaled_final/1429_fw.mp4	0.0	303.62107515335083	0.999971866607666
67	283.8241431713104	pulse	0	t		65.0	2.5	/experiments/AOT/AOT_stimuli/rescaled_final/1429_fw.mp4	0.0	304.2045011520386	
67	284.24068903923035	movie	1		243	65.0	2.5	/experiments/AOT/AOT_stimuli/rescaled_final/1429_fw.mp4	0.0	304.6210470199585	2.4998779296875
67	285.42428493499756	pulse	1	t		65.0	2.5	/experiments/AOT/AOT_stimuli/rescaled_final/1429_fw.mp4	0.0	305.8046429157257	
67	286.74056696891785	fix_post	2		12	65.0	2.5	/experiments/AOT/AOT_stimuli/rescaled_final/1429_fw.mp4	0.0	307.120924949646	0.0999901294708252
68	286.8405570983887	fix_pre	0		120	66.0	2.5	/experiments/AOT/AOT_stimuli/rescaled_final/1705_rv.mp4	0.0	307.2209150791168	1.000035047531128
68	287.0240521430969	pulse	0	t		66.0	2.5	/experiments/AOT/AOT_stimuli/rescaled_final/1705_rv.mp4	0.0	307.4044101238251	
68	287.8405921459198	movie	1		244	66.0	2.5	/experiments/AOT/AOT_stimuli/rescaled_final/1705_rv.mp4	0.0	308.22095012664795	2.499950885772705
68	288.62404203414917	pulse	1	t		66.0	2.5	/experiments/AOT/AOT_stimuli/rescaled_final/1705_rv.mp4	0.0	309.0044000148773	
68	290.22219610214233	pulse	1	t		66.0	2.5	/experiments/AOT/AOT_stimuli/rescaled_final/1705_rv.mp4	0.0	310.6025540828705	
68	290.3405430316925	fix_post	2		12	66.0	2.5	/experiments/AOT/AOT_stimuli/rescaled_final/1705_rv.mp4	0.0	310.72090101242065	0.10006308555603027
69	290.44060611724854	fix_pre	0		120	67.0	2.5	/experiments/AOT/AOT_stimuli/rescaled_final/2031_rv.mp4	0.0	310.8209640979767	0.9999198913574219
69	291.44052600860596	movie	1		245	67.0	2.5	/experiments/AOT/AOT_stimuli/rescaled_final/2031_rv.mp4	0.0	311.8208839893341	2.5000009536743164
69	291.8236060142517	pulse	1	t		67.0	2.5	/experiments/AOT/AOT_stimuli/rescaled_final/2031_rv.mp4	0.0	312.20396399497986	
69	293.42404198646545	pulse	1	t		67.0	2.5	/experiments/AOT/AOT_stimuli/rescaled_final/2031_rv.mp4	0.0	313.8043999671936	
69	293.9405269622803	fix_post	2		12	67.0	2.5	/experiments/AOT/AOT_stimuli/rescaled_final/2031_rv.mp4	0.0	314.3208849430084	0.09996819496154785
70	294.0404951572418	fix_pre	0		119	68.0	2.5	/experiments/AOT/AOT_stimuli/rescaled_final/2119_rv.mp4	0.0	314.42085313796997	0.9917287826538086
70	295.0240590572357	pulse	0	t		68.0	2.5	/experiments/AOT/AOT_stimuli/rescaled_final/2119_rv.mp4	0.0	315.40441703796387	
70	295.03222393989563	movie	1		252	68.0	2.5	/experiments/AOT/AOT_stimuli/rescaled_final/2119_rv.mp4	0.0	315.4125819206238	2.5083580017089844
70	296.62380814552307	pulse	1	t		68.0	2.5	/experiments/AOT/AOT_stimuli/rescaled_final/2119_rv.mp4	0.0	317.0041661262512	
70	297.5405819416046	fix_post	2		12	68.0	2.5	/experiments/AOT/AOT_stimuli/rescaled_final/2119_rv.mp4	0.0	317.92093992233276	0.09987902641296387
71	297.6404609680176	fix_pre	0		120	69.0	2.5	blank	1.0	318.0208189487457	1.0001060962677002
71	298.2239911556244	pulse	0	t		69.0	2.5	blank	1.0	318.60434913635254	
71	298.6405670642853	movie	1		300	69.0	2.5	blank	1.0	319.0209250450134	2.4999499320983887
71	299.82403111457825	pulse	1	t		69.0	2.5	blank	1.0	320.2043890953064	
71	301.14051699638367	fix_post	2		12	69.0	2.5	blank	1.0	321.5208749771118	0.10002708435058594
72	301.24054408073425	fix_pre	0		120	70.0	2.5	/experiments/AOT/AOT_stimuli/rescaled_final/0840_fw.mp4	0.0	321.6209020614624	0.9999709129333496
72	301.4239959716797	pulse	0	t		70.0	2.5	/experiments/AOT/AOT_stimuli/rescaled_final/0840_fw.mp4	0.0	321.80435395240784	
72	302.2405149936676	movie	1		243	70.0	2.5	/experiments/AOT/AOT_stimuli/rescaled_final/0840_fw.mp4	0.0	322.62087297439575	2.5000250339508057
72	303.0240581035614	pulse	1	t		70.0	2.5	/experiments/AOT/AOT_stimuli/rescaled_final/0840_fw.mp4	0.0	323.40441608428955	
72	304.6226580142975	pulse	1	t		70.0	2.5	/experiments/AOT/AOT_stimuli/rescaled_final/0840_fw.mp4	0.0	325.00301599502563	
72	304.7405400276184	fix_post	2		12	70.0	2.5	/experiments/AOT/AOT_stimuli/rescaled_final/0840_fw.mp4	0.0	325.12089800834656	0.09996294975280762
73	304.8405029773712	fix_pre	0		120	71.0	2.5	/experiments/AOT/AOT_stimuli/rescaled_final/1595_rv.mp4	0.0	325.22086095809937	1.000025987625122
73	305.84052896499634	movie	1		244	71.0	2.5	/experiments/AOT/AOT_stimuli/rescaled_final/1595_rv.mp4	0.0	326.2208869457245	2.500014066696167
73	306.2238471508026	pulse	1	t		71.0	2.5	/experiments/AOT/AOT_stimuli/rescaled_final/1595_rv.mp4	0.0	326.60420513153076	
73	307.8239850997925	pulse	1	t		71.0	2.5	/experiments/AOT/AOT_stimuli/rescaled_final/1595_rv.mp4	0.0	328.20434308052063	
73	308.3405430316925	fix_post	2		12	71.0	2.5	/experiments/AOT/AOT_stimuli/rescaled_final/1595_rv.mp4	0.0	328.72090101242065	0.09994292259216309
74	308.44048595428467	fix_pre	0		119	72.0	2.5	/experiments/AOT/AOT_stimuli/rescaled_final/1406_rv.mp4	0.0	328.8208439350128	0.9916641712188721
74	309.423907995224	pulse	0	t		72.0	2.5	/experiments/AOT/AOT_stimuli/rescaled_final/1406_rv.mp4	0.0	329.80426597595215	
74	309.43215012550354	movie	1		246	72.0	2.5	/experiments/AOT/AOT_stimuli/rescaled_final/1406_rv.mp4	0.0	329.8125081062317	2.5084068775177
74	311.0249230861664	pulse	1	t		72.0	2.5	/experiments/AOT/AOT_stimuli/rescaled_final/1406_rv.mp4	0.0	331.40528106689453	
74	311.94055700302124	fix_post	2		12	72.0	2.5	/experiments/AOT/AOT_stimuli/rescaled_final/1406_rv.mp4	0.0	332.3209149837494	0.09992694854736328
75	312.0404839515686	fix_pre	0		120	73.0	2.5	/experiments/AOT/AOT_stimuli/rescaled_final/1288_rv.mp4	0.0	332.42084193229675	0.9999880790710449
75	312.6240141391754	pulse	0	t		73.0	2.5	/experiments/AOT/AOT_stimuli/rescaled_final/1288_rv.mp4	0.0	333.00437211990356	
75	313.04047203063965	movie	1		246	73.0	2.5	/experiments/AOT/AOT_stimuli/rescaled_final/1288_rv.mp4	0.0	333.4208300113678	2.5000040531158447
75	314.2239670753479	pulse	1	t		73.0	2.5	/experiments/AOT/AOT_stimuli/rescaled_final/1288_rv.mp4	0.0	334.60432505607605	
75	315.5404760837555	fix_post	2		12	73.0	2.5	/experiments/AOT/AOT_stimuli/rescaled_final/1288_rv.mp4	0.0	335.92083406448364	0.09992599487304688
76	315.64040207862854	fix_pre	0		120	74.0	2.5	/experiments/AOT/AOT_stimuli/rescaled_final/0464_fw.mp4	0.0	336.0207600593567	1.0001170635223389
76	315.8241460323334	pulse	0	t		74.0	2.5	/experiments/AOT/AOT_stimuli/rescaled_final/0464_fw.mp4	0.0	336.2045040130615	
76	316.6405191421509	movie	1		245	74.0	2.5	/experiments/AOT/AOT_stimuli/rescaled_final/0464_fw.mp4	0.0	337.020877122879	2.49995493888855
76	317.42399311065674	pulse	1	t		74.0	2.5	/experiments/AOT/AOT_stimuli/rescaled_final/0464_fw.mp4	0.0	337.8043510913849	
76	319.0225601196289	pulse	1	t		74.0	2.5	/experiments/AOT/AOT_stimuli/rescaled_final/0464_fw.mp4	0.0	339.40291810035706	
76	319.14047408103943	fix_post	2		12	74.0	2.5	/experiments/AOT/AOT_stimuli/rescaled_final/0464_fw.mp4	0.0	339.5208320617676	0.09998106956481934
77	319.24045515060425	fix_pre	0		120	75.0	2.5	/experiments/AOT/AOT_stimuli/rescaled_final/2131_fw.mp4	0.0	339.6208131313324	1.0000388622283936
77	320.24049401283264	movie	1		244	75.0	2.5	/experiments/AOT/AOT_stimuli/rescaled_final/2131_fw.mp4	0.0	340.6208519935608	2.4999749660491943
77	320.6233651638031	pulse	1	t		75.0	2.5	/experiments/AOT/AOT_stimuli/rescaled_final/2131_fw.mp4	0.0	341.00372314453125	
77	322.2238941192627	pulse	1	t		75.0	2.5	/experiments/AOT/AOT_stimuli/rescaled_final/2131_fw.mp4	0.0	342.60425209999084	
77	322.74046897888184	fix_post	2		12	75.0	2.5	/experiments/AOT/AOT_stimuli/rescaled_final/2131_fw.mp4	0.0	343.12082695961	0.09988808631896973
78	322.8403570652008	fix_pre	0		119	76.0	2.5	/experiments/AOT/AOT_stimuli/rescaled_final/0304_rv.mp4	0.0	343.22071504592896	0.9917080402374268
78	323.82389998435974	pulse	0	t		76.0	2.5	/experiments/AOT/AOT_stimuli/rescaled_final/0304_rv.mp4	0.0	344.2042579650879	
78	323.83206510543823	movie	1		246	76.0	2.5	/experiments/AOT/AOT_stimuli/rescaled_final/0304_rv.mp4	0.0	344.2124230861664	2.508488893508911
78	325.423611164093	pulse	1	t		76.0	2.5	/experiments/AOT/AOT_stimuli/rescaled_final/0304_rv.mp4	0.0	345.80396914482117	
78	326.34055399894714	fix_post	2		12	76.0	2.5	/experiments/AOT/AOT_stimuli/rescaled_final/0304_rv.mp4	0.0	346.7209119796753	0.09983396530151367
79	326.44038796424866	fix_pre	0		120	77.0	2.5	blank	1.0	346.8207459449768	1.0000200271606445
79	327.0239169597626	pulse	0	t		77.0	2.5	blank	1.0	347.4042749404907	
79	327.4404079914093	movie	1		300	77.0	2.5	blank	1.0	347.82076597213745	2.500028133392334
79	328.62385416030884	pulse	1	t		77.0	2.5	blank	1.0	349.004212141037	
79	329.94043612480164	fix_post	2		12	77.0	2.5	blank	1.0	350.3207941055298	0.09998083114624023
80	330.0404169559479	fix_pre	0		120	78.0	2.5	/experiments/AOT/AOT_stimuli/rescaled_final/1338_rv.mp4	0.0	350.420774936676	0.9998960494995117
80	330.22389817237854	pulse	0	t		78.0	2.5	/experiments/AOT/AOT_stimuli/rescaled_final/1338_rv.mp4	0.0	350.6042561531067	
80	331.0403130054474	movie	1		243	78.0	2.5	/experiments/AOT/AOT_stimuli/rescaled_final/1338_rv.mp4	0.0	351.42067098617554	2.5001490116119385
80	331.8239221572876	pulse	1	t		78.0	2.5	/experiments/AOT/AOT_stimuli/rescaled_final/1338_rv.mp4	0.0	352.20428013801575	
80	333.42213106155396	pulse	1	t		78.0	2.5	/experiments/AOT/AOT_stimuli/rescaled_final/1338_rv.mp4	0.0	353.8024890422821	
80	333.5404620170593	fix_post	2		12	78.0	2.5	/experiments/AOT/AOT_stimuli/rescaled_final/1338_rv.mp4	0.0	353.9208199977875	0.10001707077026367
81	333.6404790878296	fix_pre	0		120	79.0	2.5	/experiments/AOT/AOT_stimuli/rescaled_final/0926_fw.mp4	0.0	354.02083706855774	0.9994940757751465
81	334.63997316360474	movie	1		245	79.0	2.5	/experiments/AOT/AOT_stimuli/rescaled_final/0926_fw.mp4	0.0	355.0203311443329	2.5006508827209473
81	335.0229730606079	pulse	1	t		79.0	2.5	/experiments/AOT/AOT_stimuli/rescaled_final/0926_fw.mp4	0.0	355.40333104133606	
81	336.62352299690247	pulse	1	t		79.0	2.5	/experiments/AOT/AOT_stimuli/rescaled_final/0926_fw.mp4	0.0	357.0038809776306	
81	337.1406240463257	fix_post	2		12	79.0	2.5	/experiments/AOT/AOT_stimuli/rescaled_final/0926_fw.mp4	0.0	357.52098202705383	0.09948897361755371
82	337.24011301994324	fix_pre	0		119	80.0	2.5	/experiments/AOT/AOT_stimuli/rescaled_final/0265_rv.mp4	0.0	357.6204710006714	0.9918811321258545
82	338.2238781452179	pulse	0	t		80.0	2.5	/experiments/AOT/AOT_stimuli/rescaled_final/0265_rv.mp4	0.0	358.60423612594604	
82	338.2319941520691	movie	1		246	80.0	2.5	/experiments/AOT/AOT_stimuli/rescaled_final/0265_rv.mp4	0.0	358.61235213279724	2.5083518028259277
82	339.8231520652771	pulse	1	t		80.0	2.5	/experiments/AOT/AOT_stimuli/rescaled_final/0265_rv.mp4	0.0	360.20351004600525	
82	340.740345954895	fix_post	2		12	80.0	2.5	/experiments/AOT/AOT_stimuli/rescaled_final/0265_rv.mp4	0.0	361.12070393562317	0.10004019737243652
83	340.84038615226746	fix_pre	0		120	81.0	2.5	/experiments/AOT/AOT_stimuli/rescaled_final/0348_rv.mp4	0.0	361.2207441329956	0.9999399185180664
83	341.4238209724426	pulse	0	t		81.0	2.5	/experiments/AOT/AOT_stimuli/rescaled_final/0348_rv.mp4	0.0	361.8041789531708	
83	341.8403260707855	movie	1		245	81.0	2.5	/experiments/AOT/AOT_stimuli/rescaled_final/0348_rv.mp4	0.0	362.2206840515137	2.5000510215759277
83	343.02391600608826	pulse	1	t		81.0	2.5	/experiments/AOT/AOT_stimuli/rescaled_final/0348_rv.mp4	0.0	363.4042739868164	
83	344.34037709236145	fix_post	2		12	81.0	2.5	/experiments/AOT/AOT_stimuli/rescaled_final/0348_rv.mp4	0.0	364.7207350730896	0.09989094734191895
84	344.44026803970337	fix_pre	0		120	82.0	2.5	/experiments/AOT/AOT_stimuli/rescaled_final/1598_fw.mp4	0.0	364.8206260204315	1.0000219345092773
84	344.6237790584564	pulse	0	t		82.0	2.5	/experiments/AOT/AOT_stimuli/rescaled_final/1598_fw.mp4	0.0	365.00413703918457	
84	345.44028997421265	movie	1		244	82.0	2.5	/experiments/AOT/AOT_stimuli/rescaled_final/1598_fw.mp4	0.0	365.8206479549408	2.4999701976776123
84	346.2236969470978	pulse	1	t		82.0	2.5	/experiments/AOT/AOT_stimuli/rescaled_final/1598_fw.mp4	0.0	366.6040549278259	
84	347.822144985199	pulse	1	t		82.0	2.5	/experiments/AOT/AOT_stimuli/rescaled_final/1598_fw.mp4	0.0	368.2025029659271	
84	347.94026017189026	fix_post	2		12	82.0	2.5	/experiments/AOT/AOT_stimuli/rescaled_final/1598_fw.mp4	0.0	368.3206181526184	0.0999908447265625
85	348.0402510166168	fix_pre	0		120	83.0	2.5	blank	1.0	368.42060899734497	0.9996240139007568
85	349.0398750305176	movie	1		300	83.0	2.5	blank	1.0	369.4202330112457	2.50034499168396
85	349.4237949848175	pulse	1	t		83.0	2.5	blank	1.0	369.80415296554565	
85	351.0237491130829	pulse	1	t		83.0	2.5	blank	1.0	371.40410709381104	
85	351.54022002220154	fix_post	2		12	83.0	2.5	blank	1.0	371.9205780029297	0.100006103515625
87	351.64022612571716	stim	0		1716					372.0205841064453	14.300017833709717
87	352.6237561702728	pulse	0	t						373.004114151001	
87	354.2237620353699	pulse	0	t						374.604120016098	
87	355.8237359523773	pulse	0	t						376.20409393310547	
87	357.4237699508667	pulse	0	t						377.80412793159485	
87	359.02373695373535	pulse	0	t						379.4040949344635	
87	360.62372612953186	pulse	0	t						381.00408411026	
87	362.22366213798523	pulse	0	t						382.6040201187134	
87	363.823842048645	pulse	0	t						384.20420002937317	
87	365.42362809181213	pulse	0	t						385.8039860725403	
