trial_nr	onset	event_type	phase	response	nr_frames	movie_index	movie_duration	movie_file	blank	onset_abs	duration
0	0.2082231044769287	stim	0		74					17.466438055038452	0.6166689395904541
0	0.8097350597381592	response	0	space						18.067950010299683	
1	0.8248920440673828	stim	0		4416					18.083106994628906	36.84902906417847
1	37.66403293609619	pulse	0	t						54.922247886657715	
1	37.67392110824585	stim	1		1715					54.93213605880737	14.300249814987183
1	39.25588011741638	pulse	1	t						56.514095067977905	
1	40.85615801811218	pulse	1	t						58.114372968673706	
1	42.44876003265381	pulse	1	t						59.70697498321533	
1	44.049055099487305	pulse	1	t						61.30727005004883	
1	45.64920902252197	pulse	1	t						62.907423973083496	
1	47.249423027038574	pulse	1	t						64.5076379776001	
1	48.84897494316101	pulse	1	t						66.10718989372253	
1	50.449044942855835	pulse	1	t						67.70725989341736	
2	51.97417092323303	fix_pre	0		10	0.0	2.5	/experiments/knapen_AOT/AOT_stimuli/rescaled_final/1553_rv.mp4	0.0	69.23238587379456	0.08345198631286621
2	52.04942202568054	pulse	0	t		0.0	2.5	/experiments/knapen_AOT/AOT_stimuli/rescaled_final/1553_rv.mp4	0.0	69.30763697624207	
2	52.0576229095459	movie	1		243	0.0	2.5	/experiments/knapen_AOT/AOT_stimuli/rescaled_final/1553_rv.mp4	0.0	69.31583786010742	2.50864315032959
2	53.650141954422	pulse	1	t		0.0	2.5	/experiments/knapen_AOT/AOT_stimuli/rescaled_final/1553_rv.mp4	0.0	70.90835690498352	
2	54.56626605987549	fix_post	2		12	0.0	2.5	/experiments/knapen_AOT/AOT_stimuli/rescaled_final/1553_rv.mp4	0.0	71.82448101043701	0.09998202323913574
3	54.666248083114624	fix_pre	0		120	1.0	2.5	/experiments/knapen_AOT/AOT_stimuli/rescaled_final/0148_rv.mp4	0.0	71.92446303367615	1.000140905380249
3	55.249988079071045	pulse	0	t		1.0	2.5	/experiments/knapen_AOT/AOT_stimuli/rescaled_final/0148_rv.mp4	0.0	72.50820302963257	
3	55.66638898849487	movie	1		243	1.0	2.5	/experiments/knapen_AOT/AOT_stimuli/rescaled_final/0148_rv.mp4	0.0	72.9246039390564	2.5006020069122314
3	56.85034894943237	pulse	1	t		1.0	2.5	/experiments/knapen_AOT/AOT_stimuli/rescaled_final/0148_rv.mp4	0.0	74.1085638999939	
3	58.166990995407104	fix_post	2		12	1.0	2.5	/experiments/knapen_AOT/AOT_stimuli/rescaled_final/0148_rv.mp4	0.0	75.42520594596863	0.09984302520751953
4	58.266834020614624	fix_pre	0		120	2.0	2.5	/experiments/knapen_AOT/AOT_stimuli/rescaled_final/1423_rv.mp4	0.0	75.52504897117615	1.0001909732818604
4	58.450361013412476	pulse	0	t		2.0	2.5	/experiments/knapen_AOT/AOT_stimuli/rescaled_final/1423_rv.mp4	0.0	75.708575963974	
4	59.267024993896484	movie	1		242	2.0	2.5	/experiments/knapen_AOT/AOT_stimuli/rescaled_final/1423_rv.mp4	0.0	76.52523994445801	2.5004100799560547
4	60.0505690574646	pulse	1	t		2.0	2.5	/experiments/knapen_AOT/AOT_stimuli/rescaled_final/1423_rv.mp4	0.0	77.30878400802612	
4	61.65155005455017	pulse	1	t		2.0	2.5	/experiments/knapen_AOT/AOT_stimuli/rescaled_final/1423_rv.mp4	0.0	78.9097650051117	
4	61.76743507385254	fix_post	2		12	2.0	2.5	/experiments/knapen_AOT/AOT_stimuli/rescaled_final/1423_rv.mp4	0.0	79.02565002441406	0.09993100166320801
5	61.86736607551575	fix_pre	0		120	3.0	2.5	/experiments/knapen_AOT/AOT_stimuli/rescaled_final/0773_rv.mp4	0.0	79.12558102607727	1.00016188621521
5	62.86752796173096	movie	1		242	3.0	2.5	/experiments/knapen_AOT/AOT_stimuli/rescaled_final/0773_rv.mp4	0.0	80.12574291229248	2.492198944091797
5	63.25164198875427	pulse	1	t		3.0	2.5	/experiments/knapen_AOT/AOT_stimuli/rescaled_final/0773_rv.mp4	0.0	80.5098569393158	
5	64.85136198997498	pulse	1	t		3.0	2.5	/experiments/knapen_AOT/AOT_stimuli/rescaled_final/0773_rv.mp4	0.0	82.1095769405365	
5	65.35972690582275	fix_post	2		12	3.0	2.5	/experiments/knapen_AOT/AOT_stimuli/rescaled_final/0773_rv.mp4	0.0	82.61794185638428	0.0998542308807373
6	65.45958113670349	fix_pre	0		120	4.0	2.5	/experiments/knapen_AOT/AOT_stimuli/rescaled_final/0380_rv.mp4	0.0	82.71779608726501	1.0001499652862549
6	66.45160007476807	pulse	0	t		4.0	2.5	/experiments/knapen_AOT/AOT_stimuli/rescaled_final/0380_rv.mp4	0.0	83.70981502532959	
6	66.45973110198975	movie	1		244	4.0	2.5	/experiments/knapen_AOT/AOT_stimuli/rescaled_final/0380_rv.mp4	0.0	83.71794605255127	2.508734941482544
6	68.05317997932434	pulse	1	t		4.0	2.5	/experiments/knapen_AOT/AOT_stimuli/rescaled_final/0380_rv.mp4	0.0	85.31139492988586	
6	68.96846604347229	fix_post	2		12	4.0	2.5	/experiments/knapen_AOT/AOT_stimuli/rescaled_final/0380_rv.mp4	0.0	86.22668099403381	0.09997391700744629
7	69.06843996047974	fix_pre	0		120	5.0	2.5	blank	1.0	86.32665491104126	1.0001170635223389
7	69.65200901031494	pulse	0	t		5.0	2.5	blank	1.0	86.91022396087646	
7	70.06855702400208	movie	1		300	5.0	2.5	blank	1.0	87.3267719745636	2.50040602684021
7	71.252357006073	pulse	1	t		5.0	2.5	blank	1.0	88.51057195663452	
7	72.56896305084229	fix_post	2		12	5.0	2.5	blank	1.0	89.82717800140381	0.10002303123474121
8	72.66898608207703	fix_pre	0		120	6.0	2.5	/experiments/knapen_AOT/AOT_stimuli/rescaled_final/1863_rv.mp4	0.0	89.92720103263855	1.000140905380249
8	72.85249304771423	pulse	0	t		6.0	2.5	/experiments/knapen_AOT/AOT_stimuli/rescaled_final/1863_rv.mp4	0.0	90.11070799827576	
8	73.66912698745728	movie	1		244	6.0	2.5	/experiments/knapen_AOT/AOT_stimuli/rescaled_final/1863_rv.mp4	0.0	90.9273419380188	2.500380039215088
8	74.45277500152588	pulse	1	t		6.0	2.5	/experiments/knapen_AOT/AOT_stimuli/rescaled_final/1863_rv.mp4	0.0	91.7109899520874	
8	76.055997133255	pulse	1	t		6.0	2.5	/experiments/knapen_AOT/AOT_stimuli/rescaled_final/1863_rv.mp4	0.0	93.31421208381653	
8	76.16950702667236	fix_post	2		12	6.0	2.5	/experiments/knapen_AOT/AOT_stimuli/rescaled_final/1863_rv.mp4	0.0	93.42772197723389	0.09999299049377441
9	76.26950001716614	fix_pre	0		120	7.0	2.5	/experiments/knapen_AOT/AOT_stimuli/rescaled_final/1432_rv.mp4	0.0	93.52771496772766	1.000128984451294
9	77.26962900161743	movie	1		242	7.0	2.5	/experiments/knapen_AOT/AOT_stimuli/rescaled_final/1432_rv.mp4	0.0	94.52784395217896	2.492216110229492
9	77.65381407737732	pulse	1	t		7.0	2.5	/experiments/knapen_AOT/AOT_stimuli/rescaled_final/1432_rv.mp4	0.0	94.91202902793884	
9	79.25343012809753	pulse	1	t		7.0	2.5	/experiments/knapen_AOT/AOT_stimuli/rescaled_final/1432_rv.mp4	0.0	96.51164507865906	
9	79.76184511184692	fix_post	2		12	7.0	2.5	/experiments/knapen_AOT/AOT_stimuli/rescaled_final/1432_rv.mp4	0.0	97.02006006240845	0.09985899925231934
10	79.86170411109924	fix_pre	0		120	8.0	2.5	/experiments/knapen_AOT/AOT_stimuli/rescaled_final/0568_fw.mp4	0.0	97.11991906166077	1.000152826309204
10	80.85382509231567	pulse	0	t		8.0	2.5	/experiments/knapen_AOT/AOT_stimuli/rescaled_final/0568_fw.mp4	0.0	98.1120400428772	
10	80.86185693740845	movie	1		243	8.0	2.5	/experiments/knapen_AOT/AOT_stimuli/rescaled_final/0568_fw.mp4	0.0	98.12007188796997	2.5087530612945557
10	82.45842790603638	pulse	1	t		8.0	2.5	/experiments/knapen_AOT/AOT_stimuli/rescaled_final/0568_fw.mp4	0.0	99.7166428565979	
10	83.370609998703	fix_post	2		12	8.0	2.5	/experiments/knapen_AOT/AOT_stimuli/rescaled_final/0568_fw.mp4	0.0	100.62882494926453	0.09999513626098633
11	83.47060513496399	fix_pre	0		120	9.0	2.5	/experiments/knapen_AOT/AOT_stimuli/rescaled_final/1460_rv.mp4	0.0	100.72882008552551	1.000121831893921
11	84.05423402786255	pulse	0	t		9.0	2.5	/experiments/knapen_AOT/AOT_stimuli/rescaled_final/1460_rv.mp4	0.0	101.31244897842407	
11	84.47072696685791	movie	1		244	9.0	2.5	/experiments/knapen_AOT/AOT_stimuli/rescaled_final/1460_rv.mp4	0.0	101.72894191741943	2.5004220008850098
11	85.6544930934906	pulse	1	t		9.0	2.5	/experiments/knapen_AOT/AOT_stimuli/rescaled_final/1460_rv.mp4	0.0	102.91270804405212	
11	86.97114896774292	fix_post	2		12	9.0	2.5	/experiments/knapen_AOT/AOT_stimuli/rescaled_final/1460_rv.mp4	0.0	104.22936391830444	0.0999600887298584
12	87.07110905647278	fix_pre	0		120	10.0	2.5	/experiments/knapen_AOT/AOT_stimuli/rescaled_final/0074_rv.mp4	0.0	104.3293240070343	1.000119924545288
12	87.25475096702576	pulse	0	t		10.0	2.5	/experiments/knapen_AOT/AOT_stimuli/rescaled_final/0074_rv.mp4	0.0	104.51296591758728	
12	88.07122898101807	movie	1		244	10.0	2.5	/experiments/knapen_AOT/AOT_stimuli/rescaled_final/0074_rv.mp4	0.0	105.32944393157959	2.5004470348358154
12	88.85500907897949	pulse	1	t		10.0	2.5	/experiments/knapen_AOT/AOT_stimuli/rescaled_final/0074_rv.mp4	0.0	106.11322402954102	
12	90.45533204078674	pulse	1	t		10.0	2.5	/experiments/knapen_AOT/AOT_stimuli/rescaled_final/0074_rv.mp4	0.0	107.71354699134827	
12	90.57167601585388	fix_post	2		12	10.0	2.5	/experiments/knapen_AOT/AOT_stimuli/rescaled_final/0074_rv.mp4	0.0	107.8298909664154	0.10001206398010254
13	90.67168807983398	fix_pre	0		120	11.0	2.5	/experiments/knapen_AOT/AOT_stimuli/rescaled_final/2171_rv.mp4	0.0	107.92990303039551	1.0000898838043213
13	91.6717779636383	movie	1		241	11.0	2.5	/experiments/knapen_AOT/AOT_stimuli/rescaled_final/2171_rv.mp4	0.0	108.92999291419983	2.4921109676361084
13	92.05603790283203	pulse	1	t		11.0	2.5	/experiments/knapen_AOT/AOT_stimuli/rescaled_final/2171_rv.mp4	0.0	109.31425285339355	
13	93.65570092201233	pulse	1	t		11.0	2.5	/experiments/knapen_AOT/AOT_stimuli/rescaled_final/2171_rv.mp4	0.0	110.91391587257385	
13	94.16388893127441	fix_post	2		12	11.0	2.5	/experiments/knapen_AOT/AOT_stimuli/rescaled_final/2171_rv.mp4	0.0	111.42210388183594	0.09993314743041992
14	94.26382207870483	fix_pre	0		120	12.0	2.5	blank	1.0	111.52203702926636	1.000182867050171
14	95.2559609413147	pulse	0	t		12.0	2.5	blank	1.0	112.51417589187622	
14	95.264004945755	movie	1		301	12.0	2.5	blank	1.0	112.52221989631653	2.508707046508789
14	96.8561041355133	pulse	1	t		12.0	2.5	blank	1.0	114.11431908607483	
14	97.7727119922638	fix_post	2		12	12.0	2.5	blank	1.0	115.03092694282532	0.10004591941833496
15	97.87275791168213	fix_pre	0		120	13.0	2.5	/experiments/knapen_AOT/AOT_stimuli/rescaled_final/0960_rv.mp4	0.0	115.13097286224365	1.0001192092895508
15	98.45631313323975	pulse	0	t		13.0	2.5	/experiments/knapen_AOT/AOT_stimuli/rescaled_final/0960_rv.mp4	0.0	115.71452808380127	
15	98.87287712097168	movie	1		242	13.0	2.5	/experiments/knapen_AOT/AOT_stimuli/rescaled_final/0960_rv.mp4	0.0	116.1310920715332	2.5004849433898926
15	100.05281591415405	pulse	1	t		13.0	2.5	/experiments/knapen_AOT/AOT_stimuli/rescaled_final/0960_rv.mp4	0.0	117.31103086471558	
15	101.37336206436157	fix_post	2		12	13.0	2.5	/experiments/knapen_AOT/AOT_stimuli/rescaled_final/0960_rv.mp4	0.0	118.6315770149231	0.09988999366760254
16	101.47325205802917	fix_pre	0		120	14.0	2.5	/experiments/knapen_AOT/AOT_stimuli/rescaled_final/0680_fw.mp4	0.0	118.7314670085907	1.0001258850097656
16	101.65692400932312	pulse	0	t		14.0	2.5	/experiments/knapen_AOT/AOT_stimuli/rescaled_final/0680_fw.mp4	0.0	118.91513895988464	
16	102.47337794303894	movie	1		242	14.0	2.5	/experiments/knapen_AOT/AOT_stimuli/rescaled_final/0680_fw.mp4	0.0	119.73159289360046	2.5006330013275146
16	103.24974703788757	pulse	1	t		14.0	2.5	/experiments/knapen_AOT/AOT_stimuli/rescaled_final/0680_fw.mp4	0.0	120.5079619884491	
16	104.85711407661438	pulse	1	t		14.0	2.5	/experiments/knapen_AOT/AOT_stimuli/rescaled_final/0680_fw.mp4	0.0	122.1153290271759	
16	104.97401094436646	fix_post	2		12	14.0	2.5	/experiments/knapen_AOT/AOT_stimuli/rescaled_final/0680_fw.mp4	0.0	122.23222589492798	0.09979701042175293
17	105.07380795478821	fix_pre	0		120	15.0	2.5	/experiments/knapen_AOT/AOT_stimuli/rescaled_final/0511_rv.mp4	0.0	122.33202290534973	1.0001590251922607
17	106.07396697998047	movie	1		243	15.0	2.5	/experiments/knapen_AOT/AOT_stimuli/rescaled_final/0511_rv.mp4	0.0	123.33218193054199	2.4920201301574707
17	106.45857000350952	pulse	1	t		15.0	2.5	/experiments/knapen_AOT/AOT_stimuli/rescaled_final/0511_rv.mp4	0.0	123.71678495407104	
17	108.04956698417664	pulse	1	t		15.0	2.5	/experiments/knapen_AOT/AOT_stimuli/rescaled_final/0511_rv.mp4	0.0	125.30778193473816	
17	108.56598711013794	fix_post	2		12	15.0	2.5	/experiments/knapen_AOT/AOT_stimuli/rescaled_final/0511_rv.mp4	0.0	125.82420206069946	0.10000300407409668
18	108.66599011421204	fix_pre	0		119	16.0	2.5	/experiments/knapen_AOT/AOT_stimuli/rescaled_final/0937_fw.mp4	0.0	125.92420506477356	0.9918069839477539
18	109.6497540473938	pulse	0	t		16.0	2.5	/experiments/knapen_AOT/AOT_stimuli/rescaled_final/0937_fw.mp4	0.0	126.90796899795532	
18	109.65779709815979	movie	1		243	16.0	2.5	/experiments/knapen_AOT/AOT_stimuli/rescaled_final/0937_fw.mp4	0.0	126.91601204872131	2.5088260173797607
18	111.25046300888062	pulse	1	t		16.0	2.5	/experiments/knapen_AOT/AOT_stimuli/rescaled_final/0937_fw.mp4	0.0	128.50867795944214	
18	112.16662311553955	fix_post	2		12	16.0	2.5	/experiments/knapen_AOT/AOT_stimuli/rescaled_final/0937_fw.mp4	0.0	129.42483806610107	0.09996199607849121
19	112.26658511161804	fix_pre	0		117	17.0	2.5	/experiments/knapen_AOT/AOT_stimuli/rescaled_final/0685_fw.mp4	0.0	129.52480006217957	1.0001468658447266
19	112.85010409355164	pulse	0	t		17.0	2.5	/experiments/knapen_AOT/AOT_stimuli/rescaled_final/0685_fw.mp4	0.0	130.10831904411316	
19	113.26673197746277	movie	1		243	17.0	2.5	/experiments/knapen_AOT/AOT_stimuli/rescaled_final/0685_fw.mp4	0.0	130.5249469280243	2.500483989715576
19	114.45038795471191	pulse	1	t		17.0	2.5	/experiments/knapen_AOT/AOT_stimuli/rescaled_final/0685_fw.mp4	0.0	131.70860290527344	
19	115.76721596717834	fix_post	2		12	17.0	2.5	/experiments/knapen_AOT/AOT_stimuli/rescaled_final/0685_fw.mp4	0.0	133.02543091773987	0.09986114501953125
20	115.86707711219788	fix_pre	0		120	18.0	2.5	/experiments/knapen_AOT/AOT_stimuli/rescaled_final/1008_rv.mp4	0.0	133.1252920627594	1.000133991241455
20	116.05064392089844	pulse	0	t		18.0	2.5	/experiments/knapen_AOT/AOT_stimuli/rescaled_final/1008_rv.mp4	0.0	133.30885887145996	
20	116.86721110343933	movie	1		242	18.0	2.5	/experiments/knapen_AOT/AOT_stimuli/rescaled_final/1008_rv.mp4	0.0	134.12542605400085	2.5005738735198975
20	117.65088891983032	pulse	1	t		18.0	2.5	/experiments/knapen_AOT/AOT_stimuli/rescaled_final/1008_rv.mp4	0.0	134.90910387039185	
20	119.2511830329895	pulse	1	t		18.0	2.5	/experiments/knapen_AOT/AOT_stimuli/rescaled_final/1008_rv.mp4	0.0	136.50939798355103	
20	119.36778497695923	fix_post	2		12	18.0	2.5	/experiments/knapen_AOT/AOT_stimuli/rescaled_final/1008_rv.mp4	0.0	136.62599992752075	0.09981608390808105
21	119.46760106086731	fix_pre	0		120	19.0	2.5	blank	1.0	136.72581601142883	1.0001490116119385
21	120.46775007247925	movie	1		299	19.0	2.5	blank	1.0	137.72596502304077	2.492051839828491
21	120.85124897956848	pulse	1	t		19.0	2.5	blank	1.0	138.10946393013	
21	122.45160293579102	pulse	1	t		19.0	2.5	blank	1.0	139.70981788635254	
21	122.95980191230774	fix_post	2		12	19.0	2.5	blank	1.0	140.21801686286926	0.1000370979309082
22	123.05983901023865	fix_pre	0		120	20.0	2.5	/experiments/knapen_AOT/AOT_stimuli/rescaled_final/0613_fw.mp4	0.0	140.31805396080017	1.0001609325408936
22	124.0518491268158	pulse	0	t		20.0	2.5	/experiments/knapen_AOT/AOT_stimuli/rescaled_final/0613_fw.mp4	0.0	141.31006407737732	
22	124.05999994277954	movie	1		243	20.0	2.5	/experiments/knapen_AOT/AOT_stimuli/rescaled_final/0613_fw.mp4	0.0	141.31821489334106	2.5087380409240723
22	125.65260910987854	pulse	1	t		20.0	2.5	/experiments/knapen_AOT/AOT_stimuli/rescaled_final/0613_fw.mp4	0.0	142.91082406044006	
22	126.56873798370361	fix_post	2		12	20.0	2.5	/experiments/knapen_AOT/AOT_stimuli/rescaled_final/0613_fw.mp4	0.0	143.82695293426514	0.0999610424041748
23	126.66869902610779	fix_pre	0		120	21.0	2.5	/experiments/knapen_AOT/AOT_stimuli/rescaled_final/2031_fw.mp4	0.0	143.9269139766693	1.000128984451294
23	127.25229096412659	pulse	0	t		21.0	2.5	/experiments/knapen_AOT/AOT_stimuli/rescaled_final/2031_fw.mp4	0.0	144.5105059146881	
23	127.66882801055908	movie	1		242	21.0	2.5	/experiments/knapen_AOT/AOT_stimuli/rescaled_final/2031_fw.mp4	0.0	144.9270429611206	2.500469923019409
23	128.85261702537537	pulse	1	t		21.0	2.5	/experiments/knapen_AOT/AOT_stimuli/rescaled_final/2031_fw.mp4	0.0	146.1108319759369	
23	130.1692979335785	fix_post	2		12	21.0	2.5	/experiments/knapen_AOT/AOT_stimuli/rescaled_final/2031_fw.mp4	0.0	147.42751288414001	0.09989118576049805
24	130.269189119339	fix_pre	0		120	22.0	2.5	/experiments/knapen_AOT/AOT_stimuli/rescaled_final/0592_rv.mp4	0.0	147.5274040699005	1.0002589225769043
24	130.45282196998596	pulse	0	t		22.0	2.5	/experiments/knapen_AOT/AOT_stimuli/rescaled_final/0592_rv.mp4	0.0	147.71103692054749	
24	131.2694480419159	movie	1		244	22.0	2.5	/experiments/knapen_AOT/AOT_stimuli/rescaled_final/0592_rv.mp4	0.0	148.52766299247742	2.5003559589385986
24	132.0531129837036	pulse	1	t		22.0	2.5	/experiments/knapen_AOT/AOT_stimuli/rescaled_final/0592_rv.mp4	0.0	149.31132793426514	
24	133.65325093269348	pulse	1	t		22.0	2.5	/experiments/knapen_AOT/AOT_stimuli/rescaled_final/0592_rv.mp4	0.0	150.911465883255	
24	133.7698040008545	fix_post	2		12	22.0	2.5	/experiments/knapen_AOT/AOT_stimuli/rescaled_final/0592_rv.mp4	0.0	151.02801895141602	0.09998798370361328
25	133.8697919845581	fix_pre	0		120	23.0	2.5	/experiments/knapen_AOT/AOT_stimuli/rescaled_final/0630_fw.mp4	0.0	151.12800693511963	1.0001261234283447
25	134.86991810798645	movie	1		242	23.0	2.5	/experiments/knapen_AOT/AOT_stimuli/rescaled_final/0630_fw.mp4	0.0	152.12813305854797	2.4920389652252197
25	135.2540340423584	pulse	1	t		23.0	2.5	/experiments/knapen_AOT/AOT_stimuli/rescaled_final/0630_fw.mp4	0.0	152.51224899291992	
25	136.85370898246765	pulse	1	t		23.0	2.5	/experiments/knapen_AOT/AOT_stimuli/rescaled_final/0630_fw.mp4	0.0	154.11192393302917	
25	137.36195707321167	fix_post	2		12	23.0	2.5	/experiments/knapen_AOT/AOT_stimuli/rescaled_final/0630_fw.mp4	0.0	154.6201720237732	0.10003089904785156
26	137.46198797225952	fix_pre	0		120	24.0	2.5	/experiments/knapen_AOT/AOT_stimuli/rescaled_final/0803_fw.mp4	0.0	154.72020292282104	1.0001499652862549
26	138.45401310920715	pulse	0	t		24.0	2.5	/experiments/knapen_AOT/AOT_stimuli/rescaled_final/0803_fw.mp4	0.0	155.71222805976868	
26	138.46213793754578	movie	1		243	24.0	2.5	/experiments/knapen_AOT/AOT_stimuli/rescaled_final/0803_fw.mp4	0.0	155.7203528881073	2.508758068084717
26	140.0546350479126	pulse	1	t		24.0	2.5	/experiments/knapen_AOT/AOT_stimuli/rescaled_final/0803_fw.mp4	0.0	157.31284999847412	
26	140.9708960056305	fix_post	2		12	24.0	2.5	/experiments/knapen_AOT/AOT_stimuli/rescaled_final/0803_fw.mp4	0.0	158.22911095619202	0.09995889663696289
27	141.07085490226746	fix_pre	0		120	25.0	2.5	/experiments/knapen_AOT/AOT_stimuli/rescaled_final/0195_rv.mp4	0.0	158.32906985282898	1.0002250671386719
27	141.65439796447754	pulse	0	t		25.0	2.5	/experiments/knapen_AOT/AOT_stimuli/rescaled_final/0195_rv.mp4	0.0	158.91261291503906	
27	142.07107996940613	movie	1		242	25.0	2.5	/experiments/knapen_AOT/AOT_stimuli/rescaled_final/0195_rv.mp4	0.0	159.32929491996765	2.500378131866455
27	143.25473999977112	pulse	1	t		25.0	2.5	/experiments/knapen_AOT/AOT_stimuli/rescaled_final/0195_rv.mp4	0.0	160.51295495033264	
27	144.57145810127258	fix_post	2		12	25.0	2.5	/experiments/knapen_AOT/AOT_stimuli/rescaled_final/0195_rv.mp4	0.0	161.8296730518341	0.09991002082824707
28	144.67136812210083	fix_pre	0		120	26.0	2.5	/experiments/knapen_AOT/AOT_stimuli/rescaled_final/0068_rv.mp4	0.0	161.92958307266235	1.0001459121704102
28	144.8550000190735	pulse	0	t		26.0	2.5	/experiments/knapen_AOT/AOT_stimuli/rescaled_final/0068_rv.mp4	0.0	162.113214969635	
28	145.67151403427124	movie	1		243	26.0	2.5	/experiments/knapen_AOT/AOT_stimuli/rescaled_final/0068_rv.mp4	0.0	162.92972898483276	2.500598907470703
28	146.4554100036621	pulse	1	t		26.0	2.5	/experiments/knapen_AOT/AOT_stimuli/rescaled_final/0068_rv.mp4	0.0	163.71362495422363	
28	148.05535292625427	pulse	1	t		26.0	2.5	/experiments/knapen_AOT/AOT_stimuli/rescaled_final/0068_rv.mp4	0.0	165.3135678768158	
28	148.17211294174194	fix_post	2		12	26.0	2.5	/experiments/knapen_AOT/AOT_stimuli/rescaled_final/0068_rv.mp4	0.0	165.43032789230347	0.0997781753540039
29	148.27189111709595	fix_pre	0		120	27.0	2.5	/experiments/knapen_AOT/AOT_stimuli/rescaled_final/0287_rv.mp4	0.0	165.53010606765747	1.0001888275146484
29	149.2720799446106	movie	1		241	27.0	2.5	/experiments/knapen_AOT/AOT_stimuli/rescaled_final/0287_rv.mp4	0.0	166.53029489517212	2.492093086242676
29	149.65628600120544	pulse	1	t		27.0	2.5	/experiments/knapen_AOT/AOT_stimuli/rescaled_final/0287_rv.mp4	0.0	166.91450095176697	
29	151.2558491230011	pulse	1	t		27.0	2.5	/experiments/knapen_AOT/AOT_stimuli/rescaled_final/0287_rv.mp4	0.0	168.51406407356262	
29	151.76417303085327	fix_post	2		12	27.0	2.5	/experiments/knapen_AOT/AOT_stimuli/rescaled_final/0287_rv.mp4	0.0	169.0223879814148	0.09992790222167969
30	151.86410093307495	fix_pre	0		120	28.0	2.5	blank	1.0	169.12231588363647	1.0001521110534668
30	152.85619807243347	pulse	0	t		28.0	2.5	blank	1.0	170.114413022995	
30	152.86425304412842	movie	1		301	28.0	2.5	blank	1.0	170.12246799468994	2.5087170600891113
30	154.45637607574463	pulse	1	t		28.0	2.5	blank	1.0	171.71459102630615	
30	155.37297010421753	fix_post	2		12	28.0	2.5	blank	1.0	172.63118505477905	0.1000058650970459
31	155.47297596931458	fix_pre	0		120	29.0	2.5	/experiments/knapen_AOT/AOT_stimuli/rescaled_final/1237_fw.mp4	0.0	172.7311909198761	1.0001220703125
31	156.04915809631348	pulse	0	t		29.0	2.5	/experiments/knapen_AOT/AOT_stimuli/rescaled_final/1237_fw.mp4	0.0	173.307373046875	
31	156.47309803962708	movie	1		242	29.0	2.5	/experiments/knapen_AOT/AOT_stimuli/rescaled_final/1237_fw.mp4	0.0	173.7313129901886	2.500575065612793
31	157.6496341228485	pulse	1	t		29.0	2.5	/experiments/knapen_AOT/AOT_stimuli/rescaled_final/1237_fw.mp4	0.0	174.90784907341003	
31	158.97367310523987	fix_post	2		12	29.0	2.5	/experiments/knapen_AOT/AOT_stimuli/rescaled_final/1237_fw.mp4	0.0	176.2318880558014	0.09989500045776367
32	159.07356810569763	fix_pre	0		120	30.0	2.5	/experiments/knapen_AOT/AOT_stimuli/rescaled_final/0537_rv.mp4	0.0	176.33178305625916	1.0000989437103271
32	159.2496531009674	pulse	0	t		30.0	2.5	/experiments/knapen_AOT/AOT_stimuli/rescaled_final/0537_rv.mp4	0.0	176.50786805152893	
32	160.07366704940796	movie	1		243	30.0	2.5	/experiments/knapen_AOT/AOT_stimuli/rescaled_final/0537_rv.mp4	0.0	177.33188199996948	2.5005300045013428
32	160.84979701042175	pulse	1	t		30.0	2.5	/experiments/knapen_AOT/AOT_stimuli/rescaled_final/0537_rv.mp4	0.0	178.10801196098328	
32	162.4493899345398	pulse	1	t		30.0	2.5	/experiments/knapen_AOT/AOT_stimuli/rescaled_final/0537_rv.mp4	0.0	179.70760488510132	
32	162.5741970539093	fix_post	2		12	30.0	2.5	/experiments/knapen_AOT/AOT_stimuli/rescaled_final/0537_rv.mp4	0.0	179.83241200447083	0.09990096092224121
33	162.67409801483154	fix_pre	0		120	31.0	2.5	/experiments/knapen_AOT/AOT_stimuli/rescaled_final/0378_rv.mp4	0.0	179.93231296539307	1.0000948905944824
33	163.67419290542603	movie	1		243	31.0	2.5	/experiments/knapen_AOT/AOT_stimuli/rescaled_final/0378_rv.mp4	0.0	180.93240785598755	2.492023229598999
33	164.04939007759094	pulse	1	t		31.0	2.5	/experiments/knapen_AOT/AOT_stimuli/rescaled_final/0378_rv.mp4	0.0	181.30760502815247	
33	165.64970898628235	pulse	1	t		31.0	2.5	/experiments/knapen_AOT/AOT_stimuli/rescaled_final/0378_rv.mp4	0.0	182.90792393684387	
33	166.16621613502502	fix_post	2		12	31.0	2.5	/experiments/knapen_AOT/AOT_stimuli/rescaled_final/0378_rv.mp4	0.0	183.42443108558655	0.10001087188720703
34	166.26622700691223	fix_pre	0		119	32.0	2.5	/experiments/knapen_AOT/AOT_stimuli/rescaled_final/1570_fw.mp4	0.0	183.52444195747375	0.9918980598449707
34	167.2499439716339	pulse	0	t		32.0	2.5	/experiments/knapen_AOT/AOT_stimuli/rescaled_final/1570_fw.mp4	0.0	184.50815892219543	
34	167.2581250667572	movie	1		245	32.0	2.5	/experiments/knapen_AOT/AOT_stimuli/rescaled_final/1570_fw.mp4	0.0	184.51634001731873	2.50869083404541
34	168.85152292251587	pulse	1	t		32.0	2.5	/experiments/knapen_AOT/AOT_stimuli/rescaled_final/1570_fw.mp4	0.0	186.1097378730774	
34	169.7668159008026	fix_post	2		12	32.0	2.5	/experiments/knapen_AOT/AOT_stimuli/rescaled_final/1570_fw.mp4	0.0	187.02503085136414	0.09996819496154785
35	169.86678409576416	fix_pre	0		120	33.0	2.5	blank	1.0	187.12499904632568	1.000128984451294
35	170.45038509368896	pulse	0	t		33.0	2.5	blank	1.0	187.7086000442505	
35	170.86691308021545	movie	1		300	33.0	2.5	blank	1.0	188.12512803077698	2.5004608631134033
35	172.05064606666565	pulse	1	t		33.0	2.5	blank	1.0	189.30886101722717	
35	173.36737394332886	fix_post	2		12	33.0	2.5	blank	1.0	190.62558889389038	0.09996795654296875
36	173.46734189987183	fix_pre	0		120	34.0	2.5	/experiments/knapen_AOT/AOT_stimuli/rescaled_final/0045_fw.mp4	0.0	190.72555685043335	1.0001420974731445
36	173.6508400440216	pulse	0	t		34.0	2.5	/experiments/knapen_AOT/AOT_stimuli/rescaled_final/0045_fw.mp4	0.0	190.90905499458313	
36	174.46748399734497	movie	1		242	34.0	2.5	/experiments/knapen_AOT/AOT_stimuli/rescaled_final/0045_fw.mp4	0.0	191.7256989479065	2.5005130767822266
36	175.2511501312256	pulse	1	t		34.0	2.5	/experiments/knapen_AOT/AOT_stimuli/rescaled_final/0045_fw.mp4	0.0	192.5093650817871	
36	176.85146403312683	pulse	1	t		34.0	2.5	/experiments/knapen_AOT/AOT_stimuli/rescaled_final/0045_fw.mp4	0.0	194.10967898368835	
36	176.9679970741272	fix_post	2		12	34.0	2.5	/experiments/knapen_AOT/AOT_stimuli/rescaled_final/0045_fw.mp4	0.0	194.22621202468872	0.09984087944030762
37	177.0678379535675	fix_pre	0		120	35.0	2.5	/experiments/knapen_AOT/AOT_stimuli/rescaled_final/0508_fw.mp4	0.0	194.32605290412903	1.0002250671386719
37	178.06806302070618	movie	1		243	35.0	2.5	/experiments/knapen_AOT/AOT_stimuli/rescaled_final/0508_fw.mp4	0.0	195.3262779712677	2.492032051086426
37	178.45205903053284	pulse	1	t		35.0	2.5	/experiments/knapen_AOT/AOT_stimuli/rescaled_final/0508_fw.mp4	0.0	195.71027398109436	
37	180.0518810749054	pulse	1	t		35.0	2.5	/experiments/knapen_AOT/AOT_stimuli/rescaled_final/0508_fw.mp4	0.0	197.31009602546692	
37	180.5600950717926	fix_post	2		8	35.0	2.5	/experiments/knapen_AOT/AOT_stimuli/rescaled_final/0508_fw.mp4	0.0	197.81831002235413	0.10000085830688477
38	180.6600959300995	fix_pre	0		120	36.0	2.5	/experiments/knapen_AOT/AOT_stimuli/rescaled_final/0522_fw.mp4	0.0	197.918310880661	1.0001270771026611
38	181.65201902389526	pulse	0	t		36.0	2.5	/experiments/knapen_AOT/AOT_stimuli/rescaled_final/0522_fw.mp4	0.0	198.9102339744568	
38	181.66022300720215	movie	1		244	36.0	2.5	/experiments/knapen_AOT/AOT_stimuli/rescaled_final/0522_fw.mp4	0.0	198.91843795776367	2.5088229179382324
38	183.2530460357666	pulse	1	t		36.0	2.5	/experiments/knapen_AOT/AOT_stimuli/rescaled_final/0522_fw.mp4	0.0	200.51126098632812	
38	184.16904592514038	fix_post	2		12	36.0	2.5	/experiments/knapen_AOT/AOT_stimuli/rescaled_final/0522_fw.mp4	0.0	201.4272608757019	0.09989309310913086
39	184.2689390182495	fix_pre	0		120	37.0	2.5	/experiments/knapen_AOT/AOT_stimuli/rescaled_final/0685_rv.mp4	0.0	201.52715396881104	1.0001730918884277
39	184.85255694389343	pulse	0	t		37.0	2.5	/experiments/knapen_AOT/AOT_stimuli/rescaled_final/0685_rv.mp4	0.0	202.11077189445496	
39	185.26911211013794	movie	1		243	37.0	2.5	/experiments/knapen_AOT/AOT_stimuli/rescaled_final/0685_rv.mp4	0.0	202.52732706069946	2.500540018081665
39	186.45298409461975	pulse	1	t		37.0	2.5	/experiments/knapen_AOT/AOT_stimuli/rescaled_final/0685_rv.mp4	0.0	203.71119904518127	
39	187.7696521282196	fix_post	2		12	37.0	2.5	/experiments/knapen_AOT/AOT_stimuli/rescaled_final/0685_rv.mp4	0.0	205.02786707878113	0.09985899925231934
40	187.86951112747192	fix_pre	0		120	38.0	2.5	/experiments/knapen_AOT/AOT_stimuli/rescaled_final/0960_rv.mp4	0.0	205.12772607803345	1.0001499652862549
40	188.05297899246216	pulse	0	t		38.0	2.5	/experiments/knapen_AOT/AOT_stimuli/rescaled_final/0960_rv.mp4	0.0	205.31119394302368	
40	188.86966109275818	movie	1		242	38.0	2.5	/experiments/knapen_AOT/AOT_stimuli/rescaled_final/0960_rv.mp4	0.0	206.1278760433197	2.50032901763916
40	189.6532120704651	pulse	1	t		38.0	2.5	/experiments/knapen_AOT/AOT_stimuli/rescaled_final/0960_rv.mp4	0.0	206.9114270210266	
40	191.2533609867096	pulse	1	t		38.0	2.5	/experiments/knapen_AOT/AOT_stimuli/rescaled_final/0960_rv.mp4	0.0	208.51157593727112	
40	191.36999011039734	fix_post	2		12	38.0	2.5	/experiments/knapen_AOT/AOT_stimuli/rescaled_final/0960_rv.mp4	0.0	208.62820506095886	0.10003781318664551
41	191.47002792358398	fix_pre	0		119	39.0	2.5	/experiments/knapen_AOT/AOT_stimuli/rescaled_final/2045_rv.mp4	0.0	208.7282428741455	0.9918069839477539
41	192.46183490753174	movie	1		242	39.0	2.5	/experiments/knapen_AOT/AOT_stimuli/rescaled_final/2045_rv.mp4	0.0	209.72004985809326	2.5004520416259766
41	192.85390305519104	pulse	1	t		39.0	2.5	/experiments/knapen_AOT/AOT_stimuli/rescaled_final/2045_rv.mp4	0.0	210.11211800575256	
41	194.45407009124756	pulse	1	t		39.0	2.5	/experiments/knapen_AOT/AOT_stimuli/rescaled_final/2045_rv.mp4	0.0	211.71228504180908	
41	194.96228694915771	fix_post	2		12	39.0	2.5	/experiments/knapen_AOT/AOT_stimuli/rescaled_final/2045_rv.mp4	0.0	212.22050189971924	0.09990406036376953
42	195.06219100952148	fix_pre	0		120	40.0	2.5	/experiments/knapen_AOT/AOT_stimuli/rescaled_final/1146_rv.mp4	0.0	212.320405960083	1.0002460479736328
42	196.05424308776855	pulse	0	t		40.0	2.5	/experiments/knapen_AOT/AOT_stimuli/rescaled_final/1146_rv.mp4	0.0	213.31245803833008	
42	196.06243705749512	movie	1		244	40.0	2.5	/experiments/knapen_AOT/AOT_stimuli/rescaled_final/1146_rv.mp4	0.0	213.32065200805664	2.5086679458618164
42	197.65583205223083	pulse	1	t		40.0	2.5	/experiments/knapen_AOT/AOT_stimuli/rescaled_final/1146_rv.mp4	0.0	214.91404700279236	
42	198.57110500335693	fix_post	2		12	40.0	2.5	/experiments/knapen_AOT/AOT_stimuli/rescaled_final/1146_rv.mp4	0.0	215.82931995391846	0.09997010231018066
43	198.67107510566711	fix_pre	0		120	41.0	2.5	/experiments/knapen_AOT/AOT_stimuli/rescaled_final/0771_rv.mp4	0.0	215.92929005622864	1.000135898590088
43	199.25475907325745	pulse	0	t		41.0	2.5	/experiments/knapen_AOT/AOT_stimuli/rescaled_final/0771_rv.mp4	0.0	216.51297402381897	
43	199.6712110042572	movie	1		243	41.0	2.5	/experiments/knapen_AOT/AOT_stimuli/rescaled_final/0771_rv.mp4	0.0	216.92942595481873	2.500638961791992
43	200.85506510734558	pulse	1	t		41.0	2.5	/experiments/knapen_AOT/AOT_stimuli/rescaled_final/0771_rv.mp4	0.0	218.1132800579071	
43	202.1718499660492	fix_post	2		12	41.0	2.5	/experiments/knapen_AOT/AOT_stimuli/rescaled_final/0771_rv.mp4	0.0	219.43006491661072	0.09981703758239746
44	202.2716670036316	fix_pre	0		120	42.0	2.5	blank	1.0	219.52988195419312	1.000154972076416
44	202.4552080631256	pulse	0	t		42.0	2.5	blank	1.0	219.71342301368713	
44	203.271821975708	movie	1		300	42.0	2.5	blank	1.0	220.53003692626953	2.5003020763397217
44	204.05536699295044	pulse	1	t		42.0	2.5	blank	1.0	221.31358194351196	
44	205.65567207336426	pulse	1	t		42.0	2.5	blank	1.0	222.91388702392578	
44	205.77212405204773	fix_post	2		12	42.0	2.5	blank	1.0	223.03033900260925	0.10003089904785156
45	205.87215495109558	fix_pre	0		120	43.0	2.5	/experiments/knapen_AOT/AOT_stimuli/rescaled_final/0845_rv.mp4	0.0	223.1303699016571	1.000195026397705
45	206.8723499774933	movie	1		243	43.0	2.5	/experiments/knapen_AOT/AOT_stimuli/rescaled_final/0845_rv.mp4	0.0	224.1305649280548	2.4920129776000977
45	207.25701808929443	pulse	1	t		43.0	2.5	/experiments/knapen_AOT/AOT_stimuli/rescaled_final/0845_rv.mp4	0.0	224.51523303985596	
45	208.85623598098755	pulse	1	t		43.0	2.5	/experiments/knapen_AOT/AOT_stimuli/rescaled_final/0845_rv.mp4	0.0	226.11445093154907	
45	209.36436295509338	fix_post	2		12	43.0	2.5	/experiments/knapen_AOT/AOT_stimuli/rescaled_final/0845_rv.mp4	0.0	226.6225779056549	0.1000521183013916
46	209.46441507339478	fix_pre	0		120	44.0	2.5	/experiments/knapen_AOT/AOT_stimuli/rescaled_final/0380_fw.mp4	0.0	226.7226300239563	1.0001518726348877
46	210.45632195472717	pulse	0	t		44.0	2.5	/experiments/knapen_AOT/AOT_stimuli/rescaled_final/0380_fw.mp4	0.0	227.7145369052887	
46	210.46456694602966	movie	1		243	44.0	2.5	/experiments/knapen_AOT/AOT_stimuli/rescaled_final/0380_fw.mp4	0.0	227.7227818965912	2.508749008178711
46	212.05721592903137	pulse	1	t		44.0	2.5	/experiments/knapen_AOT/AOT_stimuli/rescaled_final/0380_fw.mp4	0.0	229.3154308795929	
46	212.97331595420837	fix_post	2		12	44.0	2.5	/experiments/knapen_AOT/AOT_stimuli/rescaled_final/0380_fw.mp4	0.0	230.2315309047699	0.099884033203125
47	213.0731999874115	fix_pre	0		120	45.0	2.5	/experiments/knapen_AOT/AOT_stimuli/rescaled_final/1978_fw.mp4	0.0	230.33141493797302	1.0002100467681885
47	213.6493170261383	pulse	0	t		45.0	2.5	/experiments/knapen_AOT/AOT_stimuli/rescaled_final/1978_fw.mp4	0.0	230.90753197669983	
47	214.0734100341797	movie	1		242	45.0	2.5	/experiments/knapen_AOT/AOT_stimuli/rescaled_final/1978_fw.mp4	0.0	231.3316249847412	2.5005478858947754
47	215.25730299949646	pulse	1	t		45.0	2.5	/experiments/knapen_AOT/AOT_stimuli/rescaled_final/1978_fw.mp4	0.0	232.51551795005798	
47	216.57395792007446	fix_post	2		12	45.0	2.5	/experiments/knapen_AOT/AOT_stimuli/rescaled_final/1978_fw.mp4	0.0	233.832172870636	0.10004711151123047
48	216.6740050315857	fix_pre	0		120	46.0	2.5	/experiments/knapen_AOT/AOT_stimuli/rescaled_final/0195_fw.mp4	0.0	233.93221998214722	0.9999001026153564
48	216.8491289615631	pulse	0	t		46.0	2.5	/experiments/knapen_AOT/AOT_stimuli/rescaled_final/0195_fw.mp4	0.0	234.10734391212463	
48	217.67390513420105	movie	1		242	46.0	2.5	/experiments/knapen_AOT/AOT_stimuli/rescaled_final/0195_fw.mp4	0.0	234.93212008476257	2.500483989715576
48	218.4492049217224	pulse	1	t		46.0	2.5	/experiments/knapen_AOT/AOT_stimuli/rescaled_final/0195_fw.mp4	0.0	235.70741987228394	
48	220.0494019985199	pulse	1	t		46.0	2.5	/experiments/knapen_AOT/AOT_stimuli/rescaled_final/0195_fw.mp4	0.0	237.30761694908142	
48	220.17438912391663	fix_post	2		12	46.0	2.5	/experiments/knapen_AOT/AOT_stimuli/rescaled_final/0195_fw.mp4	0.0	237.43260407447815	0.09999299049377441
49	220.2743821144104	fix_pre	0		120	47.0	2.5	/experiments/knapen_AOT/AOT_stimuli/rescaled_final/1333_rv.mp4	0.0	237.53259706497192	1.0000739097595215
49	221.27445602416992	movie	1		243	47.0	2.5	/experiments/knapen_AOT/AOT_stimuli/rescaled_final/1333_rv.mp4	0.0	238.53267097473145	2.492124080657959
49	221.6497941017151	pulse	1	t		47.0	2.5	/experiments/knapen_AOT/AOT_stimuli/rescaled_final/1333_rv.mp4	0.0	238.9080090522766	
49	223.25011801719666	pulse	1	t		47.0	2.5	/experiments/knapen_AOT/AOT_stimuli/rescaled_final/1333_rv.mp4	0.0	240.50833296775818	
49	223.76658010482788	fix_post	2		12	47.0	2.5	/experiments/knapen_AOT/AOT_stimuli/rescaled_final/1333_rv.mp4	0.0	241.0247950553894	0.09992599487304688
50	223.86650609970093	fix_pre	0		119	48.0	2.5	/experiments/knapen_AOT/AOT_stimuli/rescaled_final/1423_fw.mp4	0.0	241.12472105026245	0.9918258190155029
50	224.8501980304718	pulse	0	t		48.0	2.5	/experiments/knapen_AOT/AOT_stimuli/rescaled_final/1423_fw.mp4	0.0	242.10841298103333	
50	224.85833191871643	movie	1		243	48.0	2.5	/experiments/knapen_AOT/AOT_stimuli/rescaled_final/1423_fw.mp4	0.0	242.11654686927795	2.5087850093841553
50	226.45102095603943	pulse	1	t		48.0	2.5	/experiments/knapen_AOT/AOT_stimuli/rescaled_final/1423_fw.mp4	0.0	243.70923590660095	
50	227.3671169281006	fix_post	2		12	48.0	2.5	/experiments/knapen_AOT/AOT_stimuli/rescaled_final/1423_fw.mp4	0.0	244.6253318786621	0.0999290943145752
51	227.46704602241516	fix_pre	0		120	49.0	2.5	blank	1.0	244.72526097297668	1.0001790523529053
51	228.0507071018219	pulse	0	t		49.0	2.5	blank	1.0	245.30892205238342	
51	228.46722507476807	movie	1		300	49.0	2.5	blank	1.0	245.7254400253296	2.500339984893799
51	229.65101504325867	pulse	1	t		49.0	2.5	blank	1.0	246.9092299938202	
51	230.96756505966187	fix_post	2		12	49.0	2.5	blank	1.0	248.2257800102234	0.10002994537353516
52	231.0675950050354	fix_pre	0		120	50.0	2.5	/experiments/knapen_AOT/AOT_stimuli/rescaled_final/1668_fw.mp4	0.0	248.32580995559692	1.0001800060272217
52	231.2512149810791	pulse	0	t		50.0	2.5	/experiments/knapen_AOT/AOT_stimuli/rescaled_final/1668_fw.mp4	0.0	248.50942993164062	
52	232.06777501106262	movie	1		242	50.0	2.5	/experiments/knapen_AOT/AOT_stimuli/rescaled_final/1668_fw.mp4	0.0	249.32598996162415	2.5005359649658203
52	232.85141611099243	pulse	1	t		50.0	2.5	/experiments/knapen_AOT/AOT_stimuli/rescaled_final/1668_fw.mp4	0.0	250.10963106155396	
52	234.45149397850037	pulse	1	t		50.0	2.5	/experiments/knapen_AOT/AOT_stimuli/rescaled_final/1668_fw.mp4	0.0	251.7097089290619	
52	234.56831097602844	fix_post	2		12	50.0	2.5	/experiments/knapen_AOT/AOT_stimuli/rescaled_final/1668_fw.mp4	0.0	251.82652592658997	0.09981393814086914
53	234.6681249141693	fix_pre	0		120	51.0	2.5	/experiments/knapen_AOT/AOT_stimuli/rescaled_final/1651_rv.mp4	0.0	251.92633986473083	1.0001351833343506
53	235.66826009750366	movie	1		242	51.0	2.5	/experiments/knapen_AOT/AOT_stimuli/rescaled_final/1651_rv.mp4	0.0	252.92647504806519	2.4920530319213867
53	236.05235409736633	pulse	1	t		51.0	2.5	/experiments/knapen_AOT/AOT_stimuli/rescaled_final/1651_rv.mp4	0.0	253.31056904792786	
53	237.65219402313232	pulse	1	t		51.0	2.5	/experiments/knapen_AOT/AOT_stimuli/rescaled_final/1651_rv.mp4	0.0	254.91040897369385	
53	238.16031312942505	fix_post	2		12	51.0	2.5	/experiments/knapen_AOT/AOT_stimuli/rescaled_final/1651_rv.mp4	0.0	255.41852807998657	0.10001587867736816
54	238.26032900810242	fix_pre	0		120	52.0	2.5	/experiments/knapen_AOT/AOT_stimuli/rescaled_final/0973_rv.mp4	0.0	255.51854395866394	1.0001270771026611
54	239.25235891342163	pulse	0	t		52.0	2.5	/experiments/knapen_AOT/AOT_stimuli/rescaled_final/0973_rv.mp4	0.0	256.51057386398315	
54	239.26045608520508	movie	1		243	52.0	2.5	/experiments/knapen_AOT/AOT_stimuli/rescaled_final/0973_rv.mp4	0.0	256.5186710357666	2.5087640285491943
54	240.85332107543945	pulse	1	t		52.0	2.5	/experiments/knapen_AOT/AOT_stimuli/rescaled_final/0973_rv.mp4	0.0	258.111536026001	
54	241.76922011375427	fix_post	2		12	52.0	2.5	/experiments/knapen_AOT/AOT_stimuli/rescaled_final/0973_rv.mp4	0.0	259.0274350643158	0.09995579719543457
55	241.8691759109497	fix_pre	0		120	53.0	2.5	/experiments/knapen_AOT/AOT_stimuli/rescaled_final/1596_rv.mp4	0.0	259.12739086151123	1.0001680850982666
55	242.45275902748108	pulse	0	t		53.0	2.5	/experiments/knapen_AOT/AOT_stimuli/rescaled_final/1596_rv.mp4	0.0	259.7109739780426	
55	242.86934399604797	movie	1		243	53.0	2.5	/experiments/knapen_AOT/AOT_stimuli/rescaled_final/1596_rv.mp4	0.0	260.1275589466095	2.500541925430298
55	244.05320692062378	pulse	1	t		53.0	2.5	/experiments/knapen_AOT/AOT_stimuli/rescaled_final/1596_rv.mp4	0.0	261.3114218711853	
55	245.36988592147827	fix_post	2		12	53.0	2.5	/experiments/knapen_AOT/AOT_stimuli/rescaled_final/1596_rv.mp4	0.0	262.6281008720398	0.09989404678344727
56	245.46977996826172	fix_pre	0		120	54.0	2.5	/experiments/knapen_AOT/AOT_stimuli/rescaled_final/1523_fw.mp4	0.0	262.72799491882324	1.000096082687378
56	245.6533420085907	pulse	0	t		54.0	2.5	/experiments/knapen_AOT/AOT_stimuli/rescaled_final/1523_fw.mp4	0.0	262.9115569591522	
56	246.4698760509491	movie	1		242	54.0	2.5	/experiments/knapen_AOT/AOT_stimuli/rescaled_final/1523_fw.mp4	0.0	263.7280910015106	2.5004489421844482
56	247.25352096557617	pulse	1	t		54.0	2.5	/experiments/knapen_AOT/AOT_stimuli/rescaled_final/1523_fw.mp4	0.0	264.5117359161377	
56	248.85383892059326	pulse	1	t		54.0	2.5	/experiments/knapen_AOT/AOT_stimuli/rescaled_final/1523_fw.mp4	0.0	266.1120538711548	
56	248.97032499313354	fix_post	2		12	54.0	2.5	/experiments/knapen_AOT/AOT_stimuli/rescaled_final/1523_fw.mp4	0.0	266.22853994369507	0.09996604919433594
57	249.07029104232788	fix_pre	0		120	55.0	2.5	blank	1.0	266.3285059928894	1.0001580715179443
57	250.07044911384583	movie	1		299	55.0	2.5	blank	1.0	267.32866406440735	2.4920477867126465
57	250.45398712158203	pulse	1	t		55.0	2.5	blank	1.0	267.71220207214355	
57	252.05424308776855	pulse	1	t		55.0	2.5	blank	1.0	269.3124580383301	
57	252.56249690055847	fix_post	2		12	55.0	2.5	blank	1.0	269.82071185112	0.10002613067626953
58	252.66252303123474	fix_pre	0		120	56.0	2.5	/experiments/knapen_AOT/AOT_stimuli/rescaled_final/0911_fw.mp4	0.0	269.92073798179626	1.0000629425048828
58	253.6545569896698	pulse	0	t		56.0	2.5	/experiments/knapen_AOT/AOT_stimuli/rescaled_final/0911_fw.mp4	0.0	270.9127719402313	
58	253.66258597373962	movie	1		244	56.0	2.5	/experiments/knapen_AOT/AOT_stimuli/rescaled_final/0911_fw.mp4	0.0	270.92080092430115	2.508780002593994
58	255.25579595565796	pulse	1	t		56.0	2.5	/experiments/knapen_AOT/AOT_stimuli/rescaled_final/0911_fw.mp4	0.0	272.5140109062195	
58	256.1713659763336	fix_post	2		12	56.0	2.5	/experiments/knapen_AOT/AOT_stimuli/rescaled_final/0911_fw.mp4	0.0	273.42958092689514	0.10004711151123047
59	256.27141308784485	fix_pre	0		120	57.0	2.5	/experiments/knapen_AOT/AOT_stimuli/rescaled_final/2146_rv.mp4	0.0	273.5296280384064	1.0000979900360107
59	256.85492491722107	pulse	0	t		57.0	2.5	/experiments/knapen_AOT/AOT_stimuli/rescaled_final/2146_rv.mp4	0.0	274.1131398677826	
59	257.27151107788086	movie	1		239	57.0	2.5	/experiments/knapen_AOT/AOT_stimuli/rescaled_final/2146_rv.mp4	0.0	274.5297260284424	2.500469923019409
59	258.45529413223267	pulse	1	t		57.0	2.5	/experiments/knapen_AOT/AOT_stimuli/rescaled_final/2146_rv.mp4	0.0	275.7135090827942	
59	259.77198100090027	fix_post	2		12	57.0	2.5	/experiments/knapen_AOT/AOT_stimuli/rescaled_final/2146_rv.mp4	0.0	277.0301959514618	0.0999460220336914
60	259.87192702293396	fix_pre	0		120	58.0	2.5	/experiments/knapen_AOT/AOT_stimuli/rescaled_final/0261_fw.mp4	0.0	277.1301419734955	1.0001049041748047
60	260.05538606643677	pulse	0	t		58.0	2.5	/experiments/knapen_AOT/AOT_stimuli/rescaled_final/0261_fw.mp4	0.0	277.3136010169983	
60	260.87203192710876	movie	1		244	58.0	2.5	/experiments/knapen_AOT/AOT_stimuli/rescaled_final/0261_fw.mp4	0.0	278.1302468776703	2.5004379749298096
60	261.6556761264801	pulse	1	t		58.0	2.5	/experiments/knapen_AOT/AOT_stimuli/rescaled_final/0261_fw.mp4	0.0	278.9138910770416	
60	263.25618410110474	pulse	1	t		58.0	2.5	/experiments/knapen_AOT/AOT_stimuli/rescaled_final/0261_fw.mp4	0.0	280.51439905166626	
60	263.3724699020386	fix_post	2		12	58.0	2.5	/experiments/knapen_AOT/AOT_stimuli/rescaled_final/0261_fw.mp4	0.0	280.6306848526001	0.09998822212219238
61	263.47245812416077	fix_pre	0		120	59.0	2.5	/experiments/knapen_AOT/AOT_stimuli/rescaled_final/0508_rv.mp4	0.0	280.7306730747223	1.0001449584960938
61	264.47260308265686	movie	1		243	59.0	2.5	/experiments/knapen_AOT/AOT_stimuli/rescaled_final/0508_rv.mp4	0.0	281.7308180332184	2.492058038711548
61	264.85688996315	pulse	1	t		59.0	2.5	/experiments/knapen_AOT/AOT_stimuli/rescaled_final/0508_rv.mp4	0.0	282.11510491371155	
61	266.4563190937042	pulse	1	t		59.0	2.5	/experiments/knapen_AOT/AOT_stimuli/rescaled_final/0508_rv.mp4	0.0	283.71453404426575	
61	266.9646611213684	fix_post	2		12	59.0	2.5	/experiments/knapen_AOT/AOT_stimuli/rescaled_final/0508_rv.mp4	0.0	284.22287607192993	0.10000395774841309
62	267.0646650791168	fix_pre	0		120	60.0	2.5	/experiments/knapen_AOT/AOT_stimuli/rescaled_final/1818_rv.mp4	0.0	284.32288002967834	1.0001099109649658
62	268.05661606788635	pulse	0	t		60.0	2.5	/experiments/knapen_AOT/AOT_stimuli/rescaled_final/1818_rv.mp4	0.0	285.3148310184479	
62	268.0647749900818	movie	1		243	60.0	2.5	/experiments/knapen_AOT/AOT_stimuli/rescaled_final/1818_rv.mp4	0.0	285.3229899406433	2.508841037750244
62	269.65754890441895	pulse	1	t		60.0	2.5	/experiments/knapen_AOT/AOT_stimuli/rescaled_final/1818_rv.mp4	0.0	286.91576385498047	
62	270.57361602783203	fix_post	2		12	60.0	2.5	/experiments/knapen_AOT/AOT_stimuli/rescaled_final/1818_rv.mp4	0.0	287.83183097839355	0.09993791580200195
63	270.67355394363403	fix_pre	0		120	61.0	2.5	/experiments/knapen_AOT/AOT_stimuli/rescaled_final/0499_rv.mp4	0.0	287.93176889419556	1.000096082687378
63	271.2496700286865	pulse	0	t		61.0	2.5	/experiments/knapen_AOT/AOT_stimuli/rescaled_final/0499_rv.mp4	0.0	288.50788497924805	
63	271.6736500263214	movie	1		244	61.0	2.5	/experiments/knapen_AOT/AOT_stimuli/rescaled_final/0499_rv.mp4	0.0	288.93186497688293	2.5003581047058105
63	272.84977412223816	pulse	1	t		61.0	2.5	/experiments/knapen_AOT/AOT_stimuli/rescaled_final/0499_rv.mp4	0.0	290.1079890727997	
63	274.1740081310272	fix_post	2		12	61.0	2.5	/experiments/knapen_AOT/AOT_stimuli/rescaled_final/0499_rv.mp4	0.0	291.43222308158875	0.10003185272216797
64	274.2740399837494	fix_pre	0		120	62.0	2.5	/experiments/knapen_AOT/AOT_stimuli/rescaled_final/1460_fw.mp4	0.0	291.5322549343109	1.0001320838928223
64	274.45008301734924	pulse	0	t		62.0	2.5	/experiments/knapen_AOT/AOT_stimuli/rescaled_final/1460_fw.mp4	0.0	291.70829796791077	
64	275.2741720676422	movie	1		244	62.0	2.5	/experiments/knapen_AOT/AOT_stimuli/rescaled_final/1460_fw.mp4	0.0	292.53238701820374	2.500464916229248
64	276.0503330230713	pulse	1	t		62.0	2.5	/experiments/knapen_AOT/AOT_stimuli/rescaled_final/1460_fw.mp4	0.0	293.3085479736328	
64	277.6498029232025	pulse	1	t		62.0	2.5	/experiments/knapen_AOT/AOT_stimuli/rescaled_final/1460_fw.mp4	0.0	294.90801787376404	
64	277.77463698387146	fix_post	2		12	62.0	2.5	/experiments/knapen_AOT/AOT_stimuli/rescaled_final/1460_fw.mp4	0.0	295.032851934433	0.09996700286865234
65	277.8746039867401	fix_pre	0		120	63.0	2.5	blank	1.0	295.13281893730164	1.0001609325408936
65	278.874764919281	movie	1		299	63.0	2.5	blank	1.0	296.13297986984253	2.4920082092285156
65	279.24989891052246	pulse	1	t		63.0	2.5	blank	1.0	296.508113861084	
65	280.8501169681549	pulse	1	t		63.0	2.5	blank	1.0	298.10833191871643	
65	281.3667731285095	fix_post	2		12	63.0	2.5	blank	1.0	298.62498807907104	0.10006093978881836
66	281.46683406829834	fix_pre	0		119	64.0	2.5	/experiments/knapen_AOT/AOT_stimuli/rescaled_final/1086_fw.mp4	0.0	298.72504901885986	0.9917490482330322
66	282.4503879547119	pulse	0	t		64.0	2.5	/experiments/knapen_AOT/AOT_stimuli/rescaled_final/1086_fw.mp4	0.0	299.70860290527344	
66	282.4585831165314	movie	1		244	64.0	2.5	/experiments/knapen_AOT/AOT_stimuli/rescaled_final/1086_fw.mp4	0.0	299.7167980670929	2.5088329315185547
66	284.05485010147095	pulse	1	t		64.0	2.5	/experiments/knapen_AOT/AOT_stimuli/rescaled_final/1086_fw.mp4	0.0	301.31306505203247	
66	284.9674160480499	fix_post	2		12	64.0	2.5	/experiments/knapen_AOT/AOT_stimuli/rescaled_final/1086_fw.mp4	0.0	302.22563099861145	0.09991288185119629
67	285.0673289299011	fix_pre	0		120	65.0	2.5	/experiments/knapen_AOT/AOT_stimuli/rescaled_final/2082_fw.mp4	0.0	302.32554388046265	1.0001051425933838
67	285.6510400772095	pulse	0	t		65.0	2.5	/experiments/knapen_AOT/AOT_stimuli/rescaled_final/2082_fw.mp4	0.0	302.909255027771	
67	286.0674340724945	movie	1		243	65.0	2.5	/experiments/knapen_AOT/AOT_stimuli/rescaled_final/2082_fw.mp4	0.0	303.32564902305603	2.500638008117676
67	287.25122594833374	pulse	1	t		65.0	2.5	/experiments/knapen_AOT/AOT_stimuli/rescaled_final/2082_fw.mp4	0.0	304.50944089889526	
67	288.5680720806122	fix_post	2		12	65.0	2.5	/experiments/knapen_AOT/AOT_stimuli/rescaled_final/2082_fw.mp4	0.0	305.8262870311737	0.09983181953430176
68	288.6679039001465	fix_pre	0		120	66.0	2.5	/experiments/knapen_AOT/AOT_stimuli/rescaled_final/2125_rv.mp4	0.0	305.926118850708	1.000150203704834
68	288.85132002830505	pulse	0	t		66.0	2.5	/experiments/knapen_AOT/AOT_stimuli/rescaled_final/2125_rv.mp4	0.0	306.1095349788666	
68	289.6680541038513	movie	1		244	66.0	2.5	/experiments/knapen_AOT/AOT_stimuli/rescaled_final/2125_rv.mp4	0.0	306.92626905441284	2.5003998279571533
68	290.45172810554504	pulse	1	t		66.0	2.5	/experiments/knapen_AOT/AOT_stimuli/rescaled_final/2125_rv.mp4	0.0	307.70994305610657	
68	292.05527901649475	pulse	1	t		66.0	2.5	/experiments/knapen_AOT/AOT_stimuli/rescaled_final/2125_rv.mp4	0.0	309.3134939670563	
68	292.1684539318085	fix_post	2		12	66.0	2.5	/experiments/knapen_AOT/AOT_stimuli/rescaled_final/2125_rv.mp4	0.0	309.42666888237	0.10000419616699219
69	292.26845812797546	fix_pre	0		119	67.0	2.5	/experiments/knapen_AOT/AOT_stimuli/rescaled_final/1928_rv.mp4	0.0	309.526673078537	0.9917449951171875
69	293.26020312309265	movie	1		243	67.0	2.5	/experiments/knapen_AOT/AOT_stimuli/rescaled_final/1928_rv.mp4	0.0	310.5184180736542	2.50049090385437
69	293.6522490978241	pulse	1	t		67.0	2.5	/experiments/knapen_AOT/AOT_stimuli/rescaled_final/1928_rv.mp4	0.0	310.9104640483856	
69	295.25227403640747	pulse	1	t		67.0	2.5	/experiments/knapen_AOT/AOT_stimuli/rescaled_final/1928_rv.mp4	0.0	312.510488986969	
69	295.760694026947	fix_post	2		12	67.0	2.5	/experiments/knapen_AOT/AOT_stimuli/rescaled_final/1928_rv.mp4	0.0	313.01890897750854	0.09989094734191895
70	295.86058497428894	fix_pre	0		120	68.0	2.5	/experiments/knapen_AOT/AOT_stimuli/rescaled_final/1259_rv.mp4	0.0	313.11879992485046	1.0001990795135498
70	296.852667093277	pulse	0	t		68.0	2.5	/experiments/knapen_AOT/AOT_stimuli/rescaled_final/1259_rv.mp4	0.0	314.1108820438385	
70	296.8607840538025	movie	1		244	68.0	2.5	/experiments/knapen_AOT/AOT_stimuli/rescaled_final/1259_rv.mp4	0.0	314.118999004364	2.50874400138855
70	298.4531240463257	pulse	1	t		68.0	2.5	/experiments/knapen_AOT/AOT_stimuli/rescaled_final/1259_rv.mp4	0.0	315.7113389968872	
70	299.36952805519104	fix_post	2		12	68.0	2.5	/experiments/knapen_AOT/AOT_stimuli/rescaled_final/1259_rv.mp4	0.0	316.62774300575256	0.10000300407409668
71	299.46953105926514	fix_pre	0		120	69.0	2.5	blank	1.0	316.72774600982666	1.0001039505004883
71	300.05322194099426	pulse	0	t		69.0	2.5	blank	1.0	317.3114368915558	
71	300.4696350097656	movie	1		300	69.0	2.5	blank	1.0	317.72784996032715	2.5003859996795654
71	301.6533091068268	pulse	1	t		69.0	2.5	blank	1.0	318.9115240573883	
71	302.9700210094452	fix_post	2		12	69.0	2.5	blank	1.0	320.2282359600067	0.1000220775604248
72	303.0700430870056	fix_pre	0		120	70.0	2.5	/experiments/knapen_AOT/AOT_stimuli/rescaled_final/0935_fw.mp4	0.0	320.32825803756714	1.0001509189605713
72	303.25352907180786	pulse	0	t		70.0	2.5	/experiments/knapen_AOT/AOT_stimuli/rescaled_final/0935_fw.mp4	0.0	320.5117440223694	
72	304.0701940059662	movie	1		242	70.0	2.5	/experiments/knapen_AOT/AOT_stimuli/rescaled_final/0935_fw.mp4	0.0	321.3284089565277	2.500576972961426
72	304.85387206077576	pulse	1	t		70.0	2.5	/experiments/knapen_AOT/AOT_stimuli/rescaled_final/0935_fw.mp4	0.0	322.1120870113373	
72	306.4540150165558	pulse	1	t		70.0	2.5	/experiments/knapen_AOT/AOT_stimuli/rescaled_final/0935_fw.mp4	0.0	323.7122299671173	
72	306.5707709789276	fix_post	2		12	70.0	2.5	/experiments/knapen_AOT/AOT_stimuli/rescaled_final/0935_fw.mp4	0.0	323.82898592948914	0.09973812103271484
73	306.6705090999603	fix_pre	0		120	71.0	2.5	/experiments/knapen_AOT/AOT_stimuli/rescaled_final/0459_rv.mp4	0.0	323.92872405052185	1.0001559257507324
73	307.67066502571106	movie	1		242	71.0	2.5	/experiments/knapen_AOT/AOT_stimuli/rescaled_final/0459_rv.mp4	0.0	324.9288799762726	2.4922590255737305
73	308.0546441078186	pulse	1	t		71.0	2.5	/experiments/knapen_AOT/AOT_stimuli/rescaled_final/0459_rv.mp4	0.0	325.3128590583801	
73	309.65448212623596	pulse	1	t		71.0	2.5	/experiments/knapen_AOT/AOT_stimuli/rescaled_final/0459_rv.mp4	0.0	326.9126970767975	
73	310.1629240512848	fix_post	2		12	71.0	2.5	/experiments/knapen_AOT/AOT_stimuli/rescaled_final/0459_rv.mp4	0.0	327.4211390018463	0.09984397888183594
74	310.2627680301666	fix_pre	0		120	72.0	2.5	/experiments/knapen_AOT/AOT_stimuli/rescaled_final/0937_rv.mp4	0.0	327.52098298072815	1.0001940727233887
74	311.2548129558563	pulse	0	t		72.0	2.5	/experiments/knapen_AOT/AOT_stimuli/rescaled_final/0937_rv.mp4	0.0	328.51302790641785	
74	311.26296210289	movie	1		243	72.0	2.5	/experiments/knapen_AOT/AOT_stimuli/rescaled_final/0937_rv.mp4	0.0	328.52117705345154	2.5087058544158936
74	312.85623598098755	pulse	1	t		72.0	2.5	/experiments/knapen_AOT/AOT_stimuli/rescaled_final/0937_rv.mp4	0.0	330.1144509315491	
74	313.7716679573059	fix_post	2		12	72.0	2.5	/experiments/knapen_AOT/AOT_stimuli/rescaled_final/0937_rv.mp4	0.0	331.02988290786743	0.09998297691345215
75	313.87165093421936	fix_pre	0		120	73.0	2.5	/experiments/knapen_AOT/AOT_stimuli/rescaled_final/0446_fw.mp4	0.0	331.1298658847809	1.0001499652862549
75	314.45533299446106	pulse	0	t		73.0	2.5	/experiments/knapen_AOT/AOT_stimuli/rescaled_final/0446_fw.mp4	0.0	331.7135479450226	
75	314.8718008995056	movie	1		243	73.0	2.5	/experiments/knapen_AOT/AOT_stimuli/rescaled_final/0446_fw.mp4	0.0	332.13001585006714	2.5004382133483887
75	316.0555589199066	pulse	1	t		73.0	2.5	/experiments/knapen_AOT/AOT_stimuli/rescaled_final/0446_fw.mp4	0.0	333.31377387046814	
75	317.372239112854	fix_post	2		12	73.0	2.5	/experiments/knapen_AOT/AOT_stimuli/rescaled_final/0446_fw.mp4	0.0	334.6304540634155	0.09990787506103516
76	317.47214698791504	fix_pre	0		120	74.0	2.5	/experiments/knapen_AOT/AOT_stimuli/rescaled_final/0626_rv.mp4	0.0	334.73036193847656	1.000196933746338
76	317.65575909614563	pulse	0	t		74.0	2.5	/experiments/knapen_AOT/AOT_stimuli/rescaled_final/0626_rv.mp4	0.0	334.91397404670715	
76	318.4723439216614	movie	1		244	74.0	2.5	/experiments/knapen_AOT/AOT_stimuli/rescaled_final/0626_rv.mp4	0.0	335.7305588722229	2.500369071960449
76	319.2560589313507	pulse	1	t		74.0	2.5	/experiments/knapen_AOT/AOT_stimuli/rescaled_final/0626_rv.mp4	0.0	336.51427388191223	
76	320.85614109039307	pulse	1	t		74.0	2.5	/experiments/knapen_AOT/AOT_stimuli/rescaled_final/0626_rv.mp4	0.0	338.1143560409546	
76	320.9727129936218	fix_post	2		12	74.0	2.5	/experiments/knapen_AOT/AOT_stimuli/rescaled_final/0626_rv.mp4	0.0	338.23092794418335	0.10001897811889648
77	321.0727319717407	fix_pre	0		120	75.0	2.5	/experiments/knapen_AOT/AOT_stimuli/rescaled_final/1576_fw.mp4	0.0	338.33094692230225	1.0000879764556885
77	322.0728199481964	movie	1		242	75.0	2.5	/experiments/knapen_AOT/AOT_stimuli/rescaled_final/1576_fw.mp4	0.0	339.33103489875793	2.4922680854797363
77	322.45686507225037	pulse	1	t		75.0	2.5	/experiments/knapen_AOT/AOT_stimuli/rescaled_final/1576_fw.mp4	0.0	339.7150800228119	
77	324.04939913749695	pulse	1	t		75.0	2.5	/experiments/knapen_AOT/AOT_stimuli/rescaled_final/1576_fw.mp4	0.0	341.3076140880585	
77	324.56508803367615	fix_post	2		8	75.0	2.5	/experiments/knapen_AOT/AOT_stimuli/rescaled_final/1576_fw.mp4	0.0	341.82330298423767	0.0998380184173584
78	324.6649260520935	fix_pre	0		120	76.0	2.5	/experiments/knapen_AOT/AOT_stimuli/rescaled_final/1460_fw.mp4	0.0	341.92314100265503	1.0002310276031494
78	325.64950609207153	pulse	0	t		76.0	2.5	/experiments/knapen_AOT/AOT_stimuli/rescaled_final/1460_fw.mp4	0.0	342.90772104263306	
78	325.66515707969666	movie	1		245	76.0	2.5	/experiments/knapen_AOT/AOT_stimuli/rescaled_final/1460_fw.mp4	0.0	342.9233720302582	2.508687973022461
78	327.25774002075195	pulse	1	t		76.0	2.5	/experiments/knapen_AOT/AOT_stimuli/rescaled_final/1460_fw.mp4	0.0	344.5159549713135	
78	328.1738450527191	fix_post	2		12	76.0	2.5	/experiments/knapen_AOT/AOT_stimuli/rescaled_final/1460_fw.mp4	0.0	345.43206000328064	0.09993290901184082
79	328.27377796173096	fix_pre	0		120	77.0	2.5	blank	1.0	345.5319929122925	1.0001721382141113
79	328.8500189781189	pulse	0	t		77.0	2.5	blank	1.0	346.1082339286804	
79	329.27395009994507	movie	1		300	77.0	2.5	blank	1.0	346.5321650505066	2.5003468990325928
79	330.4500379562378	pulse	1	t		77.0	2.5	blank	1.0	347.7082529067993	
79	331.77429699897766	fix_post	2		12	77.0	2.5	blank	1.0	349.0325119495392	0.10001492500305176
80	331.8743119239807	fix_pre	0		120	78.0	2.5	/experiments/knapen_AOT/AOT_stimuli/rescaled_final/0803_fw.mp4	0.0	349.13252687454224	1.0001721382141113
80	332.04947805404663	pulse	0	t		78.0	2.5	/experiments/knapen_AOT/AOT_stimuli/rescaled_final/0803_fw.mp4	0.0	349.30769300460815	
80	332.8744840621948	movie	1		242	78.0	2.5	/experiments/knapen_AOT/AOT_stimuli/rescaled_final/0803_fw.mp4	0.0	350.13269901275635	2.5003459453582764
80	333.6496820449829	pulse	1	t		78.0	2.5	/experiments/knapen_AOT/AOT_stimuli/rescaled_final/0803_fw.mp4	0.0	350.90789699554443	
80	335.25009202957153	pulse	1	t		78.0	2.5	/experiments/knapen_AOT/AOT_stimuli/rescaled_final/0803_fw.mp4	0.0	352.50830698013306	
80	335.3748300075531	fix_post	2		12	78.0	2.5	/experiments/knapen_AOT/AOT_stimuli/rescaled_final/0803_fw.mp4	0.0	352.6330449581146	0.10002994537353516
81	335.47485995292664	fix_pre	0		120	79.0	2.5	/experiments/knapen_AOT/AOT_stimuli/rescaled_final/0261_rv.mp4	0.0	352.73307490348816	1.0001220703125
81	336.47498202323914	movie	1		243	79.0	2.5	/experiments/knapen_AOT/AOT_stimuli/rescaled_final/0261_rv.mp4	0.0	353.73319697380066	2.492072105407715
81	336.8502690792084	pulse	1	t		79.0	2.5	/experiments/knapen_AOT/AOT_stimuli/rescaled_final/0261_rv.mp4	0.0	354.1084840297699	
81	338.45052790641785	pulse	1	t		79.0	2.5	/experiments/knapen_AOT/AOT_stimuli/rescaled_final/0261_rv.mp4	0.0	355.70874285697937	
81	338.96705412864685	fix_post	2		12	79.0	2.5	/experiments/knapen_AOT/AOT_stimuli/rescaled_final/0261_rv.mp4	0.0	356.2252690792084	0.09999394416809082
82	339.06704807281494	fix_pre	0		119	80.0	2.5	/experiments/knapen_AOT/AOT_stimuli/rescaled_final/2171_fw.mp4	0.0	356.32526302337646	0.9918580055236816
82	340.0507321357727	pulse	0	t		80.0	2.5	/experiments/knapen_AOT/AOT_stimuli/rescaled_final/2171_fw.mp4	0.0	357.30894708633423	
82	340.0589060783386	movie	1		243	80.0	2.5	/experiments/knapen_AOT/AOT_stimuli/rescaled_final/2171_fw.mp4	0.0	357.31712102890015	2.508769989013672
82	341.65560698509216	pulse	1	t		80.0	2.5	/experiments/knapen_AOT/AOT_stimuli/rescaled_final/2171_fw.mp4	0.0	358.9138219356537	
82	342.5676760673523	fix_post	2		12	80.0	2.5	/experiments/knapen_AOT/AOT_stimuli/rescaled_final/2171_fw.mp4	0.0	359.8258910179138	0.099945068359375
83	342.66762113571167	fix_pre	0		120	81.0	2.5	/experiments/knapen_AOT/AOT_stimuli/rescaled_final/0555_rv.mp4	0.0	359.9258360862732	1.0001189708709717
83	343.25121808052063	pulse	0	t		81.0	2.5	/experiments/knapen_AOT/AOT_stimuli/rescaled_final/0555_rv.mp4	0.0	360.50943303108215	
83	343.66774010658264	movie	1		243	81.0	2.5	/experiments/knapen_AOT/AOT_stimuli/rescaled_final/0555_rv.mp4	0.0	360.92595505714417	2.500520944595337
83	344.85148310661316	pulse	1	t		81.0	2.5	/experiments/knapen_AOT/AOT_stimuli/rescaled_final/0555_rv.mp4	0.0	362.1096980571747	
83	346.168261051178	fix_post	2		12	81.0	2.5	/experiments/knapen_AOT/AOT_stimuli/rescaled_final/0555_rv.mp4	0.0	363.4264760017395	0.09982800483703613
84	346.268089056015	fix_pre	0		120	82.0	2.5	/experiments/knapen_AOT/AOT_stimuli/rescaled_final/0045_rv.mp4	0.0	363.52630400657654	1.0001518726348877
84	346.45171213150024	pulse	0	t		82.0	2.5	/experiments/knapen_AOT/AOT_stimuli/rescaled_final/0045_rv.mp4	0.0	363.70992708206177	
84	347.2682409286499	movie	1		242	82.0	2.5	/experiments/knapen_AOT/AOT_stimuli/rescaled_final/0045_rv.mp4	0.0	364.5264558792114	2.5006461143493652
84	348.05189394950867	pulse	1	t		82.0	2.5	/experiments/knapen_AOT/AOT_stimuli/rescaled_final/0045_rv.mp4	0.0	365.3101089000702	
84	349.6523060798645	pulse	1	t		82.0	2.5	/experiments/knapen_AOT/AOT_stimuli/rescaled_final/0045_rv.mp4	0.0	366.910521030426	
84	349.76888704299927	fix_post	2		12	82.0	2.5	/experiments/knapen_AOT/AOT_stimuli/rescaled_final/0045_rv.mp4	0.0	367.0271019935608	0.09981489181518555
85	349.86870193481445	fix_pre	0		120	83.0	2.5	blank	1.0	367.126916885376	1.0000791549682617
85	350.8687810897827	movie	1		299	83.0	2.5	blank	1.0	368.12699604034424	2.4920449256896973
85	351.2523100376129	pulse	1	t		83.0	2.5	blank	1.0	368.51052498817444	
85	352.85256910324097	pulse	1	t		83.0	2.5	blank	1.0	370.1107840538025	
85	353.3608260154724	fix_post	2		12	83.0	2.5	blank	1.0	370.61904096603394	0.10002994537353516
87	353.46085596084595	stim	0		1716					370.71907091140747	14.302150011062622
87	354.4529490470886	pulse	0	t						371.71116399765015	
87	356.05306005477905	pulse	0	t						373.3112750053406	
87	357.65328311920166	pulse	0	t						374.9114980697632	
87	359.2535879611969	pulse	0	t						376.5118029117584	
87	360.8538739681244	pulse	0	t						378.1120889186859	
87	362.4539840221405	pulse	0	t						379.712198972702	
87	364.05415511131287	pulse	0	t						381.3123700618744	
87	365.6544589996338	pulse	0	t						382.9126739501953	
87	367.25475692749023	pulse	0	t						384.51297187805176	
