trial_nr	onset	event_type	phase	response	nr_frames	movie_index	movie_duration	movie_file	blank	onset_abs	duration
0	0.15897202491760254	stim	0		27					20.299041986465454	0.22418999671936035
0	0.3751511573791504	response	0	space						20.515221118927002	
1	0.3831620216369629	stim	0		4544					20.523231983184814	37.86651396751404
1	38.243563175201416	pulse	0	t						58.38363313674927	
1	38.249675989151	stim	1		1717					58.38974595069885	14.308277130126953
1	39.84157204627991	pulse	1	t						59.98164200782776	
1	41.4415500164032	pulse	1	t						61.58161997795105	
1	43.04159712791443	pulse	1	t						63.18166708946228	
1	44.64148998260498	pulse	1	t						64.78155994415283	
1	46.24153518676758	pulse	1	t						66.38160514831543	
1	47.84148597717285	pulse	1	t						67.9815559387207	
1	49.441437005996704	pulse	1	t						69.58150696754456	
1	51.041471004486084	pulse	1	t						71.18154096603394	
2	52.557953119277954	fix_pre	0		11	0.0	2.5	/experiments/AOT/AOT_stimuli/rescaled_final/2077_rv.mp4	0.0	72.6980230808258	0.09159994125366211
2	52.641448974609375	pulse	0	t		0.0	2.5	/experiments/AOT/AOT_stimuli/rescaled_final/2077_rv.mp4	0.0	72.78151893615723	
2	52.649553060531616	movie	1		243	0.0	2.5	/experiments/AOT/AOT_stimuli/rescaled_final/2077_rv.mp4	0.0	72.78962302207947	2.50839900970459
2	54.24147701263428	pulse	1	t		0.0	2.5	/experiments/AOT/AOT_stimuli/rescaled_final/2077_rv.mp4	0.0	74.38154697418213	
2	55.157952070236206	fix_post	2		12	0.0	2.5	/experiments/AOT/AOT_stimuli/rescaled_final/2077_rv.mp4	0.0	75.29802203178406	0.10006093978881836
3	55.258013010025024	fix_pre	0		120	1.0	2.5	/experiments/AOT/AOT_stimuli/rescaled_final/0957_fw.mp4	0.0	75.39808297157288	0.9999690055847168
3	55.84141206741333	pulse	0	t		1.0	2.5	/experiments/AOT/AOT_stimuli/rescaled_final/0957_fw.mp4	0.0	75.98148202896118	
3	56.25798201560974	movie	1		241	1.0	2.5	/experiments/AOT/AOT_stimuli/rescaled_final/0957_fw.mp4	0.0	76.39805197715759	2.500044107437134
3	57.44153618812561	pulse	1	t		1.0	2.5	/experiments/AOT/AOT_stimuli/rescaled_final/0957_fw.mp4	0.0	77.58160614967346	
3	58.758026123046875	fix_post	2		12	1.0	2.5	/experiments/AOT/AOT_stimuli/rescaled_final/0957_fw.mp4	0.0	78.89809608459473	0.10008096694946289
4	58.85810708999634	fix_pre	0		120	2.0	2.5	/experiments/AOT/AOT_stimuli/rescaled_final/0448_rv.mp4	0.0	78.99817705154419	0.9998319149017334
4	59.04152512550354	pulse	0	t		2.0	2.5	/experiments/AOT/AOT_stimuli/rescaled_final/0448_rv.mp4	0.0	79.18159508705139	
4	59.85793900489807	movie	1		243	2.0	2.5	/experiments/AOT/AOT_stimuli/rescaled_final/0448_rv.mp4	0.0	79.99800896644592	2.4999501705169678
4	60.64155697822571	pulse	1	t		2.0	2.5	/experiments/AOT/AOT_stimuli/rescaled_final/0448_rv.mp4	0.0	80.78162693977356	
4	62.239920139312744	pulse	1	t		2.0	2.5	/experiments/AOT/AOT_stimuli/rescaled_final/0448_rv.mp4	0.0	82.3799901008606	
4	62.35788917541504	fix_post	2		12	2.0	2.5	/experiments/AOT/AOT_stimuli/rescaled_final/0448_rv.mp4	0.0	82.49795913696289	0.10002899169921875
5	62.45791816711426	fix_pre	0		120	3.0	2.5	/experiments/AOT/AOT_stimuli/rescaled_final/1519_fw.mp4	0.0	82.59798812866211	0.999971866607666
5	63.457890033721924	movie	1		245	3.0	2.5	/experiments/AOT/AOT_stimuli/rescaled_final/1519_fw.mp4	0.0	83.59795999526978	2.500062942504883
5	63.84112906455994	pulse	1	t		3.0	2.5	/experiments/AOT/AOT_stimuli/rescaled_final/1519_fw.mp4	0.0	83.98119902610779	
5	65.44149613380432	pulse	1	t		3.0	2.5	/experiments/AOT/AOT_stimuli/rescaled_final/1519_fw.mp4	0.0	85.58156609535217	
5	65.9579529762268	fix_post	2		12	3.0	2.5	/experiments/AOT/AOT_stimuli/rescaled_final/1519_fw.mp4	0.0	86.09802293777466	0.0999760627746582
6	66.05792903900146	fix_pre	0		119	4.0	2.5	/experiments/AOT/AOT_stimuli/rescaled_final/0353_fw.mp4	0.0	86.19799900054932	0.991753101348877
6	67.04148197174072	pulse	0	t		4.0	2.5	/experiments/AOT/AOT_stimuli/rescaled_final/0353_fw.mp4	0.0	87.18155193328857	
6	67.04968214035034	movie	1		246	4.0	2.5	/experiments/AOT/AOT_stimuli/rescaled_final/0353_fw.mp4	0.0	87.1897521018982	2.508206844329834
6	68.64086103439331	pulse	1	t		4.0	2.5	/experiments/AOT/AOT_stimuli/rescaled_final/0353_fw.mp4	0.0	88.78093099594116	
6	69.55788898468018	fix_post	2		12	4.0	2.5	/experiments/AOT/AOT_stimuli/rescaled_final/0353_fw.mp4	0.0	89.69795894622803	0.10002708435058594
7	69.65791606903076	fix_pre	0		120	5.0	2.5	/experiments/AOT/AOT_stimuli/rescaled_final/1799_rv.mp4	0.0	89.79798603057861	0.9999330043792725
7	70.24155497550964	pulse	0	t		5.0	2.5	/experiments/AOT/AOT_stimuli/rescaled_final/1799_rv.mp4	0.0	90.3816249370575	
7	70.65784907341003	movie	1		244	5.0	2.5	/experiments/AOT/AOT_stimuli/rescaled_final/1799_rv.mp4	0.0	90.79791903495789	2.499969959259033
7	71.84140610694885	pulse	1	t		5.0	2.5	/experiments/AOT/AOT_stimuli/rescaled_final/1799_rv.mp4	0.0	91.9814760684967	
7	73.15781903266907	fix_post	2		12	5.0	2.5	/experiments/AOT/AOT_stimuli/rescaled_final/1799_rv.mp4	0.0	93.29788899421692	0.1000831127166748
8	73.25790214538574	fix_pre	0		120	6.0	2.5	blank	1.0	93.3979721069336	1.0002009868621826
8	73.4413251876831	pulse	0	t		6.0	2.5	blank	1.0	93.58139514923096	
8	74.25810313224792	movie	1		300	6.0	2.5	blank	1.0	94.39817309379578	2.499403953552246
8	75.04145407676697	pulse	1	t		6.0	2.5	blank	1.0	95.18152403831482	
8	76.64145803451538	pulse	1	t		6.0	2.5	blank	1.0	96.78152799606323	
8	76.75750708580017	fix_post	2		12	6.0	2.5	blank	1.0	96.89757704734802	0.1003420352935791
9	76.85784912109375	fix_pre	0		120	7.0	2.5	/experiments/AOT/AOT_stimuli/rescaled_final/1550_rv.mp4	0.0	96.9979190826416	0.9995920658111572
9	77.85744118690491	movie	1		245	7.0	2.5	/experiments/AOT/AOT_stimuli/rescaled_final/1550_rv.mp4	0.0	97.99751114845276	2.5001888275146484
9	78.24046802520752	pulse	1	t		7.0	2.5	/experiments/AOT/AOT_stimuli/rescaled_final/1550_rv.mp4	0.0	98.38053798675537	
9	79.84145498275757	pulse	1	t		7.0	2.5	/experiments/AOT/AOT_stimuli/rescaled_final/1550_rv.mp4	0.0	99.98152494430542	
9	80.35763001441956	fix_post	2		12	7.0	2.5	/experiments/AOT/AOT_stimuli/rescaled_final/1550_rv.mp4	0.0	100.49769997596741	0.1004941463470459
10	80.4581241607666	fix_pre	0		119	8.0	2.5	/experiments/AOT/AOT_stimuli/rescaled_final/1100_rv.mp4	0.0	100.59819412231445	0.9917788505554199
10	81.44131517410278	pulse	0	t		8.0	2.5	/experiments/AOT/AOT_stimuli/rescaled_final/1100_rv.mp4	0.0	101.58138513565063	
10	81.44990301132202	movie	1		245	8.0	2.5	/experiments/AOT/AOT_stimuli/rescaled_final/1100_rv.mp4	0.0	101.58997297286987	2.5079240798950195
10	83.04085898399353	pulse	1	t		8.0	2.5	/experiments/AOT/AOT_stimuli/rescaled_final/1100_rv.mp4	0.0	103.18092894554138	
10	83.95782709121704	fix_post	2		12	8.0	2.5	/experiments/AOT/AOT_stimuli/rescaled_final/1100_rv.mp4	0.0	104.09789705276489	0.10004305839538574
11	84.05787014961243	fix_pre	0		120	9.0	2.5	/experiments/AOT/AOT_stimuli/rescaled_final/0423_rv.mp4	0.0	104.19794011116028	1.00003981590271
11	84.64137005805969	pulse	0	t		9.0	2.5	/experiments/AOT/AOT_stimuli/rescaled_final/0423_rv.mp4	0.0	104.78144001960754	
11	85.05790996551514	movie	1		246	9.0	2.5	/experiments/AOT/AOT_stimuli/rescaled_final/0423_rv.mp4	0.0	105.19797992706299	2.4999310970306396
11	86.24138712882996	pulse	1	t		9.0	2.5	/experiments/AOT/AOT_stimuli/rescaled_final/0423_rv.mp4	0.0	106.38145709037781	
11	87.55784106254578	fix_post	2		12	9.0	2.5	/experiments/AOT/AOT_stimuli/rescaled_final/0423_rv.mp4	0.0	107.69791102409363	0.09997105598449707
12	87.65781211853027	fix_pre	0		120	10.0	2.5	/experiments/AOT/AOT_stimuli/rescaled_final/0423_fw.mp4	0.0	107.79788208007812	1.0000178813934326
12	87.84126114845276	pulse	0	t		10.0	2.5	/experiments/AOT/AOT_stimuli/rescaled_final/0423_fw.mp4	0.0	107.98133111000061	
12	88.6578299999237	movie	1		246	10.0	2.5	/experiments/AOT/AOT_stimuli/rescaled_final/0423_fw.mp4	0.0	108.79789996147156	2.499566078186035
12	89.44123911857605	pulse	1	t		10.0	2.5	/experiments/AOT/AOT_stimuli/rescaled_final/0423_fw.mp4	0.0	109.5813090801239	
12	91.03971099853516	pulse	1	t		10.0	2.5	/experiments/AOT/AOT_stimuli/rescaled_final/0423_fw.mp4	0.0	111.17978096008301	
12	91.15739607810974	fix_post	2		12	10.0	2.5	/experiments/AOT/AOT_stimuli/rescaled_final/0423_fw.mp4	0.0	111.29746603965759	0.10042405128479004
13	91.25782012939453	fix_pre	0		120	11.0	2.5	/experiments/AOT/AOT_stimuli/rescaled_final/0512_fw.mp4	0.0	111.39789009094238	0.9999740123748779
13	92.25779414176941	movie	1		245	11.0	2.5	/experiments/AOT/AOT_stimuli/rescaled_final/0512_fw.mp4	0.0	112.39786410331726	2.4999349117279053
13	92.64110112190247	pulse	1	t		11.0	2.5	/experiments/AOT/AOT_stimuli/rescaled_final/0512_fw.mp4	0.0	112.78117108345032	
13	94.24127316474915	pulse	1	t		11.0	2.5	/experiments/AOT/AOT_stimuli/rescaled_final/0512_fw.mp4	0.0	114.381343126297	
13	94.75772905349731	fix_post	2		12	11.0	2.5	/experiments/AOT/AOT_stimuli/rescaled_final/0512_fw.mp4	0.0	114.89779901504517	0.10001301765441895
14	94.85774207115173	fix_pre	0		119	12.0	2.5	/experiments/AOT/AOT_stimuli/rescaled_final/0386_fw.mp4	0.0	114.99781203269958	0.9916980266571045
14	95.84119510650635	pulse	0	t		12.0	2.5	/experiments/AOT/AOT_stimuli/rescaled_final/0386_fw.mp4	0.0	115.9812650680542	
14	95.84944009780884	movie	1		246	12.0	2.5	/experiments/AOT/AOT_stimuli/rescaled_final/0386_fw.mp4	0.0	115.98951005935669	2.508297920227051
14	97.44101595878601	pulse	1	t		12.0	2.5	/experiments/AOT/AOT_stimuli/rescaled_final/0386_fw.mp4	0.0	117.58108592033386	
14	98.35773801803589	fix_post	2		12	12.0	2.5	/experiments/AOT/AOT_stimuli/rescaled_final/0386_fw.mp4	0.0	118.49780797958374	0.10001015663146973
15	98.45774817466736	fix_pre	0		120	13.0	2.5	/experiments/AOT/AOT_stimuli/rescaled_final/0585_rv.mp4	0.0	118.59781813621521	1.0000720024108887
15	99.04148602485657	pulse	0	t		13.0	2.5	/experiments/AOT/AOT_stimuli/rescaled_final/0585_rv.mp4	0.0	119.18155598640442	
15	99.45782017707825	movie	1		243	13.0	2.5	/experiments/AOT/AOT_stimuli/rescaled_final/0585_rv.mp4	0.0	119.5978901386261	2.500760793685913
15	100.64134907722473	pulse	1	t		13.0	2.5	/experiments/AOT/AOT_stimuli/rescaled_final/0585_rv.mp4	0.0	120.78141903877258	
15	101.95858097076416	fix_post	2		12	13.0	2.5	/experiments/AOT/AOT_stimuli/rescaled_final/0585_rv.mp4	0.0	122.09865093231201	0.09920120239257812
16	102.05778217315674	fix_pre	0		120	14.0	2.5	blank	1.0	122.19785213470459	0.9999988079071045
16	102.24120712280273	pulse	0	t		14.0	2.5	blank	1.0	122.38127708435059	
16	103.05778098106384	movie	1		300	14.0	2.5	blank	1.0	123.1978509426117	2.499965190887451
16	103.84122014045715	pulse	1	t		14.0	2.5	blank	1.0	123.981290102005	
16	105.44118213653564	pulse	1	t		14.0	2.5	blank	1.0	125.5812520980835	
16	105.5577461719513	fix_post	2		12	14.0	2.5	blank	1.0	125.69781613349915	0.10004997253417969
17	105.65779614448547	fix_pre	0		120	15.0	2.5	/experiments/AOT/AOT_stimuli/rescaled_final/1872_fw.mp4	0.0	125.79786610603333	0.9994869232177734
17	106.65728306770325	movie	1		244	15.0	2.5	/experiments/AOT/AOT_stimuli/rescaled_final/1872_fw.mp4	0.0	126.7973530292511	2.500385046005249
17	107.04093503952026	pulse	1	t		15.0	2.5	/experiments/AOT/AOT_stimuli/rescaled_final/1872_fw.mp4	0.0	127.18100500106812	
17	108.6411771774292	pulse	1	t		15.0	2.5	/experiments/AOT/AOT_stimuli/rescaled_final/1872_fw.mp4	0.0	128.78124713897705	
17	109.1576681137085	fix_post	2		12	15.0	2.5	/experiments/AOT/AOT_stimuli/rescaled_final/1872_fw.mp4	0.0	129.29773807525635	0.10001492500305176
18	109.25768303871155	fix_pre	0		119	16.0	2.5	/experiments/AOT/AOT_stimuli/rescaled_final/0036_rv.mp4	0.0	129.3977530002594	0.9915900230407715
18	110.24116897583008	pulse	0	t		16.0	2.5	/experiments/AOT/AOT_stimuli/rescaled_final/0036_rv.mp4	0.0	130.38123893737793	
18	110.24927306175232	movie	1		245	16.0	2.5	/experiments/AOT/AOT_stimuli/rescaled_final/0036_rv.mp4	0.0	130.38934302330017	2.508453130722046
18	111.84221315383911	pulse	1	t		16.0	2.5	/experiments/AOT/AOT_stimuli/rescaled_final/0036_rv.mp4	0.0	131.98228311538696	
18	112.75772619247437	fix_post	2		12	16.0	2.5	/experiments/AOT/AOT_stimuli/rescaled_final/0036_rv.mp4	0.0	132.89779615402222	0.10001182556152344
19	112.85773801803589	fix_pre	0		120	17.0	2.5	/experiments/AOT/AOT_stimuli/rescaled_final/1636_rv.mp4	0.0	132.99780797958374	0.9999401569366455
19	113.44120907783508	pulse	0	t		17.0	2.5	/experiments/AOT/AOT_stimuli/rescaled_final/1636_rv.mp4	0.0	133.58127903938293	
19	113.85767817497253	movie	1		246	17.0	2.5	/experiments/AOT/AOT_stimuli/rescaled_final/1636_rv.mp4	0.0	133.99774813652039	2.5000009536743164
19	115.0412609577179	pulse	1	t		17.0	2.5	/experiments/AOT/AOT_stimuli/rescaled_final/1636_rv.mp4	0.0	135.18133091926575	
19	116.35767912864685	fix_post	2		12	17.0	2.5	/experiments/AOT/AOT_stimuli/rescaled_final/1636_rv.mp4	0.0	136.4977490901947	0.09999489784240723
20	116.45767402648926	fix_pre	0		120	18.0	2.5	/experiments/AOT/AOT_stimuli/rescaled_final/0285_rv.mp4	0.0	136.5977439880371	1.0000481605529785
20	116.64122700691223	pulse	0	t		18.0	2.5	/experiments/AOT/AOT_stimuli/rescaled_final/0285_rv.mp4	0.0	136.78129696846008	
20	117.45772218704224	movie	1		243	18.0	2.5	/experiments/AOT/AOT_stimuli/rescaled_final/0285_rv.mp4	0.0	137.5977921485901	2.5002799034118652
20	118.24117398262024	pulse	1	t		18.0	2.5	/experiments/AOT/AOT_stimuli/rescaled_final/0285_rv.mp4	0.0	138.3812439441681	
20	119.8395471572876	pulse	1	t		18.0	2.5	/experiments/AOT/AOT_stimuli/rescaled_final/0285_rv.mp4	0.0	139.97961711883545	
20	119.9580020904541	fix_post	2		12	18.0	2.5	/experiments/AOT/AOT_stimuli/rescaled_final/0285_rv.mp4	0.0	140.09807205200195	0.0997169017791748
21	120.05771899223328	fix_pre	0		120	19.0	2.5	/experiments/AOT/AOT_stimuli/rescaled_final/0216_rv.mp4	0.0	140.19778895378113	0.9996440410614014
21	121.05736303329468	movie	1		245	19.0	2.5	/experiments/AOT/AOT_stimuli/rescaled_final/0216_rv.mp4	0.0	141.19743299484253	2.5002450942993164
21	121.44205212593079	pulse	1	t		19.0	2.5	/experiments/AOT/AOT_stimuli/rescaled_final/0216_rv.mp4	0.0	141.58212208747864	
21	123.04117202758789	pulse	1	t		19.0	2.5	/experiments/AOT/AOT_stimuli/rescaled_final/0216_rv.mp4	0.0	143.18124198913574	
21	123.557608127594	fix_post	2		12	19.0	2.5	/experiments/AOT/AOT_stimuli/rescaled_final/0216_rv.mp4	0.0	143.69767808914185	0.09960603713989258
22	123.65721416473389	fix_pre	0		119	20.0	2.5	blank	1.0	143.79728412628174	0.9921019077301025
22	124.64116716384888	pulse	0	t		20.0	2.5	blank	1.0	144.78123712539673	
22	124.64931607246399	movie	1		301	20.0	2.5	blank	1.0	144.78938603401184	2.5079469680786133
22	126.24117302894592	pulse	1	t		20.0	2.5	blank	1.0	146.38124299049377	
22	127.1572630405426	fix_post	2		12	20.0	2.5	blank	1.0	147.29733300209045	0.10041499137878418
23	127.25767803192139	fix_pre	0		120	21.0	2.5	/experiments/AOT/AOT_stimuli/rescaled_final/0993_rv.mp4	0.0	147.39774799346924	1.0000319480895996
23	127.84118509292603	pulse	0	t		21.0	2.5	/experiments/AOT/AOT_stimuli/rescaled_final/0993_rv.mp4	0.0	147.98125505447388	
23	128.257709980011	movie	1		243	21.0	2.5	/experiments/AOT/AOT_stimuli/rescaled_final/0993_rv.mp4	0.0	148.39777994155884	2.499917984008789
23	129.44127106666565	pulse	1	t		21.0	2.5	/experiments/AOT/AOT_stimuli/rescaled_final/0993_rv.mp4	0.0	149.5813410282135	
23	130.75762796401978	fix_post	2		12	21.0	2.5	/experiments/AOT/AOT_stimuli/rescaled_final/0993_rv.mp4	0.0	150.89769792556763	0.1000521183013916
24	130.85768008232117	fix_pre	0		120	22.0	2.5	/experiments/AOT/AOT_stimuli/rescaled_final/2162_fw.mp4	0.0	150.99775004386902	0.9998378753662109
24	131.04116702079773	pulse	0	t		22.0	2.5	/experiments/AOT/AOT_stimuli/rescaled_final/2162_fw.mp4	0.0	151.18123698234558	
24	131.85751795768738	movie	1		245	22.0	2.5	/experiments/AOT/AOT_stimuli/rescaled_final/2162_fw.mp4	0.0	151.99758791923523	2.4996681213378906
24	132.64118003845215	pulse	1	t		22.0	2.5	/experiments/AOT/AOT_stimuli/rescaled_final/2162_fw.mp4	0.0	152.78125	
24	134.23916816711426	pulse	1	t		22.0	2.5	/experiments/AOT/AOT_stimuli/rescaled_final/2162_fw.mp4	0.0	154.3792381286621	
24	134.35718607902527	fix_post	2		12	22.0	2.5	/experiments/AOT/AOT_stimuli/rescaled_final/2162_fw.mp4	0.0	154.49725604057312	0.10039901733398438
25	134.45758509635925	fix_pre	0		120	23.0	2.5	/experiments/AOT/AOT_stimuli/rescaled_final/0005_fw.mp4	0.0	154.5976550579071	1.0000700950622559
25	135.4576551914215	movie	1		244	23.0	2.5	/experiments/AOT/AOT_stimuli/rescaled_final/0005_fw.mp4	0.0	155.59772515296936	2.4995977878570557
25	135.84055304527283	pulse	1	t		23.0	2.5	/experiments/AOT/AOT_stimuli/rescaled_final/0005_fw.mp4	0.0	155.98062300682068	
25	137.441015958786	pulse	1	t		23.0	2.5	/experiments/AOT/AOT_stimuli/rescaled_final/0005_fw.mp4	0.0	157.58108592033386	
25	137.95725297927856	fix_post	2		12	23.0	2.5	/experiments/AOT/AOT_stimuli/rescaled_final/0005_fw.mp4	0.0	158.09732294082642	0.1003270149230957
26	138.05757999420166	fix_pre	0		119	24.0	2.5	/experiments/AOT/AOT_stimuli/rescaled_final/2077_fw.mp4	0.0	158.1976499557495	0.9917221069335938
26	139.04113006591797	pulse	0	t		24.0	2.5	/experiments/AOT/AOT_stimuli/rescaled_final/2077_fw.mp4	0.0	159.18120002746582	
26	139.04930210113525	movie	1		245	24.0	2.5	/experiments/AOT/AOT_stimuli/rescaled_final/2077_fw.mp4	0.0	159.1893720626831	2.5078530311584473
26	140.64141201972961	pulse	1	t		24.0	2.5	/experiments/AOT/AOT_stimuli/rescaled_final/2077_fw.mp4	0.0	160.78148198127747	
26	141.5571551322937	fix_post	2		12	24.0	2.5	/experiments/AOT/AOT_stimuli/rescaled_final/2077_fw.mp4	0.0	161.69722509384155	0.10047292709350586
27	141.6576280593872	fix_pre	0		120	25.0	2.5	/experiments/AOT/AOT_stimuli/rescaled_final/1826_rv.mp4	0.0	161.79769802093506	0.9998970031738281
27	142.24102210998535	pulse	0	t		25.0	2.5	/experiments/AOT/AOT_stimuli/rescaled_final/1826_rv.mp4	0.0	162.3810920715332	
27	142.65752506256104	movie	1		245	25.0	2.5	/experiments/AOT/AOT_stimuli/rescaled_final/1826_rv.mp4	0.0	162.7975950241089	2.499643087387085
27	143.84113097190857	pulse	1	t		25.0	2.5	/experiments/AOT/AOT_stimuli/rescaled_final/1826_rv.mp4	0.0	163.98120093345642	
27	145.15716814994812	fix_post	2		12	25.0	2.5	/experiments/AOT/AOT_stimuli/rescaled_final/1826_rv.mp4	0.0	165.29723811149597	0.1003568172454834
28	145.2575249671936	fix_pre	0		120	26.0	2.5	/experiments/AOT/AOT_stimuli/rescaled_final/1034_rv.mp4	0.0	165.39759492874146	1.0000882148742676
28	145.44103717803955	pulse	0	t		26.0	2.5	/experiments/AOT/AOT_stimuli/rescaled_final/1034_rv.mp4	0.0	165.5811071395874	
28	146.25761318206787	movie	1		243	26.0	2.5	/experiments/AOT/AOT_stimuli/rescaled_final/1034_rv.mp4	0.0	166.39768314361572	2.4998908042907715
28	147.04106998443604	pulse	1	t		26.0	2.5	/experiments/AOT/AOT_stimuli/rescaled_final/1034_rv.mp4	0.0	167.1811399459839	
28	148.64112210273743	pulse	1	t		26.0	2.5	/experiments/AOT/AOT_stimuli/rescaled_final/1034_rv.mp4	0.0	168.78119206428528	
28	148.75750398635864	fix_post	2		12	26.0	2.5	/experiments/AOT/AOT_stimuli/rescaled_final/1034_rv.mp4	0.0	168.8975739479065	0.10000419616699219
29	148.85750818252563	fix_pre	0		120	27.0	2.5	/experiments/AOT/AOT_stimuli/rescaled_final/1486_fw.mp4	0.0	168.9975781440735	1.0000839233398438
29	149.85759210586548	movie	1		244	27.0	2.5	/experiments/AOT/AOT_stimuli/rescaled_final/1486_fw.mp4	0.0	169.99766206741333	2.4998209476470947
29	150.2408480644226	pulse	1	t		27.0	2.5	/experiments/AOT/AOT_stimuli/rescaled_final/1486_fw.mp4	0.0	170.38091802597046	
29	151.84096813201904	pulse	1	t		27.0	2.5	/experiments/AOT/AOT_stimuli/rescaled_final/1486_fw.mp4	0.0	171.9810380935669	
29	152.35741305351257	fix_post	2		12	27.0	2.5	/experiments/AOT/AOT_stimuli/rescaled_final/1486_fw.mp4	0.0	172.49748301506042	0.10003995895385742
30	152.45745301246643	fix_pre	0		119	28.0	2.5	blank	1.0	172.59752297401428	0.9917070865631104
30	153.44095301628113	pulse	0	t		28.0	2.5	blank	1.0	173.58102297782898	
30	153.44916009902954	movie	1		301	28.0	2.5	blank	1.0	173.5892300605774	2.5083959102630615
30	155.04104900360107	pulse	1	t		28.0	2.5	blank	1.0	175.18111896514893	
30	155.9575560092926	fix_post	2		12	28.0	2.5	blank	1.0	176.09762597084045	0.09982800483703613
31	156.05738401412964	fix_pre	0		120	29.0	2.5	/experiments/AOT/AOT_stimuli/rescaled_final/0759_fw.mp4	0.0	176.1974539756775	1.0000910758972168
31	156.64094805717468	pulse	0	t		29.0	2.5	/experiments/AOT/AOT_stimuli/rescaled_final/0759_fw.mp4	0.0	176.78101801872253	
31	157.05747509002686	movie	1		246	29.0	2.5	/experiments/AOT/AOT_stimuli/rescaled_final/0759_fw.mp4	0.0	177.1975450515747	2.499547004699707
31	158.24094104766846	pulse	1	t		29.0	2.5	/experiments/AOT/AOT_stimuli/rescaled_final/0759_fw.mp4	0.0	178.3810110092163	
31	159.55702209472656	fix_post	2		12	29.0	2.5	/experiments/AOT/AOT_stimuli/rescaled_final/0759_fw.mp4	0.0	179.6970920562744	0.1004328727722168
32	159.65745496749878	fix_pre	0		120	30.0	2.5	/experiments/AOT/AOT_stimuli/rescaled_final/1965_rv.mp4	0.0	179.79752492904663	0.9999620914459229
32	159.84101009368896	pulse	0	t		30.0	2.5	/experiments/AOT/AOT_stimuli/rescaled_final/1965_rv.mp4	0.0	179.98108005523682	
32	160.6574170589447	movie	1		246	30.0	2.5	/experiments/AOT/AOT_stimuli/rescaled_final/1965_rv.mp4	0.0	180.79748702049255	2.499603033065796
32	161.44097208976746	pulse	1	t		30.0	2.5	/experiments/AOT/AOT_stimuli/rescaled_final/1965_rv.mp4	0.0	181.5810420513153	
32	163.03974413871765	pulse	1	t		30.0	2.5	/experiments/AOT/AOT_stimuli/rescaled_final/1965_rv.mp4	0.0	183.1798141002655	
32	163.1570200920105	fix_post	2		12	30.0	2.5	/experiments/AOT/AOT_stimuli/rescaled_final/1965_rv.mp4	0.0	183.29709005355835	0.10041594505310059
33	163.2574360370636	fix_pre	0		120	31.0	2.5	/experiments/AOT/AOT_stimuli/rescaled_final/0418_rv.mp4	0.0	183.39750599861145	1.000082015991211
33	164.2575180530548	movie	1		244	31.0	2.5	/experiments/AOT/AOT_stimuli/rescaled_final/0418_rv.mp4	0.0	184.39758801460266	2.499488115310669
33	164.64092206954956	pulse	1	t		31.0	2.5	/experiments/AOT/AOT_stimuli/rescaled_final/0418_rv.mp4	0.0	184.7809920310974	
33	166.24111914634705	pulse	1	t		31.0	2.5	/experiments/AOT/AOT_stimuli/rescaled_final/0418_rv.mp4	0.0	186.3811891078949	
33	166.75700616836548	fix_post	2		12	31.0	2.5	/experiments/AOT/AOT_stimuli/rescaled_final/0418_rv.mp4	0.0	186.89707612991333	0.10032987594604492
34	166.85733604431152	fix_pre	0		119	32.0	2.5	/experiments/AOT/AOT_stimuli/rescaled_final/1379_rv.mp4	0.0	186.99740600585938	0.9918150901794434
34	167.84091901779175	pulse	0	t		32.0	2.5	/experiments/AOT/AOT_stimuli/rescaled_final/1379_rv.mp4	0.0	187.9809889793396	
34	167.84915113449097	movie	1		247	32.0	2.5	/experiments/AOT/AOT_stimuli/rescaled_final/1379_rv.mp4	0.0	187.98922109603882	2.5081968307495117
34	169.44029712677002	pulse	1	t		32.0	2.5	/experiments/AOT/AOT_stimuli/rescaled_final/1379_rv.mp4	0.0	189.58036708831787	
34	170.35734796524048	fix_post	2		12	32.0	2.5	/experiments/AOT/AOT_stimuli/rescaled_final/1379_rv.mp4	0.0	190.49741792678833	0.1001272201538086
35	170.4574751853943	fix_pre	0		120	33.0	2.5	/experiments/AOT/AOT_stimuli/rescaled_final/1711_fw.mp4	0.0	190.59754514694214	0.9995369911193848
35	171.04091811180115	pulse	0	t		33.0	2.5	/experiments/AOT/AOT_stimuli/rescaled_final/1711_fw.mp4	0.0	191.180988073349	
35	171.45701217651367	movie	1		244	33.0	2.5	/experiments/AOT/AOT_stimuli/rescaled_final/1711_fw.mp4	0.0	191.59708213806152	2.500410795211792
35	172.64094495773315	pulse	1	t		33.0	2.5	/experiments/AOT/AOT_stimuli/rescaled_final/1711_fw.mp4	0.0	192.781014919281	
35	173.95742297172546	fix_post	2		12	33.0	2.5	/experiments/AOT/AOT_stimuli/rescaled_final/1711_fw.mp4	0.0	194.09749293327332	0.09962916374206543
36	174.05705213546753	fix_pre	0		120	34.0	2.5	blank	1.0	194.19712209701538	1.0004689693450928
36	174.24089312553406	pulse	0	t		34.0	2.5	blank	1.0	194.3809630870819	
36	175.05752110481262	movie	1		300	34.0	2.5	blank	1.0	195.19759106636047	2.4998319149017334
36	175.84085416793823	pulse	1	t		34.0	2.5	blank	1.0	195.98092412948608	
36	177.44084095954895	pulse	1	t		34.0	2.5	blank	1.0	197.5809109210968	
36	177.55735301971436	fix_post	2		12	34.0	2.5	blank	1.0	197.6974229812622	0.09995698928833008
37	177.65731000900269	fix_pre	0		120	35.0	2.5	/experiments/AOT/AOT_stimuli/rescaled_final/0005_fw.mp4	0.0	197.79737997055054	1.0001311302185059
37	178.6574411392212	movie	1		243	35.0	2.5	/experiments/AOT/AOT_stimuli/rescaled_final/0005_fw.mp4	0.0	198.79751110076904	2.4999468326568604
37	179.04198598861694	pulse	1	t		35.0	2.5	/experiments/AOT/AOT_stimuli/rescaled_final/0005_fw.mp4	0.0	199.1820559501648	
37	180.6409661769867	pulse	1	t		35.0	2.5	/experiments/AOT/AOT_stimuli/rescaled_final/0005_fw.mp4	0.0	200.78103613853455	
37	181.15738797187805	fix_post	2		12	35.0	2.5	/experiments/AOT/AOT_stimuli/rescaled_final/0005_fw.mp4	0.0	201.2974579334259	0.10003399848937988
38	181.25742197036743	fix_pre	0		119	36.0	2.5	/experiments/AOT/AOT_stimuli/rescaled_final/0368_fw.mp4	0.0	201.39749193191528	0.9915711879730225
38	182.2408151626587	pulse	0	t		36.0	2.5	/experiments/AOT/AOT_stimuli/rescaled_final/0368_fw.mp4	0.0	202.38088512420654	
38	182.24899315834045	movie	1		246	36.0	2.5	/experiments/AOT/AOT_stimuli/rescaled_final/0368_fw.mp4	0.0	202.3890631198883	2.508417844772339
38	183.84043502807617	pulse	1	t		36.0	2.5	/experiments/AOT/AOT_stimuli/rescaled_final/0368_fw.mp4	0.0	203.98050498962402	
38	184.7574110031128	fix_post	2		12	36.0	2.5	/experiments/AOT/AOT_stimuli/rescaled_final/0368_fw.mp4	0.0	204.89748096466064	0.09999704360961914
39	184.8574080467224	fix_pre	0		120	37.0	2.5	/experiments/AOT/AOT_stimuli/rescaled_final/0960_rv.mp4	0.0	204.99747800827026	0.9999289512634277
39	185.44082617759705	pulse	0	t		37.0	2.5	/experiments/AOT/AOT_stimuli/rescaled_final/0960_rv.mp4	0.0	205.5808961391449	
39	185.85733699798584	movie	1		243	37.0	2.5	/experiments/AOT/AOT_stimuli/rescaled_final/0960_rv.mp4	0.0	205.9974069595337	2.500049114227295
39	187.04089307785034	pulse	1	t		37.0	2.5	/experiments/AOT/AOT_stimuli/rescaled_final/0960_rv.mp4	0.0	207.1809630393982	
39	188.35738611221313	fix_post	2		12	37.0	2.5	/experiments/AOT/AOT_stimuli/rescaled_final/0960_rv.mp4	0.0	208.497456073761	0.0999150276184082
40	188.45730113983154	fix_pre	0		120	38.0	2.5	/experiments/AOT/AOT_stimuli/rescaled_final/0563_rv.mp4	0.0	208.5973711013794	1.0001070499420166
40	188.6407790184021	pulse	0	t		38.0	2.5	/experiments/AOT/AOT_stimuli/rescaled_final/0563_rv.mp4	0.0	208.78084897994995	
40	189.45740818977356	movie	1		244	38.0	2.5	/experiments/AOT/AOT_stimuli/rescaled_final/0563_rv.mp4	0.0	209.5974781513214	2.5000388622283936
40	190.24039506912231	pulse	1	t		38.0	2.5	/experiments/AOT/AOT_stimuli/rescaled_final/0563_rv.mp4	0.0	210.38046503067017	
40	191.83900117874146	pulse	1	t		38.0	2.5	/experiments/AOT/AOT_stimuli/rescaled_final/0563_rv.mp4	0.0	211.9790711402893	
40	191.95744705200195	fix_post	2		12	38.0	2.5	/experiments/AOT/AOT_stimuli/rescaled_final/0563_rv.mp4	0.0	212.0975170135498	0.10008001327514648
41	192.0575270652771	fix_pre	0		120	39.0	2.5	/experiments/AOT/AOT_stimuli/rescaled_final/1493_fw.mp4	0.0	212.19759702682495	0.9997689723968506
41	193.05729603767395	movie	1		244	39.0	2.5	/experiments/AOT/AOT_stimuli/rescaled_final/1493_fw.mp4	0.0	213.1973659992218	2.4995839595794678
41	193.44175505638123	pulse	1	t		39.0	2.5	/experiments/AOT/AOT_stimuli/rescaled_final/1493_fw.mp4	0.0	213.58182501792908	
41	195.04074597358704	pulse	1	t		39.0	2.5	/experiments/AOT/AOT_stimuli/rescaled_final/1493_fw.mp4	0.0	215.1808159351349	
41	195.55687999725342	fix_post	2		12	39.0	2.5	/experiments/AOT/AOT_stimuli/rescaled_final/1493_fw.mp4	0.0	215.69694995880127	0.10039496421813965
42	195.65727496147156	fix_pre	0		119	40.0	2.5	/experiments/AOT/AOT_stimuli/rescaled_final/1123_fw.mp4	0.0	215.7973449230194	0.991765022277832
42	196.64093017578125	pulse	0	t		40.0	2.5	/experiments/AOT/AOT_stimuli/rescaled_final/1123_fw.mp4	0.0	216.7810001373291	
42	196.6490399837494	movie	1		246	40.0	2.5	/experiments/AOT/AOT_stimuli/rescaled_final/1123_fw.mp4	0.0	216.78910994529724	2.507791042327881
42	198.24038815498352	pulse	1	t		40.0	2.5	/experiments/AOT/AOT_stimuli/rescaled_final/1123_fw.mp4	0.0	218.38045811653137	
42	199.15683102607727	fix_post	2		12	40.0	2.5	/experiments/AOT/AOT_stimuli/rescaled_final/1123_fw.mp4	0.0	219.29690098762512	0.10047101974487305
43	199.25730204582214	fix_pre	0		120	41.0	2.5	/experiments/AOT/AOT_stimuli/rescaled_final/1799_fw.mp4	0.0	219.39737200737	0.9999470710754395
43	199.8408100605011	pulse	0	t		41.0	2.5	/experiments/AOT/AOT_stimuli/rescaled_final/1799_fw.mp4	0.0	219.98088002204895	
43	200.25724911689758	movie	1		245	41.0	2.5	/experiments/AOT/AOT_stimuli/rescaled_final/1799_fw.mp4	0.0	220.39731907844543	2.499979019165039
43	201.440819978714	pulse	1	t		41.0	2.5	/experiments/AOT/AOT_stimuli/rescaled_final/1799_fw.mp4	0.0	221.58088994026184	
43	202.75722813606262	fix_post	2		12	41.0	2.5	/experiments/AOT/AOT_stimuli/rescaled_final/1799_fw.mp4	0.0	222.89729809761047	0.1000218391418457
44	202.85724997520447	fix_pre	0		120	42.0	2.5	blank	1.0	222.99731993675232	0.9999620914459229
44	203.04073905944824	pulse	0	t		42.0	2.5	blank	1.0	223.1808090209961	
44	203.8572120666504	movie	1		300	42.0	2.5	blank	1.0	223.99728202819824	2.5000181198120117
44	204.64078402519226	pulse	1	t		42.0	2.5	blank	1.0	224.7808539867401	
44	206.2407190799713	pulse	1	t		42.0	2.5	blank	1.0	226.38078904151917	
44	206.3572301864624	fix_post	2		12	42.0	2.5	blank	1.0	226.49730014801025	0.09998297691345215
45	206.45721316337585	fix_pre	0		120	43.0	2.5	/experiments/AOT/AOT_stimuli/rescaled_final/0512_fw.mp4	0.0	226.5972831249237	1.0000369548797607
45	207.45725011825562	movie	1		245	43.0	2.5	/experiments/AOT/AOT_stimuli/rescaled_final/0512_fw.mp4	0.0	227.59732007980347	2.500011920928955
45	207.84055304527283	pulse	1	t		43.0	2.5	/experiments/AOT/AOT_stimuli/rescaled_final/0512_fw.mp4	0.0	227.98062300682068	
45	209.44076418876648	pulse	1	t		43.0	2.5	/experiments/AOT/AOT_stimuli/rescaled_final/0512_fw.mp4	0.0	229.58083415031433	
45	209.95726203918457	fix_post	2		12	43.0	2.5	/experiments/AOT/AOT_stimuli/rescaled_final/0512_fw.mp4	0.0	230.09733200073242	0.09994196891784668
46	210.05720400810242	fix_pre	0		119	44.0	2.5	/experiments/AOT/AOT_stimuli/rescaled_final/1136_fw.mp4	0.0	230.19727396965027	0.991732120513916
46	211.0407359600067	pulse	0	t		44.0	2.5	/experiments/AOT/AOT_stimuli/rescaled_final/1136_fw.mp4	0.0	231.18080592155457	
46	211.04893612861633	movie	1		246	44.0	2.5	/experiments/AOT/AOT_stimuli/rescaled_final/1136_fw.mp4	0.0	231.18900609016418	2.5082859992980957
46	212.64017605781555	pulse	1	t		44.0	2.5	/experiments/AOT/AOT_stimuli/rescaled_final/1136_fw.mp4	0.0	232.7802460193634	
46	213.55722212791443	fix_post	2		12	44.0	2.5	/experiments/AOT/AOT_stimuli/rescaled_final/1136_fw.mp4	0.0	233.69729208946228	0.10001802444458008
47	213.657240152359	fix_pre	0		120	45.0	2.5	/experiments/AOT/AOT_stimuli/rescaled_final/1671_fw.mp4	0.0	233.79731011390686	0.999647855758667
47	214.24066495895386	pulse	0	t		45.0	2.5	/experiments/AOT/AOT_stimuli/rescaled_final/1671_fw.mp4	0.0	234.3807349205017	
47	214.65688800811768	movie	1		243	45.0	2.5	/experiments/AOT/AOT_stimuli/rescaled_final/1671_fw.mp4	0.0	234.79695796966553	2.499843120574951
47	215.84074997901917	pulse	1	t		45.0	2.5	/experiments/AOT/AOT_stimuli/rescaled_final/1671_fw.mp4	0.0	235.98081994056702	
47	217.15673112869263	fix_post	2		12	45.0	2.5	/experiments/AOT/AOT_stimuli/rescaled_final/1671_fw.mp4	0.0	237.29680109024048	0.10051989555358887
48	217.25725102424622	fix_pre	0		120	46.0	2.5	/experiments/AOT/AOT_stimuli/rescaled_final/0127_rv.mp4	0.0	237.39732098579407	0.999521017074585
48	217.44069719314575	pulse	0	t		46.0	2.5	/experiments/AOT/AOT_stimuli/rescaled_final/0127_rv.mp4	0.0	237.5807671546936	
48	218.2567720413208	movie	1		243	46.0	2.5	/experiments/AOT/AOT_stimuli/rescaled_final/0127_rv.mp4	0.0	238.39684200286865	2.5000040531158447
48	219.04061913490295	pulse	1	t		46.0	2.5	/experiments/AOT/AOT_stimuli/rescaled_final/0127_rv.mp4	0.0	239.1806890964508	
48	220.6387779712677	pulse	1	t		46.0	2.5	/experiments/AOT/AOT_stimuli/rescaled_final/0127_rv.mp4	0.0	240.77884793281555	
48	220.75677609443665	fix_post	2		12	46.0	2.5	/experiments/AOT/AOT_stimuli/rescaled_final/0127_rv.mp4	0.0	240.8968460559845	0.10040092468261719
49	220.85717701911926	fix_pre	0		120	47.0	2.5	/experiments/AOT/AOT_stimuli/rescaled_final/1794_rv.mp4	0.0	240.99724698066711	1.000054121017456
49	221.85723114013672	movie	1		248	47.0	2.5	/experiments/AOT/AOT_stimuli/rescaled_final/1794_rv.mp4	0.0	241.99730110168457	2.499501943588257
49	222.24180603027344	pulse	1	t		47.0	2.5	/experiments/AOT/AOT_stimuli/rescaled_final/1794_rv.mp4	0.0	242.3818759918213	
49	223.8406319618225	pulse	1	t		47.0	2.5	/experiments/AOT/AOT_stimuli/rescaled_final/1794_rv.mp4	0.0	243.98070192337036	
49	224.35673308372498	fix_post	2		12	47.0	2.5	/experiments/AOT/AOT_stimuli/rescaled_final/1794_rv.mp4	0.0	244.49680304527283	0.10042500495910645
50	224.45715808868408	fix_pre	0		119	48.0	2.5	blank	1.0	244.59722805023193	0.9916529655456543
50	225.44073009490967	pulse	0	t		48.0	2.5	blank	1.0	245.58080005645752	
50	225.44881105422974	movie	1		301	48.0	2.5	blank	1.0	245.5888810157776	2.5083460807800293
50	227.04063415527344	pulse	1	t		48.0	2.5	blank	1.0	247.1807041168213	
50	227.95715713500977	fix_post	2		12	48.0	2.5	blank	1.0	248.09722709655762	0.1000070571899414
51	228.0571641921997	fix_pre	0		120	49.0	2.5	/experiments/AOT/AOT_stimuli/rescaled_final/0177_rv.mp4	0.0	248.19723415374756	0.999985933303833
51	228.6405701637268	pulse	0	t		49.0	2.5	/experiments/AOT/AOT_stimuli/rescaled_final/0177_rv.mp4	0.0	248.78064012527466	
51	229.05715012550354	movie	1		244	49.0	2.5	/experiments/AOT/AOT_stimuli/rescaled_final/0177_rv.mp4	0.0	249.1972200870514	2.5000529289245605
51	230.24067997932434	pulse	1	t		49.0	2.5	/experiments/AOT/AOT_stimuli/rescaled_final/0177_rv.mp4	0.0	250.3807499408722	
51	231.5572030544281	fix_post	2		12	49.0	2.5	/experiments/AOT/AOT_stimuli/rescaled_final/0177_rv.mp4	0.0	251.69727301597595	0.09991908073425293
52	231.65712213516235	fix_pre	0		120	50.0	2.5	/experiments/AOT/AOT_stimuli/rescaled_final/1107_fw.mp4	0.0	251.7971920967102	0.9999809265136719
52	231.84067296981812	pulse	0	t		50.0	2.5	/experiments/AOT/AOT_stimuli/rescaled_final/1107_fw.mp4	0.0	251.98074293136597	
52	232.65710306167603	movie	1		243	50.0	2.5	/experiments/AOT/AOT_stimuli/rescaled_final/1107_fw.mp4	0.0	252.79717302322388	2.5001370906829834
52	233.4406349658966	pulse	1	t		50.0	2.5	/experiments/AOT/AOT_stimuli/rescaled_final/1107_fw.mp4	0.0	253.58070492744446	
52	235.03887796401978	pulse	1	t		50.0	2.5	/experiments/AOT/AOT_stimuli/rescaled_final/1107_fw.mp4	0.0	255.17894792556763	
52	235.157240152359	fix_post	2		12	50.0	2.5	/experiments/AOT/AOT_stimuli/rescaled_final/1107_fw.mp4	0.0	255.29731011390686	0.09991288185119629
53	235.2571530342102	fix_pre	0		120	51.0	2.5	/experiments/AOT/AOT_stimuli/rescaled_final/2058_fw.mp4	0.0	255.39722299575806	0.9999890327453613
53	236.25714206695557	movie	1		243	51.0	2.5	/experiments/AOT/AOT_stimuli/rescaled_final/2058_fw.mp4	0.0	256.3972120285034	2.4999020099639893
53	236.64169096946716	pulse	1	t		51.0	2.5	/experiments/AOT/AOT_stimuli/rescaled_final/2058_fw.mp4	0.0	256.781760931015	
53	238.24061799049377	pulse	1	t		51.0	2.5	/experiments/AOT/AOT_stimuli/rescaled_final/2058_fw.mp4	0.0	258.3806879520416	
53	238.75704407691956	fix_post	2		12	51.0	2.5	/experiments/AOT/AOT_stimuli/rescaled_final/2058_fw.mp4	0.0	258.8971140384674	0.1001119613647461
54	238.8571560382843	fix_pre	0		119	52.0	2.5	/experiments/AOT/AOT_stimuli/rescaled_final/0744_fw.mp4	0.0	258.99722599983215	0.9916200637817383
54	239.8406331539154	pulse	0	t		52.0	2.5	/experiments/AOT/AOT_stimuli/rescaled_final/0744_fw.mp4	0.0	259.98070311546326	
54	239.84877610206604	movie	1		244	52.0	2.5	/experiments/AOT/AOT_stimuli/rescaled_final/0744_fw.mp4	0.0	259.9888460636139	2.5078930854797363
54	241.44004917144775	pulse	1	t		52.0	2.5	/experiments/AOT/AOT_stimuli/rescaled_final/0744_fw.mp4	0.0	261.5801191329956	
54	242.35666918754578	fix_post	2		12	52.0	2.5	/experiments/AOT/AOT_stimuli/rescaled_final/0744_fw.mp4	0.0	262.4967391490936	0.10036897659301758
55	242.4570381641388	fix_pre	0		120	53.0	2.5	/experiments/AOT/AOT_stimuli/rescaled_final/1107_rv.mp4	0.0	262.59710812568665	0.9999749660491943
55	243.0405900478363	pulse	0	t		53.0	2.5	/experiments/AOT/AOT_stimuli/rescaled_final/1107_rv.mp4	0.0	263.18066000938416	
55	243.457013130188	movie	1		243	53.0	2.5	/experiments/AOT/AOT_stimuli/rescaled_final/1107_rv.mp4	0.0	263.59708309173584	2.4998269081115723
55	244.64079809188843	pulse	1	t		53.0	2.5	/experiments/AOT/AOT_stimuli/rescaled_final/1107_rv.mp4	0.0	264.7808680534363	
55	245.95684003829956	fix_post	2		12	53.0	2.5	/experiments/AOT/AOT_stimuli/rescaled_final/1107_rv.mp4	0.0	266.0969099998474	0.09979915618896484
56	246.05663919448853	fix_pre	0		120	54.0	2.5	/experiments/AOT/AOT_stimuli/rescaled_final/1672_rv.mp4	0.0	266.1967091560364	1.000119924545288
56	246.2401511669159	pulse	0	t		54.0	2.5	/experiments/AOT/AOT_stimuli/rescaled_final/1672_rv.mp4	0.0	266.38022112846375	
56	247.0567591190338	movie	1		244	54.0	2.5	/experiments/AOT/AOT_stimuli/rescaled_final/1672_rv.mp4	0.0	267.19682908058167	2.5003249645233154
56	247.84071707725525	pulse	1	t		54.0	2.5	/experiments/AOT/AOT_stimuli/rescaled_final/1672_rv.mp4	0.0	267.9807870388031	
56	249.43899202346802	pulse	1	t		54.0	2.5	/experiments/AOT/AOT_stimuli/rescaled_final/1672_rv.mp4	0.0	269.57906198501587	
56	249.55708408355713	fix_post	2		12	54.0	2.5	/experiments/AOT/AOT_stimuli/rescaled_final/1672_rv.mp4	0.0	269.697154045105	0.10001587867736816
57	249.6570999622345	fix_pre	0		120	55.0	2.5	blank	1.0	269.79716992378235	0.999967098236084
57	250.65706706047058	movie	1		300	55.0	2.5	blank	1.0	270.79713702201843	2.4999921321868896
57	251.04054403305054	pulse	1	t		55.0	2.5	blank	1.0	271.1806139945984	
57	252.64048099517822	pulse	1	t		55.0	2.5	blank	1.0	272.7805509567261	
57	253.15705919265747	fix_post	2		12	55.0	2.5	blank	1.0	273.2971291542053	0.09998679161071777
58	253.2570459842682	fix_pre	0		119	56.0	2.5	/experiments/AOT/AOT_stimuli/rescaled_final/1898_rv.mp4	0.0	273.39711594581604	0.9915971755981445
58	254.2406210899353	pulse	0	t		56.0	2.5	/experiments/AOT/AOT_stimuli/rescaled_final/1898_rv.mp4	0.0	274.38069105148315	
58	254.24864315986633	movie	1		247	56.0	2.5	/experiments/AOT/AOT_stimuli/rescaled_final/1898_rv.mp4	0.0	274.3887131214142	2.508283853530884
58	255.84050011634827	pulse	1	t		56.0	2.5	/experiments/AOT/AOT_stimuli/rescaled_final/1898_rv.mp4	0.0	275.9805700778961	
58	256.7569270133972	fix_post	2		12	56.0	2.5	/experiments/AOT/AOT_stimuli/rescaled_final/1898_rv.mp4	0.0	276.89699697494507	0.10007810592651367
59	256.85700511932373	fix_pre	0		120	57.0	2.5	/experiments/AOT/AOT_stimuli/rescaled_final/0485_fw.mp4	0.0	276.9970750808716	0.9999799728393555
59	257.4404571056366	pulse	0	t		57.0	2.5	/experiments/AOT/AOT_stimuli/rescaled_final/0485_fw.mp4	0.0	277.58052706718445	
59	257.8569850921631	movie	1		244	57.0	2.5	/experiments/AOT/AOT_stimuli/rescaled_final/0485_fw.mp4	0.0	277.99705505371094	2.499584913253784
59	259.04057097435	pulse	1	t		57.0	2.5	/experiments/AOT/AOT_stimuli/rescaled_final/0485_fw.mp4	0.0	279.1806409358978	
59	260.35657000541687	fix_post	2		12	57.0	2.5	/experiments/AOT/AOT_stimuli/rescaled_final/0485_fw.mp4	0.0	280.4966399669647	0.10038304328918457
60	260.45695304870605	fix_pre	0		120	58.0	2.5	/experiments/AOT/AOT_stimuli/rescaled_final/0563_fw.mp4	0.0	280.5970230102539	1.0000760555267334
60	260.64050912857056	pulse	0	t		58.0	2.5	/experiments/AOT/AOT_stimuli/rescaled_final/0563_fw.mp4	0.0	280.7805790901184	
60	261.4570291042328	movie	1		244	58.0	2.5	/experiments/AOT/AOT_stimuli/rescaled_final/0563_fw.mp4	0.0	281.59709906578064	2.4998860359191895
60	262.24044609069824	pulse	1	t		58.0	2.5	/experiments/AOT/AOT_stimuli/rescaled_final/0563_fw.mp4	0.0	282.3805160522461	
60	263.83941411972046	pulse	1	t		58.0	2.5	/experiments/AOT/AOT_stimuli/rescaled_final/0563_fw.mp4	0.0	283.9794840812683	
60	263.956915140152	fix_post	2		12	58.0	2.5	/experiments/AOT/AOT_stimuli/rescaled_final/0563_fw.mp4	0.0	284.09698510169983	0.10011696815490723
61	264.0570321083069	fix_pre	0		120	59.0	2.5	/experiments/AOT/AOT_stimuli/rescaled_final/1550_rv.mp4	0.0	284.19710206985474	0.9999520778656006
61	265.0569841861725	movie	1		247	59.0	2.5	/experiments/AOT/AOT_stimuli/rescaled_final/1550_rv.mp4	0.0	285.19705414772034	2.4995408058166504
61	265.4404571056366	pulse	1	t		59.0	2.5	/experiments/AOT/AOT_stimuli/rescaled_final/1550_rv.mp4	0.0	285.58052706718445	
61	267.0404210090637	pulse	1	t		59.0	2.5	/experiments/AOT/AOT_stimuli/rescaled_final/1550_rv.mp4	0.0	287.1804909706116	
61	267.55652499198914	fix_post	2		12	59.0	2.5	/experiments/AOT/AOT_stimuli/rescaled_final/1550_rv.mp4	0.0	287.696594953537	0.10037612915039062
62	267.6569011211395	fix_pre	0		119	60.0	2.5	/experiments/AOT/AOT_stimuli/rescaled_final/0587_fw.mp4	0.0	287.7969710826874	0.991692066192627
62	268.6404130458832	pulse	0	t		60.0	2.5	/experiments/AOT/AOT_stimuli/rescaled_final/0587_fw.mp4	0.0	288.78048300743103	
62	268.64859318733215	movie	1		247	60.0	2.5	/experiments/AOT/AOT_stimuli/rescaled_final/0587_fw.mp4	0.0	288.78866314888	2.5084128379821777
62	270.24009919166565	pulse	1	t		60.0	2.5	/experiments/AOT/AOT_stimuli/rescaled_final/0587_fw.mp4	0.0	290.3801691532135	
62	271.15700602531433	fix_post	2		12	60.0	2.5	/experiments/AOT/AOT_stimuli/rescaled_final/0587_fw.mp4	0.0	291.2970759868622	0.099945068359375
63	271.2569510936737	fix_pre	0		120	61.0	2.5	blank	1.0	291.39702105522156	0.9999630451202393
63	271.840341091156	pulse	0	t		61.0	2.5	blank	1.0	291.98041105270386	
63	272.25691413879395	movie	1		300	61.0	2.5	blank	1.0	292.3969841003418	2.5000040531158447
63	273.44046807289124	pulse	1	t		61.0	2.5	blank	1.0	293.5805380344391	
63	274.7569181919098	fix_post	2		12	61.0	2.5	blank	1.0	294.89698815345764	0.10003399848937988
64	274.85695219039917	fix_pre	0		120	62.0	2.5	/experiments/AOT/AOT_stimuli/rescaled_final/1557_fw.mp4	0.0	294.997022151947	0.9995529651641846
64	275.04037618637085	pulse	0	t		62.0	2.5	/experiments/AOT/AOT_stimuli/rescaled_final/1557_fw.mp4	0.0	295.1804461479187	
64	275.85650515556335	movie	1		243	62.0	2.5	/experiments/AOT/AOT_stimuli/rescaled_final/1557_fw.mp4	0.0	295.9965751171112	2.5003819465637207
64	276.6403591632843	pulse	1	t		62.0	2.5	/experiments/AOT/AOT_stimuli/rescaled_final/1557_fw.mp4	0.0	296.78042912483215	
64	278.23881101608276	pulse	1	t		62.0	2.5	/experiments/AOT/AOT_stimuli/rescaled_final/1557_fw.mp4	0.0	298.3788809776306	
64	278.3568871021271	fix_post	2		12	62.0	2.5	/experiments/AOT/AOT_stimuli/rescaled_final/1557_fw.mp4	0.0	298.4969570636749	0.09998488426208496
65	278.45687198638916	fix_pre	0		120	63.0	2.5	/experiments/AOT/AOT_stimuli/rescaled_final/0321_rv.mp4	0.0	298.596941947937	0.9999940395355225
65	279.4568660259247	movie	1		243	63.0	2.5	/experiments/AOT/AOT_stimuli/rescaled_final/0321_rv.mp4	0.0	299.59693598747253	2.5001020431518555
65	279.84045219421387	pulse	1	t		63.0	2.5	/experiments/AOT/AOT_stimuli/rescaled_final/0321_rv.mp4	0.0	299.9805221557617	
65	281.44039702415466	pulse	1	t		63.0	2.5	/experiments/AOT/AOT_stimuli/rescaled_final/0321_rv.mp4	0.0	301.5804669857025	
65	281.95696806907654	fix_post	2		12	63.0	2.5	/experiments/AOT/AOT_stimuli/rescaled_final/0321_rv.mp4	0.0	302.0970380306244	0.09997701644897461
66	282.0569450855255	fix_pre	0		119	64.0	2.5	/experiments/AOT/AOT_stimuli/rescaled_final/0539_rv.mp4	0.0	302.19701504707336	0.9916019439697266
66	283.04034209251404	pulse	0	t		64.0	2.5	/experiments/AOT/AOT_stimuli/rescaled_final/0539_rv.mp4	0.0	303.1804120540619	
66	283.04854702949524	movie	1		245	64.0	2.5	/experiments/AOT/AOT_stimuli/rescaled_final/0539_rv.mp4	0.0	303.1886169910431	2.5083060264587402
66	284.64018201828003	pulse	1	t		64.0	2.5	/experiments/AOT/AOT_stimuli/rescaled_final/0539_rv.mp4	0.0	304.7802519798279	
66	285.556853055954	fix_post	2		12	64.0	2.5	/experiments/AOT/AOT_stimuli/rescaled_final/0539_rv.mp4	0.0	305.69692301750183	0.10005593299865723
67	285.65690898895264	fix_pre	0		120	65.0	2.5	/experiments/AOT/AOT_stimuli/rescaled_final/1266_rv.mp4	0.0	305.7969789505005	0.9999711513519287
67	286.240375995636	pulse	0	t		65.0	2.5	/experiments/AOT/AOT_stimuli/rescaled_final/1266_rv.mp4	0.0	306.38044595718384	
67	286.65688014030457	movie	1		247	65.0	2.5	/experiments/AOT/AOT_stimuli/rescaled_final/1266_rv.mp4	0.0	306.7969501018524	2.4999890327453613
67	287.8404190540314	pulse	1	t		65.0	2.5	/experiments/AOT/AOT_stimuli/rescaled_final/1266_rv.mp4	0.0	307.9804890155792	
67	289.1568691730499	fix_post	2		12	65.0	2.5	/experiments/AOT/AOT_stimuli/rescaled_final/1266_rv.mp4	0.0	309.2969391345978	0.10005879402160645
68	289.25692796707153	fix_pre	0		120	66.0	2.5	/experiments/AOT/AOT_stimuli/rescaled_final/0683_rv.mp4	0.0	309.3969979286194	0.9995160102844238
68	289.4403281211853	pulse	0	t		66.0	2.5	/experiments/AOT/AOT_stimuli/rescaled_final/0683_rv.mp4	0.0	309.58039808273315	
68	290.25644397735596	movie	1		243	66.0	2.5	/experiments/AOT/AOT_stimuli/rescaled_final/0683_rv.mp4	0.0	310.3965139389038	2.5004160404205322
68	291.04036808013916	pulse	1	t		66.0	2.5	/experiments/AOT/AOT_stimuli/rescaled_final/0683_rv.mp4	0.0	311.180438041687	
68	292.6384530067444	pulse	1	t		66.0	2.5	/experiments/AOT/AOT_stimuli/rescaled_final/0683_rv.mp4	0.0	312.77852296829224	
68	292.7568600177765	fix_post	2		12	66.0	2.5	/experiments/AOT/AOT_stimuli/rescaled_final/0683_rv.mp4	0.0	312.89692997932434	0.09999394416809082
69	292.8568539619446	fix_pre	0		120	67.0	2.5	/experiments/AOT/AOT_stimuli/rescaled_final/1379_fw.mp4	0.0	312.99692392349243	0.9996960163116455
69	293.8565499782562	movie	1		244	67.0	2.5	/experiments/AOT/AOT_stimuli/rescaled_final/1379_fw.mp4	0.0	313.9966199398041	2.5002431869506836
69	294.2399911880493	pulse	1	t		67.0	2.5	/experiments/AOT/AOT_stimuli/rescaled_final/1379_fw.mp4	0.0	314.38006114959717	
69	295.8403329849243	pulse	1	t		67.0	2.5	/experiments/AOT/AOT_stimuli/rescaled_final/1379_fw.mp4	0.0	315.98040294647217	
69	296.3567931652069	fix_post	2		12	67.0	2.5	/experiments/AOT/AOT_stimuli/rescaled_final/1379_fw.mp4	0.0	316.49686312675476	0.1000828742980957
70	296.456876039505	fix_pre	0		119	68.0	2.5	/experiments/AOT/AOT_stimuli/rescaled_final/0255_rv.mp4	0.0	316.59694600105286	0.9915521144866943
70	297.4403021335602	pulse	0	t		68.0	2.5	/experiments/AOT/AOT_stimuli/rescaled_final/0255_rv.mp4	0.0	317.58037209510803	
70	297.4484281539917	movie	1		244	68.0	2.5	/experiments/AOT/AOT_stimuli/rescaled_final/0255_rv.mp4	0.0	317.58849811553955	2.5084309577941895
70	299.0401921272278	pulse	1	t		68.0	2.5	/experiments/AOT/AOT_stimuli/rescaled_final/0255_rv.mp4	0.0	319.18026208877563	
70	299.9568591117859	fix_post	2		12	68.0	2.5	/experiments/AOT/AOT_stimuli/rescaled_final/0255_rv.mp4	0.0	320.09692907333374	0.09999704360961914
71	300.0568561553955	fix_pre	0		120	69.0	2.5	blank	1.0	320.19692611694336	0.9999639987945557
71	300.6403250694275	pulse	0	t		69.0	2.5	blank	1.0	320.78039503097534	
71	301.05682015419006	movie	1		300	69.0	2.5	blank	1.0	321.1968901157379	2.5001659393310547
71	302.2399260997772	pulse	1	t		69.0	2.5	blank	1.0	322.3799960613251	
71	303.5569860935211	fix_post	2		12	69.0	2.5	blank	1.0	323.69705605506897	0.09952187538146973
72	303.6565079689026	fix_pre	0		120	70.0	2.5	/experiments/AOT/AOT_stimuli/rescaled_final/0179_rv.mp4	0.0	323.79657793045044	1.0001890659332275
72	303.84006810188293	pulse	0	t		70.0	2.5	/experiments/AOT/AOT_stimuli/rescaled_final/0179_rv.mp4	0.0	323.9801380634308	
72	304.6566970348358	movie	1		243	70.0	2.5	/experiments/AOT/AOT_stimuli/rescaled_final/0179_rv.mp4	0.0	324.79676699638367	2.5000839233398438
72	305.4403131008148	pulse	1	t		70.0	2.5	/experiments/AOT/AOT_stimuli/rescaled_final/0179_rv.mp4	0.0	325.58038306236267	
72	307.0390090942383	pulse	1	t		70.0	2.5	/experiments/AOT/AOT_stimuli/rescaled_final/0179_rv.mp4	0.0	327.17907905578613	
72	307.15678095817566	fix_post	2		12	70.0	2.5	/experiments/AOT/AOT_stimuli/rescaled_final/0179_rv.mp4	0.0	327.2968509197235	0.10000801086425781
73	307.2567889690399	fix_pre	0		120	71.0	2.5	/experiments/AOT/AOT_stimuli/rescaled_final/0938_fw.mp4	0.0	327.39685893058777	0.9999861717224121
73	308.25677514076233	movie	1		245	71.0	2.5	/experiments/AOT/AOT_stimuli/rescaled_final/0938_fw.mp4	0.0	328.3968451023102	2.499980926513672
73	308.6415991783142	pulse	1	t		71.0	2.5	/experiments/AOT/AOT_stimuli/rescaled_final/0938_fw.mp4	0.0	328.78166913986206	
73	310.240149974823	pulse	1	t		71.0	2.5	/experiments/AOT/AOT_stimuli/rescaled_final/0938_fw.mp4	0.0	330.38021993637085	
73	310.756756067276	fix_post	2		12	71.0	2.5	/experiments/AOT/AOT_stimuli/rescaled_final/0938_fw.mp4	0.0	330.89682602882385	0.09993505477905273
74	310.85669112205505	fix_pre	0		119	72.0	2.5	/experiments/AOT/AOT_stimuli/rescaled_final/0284_fw.mp4	0.0	330.9967610836029	0.9916870594024658
74	311.8402681350708	pulse	0	t		72.0	2.5	/experiments/AOT/AOT_stimuli/rescaled_final/0284_fw.mp4	0.0	331.98033809661865	
74	311.8483781814575	movie	1		246	72.0	2.5	/experiments/AOT/AOT_stimuli/rescaled_final/0284_fw.mp4	0.0	331.98844814300537	2.5083069801330566
74	313.43993401527405	pulse	1	t		72.0	2.5	/experiments/AOT/AOT_stimuli/rescaled_final/0284_fw.mp4	0.0	333.5800039768219	
74	314.3566851615906	fix_post	2		12	72.0	2.5	/experiments/AOT/AOT_stimuli/rescaled_final/0284_fw.mp4	0.0	334.4967551231384	0.09962201118469238
75	314.45630717277527	fix_pre	0		120	73.0	2.5	/experiments/AOT/AOT_stimuli/rescaled_final/0216_fw.mp4	0.0	334.5963771343231	1.0003929138183594
75	315.0402021408081	pulse	0	t		73.0	2.5	/experiments/AOT/AOT_stimuli/rescaled_final/0216_fw.mp4	0.0	335.18027210235596	
75	315.4567000865936	movie	1		245	73.0	2.5	/experiments/AOT/AOT_stimuli/rescaled_final/0216_fw.mp4	0.0	335.5967700481415	2.4995980262756348
75	316.6403160095215	pulse	1	t		73.0	2.5	/experiments/AOT/AOT_stimuli/rescaled_final/0216_fw.mp4	0.0	336.78038597106934	
75	317.95629811286926	fix_post	2		12	73.0	2.5	/experiments/AOT/AOT_stimuli/rescaled_final/0216_fw.mp4	0.0	338.0963680744171	0.10038995742797852
76	318.05668807029724	fix_pre	0		120	74.0	2.5	/experiments/AOT/AOT_stimuli/rescaled_final/1800_rv.mp4	0.0	338.1967580318451	1.0001170635223389
76	318.24013018608093	pulse	0	t		74.0	2.5	/experiments/AOT/AOT_stimuli/rescaled_final/1800_rv.mp4	0.0	338.3802001476288	
76	319.0568051338196	movie	1		243	74.0	2.5	/experiments/AOT/AOT_stimuli/rescaled_final/1800_rv.mp4	0.0	339.19687509536743	2.4998178482055664
76	319.8401880264282	pulse	1	t		74.0	2.5	/experiments/AOT/AOT_stimuli/rescaled_final/1800_rv.mp4	0.0	339.9802579879761	
76	321.43849301338196	pulse	1	t		74.0	2.5	/experiments/AOT/AOT_stimuli/rescaled_final/1800_rv.mp4	0.0	341.5785629749298	
76	321.55662298202515	fix_post	2		12	74.0	2.5	/experiments/AOT/AOT_stimuli/rescaled_final/1800_rv.mp4	0.0	341.696692943573	0.09965205192565918
77	321.6562750339508	fix_pre	0		120	75.0	2.5	blank	1.0	341.79634499549866	1.0000250339508057
77	322.6563000679016	movie	1		300	75.0	2.5	blank	1.0	342.79637002944946	2.500359058380127
77	323.04016304016113	pulse	1	t		75.0	2.5	blank	1.0	343.180233001709	
77	324.6402180194855	pulse	1	t		75.0	2.5	blank	1.0	344.7802879810333	
77	325.15665912628174	fix_post	2		12	75.0	2.5	blank	1.0	345.2967290878296	0.10008597373962402
78	325.25674510002136	fix_pre	0		119	76.0	2.5	/experiments/AOT/AOT_stimuli/rescaled_final/0539_fw.mp4	0.0	345.3968150615692	0.9916009902954102
78	326.2402400970459	pulse	0	t		76.0	2.5	/experiments/AOT/AOT_stimuli/rescaled_final/0539_fw.mp4	0.0	346.38031005859375	
78	326.2483460903168	movie	1		245	76.0	2.5	/experiments/AOT/AOT_stimuli/rescaled_final/0539_fw.mp4	0.0	346.3884160518646	2.5078630447387695
78	327.83994913101196	pulse	1	t		76.0	2.5	/experiments/AOT/AOT_stimuli/rescaled_final/0539_fw.mp4	0.0	347.9800190925598	
78	328.75620913505554	fix_post	2		12	76.0	2.5	/experiments/AOT/AOT_stimuli/rescaled_final/0539_fw.mp4	0.0	348.8962790966034	0.10006189346313477
79	328.8562710285187	fix_pre	0		120	77.0	2.5	/experiments/AOT/AOT_stimuli/rescaled_final/1077_fw.mp4	0.0	348.9963409900665	1.0003759860992432
79	329.4402050971985	pulse	0	t		77.0	2.5	/experiments/AOT/AOT_stimuli/rescaled_final/1077_fw.mp4	0.0	349.58027505874634	
79	329.8566470146179	movie	1		244	77.0	2.5	/experiments/AOT/AOT_stimuli/rescaled_final/1077_fw.mp4	0.0	349.99671697616577	2.4995970726013184
79	331.0403230190277	pulse	1	t		77.0	2.5	/experiments/AOT/AOT_stimuli/rescaled_final/1077_fw.mp4	0.0	351.18039298057556	
79	332.35624408721924	fix_post	2		12	77.0	2.5	/experiments/AOT/AOT_stimuli/rescaled_final/1077_fw.mp4	0.0	352.4963140487671	0.10038089752197266
80	332.4566249847412	fix_pre	0		120	78.0	2.5	/experiments/AOT/AOT_stimuli/rescaled_final/0671_rv.mp4	0.0	352.59669494628906	0.999993085861206
80	332.64022397994995	pulse	0	t		78.0	2.5	/experiments/AOT/AOT_stimuli/rescaled_final/0671_rv.mp4	0.0	352.7802939414978	
80	333.4566180706024	movie	1		245	78.0	2.5	/experiments/AOT/AOT_stimuli/rescaled_final/0671_rv.mp4	0.0	353.59668803215027	2.4996840953826904
80	334.24014616012573	pulse	1	t		78.0	2.5	/experiments/AOT/AOT_stimuli/rescaled_final/0671_rv.mp4	0.0	354.3802161216736	
80	335.83865213394165	pulse	1	t		78.0	2.5	/experiments/AOT/AOT_stimuli/rescaled_final/0671_rv.mp4	0.0	355.9787220954895	
80	335.9563021659851	fix_post	2		12	78.0	2.5	/experiments/AOT/AOT_stimuli/rescaled_final/0671_rv.mp4	0.0	356.09637212753296	0.10045790672302246
81	336.05676007270813	fix_pre	0		120	79.0	2.5	/experiments/AOT/AOT_stimuli/rescaled_final/1462_fw.mp4	0.0	356.196830034256	0.9999020099639893
81	337.0566620826721	movie	1		249	79.0	2.5	/experiments/AOT/AOT_stimuli/rescaled_final/1462_fw.mp4	0.0	357.19673204421997	2.4999029636383057
81	337.44025206565857	pulse	1	t		79.0	2.5	/experiments/AOT/AOT_stimuli/rescaled_final/1462_fw.mp4	0.0	357.5803220272064	
81	339.0401141643524	pulse	1	t		79.0	2.5	/experiments/AOT/AOT_stimuli/rescaled_final/1462_fw.mp4	0.0	359.18018412590027	
81	339.5565650463104	fix_post	2		12	79.0	2.5	/experiments/AOT/AOT_stimuli/rescaled_final/1462_fw.mp4	0.0	359.6966350078583	0.1000981330871582
82	339.6566631793976	fix_pre	0		119	80.0	2.5	/experiments/AOT/AOT_stimuli/rescaled_final/1671_rv.mp4	0.0	359.79673314094543	0.9916598796844482
82	340.6401171684265	pulse	0	t		80.0	2.5	/experiments/AOT/AOT_stimuli/rescaled_final/1671_rv.mp4	0.0	360.78018712997437	
82	340.64832305908203	movie	1		246	80.0	2.5	/experiments/AOT/AOT_stimuli/rescaled_final/1671_rv.mp4	0.0	360.7883930206299	2.5078909397125244
82	342.23967599868774	pulse	1	t		80.0	2.5	/experiments/AOT/AOT_stimuli/rescaled_final/1671_rv.mp4	0.0	362.3797459602356	
82	343.15621399879456	fix_post	2		12	80.0	2.5	/experiments/AOT/AOT_stimuli/rescaled_final/1671_rv.mp4	0.0	363.2962839603424	0.10045003890991211
83	343.25666403770447	fix_pre	0		120	81.0	2.5	/experiments/AOT/AOT_stimuli/rescaled_final/1896_rv.mp4	0.0	363.3967339992523	0.9999880790710449
83	343.840126991272	pulse	0	t		81.0	2.5	/experiments/AOT/AOT_stimuli/rescaled_final/1896_rv.mp4	0.0	363.9801969528198	
83	344.2566521167755	movie	1		244	81.0	2.5	/experiments/AOT/AOT_stimuli/rescaled_final/1896_rv.mp4	0.0	364.39672207832336	2.4995179176330566
83	345.4402539730072	pulse	1	t		81.0	2.5	/experiments/AOT/AOT_stimuli/rescaled_final/1896_rv.mp4	0.0	365.58032393455505	
83	346.75617003440857	fix_post	2		12	81.0	2.5	/experiments/AOT/AOT_stimuli/rescaled_final/1896_rv.mp4	0.0	366.8962399959564	0.10044193267822266
84	346.8566119670868	fix_pre	0		120	82.0	2.5	/experiments/AOT/AOT_stimuli/rescaled_final/0036_rv.mp4	0.0	366.99668192863464	1.0001070499420166
84	347.040158033371	pulse	0	t		82.0	2.5	/experiments/AOT/AOT_stimuli/rescaled_final/0036_rv.mp4	0.0	367.1802279949188	
84	347.8567190170288	movie	1		244	82.0	2.5	/experiments/AOT/AOT_stimuli/rescaled_final/0036_rv.mp4	0.0	367.99678897857666	2.499817132949829
84	348.64006519317627	pulse	1	t		82.0	2.5	/experiments/AOT/AOT_stimuli/rescaled_final/0036_rv.mp4	0.0	368.7801351547241	
84	350.2387890815735	pulse	1	t		82.0	2.5	/experiments/AOT/AOT_stimuli/rescaled_final/0036_rv.mp4	0.0	370.37885904312134	
84	350.35653614997864	fix_post	2		12	82.0	2.5	/experiments/AOT/AOT_stimuli/rescaled_final/0036_rv.mp4	0.0	370.4966061115265	0.10007786750793457
85	350.4566140174866	fix_pre	0		120	83.0	2.5	blank	1.0	370.5966839790344	0.9999279975891113
85	351.4565420150757	movie	1		300	83.0	2.5	blank	1.0	371.59661197662354	2.499636173248291
85	351.8400650024414	pulse	1	t		83.0	2.5	blank	1.0	371.98013496398926	
85	353.44007205963135	pulse	1	t		83.0	2.5	blank	1.0	373.5801420211792	
85	353.956178188324	fix_post	2		12	83.0	2.5	blank	1.0	374.0962481498718	0.10028195381164551
87	354.0564601421356	stim	0		1716					374.1965301036835	14.300017833709717
87	355.0400221347809	pulse	0	t						375.18009209632874	
87	356.64002203941345	pulse	0	t						376.7800920009613	
87	358.2400920391083	pulse	0	t						378.3801620006561	
87	359.8403100967407	pulse	0	t						379.9803800582886	
87	361.4400351047516	pulse	0	t						381.58010506629944	
87	363.0400049686432	pulse	0	t						383.18007493019104	
87	364.63999009132385	pulse	0	t						384.7800600528717	
87	366.23988914489746	pulse	0	t						386.3799591064453	
87	367.840047121048	pulse	0	t						387.9801170825958	
