trial_nr	onset	event_type	phase	response	nr_frames	movie_index	movie_duration	movie_file	blank	onset_abs	duration
0	0.1665363311767578	stim	0		1					30.994860410690308	0.008121013641357422
0	0.11927223205566406	response	0	space						30.947596311569214	
1	0.17465734481811523	stim	0		4755					31.002981424331665	39.63937473297119
1	39.8043053150177	pulse	0	t						70.63262939453125	
1	39.81403207778931	stim	1		1715					70.64235615730286	14.302017450332642
1	41.397727966308594	pulse	1	t						72.22605204582214	
1	42.99790978431702	pulse	1	t						73.82623386383057	
1	44.59815788269043	pulse	1	t						75.42648196220398	
1	46.198362588882446	pulse	1	t						77.026686668396	
1	47.798644065856934	pulse	1	t						78.62696814537048	
1	49.399051666259766	pulse	1	t						80.22737574577332	
1	50.99922275543213	pulse	1	t						81.82754683494568	
1	52.59937381744385	pulse	1	t						83.4276978969574	
2	54.11604952812195	fix_pre	0		11	0.0	2.5	/experiments/knapen_AOT/AOT_stimuli/rescaled_final/0490_rv.mp4	0.0	84.9443736076355	0.10843253135681152
2	54.1996910572052	pulse	0	t		0.0	2.5	/experiments/knapen_AOT/AOT_stimuli/rescaled_final/0490_rv.mp4	0.0	85.02801513671875	
2	54.22448205947876	movie	1		278	0.0	2.5	/experiments/knapen_AOT/AOT_stimuli/rescaled_final/0490_rv.mp4	0.0	85.05280613899231	2.4919850826263428
2	55.79811882972717	pulse	1	t		0.0	2.5	/experiments/knapen_AOT/AOT_stimuli/rescaled_final/0490_rv.mp4	0.0	86.62644290924072	
2	56.7164671421051	fix_post	2		12	0.0	2.5	/experiments/knapen_AOT/AOT_stimuli/rescaled_final/0490_rv.mp4	0.0	87.54479122161865	0.10002994537353516
3	56.81649708747864	fix_pre	0		120	1.0	2.5	/experiments/knapen_AOT/AOT_stimuli/rescaled_final/0733_rv.mp4	0.0	87.64482116699219	1.0086150169372559
3	57.39295983314514	pulse	0	t		1.0	2.5	/experiments/knapen_AOT/AOT_stimuli/rescaled_final/0733_rv.mp4	0.0	88.22128391265869	
3	57.825112104415894	movie	1		289	1.0	2.5	/experiments/knapen_AOT/AOT_stimuli/rescaled_final/0733_rv.mp4	0.0	88.65343618392944	2.4918816089630127
3	58.99831223487854	pulse	1	t		1.0	2.5	/experiments/knapen_AOT/AOT_stimuli/rescaled_final/0733_rv.mp4	0.0	89.82663631439209	
3	60.316993713378906	fix_post	2		12	1.0	2.5	/experiments/knapen_AOT/AOT_stimuli/rescaled_final/0733_rv.mp4	0.0	91.14531779289246	0.10000944137573242
4	60.41700315475464	fix_pre	0		120	2.0	2.5	/experiments/knapen_AOT/AOT_stimuli/rescaled_final/2070_rv.mp4	0.0	91.24532723426819	1.0084857940673828
4	60.59254050254822	pulse	0	t		2.0	2.5	/experiments/knapen_AOT/AOT_stimuli/rescaled_final/2070_rv.mp4	0.0	91.42086458206177	
4	61.42548894882202	movie	1		275	2.0	2.5	/experiments/knapen_AOT/AOT_stimuli/rescaled_final/2070_rv.mp4	0.0	92.25381302833557	2.4920461177825928
4	62.192527770996094	pulse	1	t		2.0	2.5	/experiments/knapen_AOT/AOT_stimuli/rescaled_final/2070_rv.mp4	0.0	93.02085185050964	
4	63.792906522750854	pulse	1	t		2.0	2.5	/experiments/knapen_AOT/AOT_stimuli/rescaled_final/2070_rv.mp4	0.0	94.6212306022644	
4	63.917535066604614	fix_post	2		12	2.0	2.5	/experiments/knapen_AOT/AOT_stimuli/rescaled_final/2070_rv.mp4	0.0	94.74585914611816	0.10000348091125488
5	64.01753854751587	fix_pre	0		120	3.0	2.5	/experiments/knapen_AOT/AOT_stimuli/rescaled_final/0243_fw.mp4	0.0	94.84586262702942	1.0085208415985107
5	65.02605938911438	movie	1		283	3.0	2.5	/experiments/knapen_AOT/AOT_stimuli/rescaled_final/0243_fw.mp4	0.0	95.85438346862793	2.4920029640197754
5	65.39296436309814	pulse	1	t		3.0	2.5	/experiments/knapen_AOT/AOT_stimuli/rescaled_final/0243_fw.mp4	0.0	96.2212884426117	
5	66.99323749542236	pulse	1	t		3.0	2.5	/experiments/knapen_AOT/AOT_stimuli/rescaled_final/0243_fw.mp4	0.0	97.82156157493591	
5	67.51806235313416	fix_post	2		12	3.0	2.5	/experiments/knapen_AOT/AOT_stimuli/rescaled_final/0243_fw.mp4	0.0	98.3463864326477	0.10006546974182129
6	67.61812782287598	fix_pre	0		118	4.0	2.5	/experiments/knapen_AOT/AOT_stimuli/rescaled_final/0408_fw.mp4	0.0	98.44645190238953	0.9918670654296875
6	68.59351587295532	pulse	0	t		4.0	2.5	/experiments/knapen_AOT/AOT_stimuli/rescaled_final/0408_fw.mp4	0.0	99.42183995246887	
6	68.60999488830566	movie	1		270	4.0	2.5	/experiments/knapen_AOT/AOT_stimuli/rescaled_final/0408_fw.mp4	0.0	99.43831896781921	2.5005698204040527
6	70.19364738464355	pulse	1	t		4.0	2.5	/experiments/knapen_AOT/AOT_stimuli/rescaled_final/0408_fw.mp4	0.0	101.0219714641571	
6	71.11056470870972	fix_post	2		12	4.0	2.5	/experiments/knapen_AOT/AOT_stimuli/rescaled_final/0408_fw.mp4	0.0	101.93888878822327	0.09971737861633301
7	71.21028208732605	fix_pre	0		120	5.0	2.5	blank	1.0	102.0386061668396	1.0001392364501953
7	71.7940948009491	pulse	0	t		5.0	2.5	blank	1.0	102.62241888046265	
7	72.21042132377625	movie	1		300	5.0	2.5	blank	1.0	103.0387454032898	2.5003843307495117
7	73.39419078826904	pulse	1	t		5.0	2.5	blank	1.0	104.22251486778259	
7	74.71080565452576	fix_post	2		12	5.0	2.5	blank	1.0	105.5391297340393	0.10002279281616211
8	74.81082844734192	fix_pre	0		120	6.0	2.5	/experiments/knapen_AOT/AOT_stimuli/rescaled_final/2100_fw.mp4	0.0	105.63915252685547	1.0085618495941162
8	74.99472093582153	pulse	0	t		6.0	2.5	/experiments/knapen_AOT/AOT_stimuli/rescaled_final/2100_fw.mp4	0.0	105.82304501533508	
8	75.81939029693604	movie	1		278	6.0	2.5	/experiments/knapen_AOT/AOT_stimuli/rescaled_final/2100_fw.mp4	0.0	106.64771437644958	2.49196195602417
8	76.59380030632019	pulse	1	t		6.0	2.5	/experiments/knapen_AOT/AOT_stimuli/rescaled_final/2100_fw.mp4	0.0	107.42212438583374	
8	78.19266080856323	pulse	1	t		6.0	2.5	/experiments/knapen_AOT/AOT_stimuli/rescaled_final/2100_fw.mp4	0.0	109.02098488807678	
8	78.3113522529602	fix_post	2		12	6.0	2.5	/experiments/knapen_AOT/AOT_stimuli/rescaled_final/2100_fw.mp4	0.0	109.13967633247375	0.1000680923461914
9	78.4114203453064	fix_pre	0		120	7.0	2.5	/experiments/knapen_AOT/AOT_stimuli/rescaled_final/1479_rv.mp4	0.0	109.23974442481995	1.0084447860717773
9	79.41986513137817	movie	1		278	7.0	2.5	/experiments/knapen_AOT/AOT_stimuli/rescaled_final/1479_rv.mp4	0.0	110.24818921089172	2.4920403957366943
9	79.79333806037903	pulse	1	t		7.0	2.5	/experiments/knapen_AOT/AOT_stimuli/rescaled_final/1479_rv.mp4	0.0	110.62166213989258	
9	81.39296531677246	pulse	1	t		7.0	2.5	/experiments/knapen_AOT/AOT_stimuli/rescaled_final/1479_rv.mp4	0.0	112.22128939628601	
9	81.91190552711487	fix_post	2		12	7.0	2.5	/experiments/knapen_AOT/AOT_stimuli/rescaled_final/1479_rv.mp4	0.0	112.74022960662842	0.10000801086425781
10	82.01191353797913	fix_pre	0		119	8.0	2.5	/experiments/knapen_AOT/AOT_stimuli/rescaled_final/1936_rv.mp4	0.0	112.84023761749268	1.0001540184020996
10	82.99558353424072	pulse	0	t		8.0	2.5	/experiments/knapen_AOT/AOT_stimuli/rescaled_final/1936_rv.mp4	0.0	113.82390761375427	
10	83.01206755638123	movie	1		264	8.0	2.5	/experiments/knapen_AOT/AOT_stimuli/rescaled_final/1936_rv.mp4	0.0	113.84039163589478	2.500364065170288
10	84.59445524215698	pulse	1	t		8.0	2.5	/experiments/knapen_AOT/AOT_stimuli/rescaled_final/1936_rv.mp4	0.0	115.42277932167053	
10	85.51243162155151	fix_post	2		12	8.0	2.5	/experiments/knapen_AOT/AOT_stimuli/rescaled_final/1936_rv.mp4	0.0	116.34075570106506	0.10002613067626953
11	85.61245775222778	fix_pre	0		120	9.0	2.5	/experiments/knapen_AOT/AOT_stimuli/rescaled_final/1359_rv.mp4	0.0	116.44078183174133	1.0085070133209229
11	86.19621896743774	pulse	0	t		9.0	2.5	/experiments/knapen_AOT/AOT_stimuli/rescaled_final/1359_rv.mp4	0.0	117.0245430469513	
11	86.6209647655487	movie	1		275	9.0	2.5	/experiments/knapen_AOT/AOT_stimuli/rescaled_final/1359_rv.mp4	0.0	117.44928884506226	2.492043972015381
11	87.7942442893982	pulse	1	t		9.0	2.5	/experiments/knapen_AOT/AOT_stimuli/rescaled_final/1359_rv.mp4	0.0	118.62256836891174	
11	89.11300873756409	fix_post	2		12	9.0	2.5	/experiments/knapen_AOT/AOT_stimuli/rescaled_final/1359_rv.mp4	0.0	119.94133281707764	0.10002827644348145
12	89.21303701400757	fix_pre	0		120	10.0	2.5	/experiments/knapen_AOT/AOT_stimuli/rescaled_final/0503_rv.mp4	0.0	120.04136109352112	1.0085594654083252
12	89.39652442932129	pulse	0	t		10.0	2.5	/experiments/knapen_AOT/AOT_stimuli/rescaled_final/0503_rv.mp4	0.0	120.22484850883484	
12	90.2215964794159	movie	1		285	10.0	2.5	/experiments/knapen_AOT/AOT_stimuli/rescaled_final/0503_rv.mp4	0.0	121.04992055892944	2.491912364959717
12	90.99456238746643	pulse	1	t		10.0	2.5	/experiments/knapen_AOT/AOT_stimuli/rescaled_final/0503_rv.mp4	0.0	121.82288646697998	
12	92.59510564804077	pulse	1	t		10.0	2.5	/experiments/knapen_AOT/AOT_stimuli/rescaled_final/0503_rv.mp4	0.0	123.42342972755432	
12	92.71350884437561	fix_post	2		12	10.0	2.5	/experiments/knapen_AOT/AOT_stimuli/rescaled_final/0503_rv.mp4	0.0	123.54183292388916	0.10004091262817383
13	92.81354975700378	fix_pre	0		120	11.0	2.5	/experiments/knapen_AOT/AOT_stimuli/rescaled_final/0148_rv.mp4	0.0	123.64187383651733	1.0085222721099854
13	93.82207202911377	movie	1		285	11.0	2.5	/experiments/knapen_AOT/AOT_stimuli/rescaled_final/0148_rv.mp4	0.0	124.65039610862732	2.492041826248169
13	94.19574069976807	pulse	1	t		11.0	2.5	/experiments/knapen_AOT/AOT_stimuli/rescaled_final/0148_rv.mp4	0.0	125.02406477928162	
13	95.79563617706299	pulse	1	t		11.0	2.5	/experiments/knapen_AOT/AOT_stimuli/rescaled_final/0148_rv.mp4	0.0	126.62396025657654	
13	96.31411385536194	fix_post	2		12	11.0	2.5	/experiments/knapen_AOT/AOT_stimuli/rescaled_final/0148_rv.mp4	0.0	127.14243793487549	0.10001087188720703
14	96.41412472724915	fix_pre	0		119	12.0	2.5	blank	1.0	127.2424488067627	0.9917969703674316
14	97.39808011054993	pulse	0	t		12.0	2.5	blank	1.0	128.22640419006348	
14	97.40592169761658	movie	1		301	12.0	2.5	blank	1.0	128.23424577713013	2.5086944103240967
14	98.99801111221313	pulse	1	t		12.0	2.5	blank	1.0	129.82633519172668	
14	99.91461610794067	fix_post	2		12	12.0	2.5	blank	1.0	130.74294018745422	0.09999871253967285
15	100.01461482048035	fix_pre	0		120	13.0	2.5	/experiments/knapen_AOT/AOT_stimuli/rescaled_final/0215_fw.mp4	0.0	130.8429388999939	1.0084986686706543
15	100.5984034538269	pulse	0	t		13.0	2.5	/experiments/knapen_AOT/AOT_stimuli/rescaled_final/0215_fw.mp4	0.0	131.42672753334045	
15	101.023113489151	movie	1		282	13.0	2.5	/experiments/knapen_AOT/AOT_stimuli/rescaled_final/0215_fw.mp4	0.0	131.85143756866455	2.492039680480957
15	102.19737005233765	pulse	1	t		13.0	2.5	/experiments/knapen_AOT/AOT_stimuli/rescaled_final/0215_fw.mp4	0.0	133.0256941318512	
15	103.51515316963196	fix_post	2		12	13.0	2.5	/experiments/knapen_AOT/AOT_stimuli/rescaled_final/0215_fw.mp4	0.0	134.3434772491455	0.10001516342163086
16	103.61516833305359	fix_pre	0		120	14.0	2.5	/experiments/knapen_AOT/AOT_stimuli/rescaled_final/1962_rv.mp4	0.0	134.44349241256714	1.008486032485962
16	103.79873085021973	pulse	0	t		14.0	2.5	/experiments/knapen_AOT/AOT_stimuli/rescaled_final/1962_rv.mp4	0.0	134.62705492973328	
16	104.62365436553955	movie	1		267	14.0	2.5	/experiments/knapen_AOT/AOT_stimuli/rescaled_final/1962_rv.mp4	0.0	135.4519784450531	2.4920337200164795
16	105.39691925048828	pulse	1	t		14.0	2.5	/experiments/knapen_AOT/AOT_stimuli/rescaled_final/1962_rv.mp4	0.0	136.22524333000183	
16	106.99953770637512	pulse	1	t		14.0	2.5	/experiments/knapen_AOT/AOT_stimuli/rescaled_final/1962_rv.mp4	0.0	137.82786178588867	
16	107.11568808555603	fix_post	2		12	14.0	2.5	/experiments/knapen_AOT/AOT_stimuli/rescaled_final/1962_rv.mp4	0.0	137.94401216506958	0.1000056266784668
17	107.2156937122345	fix_pre	0		120	15.0	2.5	/experiments/knapen_AOT/AOT_stimuli/rescaled_final/0935_fw.mp4	0.0	138.04401779174805	1.0085084438323975
17	108.2242021560669	movie	1		275	15.0	2.5	/experiments/knapen_AOT/AOT_stimuli/rescaled_final/0935_fw.mp4	0.0	139.05252623558044	2.50036883354187
17	108.59764504432678	pulse	1	t		15.0	2.5	/experiments/knapen_AOT/AOT_stimuli/rescaled_final/0935_fw.mp4	0.0	139.42596912384033	
17	110.19776654243469	pulse	1	t		15.0	2.5	/experiments/knapen_AOT/AOT_stimuli/rescaled_final/0935_fw.mp4	0.0	141.02609062194824	
17	110.72457098960876	fix_post	2		11	15.0	2.5	/experiments/knapen_AOT/AOT_stimuli/rescaled_final/0935_fw.mp4	0.0	141.55289506912231	0.09175753593444824
18	110.81632852554321	fix_pre	0		119	16.0	2.5	/experiments/knapen_AOT/AOT_stimuli/rescaled_final/0360_fw.mp4	0.0	141.64465260505676	1.0000560283660889
18	111.79998397827148	pulse	0	t		16.0	2.5	/experiments/knapen_AOT/AOT_stimuli/rescaled_final/0360_fw.mp4	0.0	142.62830805778503	
18	111.8163845539093	movie	1		266	16.0	2.5	/experiments/knapen_AOT/AOT_stimuli/rescaled_final/0360_fw.mp4	0.0	142.64470863342285	2.5003809928894043
18	113.39942932128906	pulse	1	t		16.0	2.5	/experiments/knapen_AOT/AOT_stimuli/rescaled_final/0360_fw.mp4	0.0	144.2277534008026	
18	114.3167655467987	fix_post	2		12	16.0	2.5	/experiments/knapen_AOT/AOT_stimuli/rescaled_final/0360_fw.mp4	0.0	145.14508962631226	0.10004901885986328
19	114.41681456565857	fix_pre	0		120	17.0	2.5	/experiments/knapen_AOT/AOT_stimuli/rescaled_final/0025_fw.mp4	0.0	145.24513864517212	1.00848388671875
19	115.00043725967407	pulse	0	t		17.0	2.5	/experiments/knapen_AOT/AOT_stimuli/rescaled_final/0025_fw.mp4	0.0	145.82876133918762	
19	115.42529845237732	movie	1		279	17.0	2.5	/experiments/knapen_AOT/AOT_stimuli/rescaled_final/0025_fw.mp4	0.0	146.25362253189087	2.492009401321411
19	116.59885382652283	pulse	1	t		17.0	2.5	/experiments/knapen_AOT/AOT_stimuli/rescaled_final/0025_fw.mp4	0.0	147.42717790603638	
19	117.91730785369873	fix_post	2		12	17.0	2.5	/experiments/knapen_AOT/AOT_stimuli/rescaled_final/0025_fw.mp4	0.0	148.74563193321228	0.10005068778991699
20	118.01735854148865	fix_pre	0		120	18.0	2.5	/experiments/knapen_AOT/AOT_stimuli/rescaled_final/1310_rv.mp4	0.0	148.8456826210022	1.0084826946258545
20	118.19293904304504	pulse	0	t		18.0	2.5	/experiments/knapen_AOT/AOT_stimuli/rescaled_final/1310_rv.mp4	0.0	149.0212631225586	
20	119.0258412361145	movie	1		273	18.0	2.5	/experiments/knapen_AOT/AOT_stimuli/rescaled_final/1310_rv.mp4	0.0	149.85416531562805	2.491994857788086
20	119.79311537742615	pulse	1	t		18.0	2.5	/experiments/knapen_AOT/AOT_stimuli/rescaled_final/1310_rv.mp4	0.0	150.6214394569397	
20	121.3933093547821	pulse	1	t		18.0	2.5	/experiments/knapen_AOT/AOT_stimuli/rescaled_final/1310_rv.mp4	0.0	152.22163343429565	
20	121.51783609390259	fix_post	2		12	18.0	2.5	/experiments/knapen_AOT/AOT_stimuli/rescaled_final/1310_rv.mp4	0.0	152.34616017341614	0.10003805160522461
21	121.61787414550781	fix_pre	0		120	19.0	2.5	/experiments/knapen_AOT/AOT_stimuli/rescaled_final/2017_fw.mp4	0.0	152.44619822502136	1.0085530281066895
21	122.6264271736145	movie	1		285	19.0	2.5	/experiments/knapen_AOT/AOT_stimuli/rescaled_final/2017_fw.mp4	0.0	153.45475125312805	2.4919593334198
21	122.99370336532593	pulse	1	t		19.0	2.5	/experiments/knapen_AOT/AOT_stimuli/rescaled_final/2017_fw.mp4	0.0	153.82202744483948	
21	124.59393548965454	pulse	1	t		19.0	2.5	/experiments/knapen_AOT/AOT_stimuli/rescaled_final/2017_fw.mp4	0.0	155.4222595691681	
21	125.1183865070343	fix_post	2		12	19.0	2.5	/experiments/knapen_AOT/AOT_stimuli/rescaled_final/2017_fw.mp4	0.0	155.94671058654785	0.10016751289367676
22	125.21855401992798	fix_pre	0		118	20.0	2.5	/experiments/knapen_AOT/AOT_stimuli/rescaled_final/2053_rv.mp4	0.0	156.04687809944153	1.000065565109253
22	126.19380331039429	pulse	0	t		20.0	2.5	/experiments/knapen_AOT/AOT_stimuli/rescaled_final/2053_rv.mp4	0.0	157.02212738990784	
22	126.21861958503723	movie	1		274	20.0	2.5	/experiments/knapen_AOT/AOT_stimuli/rescaled_final/2053_rv.mp4	0.0	157.04694366455078	2.4921510219573975
22	127.79416346549988	pulse	1	t		20.0	2.5	/experiments/knapen_AOT/AOT_stimuli/rescaled_final/2053_rv.mp4	0.0	158.62248754501343	
22	128.71077060699463	fix_post	2		12	20.0	2.5	/experiments/knapen_AOT/AOT_stimuli/rescaled_final/2053_rv.mp4	0.0	159.53909468650818	0.09984683990478516
23	128.8106174468994	fix_pre	0		120	21.0	2.5	blank	1.0	159.63894152641296	1.0001442432403564
23	129.39429759979248	pulse	0	t		21.0	2.5	blank	1.0	160.22262167930603	
23	129.81076169013977	movie	1		300	21.0	2.5	blank	1.0	160.63908576965332	2.5003836154937744
23	130.9945456981659	pulse	1	t		21.0	2.5	blank	1.0	161.82286977767944	
23	132.31114530563354	fix_post	2		12	21.0	2.5	blank	1.0	163.1394693851471	0.09999299049377441
24	132.41113829612732	fix_pre	0		120	22.0	2.5	/experiments/knapen_AOT/AOT_stimuli/rescaled_final/1236_fw.mp4	0.0	163.23946237564087	1.0085318088531494
24	132.5947208404541	pulse	0	t		22.0	2.5	/experiments/knapen_AOT/AOT_stimuli/rescaled_final/1236_fw.mp4	0.0	163.42304491996765	
24	133.41967010498047	movie	1		274	22.0	2.5	/experiments/knapen_AOT/AOT_stimuli/rescaled_final/1236_fw.mp4	0.0	164.24799418449402	2.4920084476470947
24	134.19512462615967	pulse	1	t		22.0	2.5	/experiments/knapen_AOT/AOT_stimuli/rescaled_final/1236_fw.mp4	0.0	165.02344870567322	
24	135.7932846546173	pulse	1	t		22.0	2.5	/experiments/knapen_AOT/AOT_stimuli/rescaled_final/1236_fw.mp4	0.0	166.62160873413086	
24	135.91167855262756	fix_post	2		12	22.0	2.5	/experiments/knapen_AOT/AOT_stimuli/rescaled_final/1236_fw.mp4	0.0	166.7400026321411	0.10001111030578613
25	136.01168966293335	fix_pre	0		120	23.0	2.5	/experiments/knapen_AOT/AOT_stimuli/rescaled_final/1294_rv.mp4	0.0	166.8400137424469	1.0085062980651855
25	137.02019596099854	movie	1		270	23.0	2.5	/experiments/knapen_AOT/AOT_stimuli/rescaled_final/1294_rv.mp4	0.0	167.84852004051208	2.4920387268066406
25	137.39345455169678	pulse	1	t		23.0	2.5	/experiments/knapen_AOT/AOT_stimuli/rescaled_final/1294_rv.mp4	0.0	168.22177863121033	
25	138.99360179901123	pulse	1	t		23.0	2.5	/experiments/knapen_AOT/AOT_stimuli/rescaled_final/1294_rv.mp4	0.0	169.82192587852478	
25	139.51223468780518	fix_post	2		12	23.0	2.5	/experiments/knapen_AOT/AOT_stimuli/rescaled_final/1294_rv.mp4	0.0	170.34055876731873	0.09999537467956543
26	139.61223006248474	fix_pre	0		119	24.0	2.5	/experiments/knapen_AOT/AOT_stimuli/rescaled_final/1270_fw.mp4	0.0	170.4405541419983	1.0001401901245117
26	140.5960350036621	pulse	0	t		24.0	2.5	/experiments/knapen_AOT/AOT_stimuli/rescaled_final/1270_fw.mp4	0.0	171.42435908317566	
26	140.61237025260925	movie	1		282	24.0	2.5	/experiments/knapen_AOT/AOT_stimuli/rescaled_final/1270_fw.mp4	0.0	171.4406943321228	2.500403881072998
26	142.19435286521912	pulse	1	t		24.0	2.5	/experiments/knapen_AOT/AOT_stimuli/rescaled_final/1270_fw.mp4	0.0	173.02267694473267	
26	143.11277413368225	fix_post	2		12	24.0	2.5	/experiments/knapen_AOT/AOT_stimuli/rescaled_final/1270_fw.mp4	0.0	173.9410982131958	0.10004591941833496
27	143.2128200531006	fix_pre	0		120	25.0	2.5	/experiments/knapen_AOT/AOT_stimuli/rescaled_final/1083_rv.mp4	0.0	174.04114413261414	1.0084547996520996
27	143.79640364646912	pulse	0	t		25.0	2.5	/experiments/knapen_AOT/AOT_stimuli/rescaled_final/1083_rv.mp4	0.0	174.62472772598267	
27	144.22127485275269	movie	1		287	25.0	2.5	/experiments/knapen_AOT/AOT_stimuli/rescaled_final/1083_rv.mp4	0.0	175.04959893226624	2.4920194149017334
27	145.3946075439453	pulse	1	t		25.0	2.5	/experiments/knapen_AOT/AOT_stimuli/rescaled_final/1083_rv.mp4	0.0	176.22293162345886	
27	146.71329426765442	fix_post	2		12	25.0	2.5	/experiments/knapen_AOT/AOT_stimuli/rescaled_final/1083_rv.mp4	0.0	177.54161834716797	0.10001206398010254
28	146.81330633163452	fix_pre	0		120	26.0	2.5	/experiments/knapen_AOT/AOT_stimuli/rescaled_final/1182_rv.mp4	0.0	177.64163041114807	1.0085070133209229
28	146.99689483642578	pulse	0	t		26.0	2.5	/experiments/knapen_AOT/AOT_stimuli/rescaled_final/1182_rv.mp4	0.0	177.82521891593933	
28	147.82181334495544	movie	1		280	26.0	2.5	/experiments/knapen_AOT/AOT_stimuli/rescaled_final/1182_rv.mp4	0.0	178.650137424469	2.4920198917388916
28	148.59938073158264	pulse	1	t		26.0	2.5	/experiments/knapen_AOT/AOT_stimuli/rescaled_final/1182_rv.mp4	0.0	179.4277048110962	
28	150.19542837142944	pulse	1	t		26.0	2.5	/experiments/knapen_AOT/AOT_stimuli/rescaled_final/1182_rv.mp4	0.0	181.023752450943	
28	150.31383323669434	fix_post	2		12	26.0	2.5	/experiments/knapen_AOT/AOT_stimuli/rescaled_final/1182_rv.mp4	0.0	181.14215731620789	0.10003376007080078
29	150.41386699676514	fix_pre	0		120	27.0	2.5	/experiments/knapen_AOT/AOT_stimuli/rescaled_final/2024_rv.mp4	0.0	181.2421910762787	1.0084726810455322
29	151.42233967781067	movie	1		282	27.0	2.5	/experiments/knapen_AOT/AOT_stimuli/rescaled_final/2024_rv.mp4	0.0	182.25066375732422	2.4920501708984375
29	151.79572796821594	pulse	1	t		27.0	2.5	/experiments/knapen_AOT/AOT_stimuli/rescaled_final/2024_rv.mp4	0.0	182.6240520477295	
29	153.397310256958	pulse	1	t		27.0	2.5	/experiments/knapen_AOT/AOT_stimuli/rescaled_final/2024_rv.mp4	0.0	184.22563433647156	
29	153.9143898487091	fix_post	2		12	27.0	2.5	/experiments/knapen_AOT/AOT_stimuli/rescaled_final/2024_rv.mp4	0.0	184.74271392822266	0.09999704360961914
30	154.01438689231873	fix_pre	0		119	28.0	2.5	blank	1.0	184.84271097183228	0.991844654083252
30	154.9981586933136	pulse	0	t		28.0	2.5	blank	1.0	185.82648277282715	
30	155.00623154640198	movie	1		301	28.0	2.5	blank	1.0	185.83455562591553	2.508720874786377
30	156.59833240509033	pulse	1	t		28.0	2.5	blank	1.0	187.42665648460388	
30	157.51495242118835	fix_post	2		12	28.0	2.5	blank	1.0	188.3432765007019	0.10001850128173828
31	157.6149709224701	fix_pre	0		120	29.0	2.5	/experiments/knapen_AOT/AOT_stimuli/rescaled_final/1248_rv.mp4	0.0	188.44329500198364	1.0084667205810547
31	158.1986153125763	pulse	0	t		29.0	2.5	/experiments/knapen_AOT/AOT_stimuli/rescaled_final/1248_rv.mp4	0.0	189.02693939208984	
31	158.62343764305115	movie	1		269	29.0	2.5	/experiments/knapen_AOT/AOT_stimuli/rescaled_final/1248_rv.mp4	0.0	189.4517617225647	2.492027997970581
31	159.79667139053345	pulse	1	t		29.0	2.5	/experiments/knapen_AOT/AOT_stimuli/rescaled_final/1248_rv.mp4	0.0	190.624995470047	
31	161.11546564102173	fix_post	2		12	29.0	2.5	/experiments/knapen_AOT/AOT_stimuli/rescaled_final/1248_rv.mp4	0.0	191.94378972053528	0.10008883476257324
32	161.2155544757843	fix_pre	0		120	30.0	2.5	/experiments/knapen_AOT/AOT_stimuli/rescaled_final/0859_fw.mp4	0.0	192.04387855529785	1.008484125137329
32	161.39933156967163	pulse	0	t		30.0	2.5	/experiments/knapen_AOT/AOT_stimuli/rescaled_final/0859_fw.mp4	0.0	192.22765564918518	
32	162.22403860092163	movie	1		269	30.0	2.5	/experiments/knapen_AOT/AOT_stimuli/rescaled_final/0859_fw.mp4	0.0	193.05236268043518	2.491957902908325
32	162.99711513519287	pulse	1	t		30.0	2.5	/experiments/knapen_AOT/AOT_stimuli/rescaled_final/0859_fw.mp4	0.0	193.82543921470642	
32	164.5997977256775	pulse	1	t		30.0	2.5	/experiments/knapen_AOT/AOT_stimuli/rescaled_final/0859_fw.mp4	0.0	195.42812180519104	
32	164.71599650382996	fix_post	2		12	30.0	2.5	/experiments/knapen_AOT/AOT_stimuli/rescaled_final/0859_fw.mp4	0.0	195.5443205833435	0.1001737117767334
33	164.8161702156067	fix_pre	0		120	31.0	2.5	/experiments/knapen_AOT/AOT_stimuli/rescaled_final/1385_fw.mp4	0.0	195.64449429512024	1.0083458423614502
33	165.82451605796814	movie	1		270	31.0	2.5	/experiments/knapen_AOT/AOT_stimuli/rescaled_final/1385_fw.mp4	0.0	196.6528401374817	2.4920175075531006
33	166.1988275051117	pulse	1	t		31.0	2.5	/experiments/knapen_AOT/AOT_stimuli/rescaled_final/1385_fw.mp4	0.0	197.02715158462524	
33	167.7979052066803	pulse	1	t		31.0	2.5	/experiments/knapen_AOT/AOT_stimuli/rescaled_final/1385_fw.mp4	0.0	198.62622928619385	
33	168.31653356552124	fix_post	2		12	31.0	2.5	/experiments/knapen_AOT/AOT_stimuli/rescaled_final/1385_fw.mp4	0.0	199.1448576450348	0.10014057159423828
34	168.41667413711548	fix_pre	0		119	32.0	2.5	/experiments/knapen_AOT/AOT_stimuli/rescaled_final/1775_fw.mp4	0.0	199.24499821662903	1.0001013278961182
34	169.40039205551147	pulse	0	t		32.0	2.5	/experiments/knapen_AOT/AOT_stimuli/rescaled_final/1775_fw.mp4	0.0	200.22871613502502	
34	169.4167754650116	movie	1		269	32.0	2.5	/experiments/knapen_AOT/AOT_stimuli/rescaled_final/1775_fw.mp4	0.0	200.24509954452515	2.5086989402770996
34	170.99875020980835	pulse	1	t		32.0	2.5	/experiments/knapen_AOT/AOT_stimuli/rescaled_final/1775_fw.mp4	0.0	201.8270742893219	
34	171.9254744052887	fix_post	2		11	32.0	2.5	/experiments/knapen_AOT/AOT_stimuli/rescaled_final/1775_fw.mp4	0.0	202.75379848480225	0.09165406227111816
35	172.01712846755981	fix_pre	0		120	33.0	2.5	/experiments/knapen_AOT/AOT_stimuli/rescaled_final/1245_rv.mp4	0.0	202.84545254707336	1.0084586143493652
35	172.60078358650208	pulse	0	t		33.0	2.5	/experiments/knapen_AOT/AOT_stimuli/rescaled_final/1245_rv.mp4	0.0	203.42910766601562	
35	173.02558708190918	movie	1		285	33.0	2.5	/experiments/knapen_AOT/AOT_stimuli/rescaled_final/1245_rv.mp4	0.0	203.85391116142273	2.492035150527954
35	174.19999861717224	pulse	1	t		33.0	2.5	/experiments/knapen_AOT/AOT_stimuli/rescaled_final/1245_rv.mp4	0.0	205.0283226966858	
35	175.51762223243713	fix_post	2		12	33.0	2.5	/experiments/knapen_AOT/AOT_stimuli/rescaled_final/1245_rv.mp4	0.0	206.34594631195068	0.10001945495605469
36	175.6176416873932	fix_pre	0		120	34.0	2.5	blank	1.0	206.44596576690674	1.0001566410064697
36	175.79407739639282	pulse	0	t		34.0	2.5	blank	1.0	206.62240147590637	
36	176.61779832839966	movie	1		300	34.0	2.5	blank	1.0	207.4461224079132	2.5004048347473145
36	177.39339995384216	pulse	1	t		34.0	2.5	blank	1.0	208.2217240333557	
36	178.99370527267456	pulse	1	t		34.0	2.5	blank	1.0	209.8220293521881	
36	179.11820316314697	fix_post	2		12	34.0	2.5	blank	1.0	209.94652724266052	0.10001158714294434
37	179.21821475028992	fix_pre	0		120	35.0	2.5	/experiments/knapen_AOT/AOT_stimuli/rescaled_final/0635_fw.mp4	0.0	210.04653882980347	1.0085337162017822
37	180.2267484664917	movie	1		283	35.0	2.5	/experiments/knapen_AOT/AOT_stimuli/rescaled_final/0635_fw.mp4	0.0	211.05507254600525	2.4920382499694824
37	180.59363198280334	pulse	1	t		35.0	2.5	/experiments/knapen_AOT/AOT_stimuli/rescaled_final/0635_fw.mp4	0.0	211.4219560623169	
37	182.19388270378113	pulse	1	t		35.0	2.5	/experiments/knapen_AOT/AOT_stimuli/rescaled_final/0635_fw.mp4	0.0	213.02220678329468	
37	182.71878671646118	fix_post	2		12	35.0	2.5	/experiments/knapen_AOT/AOT_stimuli/rescaled_final/0635_fw.mp4	0.0	213.54711079597473	0.09998822212219238
38	182.81877493858337	fix_pre	0		118	36.0	2.5	/experiments/knapen_AOT/AOT_stimuli/rescaled_final/0028_rv.mp4	0.0	213.64709901809692	0.9917893409729004
38	183.79444217681885	pulse	0	t		36.0	2.5	/experiments/knapen_AOT/AOT_stimuli/rescaled_final/0028_rv.mp4	0.0	214.6227662563324	
38	183.81056427955627	movie	1		278	36.0	2.5	/experiments/knapen_AOT/AOT_stimuli/rescaled_final/0028_rv.mp4	0.0	214.63888835906982	2.5003554821014404
38	185.39439415931702	pulse	1	t		36.0	2.5	/experiments/knapen_AOT/AOT_stimuli/rescaled_final/0028_rv.mp4	0.0	216.22271823883057	
38	186.31091976165771	fix_post	2		12	36.0	2.5	/experiments/knapen_AOT/AOT_stimuli/rescaled_final/0028_rv.mp4	0.0	217.13924384117126	0.10001087188720703
39	186.41093063354492	fix_pre	0		120	37.0	2.5	/experiments/knapen_AOT/AOT_stimuli/rescaled_final/1590_fw.mp4	0.0	217.23925471305847	1.0085945129394531
39	186.9946413040161	pulse	0	t		37.0	2.5	/experiments/knapen_AOT/AOT_stimuli/rescaled_final/1590_fw.mp4	0.0	217.82296538352966	
39	187.41952514648438	movie	1		262	37.0	2.5	/experiments/knapen_AOT/AOT_stimuli/rescaled_final/1590_fw.mp4	0.0	218.24784922599792	2.500277519226074
39	188.59478330612183	pulse	1	t		37.0	2.5	/experiments/knapen_AOT/AOT_stimuli/rescaled_final/1590_fw.mp4	0.0	219.42310738563538	
39	189.91980266571045	fix_post	2		11	37.0	2.5	/experiments/knapen_AOT/AOT_stimuli/rescaled_final/1590_fw.mp4	0.0	220.748126745224	0.09179282188415527
40	190.0115954875946	fix_pre	0		120	38.0	2.5	/experiments/knapen_AOT/AOT_stimuli/rescaled_final/0148_rv.mp4	0.0	220.83991956710815	1.008396863937378
40	190.19524455070496	pulse	0	t		38.0	2.5	/experiments/knapen_AOT/AOT_stimuli/rescaled_final/0148_rv.mp4	0.0	221.0235686302185	
40	191.01999235153198	movie	1		280	38.0	2.5	/experiments/knapen_AOT/AOT_stimuli/rescaled_final/0148_rv.mp4	0.0	221.84831643104553	2.492154359817505
40	191.79527688026428	pulse	1	t		38.0	2.5	/experiments/knapen_AOT/AOT_stimuli/rescaled_final/0148_rv.mp4	0.0	222.62360095977783	
40	193.3934051990509	pulse	1	t		38.0	2.5	/experiments/knapen_AOT/AOT_stimuli/rescaled_final/0148_rv.mp4	0.0	224.22172927856445	
40	193.5121467113495	fix_post	2		12	38.0	2.5	/experiments/knapen_AOT/AOT_stimuli/rescaled_final/0148_rv.mp4	0.0	224.34047079086304	0.09991002082824707
41	193.61205673217773	fix_pre	0		120	39.0	2.5	/experiments/knapen_AOT/AOT_stimuli/rescaled_final/1410_fw.mp4	0.0	224.44038081169128	1.0084936618804932
41	194.62055039405823	movie	1		283	39.0	2.5	/experiments/knapen_AOT/AOT_stimuli/rescaled_final/1410_fw.mp4	0.0	225.44887447357178	2.491976022720337
41	194.9941463470459	pulse	1	t		39.0	2.5	/experiments/knapen_AOT/AOT_stimuli/rescaled_final/1410_fw.mp4	0.0	225.82247042655945	
41	196.59354901313782	pulse	1	t		39.0	2.5	/experiments/knapen_AOT/AOT_stimuli/rescaled_final/1410_fw.mp4	0.0	227.42187309265137	
41	197.11252641677856	fix_post	2		12	39.0	2.5	/experiments/knapen_AOT/AOT_stimuli/rescaled_final/1410_fw.mp4	0.0	227.94085049629211	0.10010075569152832
42	197.2126271724701	fix_pre	0		119	40.0	2.5	blank	1.0	228.04095125198364	0.991753101348877
42	198.19637203216553	pulse	0	t		40.0	2.5	blank	1.0	229.02469611167908	
42	198.20438027381897	movie	1		301	40.0	2.5	blank	1.0	229.03270435333252	2.508718729019165
42	199.79647064208984	pulse	1	t		40.0	2.5	blank	1.0	230.6247947216034	
42	200.71309900283813	fix_post	2		12	40.0	2.5	blank	1.0	231.54142308235168	0.1000528335571289
43	200.81315183639526	fix_pre	0		120	41.0	2.5	/experiments/knapen_AOT/AOT_stimuli/rescaled_final/2154_rv.mp4	0.0	231.6414759159088	1.0084269046783447
43	201.39668726921082	pulse	0	t		41.0	2.5	/experiments/knapen_AOT/AOT_stimuli/rescaled_final/2154_rv.mp4	0.0	232.22501134872437	
43	201.8215787410736	movie	1		275	41.0	2.5	/experiments/knapen_AOT/AOT_stimuli/rescaled_final/2154_rv.mp4	0.0	232.64990282058716	2.4920499324798584
43	202.9958381652832	pulse	1	t		41.0	2.5	/experiments/knapen_AOT/AOT_stimuli/rescaled_final/2154_rv.mp4	0.0	233.82416224479675	
43	204.31362867355347	fix_post	2		12	41.0	2.5	/experiments/knapen_AOT/AOT_stimuli/rescaled_final/2154_rv.mp4	0.0	235.14195275306702	0.10002255439758301
44	204.41365122795105	fix_pre	0		120	42.0	2.5	/experiments/knapen_AOT/AOT_stimuli/rescaled_final/1809_rv.mp4	0.0	235.2419753074646	1.0084905624389648
44	204.59733295440674	pulse	0	t		42.0	2.5	/experiments/knapen_AOT/AOT_stimuli/rescaled_final/1809_rv.mp4	0.0	235.4256570339203	
44	205.42214179039001	movie	1		282	42.0	2.5	/experiments/knapen_AOT/AOT_stimuli/rescaled_final/1809_rv.mp4	0.0	236.25046586990356	2.4920685291290283
44	206.1958029270172	pulse	1	t		42.0	2.5	/experiments/knapen_AOT/AOT_stimuli/rescaled_final/1809_rv.mp4	0.0	237.02412700653076	
44	207.79601883888245	pulse	1	t		42.0	2.5	/experiments/knapen_AOT/AOT_stimuli/rescaled_final/1809_rv.mp4	0.0	238.624342918396	
44	207.91421031951904	fix_post	2		12	42.0	2.5	/experiments/knapen_AOT/AOT_stimuli/rescaled_final/1809_rv.mp4	0.0	238.7425343990326	0.10001826286315918
45	208.0142285823822	fix_pre	0		120	43.0	2.5	/experiments/knapen_AOT/AOT_stimuli/rescaled_final/0031_rv.mp4	0.0	238.84255266189575	1.0084481239318848
45	209.0226767063141	movie	1		266	43.0	2.5	/experiments/knapen_AOT/AOT_stimuli/rescaled_final/0031_rv.mp4	0.0	239.85100078582764	2.4920246601104736
45	209.395849943161	pulse	1	t		43.0	2.5	/experiments/knapen_AOT/AOT_stimuli/rescaled_final/0031_rv.mp4	0.0	240.22417402267456	
45	210.99594974517822	pulse	1	t		43.0	2.5	/experiments/knapen_AOT/AOT_stimuli/rescaled_final/0031_rv.mp4	0.0	241.82427382469177	
45	211.51470136642456	fix_post	2		12	43.0	2.5	/experiments/knapen_AOT/AOT_stimuli/rescaled_final/0031_rv.mp4	0.0	242.3430254459381	0.10001015663146973
46	211.61471152305603	fix_pre	0		119	44.0	2.5	/experiments/knapen_AOT/AOT_stimuli/rescaled_final/0635_rv.mp4	0.0	242.44303560256958	1.0001766681671143
46	212.598397731781	pulse	0	t		44.0	2.5	/experiments/knapen_AOT/AOT_stimuli/rescaled_final/0635_rv.mp4	0.0	243.42672181129456	
46	212.61488819122314	movie	1		283	44.0	2.5	/experiments/knapen_AOT/AOT_stimuli/rescaled_final/0635_rv.mp4	0.0	243.4432122707367	2.500368595123291
46	214.19720911979675	pulse	1	t		44.0	2.5	/experiments/knapen_AOT/AOT_stimuli/rescaled_final/0635_rv.mp4	0.0	245.0255331993103	
46	215.11525678634644	fix_post	2		12	44.0	2.5	/experiments/knapen_AOT/AOT_stimuli/rescaled_final/0635_rv.mp4	0.0	245.94358086585999	0.10005426406860352
47	215.21531105041504	fix_pre	0		120	45.0	2.5	/experiments/knapen_AOT/AOT_stimuli/rescaled_final/0128_fw.mp4	0.0	246.0436351299286	1.0084800720214844
47	215.79891180992126	pulse	0	t		45.0	2.5	/experiments/knapen_AOT/AOT_stimuli/rescaled_final/0128_fw.mp4	0.0	246.62723588943481	
47	216.22379112243652	movie	1		281	45.0	2.5	/experiments/knapen_AOT/AOT_stimuli/rescaled_final/0128_fw.mp4	0.0	247.05211520195007	2.491982936859131
47	217.39783763885498	pulse	1	t		45.0	2.5	/experiments/knapen_AOT/AOT_stimuli/rescaled_final/0128_fw.mp4	0.0	248.22616171836853	
47	218.71577405929565	fix_post	2		12	45.0	2.5	/experiments/knapen_AOT/AOT_stimuli/rescaled_final/0128_fw.mp4	0.0	249.5440981388092	0.10006403923034668
48	218.815838098526	fix_pre	0		120	46.0	2.5	/experiments/knapen_AOT/AOT_stimuli/rescaled_final/2147_rv.mp4	0.0	249.64416217803955	1.008472204208374
48	218.9993393421173	pulse	0	t		46.0	2.5	/experiments/knapen_AOT/AOT_stimuli/rescaled_final/2147_rv.mp4	0.0	249.82766342163086	
48	219.82431030273438	movie	1		263	46.0	2.5	/experiments/knapen_AOT/AOT_stimuli/rescaled_final/2147_rv.mp4	0.0	250.65263438224792	2.492112398147583
48	220.5977702140808	pulse	1	t		46.0	2.5	/experiments/knapen_AOT/AOT_stimuli/rescaled_final/2147_rv.mp4	0.0	251.42609429359436	
48	222.1981132030487	pulse	1	t		46.0	2.5	/experiments/knapen_AOT/AOT_stimuli/rescaled_final/2147_rv.mp4	0.0	253.02643728256226	
48	222.31642270088196	fix_post	2		12	46.0	2.5	/experiments/knapen_AOT/AOT_stimuli/rescaled_final/2147_rv.mp4	0.0	253.1447467803955	0.09996557235717773
49	222.41638827323914	fix_pre	0		120	47.0	2.5	/experiments/knapen_AOT/AOT_stimuli/rescaled_final/1965_rv.mp4	0.0	253.24471235275269	1.0084559917449951
49	223.42484426498413	movie	1		270	47.0	2.5	/experiments/knapen_AOT/AOT_stimuli/rescaled_final/1965_rv.mp4	0.0	254.25316834449768	2.492140769958496
49	223.79826712608337	pulse	1	t		47.0	2.5	/experiments/knapen_AOT/AOT_stimuli/rescaled_final/1965_rv.mp4	0.0	254.62659120559692	
49	225.39839839935303	pulse	1	t		47.0	2.5	/experiments/knapen_AOT/AOT_stimuli/rescaled_final/1965_rv.mp4	0.0	256.2267224788666	
49	225.91698503494263	fix_post	2		12	47.0	2.5	/experiments/knapen_AOT/AOT_stimuli/rescaled_final/1965_rv.mp4	0.0	256.7453091144562	0.09989809989929199
50	226.01688313484192	fix_pre	0		119	48.0	2.5	/experiments/knapen_AOT/AOT_stimuli/rescaled_final/1263_fw.mp4	0.0	256.84520721435547	1.000143051147461
50	227.00059342384338	pulse	0	t		48.0	2.5	/experiments/knapen_AOT/AOT_stimuli/rescaled_final/1263_fw.mp4	0.0	257.82891750335693	
50	227.01702618598938	movie	1		286	48.0	2.5	/experiments/knapen_AOT/AOT_stimuli/rescaled_final/1263_fw.mp4	0.0	257.84535026550293	2.500403642654419
50	228.59921050071716	pulse	1	t		48.0	2.5	/experiments/knapen_AOT/AOT_stimuli/rescaled_final/1263_fw.mp4	0.0	259.4275345802307	
50	229.5174298286438	fix_post	2		12	48.0	2.5	/experiments/knapen_AOT/AOT_stimuli/rescaled_final/1263_fw.mp4	0.0	260.34575390815735	0.10004997253417969
51	229.61747980117798	fix_pre	0		120	49.0	2.5	blank	1.0	260.4458038806915	1.0001451969146729
51	230.19272685050964	pulse	0	t		49.0	2.5	blank	1.0	261.0210509300232	
51	230.61762499809265	movie	1		300	49.0	2.5	blank	1.0	261.4459490776062	2.5004208087921143
51	231.79295444488525	pulse	1	t		49.0	2.5	blank	1.0	262.6212785243988	
51	233.11804580688477	fix_post	2		12	49.0	2.5	blank	1.0	263.9463698863983	0.09994912147521973
52	233.21799492835999	fix_pre	0		120	50.0	2.5	/experiments/knapen_AOT/AOT_stimuli/rescaled_final/2153_rv.mp4	0.0	264.04631900787354	1.00852632522583
52	233.39331555366516	pulse	0	t		50.0	2.5	/experiments/knapen_AOT/AOT_stimuli/rescaled_final/2153_rv.mp4	0.0	264.2216396331787	
52	234.22652125358582	movie	1		285	50.0	2.5	/experiments/knapen_AOT/AOT_stimuli/rescaled_final/2153_rv.mp4	0.0	265.05484533309937	2.492006778717041
52	234.9934663772583	pulse	1	t		50.0	2.5	/experiments/knapen_AOT/AOT_stimuli/rescaled_final/2153_rv.mp4	0.0	265.82179045677185	
52	236.59382677078247	pulse	1	t		50.0	2.5	/experiments/knapen_AOT/AOT_stimuli/rescaled_final/2153_rv.mp4	0.0	267.422150850296	
52	236.71852803230286	fix_post	2		12	50.0	2.5	/experiments/knapen_AOT/AOT_stimuli/rescaled_final/2153_rv.mp4	0.0	267.5468521118164	0.09998273849487305
53	236.81851077079773	fix_pre	0		120	51.0	2.5	/experiments/knapen_AOT/AOT_stimuli/rescaled_final/1042_rv.mp4	0.0	267.6468348503113	1.0085012912750244
53	237.82701206207275	movie	1		275	51.0	2.5	/experiments/knapen_AOT/AOT_stimuli/rescaled_final/1042_rv.mp4	0.0	268.6553361415863	2.4921059608459473
53	238.1939880847931	pulse	1	t		51.0	2.5	/experiments/knapen_AOT/AOT_stimuli/rescaled_final/1042_rv.mp4	0.0	269.02231216430664	
53	239.79452753067017	pulse	1	t		51.0	2.5	/experiments/knapen_AOT/AOT_stimuli/rescaled_final/1042_rv.mp4	0.0	270.6228516101837	
53	240.3191180229187	fix_post	2		12	51.0	2.5	/experiments/knapen_AOT/AOT_stimuli/rescaled_final/1042_rv.mp4	0.0	271.14744210243225	0.0999290943145752
54	240.41904711723328	fix_pre	0		118	52.0	2.5	/experiments/knapen_AOT/AOT_stimuli/rescaled_final/0002_rv.mp4	0.0	271.2473711967468	0.991828441619873
54	241.39438700675964	pulse	0	t		52.0	2.5	/experiments/knapen_AOT/AOT_stimuli/rescaled_final/0002_rv.mp4	0.0	272.2227110862732	
54	241.41087555885315	movie	1		273	52.0	2.5	/experiments/knapen_AOT/AOT_stimuli/rescaled_final/0002_rv.mp4	0.0	272.2391996383667	2.500354766845703
54	242.9942488670349	pulse	1	t		52.0	2.5	/experiments/knapen_AOT/AOT_stimuli/rescaled_final/0002_rv.mp4	0.0	273.82257294654846	
54	243.91123032569885	fix_post	2		12	52.0	2.5	/experiments/knapen_AOT/AOT_stimuli/rescaled_final/0002_rv.mp4	0.0	274.7395544052124	0.10002017021179199
55	244.01125049591064	fix_pre	0		120	53.0	2.5	/experiments/knapen_AOT/AOT_stimuli/rescaled_final/0974_fw.mp4	0.0	274.8395745754242	1.0084912776947021
55	244.59489822387695	pulse	0	t		53.0	2.5	/experiments/knapen_AOT/AOT_stimuli/rescaled_final/0974_fw.mp4	0.0	275.4232223033905	
55	245.01974177360535	movie	1		281	53.0	2.5	/experiments/knapen_AOT/AOT_stimuli/rescaled_final/0974_fw.mp4	0.0	275.8480658531189	2.492030620574951
55	246.19353413581848	pulse	1	t		53.0	2.5	/experiments/knapen_AOT/AOT_stimuli/rescaled_final/0974_fw.mp4	0.0	277.02185821533203	
55	247.5117723941803	fix_post	2		12	53.0	2.5	/experiments/knapen_AOT/AOT_stimuli/rescaled_final/0974_fw.mp4	0.0	278.34009647369385	0.10000777244567871
56	247.61178016662598	fix_pre	0		120	54.0	2.5	/experiments/knapen_AOT/AOT_stimuli/rescaled_final/0212_fw.mp4	0.0	278.4401042461395	1.008512020111084
56	247.79534602165222	pulse	0	t		54.0	2.5	/experiments/knapen_AOT/AOT_stimuli/rescaled_final/0212_fw.mp4	0.0	278.62367010116577	
56	248.62029218673706	movie	1		278	54.0	2.5	/experiments/knapen_AOT/AOT_stimuli/rescaled_final/0212_fw.mp4	0.0	279.4486162662506	2.4920082092285156
56	249.39454627037048	pulse	1	t		54.0	2.5	/experiments/knapen_AOT/AOT_stimuli/rescaled_final/0212_fw.mp4	0.0	280.22287034988403	
56	250.9957685470581	pulse	1	t		54.0	2.5	/experiments/knapen_AOT/AOT_stimuli/rescaled_final/0212_fw.mp4	0.0	281.82409262657166	
56	251.11230039596558	fix_post	2		12	54.0	2.5	/experiments/knapen_AOT/AOT_stimuli/rescaled_final/0212_fw.mp4	0.0	281.9406244754791	0.10016918182373047
57	251.2124695777893	fix_pre	0		120	55.0	2.5	/experiments/knapen_AOT/AOT_stimuli/rescaled_final/0135_fw.mp4	0.0	282.04079365730286	1.0084714889526367
57	252.22094106674194	movie	1		276	55.0	2.5	/experiments/knapen_AOT/AOT_stimuli/rescaled_final/0135_fw.mp4	0.0	283.0492651462555	2.4919092655181885
57	252.59471440315247	pulse	1	t		55.0	2.5	/experiments/knapen_AOT/AOT_stimuli/rescaled_final/0135_fw.mp4	0.0	283.423038482666	
57	254.1945023536682	pulse	1	t		55.0	2.5	/experiments/knapen_AOT/AOT_stimuli/rescaled_final/0135_fw.mp4	0.0	285.02282643318176	
57	254.71285033226013	fix_post	2		12	55.0	2.5	/experiments/knapen_AOT/AOT_stimuli/rescaled_final/0135_fw.mp4	0.0	285.5411744117737	0.10018467903137207
58	254.8130350112915	fix_pre	0		119	56.0	2.5	blank	1.0	285.64135909080505	0.991685152053833
58	255.7966411113739	pulse	0	t		56.0	2.5	blank	1.0	286.62496519088745	
58	255.80472016334534	movie	1		301	56.0	2.5	blank	1.0	286.6330442428589	2.5086796283721924
58	257.39678835868835	pulse	1	t		56.0	2.5	blank	1.0	288.2251124382019	
58	258.31339979171753	fix_post	2		12	56.0	2.5	blank	1.0	289.1417238712311	0.10000967979431152
59	258.41340947151184	fix_pre	0		120	57.0	2.5	/experiments/knapen_AOT/AOT_stimuli/rescaled_final/0794_fw.mp4	0.0	289.2417335510254	1.0085420608520508
59	258.99704027175903	pulse	0	t		57.0	2.5	/experiments/knapen_AOT/AOT_stimuli/rescaled_final/0794_fw.mp4	0.0	289.8253643512726	
59	259.4219515323639	movie	1		279	57.0	2.5	/experiments/knapen_AOT/AOT_stimuli/rescaled_final/0794_fw.mp4	0.0	290.25027561187744	2.4920670986175537
59	260.59642457962036	pulse	1	t		57.0	2.5	/experiments/knapen_AOT/AOT_stimuli/rescaled_final/0794_fw.mp4	0.0	291.4247486591339	
59	261.91401863098145	fix_post	2		12	57.0	2.5	/experiments/knapen_AOT/AOT_stimuli/rescaled_final/0794_fw.mp4	0.0	292.742342710495	0.0999748706817627
60	262.0139935016632	fix_pre	0		120	58.0	2.5	/experiments/knapen_AOT/AOT_stimuli/rescaled_final/0508_fw.mp4	0.0	292.84231758117676	1.0084402561187744
60	262.1976330280304	pulse	0	t		58.0	2.5	/experiments/knapen_AOT/AOT_stimuli/rescaled_final/0508_fw.mp4	0.0	293.02595710754395	
60	263.022433757782	movie	1		281	58.0	2.5	/experiments/knapen_AOT/AOT_stimuli/rescaled_final/0508_fw.mp4	0.0	293.85075783729553	2.492035150527954
60	263.7955253124237	pulse	1	t		58.0	2.5	/experiments/knapen_AOT/AOT_stimuli/rescaled_final/0508_fw.mp4	0.0	294.62384939193726	
60	265.3962278366089	pulse	1	t		58.0	2.5	/experiments/knapen_AOT/AOT_stimuli/rescaled_final/0508_fw.mp4	0.0	296.22455191612244	
60	265.51446890830994	fix_post	2		12	58.0	2.5	/experiments/knapen_AOT/AOT_stimuli/rescaled_final/0508_fw.mp4	0.0	296.3427929878235	0.10003948211669922
61	265.61450839042664	fix_pre	0		120	59.0	2.5	/experiments/knapen_AOT/AOT_stimuli/rescaled_final/0593_rv.mp4	0.0	296.4428324699402	1.008605718612671
61	266.6231141090393	movie	1		273	59.0	2.5	/experiments/knapen_AOT/AOT_stimuli/rescaled_final/0593_rv.mp4	0.0	297.45143818855286	2.4919350147247314
61	266.99665665626526	pulse	1	t		59.0	2.5	/experiments/knapen_AOT/AOT_stimuli/rescaled_final/0593_rv.mp4	0.0	297.8249807357788	
61	268.5966808795929	pulse	1	t		59.0	2.5	/experiments/knapen_AOT/AOT_stimuli/rescaled_final/0593_rv.mp4	0.0	299.42500495910645	
61	269.11504912376404	fix_post	2		12	59.0	2.5	/experiments/knapen_AOT/AOT_stimuli/rescaled_final/0593_rv.mp4	0.0	299.9433732032776	0.10022497177124023
62	269.2152740955353	fix_pre	0		119	60.0	2.5	/experiments/knapen_AOT/AOT_stimuli/rescaled_final/0147_rv.mp4	0.0	300.0435981750488	1.0083930492401123
62	270.199107170105	pulse	0	t		60.0	2.5	/experiments/knapen_AOT/AOT_stimuli/rescaled_final/0147_rv.mp4	0.0	301.02743124961853	
62	270.2236671447754	movie	1		287	60.0	2.5	/experiments/knapen_AOT/AOT_stimuli/rescaled_final/0147_rv.mp4	0.0	301.05199122428894	2.4918859004974365
62	271.79731273651123	pulse	1	t		60.0	2.5	/experiments/knapen_AOT/AOT_stimuli/rescaled_final/0147_rv.mp4	0.0	302.6256368160248	
62	272.7155530452728	fix_post	2		12	60.0	2.5	/experiments/knapen_AOT/AOT_stimuli/rescaled_final/0147_rv.mp4	0.0	303.5438771247864	0.10002279281616211
63	272.815575838089	fix_pre	0		120	61.0	2.5	/experiments/knapen_AOT/AOT_stimuli/rescaled_final/0299_fw.mp4	0.0	303.64389991760254	1.0085675716400146
63	273.39916610717773	pulse	0	t		61.0	2.5	/experiments/knapen_AOT/AOT_stimuli/rescaled_final/0299_fw.mp4	0.0	304.2274901866913	
63	273.824143409729	movie	1		278	61.0	2.5	/experiments/knapen_AOT/AOT_stimuli/rescaled_final/0299_fw.mp4	0.0	304.65246748924255	2.4920222759246826
63	274.99783277511597	pulse	1	t		61.0	2.5	/experiments/knapen_AOT/AOT_stimuli/rescaled_final/0299_fw.mp4	0.0	305.8261568546295	
63	276.3161656856537	fix_post	2		12	61.0	2.5	/experiments/knapen_AOT/AOT_stimuli/rescaled_final/0299_fw.mp4	0.0	307.14448976516724	0.1000220775604248
64	276.4161877632141	fix_pre	0		120	62.0	2.5	/experiments/knapen_AOT/AOT_stimuli/rescaled_final/2017_rv.mp4	0.0	307.24451184272766	1.0084290504455566
64	276.5996654033661	pulse	0	t		62.0	2.5	/experiments/knapen_AOT/AOT_stimuli/rescaled_final/2017_rv.mp4	0.0	307.42798948287964	
64	277.42461681365967	movie	1		277	62.0	2.5	/experiments/knapen_AOT/AOT_stimuli/rescaled_final/2017_rv.mp4	0.0	308.2529408931732	2.4920921325683594
64	278.1979126930237	pulse	1	t		62.0	2.5	/experiments/knapen_AOT/AOT_stimuli/rescaled_final/2017_rv.mp4	0.0	309.02623677253723	
64	279.7992789745331	pulse	1	t		62.0	2.5	/experiments/knapen_AOT/AOT_stimuli/rescaled_final/2017_rv.mp4	0.0	310.62760305404663	
64	279.916708946228	fix_post	2		12	62.0	2.5	/experiments/knapen_AOT/AOT_stimuli/rescaled_final/2017_rv.mp4	0.0	310.7450330257416	0.09995007514953613
65	280.01665902137756	fix_pre	0		120	63.0	2.5	blank	1.0	310.8449831008911	1.0001335144042969
65	281.01679253578186	movie	1		300	63.0	2.5	blank	1.0	311.8451166152954	2.500455141067505
65	281.40040254592896	pulse	1	t		63.0	2.5	blank	1.0	312.2287266254425	
65	283.00062251091003	pulse	1	t		63.0	2.5	blank	1.0	313.8289465904236	
65	283.51724767684937	fix_post	2		12	63.0	2.5	blank	1.0	314.3455717563629	0.10000085830688477
66	283.61724853515625	fix_pre	0		119	64.0	2.5	/experiments/knapen_AOT/AOT_stimuli/rescaled_final/1928_fw.mp4	0.0	314.4455726146698	1.0002171993255615
66	284.59320068359375	pulse	0	t		64.0	2.5	/experiments/knapen_AOT/AOT_stimuli/rescaled_final/1928_fw.mp4	0.0	315.4215247631073	
66	284.6174657344818	movie	1		283	64.0	2.5	/experiments/knapen_AOT/AOT_stimuli/rescaled_final/1928_fw.mp4	0.0	315.44578981399536	2.5003249645233154
66	286.1930751800537	pulse	1	t		64.0	2.5	/experiments/knapen_AOT/AOT_stimuli/rescaled_final/1928_fw.mp4	0.0	317.02139925956726	
66	287.1177906990051	fix_post	2		12	64.0	2.5	/experiments/knapen_AOT/AOT_stimuli/rescaled_final/1928_fw.mp4	0.0	317.9461147785187	0.09994220733642578
67	287.21773290634155	fix_pre	0		120	65.0	2.5	/experiments/knapen_AOT/AOT_stimuli/rescaled_final/0489_fw.mp4	0.0	318.0460569858551	1.0084850788116455
67	287.7931089401245	pulse	0	t		65.0	2.5	/experiments/knapen_AOT/AOT_stimuli/rescaled_final/0489_fw.mp4	0.0	318.62143301963806	
67	288.2262179851532	movie	1		274	65.0	2.5	/experiments/knapen_AOT/AOT_stimuli/rescaled_final/0489_fw.mp4	0.0	319.05454206466675	2.4921064376831055
67	289.40190505981445	pulse	1	t		65.0	2.5	/experiments/knapen_AOT/AOT_stimuli/rescaled_final/0489_fw.mp4	0.0	320.230229139328	
67	290.7183244228363	fix_post	2		12	65.0	2.5	/experiments/knapen_AOT/AOT_stimuli/rescaled_final/0489_fw.mp4	0.0	321.54664850234985	0.10000252723693848
68	290.81832695007324	fix_pre	0		120	66.0	2.5	/experiments/knapen_AOT/AOT_stimuli/rescaled_final/1696_rv.mp4	0.0	321.6466510295868	1.0085079669952393
68	290.99353313446045	pulse	0	t		66.0	2.5	/experiments/knapen_AOT/AOT_stimuli/rescaled_final/1696_rv.mp4	0.0	321.821857213974	
68	291.8268349170685	movie	1		274	66.0	2.5	/experiments/knapen_AOT/AOT_stimuli/rescaled_final/1696_rv.mp4	0.0	322.65515899658203	2.491964817047119
68	292.59377360343933	pulse	1	t		66.0	2.5	/experiments/knapen_AOT/AOT_stimuli/rescaled_final/1696_rv.mp4	0.0	323.4220976829529	
68	294.19430780410767	pulse	1	t		66.0	2.5	/experiments/knapen_AOT/AOT_stimuli/rescaled_final/1696_rv.mp4	0.0	325.0226318836212	
68	294.3187997341156	fix_post	2		12	66.0	2.5	/experiments/knapen_AOT/AOT_stimuli/rescaled_final/1696_rv.mp4	0.0	325.14712381362915	0.10002803802490234
69	294.4188277721405	fix_pre	0		120	67.0	2.5	/experiments/knapen_AOT/AOT_stimuli/rescaled_final/1610_fw.mp4	0.0	325.24715185165405	1.0084664821624756
69	295.427294254303	movie	1		282	67.0	2.5	/experiments/knapen_AOT/AOT_stimuli/rescaled_final/1610_fw.mp4	0.0	326.2556183338165	2.4921133518218994
69	295.7949664592743	pulse	1	t		67.0	2.5	/experiments/knapen_AOT/AOT_stimuli/rescaled_final/1610_fw.mp4	0.0	326.62329053878784	
69	297.3945164680481	pulse	1	t		67.0	2.5	/experiments/knapen_AOT/AOT_stimuli/rescaled_final/1610_fw.mp4	0.0	328.22284054756165	
69	297.9194076061249	fix_post	2		12	67.0	2.5	/experiments/knapen_AOT/AOT_stimuli/rescaled_final/1610_fw.mp4	0.0	328.7477316856384	0.10001969337463379
70	298.0194272994995	fix_pre	0		118	68.0	2.5	/experiments/knapen_AOT/AOT_stimuli/rescaled_final/1182_rv.mp4	0.0	328.84775137901306	0.9917562007904053
70	298.9947409629822	pulse	0	t		68.0	2.5	/experiments/knapen_AOT/AOT_stimuli/rescaled_final/1182_rv.mp4	0.0	329.8230650424957	
70	299.0111835002899	movie	1		287	68.0	2.5	/experiments/knapen_AOT/AOT_stimuli/rescaled_final/1182_rv.mp4	0.0	329.83950757980347	2.500398635864258
70	300.5937957763672	pulse	1	t		68.0	2.5	/experiments/knapen_AOT/AOT_stimuli/rescaled_final/1182_rv.mp4	0.0	331.42211985588074	
70	301.5115821361542	fix_post	2		12	68.0	2.5	/experiments/knapen_AOT/AOT_stimuli/rescaled_final/1182_rv.mp4	0.0	332.3399062156677	0.09996771812438965
71	301.61154985427856	fix_pre	0		120	69.0	2.5	/experiments/knapen_AOT/AOT_stimuli/rescaled_final/2101_rv.mp4	0.0	332.4398739337921	1.0086100101470947
71	302.19529271125793	pulse	0	t		69.0	2.5	/experiments/knapen_AOT/AOT_stimuli/rescaled_final/2101_rv.mp4	0.0	333.0236167907715	
71	302.62015986442566	movie	1		283	69.0	2.5	/experiments/knapen_AOT/AOT_stimuli/rescaled_final/2101_rv.mp4	0.0	333.4484839439392	2.491936683654785
71	303.7934784889221	pulse	1	t		69.0	2.5	/experiments/knapen_AOT/AOT_stimuli/rescaled_final/2101_rv.mp4	0.0	334.62180256843567	
71	305.11209654808044	fix_post	2		12	69.0	2.5	/experiments/knapen_AOT/AOT_stimuli/rescaled_final/2101_rv.mp4	0.0	335.940420627594	0.10001778602600098
72	305.21211433410645	fix_pre	0		120	70.0	2.5	blank	1.0	336.04043841362	1.0001702308654785
72	305.39569759368896	pulse	0	t		70.0	2.5	blank	1.0	336.2240216732025	
72	306.2122845649719	movie	1		300	70.0	2.5	blank	1.0	337.0406086444855	2.50032901763916
72	306.9959900379181	pulse	1	t		70.0	2.5	blank	1.0	337.82431411743164	
72	308.59619903564453	pulse	1	t		70.0	2.5	blank	1.0	339.4245231151581	
72	308.7126135826111	fix_post	2		12	70.0	2.5	blank	1.0	339.54093766212463	0.10004878044128418
73	308.81266236305237	fix_pre	0		120	71.0	2.5	/experiments/knapen_AOT/AOT_stimuli/rescaled_final/1616_rv.mp4	0.0	339.6409864425659	1.0084688663482666
73	309.82113122940063	movie	1		278	71.0	2.5	/experiments/knapen_AOT/AOT_stimuli/rescaled_final/1616_rv.mp4	0.0	340.6494553089142	2.4920356273651123
73	310.1954550743103	pulse	1	t		71.0	2.5	/experiments/knapen_AOT/AOT_stimuli/rescaled_final/1616_rv.mp4	0.0	341.02377915382385	
73	311.7946307659149	pulse	1	t		71.0	2.5	/experiments/knapen_AOT/AOT_stimuli/rescaled_final/1616_rv.mp4	0.0	342.62295484542847	
73	312.31316685676575	fix_post	2		12	71.0	2.5	/experiments/knapen_AOT/AOT_stimuli/rescaled_final/1616_rv.mp4	0.0	343.1414909362793	0.1000664234161377
74	312.4132332801819	fix_pre	0		119	72.0	2.5	/experiments/knapen_AOT/AOT_stimuli/rescaled_final/1068_rv.mp4	0.0	343.24155735969543	1.0001089572906494
74	313.39700293540955	pulse	0	t		72.0	2.5	/experiments/knapen_AOT/AOT_stimuli/rescaled_final/1068_rv.mp4	0.0	344.2253270149231	
74	313.41334223747253	movie	1		276	72.0	2.5	/experiments/knapen_AOT/AOT_stimuli/rescaled_final/1068_rv.mp4	0.0	344.2416663169861	2.5003650188446045
74	314.995810508728	pulse	1	t		72.0	2.5	/experiments/knapen_AOT/AOT_stimuli/rescaled_final/1068_rv.mp4	0.0	345.8241345882416	
74	315.91370725631714	fix_post	2		12	72.0	2.5	/experiments/knapen_AOT/AOT_stimuli/rescaled_final/1068_rv.mp4	0.0	346.7420313358307	0.10001993179321289
75	316.01372718811035	fix_pre	0		120	73.0	2.5	/experiments/knapen_AOT/AOT_stimuli/rescaled_final/1753_fw.mp4	0.0	346.8420512676239	1.0085172653198242
75	316.59729075431824	pulse	0	t		73.0	2.5	/experiments/knapen_AOT/AOT_stimuli/rescaled_final/1753_fw.mp4	0.0	347.4256148338318	
75	317.0222444534302	movie	1		286	73.0	2.5	/experiments/knapen_AOT/AOT_stimuli/rescaled_final/1753_fw.mp4	0.0	347.8505685329437	2.492011785507202
75	318.1980128288269	pulse	1	t		73.0	2.5	/experiments/knapen_AOT/AOT_stimuli/rescaled_final/1753_fw.mp4	0.0	349.02633690834045	
75	319.5142562389374	fix_post	2		12	73.0	2.5	/experiments/knapen_AOT/AOT_stimuli/rescaled_final/1753_fw.mp4	0.0	350.3425803184509	0.10001301765441895
76	319.6142692565918	fix_pre	0		120	74.0	2.5	/experiments/knapen_AOT/AOT_stimuli/rescaled_final/1304_rv.mp4	0.0	350.44259333610535	1.008507251739502
76	319.7980263233185	pulse	0	t		74.0	2.5	/experiments/knapen_AOT/AOT_stimuli/rescaled_final/1304_rv.mp4	0.0	350.62635040283203	
76	320.6227765083313	movie	1		282	74.0	2.5	/experiments/knapen_AOT/AOT_stimuli/rescaled_final/1304_rv.mp4	0.0	351.45110058784485	2.492023468017578
76	321.39607310295105	pulse	1	t		74.0	2.5	/experiments/knapen_AOT/AOT_stimuli/rescaled_final/1304_rv.mp4	0.0	352.2243971824646	
76	322.99654054641724	pulse	1	t		74.0	2.5	/experiments/knapen_AOT/AOT_stimuli/rescaled_final/1304_rv.mp4	0.0	353.8248646259308	
76	323.1147999763489	fix_post	2		12	74.0	2.5	/experiments/knapen_AOT/AOT_stimuli/rescaled_final/1304_rv.mp4	0.0	353.9431240558624	0.10004329681396484
77	323.21484327316284	fix_pre	0		120	75.0	2.5	/experiments/knapen_AOT/AOT_stimuli/rescaled_final/0280_fw.mp4	0.0	354.0431673526764	1.0085229873657227
77	324.22336626052856	movie	1		269	75.0	2.5	/experiments/knapen_AOT/AOT_stimuli/rescaled_final/0280_fw.mp4	0.0	355.0516903400421	2.4919989109039307
77	324.597660779953	pulse	1	t		75.0	2.5	/experiments/knapen_AOT/AOT_stimuli/rescaled_final/0280_fw.mp4	0.0	355.42598485946655	
77	326.1980423927307	pulse	1	t		75.0	2.5	/experiments/knapen_AOT/AOT_stimuli/rescaled_final/0280_fw.mp4	0.0	357.02636647224426	
77	326.7153651714325	fix_post	2		12	75.0	2.5	/experiments/knapen_AOT/AOT_stimuli/rescaled_final/0280_fw.mp4	0.0	357.54368925094604	0.09998846054077148
78	326.81535363197327	fix_pre	0		119	76.0	2.5	/experiments/knapen_AOT/AOT_stimuli/rescaled_final/1928_fw.mp4	0.0	357.6436777114868	1.0088493824005127
78	327.79907178878784	pulse	0	t		76.0	2.5	/experiments/knapen_AOT/AOT_stimuli/rescaled_final/1928_fw.mp4	0.0	358.6273958683014	
78	327.8242030143738	movie	1		278	76.0	2.5	/experiments/knapen_AOT/AOT_stimuli/rescaled_final/1928_fw.mp4	0.0	358.65252709388733	2.491692304611206
78	329.3974950313568	pulse	1	t		76.0	2.5	/experiments/knapen_AOT/AOT_stimuli/rescaled_final/1928_fw.mp4	0.0	360.22581911087036	
78	330.315895318985	fix_post	2		12	76.0	2.5	/experiments/knapen_AOT/AOT_stimuli/rescaled_final/1928_fw.mp4	0.0	361.14421939849854	0.09999752044677734
79	330.41589283943176	fix_pre	0		120	77.0	2.5	blank	1.0	361.2442169189453	1.0001354217529297
79	330.99957489967346	pulse	0	t		77.0	2.5	blank	1.0	361.827898979187	
79	331.4160282611847	movie	1		300	77.0	2.5	blank	1.0	362.24435234069824	2.5003910064697266
79	332.59978222846985	pulse	1	t		77.0	2.5	blank	1.0	363.4281063079834	
79	333.9164192676544	fix_post	2		12	77.0	2.5	blank	1.0	364.74474334716797	0.10006165504455566
80	334.016480922699	fix_pre	0		120	78.0	2.5	/experiments/knapen_AOT/AOT_stimuli/rescaled_final/0055_rv.mp4	0.0	364.8448050022125	1.0085241794586182
80	334.20012879371643	pulse	0	t		78.0	2.5	/experiments/knapen_AOT/AOT_stimuli/rescaled_final/0055_rv.mp4	0.0	365.02845287323	
80	335.0250051021576	movie	1		280	78.0	2.5	/experiments/knapen_AOT/AOT_stimuli/rescaled_final/0055_rv.mp4	0.0	365.85332918167114	2.492049217224121
80	335.799254655838	pulse	1	t		78.0	2.5	/experiments/knapen_AOT/AOT_stimuli/rescaled_final/0055_rv.mp4	0.0	366.62757873535156	
80	337.39858078956604	pulse	1	t		78.0	2.5	/experiments/knapen_AOT/AOT_stimuli/rescaled_final/0055_rv.mp4	0.0	368.2269048690796	
80	337.5170543193817	fix_post	2		12	78.0	2.5	/experiments/knapen_AOT/AOT_stimuli/rescaled_final/0055_rv.mp4	0.0	368.34537839889526	0.09997701644897461
81	337.6170313358307	fix_pre	0		120	79.0	2.5	/experiments/knapen_AOT/AOT_stimuli/rescaled_final/0474_fw.mp4	0.0	368.44535541534424	1.0084526538848877
81	338.6254839897156	movie	1		287	79.0	2.5	/experiments/knapen_AOT/AOT_stimuli/rescaled_final/0474_fw.mp4	0.0	369.4538080692291	2.4920153617858887
81	338.9991822242737	pulse	1	t		79.0	2.5	/experiments/knapen_AOT/AOT_stimuli/rescaled_final/0474_fw.mp4	0.0	369.82750630378723	
81	340.59921860694885	pulse	1	t		79.0	2.5	/experiments/knapen_AOT/AOT_stimuli/rescaled_final/0474_fw.mp4	0.0	371.4275426864624	
81	341.11749935150146	fix_post	2		12	79.0	2.5	/experiments/knapen_AOT/AOT_stimuli/rescaled_final/0474_fw.mp4	0.0	371.945823431015	0.10002827644348145
82	341.21752762794495	fix_pre	0		119	80.0	2.5	/experiments/knapen_AOT/AOT_stimuli/rescaled_final/0147_fw.mp4	0.0	372.0458517074585	1.0002658367156982
82	342.19431734085083	pulse	0	t		80.0	2.5	/experiments/knapen_AOT/AOT_stimuli/rescaled_final/0147_fw.mp4	0.0	373.0226414203644	
82	342.21779346466064	movie	1		276	80.0	2.5	/experiments/knapen_AOT/AOT_stimuli/rescaled_final/0147_fw.mp4	0.0	373.0461175441742	2.500244379043579
82	343.79996371269226	pulse	1	t		80.0	2.5	/experiments/knapen_AOT/AOT_stimuli/rescaled_final/0147_fw.mp4	0.0	374.6282877922058	
82	344.7180378437042	fix_post	2		12	80.0	2.5	/experiments/knapen_AOT/AOT_stimuli/rescaled_final/0147_fw.mp4	0.0	375.5463619232178	0.10001611709594727
83	344.81805396080017	fix_pre	0		120	81.0	2.5	/experiments/knapen_AOT/AOT_stimuli/rescaled_final/1412_rv.mp4	0.0	375.6463780403137	1.0085129737854004
83	345.3935375213623	pulse	0	t		81.0	2.5	/experiments/knapen_AOT/AOT_stimuli/rescaled_final/1412_rv.mp4	0.0	376.22186160087585	
83	345.82656693458557	movie	1		293	81.0	2.5	/experiments/knapen_AOT/AOT_stimuli/rescaled_final/1412_rv.mp4	0.0	376.6548910140991	2.4920098781585693
83	346.99360036849976	pulse	1	t		81.0	2.5	/experiments/knapen_AOT/AOT_stimuli/rescaled_final/1412_rv.mp4	0.0	377.8219244480133	
83	348.31857681274414	fix_post	2		12	81.0	2.5	/experiments/knapen_AOT/AOT_stimuli/rescaled_final/1412_rv.mp4	0.0	379.1469008922577	0.1000208854675293
84	348.41859769821167	fix_pre	0		120	82.0	2.5	/experiments/knapen_AOT/AOT_stimuli/rescaled_final/0614_fw.mp4	0.0	379.2469217777252	1.0085077285766602
84	348.59401988983154	pulse	0	t		82.0	2.5	/experiments/knapen_AOT/AOT_stimuli/rescaled_final/0614_fw.mp4	0.0	379.4223439693451	
84	349.42710542678833	movie	1		282	82.0	2.5	/experiments/knapen_AOT/AOT_stimuli/rescaled_final/0614_fw.mp4	0.0	380.2554295063019	2.49202299118042
84	350.19431042671204	pulse	1	t		82.0	2.5	/experiments/knapen_AOT/AOT_stimuli/rescaled_final/0614_fw.mp4	0.0	381.0226345062256	
84	351.7942876815796	pulse	1	t		82.0	2.5	/experiments/knapen_AOT/AOT_stimuli/rescaled_final/0614_fw.mp4	0.0	382.62261176109314	
84	351.91912841796875	fix_post	2		12	82.0	2.5	/experiments/knapen_AOT/AOT_stimuli/rescaled_final/0614_fw.mp4	0.0	382.7474524974823	0.10001301765441895
85	352.01914143562317	fix_pre	0		120	83.0	2.5	blank	1.0	382.8474655151367	1.0002233982086182
85	353.0193648338318	movie	1		300	83.0	2.5	blank	1.0	383.84768891334534	2.5003433227539062
85	353.39455246925354	pulse	1	t		83.0	2.5	blank	1.0	384.2228765487671	
85	354.9947896003723	pulse	1	t		83.0	2.5	blank	1.0	385.82311367988586	
85	355.5197081565857	fix_post	2		12	83.0	2.5	blank	1.0	386.34803223609924	0.09993600845336914
87	355.61964416503906	stim	0		1716					386.4479682445526	14.302184343338013
87	356.59512591362	pulse	0	t						387.42344999313354	
87	358.19542384147644	pulse	0	t						389.02374792099	
87	359.7954831123352	pulse	0	t						390.62380719184875	
87	361.39576983451843	pulse	0	t						392.224093914032	
87	362.99605917930603	pulse	0	t						393.8243832588196	
87	364.5962915420532	pulse	0	t						395.4246156215668	
87	366.19647192955017	pulse	0	t						397.0247960090637	
87	367.79688358306885	pulse	0	t						398.6252076625824	
87	369.39700984954834	pulse	0	t						400.2253339290619	
