trial_nr	onset	event_type	phase	response	nr_frames	movie_index	movie_duration	movie_file	blank	onset_abs	duration
0	0.2165529727935791	stim	0		1634					37.923622131347656	13.618544101715088
0	13.827129125595093	response	0	space						51.53419828414917	
1	13.835097074508667	stim	0		4101					51.542166233062744	34.18970704078674
1	48.015021085739136	pulse	0	t						85.72209024429321	
1	48.02480411529541	stim	1		1715					85.73187327384949	14.300902843475342
1	49.607333183288574	pulse	1	t						87.31440234184265	
1	51.2075731754303	pulse	1	t						88.91464233398438	
1	52.80772614479065	pulse	1	t						90.51479530334473	
1	54.40798807144165	pulse	1	t						92.11505722999573	
1	56.00827598571777	pulse	1	t						93.71534514427185	
1	57.60839915275574	pulse	1	t						95.31546831130981	
1	59.20874810218811	pulse	1	t						96.91581726074219	
1	60.808881998062134	pulse	1	t						98.51595115661621	
2	62.32570695877075	fix_pre	0		11	0.0	2.5	/experiments/knapen_AOT/AOT_stimuli/rescaled_final/1386_rv.mp4	0.0	100.03277611732483	0.14164519309997559
2	62.40927314758301	pulse	0	t		0.0	2.5	/experiments/knapen_AOT/AOT_stimuli/rescaled_final/1386_rv.mp4	0.0	100.11634230613708	
2	62.46735215187073	movie	1		238	0.0	2.5	/experiments/knapen_AOT/AOT_stimuli/rescaled_final/1386_rv.mp4	0.0	100.1744213104248	2.4588370323181152
2	64.01007914543152	pulse	1	t		0.0	2.5	/experiments/knapen_AOT/AOT_stimuli/rescaled_final/1386_rv.mp4	0.0	101.7171483039856	
2	64.92618918418884	fix_post	2		12	0.0	2.5	/experiments/knapen_AOT/AOT_stimuli/rescaled_final/1386_rv.mp4	0.0	102.63325834274292	0.09993195533752441
3	65.02612113952637	fix_pre	0		120	1.0	2.5	/experiments/knapen_AOT/AOT_stimuli/rescaled_final/2095_fw.mp4	0.0	102.73319029808044	1.0001230239868164
3	65.60226798057556	pulse	0	t		1.0	2.5	/experiments/knapen_AOT/AOT_stimuli/rescaled_final/2095_fw.mp4	0.0	103.30933713912964	
3	66.02624416351318	movie	1		245	1.0	2.5	/experiments/knapen_AOT/AOT_stimuli/rescaled_final/2095_fw.mp4	0.0	103.73331332206726	2.5003249645233154
3	67.2100281715393	pulse	1	t		1.0	2.5	/experiments/knapen_AOT/AOT_stimuli/rescaled_final/2095_fw.mp4	0.0	104.91709733009338	
3	68.5265691280365	fix_post	2		12	1.0	2.5	/experiments/knapen_AOT/AOT_stimuli/rescaled_final/2095_fw.mp4	0.0	106.23363828659058	0.10010504722595215
4	68.62667417526245	fix_pre	0		120	2.0	2.5	/experiments/knapen_AOT/AOT_stimuli/rescaled_final/0260_fw.mp4	0.0	106.33374333381653	1.0000898838043213
4	68.80277395248413	pulse	0	t		2.0	2.5	/experiments/knapen_AOT/AOT_stimuli/rescaled_final/0260_fw.mp4	0.0	106.50984311103821	
4	69.62676405906677	movie	1		246	2.0	2.5	/experiments/knapen_AOT/AOT_stimuli/rescaled_final/0260_fw.mp4	0.0	107.33383321762085	2.500325918197632
4	70.4029769897461	pulse	1	t		2.0	2.5	/experiments/knapen_AOT/AOT_stimuli/rescaled_final/0260_fw.mp4	0.0	108.11004614830017	
4	72.00240302085876	pulse	1	t		2.0	2.5	/experiments/knapen_AOT/AOT_stimuli/rescaled_final/0260_fw.mp4	0.0	109.70947217941284	
4	72.1270899772644	fix_post	2		12	2.0	2.5	/experiments/knapen_AOT/AOT_stimuli/rescaled_final/0260_fw.mp4	0.0	109.83415913581848	0.10004019737243652
5	72.22713017463684	fix_pre	0		120	3.0	2.5	/experiments/knapen_AOT/AOT_stimuli/rescaled_final/1059_fw.mp4	0.0	109.93419933319092	1.000154972076416
5	73.22728514671326	movie	1		244	3.0	2.5	/experiments/knapen_AOT/AOT_stimuli/rescaled_final/1059_fw.mp4	0.0	110.93435430526733	2.4920129776000977
5	73.60249900817871	pulse	1	t		3.0	2.5	/experiments/knapen_AOT/AOT_stimuli/rescaled_final/1059_fw.mp4	0.0	111.30956816673279	
5	75.2029230594635	pulse	1	t		3.0	2.5	/experiments/knapen_AOT/AOT_stimuli/rescaled_final/1059_fw.mp4	0.0	112.90999221801758	
5	75.71929812431335	fix_post	2		12	3.0	2.5	/experiments/knapen_AOT/AOT_stimuli/rescaled_final/1059_fw.mp4	0.0	113.42636728286743	0.1000518798828125
6	75.81935000419617	fix_pre	0		119	4.0	2.5	/experiments/knapen_AOT/AOT_stimuli/rescaled_final/1283_fw.mp4	0.0	113.52641916275024	0.9918341636657715
6	76.80303001403809	pulse	0	t		4.0	2.5	/experiments/knapen_AOT/AOT_stimuli/rescaled_final/1283_fw.mp4	0.0	114.51009917259216	
6	76.81118416786194	movie	1		245	4.0	2.5	/experiments/knapen_AOT/AOT_stimuli/rescaled_final/1283_fw.mp4	0.0	114.51825332641602	2.5087108612060547
6	78.40780401229858	pulse	1	t		4.0	2.5	/experiments/knapen_AOT/AOT_stimuli/rescaled_final/1283_fw.mp4	0.0	116.11487317085266	
6	79.319895029068	fix_post	2		12	4.0	2.5	/experiments/knapen_AOT/AOT_stimuli/rescaled_final/1283_fw.mp4	0.0	117.02696418762207	0.10001611709594727
7	79.41991114616394	fix_pre	0		120	5.0	2.5	blank	1.0	117.12698030471802	1.0001168251037598
7	80.00345611572266	pulse	0	t		5.0	2.5	blank	1.0	117.71052527427673	
7	80.4200279712677	movie	1		300	5.0	2.5	blank	1.0	118.12709712982178	2.50039005279541
7	81.6037380695343	pulse	1	t		5.0	2.5	blank	1.0	119.31080722808838	
7	82.92041802406311	fix_post	2		12	5.0	2.5	blank	1.0	120.62748718261719	0.1000220775604248
8	83.02044010162354	fix_pre	0		120	6.0	2.5	/experiments/knapen_AOT/AOT_stimuli/rescaled_final/0611_rv.mp4	0.0	120.72750926017761	1.0001280307769775
8	83.20400500297546	pulse	0	t		6.0	2.5	/experiments/knapen_AOT/AOT_stimuli/rescaled_final/0611_rv.mp4	0.0	120.91107416152954	
8	84.02056813240051	movie	1		245	6.0	2.5	/experiments/knapen_AOT/AOT_stimuli/rescaled_final/0611_rv.mp4	0.0	121.72763729095459	2.500363826751709
8	84.80422616004944	pulse	1	t		6.0	2.5	/experiments/knapen_AOT/AOT_stimuli/rescaled_final/0611_rv.mp4	0.0	122.51129531860352	
8	86.40451312065125	pulse	1	t		6.0	2.5	/experiments/knapen_AOT/AOT_stimuli/rescaled_final/0611_rv.mp4	0.0	124.11158227920532	
8	86.52093195915222	fix_post	2		12	6.0	2.5	/experiments/knapen_AOT/AOT_stimuli/rescaled_final/0611_rv.mp4	0.0	124.2280011177063	0.10003113746643066
9	86.62096309661865	fix_pre	0		119	7.0	2.5	/experiments/knapen_AOT/AOT_stimuli/rescaled_final/1442_fw.mp4	0.0	124.32803225517273	0.9917869567871094
9	87.61275005340576	movie	1		244	7.0	2.5	/experiments/knapen_AOT/AOT_stimuli/rescaled_final/1442_fw.mp4	0.0	125.31981921195984	2.5003910064697266
9	88.00486707687378	pulse	1	t		7.0	2.5	/experiments/knapen_AOT/AOT_stimuli/rescaled_final/1442_fw.mp4	0.0	125.71193623542786	
9	89.60503101348877	pulse	1	t		7.0	2.5	/experiments/knapen_AOT/AOT_stimuli/rescaled_final/1442_fw.mp4	0.0	127.31210017204285	
9	90.11314105987549	fix_post	2		12	7.0	2.5	/experiments/knapen_AOT/AOT_stimuli/rescaled_final/1442_fw.mp4	0.0	127.82021021842957	0.10002803802490234
10	90.21316909790039	fix_pre	0		120	8.0	2.5	/experiments/knapen_AOT/AOT_stimuli/rescaled_final/1537_fw.mp4	0.0	127.92023825645447	1.0001380443572998
10	91.20517110824585	pulse	0	t		8.0	2.5	/experiments/knapen_AOT/AOT_stimuli/rescaled_final/1537_fw.mp4	0.0	128.91224026679993	
10	91.21330714225769	movie	1		246	8.0	2.5	/experiments/knapen_AOT/AOT_stimuli/rescaled_final/1537_fw.mp4	0.0	128.92037630081177	2.5087878704071045
10	92.80579805374146	pulse	1	t		8.0	2.5	/experiments/knapen_AOT/AOT_stimuli/rescaled_final/1537_fw.mp4	0.0	130.51286721229553	
10	93.7220950126648	fix_post	2		12	8.0	2.5	/experiments/knapen_AOT/AOT_stimuli/rescaled_final/1537_fw.mp4	0.0	131.42916417121887	0.09994316101074219
11	93.82203817367554	fix_pre	0		120	9.0	2.5	/experiments/knapen_AOT/AOT_stimuli/rescaled_final/0562_rv.mp4	0.0	131.52910733222961	1.0001418590545654
11	94.40571403503418	pulse	0	t		9.0	2.5	/experiments/knapen_AOT/AOT_stimuli/rescaled_final/0562_rv.mp4	0.0	132.11278319358826	
11	94.8221800327301	movie	1		268	9.0	2.5	/experiments/knapen_AOT/AOT_stimuli/rescaled_final/0562_rv.mp4	0.0	132.52924919128418	2.500373125076294
11	96.00606417655945	pulse	1	t		9.0	2.5	/experiments/knapen_AOT/AOT_stimuli/rescaled_final/0562_rv.mp4	0.0	133.71313333511353	
11	97.3225531578064	fix_post	2		12	9.0	2.5	/experiments/knapen_AOT/AOT_stimuli/rescaled_final/0562_rv.mp4	0.0	135.02962231636047	0.10007596015930176
12	97.4226291179657	fix_pre	0		120	10.0	2.5	/experiments/knapen_AOT/AOT_stimuli/rescaled_final/0643_rv.mp4	0.0	135.12969827651978	1.0000669956207275
12	97.606290102005	pulse	0	t		10.0	2.5	/experiments/knapen_AOT/AOT_stimuli/rescaled_final/0643_rv.mp4	0.0	135.31335926055908	
12	98.42269611358643	movie	1		249	10.0	2.5	/experiments/knapen_AOT/AOT_stimuli/rescaled_final/0643_rv.mp4	0.0	136.1297652721405	2.5003809928894043
12	99.20632195472717	pulse	1	t		10.0	2.5	/experiments/knapen_AOT/AOT_stimuli/rescaled_final/0643_rv.mp4	0.0	136.91339111328125	
12	100.8068060874939	pulse	1	t		10.0	2.5	/experiments/knapen_AOT/AOT_stimuli/rescaled_final/0643_rv.mp4	0.0	138.51387524604797	
12	100.92307710647583	fix_post	2		12	10.0	2.5	/experiments/knapen_AOT/AOT_stimuli/rescaled_final/0643_rv.mp4	0.0	138.6301462650299	0.10004401206970215
13	101.02312111854553	fix_pre	0		119	11.0	2.5	/experiments/knapen_AOT/AOT_stimuli/rescaled_final/1670_rv.mp4	0.0	138.7301902770996	0.9919168949127197
13	102.01503801345825	movie	1		247	11.0	2.5	/experiments/knapen_AOT/AOT_stimuli/rescaled_final/1670_rv.mp4	0.0	139.72210717201233	2.5002601146698
13	102.40702104568481	pulse	1	t		11.0	2.5	/experiments/knapen_AOT/AOT_stimuli/rescaled_final/1670_rv.mp4	0.0	140.1140902042389	
13	104.00716710090637	pulse	1	t		11.0	2.5	/experiments/knapen_AOT/AOT_stimuli/rescaled_final/1670_rv.mp4	0.0	141.71423625946045	
13	104.51529812812805	fix_post	2		12	11.0	2.5	/experiments/knapen_AOT/AOT_stimuli/rescaled_final/1670_rv.mp4	0.0	142.22236728668213	0.10015082359313965
14	104.61544895172119	fix_pre	0		118	12.0	2.5	/experiments/knapen_AOT/AOT_stimuli/rescaled_final/1036_rv.mp4	0.0	142.32251811027527	1.0000920295715332
14	105.60728406906128	pulse	0	t		12.0	2.5	/experiments/knapen_AOT/AOT_stimuli/rescaled_final/1036_rv.mp4	0.0	143.31435322761536	
14	105.61554098129272	movie	1		245	12.0	2.5	/experiments/knapen_AOT/AOT_stimuli/rescaled_final/1036_rv.mp4	0.0	143.3226101398468	2.508618116378784
14	107.2080671787262	pulse	1	t		12.0	2.5	/experiments/knapen_AOT/AOT_stimuli/rescaled_final/1036_rv.mp4	0.0	144.91513633728027	
14	108.12415909767151	fix_post	2		12	12.0	2.5	/experiments/knapen_AOT/AOT_stimuli/rescaled_final/1036_rv.mp4	0.0	145.8312282562256	0.10001206398010254
15	108.22417116165161	fix_pre	0		120	13.0	2.5	/experiments/knapen_AOT/AOT_stimuli/rescaled_final/1345_fw.mp4	0.0	145.9312403202057	1.0002038478851318
15	108.80787110328674	pulse	0	t		13.0	2.5	/experiments/knapen_AOT/AOT_stimuli/rescaled_final/1345_fw.mp4	0.0	146.51494026184082	
15	109.22437500953674	movie	1		244	13.0	2.5	/experiments/knapen_AOT/AOT_stimuli/rescaled_final/1345_fw.mp4	0.0	146.93144416809082	2.500296115875244
15	110.4082350730896	pulse	1	t		13.0	2.5	/experiments/knapen_AOT/AOT_stimuli/rescaled_final/1345_fw.mp4	0.0	148.11530423164368	
15	111.72467112541199	fix_post	2		12	13.0	2.5	/experiments/knapen_AOT/AOT_stimuli/rescaled_final/1345_fw.mp4	0.0	149.43174028396606	0.1000359058380127
16	111.82470703125	fix_pre	0		120	14.0	2.5	blank	1.0	149.53177618980408	1.000157117843628
16	112.00838017463684	pulse	0	t		14.0	2.5	blank	1.0	149.71544933319092	
16	112.82486414909363	movie	1		300	14.0	2.5	blank	1.0	150.5319333076477	2.500394821166992
16	113.60848212242126	pulse	1	t		14.0	2.5	blank	1.0	151.31555128097534	
16	115.20877814292908	pulse	1	t		14.0	2.5	blank	1.0	152.91584730148315	
16	115.32525897026062	fix_post	2		12	14.0	2.5	blank	1.0	153.0323281288147	0.09997820854187012
17	115.42523717880249	fix_pre	0		119	15.0	2.5	/experiments/knapen_AOT/AOT_stimuli/rescaled_final/0783_fw.mp4	0.0	153.13230633735657	0.9918568134307861
17	116.41709399223328	movie	1		247	15.0	2.5	/experiments/knapen_AOT/AOT_stimuli/rescaled_final/0783_fw.mp4	0.0	154.12416315078735	2.500339984893799
17	116.8091971874237	pulse	1	t		15.0	2.5	/experiments/knapen_AOT/AOT_stimuli/rescaled_final/0783_fw.mp4	0.0	154.51626634597778	
17	118.4019181728363	pulse	1	t		15.0	2.5	/experiments/knapen_AOT/AOT_stimuli/rescaled_final/0783_fw.mp4	0.0	156.10898733139038	
17	118.91743397712708	fix_post	2		12	15.0	2.5	/experiments/knapen_AOT/AOT_stimuli/rescaled_final/0783_fw.mp4	0.0	156.62450313568115	0.10002398490905762
18	119.01745796203613	fix_pre	0		120	16.0	2.5	/experiments/knapen_AOT/AOT_stimuli/rescaled_final/0912_fw.mp4	0.0	156.7245271205902	1.0002081394195557
18	120.00196504592896	pulse	0	t		16.0	2.5	/experiments/knapen_AOT/AOT_stimuli/rescaled_final/0912_fw.mp4	0.0	157.70903420448303	
18	120.01766610145569	movie	1		247	16.0	2.5	/experiments/knapen_AOT/AOT_stimuli/rescaled_final/0912_fw.mp4	0.0	157.72473526000977	2.5086209774017334
18	121.61023712158203	pulse	1	t		16.0	2.5	/experiments/knapen_AOT/AOT_stimuli/rescaled_final/0912_fw.mp4	0.0	159.3173062801361	
18	122.52628707885742	fix_post	2		12	16.0	2.5	/experiments/knapen_AOT/AOT_stimuli/rescaled_final/0912_fw.mp4	0.0	160.2333562374115	0.10004210472106934
19	122.62632918357849	fix_pre	0		120	17.0	2.5	/experiments/knapen_AOT/AOT_stimuli/rescaled_final/0034_rv.mp4	0.0	160.33339834213257	1.0001749992370605
19	123.20241212844849	pulse	0	t		17.0	2.5	/experiments/knapen_AOT/AOT_stimuli/rescaled_final/0034_rv.mp4	0.0	160.90948128700256	
19	123.62650418281555	movie	1		246	17.0	2.5	/experiments/knapen_AOT/AOT_stimuli/rescaled_final/0034_rv.mp4	0.0	161.33357334136963	2.5003418922424316
19	124.80308508872986	pulse	1	t		17.0	2.5	/experiments/knapen_AOT/AOT_stimuli/rescaled_final/0034_rv.mp4	0.0	162.51015424728394	
19	126.12684607505798	fix_post	2		12	17.0	2.5	/experiments/knapen_AOT/AOT_stimuli/rescaled_final/0034_rv.mp4	0.0	163.83391523361206	0.10001111030578613
20	126.22685718536377	fix_pre	0		120	18.0	2.5	/experiments/knapen_AOT/AOT_stimuli/rescaled_final/1392_rv.mp4	0.0	163.93392634391785	1.0001788139343262
20	126.40211200714111	pulse	0	t		18.0	2.5	/experiments/knapen_AOT/AOT_stimuli/rescaled_final/1392_rv.mp4	0.0	164.1091811656952	
20	127.2270359992981	movie	1		246	18.0	2.5	/experiments/knapen_AOT/AOT_stimuli/rescaled_final/1392_rv.mp4	0.0	164.93410515785217	2.4920501708984375
20	128.00227117538452	pulse	1	t		18.0	2.5	/experiments/knapen_AOT/AOT_stimuli/rescaled_final/1392_rv.mp4	0.0	165.7093403339386	
20	129.60255098342896	pulse	1	t		18.0	2.5	/experiments/knapen_AOT/AOT_stimuli/rescaled_final/1392_rv.mp4	0.0	167.30962014198303	
20	129.71908617019653	fix_post	2		12	18.0	2.5	/experiments/knapen_AOT/AOT_stimuli/rescaled_final/1392_rv.mp4	0.0	167.4261553287506	0.10000181198120117
21	129.81908798217773	fix_pre	0		120	19.0	2.5	blank	1.0	167.5261571407318	1.0001070499420166
21	130.81919503211975	movie	1		300	19.0	2.5	blank	1.0	168.52626419067383	2.5004191398620605
21	131.20283603668213	pulse	1	t		19.0	2.5	blank	1.0	168.9099051952362	
21	132.80313110351562	pulse	1	t		19.0	2.5	blank	1.0	170.5102002620697	
21	133.3196141719818	fix_post	2		12	19.0	2.5	blank	1.0	171.0266833305359	0.09999799728393555
22	133.41961216926575	fix_pre	0		119	20.0	2.5	/experiments/knapen_AOT/AOT_stimuli/rescaled_final/0566_fw.mp4	0.0	171.12668132781982	0.9918367862701416
22	134.40333795547485	pulse	0	t		20.0	2.5	/experiments/knapen_AOT/AOT_stimuli/rescaled_final/0566_fw.mp4	0.0	172.11040711402893	
22	134.4114489555359	movie	1		247	20.0	2.5	/experiments/knapen_AOT/AOT_stimuli/rescaled_final/0566_fw.mp4	0.0	172.11851811408997	2.508667230606079
22	136.00501918792725	pulse	1	t		20.0	2.5	/experiments/knapen_AOT/AOT_stimuli/rescaled_final/0566_fw.mp4	0.0	173.71208834648132	
22	136.92011618614197	fix_post	2		12	20.0	2.5	/experiments/knapen_AOT/AOT_stimuli/rescaled_final/0566_fw.mp4	0.0	174.62718534469604	0.10001993179321289
23	137.02013611793518	fix_pre	0		120	21.0	2.5	/experiments/knapen_AOT/AOT_stimuli/rescaled_final/1280_rv.mp4	0.0	174.72720527648926	1.0001699924468994
23	137.6037380695343	pulse	0	t		21.0	2.5	/experiments/knapen_AOT/AOT_stimuli/rescaled_final/1280_rv.mp4	0.0	175.31080722808838	
23	138.02030611038208	movie	1		247	21.0	2.5	/experiments/knapen_AOT/AOT_stimuli/rescaled_final/1280_rv.mp4	0.0	175.72737526893616	2.5003440380096436
23	139.20413398742676	pulse	1	t		21.0	2.5	/experiments/knapen_AOT/AOT_stimuli/rescaled_final/1280_rv.mp4	0.0	176.91120314598083	
23	140.52065014839172	fix_post	2		12	21.0	2.5	/experiments/knapen_AOT/AOT_stimuli/rescaled_final/1280_rv.mp4	0.0	178.2277193069458	0.10002589225769043
24	140.6206760406494	fix_pre	0		120	22.0	2.5	/experiments/knapen_AOT/AOT_stimuli/rescaled_final/0591_fw.mp4	0.0	178.3277451992035	1.000154972076416
24	140.80426502227783	pulse	0	t		22.0	2.5	/experiments/knapen_AOT/AOT_stimuli/rescaled_final/0591_fw.mp4	0.0	178.5113341808319	
24	141.62083101272583	movie	1		245	22.0	2.5	/experiments/knapen_AOT/AOT_stimuli/rescaled_final/0591_fw.mp4	0.0	179.3279001712799	2.5003750324249268
24	142.4044771194458	pulse	1	t		22.0	2.5	/experiments/knapen_AOT/AOT_stimuli/rescaled_final/0591_fw.mp4	0.0	180.11154627799988	
24	144.00483298301697	pulse	1	t		22.0	2.5	/experiments/knapen_AOT/AOT_stimuli/rescaled_final/0591_fw.mp4	0.0	181.71190214157104	
24	144.12120604515076	fix_post	2		12	22.0	2.5	/experiments/knapen_AOT/AOT_stimuli/rescaled_final/0591_fw.mp4	0.0	181.82827520370483	0.10000991821289062
25	144.22121596336365	fix_pre	0		120	23.0	2.5	/experiments/knapen_AOT/AOT_stimuli/rescaled_final/0794_fw.mp4	0.0	181.92828512191772	1.0001840591430664
25	145.2214000225067	movie	1		245	23.0	2.5	/experiments/knapen_AOT/AOT_stimuli/rescaled_final/0794_fw.mp4	0.0	182.9284691810608	2.492000102996826
25	145.60912895202637	pulse	1	t		23.0	2.5	/experiments/knapen_AOT/AOT_stimuli/rescaled_final/0794_fw.mp4	0.0	183.31619811058044	
25	147.20523715019226	pulse	1	t		23.0	2.5	/experiments/knapen_AOT/AOT_stimuli/rescaled_final/0794_fw.mp4	0.0	184.91230630874634	
25	147.71340012550354	fix_post	2		12	23.0	2.5	/experiments/knapen_AOT/AOT_stimuli/rescaled_final/0794_fw.mp4	0.0	185.42046928405762	0.10000205039978027
26	147.81340217590332	fix_pre	0		120	24.0	2.5	/experiments/knapen_AOT/AOT_stimuli/rescaled_final/2144_rv.mp4	0.0	185.5204713344574	1.0001518726348877
26	148.8054280281067	pulse	0	t		24.0	2.5	/experiments/knapen_AOT/AOT_stimuli/rescaled_final/2144_rv.mp4	0.0	186.51249718666077	
26	148.8135540485382	movie	1		246	24.0	2.5	/experiments/knapen_AOT/AOT_stimuli/rescaled_final/2144_rv.mp4	0.0	186.52062320709229	2.5087180137634277
26	150.40600514411926	pulse	1	t		24.0	2.5	/experiments/knapen_AOT/AOT_stimuli/rescaled_final/2144_rv.mp4	0.0	188.11307430267334	
26	151.32227206230164	fix_post	2		12	24.0	2.5	/experiments/knapen_AOT/AOT_stimuli/rescaled_final/2144_rv.mp4	0.0	189.0293412208557	0.10006999969482422
27	151.42234206199646	fix_pre	0		120	25.0	2.5	/experiments/knapen_AOT/AOT_stimuli/rescaled_final/0625_fw.mp4	0.0	189.12941122055054	1.0001089572906494
27	152.00589108467102	pulse	0	t		25.0	2.5	/experiments/knapen_AOT/AOT_stimuli/rescaled_final/0625_fw.mp4	0.0	189.7129602432251	
27	152.4224510192871	movie	1		244	25.0	2.5	/experiments/knapen_AOT/AOT_stimuli/rescaled_final/0625_fw.mp4	0.0	190.1295201778412	2.5003280639648438
27	153.60249400138855	pulse	1	t		25.0	2.5	/experiments/knapen_AOT/AOT_stimuli/rescaled_final/0625_fw.mp4	0.0	191.30956315994263	
27	154.92277908325195	fix_post	2		12	25.0	2.5	/experiments/knapen_AOT/AOT_stimuli/rescaled_final/0625_fw.mp4	0.0	192.62984824180603	0.10005402565002441
28	155.02283310890198	fix_pre	0		120	26.0	2.5	blank	1.0	192.72990226745605	1.0001380443572998
28	155.2064700126648	pulse	0	t		26.0	2.5	blank	1.0	192.91353917121887	
28	156.02297115325928	movie	1		300	26.0	2.5	blank	1.0	193.73004031181335	2.500379800796509
28	156.80670595169067	pulse	1	t		26.0	2.5	blank	1.0	194.51377511024475	
28	158.40682196617126	pulse	1	t		26.0	2.5	blank	1.0	196.11389112472534	
28	158.5233509540558	fix_post	2		12	26.0	2.5	blank	1.0	196.23042011260986	0.09999918937683105
29	158.62335014343262	fix_pre	0		120	27.0	2.5	/experiments/knapen_AOT/AOT_stimuli/rescaled_final/1312_fw.mp4	0.0	196.3304193019867	1.0002110004425049
29	159.62356114387512	movie	1		244	27.0	2.5	/experiments/knapen_AOT/AOT_stimuli/rescaled_final/1312_fw.mp4	0.0	197.3306303024292	2.491981029510498
29	160.0079460144043	pulse	1	t		27.0	2.5	/experiments/knapen_AOT/AOT_stimuli/rescaled_final/1312_fw.mp4	0.0	197.71501517295837	
29	161.60732913017273	pulse	1	t		27.0	2.5	/experiments/knapen_AOT/AOT_stimuli/rescaled_final/1312_fw.mp4	0.0	199.3143982887268	
29	162.11554217338562	fix_post	2		12	27.0	2.5	/experiments/knapen_AOT/AOT_stimuli/rescaled_final/1312_fw.mp4	0.0	199.8226113319397	0.1000669002532959
30	162.21560907363892	fix_pre	0		120	28.0	2.5	/experiments/knapen_AOT/AOT_stimuli/rescaled_final/1929_rv.mp4	0.0	199.922678232193	1.0001120567321777
30	163.20764899253845	pulse	0	t		28.0	2.5	/experiments/knapen_AOT/AOT_stimuli/rescaled_final/1929_rv.mp4	0.0	200.91471815109253	
30	163.2157211303711	movie	1		247	28.0	2.5	/experiments/knapen_AOT/AOT_stimuli/rescaled_final/1929_rv.mp4	0.0	200.92279028892517	2.5087029933929443
30	164.81224703788757	pulse	1	t		28.0	2.5	/experiments/knapen_AOT/AOT_stimuli/rescaled_final/1929_rv.mp4	0.0	202.51931619644165	
30	165.72442412376404	fix_post	2		9	28.0	2.5	/experiments/knapen_AOT/AOT_stimuli/rescaled_final/1929_rv.mp4	0.0	203.43149328231812	0.10003089904785156
31	165.8244550228119	fix_pre	0		120	29.0	2.5	/experiments/knapen_AOT/AOT_stimuli/rescaled_final/0959_rv.mp4	0.0	203.53152418136597	1.0001130104064941
31	166.40808415412903	pulse	0	t		29.0	2.5	/experiments/knapen_AOT/AOT_stimuli/rescaled_final/0959_rv.mp4	0.0	204.1151533126831	
31	166.82456803321838	movie	1		244	29.0	2.5	/experiments/knapen_AOT/AOT_stimuli/rescaled_final/0959_rv.mp4	0.0	204.53163719177246	2.5004029273986816
31	168.00429797172546	pulse	1	t		29.0	2.5	/experiments/knapen_AOT/AOT_stimuli/rescaled_final/0959_rv.mp4	0.0	205.71136713027954	
31	169.32497096061707	fix_post	2		12	29.0	2.5	/experiments/knapen_AOT/AOT_stimuli/rescaled_final/0959_rv.mp4	0.0	207.03204011917114	0.1000511646270752
32	169.42502212524414	fix_pre	0		120	30.0	2.5	/experiments/knapen_AOT/AOT_stimuli/rescaled_final/1610_rv.mp4	0.0	207.13209128379822	1.0001108646392822
32	169.60851311683655	pulse	0	t		30.0	2.5	/experiments/knapen_AOT/AOT_stimuli/rescaled_final/1610_rv.mp4	0.0	207.31558227539062	
32	170.42513298988342	movie	1		244	30.0	2.5	/experiments/knapen_AOT/AOT_stimuli/rescaled_final/1610_rv.mp4	0.0	208.1322021484375	2.5003271102905273
32	171.20891213417053	pulse	1	t		30.0	2.5	/experiments/knapen_AOT/AOT_stimuli/rescaled_final/1610_rv.mp4	0.0	208.9159812927246	
32	172.80881714820862	pulse	1	t		30.0	2.5	/experiments/knapen_AOT/AOT_stimuli/rescaled_final/1610_rv.mp4	0.0	210.5158863067627	
32	172.92546010017395	fix_post	2		12	30.0	2.5	/experiments/knapen_AOT/AOT_stimuli/rescaled_final/1610_rv.mp4	0.0	210.63252925872803	0.1000678539276123
33	173.02552795410156	fix_pre	0		120	31.0	2.5	/experiments/knapen_AOT/AOT_stimuli/rescaled_final/2144_fw.mp4	0.0	210.73259711265564	1.000157117843628
33	174.0256850719452	movie	1		244	31.0	2.5	/experiments/knapen_AOT/AOT_stimuli/rescaled_final/2144_fw.mp4	0.0	211.73275423049927	2.492043972015381
33	174.41039299964905	pulse	1	t		31.0	2.5	/experiments/knapen_AOT/AOT_stimuli/rescaled_final/2144_fw.mp4	0.0	212.11746215820312	
33	176.00950503349304	pulse	1	t		31.0	2.5	/experiments/knapen_AOT/AOT_stimuli/rescaled_final/2144_fw.mp4	0.0	213.71657419204712	
33	176.51772904396057	fix_post	2		12	31.0	2.5	/experiments/knapen_AOT/AOT_stimuli/rescaled_final/2144_fw.mp4	0.0	214.22479820251465	0.09998393058776855
34	176.61771297454834	fix_pre	0		120	32.0	2.5	/experiments/knapen_AOT/AOT_stimuli/rescaled_final/1214_rv.mp4	0.0	214.32478213310242	1.000197172164917
34	177.60984301567078	pulse	0	t		32.0	2.5	/experiments/knapen_AOT/AOT_stimuli/rescaled_final/1214_rv.mp4	0.0	215.31691217422485	
34	177.61791014671326	movie	1		245	32.0	2.5	/experiments/knapen_AOT/AOT_stimuli/rescaled_final/1214_rv.mp4	0.0	215.32497930526733	2.5086309909820557
34	179.2103431224823	pulse	1	t		32.0	2.5	/experiments/knapen_AOT/AOT_stimuli/rescaled_final/1214_rv.mp4	0.0	216.91741228103638	
34	180.1265411376953	fix_post	2		12	32.0	2.5	/experiments/knapen_AOT/AOT_stimuli/rescaled_final/1214_rv.mp4	0.0	217.8336102962494	0.1000218391418457
35	180.22656297683716	fix_pre	0		120	33.0	2.5	/experiments/knapen_AOT/AOT_stimuli/rescaled_final/0611_fw.mp4	0.0	217.93363213539124	1.0002481937408447
35	180.80276203155518	pulse	0	t		33.0	2.5	/experiments/knapen_AOT/AOT_stimuli/rescaled_final/0611_fw.mp4	0.0	218.50983119010925	
35	181.226811170578	movie	1		245	33.0	2.5	/experiments/knapen_AOT/AOT_stimuli/rescaled_final/0611_fw.mp4	0.0	218.93388032913208	2.500288963317871
35	182.4104790687561	pulse	1	t		33.0	2.5	/experiments/knapen_AOT/AOT_stimuli/rescaled_final/0611_fw.mp4	0.0	220.11754822731018	
35	183.72710013389587	fix_post	2		12	33.0	2.5	/experiments/knapen_AOT/AOT_stimuli/rescaled_final/0611_fw.mp4	0.0	221.43416929244995	0.10001397132873535
36	183.8271141052246	fix_pre	0		120	34.0	2.5	blank	1.0	221.5341832637787	1.000143051147461
36	184.00312113761902	pulse	0	t		34.0	2.5	blank	1.0	221.7101902961731	
36	184.82725715637207	movie	1		300	34.0	2.5	blank	1.0	222.53432631492615	2.5004539489746094
36	185.60266995429993	pulse	1	t		34.0	2.5	blank	1.0	223.309739112854	
36	187.20279598236084	pulse	1	t		34.0	2.5	blank	1.0	224.90986514091492	
36	187.32771110534668	fix_post	2		12	34.0	2.5	blank	1.0	225.03478026390076	0.09993505477905273
37	187.42764616012573	fix_pre	0		120	35.0	2.5	/experiments/knapen_AOT/AOT_stimuli/rescaled_final/0645_fw.mp4	0.0	225.1347153186798	1.0001609325408936
37	188.42780709266663	movie	1		244	35.0	2.5	/experiments/knapen_AOT/AOT_stimuli/rescaled_final/0645_fw.mp4	0.0	226.1348762512207	2.492018938064575
37	188.803081035614	pulse	1	t		35.0	2.5	/experiments/knapen_AOT/AOT_stimuli/rescaled_final/0645_fw.mp4	0.0	226.5101501941681	
37	190.40333318710327	pulse	1	t		35.0	2.5	/experiments/knapen_AOT/AOT_stimuli/rescaled_final/0645_fw.mp4	0.0	228.11040234565735	
37	190.9198260307312	fix_post	2		12	35.0	2.5	/experiments/knapen_AOT/AOT_stimuli/rescaled_final/0645_fw.mp4	0.0	228.62689518928528	0.10002803802490234
38	191.0198540687561	fix_pre	0		119	36.0	2.5	/experiments/knapen_AOT/AOT_stimuli/rescaled_final/0783_rv.mp4	0.0	228.72692322731018	0.9918029308319092
38	192.00355315208435	pulse	0	t		36.0	2.5	/experiments/knapen_AOT/AOT_stimuli/rescaled_final/0783_rv.mp4	0.0	229.71062231063843	
38	192.011656999588	movie	1		248	36.0	2.5	/experiments/knapen_AOT/AOT_stimuli/rescaled_final/0783_rv.mp4	0.0	229.7187261581421	2.5088210105895996
38	193.60428595542908	pulse	1	t		36.0	2.5	/experiments/knapen_AOT/AOT_stimuli/rescaled_final/0783_rv.mp4	0.0	231.31135511398315	
38	194.5204780101776	fix_post	2		12	36.0	2.5	/experiments/knapen_AOT/AOT_stimuli/rescaled_final/0783_rv.mp4	0.0	232.2275471687317	0.09993696212768555
39	194.6204149723053	fix_pre	0		120	37.0	2.5	/experiments/knapen_AOT/AOT_stimuli/rescaled_final/1783_fw.mp4	0.0	232.32748413085938	1.000136137008667
39	195.20411801338196	pulse	0	t		37.0	2.5	/experiments/knapen_AOT/AOT_stimuli/rescaled_final/1783_fw.mp4	0.0	232.91118717193604	
39	195.62055110931396	movie	1		246	37.0	2.5	/experiments/knapen_AOT/AOT_stimuli/rescaled_final/1783_fw.mp4	0.0	233.32762026786804	2.500364065170288
39	196.8043270111084	pulse	1	t		37.0	2.5	/experiments/knapen_AOT/AOT_stimuli/rescaled_final/1783_fw.mp4	0.0	234.51139616966248	
39	198.12091517448425	fix_post	2		12	37.0	2.5	/experiments/knapen_AOT/AOT_stimuli/rescaled_final/1783_fw.mp4	0.0	235.82798433303833	0.10002779960632324
40	198.22094297409058	fix_pre	0		120	38.0	2.5	/experiments/knapen_AOT/AOT_stimuli/rescaled_final/1671_fw.mp4	0.0	235.92801213264465	1.0001599788665771
40	198.40443897247314	pulse	0	t		38.0	2.5	/experiments/knapen_AOT/AOT_stimuli/rescaled_final/1671_fw.mp4	0.0	236.11150813102722	
40	199.22110295295715	movie	1		252	38.0	2.5	/experiments/knapen_AOT/AOT_stimuli/rescaled_final/1671_fw.mp4	0.0	236.92817211151123	2.5003252029418945
40	200.00486207008362	pulse	1	t		38.0	2.5	/experiments/knapen_AOT/AOT_stimuli/rescaled_final/1671_fw.mp4	0.0	237.7119312286377	
40	201.60508513450623	pulse	1	t		38.0	2.5	/experiments/knapen_AOT/AOT_stimuli/rescaled_final/1671_fw.mp4	0.0	239.3121542930603	
40	201.72142815589905	fix_post	2		12	38.0	2.5	/experiments/knapen_AOT/AOT_stimuli/rescaled_final/1671_fw.mp4	0.0	239.42849731445312	0.09998893737792969
41	201.82141709327698	fix_pre	0		119	39.0	2.5	/experiments/knapen_AOT/AOT_stimuli/rescaled_final/0850_fw.mp4	0.0	239.52848625183105	0.9918339252471924
41	202.81325101852417	movie	1		247	39.0	2.5	/experiments/knapen_AOT/AOT_stimuli/rescaled_final/0850_fw.mp4	0.0	240.52032017707825	2.5004351139068604
41	203.20537900924683	pulse	1	t		39.0	2.5	/experiments/knapen_AOT/AOT_stimuli/rescaled_final/0850_fw.mp4	0.0	240.9124481678009	
41	204.80541610717773	pulse	1	t		39.0	2.5	/experiments/knapen_AOT/AOT_stimuli/rescaled_final/0850_fw.mp4	0.0	242.5124852657318	
41	205.31368613243103	fix_post	2		12	39.0	2.5	/experiments/knapen_AOT/AOT_stimuli/rescaled_final/0850_fw.mp4	0.0	243.0207552909851	0.09997892379760742
42	205.41366505622864	fix_pre	0		120	40.0	2.5	/experiments/knapen_AOT/AOT_stimuli/rescaled_final/0349_rv.mp4	0.0	243.12073421478271	1.0001740455627441
42	206.4056580066681	pulse	0	t		40.0	2.5	/experiments/knapen_AOT/AOT_stimuli/rescaled_final/0349_rv.mp4	0.0	244.11272716522217	
42	206.41383910179138	movie	1		248	40.0	2.5	/experiments/knapen_AOT/AOT_stimuli/rescaled_final/0349_rv.mp4	0.0	244.12090826034546	2.5087080001831055
42	208.00647401809692	pulse	1	t		40.0	2.5	/experiments/knapen_AOT/AOT_stimuli/rescaled_final/0349_rv.mp4	0.0	245.713543176651	
42	208.9225471019745	fix_post	2		12	40.0	2.5	/experiments/knapen_AOT/AOT_stimuli/rescaled_final/0349_rv.mp4	0.0	246.62961626052856	0.10000205039978027
43	209.02254915237427	fix_pre	0		120	41.0	2.5	blank	1.0	246.72961831092834	1.0001399517059326
43	209.60625910758972	pulse	0	t		41.0	2.5	blank	1.0	247.3133282661438	
43	210.0226891040802	movie	1		300	41.0	2.5	blank	1.0	247.72975826263428	2.500417947769165
43	211.20641708374023	pulse	1	t		41.0	2.5	blank	1.0	248.9134862422943	
43	212.52310705184937	fix_post	2		12	41.0	2.5	blank	1.0	250.23017621040344	0.09999203681945801
44	212.62309908866882	fix_pre	0		120	42.0	2.5	/experiments/knapen_AOT/AOT_stimuli/rescaled_final/1627_rv.mp4	0.0	250.3301682472229	1.0001249313354492
44	212.806636095047	pulse	0	t		42.0	2.5	/experiments/knapen_AOT/AOT_stimuli/rescaled_final/1627_rv.mp4	0.0	250.51370525360107	
44	213.62322402000427	movie	1		245	42.0	2.5	/experiments/knapen_AOT/AOT_stimuli/rescaled_final/1627_rv.mp4	0.0	251.33029317855835	2.5003750324249268
44	214.40693497657776	pulse	1	t		42.0	2.5	/experiments/knapen_AOT/AOT_stimuli/rescaled_final/1627_rv.mp4	0.0	252.11400413513184	
44	216.00722813606262	pulse	1	t		42.0	2.5	/experiments/knapen_AOT/AOT_stimuli/rescaled_final/1627_rv.mp4	0.0	253.7142972946167	
44	216.1235990524292	fix_post	2		12	42.0	2.5	/experiments/knapen_AOT/AOT_stimuli/rescaled_final/1627_rv.mp4	0.0	253.83066821098328	0.10014104843139648
45	216.2237401008606	fix_pre	0		119	43.0	2.5	/experiments/knapen_AOT/AOT_stimuli/rescaled_final/1036_rv.mp4	0.0	253.93080925941467	0.991689920425415
45	217.215430021286	movie	1		245	43.0	2.5	/experiments/knapen_AOT/AOT_stimuli/rescaled_final/1036_rv.mp4	0.0	254.9224991798401	2.500370979309082
45	217.6074240207672	pulse	1	t		43.0	2.5	/experiments/knapen_AOT/AOT_stimuli/rescaled_final/1036_rv.mp4	0.0	255.3144931793213	
45	219.2075879573822	pulse	1	t		43.0	2.5	/experiments/knapen_AOT/AOT_stimuli/rescaled_final/1036_rv.mp4	0.0	256.9146571159363	
45	219.7158010005951	fix_post	2		12	43.0	2.5	/experiments/knapen_AOT/AOT_stimuli/rescaled_final/1036_rv.mp4	0.0	257.42287015914917	0.10001111030578613
46	219.81581211090088	fix_pre	0		120	44.0	2.5	/experiments/knapen_AOT/AOT_stimuli/rescaled_final/1455_rv.mp4	0.0	257.52288126945496	1.0001709461212158
46	220.80787205696106	pulse	0	t		44.0	2.5	/experiments/knapen_AOT/AOT_stimuli/rescaled_final/1455_rv.mp4	0.0	258.51494121551514	
46	220.8159830570221	movie	1		247	44.0	2.5	/experiments/knapen_AOT/AOT_stimuli/rescaled_final/1455_rv.mp4	0.0	258.5230522155762	2.5087459087371826
46	222.41201615333557	pulse	1	t		44.0	2.5	/experiments/knapen_AOT/AOT_stimuli/rescaled_final/1455_rv.mp4	0.0	260.11908531188965	
46	223.32472896575928	fix_post	2		12	44.0	2.5	/experiments/knapen_AOT/AOT_stimuli/rescaled_final/1455_rv.mp4	0.0	261.03179812431335	0.09996700286865234
47	223.42469596862793	fix_pre	0		120	45.0	2.5	/experiments/knapen_AOT/AOT_stimuli/rescaled_final/0773_rv.mp4	0.0	261.131765127182	1.000162124633789
47	224.00836610794067	pulse	0	t		45.0	2.5	/experiments/knapen_AOT/AOT_stimuli/rescaled_final/0773_rv.mp4	0.0	261.71543526649475	
47	224.42485809326172	movie	1		243	45.0	2.5	/experiments/knapen_AOT/AOT_stimuli/rescaled_final/0773_rv.mp4	0.0	262.1319272518158	2.5003418922424316
47	225.60868215560913	pulse	1	t		45.0	2.5	/experiments/knapen_AOT/AOT_stimuli/rescaled_final/0773_rv.mp4	0.0	263.3157513141632	
47	226.92519998550415	fix_post	2		12	45.0	2.5	/experiments/knapen_AOT/AOT_stimuli/rescaled_final/0773_rv.mp4	0.0	264.6322691440582	0.10007309913635254
48	227.0252730846405	fix_pre	0		120	46.0	2.5	/experiments/knapen_AOT/AOT_stimuli/rescaled_final/2073_rv.mp4	0.0	264.7323422431946	1.0001270771026611
48	227.20879101753235	pulse	0	t		46.0	2.5	/experiments/knapen_AOT/AOT_stimuli/rescaled_final/2073_rv.mp4	0.0	264.9158601760864	
48	228.02540016174316	movie	1		245	46.0	2.5	/experiments/knapen_AOT/AOT_stimuli/rescaled_final/2073_rv.mp4	0.0	265.73246932029724	2.5003528594970703
48	228.80916595458984	pulse	1	t		46.0	2.5	/experiments/knapen_AOT/AOT_stimuli/rescaled_final/2073_rv.mp4	0.0	266.5162351131439	
48	230.40684914588928	pulse	1	t		46.0	2.5	/experiments/knapen_AOT/AOT_stimuli/rescaled_final/2073_rv.mp4	0.0	268.11391830444336	
48	230.52575302124023	fix_post	2		12	46.0	2.5	/experiments/knapen_AOT/AOT_stimuli/rescaled_final/2073_rv.mp4	0.0	268.2328221797943	0.1000211238861084
49	230.62577414512634	fix_pre	0		120	47.0	2.5	blank	1.0	268.3328433036804	1.000154972076416
49	231.62592911720276	movie	1		299	47.0	2.5	blank	1.0	269.33299827575684	2.492034912109375
49	232.0095660686493	pulse	1	t		47.0	2.5	blank	1.0	269.71663522720337	
49	233.60221004486084	pulse	1	t		47.0	2.5	blank	1.0	271.3092792034149	
49	234.11796402931213	fix_post	2		12	47.0	2.5	blank	1.0	271.8250331878662	0.0999910831451416
50	234.21795511245728	fix_pre	0		120	48.0	2.5	/experiments/knapen_AOT/AOT_stimuli/rescaled_final/1483_fw.mp4	0.0	271.92502427101135	1.0001678466796875
50	235.20249104499817	pulse	0	t		48.0	2.5	/experiments/knapen_AOT/AOT_stimuli/rescaled_final/1483_fw.mp4	0.0	272.90956020355225	
50	235.21812295913696	movie	1		246	48.0	2.5	/experiments/knapen_AOT/AOT_stimuli/rescaled_final/1483_fw.mp4	0.0	272.92519211769104	2.5086982250213623
50	236.8113009929657	pulse	1	t		48.0	2.5	/experiments/knapen_AOT/AOT_stimuli/rescaled_final/1483_fw.mp4	0.0	274.5183701515198	
50	237.72682118415833	fix_post	2		12	48.0	2.5	/experiments/knapen_AOT/AOT_stimuli/rescaled_final/1483_fw.mp4	0.0	275.4338903427124	0.1000058650970459
51	237.82682704925537	fix_pre	0		120	49.0	2.5	/experiments/knapen_AOT/AOT_stimuli/rescaled_final/1392_fw.mp4	0.0	275.53389620780945	1.0001749992370605
51	238.4028570652008	pulse	0	t		49.0	2.5	/experiments/knapen_AOT/AOT_stimuli/rescaled_final/1392_fw.mp4	0.0	276.1099262237549	
51	238.82700204849243	movie	1		246	49.0	2.5	/experiments/knapen_AOT/AOT_stimuli/rescaled_final/1392_fw.mp4	0.0	276.5340712070465	2.5003581047058105
51	240.0029811859131	pulse	1	t		49.0	2.5	/experiments/knapen_AOT/AOT_stimuli/rescaled_final/1392_fw.mp4	0.0	277.71005034446716	
51	241.32736015319824	fix_post	2		12	49.0	2.5	/experiments/knapen_AOT/AOT_stimuli/rescaled_final/1392_fw.mp4	0.0	279.0344293117523	0.10000991821289062
52	241.42737007141113	fix_pre	0		120	50.0	2.5	/experiments/knapen_AOT/AOT_stimuli/rescaled_final/1345_rv.mp4	0.0	279.1344392299652	1.0001449584960938
52	241.60254406929016	pulse	0	t		50.0	2.5	/experiments/knapen_AOT/AOT_stimuli/rescaled_final/1345_rv.mp4	0.0	279.30961322784424	
52	242.42751502990723	movie	1		244	50.0	2.5	/experiments/knapen_AOT/AOT_stimuli/rescaled_final/1345_rv.mp4	0.0	280.1345841884613	2.5005180835723877
52	243.2027931213379	pulse	1	t		50.0	2.5	/experiments/knapen_AOT/AOT_stimuli/rescaled_final/1345_rv.mp4	0.0	280.90986227989197	
52	244.80318212509155	pulse	1	t		50.0	2.5	/experiments/knapen_AOT/AOT_stimuli/rescaled_final/1345_rv.mp4	0.0	282.51025128364563	
52	244.92803311347961	fix_post	2		12	50.0	2.5	/experiments/knapen_AOT/AOT_stimuli/rescaled_final/1345_rv.mp4	0.0	282.6351022720337	0.09985804557800293
53	245.02789115905762	fix_pre	0		119	51.0	2.5	/experiments/knapen_AOT/AOT_stimuli/rescaled_final/0099_rv.mp4	0.0	282.7349603176117	0.991832971572876
53	246.0197241306305	movie	1		245	51.0	2.5	/experiments/knapen_AOT/AOT_stimuli/rescaled_final/0099_rv.mp4	0.0	283.72679328918457	2.500386953353882
53	246.40374112129211	pulse	1	t		51.0	2.5	/experiments/knapen_AOT/AOT_stimuli/rescaled_final/0099_rv.mp4	0.0	284.1108102798462	
53	248.0035240650177	pulse	1	t		51.0	2.5	/experiments/knapen_AOT/AOT_stimuli/rescaled_final/0099_rv.mp4	0.0	285.7105932235718	
53	248.52011108398438	fix_post	2		12	51.0	2.5	/experiments/knapen_AOT/AOT_stimuli/rescaled_final/0099_rv.mp4	0.0	286.22718024253845	0.100006103515625
54	248.6201171875	fix_pre	0		119	52.0	2.5	/experiments/knapen_AOT/AOT_stimuli/rescaled_final/0110_rv.mp4	0.0	286.3271863460541	0.991804838180542
54	249.6038041114807	pulse	0	t		52.0	2.5	/experiments/knapen_AOT/AOT_stimuli/rescaled_final/0110_rv.mp4	0.0	287.3108732700348	
54	249.61192202568054	movie	1		246	52.0	2.5	/experiments/knapen_AOT/AOT_stimuli/rescaled_final/0110_rv.mp4	0.0	287.3189911842346	2.508754014968872
54	251.20475101470947	pulse	1	t		52.0	2.5	/experiments/knapen_AOT/AOT_stimuli/rescaled_final/0110_rv.mp4	0.0	288.91182017326355	
54	252.1206760406494	fix_post	2		12	52.0	2.5	/experiments/knapen_AOT/AOT_stimuli/rescaled_final/0110_rv.mp4	0.0	289.8277451992035	0.09999895095825195
55	252.22067499160767	fix_pre	0		120	53.0	2.5	/experiments/knapen_AOT/AOT_stimuli/rescaled_final/2115_rv.mp4	0.0	289.92774415016174	1.0001890659332275
55	252.8043351173401	pulse	0	t		53.0	2.5	/experiments/knapen_AOT/AOT_stimuli/rescaled_final/2115_rv.mp4	0.0	290.51140427589417	
55	253.2208640575409	movie	1		255	53.0	2.5	/experiments/knapen_AOT/AOT_stimuli/rescaled_final/2115_rv.mp4	0.0	290.92793321609497	2.5003249645233154
55	254.40461802482605	pulse	1	t		53.0	2.5	/experiments/knapen_AOT/AOT_stimuli/rescaled_final/2115_rv.mp4	0.0	292.1116871833801	
55	255.7211890220642	fix_post	2		12	53.0	2.5	/experiments/knapen_AOT/AOT_stimuli/rescaled_final/2115_rv.mp4	0.0	293.4282581806183	0.09999513626098633
56	255.8211841583252	fix_pre	0		120	54.0	2.5	/experiments/knapen_AOT/AOT_stimuli/rescaled_final/0579_rv.mp4	0.0	293.5282533168793	1.0001559257507324
56	256.0048050880432	pulse	0	t		54.0	2.5	/experiments/knapen_AOT/AOT_stimuli/rescaled_final/0579_rv.mp4	0.0	293.7118742465973	
56	256.8213400840759	movie	1		256	54.0	2.5	/experiments/knapen_AOT/AOT_stimuli/rescaled_final/0579_rv.mp4	0.0	294.52840924263	2.500417947769165
56	257.6049690246582	pulse	1	t		54.0	2.5	/experiments/knapen_AOT/AOT_stimuli/rescaled_final/0579_rv.mp4	0.0	295.3120381832123	
56	259.2052011489868	pulse	1	t		54.0	2.5	/experiments/knapen_AOT/AOT_stimuli/rescaled_final/0579_rv.mp4	0.0	296.9122703075409	
56	259.3217580318451	fix_post	2		12	54.0	2.5	/experiments/knapen_AOT/AOT_stimuli/rescaled_final/0579_rv.mp4	0.0	297.02882719039917	0.1000220775604248
57	259.4217801094055	fix_pre	0		120	55.0	2.5	/experiments/knapen_AOT/AOT_stimuli/rescaled_final/1787_rv.mp4	0.0	297.1288492679596	1.0000948905944824
57	260.421875	movie	1		268	55.0	2.5	/experiments/knapen_AOT/AOT_stimuli/rescaled_final/1787_rv.mp4	0.0	298.1289441585541	2.4920361042022705
57	260.80615401268005	pulse	1	t		55.0	2.5	/experiments/knapen_AOT/AOT_stimuli/rescaled_final/1787_rv.mp4	0.0	298.51322317123413	
57	262.4058401584625	pulse	1	t		55.0	2.5	/experiments/knapen_AOT/AOT_stimuli/rescaled_final/1787_rv.mp4	0.0	300.1129093170166	
57	262.91391110420227	fix_post	2		12	55.0	2.5	/experiments/knapen_AOT/AOT_stimuli/rescaled_final/1787_rv.mp4	0.0	300.62098026275635	0.10002398490905762
58	263.0139350891113	fix_pre	0		120	56.0	2.5	blank	1.0	300.7210042476654	1.0001540184020996
58	264.00610303878784	pulse	0	t		56.0	2.5	blank	1.0	301.7131721973419	
58	264.0140891075134	movie	1		301	56.0	2.5	blank	1.0	301.7211582660675	2.50872802734375
58	265.60620498657227	pulse	1	t		56.0	2.5	blank	1.0	303.31327414512634	
58	266.5228171348572	fix_post	2		12	56.0	2.5	blank	1.0	304.22988629341125	0.1000218391418457
59	266.622838973999	fix_pre	0		120	57.0	2.5	/experiments/knapen_AOT/AOT_stimuli/rescaled_final/1442_fw.mp4	0.0	304.3299081325531	1.0001170635223389
59	267.20642709732056	pulse	0	t		57.0	2.5	/experiments/knapen_AOT/AOT_stimuli/rescaled_final/1442_fw.mp4	0.0	304.91349625587463	
59	267.62295603752136	movie	1		261	57.0	2.5	/experiments/knapen_AOT/AOT_stimuli/rescaled_final/1442_fw.mp4	0.0	305.33002519607544	2.500380039215088
59	268.80679512023926	pulse	1	t		57.0	2.5	/experiments/knapen_AOT/AOT_stimuli/rescaled_final/1442_fw.mp4	0.0	306.51386427879333	
59	270.12333607673645	fix_post	2		12	57.0	2.5	/experiments/knapen_AOT/AOT_stimuli/rescaled_final/1442_fw.mp4	0.0	307.8304052352905	0.09997391700744629
60	270.2233099937439	fix_pre	0		120	58.0	2.5	/experiments/knapen_AOT/AOT_stimuli/rescaled_final/0224_fw.mp4	0.0	307.930379152298	1.0001909732818604
60	270.4069859981537	pulse	0	t		58.0	2.5	/experiments/knapen_AOT/AOT_stimuli/rescaled_final/0224_fw.mp4	0.0	308.11405515670776	
60	271.22350096702576	movie	1		257	58.0	2.5	/experiments/knapen_AOT/AOT_stimuli/rescaled_final/0224_fw.mp4	0.0	308.93057012557983	2.500392198562622
60	272.0072090625763	pulse	1	t		58.0	2.5	/experiments/knapen_AOT/AOT_stimuli/rescaled_final/0224_fw.mp4	0.0	309.71427822113037	
60	273.607342004776	pulse	1	t		58.0	2.5	/experiments/knapen_AOT/AOT_stimuli/rescaled_final/0224_fw.mp4	0.0	311.3144111633301	
60	273.7238931655884	fix_post	2		12	58.0	2.5	/experiments/knapen_AOT/AOT_stimuli/rescaled_final/0224_fw.mp4	0.0	311.43096232414246	0.0999758243560791
61	273.82386898994446	fix_pre	0		120	59.0	2.5	/experiments/knapen_AOT/AOT_stimuli/rescaled_final/0269_rv.mp4	0.0	311.53093814849854	1.0001671314239502
61	274.8240361213684	movie	1		247	59.0	2.5	/experiments/knapen_AOT/AOT_stimuli/rescaled_final/0269_rv.mp4	0.0	312.5311052799225	2.4920108318328857
61	275.208153963089	pulse	1	t		59.0	2.5	/experiments/knapen_AOT/AOT_stimuli/rescaled_final/0269_rv.mp4	0.0	312.91522312164307	
61	276.80800914764404	pulse	1	t		59.0	2.5	/experiments/knapen_AOT/AOT_stimuli/rescaled_final/0269_rv.mp4	0.0	314.5150783061981	
61	277.3160469532013	fix_post	2		12	59.0	2.5	/experiments/knapen_AOT/AOT_stimuli/rescaled_final/0269_rv.mp4	0.0	315.02311611175537	0.10003519058227539
62	277.41608214378357	fix_pre	0		120	60.0	2.5	/experiments/knapen_AOT/AOT_stimuli/rescaled_final/0449_fw.mp4	0.0	315.12315130233765	1.0001380443572998
62	278.40816712379456	pulse	0	t		60.0	2.5	/experiments/knapen_AOT/AOT_stimuli/rescaled_final/0449_fw.mp4	0.0	316.11523628234863	
62	278.41622018814087	movie	1		249	60.0	2.5	/experiments/knapen_AOT/AOT_stimuli/rescaled_final/0449_fw.mp4	0.0	316.12328934669495	2.5088768005371094
62	280.00923109054565	pulse	1	t		60.0	2.5	/experiments/knapen_AOT/AOT_stimuli/rescaled_final/0449_fw.mp4	0.0	317.71630024909973	
62	280.925096988678	fix_post	2		12	60.0	2.5	/experiments/knapen_AOT/AOT_stimuli/rescaled_final/0449_fw.mp4	0.0	318.63216614723206	0.0998530387878418
63	281.0249500274658	fix_pre	0		120	61.0	2.5	/experiments/knapen_AOT/AOT_stimuli/rescaled_final/2042_rv.mp4	0.0	318.7320191860199	1.0001449584960938
63	281.60869812965393	pulse	0	t		61.0	2.5	/experiments/knapen_AOT/AOT_stimuli/rescaled_final/2042_rv.mp4	0.0	319.315767288208	
63	282.0250949859619	movie	1		250	61.0	2.5	/experiments/knapen_AOT/AOT_stimuli/rescaled_final/2042_rv.mp4	0.0	319.732164144516	2.500415086746216
63	283.20896005630493	pulse	1	t		61.0	2.5	/experiments/knapen_AOT/AOT_stimuli/rescaled_final/2042_rv.mp4	0.0	320.916029214859	
63	284.52551007270813	fix_post	2		12	61.0	2.5	/experiments/knapen_AOT/AOT_stimuli/rescaled_final/2042_rv.mp4	0.0	322.2325792312622	0.09997105598449707
64	284.6254811286926	fix_pre	0		120	62.0	2.5	blank	1.0	322.3325502872467	1.000196933746338
64	284.809189081192	pulse	0	t		62.0	2.5	blank	1.0	322.5162582397461	
64	285.62567806243896	movie	1		300	62.0	2.5	blank	1.0	323.33274722099304	2.500361919403076
64	286.40201210975647	pulse	1	t		62.0	2.5	blank	1.0	324.10908126831055	
64	288.0020890235901	pulse	1	t		62.0	2.5	blank	1.0	325.70915818214417	
64	288.12603998184204	fix_post	2		12	62.0	2.5	blank	1.0	325.8331091403961	0.100006103515625
65	288.22604608535767	fix_pre	0		120	63.0	2.5	/experiments/knapen_AOT/AOT_stimuli/rescaled_final/0875_rv.mp4	0.0	325.93311524391174	1.0001180171966553
65	289.2261641025543	movie	1		251	63.0	2.5	/experiments/knapen_AOT/AOT_stimuli/rescaled_final/0875_rv.mp4	0.0	326.9332332611084	2.4920499324798584
65	289.6099841594696	pulse	1	t		63.0	2.5	/experiments/knapen_AOT/AOT_stimuli/rescaled_final/0875_rv.mp4	0.0	327.3170533180237	
65	291.2027180194855	pulse	1	t		63.0	2.5	/experiments/knapen_AOT/AOT_stimuli/rescaled_final/0875_rv.mp4	0.0	328.90978717803955	
65	291.7182140350342	fix_post	2		12	63.0	2.5	/experiments/knapen_AOT/AOT_stimuli/rescaled_final/0875_rv.mp4	0.0	329.42528319358826	0.09997105598449707
66	291.8181850910187	fix_pre	0		120	64.0	2.5	/experiments/knapen_AOT/AOT_stimuli/rescaled_final/2176_rv.mp4	0.0	329.52525424957275	1.0002520084381104
66	292.80271005630493	pulse	0	t		64.0	2.5	/experiments/knapen_AOT/AOT_stimuli/rescaled_final/2176_rv.mp4	0.0	330.509779214859	
66	292.8184370994568	movie	1		249	64.0	2.5	/experiments/knapen_AOT/AOT_stimuli/rescaled_final/2176_rv.mp4	0.0	330.52550625801086	2.5086560249328613
66	294.4022099971771	pulse	1	t		64.0	2.5	/experiments/knapen_AOT/AOT_stimuli/rescaled_final/2176_rv.mp4	0.0	332.1092791557312	
66	295.32709312438965	fix_post	2		12	64.0	2.5	/experiments/knapen_AOT/AOT_stimuli/rescaled_final/2176_rv.mp4	0.0	333.0341622829437	0.09999990463256836
67	295.4270930290222	fix_pre	0		120	65.0	2.5	/experiments/knapen_AOT/AOT_stimuli/rescaled_final/0548_fw.mp4	0.0	333.1341621875763	1.0001780986785889
67	296.0023009777069	pulse	0	t		65.0	2.5	/experiments/knapen_AOT/AOT_stimuli/rescaled_final/0548_fw.mp4	0.0	333.709370136261	
67	296.4272711277008	movie	1		254	65.0	2.5	/experiments/knapen_AOT/AOT_stimuli/rescaled_final/0548_fw.mp4	0.0	334.1343402862549	2.5003528594970703
67	297.60315704345703	pulse	1	t		65.0	2.5	/experiments/knapen_AOT/AOT_stimuli/rescaled_final/0548_fw.mp4	0.0	335.3102262020111	
67	298.9276239871979	fix_post	2		12	65.0	2.5	/experiments/knapen_AOT/AOT_stimuli/rescaled_final/0548_fw.mp4	0.0	336.63469314575195	0.0999901294708252
68	299.0276141166687	fix_pre	0		120	66.0	2.5	/experiments/knapen_AOT/AOT_stimuli/rescaled_final/1033_fw.mp4	0.0	336.7346832752228	1.000190019607544
68	299.2029390335083	pulse	0	t		66.0	2.5	/experiments/knapen_AOT/AOT_stimuli/rescaled_final/1033_fw.mp4	0.0	336.9100081920624	
68	300.02780413627625	movie	1		257	66.0	2.5	/experiments/knapen_AOT/AOT_stimuli/rescaled_final/1033_fw.mp4	0.0	337.7348732948303	2.5003738403320312
68	300.803218126297	pulse	1	t		66.0	2.5	/experiments/knapen_AOT/AOT_stimuli/rescaled_final/1033_fw.mp4	0.0	338.5102872848511	
68	302.4033350944519	pulse	1	t		66.0	2.5	/experiments/knapen_AOT/AOT_stimuli/rescaled_final/1033_fw.mp4	0.0	340.110404253006	
68	302.5281779766083	fix_post	2		12	66.0	2.5	/experiments/knapen_AOT/AOT_stimuli/rescaled_final/1033_fw.mp4	0.0	340.23524713516235	0.09999418258666992
69	302.62817215919495	fix_pre	0		119	67.0	2.5	/experiments/knapen_AOT/AOT_stimuli/rescaled_final/0067_fw.mp4	0.0	340.335241317749	0.9918539524078369
69	303.6200261116028	movie	1		260	67.0	2.5	/experiments/knapen_AOT/AOT_stimuli/rescaled_final/0067_fw.mp4	0.0	341.32709527015686	2.5003020763397217
69	304.0037930011749	pulse	1	t		67.0	2.5	/experiments/knapen_AOT/AOT_stimuli/rescaled_final/0067_fw.mp4	0.0	341.710862159729	
69	305.60388112068176	pulse	1	t		67.0	2.5	/experiments/knapen_AOT/AOT_stimuli/rescaled_final/0067_fw.mp4	0.0	343.31095027923584	
69	306.1203281879425	fix_post	2		12	67.0	2.5	/experiments/knapen_AOT/AOT_stimuli/rescaled_final/0067_fw.mp4	0.0	343.8273973464966	0.10007286071777344
70	306.2204010486603	fix_pre	0		119	68.0	2.5	/experiments/knapen_AOT/AOT_stimuli/rescaled_final/0016_rv.mp4	0.0	343.92747020721436	0.9918041229248047
70	307.20418095588684	pulse	0	t		68.0	2.5	/experiments/knapen_AOT/AOT_stimuli/rescaled_final/0016_rv.mp4	0.0	344.9112501144409	
70	307.2122051715851	movie	1		256	68.0	2.5	/experiments/knapen_AOT/AOT_stimuli/rescaled_final/0016_rv.mp4	0.0	344.91927433013916	2.5087099075317383
70	308.80496311187744	pulse	1	t		68.0	2.5	/experiments/knapen_AOT/AOT_stimuli/rescaled_final/0016_rv.mp4	0.0	346.5120322704315	
70	309.7209150791168	fix_post	2		12	68.0	2.5	/experiments/knapen_AOT/AOT_stimuli/rescaled_final/0016_rv.mp4	0.0	347.4279842376709	0.10000991821289062
71	309.8209249973297	fix_pre	0		120	69.0	2.5	blank	1.0	347.5279941558838	1.0001239776611328
71	310.4045181274414	pulse	0	t		69.0	2.5	blank	1.0	348.1115872859955	
71	310.82104897499084	movie	1		300	69.0	2.5	blank	1.0	348.5281181335449	2.5004119873046875
71	312.00476717948914	pulse	1	t		69.0	2.5	blank	1.0	349.7118363380432	
71	313.32146096229553	fix_post	2		12	69.0	2.5	blank	1.0	351.0285301208496	0.10000920295715332
72	313.4214701652527	fix_pre	0		120	70.0	2.5	/experiments/knapen_AOT/AOT_stimuli/rescaled_final/0875_fw.mp4	0.0	351.12853932380676	1.0000989437103271
72	313.6051390171051	pulse	0	t		70.0	2.5	/experiments/knapen_AOT/AOT_stimuli/rescaled_final/0875_fw.mp4	0.0	351.3122081756592	
72	314.421569108963	movie	1		261	70.0	2.5	/experiments/knapen_AOT/AOT_stimuli/rescaled_final/0875_fw.mp4	0.0	352.1286382675171	2.5004029273986816
72	315.20529317855835	pulse	1	t		70.0	2.5	/experiments/knapen_AOT/AOT_stimuli/rescaled_final/0875_fw.mp4	0.0	352.9123623371124	
72	316.8054690361023	pulse	1	t		70.0	2.5	/experiments/knapen_AOT/AOT_stimuli/rescaled_final/0875_fw.mp4	0.0	354.5125381946564	
72	316.9219720363617	fix_post	2		12	70.0	2.5	/experiments/knapen_AOT/AOT_stimuli/rescaled_final/0875_fw.mp4	0.0	354.62904119491577	0.10000896453857422
73	317.02198100090027	fix_pre	0		120	71.0	2.5	/experiments/knapen_AOT/AOT_stimuli/rescaled_final/1403_fw.mp4	0.0	354.72905015945435	1.0001261234283447
73	318.0221071243286	movie	1		254	71.0	2.5	/experiments/knapen_AOT/AOT_stimuli/rescaled_final/1403_fw.mp4	0.0	355.7291762828827	2.492064952850342
73	318.40597009658813	pulse	1	t		71.0	2.5	/experiments/knapen_AOT/AOT_stimuli/rescaled_final/1403_fw.mp4	0.0	356.1130392551422	
73	320.00599217414856	pulse	1	t		71.0	2.5	/experiments/knapen_AOT/AOT_stimuli/rescaled_final/1403_fw.mp4	0.0	357.71306133270264	
73	320.51417207717896	fix_post	2		12	71.0	2.5	/experiments/knapen_AOT/AOT_stimuli/rescaled_final/1403_fw.mp4	0.0	358.22124123573303	0.09999203681945801
74	320.6141641139984	fix_pre	0		120	72.0	2.5	/experiments/knapen_AOT/AOT_stimuli/rescaled_final/2159_rv.mp4	0.0	358.3212332725525	1.0001640319824219
74	321.60622215270996	pulse	0	t		72.0	2.5	/experiments/knapen_AOT/AOT_stimuli/rescaled_final/2159_rv.mp4	0.0	359.31329131126404	
74	321.61432814598083	movie	1		249	72.0	2.5	/experiments/knapen_AOT/AOT_stimuli/rescaled_final/2159_rv.mp4	0.0	359.3213973045349	2.5086848735809326
74	323.2069580554962	pulse	1	t		72.0	2.5	/experiments/knapen_AOT/AOT_stimuli/rescaled_final/2159_rv.mp4	0.0	360.9140272140503	
74	324.12301301956177	fix_post	2		12	72.0	2.5	/experiments/knapen_AOT/AOT_stimuli/rescaled_final/2159_rv.mp4	0.0	361.83008217811584	0.10005307197570801
75	324.2230660915375	fix_pre	0		120	73.0	2.5	/experiments/knapen_AOT/AOT_stimuli/rescaled_final/2029_rv.mp4	0.0	361.93013525009155	1.0001399517059326
75	324.80673813819885	pulse	0	t		73.0	2.5	/experiments/knapen_AOT/AOT_stimuli/rescaled_final/2029_rv.mp4	0.0	362.51380729675293	
75	325.2232060432434	movie	1		248	73.0	2.5	/experiments/knapen_AOT/AOT_stimuli/rescaled_final/2029_rv.mp4	0.0	362.9302752017975	2.5003199577331543
75	326.40695905685425	pulse	1	t		73.0	2.5	/experiments/knapen_AOT/AOT_stimuli/rescaled_final/2029_rv.mp4	0.0	364.1140282154083	
75	327.72352600097656	fix_post	2		12	73.0	2.5	/experiments/knapen_AOT/AOT_stimuli/rescaled_final/2029_rv.mp4	0.0	365.43059515953064	0.10005307197570801
76	327.82357907295227	fix_pre	0		120	74.0	2.5	/experiments/knapen_AOT/AOT_stimuli/rescaled_final/0188_rv.mp4	0.0	365.53064823150635	1.000169038772583
76	328.00728011131287	pulse	0	t		74.0	2.5	/experiments/knapen_AOT/AOT_stimuli/rescaled_final/0188_rv.mp4	0.0	365.71434926986694	
76	328.82374811172485	movie	1		247	74.0	2.5	/experiments/knapen_AOT/AOT_stimuli/rescaled_final/0188_rv.mp4	0.0	366.53081727027893	2.500370979309082
76	329.6074261665344	pulse	1	t		74.0	2.5	/experiments/knapen_AOT/AOT_stimuli/rescaled_final/0188_rv.mp4	0.0	367.3144953250885	
76	331.20765495300293	pulse	1	t		74.0	2.5	/experiments/knapen_AOT/AOT_stimuli/rescaled_final/0188_rv.mp4	0.0	368.914724111557	
76	331.32411909103394	fix_post	2		12	74.0	2.5	/experiments/knapen_AOT/AOT_stimuli/rescaled_final/0188_rv.mp4	0.0	369.031188249588	0.1000058650970459
77	331.424124956131	fix_pre	0		120	75.0	2.5	/experiments/knapen_AOT/AOT_stimuli/rescaled_final/0349_rv.mp4	0.0	369.13119411468506	1.0001471042633057
77	332.4242720603943	movie	1		251	75.0	2.5	/experiments/knapen_AOT/AOT_stimuli/rescaled_final/0349_rv.mp4	0.0	370.13134121894836	2.492079973220825
77	332.80841398239136	pulse	1	t		75.0	2.5	/experiments/knapen_AOT/AOT_stimuli/rescaled_final/0349_rv.mp4	0.0	370.51548314094543	
77	334.4081230163574	pulse	1	t		75.0	2.5	/experiments/knapen_AOT/AOT_stimuli/rescaled_final/0349_rv.mp4	0.0	372.1151921749115	
77	334.9163520336151	fix_post	2		12	75.0	2.5	/experiments/knapen_AOT/AOT_stimuli/rescaled_final/0349_rv.mp4	0.0	372.6234211921692	0.09994792938232422
78	335.01629996299744	fix_pre	0		120	76.0	2.5	blank	1.0	372.7233691215515	1.000190019607544
78	336.0083360671997	pulse	0	t		76.0	2.5	blank	1.0	373.7154052257538	
78	336.016489982605	movie	1		301	76.0	2.5	blank	1.0	373.72355914115906	2.508702039718628
78	337.6085469722748	pulse	1	t		76.0	2.5	blank	1.0	375.31561613082886	
78	338.5251920223236	fix_post	2		12	76.0	2.5	blank	1.0	376.2322611808777	0.10002493858337402
79	338.625216960907	fix_pre	0		120	77.0	2.5	/experiments/knapen_AOT/AOT_stimuli/rescaled_final/0520_fw.mp4	0.0	376.33228611946106	1.0001461505889893
79	339.2088510990143	pulse	0	t		77.0	2.5	/experiments/knapen_AOT/AOT_stimuli/rescaled_final/0520_fw.mp4	0.0	376.91592025756836	
79	339.625363111496	movie	1		248	77.0	2.5	/experiments/knapen_AOT/AOT_stimuli/rescaled_final/0520_fw.mp4	0.0	377.33243227005005	2.500351905822754
79	340.80503702163696	pulse	1	t		77.0	2.5	/experiments/knapen_AOT/AOT_stimuli/rescaled_final/0520_fw.mp4	0.0	378.51210618019104	
79	342.1257150173187	fix_post	2		12	77.0	2.5	/experiments/knapen_AOT/AOT_stimuli/rescaled_final/0520_fw.mp4	0.0	379.8327841758728	0.10001611709594727
80	342.2257311344147	fix_pre	0		120	78.0	2.5	/experiments/knapen_AOT/AOT_stimuli/rescaled_final/1937_fw.mp4	0.0	379.93280029296875	1.0001168251037598
80	342.40934014320374	pulse	0	t		78.0	2.5	/experiments/knapen_AOT/AOT_stimuli/rescaled_final/1937_fw.mp4	0.0	380.1164093017578	
80	343.22584795951843	movie	1		244	78.0	2.5	/experiments/knapen_AOT/AOT_stimuli/rescaled_final/1937_fw.mp4	0.0	380.9329171180725	2.500411033630371
80	344.00949001312256	pulse	1	t		78.0	2.5	/experiments/knapen_AOT/AOT_stimuli/rescaled_final/1937_fw.mp4	0.0	381.71655917167664	
80	345.60989904403687	pulse	1	t		78.0	2.5	/experiments/knapen_AOT/AOT_stimuli/rescaled_final/1937_fw.mp4	0.0	383.31696820259094	
80	345.7262589931488	fix_post	2		12	78.0	2.5	/experiments/knapen_AOT/AOT_stimuli/rescaled_final/1937_fw.mp4	0.0	383.4333281517029	0.10000896453857422
81	345.8262679576874	fix_pre	0		120	79.0	2.5	/experiments/knapen_AOT/AOT_stimuli/rescaled_final/1093_fw.mp4	0.0	383.53333711624146	1.0001330375671387
81	346.8264009952545	movie	1		248	79.0	2.5	/experiments/knapen_AOT/AOT_stimuli/rescaled_final/1093_fw.mp4	0.0	384.5334701538086	2.492061138153076
81	347.2106590270996	pulse	1	t		79.0	2.5	/experiments/knapen_AOT/AOT_stimuli/rescaled_final/1093_fw.mp4	0.0	384.9177281856537	
81	348.80297899246216	pulse	1	t		79.0	2.5	/experiments/knapen_AOT/AOT_stimuli/rescaled_final/1093_fw.mp4	0.0	386.51004815101624	
81	349.3184621334076	fix_post	2		12	79.0	2.5	/experiments/knapen_AOT/AOT_stimuli/rescaled_final/1093_fw.mp4	0.0	387.02553129196167	0.1000359058380127
82	349.4184980392456	fix_pre	0		120	80.0	2.5	/experiments/knapen_AOT/AOT_stimuli/rescaled_final/1537_rv.mp4	0.0	387.1255671977997	1.0001420974731445
82	350.402948141098	pulse	0	t		80.0	2.5	/experiments/knapen_AOT/AOT_stimuli/rescaled_final/1537_rv.mp4	0.0	388.1100172996521	
82	350.41864013671875	movie	1		249	80.0	2.5	/experiments/knapen_AOT/AOT_stimuli/rescaled_final/1537_rv.mp4	0.0	388.1257092952728	2.5086898803710938
82	352.01490807533264	pulse	1	t		80.0	2.5	/experiments/knapen_AOT/AOT_stimuli/rescaled_final/1537_rv.mp4	0.0	389.7219772338867	
82	352.92733001708984	fix_post	2		12	80.0	2.5	/experiments/knapen_AOT/AOT_stimuli/rescaled_final/1537_rv.mp4	0.0	390.6343991756439	0.10001206398010254
83	353.02734208106995	fix_pre	0		120	81.0	2.5	/experiments/knapen_AOT/AOT_stimuli/rescaled_final/1237_rv.mp4	0.0	390.734411239624	1.000166893005371
83	353.60270714759827	pulse	0	t		81.0	2.5	/experiments/knapen_AOT/AOT_stimuli/rescaled_final/1237_rv.mp4	0.0	391.30977630615234	
83	354.0275089740753	movie	1		246	81.0	2.5	/experiments/knapen_AOT/AOT_stimuli/rescaled_final/1237_rv.mp4	0.0	391.7345781326294	2.5003280639648438
83	355.20304107666016	pulse	1	t		81.0	2.5	/experiments/knapen_AOT/AOT_stimuli/rescaled_final/1237_rv.mp4	0.0	392.91011023521423	
83	356.52783703804016	fix_post	2		12	81.0	2.5	/experiments/knapen_AOT/AOT_stimuli/rescaled_final/1237_rv.mp4	0.0	394.23490619659424	0.10007214546203613
84	356.6279091835022	fix_pre	0		120	82.0	2.5	/experiments/knapen_AOT/AOT_stimuli/rescaled_final/0699_rv.mp4	0.0	394.3349783420563	1.0001418590545654
84	356.80305910110474	pulse	0	t		82.0	2.5	/experiments/knapen_AOT/AOT_stimuli/rescaled_final/0699_rv.mp4	0.0	394.5101282596588	
84	357.62805104255676	movie	1		250	82.0	2.5	/experiments/knapen_AOT/AOT_stimuli/rescaled_final/0699_rv.mp4	0.0	395.33512020111084	2.5004639625549316
84	358.40337204933167	pulse	1	t		82.0	2.5	/experiments/knapen_AOT/AOT_stimuli/rescaled_final/0699_rv.mp4	0.0	396.11044120788574	
84	360.00360012054443	pulse	1	t		82.0	2.5	/experiments/knapen_AOT/AOT_stimuli/rescaled_final/0699_rv.mp4	0.0	397.7106692790985	
84	360.1285150051117	fix_post	2		12	82.0	2.5	/experiments/knapen_AOT/AOT_stimuli/rescaled_final/0699_rv.mp4	0.0	397.83558416366577	0.09988808631896973
85	360.22840309143066	fix_pre	0		120	83.0	2.5	blank	1.0	397.93547224998474	1.000154972076416
85	361.2285580635071	movie	1		299	83.0	2.5	blank	1.0	398.93562722206116	2.4920570850372314
85	361.60380005836487	pulse	1	t		83.0	2.5	blank	1.0	399.31086921691895	
85	363.2041370868683	pulse	1	t		83.0	2.5	blank	1.0	400.91120624542236	
85	363.7206151485443	fix_post	2		12	83.0	2.5	blank	1.0	401.4276843070984	0.10001802444458008
87	363.8206331729889	stim	0		1716					401.52770233154297	14.302255868911743
87	364.8043041229248	pulse	0	t						402.5113732814789	
87	366.4045250415802	pulse	0	t						404.1115942001343	
87	368.00482201576233	pulse	0	t						405.7118911743164	
87	369.60511302948	pulse	0	t						407.31218218803406	
87	371.2052309513092	pulse	0	t						408.9123001098633	
87	372.8055441379547	pulse	0	t						410.5126132965088	
87	374.40573811531067	pulse	0	t						412.11280727386475	
87	376.00602197647095	pulse	0	t						413.713091135025	
87	377.606271982193	pulse	0	t						415.31334114074707	
