trial_nr	onset	event_type	phase	response	nr_frames	movie_index	movie_duration	movie_file	blank	onset_abs	duration
0	0.16670680046081543	stim	0		75					17.172393560409546	0.6249344348907471
0	0.7834877967834473	response	0	space						17.789174556732178	
1	0.7916412353515625	stim	0		4489					17.797327995300293	37.4243278503418
1	38.205880880355835	pulse	0	t						55.211567640304565	
1	38.21596908569336	stim	1		1715					55.22165584564209	14.300129652023315
1	39.79777216911316	pulse	1	t						56.80345892906189	
1	41.39795136451721	pulse	1	t						58.40363812446594	
1	42.99821496009827	pulse	1	t						60.003901720047	
1	44.59838843345642	pulse	1	t						61.60407519340515	
1	46.19881296157837	pulse	1	t						63.2044997215271	
1	47.798890829086304	pulse	1	t						64.80457758903503	
1	49.399144887924194	pulse	1	t						66.40483164787292	
1	50.999380350112915	pulse	1	t						68.00506711006165	
2	52.516098737716675	fix_pre	0		11	0.0	2.5	/experiments/Knapen_AOT/AOT_stimuli/rescaled_final/0670_fw.mp4	0.0	69.5217854976654	0.10845518112182617
2	52.59982657432556	pulse	0	t		0.0	2.5	/experiments/Knapen_AOT/AOT_stimuli/rescaled_final/0670_fw.mp4	0.0	69.60551333427429	
2	52.6245539188385	movie	1		286	0.0	2.5	/experiments/Knapen_AOT/AOT_stimuli/rescaled_final/0670_fw.mp4	0.0	69.63024067878723	2.4919350147247314
2	54.198415994644165	pulse	1	t		0.0	2.5	/experiments/Knapen_AOT/AOT_stimuli/rescaled_final/0670_fw.mp4	0.0	71.2041027545929	
2	55.11648893356323	fix_post	2		12	0.0	2.5	/experiments/Knapen_AOT/AOT_stimuli/rescaled_final/0670_fw.mp4	0.0	72.12217569351196	0.10012149810791016
3	55.21661043167114	fix_pre	0		120	1.0	2.5	/experiments/Knapen_AOT/AOT_stimuli/rescaled_final/1028_fw.mp4	0.0	72.22229719161987	1.0083870887756348
3	55.800169467926025	pulse	0	t		1.0	2.5	/experiments/Knapen_AOT/AOT_stimuli/rescaled_final/1028_fw.mp4	0.0	72.80585622787476	
3	56.22499752044678	movie	1		290	1.0	2.5	/experiments/Knapen_AOT/AOT_stimuli/rescaled_final/1028_fw.mp4	0.0	73.23068428039551	2.492043972015381
3	57.39852499961853	pulse	1	t		1.0	2.5	/experiments/Knapen_AOT/AOT_stimuli/rescaled_final/1028_fw.mp4	0.0	74.40421175956726	
3	58.71704149246216	fix_post	2		12	1.0	2.5	/experiments/Knapen_AOT/AOT_stimuli/rescaled_final/1028_fw.mp4	0.0	75.72272825241089	0.10000991821289062
4	58.81705141067505	fix_pre	0		120	2.0	2.5	/experiments/Knapen_AOT/AOT_stimuli/rescaled_final/1140_rv.mp4	0.0	75.82273817062378	1.0084993839263916
4	59.00058650970459	pulse	0	t		2.0	2.5	/experiments/Knapen_AOT/AOT_stimuli/rescaled_final/1140_rv.mp4	0.0	76.00627326965332	
4	59.82555079460144	movie	1		288	2.0	2.5	/experiments/Knapen_AOT/AOT_stimuli/rescaled_final/1140_rv.mp4	0.0	76.83123755455017	2.4920122623443604
4	60.59873127937317	pulse	1	t		2.0	2.5	/experiments/Knapen_AOT/AOT_stimuli/rescaled_final/1140_rv.mp4	0.0	77.6044180393219	
4	62.199137449264526	pulse	1	t		2.0	2.5	/experiments/Knapen_AOT/AOT_stimuli/rescaled_final/1140_rv.mp4	0.0	79.20482420921326	
4	62.3175630569458	fix_post	2		12	2.0	2.5	/experiments/Knapen_AOT/AOT_stimuli/rescaled_final/1140_rv.mp4	0.0	79.32324981689453	0.1000211238861084
5	62.41758418083191	fix_pre	0		120	3.0	2.5	/experiments/Knapen_AOT/AOT_stimuli/rescaled_final/0643_fw.mp4	0.0	79.42327094078064	1.008509874343872
5	63.42609405517578	movie	1		288	3.0	2.5	/experiments/Knapen_AOT/AOT_stimuli/rescaled_final/0643_fw.mp4	0.0	80.43178081512451	2.4920032024383545
5	63.80130386352539	pulse	1	t		3.0	2.5	/experiments/Knapen_AOT/AOT_stimuli/rescaled_final/0643_fw.mp4	0.0	80.80699062347412	
5	65.39918065071106	pulse	1	t		3.0	2.5	/experiments/Knapen_AOT/AOT_stimuli/rescaled_final/0643_fw.mp4	0.0	82.40486741065979	
5	65.91809725761414	fix_post	2		12	3.0	2.5	/experiments/Knapen_AOT/AOT_stimuli/rescaled_final/0643_fw.mp4	0.0	82.92378401756287	0.10003519058227539
6	66.01813244819641	fix_pre	0		119	4.0	2.5	/experiments/Knapen_AOT/AOT_stimuli/rescaled_final/1661_rv.mp4	0.0	83.02381920814514	1.0001487731933594
6	67.0018048286438	pulse	0	t		4.0	2.5	/experiments/Knapen_AOT/AOT_stimuli/rescaled_final/1661_rv.mp4	0.0	84.00749158859253	
6	67.01828122138977	movie	1		292	4.0	2.5	/experiments/Knapen_AOT/AOT_stimuli/rescaled_final/1661_rv.mp4	0.0	84.0239679813385	2.50036358833313
6	68.60048866271973	pulse	1	t		4.0	2.5	/experiments/Knapen_AOT/AOT_stimuli/rescaled_final/1661_rv.mp4	0.0	85.60617542266846	
6	69.5186448097229	fix_post	2		12	4.0	2.5	/experiments/Knapen_AOT/AOT_stimuli/rescaled_final/1661_rv.mp4	0.0	86.52433156967163	0.10001540184020996
7	69.61866021156311	fix_pre	0		120	5.0	2.5	blank	1.0	86.62434697151184	1.0001869201660156
7	70.20245552062988	pulse	0	t		5.0	2.5	blank	1.0	87.20814228057861	
7	70.61884713172913	movie	1		300	5.0	2.5	blank	1.0	87.62453389167786	2.5003597736358643
7	71.80251097679138	pulse	1	t		5.0	2.5	blank	1.0	88.80819773674011	
7	73.11920690536499	fix_post	2		12	5.0	2.5	blank	1.0	90.12489366531372	0.10002303123474121
8	73.21922993659973	fix_pre	0		120	6.0	2.5	/experiments/Knapen_AOT/AOT_stimuli/rescaled_final/1407_fw.mp4	0.0	90.22491669654846	1.0084776878356934
8	73.40278267860413	pulse	0	t		6.0	2.5	/experiments/Knapen_AOT/AOT_stimuli/rescaled_final/1407_fw.mp4	0.0	90.40846943855286	
8	74.22770762443542	movie	1		287	6.0	2.5	/experiments/Knapen_AOT/AOT_stimuli/rescaled_final/1407_fw.mp4	0.0	91.23339438438416	2.4920129776000977
8	75.00074648857117	pulse	1	t		6.0	2.5	/experiments/Knapen_AOT/AOT_stimuli/rescaled_final/1407_fw.mp4	0.0	92.0064332485199	
8	76.60105586051941	pulse	1	t		6.0	2.5	/experiments/Knapen_AOT/AOT_stimuli/rescaled_final/1407_fw.mp4	0.0	93.60674262046814	
8	76.71972060203552	fix_post	2		12	6.0	2.5	/experiments/Knapen_AOT/AOT_stimuli/rescaled_final/1407_fw.mp4	0.0	93.72540736198425	0.10002994537353516
9	76.81975054740906	fix_pre	0		120	7.0	2.5	/experiments/Knapen_AOT/AOT_stimuli/rescaled_final/0887_fw.mp4	0.0	93.82543730735779	1.0085511207580566
9	77.82830166816711	movie	1		290	7.0	2.5	/experiments/Knapen_AOT/AOT_stimuli/rescaled_final/0887_fw.mp4	0.0	94.83398842811584	2.491971969604492
9	78.19553637504578	pulse	1	t		7.0	2.5	/experiments/Knapen_AOT/AOT_stimuli/rescaled_final/0887_fw.mp4	0.0	95.2012231349945	
9	79.79557466506958	pulse	1	t		7.0	2.5	/experiments/Knapen_AOT/AOT_stimuli/rescaled_final/0887_fw.mp4	0.0	96.80126142501831	
9	80.3202736377716	fix_post	2		12	7.0	2.5	/experiments/Knapen_AOT/AOT_stimuli/rescaled_final/0887_fw.mp4	0.0	97.32596039772034	0.10001277923583984
10	80.42028641700745	fix_pre	0		118	8.0	2.5	/experiments/Knapen_AOT/AOT_stimuli/rescaled_final/0702_rv.mp4	0.0	97.42597317695618	0.9918537139892578
10	81.39584612846375	pulse	0	t		8.0	2.5	/experiments/Knapen_AOT/AOT_stimuli/rescaled_final/0702_rv.mp4	0.0	98.40153288841248	
10	81.4121401309967	movie	1		287	8.0	2.5	/experiments/Knapen_AOT/AOT_stimuli/rescaled_final/0702_rv.mp4	0.0	98.41782689094543	2.5003457069396973
10	82.99583864212036	pulse	1	t		8.0	2.5	/experiments/Knapen_AOT/AOT_stimuli/rescaled_final/0702_rv.mp4	0.0	100.00152540206909	
10	83.9124858379364	fix_post	2		12	8.0	2.5	/experiments/Knapen_AOT/AOT_stimuli/rescaled_final/0702_rv.mp4	0.0	100.91817259788513	0.10002398490905762
11	84.01250982284546	fix_pre	0		120	9.0	2.5	/experiments/Knapen_AOT/AOT_stimuli/rescaled_final/2014_rv.mp4	0.0	101.01819658279419	1.0084967613220215
11	84.59619283676147	pulse	0	t		9.0	2.5	/experiments/Knapen_AOT/AOT_stimuli/rescaled_final/2014_rv.mp4	0.0	101.6018795967102	
11	85.02100658416748	movie	1		285	9.0	2.5	/experiments/Knapen_AOT/AOT_stimuli/rescaled_final/2014_rv.mp4	0.0	102.02669334411621	2.4920425415039062
11	86.19629716873169	pulse	1	t		9.0	2.5	/experiments/Knapen_AOT/AOT_stimuli/rescaled_final/2014_rv.mp4	0.0	103.20198392868042	
11	87.51304912567139	fix_post	2		12	9.0	2.5	/experiments/Knapen_AOT/AOT_stimuli/rescaled_final/2014_rv.mp4	0.0	104.51873588562012	0.09999728202819824
12	87.61304640769958	fix_pre	0		120	10.0	2.5	/experiments/Knapen_AOT/AOT_stimuli/rescaled_final/0842_rv.mp4	0.0	104.61873316764832	1.0085299015045166
12	87.7965989112854	pulse	0	t		10.0	2.5	/experiments/Knapen_AOT/AOT_stimuli/rescaled_final/0842_rv.mp4	0.0	104.80228567123413	
12	88.6215763092041	movie	1		286	10.0	2.5	/experiments/Knapen_AOT/AOT_stimuli/rescaled_final/0842_rv.mp4	0.0	105.62726306915283	2.492006540298462
12	89.39698672294617	pulse	1	t		10.0	2.5	/experiments/Knapen_AOT/AOT_stimuli/rescaled_final/0842_rv.mp4	0.0	106.4026734828949	
12	90.99528908729553	pulse	1	t		10.0	2.5	/experiments/Knapen_AOT/AOT_stimuli/rescaled_final/0842_rv.mp4	0.0	108.00097584724426	
12	91.11358284950256	fix_post	2		12	10.0	2.5	/experiments/Knapen_AOT/AOT_stimuli/rescaled_final/0842_rv.mp4	0.0	108.1192696094513	0.10003209114074707
13	91.21361494064331	fix_pre	0		120	11.0	2.5	/experiments/Knapen_AOT/AOT_stimuli/rescaled_final/1874_rv.mp4	0.0	108.21930170059204	1.008467674255371
13	92.22208261489868	movie	1		282	11.0	2.5	/experiments/Knapen_AOT/AOT_stimuli/rescaled_final/1874_rv.mp4	0.0	109.22776937484741	2.4920601844787598
13	92.59745597839355	pulse	1	t		11.0	2.5	/experiments/Knapen_AOT/AOT_stimuli/rescaled_final/1874_rv.mp4	0.0	109.60314273834229	
13	94.1954436302185	pulse	1	t		11.0	2.5	/experiments/Knapen_AOT/AOT_stimuli/rescaled_final/1874_rv.mp4	0.0	111.20113039016724	
13	94.71414279937744	fix_post	2		12	11.0	2.5	/experiments/Knapen_AOT/AOT_stimuli/rescaled_final/1874_rv.mp4	0.0	111.71982955932617	0.09996533393859863
14	94.81410813331604	fix_pre	0		119	12.0	2.5	/experiments/Knapen_AOT/AOT_stimuli/rescaled_final/2142_rv.mp4	0.0	111.81979489326477	1.000157117843628
14	95.79778814315796	pulse	0	t		12.0	2.5	/experiments/Knapen_AOT/AOT_stimuli/rescaled_final/2142_rv.mp4	0.0	112.80347490310669	
14	95.81426525115967	movie	1		289	12.0	2.5	/experiments/Knapen_AOT/AOT_stimuli/rescaled_final/2142_rv.mp4	0.0	112.8199520111084	2.5003678798675537
14	97.39671659469604	pulse	1	t		12.0	2.5	/experiments/Knapen_AOT/AOT_stimuli/rescaled_final/2142_rv.mp4	0.0	114.40240335464478	
14	98.31463313102722	fix_post	2		12	12.0	2.5	/experiments/Knapen_AOT/AOT_stimuli/rescaled_final/2142_rv.mp4	0.0	115.32031989097595	0.10002708435058594
15	98.41466021537781	fix_pre	0		120	13.0	2.5	blank	1.0	115.42034697532654	1.0001544952392578
15	98.99832582473755	pulse	0	t		13.0	2.5	blank	1.0	116.00401258468628	
15	99.41481471061707	movie	1		300	13.0	2.5	blank	1.0	116.4205014705658	2.5003769397735596
15	100.59851908683777	pulse	1	t		13.0	2.5	blank	1.0	117.6042058467865	
15	101.91519165039062	fix_post	2		12	13.0	2.5	blank	1.0	118.92087841033936	0.10001468658447266
16	102.0152063369751	fix_pre	0		120	14.0	2.5	/experiments/Knapen_AOT/AOT_stimuli/rescaled_final/1102_fw.mp4	0.0	119.02089309692383	1.0086591243743896
16	102.1988935470581	pulse	0	t		14.0	2.5	/experiments/Knapen_AOT/AOT_stimuli/rescaled_final/1102_fw.mp4	0.0	119.20458030700684	
16	103.02386546134949	movie	1		290	14.0	2.5	/experiments/Knapen_AOT/AOT_stimuli/rescaled_final/1102_fw.mp4	0.0	120.02955222129822	2.4918296337127686
16	103.79700565338135	pulse	1	t		14.0	2.5	/experiments/Knapen_AOT/AOT_stimuli/rescaled_final/1102_fw.mp4	0.0	120.80269241333008	
16	105.39650917053223	pulse	1	t		14.0	2.5	/experiments/Knapen_AOT/AOT_stimuli/rescaled_final/1102_fw.mp4	0.0	122.40219593048096	
16	105.51569509506226	fix_post	2		12	14.0	2.5	/experiments/Knapen_AOT/AOT_stimuli/rescaled_final/1102_fw.mp4	0.0	122.52138185501099	0.10001945495605469
17	105.61571455001831	fix_pre	0		120	15.0	2.5	/experiments/Knapen_AOT/AOT_stimuli/rescaled_final/1929_rv.mp4	0.0	122.62140130996704	1.0085277557373047
17	106.62424230575562	movie	1		296	15.0	2.5	/experiments/Knapen_AOT/AOT_stimuli/rescaled_final/1929_rv.mp4	0.0	123.62992906570435	2.491992712020874
17	106.9968364238739	pulse	1	t		15.0	2.5	/experiments/Knapen_AOT/AOT_stimuli/rescaled_final/1929_rv.mp4	0.0	124.00252318382263	
17	108.59528589248657	pulse	1	t		15.0	2.5	/experiments/Knapen_AOT/AOT_stimuli/rescaled_final/1929_rv.mp4	0.0	125.6009726524353	
17	109.11623501777649	fix_post	2		12	15.0	2.5	/experiments/Knapen_AOT/AOT_stimuli/rescaled_final/1929_rv.mp4	0.0	126.12192177772522	0.10001778602600098
18	109.21625280380249	fix_pre	0		119	16.0	2.5	/experiments/Knapen_AOT/AOT_stimuli/rescaled_final/2096_rv.mp4	0.0	126.22193956375122	1.0001659393310547
18	110.19993996620178	pulse	0	t		16.0	2.5	/experiments/Knapen_AOT/AOT_stimuli/rescaled_final/2096_rv.mp4	0.0	127.20562672615051	
18	110.21641874313354	movie	1		296	16.0	2.5	/experiments/Knapen_AOT/AOT_stimuli/rescaled_final/2096_rv.mp4	0.0	127.22210550308228	2.5003573894500732
18	111.79843974113464	pulse	1	t		16.0	2.5	/experiments/Knapen_AOT/AOT_stimuli/rescaled_final/2096_rv.mp4	0.0	128.80412650108337	
18	112.71677613258362	fix_post	2		12	16.0	2.5	/experiments/Knapen_AOT/AOT_stimuli/rescaled_final/2096_rv.mp4	0.0	129.72246289253235	0.1000363826751709
19	112.81681251525879	fix_pre	0		120	17.0	2.5	/experiments/Knapen_AOT/AOT_stimuli/rescaled_final/0914_rv.mp4	0.0	129.82249927520752	1.008481502532959
19	113.40035843849182	pulse	0	t		17.0	2.5	/experiments/Knapen_AOT/AOT_stimuli/rescaled_final/0914_rv.mp4	0.0	130.40604519844055	
19	113.82529401779175	movie	1		294	17.0	2.5	/experiments/Knapen_AOT/AOT_stimuli/rescaled_final/0914_rv.mp4	0.0	130.83098077774048	2.4920382499694824
19	114.99693775177002	pulse	1	t		17.0	2.5	/experiments/Knapen_AOT/AOT_stimuli/rescaled_final/0914_rv.mp4	0.0	132.00262451171875	
19	116.31733226776123	fix_post	2		12	17.0	2.5	/experiments/Knapen_AOT/AOT_stimuli/rescaled_final/0914_rv.mp4	0.0	133.32301902770996	0.10005593299865723
20	116.41738820075989	fix_pre	0		120	18.0	2.5	/experiments/Knapen_AOT/AOT_stimuli/rescaled_final/1298_fw.mp4	0.0	133.42307496070862	1.0000762939453125
20	116.60085201263428	pulse	0	t		18.0	2.5	/experiments/Knapen_AOT/AOT_stimuli/rescaled_final/1298_fw.mp4	0.0	133.606538772583	
20	117.4174644947052	movie	1		290	18.0	2.5	/experiments/Knapen_AOT/AOT_stimuli/rescaled_final/1298_fw.mp4	0.0	134.42315125465393	2.500408411026001
20	118.19911193847656	pulse	1	t		18.0	2.5	/experiments/Knapen_AOT/AOT_stimuli/rescaled_final/1298_fw.mp4	0.0	135.2047986984253	
20	119.799307346344	pulse	1	t		18.0	2.5	/experiments/Knapen_AOT/AOT_stimuli/rescaled_final/1298_fw.mp4	0.0	136.80499410629272	
20	119.9178729057312	fix_post	2		12	18.0	2.5	/experiments/Knapen_AOT/AOT_stimuli/rescaled_final/1298_fw.mp4	0.0	136.92355966567993	0.10001206398010254
21	120.0178849697113	fix_pre	0		120	19.0	2.5	blank	1.0	137.02357172966003	1.0001513957977295
21	121.01803636550903	movie	1		300	19.0	2.5	blank	1.0	138.02372312545776	2.500382661819458
21	121.40187048912048	pulse	1	t		19.0	2.5	blank	1.0	138.4075572490692	
21	123.00216507911682	pulse	1	t		19.0	2.5	blank	1.0	140.00785183906555	
21	123.51841902732849	fix_post	2		12	19.0	2.5	blank	1.0	140.52410578727722	0.1000368595123291
22	123.61845588684082	fix_pre	0		119	20.0	2.5	/experiments/Knapen_AOT/AOT_stimuli/rescaled_final/1947_rv.mp4	0.0	140.62414264678955	1.0001587867736816
22	124.60213875770569	pulse	0	t		20.0	2.5	/experiments/Knapen_AOT/AOT_stimuli/rescaled_final/1947_rv.mp4	0.0	141.60782551765442	
22	124.6186146736145	movie	1		285	20.0	2.5	/experiments/Knapen_AOT/AOT_stimuli/rescaled_final/1947_rv.mp4	0.0	141.62430143356323	2.50032901763916
22	126.2010293006897	pulse	1	t		20.0	2.5	/experiments/Knapen_AOT/AOT_stimuli/rescaled_final/1947_rv.mp4	0.0	143.20671606063843	
22	127.11894369125366	fix_post	2		12	20.0	2.5	/experiments/Knapen_AOT/AOT_stimuli/rescaled_final/1947_rv.mp4	0.0	144.1246304512024	0.10003161430358887
23	127.21897530555725	fix_pre	0		120	21.0	2.5	/experiments/Knapen_AOT/AOT_stimuli/rescaled_final/2033_fw.mp4	0.0	144.22466206550598	1.0084874629974365
23	127.79496717453003	pulse	0	t		21.0	2.5	/experiments/Knapen_AOT/AOT_stimuli/rescaled_final/2033_fw.mp4	0.0	144.80065393447876	
23	128.2274627685547	movie	1		278	21.0	2.5	/experiments/Knapen_AOT/AOT_stimuli/rescaled_final/2033_fw.mp4	0.0	145.23314952850342	2.492049217224121
23	129.3949327468872	pulse	1	t		21.0	2.5	/experiments/Knapen_AOT/AOT_stimuli/rescaled_final/2033_fw.mp4	0.0	146.40061950683594	
23	130.7195119857788	fix_post	2		12	21.0	2.5	/experiments/Knapen_AOT/AOT_stimuli/rescaled_final/2033_fw.mp4	0.0	147.72519874572754	0.10001993179321289
24	130.81953191757202	fix_pre	0		120	22.0	2.5	/experiments/Knapen_AOT/AOT_stimuli/rescaled_final/1517_fw.mp4	0.0	147.82521867752075	1.0084853172302246
24	130.99509620666504	pulse	0	t		22.0	2.5	/experiments/Knapen_AOT/AOT_stimuli/rescaled_final/1517_fw.mp4	0.0	148.00078296661377	
24	131.82801723480225	movie	1		285	22.0	2.5	/experiments/Knapen_AOT/AOT_stimuli/rescaled_final/1517_fw.mp4	0.0	148.83370399475098	2.492018222808838
24	132.5950791835785	pulse	1	t		22.0	2.5	/experiments/Knapen_AOT/AOT_stimuli/rescaled_final/1517_fw.mp4	0.0	149.60076594352722	
24	134.1953387260437	pulse	1	t		22.0	2.5	/experiments/Knapen_AOT/AOT_stimuli/rescaled_final/1517_fw.mp4	0.0	151.20102548599243	
24	134.32003545761108	fix_post	2		12	22.0	2.5	/experiments/Knapen_AOT/AOT_stimuli/rescaled_final/1517_fw.mp4	0.0	151.32572221755981	0.10001111030578613
25	134.42004656791687	fix_pre	0		120	23.0	2.5	/experiments/Knapen_AOT/AOT_stimuli/rescaled_final/0100_fw.mp4	0.0	151.4257333278656	1.0085113048553467
25	135.42855787277222	movie	1		291	23.0	2.5	/experiments/Knapen_AOT/AOT_stimuli/rescaled_final/0100_fw.mp4	0.0	152.43424463272095	2.4921798706054688
25	135.79587268829346	pulse	1	t		23.0	2.5	/experiments/Knapen_AOT/AOT_stimuli/rescaled_final/0100_fw.mp4	0.0	152.8015594482422	
25	137.3957233428955	pulse	1	t		23.0	2.5	/experiments/Knapen_AOT/AOT_stimuli/rescaled_final/0100_fw.mp4	0.0	154.40141010284424	
25	137.92073774337769	fix_post	2		12	23.0	2.5	/experiments/Knapen_AOT/AOT_stimuli/rescaled_final/0100_fw.mp4	0.0	154.92642450332642	0.09985685348510742
26	138.0205945968628	fix_pre	0		118	24.0	2.5	/experiments/Knapen_AOT/AOT_stimuli/rescaled_final/0770_fw.mp4	0.0	155.02628135681152	0.9918262958526611
26	138.9960126876831	pulse	0	t		24.0	2.5	/experiments/Knapen_AOT/AOT_stimuli/rescaled_final/0770_fw.mp4	0.0	156.00169944763184	
26	139.01242089271545	movie	1		292	24.0	2.5	/experiments/Knapen_AOT/AOT_stimuli/rescaled_final/0770_fw.mp4	0.0	156.01810765266418	2.5003576278686523
26	140.59633469581604	pulse	1	t		24.0	2.5	/experiments/Knapen_AOT/AOT_stimuli/rescaled_final/0770_fw.mp4	0.0	157.60202145576477	
26	141.5127785205841	fix_post	2		12	24.0	2.5	/experiments/Knapen_AOT/AOT_stimuli/rescaled_final/0770_fw.mp4	0.0	158.51846528053284	0.10002803802490234
27	141.612806558609	fix_pre	0		120	25.0	2.5	/experiments/Knapen_AOT/AOT_stimuli/rescaled_final/0441_rv.mp4	0.0	158.61849331855774	1.008530616760254
27	142.1968457698822	pulse	0	t		25.0	2.5	/experiments/Knapen_AOT/AOT_stimuli/rescaled_final/0441_rv.mp4	0.0	159.20253252983093	
27	142.62133717536926	movie	1		277	25.0	2.5	/experiments/Knapen_AOT/AOT_stimuli/rescaled_final/0441_rv.mp4	0.0	159.627023935318	2.4919824600219727
27	143.79498624801636	pulse	1	t		25.0	2.5	/experiments/Knapen_AOT/AOT_stimuli/rescaled_final/0441_rv.mp4	0.0	160.8006730079651	
27	145.11331963539124	fix_post	2		12	25.0	2.5	/experiments/Knapen_AOT/AOT_stimuli/rescaled_final/0441_rv.mp4	0.0	162.11900639533997	0.10006022453308105
28	145.21337985992432	fix_pre	0		120	26.0	2.5	/experiments/Knapen_AOT/AOT_stimuli/rescaled_final/1923_rv.mp4	0.0	162.21906661987305	1.0084421634674072
28	145.39697265625	pulse	0	t		26.0	2.5	/experiments/Knapen_AOT/AOT_stimuli/rescaled_final/1923_rv.mp4	0.0	162.40265941619873	
28	146.22182202339172	movie	1		280	26.0	2.5	/experiments/Knapen_AOT/AOT_stimuli/rescaled_final/1923_rv.mp4	0.0	163.22750878334045	2.4920644760131836
28	146.99587416648865	pulse	1	t		26.0	2.5	/experiments/Knapen_AOT/AOT_stimuli/rescaled_final/1923_rv.mp4	0.0	164.00156092643738	
28	148.59549736976624	pulse	1	t		26.0	2.5	/experiments/Knapen_AOT/AOT_stimuli/rescaled_final/1923_rv.mp4	0.0	165.60118412971497	
28	148.7138864994049	fix_post	2		12	26.0	2.5	/experiments/Knapen_AOT/AOT_stimuli/rescaled_final/1923_rv.mp4	0.0	165.71957325935364	0.10000109672546387
29	148.81388759613037	fix_pre	0		120	27.0	2.5	/experiments/Knapen_AOT/AOT_stimuli/rescaled_final/1485_fw.mp4	0.0	165.8195743560791	1.0085647106170654
29	149.82245230674744	movie	1		283	27.0	2.5	/experiments/Knapen_AOT/AOT_stimuli/rescaled_final/1485_fw.mp4	0.0	166.82813906669617	2.4919629096984863
29	150.19688248634338	pulse	1	t		27.0	2.5	/experiments/Knapen_AOT/AOT_stimuli/rescaled_final/1485_fw.mp4	0.0	167.20256924629211	
29	151.79603815078735	pulse	1	t		27.0	2.5	/experiments/Knapen_AOT/AOT_stimuli/rescaled_final/1485_fw.mp4	0.0	168.80172491073608	
29	152.31441521644592	fix_post	2		12	27.0	2.5	/experiments/Knapen_AOT/AOT_stimuli/rescaled_final/1485_fw.mp4	0.0	169.32010197639465	0.1000070571899414
30	152.41442227363586	fix_pre	0		119	28.0	2.5	blank	1.0	169.4201090335846	0.9918217658996582
30	153.39819049835205	pulse	0	t		28.0	2.5	blank	1.0	170.40387725830078	
30	153.40624403953552	movie	1		301	28.0	2.5	blank	1.0	170.41193079948425	2.508699417114258
30	154.99836826324463	pulse	1	t		28.0	2.5	blank	1.0	172.00405502319336	
30	155.91494345664978	fix_post	2		12	28.0	2.5	blank	1.0	172.9206302165985	0.10003066062927246
31	156.01497411727905	fix_pre	0		120	29.0	2.5	/experiments/Knapen_AOT/AOT_stimuli/rescaled_final/1661_fw.mp4	0.0	173.02066087722778	1.0084912776947021
31	156.59861087799072	pulse	0	t		29.0	2.5	/experiments/Knapen_AOT/AOT_stimuli/rescaled_final/1661_fw.mp4	0.0	173.60429763793945	
31	157.02346539497375	movie	1		289	29.0	2.5	/experiments/Knapen_AOT/AOT_stimuli/rescaled_final/1661_fw.mp4	0.0	174.02915215492249	2.4920411109924316
31	158.19669365882874	pulse	1	t		29.0	2.5	/experiments/Knapen_AOT/AOT_stimuli/rescaled_final/1661_fw.mp4	0.0	175.20238041877747	
31	159.5155065059662	fix_post	2		12	29.0	2.5	/experiments/Knapen_AOT/AOT_stimuli/rescaled_final/1661_fw.mp4	0.0	176.52119326591492	0.10007691383361816
32	159.6155834197998	fix_pre	0		120	30.0	2.5	/experiments/Knapen_AOT/AOT_stimuli/rescaled_final/2034_rv.mp4	0.0	176.62127017974854	1.008439302444458
32	159.7990963459015	pulse	0	t		30.0	2.5	/experiments/Knapen_AOT/AOT_stimuli/rescaled_final/2034_rv.mp4	0.0	176.80478310585022	
32	160.62402272224426	movie	1		286	30.0	2.5	/experiments/Knapen_AOT/AOT_stimuli/rescaled_final/2034_rv.mp4	0.0	177.629709482193	2.49202561378479
32	161.39728808403015	pulse	1	t		30.0	2.5	/experiments/Knapen_AOT/AOT_stimuli/rescaled_final/2034_rv.mp4	0.0	178.40297484397888	
32	162.99748611450195	pulse	1	t		30.0	2.5	/experiments/Knapen_AOT/AOT_stimuli/rescaled_final/2034_rv.mp4	0.0	180.00317287445068	
32	163.11604833602905	fix_post	2		11	30.0	2.5	/experiments/Knapen_AOT/AOT_stimuli/rescaled_final/2034_rv.mp4	0.0	180.12173509597778	0.09998798370361328
33	163.21603631973267	fix_pre	0		120	31.0	2.5	/experiments/Knapen_AOT/AOT_stimuli/rescaled_final/1495_rv.mp4	0.0	180.2217230796814	1.0085558891296387
33	164.2245922088623	movie	1		290	31.0	2.5	/experiments/Knapen_AOT/AOT_stimuli/rescaled_final/1495_rv.mp4	0.0	181.23027896881104	2.49198055267334
33	164.5990023612976	pulse	1	t		31.0	2.5	/experiments/Knapen_AOT/AOT_stimuli/rescaled_final/1495_rv.mp4	0.0	181.60468912124634	
33	166.19805240631104	pulse	1	t		31.0	2.5	/experiments/Knapen_AOT/AOT_stimuli/rescaled_final/1495_rv.mp4	0.0	183.20373916625977	
33	166.71657276153564	fix_post	2		12	31.0	2.5	/experiments/Knapen_AOT/AOT_stimuli/rescaled_final/1495_rv.mp4	0.0	183.72225952148438	0.10001349449157715
34	166.81658625602722	fix_pre	0		119	32.0	2.5	/experiments/Knapen_AOT/AOT_stimuli/rescaled_final/0407_fw.mp4	0.0	183.82227301597595	1.0001490116119385
34	167.8002986907959	pulse	0	t		32.0	2.5	/experiments/Knapen_AOT/AOT_stimuli/rescaled_final/0407_fw.mp4	0.0	184.80598545074463	
34	167.81673526763916	movie	1		283	32.0	2.5	/experiments/Knapen_AOT/AOT_stimuli/rescaled_final/0407_fw.mp4	0.0	184.8224220275879	2.5003817081451416
34	169.39930820465088	pulse	1	t		32.0	2.5	/experiments/Knapen_AOT/AOT_stimuli/rescaled_final/0407_fw.mp4	0.0	186.4049949645996	
34	170.3171169757843	fix_post	2		12	32.0	2.5	/experiments/Knapen_AOT/AOT_stimuli/rescaled_final/0407_fw.mp4	0.0	187.32280373573303	0.1000523567199707
35	170.41716933250427	fix_pre	0		120	33.0	2.5	blank	1.0	187.422856092453	1.0000920295715332
35	171.0007643699646	pulse	0	t		33.0	2.5	blank	1.0	188.00645112991333	
35	171.4172613620758	movie	1		300	33.0	2.5	blank	1.0	188.42294812202454	2.500396728515625
35	172.60116386413574	pulse	1	t		33.0	2.5	blank	1.0	189.60685062408447	
35	173.91765809059143	fix_post	2		12	33.0	2.5	blank	1.0	190.92334485054016	0.1000204086303711
36	174.0176784992218	fix_pre	0		120	34.0	2.5	/experiments/Knapen_AOT/AOT_stimuli/rescaled_final/1947_fw.mp4	0.0	191.02336525917053	1.008535385131836
36	174.20139074325562	pulse	0	t		34.0	2.5	/experiments/Knapen_AOT/AOT_stimuli/rescaled_final/1947_fw.mp4	0.0	191.20707750320435	
36	175.02621388435364	movie	1		285	34.0	2.5	/experiments/Knapen_AOT/AOT_stimuli/rescaled_final/1947_fw.mp4	0.0	192.03190064430237	2.4919934272766113
36	175.79944729804993	pulse	1	t		34.0	2.5	/experiments/Knapen_AOT/AOT_stimuli/rescaled_final/1947_fw.mp4	0.0	192.80513405799866	
36	177.3996741771698	pulse	1	t		34.0	2.5	/experiments/Knapen_AOT/AOT_stimuli/rescaled_final/1947_fw.mp4	0.0	194.40536093711853	
36	177.51820731163025	fix_post	2		12	34.0	2.5	/experiments/Knapen_AOT/AOT_stimuli/rescaled_final/1947_fw.mp4	0.0	194.52389407157898	0.10001373291015625
37	177.6182210445404	fix_pre	0		120	35.0	2.5	/experiments/Knapen_AOT/AOT_stimuli/rescaled_final/1298_fw.mp4	0.0	194.62390780448914	1.0084702968597412
37	178.62669134140015	movie	1		286	35.0	2.5	/experiments/Knapen_AOT/AOT_stimuli/rescaled_final/1298_fw.mp4	0.0	195.63237810134888	2.4920437335968018
37	179.0005066394806	pulse	1	t		35.0	2.5	/experiments/Knapen_AOT/AOT_stimuli/rescaled_final/1298_fw.mp4	0.0	196.00619339942932	
37	180.6005823612213	pulse	1	t		35.0	2.5	/experiments/Knapen_AOT/AOT_stimuli/rescaled_final/1298_fw.mp4	0.0	197.60626912117004	
37	181.11873507499695	fix_post	2		12	35.0	2.5	/experiments/Knapen_AOT/AOT_stimuli/rescaled_final/1298_fw.mp4	0.0	198.12442183494568	0.10002279281616211
38	181.2187578678131	fix_pre	0		119	36.0	2.5	/experiments/Knapen_AOT/AOT_stimuli/rescaled_final/1542_fw.mp4	0.0	198.22444462776184	1.000154972076416
38	182.2025020122528	pulse	0	t		36.0	2.5	/experiments/Knapen_AOT/AOT_stimuli/rescaled_final/1542_fw.mp4	0.0	199.20818877220154	
38	182.21891283988953	movie	1		284	36.0	2.5	/experiments/Knapen_AOT/AOT_stimuli/rescaled_final/1542_fw.mp4	0.0	199.22459959983826	2.500403881072998
38	183.80125069618225	pulse	1	t		36.0	2.5	/experiments/Knapen_AOT/AOT_stimuli/rescaled_final/1542_fw.mp4	0.0	200.80693745613098	
38	184.71931672096252	fix_post	2		12	36.0	2.5	/experiments/Knapen_AOT/AOT_stimuli/rescaled_final/1542_fw.mp4	0.0	201.72500348091125	0.09997868537902832
39	184.81929540634155	fix_pre	0		120	37.0	2.5	/experiments/Knapen_AOT/AOT_stimuli/rescaled_final/1140_fw.mp4	0.0	201.82498216629028	1.008474349975586
39	185.40293908119202	pulse	0	t		37.0	2.5	/experiments/Knapen_AOT/AOT_stimuli/rescaled_final/1140_fw.mp4	0.0	202.40862584114075	
39	185.82776975631714	movie	1		292	37.0	2.5	/experiments/Knapen_AOT/AOT_stimuli/rescaled_final/1140_fw.mp4	0.0	202.83345651626587	2.4920716285705566
39	187.0014624595642	pulse	1	t		37.0	2.5	/experiments/Knapen_AOT/AOT_stimuli/rescaled_final/1140_fw.mp4	0.0	204.00714921951294	
39	188.3198413848877	fix_post	2		12	37.0	2.5	/experiments/Knapen_AOT/AOT_stimuli/rescaled_final/1140_fw.mp4	0.0	205.32552814483643	0.10002470016479492
40	188.4198660850525	fix_pre	0		120	38.0	2.5	/experiments/Knapen_AOT/AOT_stimuli/rescaled_final/0591_fw.mp4	0.0	205.42555284500122	1.008577823638916
40	188.59536409378052	pulse	0	t		38.0	2.5	/experiments/Knapen_AOT/AOT_stimuli/rescaled_final/0591_fw.mp4	0.0	205.60105085372925	
40	189.4284439086914	movie	1		280	38.0	2.5	/experiments/Knapen_AOT/AOT_stimuli/rescaled_final/0591_fw.mp4	0.0	206.43413066864014	2.4919443130493164
40	190.1953673362732	pulse	1	t		38.0	2.5	/experiments/Knapen_AOT/AOT_stimuli/rescaled_final/0591_fw.mp4	0.0	207.20105409622192	
40	191.79562067985535	pulse	1	t		38.0	2.5	/experiments/Knapen_AOT/AOT_stimuli/rescaled_final/0591_fw.mp4	0.0	208.80130743980408	
40	191.92038822174072	fix_post	2		12	38.0	2.5	/experiments/Knapen_AOT/AOT_stimuli/rescaled_final/0591_fw.mp4	0.0	208.92607498168945	0.0999603271484375
41	192.02034854888916	fix_pre	0		120	39.0	2.5	/experiments/Knapen_AOT/AOT_stimuli/rescaled_final/0586_fw.mp4	0.0	209.0260353088379	1.0085265636444092
41	193.02887511253357	movie	1		285	39.0	2.5	/experiments/Knapen_AOT/AOT_stimuli/rescaled_final/0586_fw.mp4	0.0	210.0345618724823	2.492032766342163
41	193.3960518836975	pulse	1	t		39.0	2.5	/experiments/Knapen_AOT/AOT_stimuli/rescaled_final/0586_fw.mp4	0.0	210.40173864364624	
41	194.996018409729	pulse	1	t		39.0	2.5	/experiments/Knapen_AOT/AOT_stimuli/rescaled_final/0586_fw.mp4	0.0	212.00170516967773	
41	195.52090787887573	fix_post	2		12	39.0	2.5	/experiments/Knapen_AOT/AOT_stimuli/rescaled_final/0586_fw.mp4	0.0	212.52659463882446	0.10002017021179199
42	195.62092804908752	fix_pre	0		118	40.0	2.5	blank	1.0	212.62661480903625	0.983489990234375
42	196.59629583358765	pulse	0	t		40.0	2.5	blank	1.0	213.60198259353638	
42	196.6044180393219	movie	1		301	40.0	2.5	blank	1.0	213.61010479927063	2.508694648742676
42	198.19670820236206	pulse	1	t		40.0	2.5	blank	1.0	215.2023949623108	
42	199.11311268806458	fix_post	2		12	40.0	2.5	blank	1.0	216.1187994480133	0.10008955001831055
43	199.21320223808289	fix_pre	0		120	41.0	2.5	/experiments/Knapen_AOT/AOT_stimuli/rescaled_final/0198_rv.mp4	0.0	216.21888899803162	1.0084118843078613
43	199.79689002037048	pulse	0	t		41.0	2.5	/experiments/Knapen_AOT/AOT_stimuli/rescaled_final/0198_rv.mp4	0.0	216.8025767803192	
43	200.22161412239075	movie	1		282	41.0	2.5	/experiments/Knapen_AOT/AOT_stimuli/rescaled_final/0198_rv.mp4	0.0	217.22730088233948	2.492037057876587
43	201.39576387405396	pulse	1	t		41.0	2.5	/experiments/Knapen_AOT/AOT_stimuli/rescaled_final/0198_rv.mp4	0.0	218.40145063400269	
43	202.71365118026733	fix_post	2		12	41.0	2.5	/experiments/Knapen_AOT/AOT_stimuli/rescaled_final/0198_rv.mp4	0.0	219.71933794021606	0.1000070571899414
44	202.81365823745728	fix_pre	0		120	42.0	2.5	/experiments/Knapen_AOT/AOT_stimuli/rescaled_final/1726_fw.mp4	0.0	219.819344997406	1.0085561275482178
44	202.99724173545837	pulse	0	t		42.0	2.5	/experiments/Knapen_AOT/AOT_stimuli/rescaled_final/1726_fw.mp4	0.0	220.0029284954071	
44	203.8222143650055	movie	1		292	42.0	2.5	/experiments/Knapen_AOT/AOT_stimuli/rescaled_final/1726_fw.mp4	0.0	220.82790112495422	2.4919686317443848
44	204.59638261795044	pulse	1	t		42.0	2.5	/experiments/Knapen_AOT/AOT_stimuli/rescaled_final/1726_fw.mp4	0.0	221.60206937789917	
44	206.19581818580627	pulse	1	t		42.0	2.5	/experiments/Knapen_AOT/AOT_stimuli/rescaled_final/1726_fw.mp4	0.0	223.201504945755	
44	206.31418299674988	fix_post	2		12	42.0	2.5	/experiments/Knapen_AOT/AOT_stimuli/rescaled_final/1726_fw.mp4	0.0	223.3198697566986	0.10013079643249512
45	206.41431379318237	fix_pre	0		120	43.0	2.5	/experiments/Knapen_AOT/AOT_stimuli/rescaled_final/0037_fw.mp4	0.0	223.4200005531311	1.0084030628204346
45	207.4227168560028	movie	1		276	43.0	2.5	/experiments/Knapen_AOT/AOT_stimuli/rescaled_final/0037_fw.mp4	0.0	224.42840361595154	2.492011070251465
45	207.79676842689514	pulse	1	t		43.0	2.5	/experiments/Knapen_AOT/AOT_stimuli/rescaled_final/0037_fw.mp4	0.0	224.80245518684387	
45	209.39712119102478	pulse	1	t		43.0	2.5	/experiments/Knapen_AOT/AOT_stimuli/rescaled_final/0037_fw.mp4	0.0	226.4028079509735	
45	209.91472792625427	fix_post	2		12	43.0	2.5	/experiments/Knapen_AOT/AOT_stimuli/rescaled_final/0037_fw.mp4	0.0	226.920414686203	0.1000204086303711
46	210.01474833488464	fix_pre	0		119	44.0	2.5	/experiments/Knapen_AOT/AOT_stimuli/rescaled_final/0854_rv.mp4	0.0	227.02043509483337	1.0001749992370605
46	210.9984483718872	pulse	0	t		44.0	2.5	/experiments/Knapen_AOT/AOT_stimuli/rescaled_final/0854_rv.mp4	0.0	228.00413513183594	
46	211.0149233341217	movie	1		286	44.0	2.5	/experiments/Knapen_AOT/AOT_stimuli/rescaled_final/0854_rv.mp4	0.0	228.02061009407043	2.5003530979156494
46	212.59746050834656	pulse	1	t		44.0	2.5	/experiments/Knapen_AOT/AOT_stimuli/rescaled_final/0854_rv.mp4	0.0	229.6031472682953	
46	213.51527643203735	fix_post	2		12	44.0	2.5	/experiments/Knapen_AOT/AOT_stimuli/rescaled_final/0854_rv.mp4	0.0	230.52096319198608	0.1000056266784668
47	213.61528205871582	fix_pre	0		120	45.0	2.5	/experiments/Knapen_AOT/AOT_stimuli/rescaled_final/2177_fw.mp4	0.0	230.62096881866455	1.00850510597229
47	214.19889068603516	pulse	0	t		45.0	2.5	/experiments/Knapen_AOT/AOT_stimuli/rescaled_final/2177_fw.mp4	0.0	231.2045774459839	
47	214.6237871646881	movie	1		275	45.0	2.5	/experiments/Knapen_AOT/AOT_stimuli/rescaled_final/2177_fw.mp4	0.0	231.62947392463684	2.492007255554199
47	215.79920744895935	pulse	1	t		45.0	2.5	/experiments/Knapen_AOT/AOT_stimuli/rescaled_final/2177_fw.mp4	0.0	232.80489420890808	
47	217.1157944202423	fix_post	2		12	45.0	2.5	/experiments/Knapen_AOT/AOT_stimuli/rescaled_final/2177_fw.mp4	0.0	234.12148118019104	0.10002636909484863
48	217.21582078933716	fix_pre	0		120	46.0	2.5	/experiments/Knapen_AOT/AOT_stimuli/rescaled_final/1691_fw.mp4	0.0	234.2215075492859	1.0085039138793945
48	217.3993968963623	pulse	0	t		46.0	2.5	/experiments/Knapen_AOT/AOT_stimuli/rescaled_final/1691_fw.mp4	0.0	234.40508365631104	
48	218.22432470321655	movie	1		278	46.0	2.5	/experiments/Knapen_AOT/AOT_stimuli/rescaled_final/1691_fw.mp4	0.0	235.23001146316528	2.492021322250366
48	218.99769067764282	pulse	1	t		46.0	2.5	/experiments/Knapen_AOT/AOT_stimuli/rescaled_final/1691_fw.mp4	0.0	236.00337743759155	
48	220.59773635864258	pulse	1	t		46.0	2.5	/experiments/Knapen_AOT/AOT_stimuli/rescaled_final/1691_fw.mp4	0.0	237.6034231185913	
48	220.71634602546692	fix_post	2		12	46.0	2.5	/experiments/Knapen_AOT/AOT_stimuli/rescaled_final/1691_fw.mp4	0.0	237.72203278541565	0.10002374649047852
49	220.8163697719574	fix_pre	0		120	47.0	2.5	/experiments/Knapen_AOT/AOT_stimuli/rescaled_final/1400_rv.mp4	0.0	237.82205653190613	1.0085227489471436
49	221.82489252090454	movie	1		277	47.0	2.5	/experiments/Knapen_AOT/AOT_stimuli/rescaled_final/1400_rv.mp4	0.0	238.83057928085327	2.4920129776000977
49	222.20018196105957	pulse	1	t		47.0	2.5	/experiments/Knapen_AOT/AOT_stimuli/rescaled_final/1400_rv.mp4	0.0	239.2058687210083	
49	223.79807257652283	pulse	1	t		47.0	2.5	/experiments/Knapen_AOT/AOT_stimuli/rescaled_final/1400_rv.mp4	0.0	240.80375933647156	
49	224.31690549850464	fix_post	2		12	47.0	2.5	/experiments/Knapen_AOT/AOT_stimuli/rescaled_final/1400_rv.mp4	0.0	241.32259225845337	0.10004377365112305
50	224.41694927215576	fix_pre	0		119	48.0	2.5	blank	1.0	241.4226360321045	0.9918487071990967
50	225.40063524246216	pulse	0	t		48.0	2.5	blank	1.0	242.4063220024109	
50	225.40879797935486	movie	1		301	48.0	2.5	blank	1.0	242.4144847393036	2.508626699447632
50	227.00098061561584	pulse	1	t		48.0	2.5	blank	1.0	244.00666737556458	
50	227.9174246788025	fix_post	2		12	48.0	2.5	blank	1.0	244.92311143875122	0.10003995895385742
51	228.01746463775635	fix_pre	0		120	49.0	2.5	/experiments/Knapen_AOT/AOT_stimuli/rescaled_final/0365_fw.mp4	0.0	245.02315139770508	1.008516788482666
51	228.6013162136078	pulse	0	t		49.0	2.5	/experiments/Knapen_AOT/AOT_stimuli/rescaled_final/0365_fw.mp4	0.0	245.60700297355652	
51	229.025981426239	movie	1		287	49.0	2.5	/experiments/Knapen_AOT/AOT_stimuli/rescaled_final/0365_fw.mp4	0.0	246.03166818618774	2.491973638534546
51	230.19927310943604	pulse	1	t		49.0	2.5	/experiments/Knapen_AOT/AOT_stimuli/rescaled_final/0365_fw.mp4	0.0	247.20495986938477	
51	231.51795506477356	fix_post	2		12	49.0	2.5	/experiments/Knapen_AOT/AOT_stimuli/rescaled_final/0365_fw.mp4	0.0	248.5236418247223	0.1000974178314209
52	231.61805248260498	fix_pre	0		120	50.0	2.5	/experiments/Knapen_AOT/AOT_stimuli/rescaled_final/2086_fw.mp4	0.0	248.6237392425537	1.0084211826324463
52	231.80154657363892	pulse	0	t		50.0	2.5	/experiments/Knapen_AOT/AOT_stimuli/rescaled_final/2086_fw.mp4	0.0	248.80723333358765	
52	232.62647366523743	movie	1		290	50.0	2.5	/experiments/Knapen_AOT/AOT_stimuli/rescaled_final/2086_fw.mp4	0.0	249.63216042518616	2.492051601409912
52	233.40024948120117	pulse	1	t		50.0	2.5	/experiments/Knapen_AOT/AOT_stimuli/rescaled_final/2086_fw.mp4	0.0	250.4059362411499	
52	235.0003354549408	pulse	1	t		50.0	2.5	/experiments/Knapen_AOT/AOT_stimuli/rescaled_final/2086_fw.mp4	0.0	252.00602221488953	
52	235.11852526664734	fix_post	2		12	50.0	2.5	/experiments/Knapen_AOT/AOT_stimuli/rescaled_final/2086_fw.mp4	0.0	252.12421202659607	0.10004186630249023
53	235.21856713294983	fix_pre	0		120	51.0	2.5	/experiments/Knapen_AOT/AOT_stimuli/rescaled_final/0440_fw.mp4	0.0	252.22425389289856	1.0084569454193115
53	236.22702407836914	movie	1		284	51.0	2.5	/experiments/Knapen_AOT/AOT_stimuli/rescaled_final/0440_fw.mp4	0.0	253.23271083831787	2.492042064666748
53	236.60106992721558	pulse	1	t		51.0	2.5	/experiments/Knapen_AOT/AOT_stimuli/rescaled_final/0440_fw.mp4	0.0	253.6067566871643	
53	238.200763463974	pulse	1	t		51.0	2.5	/experiments/Knapen_AOT/AOT_stimuli/rescaled_final/0440_fw.mp4	0.0	255.20645022392273	
53	238.7190661430359	fix_post	2		12	51.0	2.5	/experiments/Knapen_AOT/AOT_stimuli/rescaled_final/0440_fw.mp4	0.0	255.72475290298462	0.10001134872436523
54	238.81907749176025	fix_pre	0		119	52.0	2.5	/experiments/Knapen_AOT/AOT_stimuli/rescaled_final/1477_rv.mp4	0.0	255.82476425170898	1.0002162456512451
54	239.79620122909546	pulse	0	t		52.0	2.5	/experiments/Knapen_AOT/AOT_stimuli/rescaled_final/1477_rv.mp4	0.0	256.8018879890442	
54	239.8192937374115	movie	1		292	52.0	2.5	/experiments/Knapen_AOT/AOT_stimuli/rescaled_final/1477_rv.mp4	0.0	256.82498049736023	2.5003035068511963
54	241.40129566192627	pulse	1	t		52.0	2.5	/experiments/Knapen_AOT/AOT_stimuli/rescaled_final/1477_rv.mp4	0.0	258.406982421875	
54	242.3195972442627	fix_post	2		12	52.0	2.5	/experiments/Knapen_AOT/AOT_stimuli/rescaled_final/1477_rv.mp4	0.0	259.3252840042114	0.10000824928283691
55	242.41960549354553	fix_pre	0		120	53.0	2.5	/experiments/Knapen_AOT/AOT_stimuli/rescaled_final/2177_rv.mp4	0.0	259.42529225349426	1.0085170269012451
55	243.0032172203064	pulse	0	t		53.0	2.5	/experiments/Knapen_AOT/AOT_stimuli/rescaled_final/2177_rv.mp4	0.0	260.0089039802551	
55	243.42812252044678	movie	1		285	53.0	2.5	/experiments/Knapen_AOT/AOT_stimuli/rescaled_final/2177_rv.mp4	0.0	260.4338092803955	2.4920148849487305
55	244.60174560546875	pulse	1	t		53.0	2.5	/experiments/Knapen_AOT/AOT_stimuli/rescaled_final/2177_rv.mp4	0.0	261.6074323654175	
55	245.9201374053955	fix_post	2		12	53.0	2.5	/experiments/Knapen_AOT/AOT_stimuli/rescaled_final/2177_rv.mp4	0.0	262.92582416534424	0.1000208854675293
56	246.02015829086304	fix_pre	0		120	54.0	2.5	/experiments/Knapen_AOT/AOT_stimuli/rescaled_final/1056_fw.mp4	0.0	263.02584505081177	1.008528709411621
56	246.19585037231445	pulse	0	t		54.0	2.5	/experiments/Knapen_AOT/AOT_stimuli/rescaled_final/1056_fw.mp4	0.0	263.2015371322632	
56	247.02868700027466	movie	1		280	54.0	2.5	/experiments/Knapen_AOT/AOT_stimuli/rescaled_final/1056_fw.mp4	0.0	264.0343737602234	2.4921822547912598
56	247.79580807685852	pulse	1	t		54.0	2.5	/experiments/Knapen_AOT/AOT_stimuli/rescaled_final/1056_fw.mp4	0.0	264.80149483680725	
56	249.396258354187	pulse	1	t		54.0	2.5	/experiments/Knapen_AOT/AOT_stimuli/rescaled_final/1056_fw.mp4	0.0	266.40194511413574	
56	249.52086925506592	fix_post	2		12	54.0	2.5	/experiments/Knapen_AOT/AOT_stimuli/rescaled_final/1056_fw.mp4	0.0	266.52655601501465	0.09983563423156738
57	249.62070488929749	fix_pre	0		120	55.0	2.5	blank	1.0	266.6263916492462	1.0001509189605713
57	250.62085580825806	movie	1		300	55.0	2.5	blank	1.0	267.6265425682068	2.500354290008545
57	250.99604845046997	pulse	1	t		55.0	2.5	blank	1.0	268.0017352104187	
57	252.59627485275269	pulse	1	t		55.0	2.5	blank	1.0	269.6019616127014	
57	253.1212100982666	fix_post	2		12	55.0	2.5	blank	1.0	270.12689685821533	0.10002923011779785
58	253.2212393283844	fix_pre	0		118	56.0	2.5	/experiments/Knapen_AOT/AOT_stimuli/rescaled_final/1517_fw.mp4	0.0	270.22692608833313	0.9918007850646973
58	254.19661235809326	pulse	0	t		56.0	2.5	/experiments/Knapen_AOT/AOT_stimuli/rescaled_final/1517_fw.mp4	0.0	271.202299118042	
58	254.2130401134491	movie	1		288	56.0	2.5	/experiments/Knapen_AOT/AOT_stimuli/rescaled_final/1517_fw.mp4	0.0	271.2187268733978	2.5003814697265625
58	255.79582166671753	pulse	1	t		56.0	2.5	/experiments/Knapen_AOT/AOT_stimuli/rescaled_final/1517_fw.mp4	0.0	272.80150842666626	
58	256.71342158317566	fix_post	2		12	56.0	2.5	/experiments/Knapen_AOT/AOT_stimuli/rescaled_final/1517_fw.mp4	0.0	273.7191083431244	0.10003018379211426
59	256.8134517669678	fix_pre	0		120	57.0	2.5	/experiments/Knapen_AOT/AOT_stimuli/rescaled_final/0892_fw.mp4	0.0	273.8191385269165	1.0084936618804932
59	257.39715600013733	pulse	0	t		57.0	2.5	/experiments/Knapen_AOT/AOT_stimuli/rescaled_final/0892_fw.mp4	0.0	274.40284276008606	
59	257.82194542884827	movie	1		290	57.0	2.5	/experiments/Knapen_AOT/AOT_stimuli/rescaled_final/0892_fw.mp4	0.0	274.827632188797	2.492017984390259
59	258.9956295490265	pulse	1	t		57.0	2.5	/experiments/Knapen_AOT/AOT_stimuli/rescaled_final/0892_fw.mp4	0.0	276.0013163089752	
59	260.3139634132385	fix_post	2		12	57.0	2.5	/experiments/Knapen_AOT/AOT_stimuli/rescaled_final/0892_fw.mp4	0.0	277.31965017318726	0.10004830360412598
60	260.41401171684265	fix_pre	0		120	58.0	2.5	/experiments/Knapen_AOT/AOT_stimuli/rescaled_final/1899_fw.mp4	0.0	277.4196984767914	1.0085217952728271
60	260.5975594520569	pulse	0	t		58.0	2.5	/experiments/Knapen_AOT/AOT_stimuli/rescaled_final/1899_fw.mp4	0.0	277.6032462120056	
60	261.4225335121155	movie	1		283	58.0	2.5	/experiments/Knapen_AOT/AOT_stimuli/rescaled_final/1899_fw.mp4	0.0	278.4282202720642	2.492017984390259
60	262.1959924697876	pulse	1	t		58.0	2.5	/experiments/Knapen_AOT/AOT_stimuli/rescaled_final/1899_fw.mp4	0.0	279.2016792297363	
60	263.7965450286865	pulse	1	t		58.0	2.5	/experiments/Knapen_AOT/AOT_stimuli/rescaled_final/1899_fw.mp4	0.0	280.80223178863525	
60	263.91455149650574	fix_post	2		12	58.0	2.5	/experiments/Knapen_AOT/AOT_stimuli/rescaled_final/1899_fw.mp4	0.0	280.92023825645447	0.09999442100524902
61	264.014545917511	fix_pre	0		120	59.0	2.5	/experiments/Knapen_AOT/AOT_stimuli/rescaled_final/2051_fw.mp4	0.0	281.0202326774597	1.0084795951843262
61	265.0230255126953	movie	1		289	59.0	2.5	/experiments/Knapen_AOT/AOT_stimuli/rescaled_final/2051_fw.mp4	0.0	282.02871227264404	2.492065906524658
61	265.396844625473	pulse	1	t		59.0	2.5	/experiments/Knapen_AOT/AOT_stimuli/rescaled_final/2051_fw.mp4	0.0	282.40253138542175	
61	266.9964294433594	pulse	1	t		59.0	2.5	/experiments/Knapen_AOT/AOT_stimuli/rescaled_final/2051_fw.mp4	0.0	284.0021162033081	
61	267.51509141921997	fix_post	2		12	59.0	2.5	/experiments/Knapen_AOT/AOT_stimuli/rescaled_final/2051_fw.mp4	0.0	284.5207781791687	0.09998059272766113
62	267.61507201194763	fix_pre	0		119	60.0	2.5	/experiments/Knapen_AOT/AOT_stimuli/rescaled_final/1874_fw.mp4	0.0	284.62075877189636	1.0001847743988037
62	268.59881496429443	pulse	0	t		60.0	2.5	/experiments/Knapen_AOT/AOT_stimuli/rescaled_final/1874_fw.mp4	0.0	285.60450172424316	
62	268.61525678634644	movie	1		292	60.0	2.5	/experiments/Knapen_AOT/AOT_stimuli/rescaled_final/1874_fw.mp4	0.0	285.62094354629517	2.5003082752227783
62	270.19767594337463	pulse	1	t		60.0	2.5	/experiments/Knapen_AOT/AOT_stimuli/rescaled_final/1874_fw.mp4	0.0	287.20336270332336	
62	271.1155650615692	fix_post	2		12	60.0	2.5	/experiments/Knapen_AOT/AOT_stimuli/rescaled_final/1874_fw.mp4	0.0	288.12125182151794	0.10000944137573242
63	271.21557450294495	fix_pre	0		120	61.0	2.5	/experiments/Knapen_AOT/AOT_stimuli/rescaled_final/1624_fw.mp4	0.0	288.2212612628937	1.008514165878296
63	271.79932975769043	pulse	0	t		61.0	2.5	/experiments/Knapen_AOT/AOT_stimuli/rescaled_final/1624_fw.mp4	0.0	288.80501651763916	
63	272.22408866882324	movie	1		299	61.0	2.5	/experiments/Knapen_AOT/AOT_stimuli/rescaled_final/1624_fw.mp4	0.0	289.229775428772	2.492013931274414
63	273.39517307281494	pulse	1	t		61.0	2.5	/experiments/Knapen_AOT/AOT_stimuli/rescaled_final/1624_fw.mp4	0.0	290.4008598327637	
63	274.71610260009766	fix_post	2		12	61.0	2.5	/experiments/Knapen_AOT/AOT_stimuli/rescaled_final/1624_fw.mp4	0.0	291.7217893600464	0.10014748573303223
64	274.8162500858307	fix_pre	0		120	62.0	2.5	/experiments/Knapen_AOT/AOT_stimuli/rescaled_final/1270_rv.mp4	0.0	291.8219368457794	1.0083825588226318
64	274.99991178512573	pulse	0	t		62.0	2.5	/experiments/Knapen_AOT/AOT_stimuli/rescaled_final/1270_rv.mp4	0.0	292.00559854507446	
64	275.8246326446533	movie	1		294	62.0	2.5	/experiments/Knapen_AOT/AOT_stimuli/rescaled_final/1270_rv.mp4	0.0	292.83031940460205	2.4920458793640137
64	276.5979092121124	pulse	1	t		62.0	2.5	/experiments/Knapen_AOT/AOT_stimuli/rescaled_final/1270_rv.mp4	0.0	293.60359597206116	
64	278.1977171897888	pulse	1	t		62.0	2.5	/experiments/Knapen_AOT/AOT_stimuli/rescaled_final/1270_rv.mp4	0.0	295.20340394973755	
64	278.31667852401733	fix_post	2		12	62.0	2.5	/experiments/Knapen_AOT/AOT_stimuli/rescaled_final/1270_rv.mp4	0.0	295.32236528396606	0.09999203681945801
65	278.4166705608368	fix_pre	0		120	63.0	2.5	blank	1.0	295.4223573207855	1.0001435279846191
65	279.4168140888214	movie	1		300	63.0	2.5	blank	1.0	296.42250084877014	2.5003886222839355
65	279.80037093162537	pulse	1	t		63.0	2.5	blank	1.0	296.8060576915741	
65	281.40056896209717	pulse	1	t		63.0	2.5	blank	1.0	298.4062557220459	
65	281.91720271110535	fix_post	2		12	63.0	2.5	blank	1.0	298.9228894710541	0.10001063346862793
66	282.017213344574	fix_pre	0		119	64.0	2.5	/experiments/Knapen_AOT/AOT_stimuli/rescaled_final/1341_rv.mp4	0.0	299.0229001045227	1.0001747608184814
66	283.0009982585907	pulse	0	t		64.0	2.5	/experiments/Knapen_AOT/AOT_stimuli/rescaled_final/1341_rv.mp4	0.0	300.00668501853943	
66	283.01738810539246	movie	1		284	64.0	2.5	/experiments/Knapen_AOT/AOT_stimuli/rescaled_final/1341_rv.mp4	0.0	300.0230748653412	2.500365972518921
66	284.5996196269989	pulse	1	t		64.0	2.5	/experiments/Knapen_AOT/AOT_stimuli/rescaled_final/1341_rv.mp4	0.0	301.60530638694763	
66	285.5177540779114	fix_post	2		12	64.0	2.5	/experiments/Knapen_AOT/AOT_stimuli/rescaled_final/1341_rv.mp4	0.0	302.5234408378601	0.10007262229919434
67	285.61782670021057	fix_pre	0		120	65.0	2.5	/experiments/Knapen_AOT/AOT_stimuli/rescaled_final/1554_fw.mp4	0.0	302.6235134601593	1.00852632522583
67	286.2015018463135	pulse	0	t		65.0	2.5	/experiments/Knapen_AOT/AOT_stimuli/rescaled_final/1554_fw.mp4	0.0	303.2071886062622	
67	286.6263530254364	movie	1		281	65.0	2.5	/experiments/Knapen_AOT/AOT_stimuli/rescaled_final/1554_fw.mp4	0.0	303.63203978538513	2.491959810256958
67	287.7997727394104	pulse	1	t		65.0	2.5	/experiments/Knapen_AOT/AOT_stimuli/rescaled_final/1554_fw.mp4	0.0	304.80545949935913	
67	289.11831283569336	fix_post	2		12	65.0	2.5	/experiments/Knapen_AOT/AOT_stimuli/rescaled_final/1554_fw.mp4	0.0	306.1239995956421	0.10003781318664551
68	289.21835064888	fix_pre	0		120	66.0	2.5	/experiments/Knapen_AOT/AOT_stimuli/rescaled_final/1102_rv.mp4	0.0	306.22403740882874	1.0084705352783203
68	289.4019856452942	pulse	0	t		66.0	2.5	/experiments/Knapen_AOT/AOT_stimuli/rescaled_final/1102_rv.mp4	0.0	306.4076724052429	
68	290.2268211841583	movie	1		271	66.0	2.5	/experiments/Knapen_AOT/AOT_stimuli/rescaled_final/1102_rv.mp4	0.0	307.23250794410706	2.491999626159668
68	291.0003035068512	pulse	1	t		66.0	2.5	/experiments/Knapen_AOT/AOT_stimuli/rescaled_final/1102_rv.mp4	0.0	308.0059902667999	
68	292.6009576320648	pulse	1	t		66.0	2.5	/experiments/Knapen_AOT/AOT_stimuli/rescaled_final/1102_rv.mp4	0.0	309.60664439201355	
68	292.718820810318	fix_post	2		12	66.0	2.5	/experiments/Knapen_AOT/AOT_stimuli/rescaled_final/1102_rv.mp4	0.0	309.7245075702667	0.1000359058380127
69	292.818856716156	fix_pre	0		120	67.0	2.5	/experiments/Knapen_AOT/AOT_stimuli/rescaled_final/0643_rv.mp4	0.0	309.82454347610474	1.0084619522094727
69	293.8273186683655	movie	1		281	67.0	2.5	/experiments/Knapen_AOT/AOT_stimuli/rescaled_final/0643_rv.mp4	0.0	310.8330054283142	2.49206805229187
69	294.2011001110077	pulse	1	t		67.0	2.5	/experiments/Knapen_AOT/AOT_stimuli/rescaled_final/0643_rv.mp4	0.0	311.2067868709564	
69	295.8009686470032	pulse	1	t		67.0	2.5	/experiments/Knapen_AOT/AOT_stimuli/rescaled_final/0643_rv.mp4	0.0	312.8066554069519	
69	296.31938672065735	fix_post	2		12	67.0	2.5	/experiments/Knapen_AOT/AOT_stimuli/rescaled_final/0643_rv.mp4	0.0	313.3250734806061	0.10003423690795898
70	296.4194209575653	fix_pre	0		118	68.0	2.5	blank	1.0	313.42510771751404	0.9834332466125488
70	297.39515709877014	pulse	0	t		68.0	2.5	blank	1.0	314.4008438587189	
70	297.40285420417786	movie	1		301	68.0	2.5	blank	1.0	314.4085409641266	2.5087249279022217
70	298.9952018260956	pulse	1	t		68.0	2.5	blank	1.0	316.0008885860443	
70	299.9115791320801	fix_post	2		12	68.0	2.5	blank	1.0	316.9172658920288	0.10016870498657227
71	300.01174783706665	fix_pre	0		120	69.0	2.5	/experiments/Knapen_AOT/AOT_stimuli/rescaled_final/1495_rv.mp4	0.0	317.0174345970154	1.0083870887756348
71	300.59548711776733	pulse	0	t		69.0	2.5	/experiments/Knapen_AOT/AOT_stimuli/rescaled_final/1495_rv.mp4	0.0	317.60117387771606	
71	301.0201349258423	movie	1		295	69.0	2.5	/experiments/Knapen_AOT/AOT_stimuli/rescaled_final/1495_rv.mp4	0.0	318.025821685791	2.491987943649292
71	302.19567465782166	pulse	1	t		69.0	2.5	/experiments/Knapen_AOT/AOT_stimuli/rescaled_final/1495_rv.mp4	0.0	319.2013614177704	
71	303.5121228694916	fix_post	2		12	69.0	2.5	/experiments/Knapen_AOT/AOT_stimuli/rescaled_final/1495_rv.mp4	0.0	320.5178096294403	0.10002350807189941
72	303.6121463775635	fix_pre	0		120	70.0	2.5	/experiments/Knapen_AOT/AOT_stimuli/rescaled_final/0503_fw.mp4	0.0	320.6178331375122	1.0084881782531738
72	303.79575061798096	pulse	0	t		70.0	2.5	/experiments/Knapen_AOT/AOT_stimuli/rescaled_final/0503_fw.mp4	0.0	320.8014373779297	
72	304.62063455581665	movie	1		286	70.0	2.5	/experiments/Knapen_AOT/AOT_stimuli/rescaled_final/0503_fw.mp4	0.0	321.6263213157654	2.492093086242676
72	305.39605808258057	pulse	1	t		70.0	2.5	/experiments/Knapen_AOT/AOT_stimuli/rescaled_final/0503_fw.mp4	0.0	322.4017448425293	
72	306.9963095188141	pulse	1	t		70.0	2.5	/experiments/Knapen_AOT/AOT_stimuli/rescaled_final/0503_fw.mp4	0.0	324.0019962787628	
72	307.1127276420593	fix_post	2		12	70.0	2.5	/experiments/Knapen_AOT/AOT_stimuli/rescaled_final/0503_fw.mp4	0.0	324.11841440200806	0.10001516342163086
73	307.21274280548096	fix_pre	0		120	71.0	2.5	/experiments/Knapen_AOT/AOT_stimuli/rescaled_final/0113_rv.mp4	0.0	324.2184295654297	1.008490800857544
73	308.2212336063385	movie	1		295	71.0	2.5	/experiments/Knapen_AOT/AOT_stimuli/rescaled_final/0113_rv.mp4	0.0	325.22692036628723	2.491971731185913
73	308.5965025424957	pulse	1	t		71.0	2.5	/experiments/Knapen_AOT/AOT_stimuli/rescaled_final/0113_rv.mp4	0.0	325.60218930244446	
73	310.19553208351135	pulse	1	t		71.0	2.5	/experiments/Knapen_AOT/AOT_stimuli/rescaled_final/0113_rv.mp4	0.0	327.2012188434601	
73	310.7132053375244	fix_post	2		12	71.0	2.5	/experiments/Knapen_AOT/AOT_stimuli/rescaled_final/0113_rv.mp4	0.0	327.71889209747314	0.10001516342163086
74	310.81322050094604	fix_pre	0		119	72.0	2.5	/experiments/Knapen_AOT/AOT_stimuli/rescaled_final/1687_rv.mp4	0.0	327.8189072608948	1.0001816749572754
74	311.7969651222229	pulse	0	t		72.0	2.5	/experiments/Knapen_AOT/AOT_stimuli/rescaled_final/1687_rv.mp4	0.0	328.80265188217163	
74	311.8134021759033	movie	1		277	72.0	2.5	/experiments/Knapen_AOT/AOT_stimuli/rescaled_final/1687_rv.mp4	0.0	328.81908893585205	2.5003538131713867
74	313.39579248428345	pulse	1	t		72.0	2.5	/experiments/Knapen_AOT/AOT_stimuli/rescaled_final/1687_rv.mp4	0.0	330.4014792442322	
74	314.3137559890747	fix_post	2		12	72.0	2.5	/experiments/Knapen_AOT/AOT_stimuli/rescaled_final/1687_rv.mp4	0.0	331.31944274902344	0.10008478164672852
75	314.41384077072144	fix_pre	0		120	73.0	2.5	/experiments/Knapen_AOT/AOT_stimuli/rescaled_final/1888_fw.mp4	0.0	331.41952753067017	1.008484125137329
75	314.99737882614136	pulse	0	t		73.0	2.5	/experiments/Knapen_AOT/AOT_stimuli/rescaled_final/1888_fw.mp4	0.0	332.0030655860901	
75	315.42232489585876	movie	1		283	73.0	2.5	/experiments/Knapen_AOT/AOT_stimuli/rescaled_final/1888_fw.mp4	0.0	332.4280116558075	2.491964817047119
75	316.59594655036926	pulse	1	t		73.0	2.5	/experiments/Knapen_AOT/AOT_stimuli/rescaled_final/1888_fw.mp4	0.0	333.601633310318	
75	317.9142897129059	fix_post	2		12	73.0	2.5	/experiments/Knapen_AOT/AOT_stimuli/rescaled_final/1888_fw.mp4	0.0	334.9199764728546	0.10001039505004883
76	318.01430010795593	fix_pre	0		120	74.0	2.5	/experiments/Knapen_AOT/AOT_stimuli/rescaled_final/0121_fw.mp4	0.0	335.01998686790466	1.0085532665252686
76	318.1978647708893	pulse	0	t		74.0	2.5	/experiments/Knapen_AOT/AOT_stimuli/rescaled_final/0121_fw.mp4	0.0	335.203551530838	
76	319.0228533744812	movie	1		287	74.0	2.5	/experiments/Knapen_AOT/AOT_stimuli/rescaled_final/0121_fw.mp4	0.0	336.02854013442993	2.4919934272766113
76	319.7963156700134	pulse	1	t		74.0	2.5	/experiments/Knapen_AOT/AOT_stimuli/rescaled_final/0121_fw.mp4	0.0	336.80200242996216	
76	321.3964376449585	pulse	1	t		74.0	2.5	/experiments/Knapen_AOT/AOT_stimuli/rescaled_final/0121_fw.mp4	0.0	338.4021244049072	
76	321.5148468017578	fix_post	2		12	74.0	2.5	/experiments/Knapen_AOT/AOT_stimuli/rescaled_final/0121_fw.mp4	0.0	338.52053356170654	0.10007119178771973
77	321.61491799354553	fix_pre	0		120	75.0	2.5	/experiments/Knapen_AOT/AOT_stimuli/rescaled_final/0914_fw.mp4	0.0	338.62060475349426	1.008427619934082
77	322.6233456134796	movie	1		277	75.0	2.5	/experiments/Knapen_AOT/AOT_stimuli/rescaled_final/0914_fw.mp4	0.0	339.62903237342834	2.4920289516448975
77	322.99699091911316	pulse	1	t		75.0	2.5	/experiments/Knapen_AOT/AOT_stimuli/rescaled_final/0914_fw.mp4	0.0	340.0026776790619	
77	324.597375869751	pulse	1	t		75.0	2.5	/experiments/Knapen_AOT/AOT_stimuli/rescaled_final/0914_fw.mp4	0.0	341.6030626296997	
77	325.1153745651245	fix_post	2		12	75.0	2.5	/experiments/Knapen_AOT/AOT_stimuli/rescaled_final/0914_fw.mp4	0.0	342.12106132507324	0.10001635551452637
78	325.21539092063904	fix_pre	0		119	76.0	2.5	blank	1.0	342.22107768058777	0.9917750358581543
78	326.19917154312134	pulse	0	t		76.0	2.5	blank	1.0	343.20485830307007	
78	326.2071659564972	movie	1		301	76.0	2.5	blank	1.0	343.2128527164459	2.5087900161743164
78	327.7993881702423	pulse	1	t		76.0	2.5	blank	1.0	344.80507493019104	
78	328.7159559726715	fix_post	2		12	76.0	2.5	blank	1.0	345.72164273262024	0.09997940063476562
79	328.8159353733063	fix_pre	0		120	77.0	2.5	/experiments/Knapen_AOT/AOT_stimuli/rescaled_final/0854_fw.mp4	0.0	345.821622133255	1.0085079669952393
79	329.3995943069458	pulse	0	t		77.0	2.5	/experiments/Knapen_AOT/AOT_stimuli/rescaled_final/0854_fw.mp4	0.0	346.40528106689453	
79	329.8244433403015	movie	1		275	77.0	2.5	/experiments/Knapen_AOT/AOT_stimuli/rescaled_final/0854_fw.mp4	0.0	346.83013010025024	2.4920148849487305
79	330.9987232685089	pulse	1	t		77.0	2.5	/experiments/Knapen_AOT/AOT_stimuli/rescaled_final/0854_fw.mp4	0.0	348.00441002845764	
79	332.31645822525024	fix_post	2		12	77.0	2.5	/experiments/Knapen_AOT/AOT_stimuli/rescaled_final/0854_fw.mp4	0.0	349.322144985199	0.10000777244567871
80	332.4164659976959	fix_pre	0		120	78.0	2.5	/experiments/Knapen_AOT/AOT_stimuli/rescaled_final/1624_rv.mp4	0.0	349.42215275764465	1.0084772109985352
80	332.6000440120697	pulse	0	t		78.0	2.5	/experiments/Knapen_AOT/AOT_stimuli/rescaled_final/1624_rv.mp4	0.0	349.60573077201843	
80	333.42494320869446	movie	1		287	78.0	2.5	/experiments/Knapen_AOT/AOT_stimuli/rescaled_final/1624_rv.mp4	0.0	350.4306299686432	2.49204683303833
80	334.19841837882996	pulse	1	t		78.0	2.5	/experiments/Knapen_AOT/AOT_stimuli/rescaled_final/1624_rv.mp4	0.0	351.2041051387787	
80	335.79854106903076	pulse	1	t		78.0	2.5	/experiments/Knapen_AOT/AOT_stimuli/rescaled_final/1624_rv.mp4	0.0	352.8042278289795	
80	335.9169900417328	fix_post	2		12	78.0	2.5	/experiments/Knapen_AOT/AOT_stimuli/rescaled_final/1624_rv.mp4	0.0	352.9226768016815	0.10006999969482422
81	336.0170600414276	fix_pre	0		120	79.0	2.5	/experiments/Knapen_AOT/AOT_stimuli/rescaled_final/0783_fw.mp4	0.0	353.02274680137634	1.008498191833496
81	337.0255582332611	movie	1		281	79.0	2.5	/experiments/Knapen_AOT/AOT_stimuli/rescaled_final/0783_fw.mp4	0.0	354.03124499320984	2.491975784301758
81	337.3991732597351	pulse	1	t		79.0	2.5	/experiments/Knapen_AOT/AOT_stimuli/rescaled_final/0783_fw.mp4	0.0	354.40486001968384	
81	338.9989244937897	pulse	1	t		79.0	2.5	/experiments/Knapen_AOT/AOT_stimuli/rescaled_final/0783_fw.mp4	0.0	356.0046112537384	
81	339.51753401756287	fix_post	2		12	79.0	2.5	/experiments/Knapen_AOT/AOT_stimuli/rescaled_final/0783_fw.mp4	0.0	356.5232207775116	0.10005331039428711
82	339.61758732795715	fix_pre	0		119	80.0	2.5	/experiments/Knapen_AOT/AOT_stimuli/rescaled_final/2096_fw.mp4	0.0	356.6232740879059	1.0001156330108643
82	340.60128927230835	pulse	0	t		80.0	2.5	/experiments/Knapen_AOT/AOT_stimuli/rescaled_final/2096_fw.mp4	0.0	357.6069760322571	
82	340.617702960968	movie	1		280	80.0	2.5	/experiments/Knapen_AOT/AOT_stimuli/rescaled_final/2096_fw.mp4	0.0	357.62338972091675	2.5003762245178223
82	342.20049238204956	pulse	1	t		80.0	2.5	/experiments/Knapen_AOT/AOT_stimuli/rescaled_final/2096_fw.mp4	0.0	359.2061791419983	
82	343.11807918548584	fix_post	2		12	80.0	2.5	/experiments/Knapen_AOT/AOT_stimuli/rescaled_final/2096_fw.mp4	0.0	360.12376594543457	0.1000223159790039
83	343.21810150146484	fix_pre	0		120	81.0	2.5	/experiments/Knapen_AOT/AOT_stimuli/rescaled_final/1986_fw.mp4	0.0	360.2237882614136	1.0085036754608154
83	343.80178356170654	pulse	0	t		81.0	2.5	/experiments/Knapen_AOT/AOT_stimuli/rescaled_final/1986_fw.mp4	0.0	360.8074703216553	
83	344.22660517692566	movie	1		273	81.0	2.5	/experiments/Knapen_AOT/AOT_stimuli/rescaled_final/1986_fw.mp4	0.0	361.2322919368744	2.492039203643799
83	345.40045142173767	pulse	1	t		81.0	2.5	/experiments/Knapen_AOT/AOT_stimuli/rescaled_final/1986_fw.mp4	0.0	362.4061381816864	
83	346.71864438056946	fix_post	2		12	81.0	2.5	/experiments/Knapen_AOT/AOT_stimuli/rescaled_final/1986_fw.mp4	0.0	363.7243311405182	0.09993815422058105
84	346.81858253479004	fix_pre	0		120	82.0	2.5	/experiments/Knapen_AOT/AOT_stimuli/rescaled_final/2164_rv.mp4	0.0	363.82426929473877	1.0086190700531006
84	347.00221824645996	pulse	0	t		82.0	2.5	/experiments/Knapen_AOT/AOT_stimuli/rescaled_final/2164_rv.mp4	0.0	364.0079050064087	
84	347.82720160484314	movie	1		277	82.0	2.5	/experiments/Knapen_AOT/AOT_stimuli/rescaled_final/2164_rv.mp4	0.0	364.83288836479187	2.500493049621582
84	348.6027488708496	pulse	1	t		82.0	2.5	/experiments/Knapen_AOT/AOT_stimuli/rescaled_final/2164_rv.mp4	0.0	365.60843563079834	
84	350.2028317451477	pulse	1	t		82.0	2.5	/experiments/Knapen_AOT/AOT_stimuli/rescaled_final/2164_rv.mp4	0.0	367.20851850509644	
84	350.3276946544647	fix_post	2		11	82.0	2.5	/experiments/Knapen_AOT/AOT_stimuli/rescaled_final/2164_rv.mp4	0.0	367.33338141441345	0.09151315689086914
85	350.4192078113556	fix_pre	0		120	83.0	2.5	blank	1.0	367.4248945713043	1.0001273155212402
85	351.41933512687683	movie	1		300	83.0	2.5	blank	1.0	368.42502188682556	2.500371217727661
85	351.79566192626953	pulse	1	t		83.0	2.5	blank	1.0	368.80134868621826	
85	353.4031276702881	pulse	1	t		83.0	2.5	blank	1.0	370.4088144302368	
85	353.9197063446045	fix_post	2		12	83.0	2.5	blank	1.0	370.9253931045532	0.0999605655670166
87	354.0196669101715	stim	0		1715					371.02535367012024	14.29387903213501
87	354.99684834480286	pulse	0	t						372.0025351047516	
87	356.59559869766235	pulse	0	t						373.6012854576111	
87	358.1956992149353	pulse	0	t						375.20138597488403	
87	359.79582023620605	pulse	0	t						376.8015069961548	
87	361.3961720466614	pulse	0	t						378.4018588066101	
87	362.996280670166	pulse	0	t						380.00196743011475	
87	364.59651231765747	pulse	0	t						381.6021990776062	
87	366.1968238353729	pulse	0	t						383.20251059532166	
87	367.7971682548523	pulse	0	t						384.802855014801	
