trial_nr	onset	event_type	phase	response	nr_frames	movie_index	movie_duration	movie_file	blank	onset_abs	duration
0	0.20834684371948242	stim	0		475					23.97700071334839	3.958920955657959
0	4.159070014953613	response	0	space						27.92772388458252	
1	4.167267799377441	stim	0		5563					27.935921669006348	46.377785205841064
1	50.52962279319763	pulse	0	t						74.29827666282654	
1	50.545053005218506	stim	1		1715					74.31370687484741	14.297973871231079
1	52.12453889846802	pulse	1	t						75.89319276809692	
1	53.72480082511902	pulse	1	t						77.49345469474792	
1	55.32497787475586	pulse	1	t						79.09363174438477	
1	56.92538785934448	pulse	1	t						80.69404172897339	
1	58.52563691139221	pulse	1	t						82.29429078102112	
1	60.12573194503784	pulse	1	t						83.89438581466675	
1	61.72594594955444	pulse	1	t						85.49459981918335	
1	63.326329946517944	pulse	1	t						87.09498381614685	
2	64.84302687644958	fix_pre	0		11	0.0	2.5	/experiments/knapen_AOT/AOT_stimuli/rescaled_final/0488_rv.mp4	0.0	88.61168074607849	0.09158992767333984
2	64.9266448020935	pulse	0	t		0.0	2.5	/experiments/knapen_AOT/AOT_stimuli/rescaled_final/0488_rv.mp4	0.0	88.69529867172241	
2	64.93461680412292	movie	1		244	0.0	2.5	/experiments/knapen_AOT/AOT_stimuli/rescaled_final/0488_rv.mp4	0.0	88.70327067375183	2.508709192276001
2	66.52720379829407	pulse	1	t		0.0	2.5	/experiments/knapen_AOT/AOT_stimuli/rescaled_final/0488_rv.mp4	0.0	90.29585766792297	
2	67.44332599639893	fix_post	2		12	0.0	2.5	/experiments/knapen_AOT/AOT_stimuli/rescaled_final/0488_rv.mp4	0.0	91.21197986602783	0.10004591941833496
3	67.54337191581726	fix_pre	0		120	1.0	2.5	/experiments/knapen_AOT/AOT_stimuli/rescaled_final/0641_fw.mp4	0.0	91.31202578544617	1.0001699924468994
3	68.12697792053223	pulse	0	t		1.0	2.5	/experiments/knapen_AOT/AOT_stimuli/rescaled_final/0641_fw.mp4	0.0	91.89563179016113	
3	68.54354190826416	movie	1		244	1.0	2.5	/experiments/knapen_AOT/AOT_stimuli/rescaled_final/0641_fw.mp4	0.0	92.31219577789307	2.5003199577331543
3	69.72731900215149	pulse	1	t		1.0	2.5	/experiments/knapen_AOT/AOT_stimuli/rescaled_final/0641_fw.mp4	0.0	93.4959728717804	
3	71.04386186599731	fix_post	2		12	1.0	2.5	/experiments/knapen_AOT/AOT_stimuli/rescaled_final/0641_fw.mp4	0.0	94.81251573562622	0.10002899169921875
4	71.14389085769653	fix_pre	0		120	2.0	2.5	/experiments/knapen_AOT/AOT_stimuli/rescaled_final/1159_rv.mp4	0.0	94.91254472732544	1.000157117843628
4	71.3275408744812	pulse	0	t		2.0	2.5	/experiments/knapen_AOT/AOT_stimuli/rescaled_final/1159_rv.mp4	0.0	95.09619474411011	
4	72.14404797554016	movie	1		244	2.0	2.5	/experiments/knapen_AOT/AOT_stimuli/rescaled_final/1159_rv.mp4	0.0	95.91270184516907	2.500361919403076
4	72.92776489257812	pulse	1	t		2.0	2.5	/experiments/knapen_AOT/AOT_stimuli/rescaled_final/1159_rv.mp4	0.0	96.69641876220703	
4	74.528000831604	pulse	1	t		2.0	2.5	/experiments/knapen_AOT/AOT_stimuli/rescaled_final/1159_rv.mp4	0.0	98.29665470123291	
4	74.64440989494324	fix_post	2		12	2.0	2.5	/experiments/knapen_AOT/AOT_stimuli/rescaled_final/1159_rv.mp4	0.0	98.41306376457214	0.10002803802490234
5	74.74443793296814	fix_pre	0		120	3.0	2.5	/experiments/knapen_AOT/AOT_stimuli/rescaled_final/1219_fw.mp4	0.0	98.51309180259705	1.0001730918884277
5	75.74461102485657	movie	1		244	3.0	2.5	/experiments/knapen_AOT/AOT_stimuli/rescaled_final/1219_fw.mp4	0.0	99.51326489448547	2.4920148849487305
5	76.12879180908203	pulse	1	t		3.0	2.5	/experiments/knapen_AOT/AOT_stimuli/rescaled_final/1219_fw.mp4	0.0	99.89744567871094	
5	77.72846579551697	pulse	1	t		3.0	2.5	/experiments/knapen_AOT/AOT_stimuli/rescaled_final/1219_fw.mp4	0.0	101.49711966514587	
5	78.2366259098053	fix_post	2		12	3.0	2.5	/experiments/knapen_AOT/AOT_stimuli/rescaled_final/1219_fw.mp4	0.0	102.0052797794342	0.10001301765441895
6	78.33663892745972	fix_pre	0		120	4.0	2.5	/experiments/knapen_AOT/AOT_stimuli/rescaled_final/0488_rv.mp4	0.0	102.10529279708862	1.0001568794250488
6	79.32879495620728	pulse	0	t		4.0	2.5	/experiments/knapen_AOT/AOT_stimuli/rescaled_final/0488_rv.mp4	0.0	103.09744882583618	
6	79.33679580688477	movie	1		245	4.0	2.5	/experiments/knapen_AOT/AOT_stimuli/rescaled_final/0488_rv.mp4	0.0	103.10544967651367	2.5087192058563232
6	80.92909288406372	pulse	1	t		4.0	2.5	/experiments/knapen_AOT/AOT_stimuli/rescaled_final/0488_rv.mp4	0.0	104.69774675369263	
6	81.84551501274109	fix_post	2		12	4.0	2.5	/experiments/knapen_AOT/AOT_stimuli/rescaled_final/0488_rv.mp4	0.0	105.61416888237	0.10005879402160645
7	81.9455738067627	fix_pre	0		120	5.0	2.5	blank	1.0	105.7142276763916	1.0001511573791504
7	82.52911686897278	pulse	0	t		5.0	2.5	blank	1.0	106.29777073860168	
7	82.94572496414185	movie	1		300	5.0	2.5	blank	1.0	106.71437883377075	2.500339984893799
7	84.12942600250244	pulse	1	t		5.0	2.5	blank	1.0	107.89807987213135	
7	85.44606494903564	fix_post	2		12	5.0	2.5	blank	1.0	109.21471881866455	0.09997296333312988
8	85.54603791236877	fix_pre	0		120	6.0	2.5	/experiments/knapen_AOT/AOT_stimuli/rescaled_final/2102_fw.mp4	0.0	109.31469178199768	1.000195026397705
8	85.72973990440369	pulse	0	t		6.0	2.5	/experiments/knapen_AOT/AOT_stimuli/rescaled_final/2102_fw.mp4	0.0	109.49839377403259	
8	86.54623293876648	movie	1		243	6.0	2.5	/experiments/knapen_AOT/AOT_stimuli/rescaled_final/2102_fw.mp4	0.0	110.31488680839539	2.500386953353882
8	87.32990288734436	pulse	1	t		6.0	2.5	/experiments/knapen_AOT/AOT_stimuli/rescaled_final/2102_fw.mp4	0.0	111.09855675697327	
8	88.93001580238342	pulse	1	t		6.0	2.5	/experiments/knapen_AOT/AOT_stimuli/rescaled_final/2102_fw.mp4	0.0	112.69866967201233	
8	89.04661989212036	fix_post	2		12	6.0	2.5	/experiments/knapen_AOT/AOT_stimuli/rescaled_final/2102_fw.mp4	0.0	112.81527376174927	0.09997892379760742
9	89.14659881591797	fix_pre	0		120	7.0	2.5	/experiments/knapen_AOT/AOT_stimuli/rescaled_final/1802_fw.mp4	0.0	112.91525268554688	1.000101089477539
9	90.14669990539551	movie	1		242	7.0	2.5	/experiments/knapen_AOT/AOT_stimuli/rescaled_final/1802_fw.mp4	0.0	113.91535377502441	2.4920380115509033
9	90.53093194961548	pulse	1	t		7.0	2.5	/experiments/knapen_AOT/AOT_stimuli/rescaled_final/1802_fw.mp4	0.0	114.29958581924438	
9	92.13061785697937	pulse	1	t		7.0	2.5	/experiments/knapen_AOT/AOT_stimuli/rescaled_final/1802_fw.mp4	0.0	115.89927172660828	
9	92.63873791694641	fix_post	2		12	7.0	2.5	/experiments/knapen_AOT/AOT_stimuli/rescaled_final/1802_fw.mp4	0.0	116.40739178657532	0.10004997253417969
10	92.73878788948059	fix_pre	0		120	8.0	2.5	/experiments/knapen_AOT/AOT_stimuli/rescaled_final/1174_rv.mp4	0.0	116.5074417591095	1.0001370906829834
10	93.73078894615173	pulse	0	t		8.0	2.5	/experiments/knapen_AOT/AOT_stimuli/rescaled_final/1174_rv.mp4	0.0	117.49944281578064	
10	93.73892498016357	movie	1		244	8.0	2.5	/experiments/knapen_AOT/AOT_stimuli/rescaled_final/1174_rv.mp4	0.0	117.50757884979248	2.50876784324646
10	95.33516192436218	pulse	1	t		8.0	2.5	/experiments/knapen_AOT/AOT_stimuli/rescaled_final/1174_rv.mp4	0.0	119.10381579399109	
10	96.24769282341003	fix_post	2		12	8.0	2.5	/experiments/knapen_AOT/AOT_stimuli/rescaled_final/1174_rv.mp4	0.0	120.01634669303894	0.09998703002929688
11	96.34767985343933	fix_pre	0		120	9.0	2.5	/experiments/knapen_AOT/AOT_stimuli/rescaled_final/0670_fw.mp4	0.0	120.11633372306824	1.0001349449157715
11	96.93134689331055	pulse	0	t		9.0	2.5	/experiments/knapen_AOT/AOT_stimuli/rescaled_final/0670_fw.mp4	0.0	120.70000076293945	
11	97.3478147983551	movie	1		243	9.0	2.5	/experiments/knapen_AOT/AOT_stimuli/rescaled_final/0670_fw.mp4	0.0	121.11646866798401	2.5003411769866943
11	98.53159284591675	pulse	1	t		9.0	2.5	/experiments/knapen_AOT/AOT_stimuli/rescaled_final/0670_fw.mp4	0.0	122.30024671554565	
11	99.8481559753418	fix_post	2		12	9.0	2.5	/experiments/knapen_AOT/AOT_stimuli/rescaled_final/0670_fw.mp4	0.0	123.6168098449707	0.10008502006530762
12	99.9482409954071	fix_pre	0		120	10.0	2.5	/experiments/knapen_AOT/AOT_stimuli/rescaled_final/1481_fw.mp4	0.0	123.71689486503601	1.0000989437103271
12	100.1318109035492	pulse	0	t		10.0	2.5	/experiments/knapen_AOT/AOT_stimuli/rescaled_final/1481_fw.mp4	0.0	123.9004647731781	
12	100.94833993911743	movie	1		240	10.0	2.5	/experiments/knapen_AOT/AOT_stimuli/rescaled_final/1481_fw.mp4	0.0	124.71699380874634	2.500377893447876
12	101.73198699951172	pulse	1	t		10.0	2.5	/experiments/knapen_AOT/AOT_stimuli/rescaled_final/1481_fw.mp4	0.0	125.50064086914062	
12	103.33272099494934	pulse	1	t		10.0	2.5	/experiments/knapen_AOT/AOT_stimuli/rescaled_final/1481_fw.mp4	0.0	127.10137486457825	
12	103.44871783256531	fix_post	2		12	10.0	2.5	/experiments/knapen_AOT/AOT_stimuli/rescaled_final/1481_fw.mp4	0.0	127.21737170219421	0.10002517700195312
13	103.54874300956726	fix_pre	0		120	11.0	2.5	/experiments/knapen_AOT/AOT_stimuli/rescaled_final/1415_fw.mp4	0.0	127.31739687919617	1.0001449584960938
13	104.54888796806335	movie	1		242	11.0	2.5	/experiments/knapen_AOT/AOT_stimuli/rescaled_final/1415_fw.mp4	0.0	128.31754183769226	2.492041826248169
13	104.93307399749756	pulse	1	t		11.0	2.5	/experiments/knapen_AOT/AOT_stimuli/rescaled_final/1415_fw.mp4	0.0	128.70172786712646	
13	106.52543091773987	pulse	1	t		11.0	2.5	/experiments/knapen_AOT/AOT_stimuli/rescaled_final/1415_fw.mp4	0.0	130.29408478736877	
13	107.04092979431152	fix_post	2		12	11.0	2.5	/experiments/knapen_AOT/AOT_stimuli/rescaled_final/1415_fw.mp4	0.0	130.80958366394043	0.1000070571899414
14	107.14093685150146	fix_pre	0		120	12.0	2.5	/experiments/knapen_AOT/AOT_stimuli/rescaled_final/1335_rv.mp4	0.0	130.90959072113037	1.000143051147461
14	108.12541699409485	pulse	0	t		12.0	2.5	/experiments/knapen_AOT/AOT_stimuli/rescaled_final/1335_rv.mp4	0.0	131.89407086372375	
14	108.14107990264893	movie	1		245	12.0	2.5	/experiments/knapen_AOT/AOT_stimuli/rescaled_final/1335_rv.mp4	0.0	131.90973377227783	2.5087289810180664
14	109.72480988502502	pulse	1	t		12.0	2.5	/experiments/knapen_AOT/AOT_stimuli/rescaled_final/1335_rv.mp4	0.0	133.49346375465393	
14	110.64980888366699	fix_post	2		12	12.0	2.5	/experiments/knapen_AOT/AOT_stimuli/rescaled_final/1335_rv.mp4	0.0	134.4184627532959	0.09999394416809082
15	110.74980282783508	fix_pre	0		120	13.0	2.5	/experiments/knapen_AOT/AOT_stimuli/rescaled_final/0807_rv.mp4	0.0	134.518456697464	1.0002071857452393
15	111.3250379562378	pulse	0	t		13.0	2.5	/experiments/knapen_AOT/AOT_stimuli/rescaled_final/0807_rv.mp4	0.0	135.0936918258667	
15	111.75001001358032	movie	1		244	13.0	2.5	/experiments/knapen_AOT/AOT_stimuli/rescaled_final/0807_rv.mp4	0.0	135.51866388320923	2.5003108978271484
15	112.92643094062805	pulse	1	t		13.0	2.5	/experiments/knapen_AOT/AOT_stimuli/rescaled_final/0807_rv.mp4	0.0	136.69508481025696	
15	114.25032091140747	fix_post	2		12	13.0	2.5	/experiments/knapen_AOT/AOT_stimuli/rescaled_final/0807_rv.mp4	0.0	138.01897478103638	0.10001301765441895
16	114.35033392906189	fix_pre	0		120	14.0	2.5	blank	1.0	138.1189877986908	1.0001869201660156
16	114.52555394172668	pulse	0	t		14.0	2.5	blank	1.0	138.2942078113556	
16	115.3505208492279	movie	1		300	14.0	2.5	blank	1.0	139.1191747188568	2.500331163406372
16	116.125816822052	pulse	1	t		14.0	2.5	blank	1.0	139.8944706916809	
16	117.72598099708557	pulse	1	t		14.0	2.5	blank	1.0	141.49463486671448	
16	117.85085201263428	fix_post	2		12	14.0	2.5	blank	1.0	141.61950588226318	0.10001397132873535
17	117.95086598396301	fix_pre	0		119	15.0	2.5	/experiments/knapen_AOT/AOT_stimuli/rescaled_final/1000_rv.mp4	0.0	141.71951985359192	0.9918320178985596
17	118.94269800186157	movie	1		244	15.0	2.5	/experiments/knapen_AOT/AOT_stimuli/rescaled_final/1000_rv.mp4	0.0	142.71135187149048	2.5004138946533203
17	119.32693386077881	pulse	1	t		15.0	2.5	/experiments/knapen_AOT/AOT_stimuli/rescaled_final/1000_rv.mp4	0.0	143.09558773040771	
17	120.92649483680725	pulse	1	t		15.0	2.5	/experiments/knapen_AOT/AOT_stimuli/rescaled_final/1000_rv.mp4	0.0	144.69514870643616	
17	121.44311189651489	fix_post	2		12	15.0	2.5	/experiments/knapen_AOT/AOT_stimuli/rescaled_final/1000_rv.mp4	0.0	145.2117657661438	0.09993410110473633
18	121.54304599761963	fix_pre	0		119	16.0	2.5	/experiments/knapen_AOT/AOT_stimuli/rescaled_final/2132_fw.mp4	0.0	145.31169986724854	0.9918699264526367
18	122.52676701545715	pulse	0	t		16.0	2.5	/experiments/knapen_AOT/AOT_stimuli/rescaled_final/2132_fw.mp4	0.0	146.29542088508606	
18	122.53491592407227	movie	1		244	16.0	2.5	/experiments/knapen_AOT/AOT_stimuli/rescaled_final/2132_fw.mp4	0.0	146.30356979370117	2.5086750984191895
18	124.12769794464111	pulse	1	t		16.0	2.5	/experiments/knapen_AOT/AOT_stimuli/rescaled_final/2132_fw.mp4	0.0	147.89635181427002	
18	125.04359102249146	fix_post	2		12	16.0	2.5	/experiments/knapen_AOT/AOT_stimuli/rescaled_final/2132_fw.mp4	0.0	148.81224489212036	0.10001897811889648
19	125.14361000061035	fix_pre	0		120	17.0	2.5	/experiments/knapen_AOT/AOT_stimuli/rescaled_final/0709_fw.mp4	0.0	148.91226387023926	1.0002198219299316
19	125.7273199558258	pulse	0	t		17.0	2.5	/experiments/knapen_AOT/AOT_stimuli/rescaled_final/0709_fw.mp4	0.0	149.4959738254547	
19	126.14382982254028	movie	1		244	17.0	2.5	/experiments/knapen_AOT/AOT_stimuli/rescaled_final/0709_fw.mp4	0.0	149.9124836921692	2.500279188156128
19	127.32755184173584	pulse	1	t		17.0	2.5	/experiments/knapen_AOT/AOT_stimuli/rescaled_final/0709_fw.mp4	0.0	151.09620571136475	
19	128.6441090106964	fix_post	2		12	17.0	2.5	/experiments/knapen_AOT/AOT_stimuli/rescaled_final/0709_fw.mp4	0.0	152.41276288032532	0.10005378723144531
20	128.74416279792786	fix_pre	0		120	18.0	2.5	/experiments/knapen_AOT/AOT_stimuli/rescaled_final/1777_fw.mp4	0.0	152.51281666755676	1.0002591609954834
20	128.9277379512787	pulse	0	t		18.0	2.5	/experiments/knapen_AOT/AOT_stimuli/rescaled_final/1777_fw.mp4	0.0	152.6963918209076	
20	129.74442195892334	movie	1		245	18.0	2.5	/experiments/knapen_AOT/AOT_stimuli/rescaled_final/1777_fw.mp4	0.0	153.51307582855225	2.5002529621124268
20	130.52791690826416	pulse	1	t		18.0	2.5	/experiments/knapen_AOT/AOT_stimuli/rescaled_final/1777_fw.mp4	0.0	154.29657077789307	
20	132.12562084197998	pulse	1	t		18.0	2.5	/experiments/knapen_AOT/AOT_stimuli/rescaled_final/1777_fw.mp4	0.0	155.8942747116089	
20	132.24467492103577	fix_post	2		12	18.0	2.5	/experiments/knapen_AOT/AOT_stimuli/rescaled_final/1777_fw.mp4	0.0	156.01332879066467	0.10000991821289062
21	132.34468483924866	fix_pre	0		120	19.0	2.5	/experiments/knapen_AOT/AOT_stimuli/rescaled_final/0619_fw.mp4	0.0	156.11333870887756	1.0001680850982666
21	133.34485292434692	movie	1		243	19.0	2.5	/experiments/knapen_AOT/AOT_stimuli/rescaled_final/0619_fw.mp4	0.0	157.11350679397583	2.4919989109039307
21	133.7287998199463	pulse	1	t		19.0	2.5	/experiments/knapen_AOT/AOT_stimuli/rescaled_final/0619_fw.mp4	0.0	157.4974536895752	
21	135.32873582839966	pulse	1	t		19.0	2.5	/experiments/knapen_AOT/AOT_stimuli/rescaled_final/0619_fw.mp4	0.0	159.09738969802856	
21	135.83685183525085	fix_post	2		12	19.0	2.5	/experiments/knapen_AOT/AOT_stimuli/rescaled_final/0619_fw.mp4	0.0	159.60550570487976	0.10006403923034668
22	135.9369158744812	fix_pre	0		120	20.0	2.5	blank	1.0	159.7055697441101	1.000136137008667
22	136.92886185646057	pulse	0	t		20.0	2.5	blank	1.0	160.69751572608948	
22	136.93705201148987	movie	1		301	20.0	2.5	blank	1.0	160.70570588111877	2.508704900741577
22	138.5291519165039	pulse	1	t		20.0	2.5	blank	1.0	162.2978057861328	
22	139.44575691223145	fix_post	2		12	20.0	2.5	blank	1.0	163.21441078186035	0.10000491142272949
23	139.54576182365417	fix_pre	0		120	21.0	2.5	/experiments/knapen_AOT/AOT_stimuli/rescaled_final/0798_fw.mp4	0.0	163.31441569328308	1.0001599788665771
23	140.1294708251953	pulse	0	t		21.0	2.5	/experiments/knapen_AOT/AOT_stimuli/rescaled_final/0798_fw.mp4	0.0	163.89812469482422	
23	140.54592180252075	movie	1		244	21.0	2.5	/experiments/knapen_AOT/AOT_stimuli/rescaled_final/0798_fw.mp4	0.0	164.31457567214966	2.5003809928894043
23	141.72978591918945	pulse	1	t		21.0	2.5	/experiments/knapen_AOT/AOT_stimuli/rescaled_final/0798_fw.mp4	0.0	165.49843978881836	
23	143.04630279541016	fix_post	2		12	21.0	2.5	/experiments/knapen_AOT/AOT_stimuli/rescaled_final/0798_fw.mp4	0.0	166.81495666503906	0.09998512268066406
24	143.14628791809082	fix_pre	0		120	22.0	2.5	/experiments/knapen_AOT/AOT_stimuli/rescaled_final/0333_rv.mp4	0.0	166.91494178771973	1.0001590251922607
24	143.32985401153564	pulse	0	t		22.0	2.5	/experiments/knapen_AOT/AOT_stimuli/rescaled_final/0333_rv.mp4	0.0	167.09850788116455	
24	144.14644694328308	movie	1		244	22.0	2.5	/experiments/knapen_AOT/AOT_stimuli/rescaled_final/0333_rv.mp4	0.0	167.915100812912	2.500375986099243
24	144.93012690544128	pulse	1	t		22.0	2.5	/experiments/knapen_AOT/AOT_stimuli/rescaled_final/0333_rv.mp4	0.0	168.6987807750702	
24	146.53045797348022	pulse	1	t		22.0	2.5	/experiments/knapen_AOT/AOT_stimuli/rescaled_final/0333_rv.mp4	0.0	170.29911184310913	
24	146.64682292938232	fix_post	2		12	22.0	2.5	/experiments/knapen_AOT/AOT_stimuli/rescaled_final/0333_rv.mp4	0.0	170.41547679901123	0.10003995895385742
25	146.74686288833618	fix_pre	0		120	23.0	2.5	/experiments/knapen_AOT/AOT_stimuli/rescaled_final/1705_rv.mp4	0.0	170.5155167579651	1.0001330375671387
25	147.74699592590332	movie	1		243	23.0	2.5	/experiments/knapen_AOT/AOT_stimuli/rescaled_final/1705_rv.mp4	0.0	171.51564979553223	2.492027997970581
25	148.13496279716492	pulse	1	t		23.0	2.5	/experiments/knapen_AOT/AOT_stimuli/rescaled_final/1705_rv.mp4	0.0	171.90361666679382	
25	149.73086285591125	pulse	1	t		23.0	2.5	/experiments/knapen_AOT/AOT_stimuli/rescaled_final/1705_rv.mp4	0.0	173.49951672554016	
25	150.2390239238739	fix_post	2		12	23.0	2.5	/experiments/knapen_AOT/AOT_stimuli/rescaled_final/1705_rv.mp4	0.0	174.0076777935028	0.10000395774841309
26	150.33902788162231	fix_pre	0		120	24.0	2.5	/experiments/knapen_AOT/AOT_stimuli/rescaled_final/1010_rv.mp4	0.0	174.10768175125122	1.0001771450042725
26	151.33104181289673	pulse	0	t		24.0	2.5	/experiments/knapen_AOT/AOT_stimuli/rescaled_final/1010_rv.mp4	0.0	175.09969568252563	
26	151.3392050266266	movie	1		244	24.0	2.5	/experiments/knapen_AOT/AOT_stimuli/rescaled_final/1010_rv.mp4	0.0	175.1078588962555	2.508664846420288
26	152.93178391456604	pulse	1	t		24.0	2.5	/experiments/knapen_AOT/AOT_stimuli/rescaled_final/1010_rv.mp4	0.0	176.70043778419495	
26	153.84786987304688	fix_post	2		12	24.0	2.5	/experiments/knapen_AOT/AOT_stimuli/rescaled_final/1010_rv.mp4	0.0	177.61652374267578	0.10003805160522461
27	153.9479079246521	fix_pre	0		120	25.0	2.5	/experiments/knapen_AOT/AOT_stimuli/rescaled_final/0696_rv.mp4	0.0	177.716561794281	1.000204086303711
27	154.53163981437683	pulse	0	t		25.0	2.5	/experiments/knapen_AOT/AOT_stimuli/rescaled_final/0696_rv.mp4	0.0	178.30029368400574	
27	154.9481120109558	movie	1		243	25.0	2.5	/experiments/knapen_AOT/AOT_stimuli/rescaled_final/0696_rv.mp4	0.0	178.71676588058472	2.5002999305725098
27	156.13190388679504	pulse	1	t		25.0	2.5	/experiments/knapen_AOT/AOT_stimuli/rescaled_final/0696_rv.mp4	0.0	179.90055775642395	
27	157.44841194152832	fix_post	2		12	25.0	2.5	/experiments/knapen_AOT/AOT_stimuli/rescaled_final/0696_rv.mp4	0.0	181.21706581115723	0.10004806518554688
28	157.54846000671387	fix_pre	0		120	26.0	2.5	blank	1.0	181.31711387634277	1.0008869171142578
28	157.72457194328308	pulse	0	t		26.0	2.5	blank	1.0	181.493225812912	
28	158.54934692382812	movie	1		299	26.0	2.5	blank	1.0	182.31800079345703	2.499631881713867
28	159.32480692863464	pulse	1	t		26.0	2.5	blank	1.0	183.09346079826355	
28	160.9249119758606	pulse	1	t		26.0	2.5	blank	1.0	184.6935658454895	
28	161.048978805542	fix_post	2		12	26.0	2.5	blank	1.0	184.8176326751709	0.10001611709594727
29	161.14899492263794	fix_pre	0		120	27.0	2.5	/experiments/knapen_AOT/AOT_stimuli/rescaled_final/0276_fw.mp4	0.0	184.91764879226685	1.000169038772583
29	162.14916396141052	movie	1		243	27.0	2.5	/experiments/knapen_AOT/AOT_stimuli/rescaled_final/0276_fw.mp4	0.0	185.91781783103943	2.492017984390259
29	162.53324699401855	pulse	1	t		27.0	2.5	/experiments/knapen_AOT/AOT_stimuli/rescaled_final/0276_fw.mp4	0.0	186.30190086364746	
29	164.12569093704224	pulse	1	t		27.0	2.5	/experiments/knapen_AOT/AOT_stimuli/rescaled_final/0276_fw.mp4	0.0	187.89434480667114	
29	164.64118194580078	fix_post	2		12	27.0	2.5	/experiments/knapen_AOT/AOT_stimuli/rescaled_final/0276_fw.mp4	0.0	188.4098358154297	0.10000801086425781
30	164.74118995666504	fix_pre	0		119	28.0	2.5	/experiments/knapen_AOT/AOT_stimuli/rescaled_final/0807_fw.mp4	0.0	188.50984382629395	0.9918289184570312
30	165.7249050140381	pulse	0	t		28.0	2.5	/experiments/knapen_AOT/AOT_stimuli/rescaled_final/0807_fw.mp4	0.0	189.493558883667	
30	165.73301887512207	movie	1		245	28.0	2.5	/experiments/knapen_AOT/AOT_stimuli/rescaled_final/0807_fw.mp4	0.0	189.50167274475098	2.508664131164551
30	167.32562685012817	pulse	1	t		28.0	2.5	/experiments/knapen_AOT/AOT_stimuli/rescaled_final/0807_fw.mp4	0.0	191.09428071975708	
30	168.24168300628662	fix_post	2		12	28.0	2.5	/experiments/knapen_AOT/AOT_stimuli/rescaled_final/0807_fw.mp4	0.0	192.01033687591553	0.10004591941833496
31	168.34172892570496	fix_pre	0		120	29.0	2.5	/experiments/knapen_AOT/AOT_stimuli/rescaled_final/2129_fw.mp4	0.0	192.11038279533386	1.0001530647277832
31	168.92545580863953	pulse	0	t		29.0	2.5	/experiments/knapen_AOT/AOT_stimuli/rescaled_final/2129_fw.mp4	0.0	192.69410967826843	
31	169.34188199043274	movie	1		244	29.0	2.5	/experiments/knapen_AOT/AOT_stimuli/rescaled_final/2129_fw.mp4	0.0	193.11053586006165	2.50036883354187
31	170.5256688594818	pulse	1	t		29.0	2.5	/experiments/knapen_AOT/AOT_stimuli/rescaled_final/2129_fw.mp4	0.0	194.29432272911072	
31	171.8422508239746	fix_post	2		12	29.0	2.5	/experiments/knapen_AOT/AOT_stimuli/rescaled_final/2129_fw.mp4	0.0	195.61090469360352	0.1000680923461914
32	171.9423189163208	fix_pre	0		120	30.0	2.5	/experiments/knapen_AOT/AOT_stimuli/rescaled_final/1330_fw.mp4	0.0	195.7109727859497	1.0000770092010498
32	172.12587690353394	pulse	0	t		30.0	2.5	/experiments/knapen_AOT/AOT_stimuli/rescaled_final/1330_fw.mp4	0.0	195.89453077316284	
32	172.94239592552185	movie	1		244	30.0	2.5	/experiments/knapen_AOT/AOT_stimuli/rescaled_final/1330_fw.mp4	0.0	196.71104979515076	2.5003530979156494
32	173.72604179382324	pulse	1	t		30.0	2.5	/experiments/knapen_AOT/AOT_stimuli/rescaled_final/1330_fw.mp4	0.0	197.49469566345215	
32	175.3266417980194	pulse	1	t		30.0	2.5	/experiments/knapen_AOT/AOT_stimuli/rescaled_final/1330_fw.mp4	0.0	199.09529566764832	
32	175.4427490234375	fix_post	2		12	30.0	2.5	/experiments/knapen_AOT/AOT_stimuli/rescaled_final/1330_fw.mp4	0.0	199.2114028930664	0.10005688667297363
33	175.54280591011047	fix_pre	0		119	31.0	2.5	/experiments/knapen_AOT/AOT_stimuli/rescaled_final/1445_fw.mp4	0.0	199.31145977973938	0.991826057434082
33	176.53463196754456	movie	1		243	31.0	2.5	/experiments/knapen_AOT/AOT_stimuli/rescaled_final/1445_fw.mp4	0.0	200.30328583717346	2.500375986099243
33	176.92667484283447	pulse	1	t		31.0	2.5	/experiments/knapen_AOT/AOT_stimuli/rescaled_final/1445_fw.mp4	0.0	200.69532871246338	
33	178.52687096595764	pulse	1	t		31.0	2.5	/experiments/knapen_AOT/AOT_stimuli/rescaled_final/1445_fw.mp4	0.0	202.29552483558655	
33	179.0350079536438	fix_post	2		12	31.0	2.5	/experiments/knapen_AOT/AOT_stimuli/rescaled_final/1445_fw.mp4	0.0	202.8036618232727	0.09999299049377441
34	179.13500094413757	fix_pre	0		120	32.0	2.5	/experiments/knapen_AOT/AOT_stimuli/rescaled_final/1892_rv.mp4	0.0	202.90365481376648	1.0001840591430664
34	180.12697982788086	pulse	0	t		32.0	2.5	/experiments/knapen_AOT/AOT_stimuli/rescaled_final/1892_rv.mp4	0.0	203.89563369750977	
34	180.13518500328064	movie	1		245	32.0	2.5	/experiments/knapen_AOT/AOT_stimuli/rescaled_final/1892_rv.mp4	0.0	203.90383887290955	2.508641004562378
34	181.7278938293457	pulse	1	t		32.0	2.5	/experiments/knapen_AOT/AOT_stimuli/rescaled_final/1892_rv.mp4	0.0	205.4965476989746	
34	182.64382600784302	fix_post	2		12	32.0	2.5	/experiments/knapen_AOT/AOT_stimuli/rescaled_final/1892_rv.mp4	0.0	206.41247987747192	0.10004901885986328
35	182.74387502670288	fix_pre	0		120	33.0	2.5	/experiments/knapen_AOT/AOT_stimuli/rescaled_final/1174_fw.mp4	0.0	206.5125288963318	1.0001718997955322
35	183.32745885849	pulse	0	t		33.0	2.5	/experiments/knapen_AOT/AOT_stimuli/rescaled_final/1174_fw.mp4	0.0	207.0961127281189	
35	183.7440469264984	movie	1		243	33.0	2.5	/experiments/knapen_AOT/AOT_stimuli/rescaled_final/1174_fw.mp4	0.0	207.51270079612732	2.5003418922424316
35	184.92780900001526	pulse	1	t		33.0	2.5	/experiments/knapen_AOT/AOT_stimuli/rescaled_final/1174_fw.mp4	0.0	208.69646286964417	
35	186.24438881874084	fix_post	2		12	33.0	2.5	/experiments/knapen_AOT/AOT_stimuli/rescaled_final/1174_fw.mp4	0.0	210.01304268836975	0.1000211238861084
36	186.34440994262695	fix_pre	0		120	34.0	2.5	blank	1.0	210.11306381225586	1.0002009868621826
36	186.52795886993408	pulse	0	t		34.0	2.5	blank	1.0	210.296612739563	
36	187.34461092948914	movie	1		300	34.0	2.5	blank	1.0	211.11326479911804	2.5003340244293213
36	188.12827682495117	pulse	1	t		34.0	2.5	blank	1.0	211.89693069458008	
36	189.72843599319458	pulse	1	t		34.0	2.5	blank	1.0	213.4970898628235	
36	189.84494495391846	fix_post	2		12	34.0	2.5	blank	1.0	213.61359882354736	0.09996199607849121
37	189.94490694999695	fix_pre	0		120	35.0	2.5	/experiments/knapen_AOT/AOT_stimuli/rescaled_final/1903_rv.mp4	0.0	213.71356081962585	1.0001869201660156
37	190.94509387016296	movie	1		243	35.0	2.5	/experiments/knapen_AOT/AOT_stimuli/rescaled_final/1903_rv.mp4	0.0	214.71374773979187	2.4920620918273926
37	191.32907485961914	pulse	1	t		35.0	2.5	/experiments/knapen_AOT/AOT_stimuli/rescaled_final/1903_rv.mp4	0.0	215.09772872924805	
37	192.92891001701355	pulse	1	t		35.0	2.5	/experiments/knapen_AOT/AOT_stimuli/rescaled_final/1903_rv.mp4	0.0	216.69756388664246	
37	193.43715596199036	fix_post	2		12	35.0	2.5	/experiments/knapen_AOT/AOT_stimuli/rescaled_final/1903_rv.mp4	0.0	217.20580983161926	0.09999203681945801
38	193.53714799880981	fix_pre	0		120	36.0	2.5	/experiments/knapen_AOT/AOT_stimuli/rescaled_final/1461_rv.mp4	0.0	217.30580186843872	1.0001368522644043
38	194.52920985221863	pulse	0	t		36.0	2.5	/experiments/knapen_AOT/AOT_stimuli/rescaled_final/1461_rv.mp4	0.0	218.29786372184753	
38	194.53728485107422	movie	1		246	36.0	2.5	/experiments/knapen_AOT/AOT_stimuli/rescaled_final/1461_rv.mp4	0.0	218.30593872070312	2.5087201595306396
38	196.12986588478088	pulse	1	t		36.0	2.5	/experiments/knapen_AOT/AOT_stimuli/rescaled_final/1461_rv.mp4	0.0	219.8985197544098	
38	197.04600501060486	fix_post	2		12	36.0	2.5	/experiments/knapen_AOT/AOT_stimuli/rescaled_final/1461_rv.mp4	0.0	220.81465888023376	0.09998393058776855
39	197.14598894119263	fix_pre	0		120	37.0	2.5	/experiments/knapen_AOT/AOT_stimuli/rescaled_final/0488_fw.mp4	0.0	220.91464281082153	1.0001869201660156
39	197.7297489643097	pulse	0	t		37.0	2.5	/experiments/knapen_AOT/AOT_stimuli/rescaled_final/0488_fw.mp4	0.0	221.4984028339386	
39	198.14617586135864	movie	1		245	37.0	2.5	/experiments/knapen_AOT/AOT_stimuli/rescaled_final/0488_fw.mp4	0.0	221.91482973098755	2.500458002090454
39	199.33001589775085	pulse	1	t		37.0	2.5	/experiments/knapen_AOT/AOT_stimuli/rescaled_final/0488_fw.mp4	0.0	223.09866976737976	
39	200.6466338634491	fix_post	2		12	37.0	2.5	/experiments/knapen_AOT/AOT_stimuli/rescaled_final/0488_fw.mp4	0.0	224.415287733078	0.09992003440856934
40	200.74655389785767	fix_pre	0		120	38.0	2.5	/experiments/knapen_AOT/AOT_stimuli/rescaled_final/1817_rv.mp4	0.0	224.51520776748657	1.000140905380249
40	200.93005895614624	pulse	0	t		38.0	2.5	/experiments/knapen_AOT/AOT_stimuli/rescaled_final/1817_rv.mp4	0.0	224.69871282577515	
40	201.74669480323792	movie	1		244	38.0	2.5	/experiments/knapen_AOT/AOT_stimuli/rescaled_final/1817_rv.mp4	0.0	225.51534867286682	2.5003600120544434
40	202.53060579299927	pulse	1	t		38.0	2.5	/experiments/knapen_AOT/AOT_stimuli/rescaled_final/1817_rv.mp4	0.0	226.29925966262817	
40	204.12838983535767	pulse	1	t		38.0	2.5	/experiments/knapen_AOT/AOT_stimuli/rescaled_final/1817_rv.mp4	0.0	227.89704370498657	
40	204.24705481529236	fix_post	2		12	38.0	2.5	/experiments/knapen_AOT/AOT_stimuli/rescaled_final/1817_rv.mp4	0.0	228.01570868492126	0.10005307197570801
41	204.34710788726807	fix_pre	0		120	39.0	2.5	/experiments/knapen_AOT/AOT_stimuli/rescaled_final/0319_rv.mp4	0.0	228.11576175689697	1.000114917755127
41	205.3472228050232	movie	1		242	39.0	2.5	/experiments/knapen_AOT/AOT_stimuli/rescaled_final/0319_rv.mp4	0.0	229.1158766746521	2.4920601844787598
41	205.73138284683228	pulse	1	t		39.0	2.5	/experiments/knapen_AOT/AOT_stimuli/rescaled_final/0319_rv.mp4	0.0	229.50003671646118	
41	207.33104991912842	pulse	1	t		39.0	2.5	/experiments/knapen_AOT/AOT_stimuli/rescaled_final/0319_rv.mp4	0.0	231.09970378875732	
41	207.83928298950195	fix_post	2		12	39.0	2.5	/experiments/knapen_AOT/AOT_stimuli/rescaled_final/0319_rv.mp4	0.0	231.60793685913086	0.09999990463256836
42	207.93928289413452	fix_pre	0		120	40.0	2.5	/experiments/knapen_AOT/AOT_stimuli/rescaled_final/1481_fw.mp4	0.0	231.70793676376343	1.000157117843628
42	208.9314169883728	pulse	0	t		40.0	2.5	/experiments/knapen_AOT/AOT_stimuli/rescaled_final/1481_fw.mp4	0.0	232.7000708580017	
42	208.93944001197815	movie	1		244	40.0	2.5	/experiments/knapen_AOT/AOT_stimuli/rescaled_final/1481_fw.mp4	0.0	232.70809388160706	2.5087218284606934
42	210.53201985359192	pulse	1	t		40.0	2.5	/experiments/knapen_AOT/AOT_stimuli/rescaled_final/1481_fw.mp4	0.0	234.30067372322083	
42	211.44816184043884	fix_post	2		12	40.0	2.5	/experiments/knapen_AOT/AOT_stimuli/rescaled_final/1481_fw.mp4	0.0	235.21681571006775	0.10011816024780273
43	211.54828000068665	fix_pre	0		120	41.0	2.5	/experiments/knapen_AOT/AOT_stimuli/rescaled_final/1460_rv.mp4	0.0	235.31693387031555	1.0000379085540771
43	212.12432885169983	pulse	0	t		41.0	2.5	/experiments/knapen_AOT/AOT_stimuli/rescaled_final/1460_rv.mp4	0.0	235.89298272132874	
43	212.54831790924072	movie	1		245	41.0	2.5	/experiments/knapen_AOT/AOT_stimuli/rescaled_final/1460_rv.mp4	0.0	236.31697177886963	2.500335931777954
43	213.72441291809082	pulse	1	t		41.0	2.5	/experiments/knapen_AOT/AOT_stimuli/rescaled_final/1460_rv.mp4	0.0	237.49306678771973	
43	215.04865384101868	fix_post	2		12	41.0	2.5	/experiments/knapen_AOT/AOT_stimuli/rescaled_final/1460_rv.mp4	0.0	238.81730771064758	0.10005903244018555
44	215.14871287345886	fix_pre	0		120	42.0	2.5	blank	1.0	238.91736674308777	1.0001671314239502
44	215.324697971344	pulse	0	t		42.0	2.5	blank	1.0	239.0933518409729	
44	216.1488800048828	movie	1		300	42.0	2.5	blank	1.0	239.91753387451172	2.5003719329833984
44	216.92496299743652	pulse	1	t		42.0	2.5	blank	1.0	240.69361686706543	
44	218.52439379692078	pulse	1	t		42.0	2.5	blank	1.0	242.29304766654968	
44	218.6492519378662	fix_post	2		12	42.0	2.5	blank	1.0	242.41790580749512	0.09998106956481934
45	218.74923300743103	fix_pre	0		120	43.0	2.5	/experiments/knapen_AOT/AOT_stimuli/rescaled_final/0319_rv.mp4	0.0	242.51788687705994	1.0001368522644043
45	219.74936985969543	movie	1		242	43.0	2.5	/experiments/knapen_AOT/AOT_stimuli/rescaled_final/0319_rv.mp4	0.0	243.51802372932434	2.492033004760742
45	220.12461495399475	pulse	1	t		43.0	2.5	/experiments/knapen_AOT/AOT_stimuli/rescaled_final/0319_rv.mp4	0.0	243.89326882362366	
45	221.7249870300293	pulse	1	t		43.0	2.5	/experiments/knapen_AOT/AOT_stimuli/rescaled_final/0319_rv.mp4	0.0	245.4936408996582	
45	222.24140286445618	fix_post	2		12	43.0	2.5	/experiments/knapen_AOT/AOT_stimuli/rescaled_final/0319_rv.mp4	0.0	246.01005673408508	0.1000831127166748
46	222.34148597717285	fix_pre	0		116	44.0	2.5	/experiments/knapen_AOT/AOT_stimuli/rescaled_final/0024_fw.mp4	0.0	246.11013984680176	0.9917819499969482
46	223.32517790794373	pulse	0	t		44.0	2.5	/experiments/knapen_AOT/AOT_stimuli/rescaled_final/0024_fw.mp4	0.0	247.09383177757263	
46	223.3332679271698	movie	1		246	44.0	2.5	/experiments/knapen_AOT/AOT_stimuli/rescaled_final/0024_fw.mp4	0.0	247.1019217967987	2.5087099075317383
46	224.92586588859558	pulse	1	t		44.0	2.5	/experiments/knapen_AOT/AOT_stimuli/rescaled_final/0024_fw.mp4	0.0	248.6945197582245	
46	225.84197783470154	fix_post	2		12	44.0	2.5	/experiments/knapen_AOT/AOT_stimuli/rescaled_final/0024_fw.mp4	0.0	249.61063170433044	0.10002017021179199
47	225.94199800491333	fix_pre	0		120	45.0	2.5	/experiments/knapen_AOT/AOT_stimuli/rescaled_final/1649_fw.mp4	0.0	249.71065187454224	1.000180959701538
47	226.52568984031677	pulse	0	t		45.0	2.5	/experiments/knapen_AOT/AOT_stimuli/rescaled_final/1649_fw.mp4	0.0	250.29434370994568	
47	226.94217896461487	movie	1		244	45.0	2.5	/experiments/knapen_AOT/AOT_stimuli/rescaled_final/1649_fw.mp4	0.0	250.71083283424377	2.500351905822754
47	228.12590980529785	pulse	1	t		45.0	2.5	/experiments/knapen_AOT/AOT_stimuli/rescaled_final/1649_fw.mp4	0.0	251.89456367492676	
47	229.44253087043762	fix_post	2		12	45.0	2.5	/experiments/knapen_AOT/AOT_stimuli/rescaled_final/1649_fw.mp4	0.0	253.21118474006653	0.09998202323913574
48	229.54251289367676	fix_pre	0		120	46.0	2.5	/experiments/knapen_AOT/AOT_stimuli/rescaled_final/0960_fw.mp4	0.0	253.31116676330566	1.0001699924468994
48	229.72608089447021	pulse	0	t		46.0	2.5	/experiments/knapen_AOT/AOT_stimuli/rescaled_final/0960_fw.mp4	0.0	253.49473476409912	
48	230.54268288612366	movie	1		243	46.0	2.5	/experiments/knapen_AOT/AOT_stimuli/rescaled_final/0960_fw.mp4	0.0	254.31133675575256	2.5003490447998047
48	231.32646203041077	pulse	1	t		46.0	2.5	/experiments/knapen_AOT/AOT_stimuli/rescaled_final/0960_fw.mp4	0.0	255.09511590003967	
48	232.92631602287292	pulse	1	t		46.0	2.5	/experiments/knapen_AOT/AOT_stimuli/rescaled_final/0960_fw.mp4	0.0	256.69496989250183	
48	233.04303193092346	fix_post	2		12	46.0	2.5	/experiments/knapen_AOT/AOT_stimuli/rescaled_final/0960_fw.mp4	0.0	256.81168580055237	0.10002303123474121
49	233.1430549621582	fix_pre	0		120	47.0	2.5	blank	1.0	256.9117088317871	1.000133991241455
49	234.14318895339966	movie	1		299	47.0	2.5	blank	1.0	257.91184282302856	2.4920878410339355
49	234.52682495117188	pulse	1	t		47.0	2.5	blank	1.0	258.2954788208008	
49	236.12698984146118	pulse	1	t		47.0	2.5	blank	1.0	259.8956437110901	
49	236.6352767944336	fix_post	2		12	47.0	2.5	blank	1.0	260.4039306640625	0.09997200965881348
50	236.7352488040924	fix_pre	0		120	48.0	2.5	/experiments/knapen_AOT/AOT_stimuli/rescaled_final/0807_fw.mp4	0.0	260.5039026737213	1.0001389980316162
50	237.72740483283997	pulse	0	t		48.0	2.5	/experiments/knapen_AOT/AOT_stimuli/rescaled_final/0807_fw.mp4	0.0	261.4960587024689	
50	237.73538780212402	movie	1		244	48.0	2.5	/experiments/knapen_AOT/AOT_stimuli/rescaled_final/0807_fw.mp4	0.0	261.50404167175293	2.5087690353393555
50	239.32845401763916	pulse	1	t		48.0	2.5	/experiments/knapen_AOT/AOT_stimuli/rescaled_final/0807_fw.mp4	0.0	263.09710788726807	
50	240.24415683746338	fix_post	2		12	48.0	2.5	/experiments/knapen_AOT/AOT_stimuli/rescaled_final/0807_fw.mp4	0.0	264.0128107070923	0.09995603561401367
51	240.3441128730774	fix_pre	0		120	49.0	2.5	/experiments/knapen_AOT/AOT_stimuli/rescaled_final/1454_rv.mp4	0.0	264.1127667427063	1.0001869201660156
51	240.92775201797485	pulse	0	t		49.0	2.5	/experiments/knapen_AOT/AOT_stimuli/rescaled_final/1454_rv.mp4	0.0	264.69640588760376	
51	241.3442997932434	movie	1		245	49.0	2.5	/experiments/knapen_AOT/AOT_stimuli/rescaled_final/1454_rv.mp4	0.0	265.1129536628723	2.50032901763916
51	242.5280740261078	pulse	1	t		49.0	2.5	/experiments/knapen_AOT/AOT_stimuli/rescaled_final/1454_rv.mp4	0.0	266.2967278957367	
51	243.84462881088257	fix_post	2		12	49.0	2.5	/experiments/knapen_AOT/AOT_stimuli/rescaled_final/1454_rv.mp4	0.0	267.6132826805115	0.10003399848937988
52	243.94466280937195	fix_pre	0		120	50.0	2.5	/experiments/knapen_AOT/AOT_stimuli/rescaled_final/1860_fw.mp4	0.0	267.71331667900085	1.0001699924468994
52	244.1282868385315	pulse	0	t		50.0	2.5	/experiments/knapen_AOT/AOT_stimuli/rescaled_final/1860_fw.mp4	0.0	267.8969407081604	
52	244.94483280181885	movie	1		245	50.0	2.5	/experiments/knapen_AOT/AOT_stimuli/rescaled_final/1860_fw.mp4	0.0	268.71348667144775	2.5003621578216553
52	245.72859501838684	pulse	1	t		50.0	2.5	/experiments/knapen_AOT/AOT_stimuli/rescaled_final/1860_fw.mp4	0.0	269.49724888801575	
52	247.3288450241089	pulse	1	t		50.0	2.5	/experiments/knapen_AOT/AOT_stimuli/rescaled_final/1860_fw.mp4	0.0	271.0974988937378	
52	247.4451949596405	fix_post	2		12	50.0	2.5	/experiments/knapen_AOT/AOT_stimuli/rescaled_final/1860_fw.mp4	0.0	271.2138488292694	0.10004091262817383
53	247.54523587226868	fix_pre	0		120	51.0	2.5	/experiments/knapen_AOT/AOT_stimuli/rescaled_final/0274_rv.mp4	0.0	271.3138897418976	1.0001111030578613
53	248.54534697532654	movie	1		243	51.0	2.5	/experiments/knapen_AOT/AOT_stimuli/rescaled_final/0274_rv.mp4	0.0	272.31400084495544	2.4920358657836914
53	248.93009495735168	pulse	1	t		51.0	2.5	/experiments/knapen_AOT/AOT_stimuli/rescaled_final/0274_rv.mp4	0.0	272.6987488269806	
53	250.52928400039673	pulse	1	t		51.0	2.5	/experiments/knapen_AOT/AOT_stimuli/rescaled_final/0274_rv.mp4	0.0	274.29793787002563	
53	251.03738284111023	fix_post	2		12	51.0	2.5	/experiments/knapen_AOT/AOT_stimuli/rescaled_final/0274_rv.mp4	0.0	274.80603671073914	0.10004210472106934
54	251.1374249458313	fix_pre	0		120	52.0	2.5	/experiments/knapen_AOT/AOT_stimuli/rescaled_final/1705_rv.mp4	0.0	274.9060788154602	1.0001509189605713
54	252.12937998771667	pulse	0	t		52.0	2.5	/experiments/knapen_AOT/AOT_stimuli/rescaled_final/1705_rv.mp4	0.0	275.8980338573456	
54	252.13757586479187	movie	1		245	52.0	2.5	/experiments/knapen_AOT/AOT_stimuli/rescaled_final/1705_rv.mp4	0.0	275.9062297344208	2.508687973022461
54	253.73073601722717	pulse	1	t		52.0	2.5	/experiments/knapen_AOT/AOT_stimuli/rescaled_final/1705_rv.mp4	0.0	277.4993898868561	
54	254.64626383781433	fix_post	2		12	52.0	2.5	/experiments/knapen_AOT/AOT_stimuli/rescaled_final/1705_rv.mp4	0.0	278.41491770744324	0.10007715225219727
55	254.74634099006653	fix_pre	0		120	53.0	2.5	/experiments/knapen_AOT/AOT_stimuli/rescaled_final/1708_fw.mp4	0.0	278.51499485969543	1.0000879764556885
55	255.32988691329956	pulse	0	t		53.0	2.5	/experiments/knapen_AOT/AOT_stimuli/rescaled_final/1708_fw.mp4	0.0	279.09854078292847	
55	255.74642896652222	movie	1		244	53.0	2.5	/experiments/knapen_AOT/AOT_stimuli/rescaled_final/1708_fw.mp4	0.0	279.5150828361511	2.5003650188446045
55	256.9301760196686	pulse	1	t		53.0	2.5	/experiments/knapen_AOT/AOT_stimuli/rescaled_final/1708_fw.mp4	0.0	280.6988298892975	
55	258.2467939853668	fix_post	2		12	53.0	2.5	/experiments/knapen_AOT/AOT_stimuli/rescaled_final/1708_fw.mp4	0.0	282.0154478549957	0.10000395774841309
56	258.34679794311523	fix_pre	0		120	54.0	2.5	/experiments/knapen_AOT/AOT_stimuli/rescaled_final/0480_fw.mp4	0.0	282.11545181274414	1.0001609325408936
56	258.53046202659607	pulse	0	t		54.0	2.5	/experiments/knapen_AOT/AOT_stimuli/rescaled_final/0480_fw.mp4	0.0	282.299115896225	
56	259.3469588756561	movie	1		245	54.0	2.5	/experiments/knapen_AOT/AOT_stimuli/rescaled_final/0480_fw.mp4	0.0	283.11561274528503	2.500369071960449
56	260.1307179927826	pulse	1	t		54.0	2.5	/experiments/knapen_AOT/AOT_stimuli/rescaled_final/0480_fw.mp4	0.0	283.8993718624115	
56	261.7284858226776	pulse	1	t		54.0	2.5	/experiments/knapen_AOT/AOT_stimuli/rescaled_final/0480_fw.mp4	0.0	285.4971396923065	
56	261.8473279476166	fix_post	2		12	54.0	2.5	/experiments/knapen_AOT/AOT_stimuli/rescaled_final/0480_fw.mp4	0.0	285.6159818172455	0.10004305839538574
57	261.94737100601196	fix_pre	0		120	55.0	2.5	blank	1.0	285.71602487564087	1.0001189708709717
57	262.94748997688293	movie	1		299	55.0	2.5	blank	1.0	286.71614384651184	2.4920499324798584
57	263.33105993270874	pulse	1	t		55.0	2.5	blank	1.0	287.09971380233765	
57	264.9313008785248	pulse	1	t		55.0	2.5	blank	1.0	288.6999547481537	
57	265.4395399093628	fix_post	2		12	55.0	2.5	blank	1.0	289.2081937789917	0.09999990463256836
58	265.53953981399536	fix_pre	0		120	56.0	2.5	/experiments/knapen_AOT/AOT_stimuli/rescaled_final/1469_fw.mp4	0.0	289.30819368362427	1.000143051147461
58	266.5315899848938	pulse	0	t		56.0	2.5	/experiments/knapen_AOT/AOT_stimuli/rescaled_final/1469_fw.mp4	0.0	290.3002438545227	
58	266.5396828651428	movie	1		244	56.0	2.5	/experiments/knapen_AOT/AOT_stimuli/rescaled_final/1469_fw.mp4	0.0	290.30833673477173	2.5087170600891113
58	268.13247299194336	pulse	1	t		56.0	2.5	/experiments/knapen_AOT/AOT_stimuli/rescaled_final/1469_fw.mp4	0.0	291.90112686157227	
58	269.04839992523193	fix_post	2		12	56.0	2.5	/experiments/knapen_AOT/AOT_stimuli/rescaled_final/1469_fw.mp4	0.0	292.81705379486084	0.10006308555603027
59	269.14846301078796	fix_pre	0		120	57.0	2.5	/experiments/knapen_AOT/AOT_stimuli/rescaled_final/1449_rv.mp4	0.0	292.91711688041687	1.000079870223999
59	269.73202896118164	pulse	0	t		57.0	2.5	/experiments/knapen_AOT/AOT_stimuli/rescaled_final/1449_rv.mp4	0.0	293.50068283081055	
59	270.14854288101196	movie	1		245	57.0	2.5	/experiments/knapen_AOT/AOT_stimuli/rescaled_final/1449_rv.mp4	0.0	293.91719675064087	2.5003750324249268
59	271.32525086402893	pulse	1	t		57.0	2.5	/experiments/knapen_AOT/AOT_stimuli/rescaled_final/1449_rv.mp4	0.0	295.09390473365784	
59	272.6489179134369	fix_post	2		12	57.0	2.5	/experiments/knapen_AOT/AOT_stimuli/rescaled_final/1449_rv.mp4	0.0	296.4175717830658	0.10007500648498535
60	272.7489929199219	fix_pre	0		120	58.0	2.5	/experiments/knapen_AOT/AOT_stimuli/rescaled_final/2078_fw.mp4	0.0	296.5176467895508	1.0001270771026611
60	272.925155878067	pulse	0	t		58.0	2.5	/experiments/knapen_AOT/AOT_stimuli/rescaled_final/2078_fw.mp4	0.0	296.6938097476959	
60	273.74911999702454	movie	1		243	58.0	2.5	/experiments/knapen_AOT/AOT_stimuli/rescaled_final/2078_fw.mp4	0.0	297.51777386665344	2.5004420280456543
60	274.52541184425354	pulse	1	t		58.0	2.5	/experiments/knapen_AOT/AOT_stimuli/rescaled_final/2078_fw.mp4	0.0	298.29406571388245	
60	276.13316893577576	pulse	1	t		58.0	2.5	/experiments/knapen_AOT/AOT_stimuli/rescaled_final/2078_fw.mp4	0.0	299.90182280540466	
60	276.2495620250702	fix_post	2		12	58.0	2.5	/experiments/knapen_AOT/AOT_stimuli/rescaled_final/2078_fw.mp4	0.0	300.0182158946991	0.09995794296264648
61	276.34951996803284	fix_pre	0		120	59.0	2.5	/experiments/knapen_AOT/AOT_stimuli/rescaled_final/0254_rv.mp4	0.0	300.11817383766174	1.0001258850097656
61	277.3496458530426	movie	1		244	59.0	2.5	/experiments/knapen_AOT/AOT_stimuli/rescaled_final/0254_rv.mp4	0.0	301.1182997226715	2.4920029640197754
61	277.7337908744812	pulse	1	t		59.0	2.5	/experiments/knapen_AOT/AOT_stimuli/rescaled_final/0254_rv.mp4	0.0	301.5024447441101	
61	279.32532000541687	pulse	1	t		59.0	2.5	/experiments/knapen_AOT/AOT_stimuli/rescaled_final/0254_rv.mp4	0.0	303.0939738750458	
61	279.8416488170624	fix_post	2		12	59.0	2.5	/experiments/knapen_AOT/AOT_stimuli/rescaled_final/0254_rv.mp4	0.0	303.6103026866913	0.10004305839538574
62	279.94169187545776	fix_pre	0		119	60.0	2.5	/experiments/knapen_AOT/AOT_stimuli/rescaled_final/0914_rv.mp4	0.0	303.71034574508667	0.9918670654296875
62	280.9253349304199	pulse	0	t		60.0	2.5	/experiments/knapen_AOT/AOT_stimuli/rescaled_final/0914_rv.mp4	0.0	304.6939888000488	
62	280.93355894088745	movie	1		247	60.0	2.5	/experiments/knapen_AOT/AOT_stimuli/rescaled_final/0914_rv.mp4	0.0	304.70221281051636	2.508661985397339
62	282.5286350250244	pulse	1	t		60.0	2.5	/experiments/knapen_AOT/AOT_stimuli/rescaled_final/0914_rv.mp4	0.0	306.2972888946533	
62	283.4422209262848	fix_post	2		12	60.0	2.5	/experiments/knapen_AOT/AOT_stimuli/rescaled_final/0914_rv.mp4	0.0	307.2108747959137	0.1000070571899414
63	283.54222798347473	fix_pre	0		118	61.0	2.5	/experiments/knapen_AOT/AOT_stimuli/rescaled_final/0760_rv.mp4	0.0	307.31088185310364	1.0001659393310547
63	284.1258738040924	pulse	0	t		61.0	2.5	/experiments/knapen_AOT/AOT_stimuli/rescaled_final/0760_rv.mp4	0.0	307.8945276737213	
63	284.5423939228058	movie	1		245	61.0	2.5	/experiments/knapen_AOT/AOT_stimuli/rescaled_final/0760_rv.mp4	0.0	308.3110477924347	2.500365972518921
63	285.7261838912964	pulse	1	t		61.0	2.5	/experiments/knapen_AOT/AOT_stimuli/rescaled_final/0760_rv.mp4	0.0	309.4948377609253	
63	287.0427598953247	fix_post	2		12	61.0	2.5	/experiments/knapen_AOT/AOT_stimuli/rescaled_final/0760_rv.mp4	0.0	310.8114137649536	0.10001206398010254
64	287.1427719593048	fix_pre	0		120	62.0	2.5	/experiments/knapen_AOT/AOT_stimuli/rescaled_final/1981_fw.mp4	0.0	310.9114258289337	1.0001749992370605
64	287.32639598846436	pulse	0	t		62.0	2.5	/experiments/knapen_AOT/AOT_stimuli/rescaled_final/1981_fw.mp4	0.0	311.09504985809326	
64	288.14294695854187	movie	1		244	62.0	2.5	/experiments/knapen_AOT/AOT_stimuli/rescaled_final/1981_fw.mp4	0.0	311.9116008281708	2.5003418922424316
64	288.92662501335144	pulse	1	t		62.0	2.5	/experiments/knapen_AOT/AOT_stimuli/rescaled_final/1981_fw.mp4	0.0	312.69527888298035	
64	290.5270428657532	pulse	1	t		62.0	2.5	/experiments/knapen_AOT/AOT_stimuli/rescaled_final/1981_fw.mp4	0.0	314.2956967353821	
64	290.6432888507843	fix_post	2		12	62.0	2.5	/experiments/knapen_AOT/AOT_stimuli/rescaled_final/1981_fw.mp4	0.0	314.4119427204132	0.10007810592651367
65	290.7433669567108	fix_pre	0		120	63.0	2.5	blank	1.0	314.5120208263397	1.0001220703125
65	291.7434890270233	movie	1		299	63.0	2.5	blank	1.0	315.5121428966522	2.4919888973236084
65	292.1270408630371	pulse	1	t		63.0	2.5	blank	1.0	315.895694732666	
65	293.7273199558258	pulse	1	t		63.0	2.5	blank	1.0	317.4959738254547	
65	294.2354779243469	fix_post	2		12	63.0	2.5	blank	1.0	318.00413179397583	0.1001288890838623
66	294.3356068134308	fix_pre	0		120	64.0	2.5	/experiments/knapen_AOT/AOT_stimuli/rescaled_final/0483_rv.mp4	0.0	318.1042606830597	1.000087022781372
66	295.3275399208069	pulse	0	t		64.0	2.5	/experiments/knapen_AOT/AOT_stimuli/rescaled_final/0483_rv.mp4	0.0	319.0961937904358	
66	295.33569383621216	movie	1		245	64.0	2.5	/experiments/knapen_AOT/AOT_stimuli/rescaled_final/0483_rv.mp4	0.0	319.10434770584106	2.5086381435394287
66	296.92842984199524	pulse	1	t		64.0	2.5	/experiments/knapen_AOT/AOT_stimuli/rescaled_final/0483_rv.mp4	0.0	320.69708371162415	
66	297.8443319797516	fix_post	2		12	64.0	2.5	/experiments/knapen_AOT/AOT_stimuli/rescaled_final/0483_rv.mp4	0.0	321.6129858493805	0.10004401206970215
67	297.9443759918213	fix_pre	0		120	65.0	2.5	/experiments/knapen_AOT/AOT_stimuli/rescaled_final/0510_fw.mp4	0.0	321.7130298614502	1.0002000331878662
67	298.52798080444336	pulse	0	t		65.0	2.5	/experiments/knapen_AOT/AOT_stimuli/rescaled_final/0510_fw.mp4	0.0	322.29663467407227	
67	298.94457602500916	movie	1		245	65.0	2.5	/experiments/knapen_AOT/AOT_stimuli/rescaled_final/0510_fw.mp4	0.0	322.71322989463806	2.500335931777954
67	300.12843894958496	pulse	1	t		65.0	2.5	/experiments/knapen_AOT/AOT_stimuli/rescaled_final/0510_fw.mp4	0.0	323.89709281921387	
67	301.4449119567871	fix_post	2		12	65.0	2.5	/experiments/knapen_AOT/AOT_stimuli/rescaled_final/0510_fw.mp4	0.0	325.213565826416	0.10001802444458008
68	301.5449299812317	fix_pre	0		120	66.0	2.5	/experiments/knapen_AOT/AOT_stimuli/rescaled_final/0274_fw.mp4	0.0	325.3135838508606	1.0001540184020996
68	301.7285599708557	pulse	0	t		66.0	2.5	/experiments/knapen_AOT/AOT_stimuli/rescaled_final/0274_fw.mp4	0.0	325.4972138404846	
68	302.5450839996338	movie	1		245	66.0	2.5	/experiments/knapen_AOT/AOT_stimuli/rescaled_final/0274_fw.mp4	0.0	326.3137378692627	2.5003738403320312
68	303.3287978172302	pulse	1	t		66.0	2.5	/experiments/knapen_AOT/AOT_stimuli/rescaled_final/0274_fw.mp4	0.0	327.09745168685913	
68	304.929123878479	pulse	1	t		66.0	2.5	/experiments/knapen_AOT/AOT_stimuli/rescaled_final/0274_fw.mp4	0.0	328.6977777481079	
68	305.0454578399658	fix_post	2		12	66.0	2.5	/experiments/knapen_AOT/AOT_stimuli/rescaled_final/0274_fw.mp4	0.0	328.8141117095947	0.10001516342163086
69	305.14547300338745	fix_pre	0		120	67.0	2.5	/experiments/knapen_AOT/AOT_stimuli/rescaled_final/1728_rv.mp4	0.0	328.91412687301636	1.0001299381256104
69	306.14560294151306	movie	1		244	67.0	2.5	/experiments/knapen_AOT/AOT_stimuli/rescaled_final/1728_rv.mp4	0.0	329.91425681114197	2.492021083831787
69	306.53044295310974	pulse	1	t		67.0	2.5	/experiments/knapen_AOT/AOT_stimuli/rescaled_final/1728_rv.mp4	0.0	330.29909682273865	
69	308.1294867992401	pulse	1	t		67.0	2.5	/experiments/knapen_AOT/AOT_stimuli/rescaled_final/1728_rv.mp4	0.0	331.898140668869	
69	308.63762402534485	fix_post	2		12	67.0	2.5	/experiments/knapen_AOT/AOT_stimuli/rescaled_final/1728_rv.mp4	0.0	332.40627789497375	0.10004377365112305
70	308.737667798996	fix_pre	0		120	68.0	2.5	blank	1.0	332.5063216686249	1.0001192092895508
70	309.72973680496216	pulse	0	t		68.0	2.5	blank	1.0	333.49839067459106	
70	309.7377870082855	movie	1		301	68.0	2.5	blank	1.0	333.50644087791443	2.5087478160858154
70	311.3299458026886	pulse	1	t		68.0	2.5	blank	1.0	335.0985996723175	
70	312.24653482437134	fix_post	2		12	68.0	2.5	blank	1.0	336.01518869400024	0.09996604919433594
71	312.3465008735657	fix_pre	0		120	69.0	2.5	/experiments/knapen_AOT/AOT_stimuli/rescaled_final/1607_fw.mp4	0.0	336.1151547431946	1.0001721382141113
71	312.93017983436584	pulse	0	t		69.0	2.5	/experiments/knapen_AOT/AOT_stimuli/rescaled_final/1607_fw.mp4	0.0	336.69883370399475	
71	313.3466730117798	movie	1		246	69.0	2.5	/experiments/knapen_AOT/AOT_stimuli/rescaled_final/1607_fw.mp4	0.0	337.1153268814087	2.5004818439483643
71	314.53053092956543	pulse	1	t		69.0	2.5	/experiments/knapen_AOT/AOT_stimuli/rescaled_final/1607_fw.mp4	0.0	338.29918479919434	
71	315.84715485572815	fix_post	2		12	69.0	2.5	/experiments/knapen_AOT/AOT_stimuli/rescaled_final/1607_fw.mp4	0.0	339.61580872535706	0.09990096092224121
72	315.9470558166504	fix_pre	0		120	70.0	2.5	/experiments/knapen_AOT/AOT_stimuli/rescaled_final/0803_rv.mp4	0.0	339.7157096862793	1.0002319812774658
72	316.1306908130646	pulse	0	t		70.0	2.5	/experiments/knapen_AOT/AOT_stimuli/rescaled_final/0803_rv.mp4	0.0	339.8993446826935	
72	316.94728779792786	movie	1		244	70.0	2.5	/experiments/knapen_AOT/AOT_stimuli/rescaled_final/0803_rv.mp4	0.0	340.71594166755676	2.5002880096435547
72	317.7308249473572	pulse	1	t		70.0	2.5	/experiments/knapen_AOT/AOT_stimuli/rescaled_final/0803_rv.mp4	0.0	341.4994788169861	
72	319.3311769962311	pulse	1	t		70.0	2.5	/experiments/knapen_AOT/AOT_stimuli/rescaled_final/0803_rv.mp4	0.0	343.09983086586	
72	319.4475758075714	fix_post	2		12	70.0	2.5	/experiments/knapen_AOT/AOT_stimuli/rescaled_final/0803_rv.mp4	0.0	343.2162296772003	0.10002803802490234
73	319.5476038455963	fix_pre	0		119	71.0	2.5	/experiments/knapen_AOT/AOT_stimuli/rescaled_final/0629_rv.mp4	0.0	343.3162577152252	0.9919431209564209
73	320.53954696655273	movie	1		246	71.0	2.5	/experiments/knapen_AOT/AOT_stimuli/rescaled_final/0629_rv.mp4	0.0	344.30820083618164	2.500227928161621
73	320.93148398399353	pulse	1	t		71.0	2.5	/experiments/knapen_AOT/AOT_stimuli/rescaled_final/0629_rv.mp4	0.0	344.70013785362244	
73	322.53173089027405	pulse	1	t		71.0	2.5	/experiments/knapen_AOT/AOT_stimuli/rescaled_final/0629_rv.mp4	0.0	346.30038475990295	
73	323.03977489471436	fix_post	2		12	71.0	2.5	/experiments/knapen_AOT/AOT_stimuli/rescaled_final/0629_rv.mp4	0.0	346.80842876434326	0.10001301765441895
74	323.1397879123688	fix_pre	0		120	72.0	2.5	/experiments/knapen_AOT/AOT_stimuli/rescaled_final/1258_rv.mp4	0.0	346.9084417819977	1.0002288818359375
74	324.13184690475464	pulse	0	t		72.0	2.5	/experiments/knapen_AOT/AOT_stimuli/rescaled_final/1258_rv.mp4	0.0	347.90050077438354	
74	324.1400167942047	movie	1		246	72.0	2.5	/experiments/knapen_AOT/AOT_stimuli/rescaled_final/1258_rv.mp4	0.0	347.9086706638336	2.508650064468384
74	325.73272800445557	pulse	1	t		72.0	2.5	/experiments/knapen_AOT/AOT_stimuli/rescaled_final/1258_rv.mp4	0.0	349.5013818740845	
74	326.6486668586731	fix_post	2		12	72.0	2.5	/experiments/knapen_AOT/AOT_stimuli/rescaled_final/1258_rv.mp4	0.0	350.417320728302	0.10000801086425781
75	326.74867486953735	fix_pre	0		120	73.0	2.5	/experiments/knapen_AOT/AOT_stimuli/rescaled_final/0893_rv.mp4	0.0	350.51732873916626	1.0001311302185059
75	327.32471990585327	pulse	0	t		73.0	2.5	/experiments/knapen_AOT/AOT_stimuli/rescaled_final/0893_rv.mp4	0.0	351.0933737754822	
75	327.74880599975586	movie	1		244	73.0	2.5	/experiments/knapen_AOT/AOT_stimuli/rescaled_final/0893_rv.mp4	0.0	351.51745986938477	2.5003809928894043
75	328.92547488212585	pulse	1	t		73.0	2.5	/experiments/knapen_AOT/AOT_stimuli/rescaled_final/0893_rv.mp4	0.0	352.69412875175476	
75	330.24918699264526	fix_post	2		12	73.0	2.5	/experiments/knapen_AOT/AOT_stimuli/rescaled_final/0893_rv.mp4	0.0	354.01784086227417	0.10001397132873535
76	330.349200963974	fix_pre	0		120	74.0	2.5	/experiments/knapen_AOT/AOT_stimuli/rescaled_final/1606_rv.mp4	0.0	354.1178548336029	1.0001499652862549
76	330.52539587020874	pulse	0	t		74.0	2.5	/experiments/knapen_AOT/AOT_stimuli/rescaled_final/1606_rv.mp4	0.0	354.29404973983765	
76	331.34935092926025	movie	1		244	74.0	2.5	/experiments/knapen_AOT/AOT_stimuli/rescaled_final/1606_rv.mp4	0.0	355.11800479888916	2.5003859996795654
76	332.1254839897156	pulse	1	t		74.0	2.5	/experiments/knapen_AOT/AOT_stimuli/rescaled_final/1606_rv.mp4	0.0	355.8941378593445	
76	333.72487688064575	pulse	1	t		74.0	2.5	/experiments/knapen_AOT/AOT_stimuli/rescaled_final/1606_rv.mp4	0.0	357.49353075027466	
76	333.8497369289398	fix_post	2		12	74.0	2.5	/experiments/knapen_AOT/AOT_stimuli/rescaled_final/1606_rv.mp4	0.0	357.6183907985687	0.10003900527954102
77	333.94977593421936	fix_pre	0		119	75.0	2.5	/experiments/knapen_AOT/AOT_stimuli/rescaled_final/0250_rv.mp4	0.0	357.71842980384827	0.9917969703674316
77	334.9415729045868	movie	1		246	75.0	2.5	/experiments/knapen_AOT/AOT_stimuli/rescaled_final/0250_rv.mp4	0.0	358.7102267742157	2.5003390312194824
77	335.3256850242615	pulse	1	t		75.0	2.5	/experiments/knapen_AOT/AOT_stimuli/rescaled_final/0250_rv.mp4	0.0	359.0943388938904	
77	336.9254298210144	pulse	1	t		75.0	2.5	/experiments/knapen_AOT/AOT_stimuli/rescaled_final/0250_rv.mp4	0.0	360.6940836906433	
77	337.4419119358063	fix_post	2		12	75.0	2.5	/experiments/knapen_AOT/AOT_stimuli/rescaled_final/0250_rv.mp4	0.0	361.2105658054352	0.10003805160522461
78	337.5419499874115	fix_pre	0		119	76.0	2.5	/experiments/knapen_AOT/AOT_stimuli/rescaled_final/2129_rv.mp4	0.0	361.3106038570404	0.9918088912963867
78	338.5257480144501	pulse	0	t		76.0	2.5	/experiments/knapen_AOT/AOT_stimuli/rescaled_final/2129_rv.mp4	0.0	362.294401884079	
78	338.5337588787079	movie	1		245	76.0	2.5	/experiments/knapen_AOT/AOT_stimuli/rescaled_final/2129_rv.mp4	0.0	362.3024127483368	2.5087881088256836
78	340.1270318031311	pulse	1	t		76.0	2.5	/experiments/knapen_AOT/AOT_stimuli/rescaled_final/2129_rv.mp4	0.0	363.89568567276	
78	341.04254698753357	fix_post	2		12	76.0	2.5	/experiments/knapen_AOT/AOT_stimuli/rescaled_final/2129_rv.mp4	0.0	364.8112008571625	0.09993386268615723
79	341.1424808502197	fix_pre	0		120	77.0	2.5	blank	1.0	364.91113471984863	1.0001611709594727
79	341.72614002227783	pulse	0	t		77.0	2.5	blank	1.0	365.49479389190674	
79	342.1426420211792	movie	1		300	77.0	2.5	blank	1.0	365.9112958908081	2.5003678798675537
79	343.32634592056274	pulse	1	t		77.0	2.5	blank	1.0	367.09499979019165	
79	344.64300990104675	fix_post	2		12	77.0	2.5	blank	1.0	368.41166377067566	0.10008907318115234
80	344.7430989742279	fix_pre	0		117	78.0	2.5	/experiments/knapen_AOT/AOT_stimuli/rescaled_final/0319_fw.mp4	0.0	368.5117528438568	1.0000829696655273
80	344.9266908168793	pulse	0	t		78.0	2.5	/experiments/knapen_AOT/AOT_stimuli/rescaled_final/0319_fw.mp4	0.0	368.6953446865082	
80	345.74318194389343	movie	1		244	78.0	2.5	/experiments/knapen_AOT/AOT_stimuli/rescaled_final/0319_fw.mp4	0.0	369.51183581352234	2.5004379749298096
80	346.52686190605164	pulse	1	t		78.0	2.5	/experiments/knapen_AOT/AOT_stimuli/rescaled_final/0319_fw.mp4	0.0	370.29551577568054	
80	348.12714099884033	pulse	1	t		78.0	2.5	/experiments/knapen_AOT/AOT_stimuli/rescaled_final/0319_fw.mp4	0.0	371.89579486846924	
80	348.24361991882324	fix_post	2		12	78.0	2.5	/experiments/knapen_AOT/AOT_stimuli/rescaled_final/0319_fw.mp4	0.0	372.01227378845215	0.09992289543151855
81	348.34354281425476	fix_pre	0		120	79.0	2.5	/experiments/knapen_AOT/AOT_stimuli/rescaled_final/0945_fw.mp4	0.0	372.11219668388367	1.0001351833343506
81	349.3436779975891	movie	1		243	79.0	2.5	/experiments/knapen_AOT/AOT_stimuli/rescaled_final/0945_fw.mp4	0.0	373.112331867218	2.4920578002929688
81	349.72774291038513	pulse	1	t		79.0	2.5	/experiments/knapen_AOT/AOT_stimuli/rescaled_final/0945_fw.mp4	0.0	373.49639678001404	
81	351.327654838562	pulse	1	t		79.0	2.5	/experiments/knapen_AOT/AOT_stimuli/rescaled_final/0945_fw.mp4	0.0	375.0963087081909	
81	351.8357357978821	fix_post	2		12	79.0	2.5	/experiments/knapen_AOT/AOT_stimuli/rescaled_final/0945_fw.mp4	0.0	375.604389667511	0.10004210472106934
82	351.93577790260315	fix_pre	0		120	80.0	2.5	/experiments/knapen_AOT/AOT_stimuli/rescaled_final/0329_fw.mp4	0.0	375.70443177223206	1.0001230239868164
82	352.92784786224365	pulse	0	t		80.0	2.5	/experiments/knapen_AOT/AOT_stimuli/rescaled_final/0329_fw.mp4	0.0	376.69650173187256	
82	352.93590092658997	movie	1		245	80.0	2.5	/experiments/knapen_AOT/AOT_stimuli/rescaled_final/0329_fw.mp4	0.0	376.7045547962189	2.5086898803710938
82	354.5293040275574	pulse	1	t		80.0	2.5	/experiments/knapen_AOT/AOT_stimuli/rescaled_final/0329_fw.mp4	0.0	378.2979578971863	
82	355.44459080696106	fix_post	2		12	80.0	2.5	/experiments/knapen_AOT/AOT_stimuli/rescaled_final/0329_fw.mp4	0.0	379.21324467658997	0.10003304481506348
83	355.5446238517761	fix_pre	0		120	81.0	2.5	/experiments/knapen_AOT/AOT_stimuli/rescaled_final/0506_fw.mp4	0.0	379.31327772140503	1.0001440048217773
83	356.12829089164734	pulse	0	t		81.0	2.5	/experiments/knapen_AOT/AOT_stimuli/rescaled_final/0506_fw.mp4	0.0	379.89694476127625	
83	356.5447678565979	movie	1		244	81.0	2.5	/experiments/knapen_AOT/AOT_stimuli/rescaled_final/0506_fw.mp4	0.0	380.3134217262268	2.500373125076294
83	357.72865200042725	pulse	1	t		81.0	2.5	/experiments/knapen_AOT/AOT_stimuli/rescaled_final/0506_fw.mp4	0.0	381.49730587005615	
83	359.0451409816742	fix_post	2		12	81.0	2.5	/experiments/knapen_AOT/AOT_stimuli/rescaled_final/0506_fw.mp4	0.0	382.8137948513031	0.10011601448059082
84	359.1452569961548	fix_pre	0		120	82.0	2.5	/experiments/knapen_AOT/AOT_stimuli/rescaled_final/1341_rv.mp4	0.0	382.9139108657837	1.000053882598877
84	359.3287789821625	pulse	0	t		82.0	2.5	/experiments/knapen_AOT/AOT_stimuli/rescaled_final/1341_rv.mp4	0.0	383.0974328517914	
84	360.14531087875366	movie	1		244	82.0	2.5	/experiments/knapen_AOT/AOT_stimuli/rescaled_final/1341_rv.mp4	0.0	383.91396474838257	2.500380039215088
84	360.92891693115234	pulse	1	t		82.0	2.5	/experiments/knapen_AOT/AOT_stimuli/rescaled_final/1341_rv.mp4	0.0	384.69757080078125	
84	362.5293300151825	pulse	1	t		82.0	2.5	/experiments/knapen_AOT/AOT_stimuli/rescaled_final/1341_rv.mp4	0.0	386.2979838848114	
84	362.64569091796875	fix_post	2		12	82.0	2.5	/experiments/knapen_AOT/AOT_stimuli/rescaled_final/1341_rv.mp4	0.0	386.41434478759766	0.1000208854675293
85	362.7457118034363	fix_pre	0		120	83.0	2.5	blank	1.0	386.5143656730652	1.0001192092895508
85	363.74583101272583	movie	1		299	83.0	2.5	blank	1.0	387.51448488235474	2.4920740127563477
85	364.1295177936554	pulse	1	t		83.0	2.5	blank	1.0	387.8981716632843	
85	365.72978496551514	pulse	1	t		83.0	2.5	blank	1.0	389.49843883514404	
85	366.2379050254822	fix_post	2		12	83.0	2.5	blank	1.0	390.0065588951111	0.09999394416809082
87	366.33789896965027	stim	0		1716					390.1065528392792	14.302275896072388
87	367.32997584342957	pulse	0	t						391.0986297130585	
87	368.9301598072052	pulse	0	t						392.6988136768341	
87	370.53049182891846	pulse	0	t						394.29914569854736	
87	372.130667924881	pulse	0	t						395.8993217945099	
87	373.73088788986206	pulse	0	t						397.49954175949097	
87	375.3311598300934	pulse	0	t						399.0998136997223	
87	376.9313688278198	pulse	0	t						400.70002269744873	
87	378.53157782554626	pulse	0	t						402.30023169517517	
87	380.1317858695984	pulse	0	t						403.9004397392273	
