trial_nr	onset	event_type	phase	response	nr_frames	movie_index	movie_duration	movie_file	blank	onset_abs	duration
0	0.20821118354797363	stim	0		106					24.86068320274353	0.8833270072937012
0	1.076301097869873	response	0	space						25.72877311706543	
1	1.0915381908416748	stim	0		4667					25.74401021003723	38.908071994781494
1	39.9895441532135	pulse	0	t						64.64201617240906	
1	39.99961018562317	stim	1		1715					64.65208220481873	14.299875020980835
1	41.58116006851196	pulse	1	t						66.23363208770752	
1	43.18144917488098	pulse	1	t						67.83392119407654	
1	44.78150916099548	pulse	1	t						69.43398118019104	
1	46.381890058517456	pulse	1	t						71.03436207771301	
1	47.98203921318054	pulse	1	t						72.6345112323761	
1	49.58225202560425	pulse	1	t						74.2347240447998	
1	51.1824951171875	pulse	1	t						75.83496713638306	
1	52.78287410736084	pulse	1	t						77.4353461265564	
2	54.299485206604004	fix_pre	0		11	0.0	2.5	/experiments/knapen_AOT/AOT_stimuli/rescaled_final/1497_rv.mp4	0.0	78.95195722579956	0.09163880348205566
2	54.38307499885559	pulse	0	t		0.0	2.5	/experiments/knapen_AOT/AOT_stimuli/rescaled_final/1497_rv.mp4	0.0	79.03554701805115	
2	54.39112401008606	movie	1		245	0.0	2.5	/experiments/knapen_AOT/AOT_stimuli/rescaled_final/1497_rv.mp4	0.0	79.04359602928162	2.5087761878967285
2	55.98768901824951	pulse	1	t		0.0	2.5	/experiments/knapen_AOT/AOT_stimuli/rescaled_final/1497_rv.mp4	0.0	80.64016103744507	
2	56.89990019798279	fix_post	2		12	0.0	2.5	/experiments/knapen_AOT/AOT_stimuli/rescaled_final/1497_rv.mp4	0.0	81.55237221717834	0.09997296333312988
3	56.99987316131592	fix_pre	0		120	1.0	2.5	/experiments/knapen_AOT/AOT_stimuli/rescaled_final/0260_rv.mp4	0.0	81.65234518051147	1.0001718997955322
3	57.58344221115112	pulse	0	t		1.0	2.5	/experiments/knapen_AOT/AOT_stimuli/rescaled_final/0260_rv.mp4	0.0	82.23591423034668	
3	58.00004506111145	movie	1		246	1.0	2.5	/experiments/knapen_AOT/AOT_stimuli/rescaled_final/0260_rv.mp4	0.0	82.652517080307	2.500333070755005
3	59.1839120388031	pulse	1	t		1.0	2.5	/experiments/knapen_AOT/AOT_stimuli/rescaled_final/0260_rv.mp4	0.0	83.83638405799866	
3	60.500378131866455	fix_post	2		12	1.0	2.5	/experiments/knapen_AOT/AOT_stimuli/rescaled_final/0260_rv.mp4	0.0	85.15285015106201	0.09999489784240723
4	60.60037302970886	fix_pre	0		120	2.0	2.5	/experiments/knapen_AOT/AOT_stimuli/rescaled_final/1695_fw.mp4	0.0	85.25284504890442	1.0002140998840332
4	60.78405022621155	pulse	0	t		2.0	2.5	/experiments/knapen_AOT/AOT_stimuli/rescaled_final/1695_fw.mp4	0.0	85.4365222454071	
4	61.600587129592896	movie	1		244	2.0	2.5	/experiments/knapen_AOT/AOT_stimuli/rescaled_final/1695_fw.mp4	0.0	86.25305914878845	2.5003578662872314
4	62.384223222732544	pulse	1	t		2.0	2.5	/experiments/knapen_AOT/AOT_stimuli/rescaled_final/1695_fw.mp4	0.0	87.0366952419281	
4	63.98794603347778	pulse	1	t		2.0	2.5	/experiments/knapen_AOT/AOT_stimuli/rescaled_final/1695_fw.mp4	0.0	88.64041805267334	
4	64.10094499588013	fix_post	2		12	2.0	2.5	/experiments/knapen_AOT/AOT_stimuli/rescaled_final/1695_fw.mp4	0.0	88.75341701507568	0.09997820854187012
5	64.200923204422	fix_pre	0		120	3.0	2.5	/experiments/knapen_AOT/AOT_stimuli/rescaled_final/1327_rv.mp4	0.0	88.85339522361755	1.001037836074829
5	65.20196104049683	movie	1		240	3.0	2.5	/experiments/knapen_AOT/AOT_stimuli/rescaled_final/1327_rv.mp4	0.0	89.85443305969238	2.491227149963379
5	65.589280128479	pulse	1	t		3.0	2.5	/experiments/knapen_AOT/AOT_stimuli/rescaled_final/1327_rv.mp4	0.0	90.24175214767456	
5	67.18505620956421	pulse	1	t		3.0	2.5	/experiments/knapen_AOT/AOT_stimuli/rescaled_final/1327_rv.mp4	0.0	91.83752822875977	
5	67.6931881904602	fix_post	2		12	3.0	2.5	/experiments/knapen_AOT/AOT_stimuli/rescaled_final/1327_rv.mp4	0.0	92.34566020965576	0.09996891021728516
6	67.79315710067749	fix_pre	0		120	4.0	2.5	/experiments/knapen_AOT/AOT_stimuli/rescaled_final/2018_rv.mp4	0.0	92.44562911987305	1.0001509189605713
6	68.78519010543823	pulse	0	t		4.0	2.5	/experiments/knapen_AOT/AOT_stimuli/rescaled_final/2018_rv.mp4	0.0	93.43766212463379	
6	68.79330801963806	movie	1		245	4.0	2.5	/experiments/knapen_AOT/AOT_stimuli/rescaled_final/2018_rv.mp4	0.0	93.44578003883362	2.5088021755218506
6	70.38571214675903	pulse	1	t		4.0	2.5	/experiments/knapen_AOT/AOT_stimuli/rescaled_final/2018_rv.mp4	0.0	95.03818416595459	
6	71.30211019515991	fix_post	2		12	4.0	2.5	/experiments/knapen_AOT/AOT_stimuli/rescaled_final/2018_rv.mp4	0.0	95.95458221435547	0.09992599487304688
7	71.40203619003296	fix_pre	0		120	5.0	2.5	/experiments/knapen_AOT/AOT_stimuli/rescaled_final/0813_rv.mp4	0.0	96.05450820922852	1.0001659393310547
7	71.98570418357849	pulse	0	t		5.0	2.5	/experiments/knapen_AOT/AOT_stimuli/rescaled_final/0813_rv.mp4	0.0	96.63817620277405	
7	72.40220212936401	movie	1		245	5.0	2.5	/experiments/knapen_AOT/AOT_stimuli/rescaled_final/0813_rv.mp4	0.0	97.05467414855957	2.500415086746216
7	73.58597707748413	pulse	1	t		5.0	2.5	/experiments/knapen_AOT/AOT_stimuli/rescaled_final/0813_rv.mp4	0.0	98.23844909667969	
7	74.90261721611023	fix_post	2		12	5.0	2.5	/experiments/knapen_AOT/AOT_stimuli/rescaled_final/0813_rv.mp4	0.0	99.55508923530579	0.10000085830688477
8	75.00261807441711	fix_pre	0		120	6.0	2.5	/experiments/knapen_AOT/AOT_stimuli/rescaled_final/1667_fw.mp4	0.0	99.65509009361267	1.000087022781372
8	75.17864608764648	pulse	0	t		6.0	2.5	/experiments/knapen_AOT/AOT_stimuli/rescaled_final/1667_fw.mp4	0.0	99.83111810684204	
8	76.00270509719849	movie	1		245	6.0	2.5	/experiments/knapen_AOT/AOT_stimuli/rescaled_final/1667_fw.mp4	0.0	100.65517711639404	2.500339984893799
8	76.77900910377502	pulse	1	t		6.0	2.5	/experiments/knapen_AOT/AOT_stimuli/rescaled_final/1667_fw.mp4	0.0	101.43148112297058	
8	78.37914609909058	pulse	1	t		6.0	2.5	/experiments/knapen_AOT/AOT_stimuli/rescaled_final/1667_fw.mp4	0.0	103.03161811828613	
8	78.50304508209229	fix_post	2		12	6.0	2.5	/experiments/knapen_AOT/AOT_stimuli/rescaled_final/1667_fw.mp4	0.0	103.15551710128784	0.10007596015930176
9	78.60312104225159	fix_pre	0		119	7.0	2.5	blank	1.0	103.25559306144714	0.9917891025543213
9	79.59491014480591	movie	1		300	7.0	2.5	blank	1.0	104.24738216400146	2.5004019737243652
9	79.97853302955627	pulse	1	t		7.0	2.5	blank	1.0	104.63100504875183	
9	81.57868814468384	pulse	1	t		7.0	2.5	blank	1.0	106.2311601638794	
9	82.09531211853027	fix_post	2		12	7.0	2.5	blank	1.0	106.74778413772583	0.09997797012329102
10	82.19529008865356	fix_pre	0		119	8.0	2.5	/experiments/knapen_AOT/AOT_stimuli/rescaled_final/0094_fw.mp4	0.0	106.84776210784912	0.9918529987335205
10	83.1789231300354	pulse	0	t		8.0	2.5	/experiments/knapen_AOT/AOT_stimuli/rescaled_final/0094_fw.mp4	0.0	107.83139514923096	
10	83.18714308738708	movie	1		246	8.0	2.5	/experiments/knapen_AOT/AOT_stimuli/rescaled_final/0094_fw.mp4	0.0	107.83961510658264	2.5087010860443115
10	84.78041410446167	pulse	1	t		8.0	2.5	/experiments/knapen_AOT/AOT_stimuli/rescaled_final/0094_fw.mp4	0.0	109.43288612365723	
10	85.6958441734314	fix_post	2		12	8.0	2.5	/experiments/knapen_AOT/AOT_stimuli/rescaled_final/0094_fw.mp4	0.0	110.34831619262695	0.09995388984680176
11	85.7957980632782	fix_pre	0		120	9.0	2.5	/experiments/knapen_AOT/AOT_stimuli/rescaled_final/1042_fw.mp4	0.0	110.44827008247375	1.0002110004425049
11	86.37942314147949	pulse	0	t		9.0	2.5	/experiments/knapen_AOT/AOT_stimuli/rescaled_final/1042_fw.mp4	0.0	111.03189516067505	
11	86.7960090637207	movie	1		245	9.0	2.5	/experiments/knapen_AOT/AOT_stimuli/rescaled_final/1042_fw.mp4	0.0	111.44848108291626	2.500317096710205
11	87.97988104820251	pulse	1	t		9.0	2.5	/experiments/knapen_AOT/AOT_stimuli/rescaled_final/1042_fw.mp4	0.0	112.63235306739807	
11	89.29632616043091	fix_post	2		12	9.0	2.5	/experiments/knapen_AOT/AOT_stimuli/rescaled_final/1042_fw.mp4	0.0	113.94879817962646	0.10003089904785156
12	89.39635705947876	fix_pre	0		120	10.0	2.5	/experiments/knapen_AOT/AOT_stimuli/rescaled_final/1272_rv.mp4	0.0	114.04882907867432	1.000169038772583
12	89.57997822761536	pulse	0	t		10.0	2.5	/experiments/knapen_AOT/AOT_stimuli/rescaled_final/1272_rv.mp4	0.0	114.23245024681091	
12	90.39652609825134	movie	1		246	10.0	2.5	/experiments/knapen_AOT/AOT_stimuli/rescaled_final/1272_rv.mp4	0.0	115.0489981174469	2.500375986099243
12	91.18017220497131	pulse	1	t		10.0	2.5	/experiments/knapen_AOT/AOT_stimuli/rescaled_final/1272_rv.mp4	0.0	115.83264422416687	
12	92.78048610687256	pulse	1	t		10.0	2.5	/experiments/knapen_AOT/AOT_stimuli/rescaled_final/1272_rv.mp4	0.0	117.43295812606812	
12	92.89690208435059	fix_post	2		12	10.0	2.5	/experiments/knapen_AOT/AOT_stimuli/rescaled_final/1272_rv.mp4	0.0	117.54937410354614	0.10007405281066895
13	92.99697613716125	fix_pre	0		120	11.0	2.5	/experiments/knapen_AOT/AOT_stimuli/rescaled_final/1305_rv.mp4	0.0	117.64944815635681	1.0001850128173828
13	93.99716114997864	movie	1		243	11.0	2.5	/experiments/knapen_AOT/AOT_stimuli/rescaled_final/1305_rv.mp4	0.0	118.6496331691742	2.491968870162964
13	94.38133001327515	pulse	1	t		11.0	2.5	/experiments/knapen_AOT/AOT_stimuli/rescaled_final/1305_rv.mp4	0.0	119.0338020324707	
13	95.98098611831665	pulse	1	t		11.0	2.5	/experiments/knapen_AOT/AOT_stimuli/rescaled_final/1305_rv.mp4	0.0	120.6334581375122	
13	96.4891300201416	fix_post	2		12	11.0	2.5	/experiments/knapen_AOT/AOT_stimuli/rescaled_final/1305_rv.mp4	0.0	121.14160203933716	0.10000419616699219
14	96.5891342163086	fix_pre	0		120	12.0	2.5	/experiments/knapen_AOT/AOT_stimuli/rescaled_final/2131_rv.mp4	0.0	121.24160623550415	1.0001249313354492
14	97.58110618591309	pulse	0	t		12.0	2.5	/experiments/knapen_AOT/AOT_stimuli/rescaled_final/2131_rv.mp4	0.0	122.23357820510864	
14	97.58925914764404	movie	1		246	12.0	2.5	/experiments/knapen_AOT/AOT_stimuli/rescaled_final/2131_rv.mp4	0.0	122.2417311668396	2.5087180137634277
14	99.18190717697144	pulse	1	t		12.0	2.5	/experiments/knapen_AOT/AOT_stimuli/rescaled_final/2131_rv.mp4	0.0	123.83437919616699	
14	100.09797716140747	fix_post	2		12	12.0	2.5	/experiments/knapen_AOT/AOT_stimuli/rescaled_final/2131_rv.mp4	0.0	124.75044918060303	0.10000205039978027
15	100.19797921180725	fix_pre	0		120	13.0	2.5	/experiments/knapen_AOT/AOT_stimuli/rescaled_final/1422_fw.mp4	0.0	124.85045123100281	1.0001909732818604
15	100.78159618377686	pulse	0	t		13.0	2.5	/experiments/knapen_AOT/AOT_stimuli/rescaled_final/1422_fw.mp4	0.0	125.43406820297241	
15	101.19817018508911	movie	1		246	13.0	2.5	/experiments/knapen_AOT/AOT_stimuli/rescaled_final/1422_fw.mp4	0.0	125.85064220428467	2.5003278255462646
15	102.38205313682556	pulse	1	t		13.0	2.5	/experiments/knapen_AOT/AOT_stimuli/rescaled_final/1422_fw.mp4	0.0	127.03452515602112	
15	103.69849801063538	fix_post	2		12	13.0	2.5	/experiments/knapen_AOT/AOT_stimuli/rescaled_final/1422_fw.mp4	0.0	128.35097002983093	0.10001516342163086
16	103.798513174057	fix_pre	0		120	14.0	2.5	blank	1.0	128.45098519325256	1.0001838207244873
16	103.98221516609192	pulse	0	t		14.0	2.5	blank	1.0	128.63468718528748	
16	104.7986969947815	movie	1		300	14.0	2.5	blank	1.0	129.45116901397705	2.5003762245178223
16	105.582444190979	pulse	1	t		14.0	2.5	blank	1.0	130.23491621017456	
16	107.18262815475464	pulse	1	t		14.0	2.5	blank	1.0	131.8351001739502	
16	107.29907321929932	fix_post	2		12	14.0	2.5	blank	1.0	131.95154523849487	0.09998297691345215
17	107.39905619621277	fix_pre	0		120	15.0	2.5	/experiments/knapen_AOT/AOT_stimuli/rescaled_final/0800_fw.mp4	0.0	132.05152821540833	1.0001118183135986
17	108.39916801452637	movie	1		243	15.0	2.5	/experiments/knapen_AOT/AOT_stimuli/rescaled_final/0800_fw.mp4	0.0	133.05164003372192	2.4921021461486816
17	108.78319716453552	pulse	1	t		15.0	2.5	/experiments/knapen_AOT/AOT_stimuli/rescaled_final/0800_fw.mp4	0.0	133.43566918373108	
17	110.3830292224884	pulse	1	t		15.0	2.5	/experiments/knapen_AOT/AOT_stimuli/rescaled_final/0800_fw.mp4	0.0	135.03550124168396	
17	110.89127016067505	fix_post	2		12	15.0	2.5	/experiments/knapen_AOT/AOT_stimuli/rescaled_final/0800_fw.mp4	0.0	135.5437421798706	0.09999990463256836
18	110.99127006530762	fix_pre	0		120	16.0	2.5	/experiments/knapen_AOT/AOT_stimuli/rescaled_final/1600_fw.mp4	0.0	135.64374208450317	1.0001239776611328
18	111.98337316513062	pulse	0	t		16.0	2.5	/experiments/knapen_AOT/AOT_stimuli/rescaled_final/1600_fw.mp4	0.0	136.63584518432617	
18	111.99139404296875	movie	1		245	16.0	2.5	/experiments/knapen_AOT/AOT_stimuli/rescaled_final/1600_fw.mp4	0.0	136.6438660621643	2.508751153945923
18	113.58432006835938	pulse	1	t		16.0	2.5	/experiments/knapen_AOT/AOT_stimuli/rescaled_final/1600_fw.mp4	0.0	138.23679208755493	
18	114.50014519691467	fix_post	2		12	16.0	2.5	/experiments/knapen_AOT/AOT_stimuli/rescaled_final/1600_fw.mp4	0.0	139.15261721611023	0.0999608039855957
19	114.60010600090027	fix_pre	0		120	17.0	2.5	/experiments/knapen_AOT/AOT_stimuli/rescaled_final/0032_fw.mp4	0.0	139.25257802009583	1.0002171993255615
19	115.18372416496277	pulse	0	t		17.0	2.5	/experiments/knapen_AOT/AOT_stimuli/rescaled_final/0032_fw.mp4	0.0	139.83619618415833	
19	115.60032320022583	movie	1		245	17.0	2.5	/experiments/knapen_AOT/AOT_stimuli/rescaled_final/0032_fw.mp4	0.0	140.2527952194214	2.500370979309082
19	116.78424406051636	pulse	1	t		17.0	2.5	/experiments/knapen_AOT/AOT_stimuli/rescaled_final/0032_fw.mp4	0.0	141.4367160797119	
19	118.10069417953491	fix_post	2		12	17.0	2.5	/experiments/knapen_AOT/AOT_stimuli/rescaled_final/0032_fw.mp4	0.0	142.75316619873047	0.09996891021728516
20	118.2006630897522	fix_pre	0		120	18.0	2.5	/experiments/knapen_AOT/AOT_stimuli/rescaled_final/1739_fw.mp4	0.0	142.85313510894775	1.0001490116119385
20	118.38427901268005	pulse	0	t		18.0	2.5	/experiments/knapen_AOT/AOT_stimuli/rescaled_final/1739_fw.mp4	0.0	143.0367510318756	
20	119.20081210136414	movie	1		244	18.0	2.5	/experiments/knapen_AOT/AOT_stimuli/rescaled_final/1739_fw.mp4	0.0	143.8532841205597	2.500472068786621
20	119.98444700241089	pulse	1	t		18.0	2.5	/experiments/knapen_AOT/AOT_stimuli/rescaled_final/1739_fw.mp4	0.0	144.63691902160645	
20	121.58462810516357	pulse	1	t		18.0	2.5	/experiments/knapen_AOT/AOT_stimuli/rescaled_final/1739_fw.mp4	0.0	146.23710012435913	
20	121.70128417015076	fix_post	2		12	18.0	2.5	/experiments/knapen_AOT/AOT_stimuli/rescaled_final/1739_fw.mp4	0.0	146.3537561893463	0.0999138355255127
21	121.80119800567627	fix_pre	0		120	19.0	2.5	/experiments/knapen_AOT/AOT_stimuli/rescaled_final/0700_rv.mp4	0.0	146.45367002487183	1.000133991241455
21	122.80133199691772	movie	1		243	19.0	2.5	/experiments/knapen_AOT/AOT_stimuli/rescaled_final/0700_rv.mp4	0.0	147.45380401611328	2.492173194885254
21	123.18557620048523	pulse	1	t		19.0	2.5	/experiments/knapen_AOT/AOT_stimuli/rescaled_final/0700_rv.mp4	0.0	147.8380482196808	
21	124.78522205352783	pulse	1	t		19.0	2.5	/experiments/knapen_AOT/AOT_stimuli/rescaled_final/0700_rv.mp4	0.0	149.4376940727234	
21	125.29350519180298	fix_post	2		10	19.0	2.5	/experiments/knapen_AOT/AOT_stimuli/rescaled_final/0700_rv.mp4	0.0	149.94597721099854	0.09992384910583496
22	125.39342904090881	fix_pre	0		120	20.0	2.5	blank	1.0	150.04590106010437	1.0001490116119385
22	126.38543510437012	pulse	0	t		20.0	2.5	blank	1.0	151.03790712356567	
22	126.39357805252075	movie	1		301	20.0	2.5	blank	1.0	151.0460500717163	2.508700132369995
22	127.98564219474792	pulse	1	t		20.0	2.5	blank	1.0	152.63811421394348	
22	128.90227818489075	fix_post	2		12	20.0	2.5	blank	1.0	153.5547502040863	0.09999489784240723
23	129.00227308273315	fix_pre	0		120	21.0	2.5	/experiments/knapen_AOT/AOT_stimuli/rescaled_final/0108_rv.mp4	0.0	153.6547451019287	1.0001349449157715
23	129.58592915534973	pulse	0	t		21.0	2.5	/experiments/knapen_AOT/AOT_stimuli/rescaled_final/0108_rv.mp4	0.0	154.2384011745453	
23	130.00240802764893	movie	1		247	21.0	2.5	/experiments/knapen_AOT/AOT_stimuli/rescaled_final/0108_rv.mp4	0.0	154.65488004684448	2.5003910064697266
23	131.17905807495117	pulse	1	t		21.0	2.5	/experiments/knapen_AOT/AOT_stimuli/rescaled_final/0108_rv.mp4	0.0	155.83153009414673	
23	132.50279903411865	fix_post	2		12	21.0	2.5	/experiments/knapen_AOT/AOT_stimuli/rescaled_final/0108_rv.mp4	0.0	157.1552710533142	0.10000109672546387
24	132.60280013084412	fix_pre	0		120	22.0	2.5	/experiments/knapen_AOT/AOT_stimuli/rescaled_final/1608_rv.mp4	0.0	157.25527215003967	1.000175952911377
24	132.78644704818726	pulse	0	t		22.0	2.5	/experiments/knapen_AOT/AOT_stimuli/rescaled_final/1608_rv.mp4	0.0	157.4389190673828	
24	133.6029760837555	movie	1		245	22.0	2.5	/experiments/knapen_AOT/AOT_stimuli/rescaled_final/1608_rv.mp4	0.0	158.25544810295105	2.50032901763916
24	134.37930011749268	pulse	1	t		22.0	2.5	/experiments/knapen_AOT/AOT_stimuli/rescaled_final/1608_rv.mp4	0.0	159.03177213668823	
24	135.97943115234375	pulse	1	t		22.0	2.5	/experiments/knapen_AOT/AOT_stimuli/rescaled_final/1608_rv.mp4	0.0	160.6319031715393	
24	136.10330510139465	fix_post	2		12	22.0	2.5	/experiments/knapen_AOT/AOT_stimuli/rescaled_final/1608_rv.mp4	0.0	160.7557771205902	0.10000801086425781
25	136.2033131122589	fix_pre	0		120	23.0	2.5	/experiments/knapen_AOT/AOT_stimuli/rescaled_final/0112_rv.mp4	0.0	160.85578513145447	1.0001959800720215
25	137.20350909233093	movie	1		243	23.0	2.5	/experiments/knapen_AOT/AOT_stimuli/rescaled_final/0112_rv.mp4	0.0	161.8559811115265	2.492064952850342
25	137.58759307861328	pulse	1	t		23.0	2.5	/experiments/knapen_AOT/AOT_stimuli/rescaled_final/0112_rv.mp4	0.0	162.24006509780884	
25	139.18000102043152	pulse	1	t		23.0	2.5	/experiments/knapen_AOT/AOT_stimuli/rescaled_final/0112_rv.mp4	0.0	163.83247303962708	
25	139.69557404518127	fix_post	2		12	23.0	2.5	/experiments/knapen_AOT/AOT_stimuli/rescaled_final/0112_rv.mp4	0.0	164.34804606437683	0.09998297691345215
26	139.79555702209473	fix_pre	0		119	24.0	2.5	/experiments/knapen_AOT/AOT_stimuli/rescaled_final/1202_fw.mp4	0.0	164.44802904129028	0.9918060302734375
26	140.77941799163818	pulse	0	t		24.0	2.5	/experiments/knapen_AOT/AOT_stimuli/rescaled_final/1202_fw.mp4	0.0	165.43189001083374	
26	140.78736305236816	movie	1		245	24.0	2.5	/experiments/knapen_AOT/AOT_stimuli/rescaled_final/1202_fw.mp4	0.0	165.43983507156372	2.508756160736084
26	142.38013410568237	pulse	1	t		24.0	2.5	/experiments/knapen_AOT/AOT_stimuli/rescaled_final/1202_fw.mp4	0.0	167.03260612487793	
26	143.29611921310425	fix_post	2		12	24.0	2.5	/experiments/knapen_AOT/AOT_stimuli/rescaled_final/1202_fw.mp4	0.0	167.9485912322998	0.09995484352111816
27	143.39607405662537	fix_pre	0		120	25.0	2.5	/experiments/knapen_AOT/AOT_stimuli/rescaled_final/1633_rv.mp4	0.0	168.04854607582092	1.0001649856567383
27	143.97982907295227	pulse	0	t		25.0	2.5	/experiments/knapen_AOT/AOT_stimuli/rescaled_final/1633_rv.mp4	0.0	168.63230109214783	
27	144.3962390422821	movie	1		245	25.0	2.5	/experiments/knapen_AOT/AOT_stimuli/rescaled_final/1633_rv.mp4	0.0	169.04871106147766	2.5003840923309326
27	145.58002519607544	pulse	1	t		25.0	2.5	/experiments/knapen_AOT/AOT_stimuli/rescaled_final/1633_rv.mp4	0.0	170.232497215271	
27	146.89662313461304	fix_post	2		12	25.0	2.5	/experiments/knapen_AOT/AOT_stimuli/rescaled_final/1633_rv.mp4	0.0	171.5490951538086	0.10000205039978027
28	146.99662518501282	fix_pre	0		120	26.0	2.5	/experiments/knapen_AOT/AOT_stimuli/rescaled_final/2084_fw.mp4	0.0	171.64909720420837	1.000152826309204
28	147.18019700050354	pulse	0	t		26.0	2.5	/experiments/knapen_AOT/AOT_stimuli/rescaled_final/2084_fw.mp4	0.0	171.8326690196991	
28	147.99677801132202	movie	1		243	26.0	2.5	/experiments/knapen_AOT/AOT_stimuli/rescaled_final/2084_fw.mp4	0.0	172.64925003051758	2.5004022121429443
28	148.78042602539062	pulse	1	t		26.0	2.5	/experiments/knapen_AOT/AOT_stimuli/rescaled_final/2084_fw.mp4	0.0	173.43289804458618	
28	150.38078212738037	pulse	1	t		26.0	2.5	/experiments/knapen_AOT/AOT_stimuli/rescaled_final/2084_fw.mp4	0.0	175.03325414657593	
28	150.49718022346497	fix_post	2		12	26.0	2.5	/experiments/knapen_AOT/AOT_stimuli/rescaled_final/2084_fw.mp4	0.0	175.14965224266052	0.09998488426208496
29	150.59716510772705	fix_pre	0		120	27.0	2.5	blank	1.0	175.2496371269226	1.0001459121704102
29	151.59731101989746	movie	1		299	27.0	2.5	blank	1.0	176.24978303909302	2.492037057876587
29	151.98086714744568	pulse	1	t		27.0	2.5	blank	1.0	176.63333916664124	
29	153.58114099502563	pulse	1	t		27.0	2.5	blank	1.0	178.2336130142212	
29	154.08934807777405	fix_post	2		12	27.0	2.5	blank	1.0	178.7418200969696	0.100006103515625
30	154.18935418128967	fix_pre	0		120	28.0	2.5	/experiments/knapen_AOT/AOT_stimuli/rescaled_final/0722_rv.mp4	0.0	178.84182620048523	1.0001628398895264
30	155.18138217926025	pulse	0	t		28.0	2.5	/experiments/knapen_AOT/AOT_stimuli/rescaled_final/0722_rv.mp4	0.0	179.8338541984558	
30	155.1895170211792	movie	1		247	28.0	2.5	/experiments/knapen_AOT/AOT_stimuli/rescaled_final/0722_rv.mp4	0.0	179.84198904037476	2.508711099624634
30	156.78275799751282	pulse	1	t		28.0	2.5	/experiments/knapen_AOT/AOT_stimuli/rescaled_final/0722_rv.mp4	0.0	181.43523001670837	
30	157.69822812080383	fix_post	2		12	28.0	2.5	/experiments/knapen_AOT/AOT_stimuli/rescaled_final/0722_rv.mp4	0.0	182.3507001399994	0.1000070571899414
31	157.79823517799377	fix_pre	0		120	29.0	2.5	/experiments/knapen_AOT/AOT_stimuli/rescaled_final/0347_rv.mp4	0.0	182.45070719718933	1.000128984451294
31	158.38197112083435	pulse	0	t		29.0	2.5	/experiments/knapen_AOT/AOT_stimuli/rescaled_final/0347_rv.mp4	0.0	183.0344431400299	
31	158.79836416244507	movie	1		243	29.0	2.5	/experiments/knapen_AOT/AOT_stimuli/rescaled_final/0347_rv.mp4	0.0	183.45083618164062	2.500440835952759
31	159.98220920562744	pulse	1	t		29.0	2.5	/experiments/knapen_AOT/AOT_stimuli/rescaled_final/0347_rv.mp4	0.0	184.634681224823	
31	161.29880499839783	fix_post	2		12	29.0	2.5	/experiments/knapen_AOT/AOT_stimuli/rescaled_final/0347_rv.mp4	0.0	185.95127701759338	0.10000419616699219
32	161.39880919456482	fix_pre	0		120	30.0	2.5	/experiments/knapen_AOT/AOT_stimuli/rescaled_final/0348_fw.mp4	0.0	186.05128121376038	1.0001118183135986
32	161.5823380947113	pulse	0	t		30.0	2.5	/experiments/knapen_AOT/AOT_stimuli/rescaled_final/0348_fw.mp4	0.0	186.23481011390686	
32	162.39892101287842	movie	1		244	30.0	2.5	/experiments/knapen_AOT/AOT_stimuli/rescaled_final/0348_fw.mp4	0.0	187.05139303207397	2.5003440380096436
32	163.1825270652771	pulse	1	t		30.0	2.5	/experiments/knapen_AOT/AOT_stimuli/rescaled_final/0348_fw.mp4	0.0	187.83499908447266	
32	164.78276205062866	pulse	1	t		30.0	2.5	/experiments/knapen_AOT/AOT_stimuli/rescaled_final/0348_fw.mp4	0.0	189.43523406982422	
32	164.89926505088806	fix_post	2		12	30.0	2.5	/experiments/knapen_AOT/AOT_stimuli/rescaled_final/0348_fw.mp4	0.0	189.55173707008362	0.1000211238861084
33	164.99928617477417	fix_pre	0		119	31.0	2.5	/experiments/knapen_AOT/AOT_stimuli/rescaled_final/0133_rv.mp4	0.0	189.65175819396973	0.991858959197998
33	165.99114513397217	movie	1		244	31.0	2.5	/experiments/knapen_AOT/AOT_stimuli/rescaled_final/0133_rv.mp4	0.0	190.64361715316772	2.500349998474121
33	166.38329005241394	pulse	1	t		31.0	2.5	/experiments/knapen_AOT/AOT_stimuli/rescaled_final/0133_rv.mp4	0.0	191.0357620716095	
33	167.98331713676453	pulse	1	t		31.0	2.5	/experiments/knapen_AOT/AOT_stimuli/rescaled_final/0133_rv.mp4	0.0	192.63578915596008	
33	168.4914951324463	fix_post	2		12	31.0	2.5	/experiments/knapen_AOT/AOT_stimuli/rescaled_final/0133_rv.mp4	0.0	193.14396715164185	0.09998488426208496
34	168.59148001670837	fix_pre	0		120	32.0	2.5	/experiments/knapen_AOT/AOT_stimuli/rescaled_final/1605_fw.mp4	0.0	193.24395203590393	1.0001890659332275
34	169.58355021476746	pulse	0	t		32.0	2.5	/experiments/knapen_AOT/AOT_stimuli/rescaled_final/1605_fw.mp4	0.0	194.236022233963	
34	169.5916690826416	movie	1		246	32.0	2.5	/experiments/knapen_AOT/AOT_stimuli/rescaled_final/1605_fw.mp4	0.0	194.24414110183716	2.5086700916290283
34	171.1877419948578	pulse	1	t		32.0	2.5	/experiments/knapen_AOT/AOT_stimuli/rescaled_final/1605_fw.mp4	0.0	195.84021401405334	
34	172.10033917427063	fix_post	2		12	32.0	2.5	/experiments/knapen_AOT/AOT_stimuli/rescaled_final/1605_fw.mp4	0.0	196.7528111934662	0.10004997253417969
35	172.2003891468048	fix_pre	0		120	33.0	2.5	/experiments/knapen_AOT/AOT_stimuli/rescaled_final/1555_fw.mp4	0.0	196.85286116600037	1.0001089572906494
35	172.7841181755066	pulse	0	t		33.0	2.5	/experiments/knapen_AOT/AOT_stimuli/rescaled_final/1555_fw.mp4	0.0	197.43659019470215	
35	173.20049810409546	movie	1		245	33.0	2.5	/experiments/knapen_AOT/AOT_stimuli/rescaled_final/1555_fw.mp4	0.0	197.85297012329102	2.500394105911255
35	174.38434720039368	pulse	1	t		33.0	2.5	/experiments/knapen_AOT/AOT_stimuli/rescaled_final/1555_fw.mp4	0.0	199.03681921958923	
35	175.7008922100067	fix_post	2		12	33.0	2.5	/experiments/knapen_AOT/AOT_stimuli/rescaled_final/1555_fw.mp4	0.0	200.35336422920227	0.10002493858337402
36	175.8009171485901	fix_pre	0		120	34.0	2.5	/experiments/knapen_AOT/AOT_stimuli/rescaled_final/0459_fw.mp4	0.0	200.45338916778564	1.0001599788665771
36	175.98441815376282	pulse	0	t		34.0	2.5	/experiments/knapen_AOT/AOT_stimuli/rescaled_final/0459_fw.mp4	0.0	200.63689017295837	
36	176.80107712745667	movie	1		245	34.0	2.5	/experiments/knapen_AOT/AOT_stimuli/rescaled_final/0459_fw.mp4	0.0	201.45354914665222	2.5003409385681152
36	177.58478903770447	pulse	1	t		34.0	2.5	/experiments/knapen_AOT/AOT_stimuli/rescaled_final/0459_fw.mp4	0.0	202.23726105690002	
36	179.18271613121033	pulse	1	t		34.0	2.5	/experiments/knapen_AOT/AOT_stimuli/rescaled_final/0459_fw.mp4	0.0	203.83518815040588	
36	179.30141806602478	fix_post	2		12	34.0	2.5	/experiments/knapen_AOT/AOT_stimuli/rescaled_final/0459_fw.mp4	0.0	203.95389008522034	0.10001993179321289
37	179.401437997818	fix_pre	0		120	35.0	2.5	blank	1.0	204.05391001701355	1.000195026397705
37	180.4016330242157	movie	1		299	35.0	2.5	blank	1.0	205.05410504341125	2.4920151233673096
37	180.78524804115295	pulse	1	t		35.0	2.5	blank	1.0	205.4377200603485	
37	182.38541316986084	pulse	1	t		35.0	2.5	blank	1.0	207.0378851890564	
37	182.893648147583	fix_post	2		10	35.0	2.5	blank	1.0	207.54612016677856	0.10000896453857422
38	182.99365711212158	fix_pre	0		120	36.0	2.5	/experiments/knapen_AOT/AOT_stimuli/rescaled_final/0813_fw.mp4	0.0	207.64612913131714	1.0002110004425049
38	183.9857292175293	pulse	0	t		36.0	2.5	/experiments/knapen_AOT/AOT_stimuli/rescaled_final/0813_fw.mp4	0.0	208.63820123672485	
38	183.9938681125641	movie	1		245	36.0	2.5	/experiments/knapen_AOT/AOT_stimuli/rescaled_final/0813_fw.mp4	0.0	208.64634013175964	2.508655071258545
38	185.5899691581726	pulse	1	t		36.0	2.5	/experiments/knapen_AOT/AOT_stimuli/rescaled_final/0813_fw.mp4	0.0	210.24244117736816	
38	186.50252318382263	fix_post	2		12	36.0	2.5	/experiments/knapen_AOT/AOT_stimuli/rescaled_final/0813_fw.mp4	0.0	211.1549952030182	0.10000491142272949
39	186.60252809524536	fix_pre	0		120	37.0	2.5	/experiments/knapen_AOT/AOT_stimuli/rescaled_final/0722_fw.mp4	0.0	211.25500011444092	1.000157117843628
39	187.1862211227417	pulse	0	t		37.0	2.5	/experiments/knapen_AOT/AOT_stimuli/rescaled_final/0722_fw.mp4	0.0	211.83869314193726	
39	187.602685213089	movie	1		246	37.0	2.5	/experiments/knapen_AOT/AOT_stimuli/rescaled_final/0722_fw.mp4	0.0	212.25515723228455	2.500337839126587
39	188.78216314315796	pulse	1	t		37.0	2.5	/experiments/knapen_AOT/AOT_stimuli/rescaled_final/0722_fw.mp4	0.0	213.43463516235352	
39	190.10302305221558	fix_post	2		12	37.0	2.5	/experiments/knapen_AOT/AOT_stimuli/rescaled_final/0722_fw.mp4	0.0	214.75549507141113	0.100006103515625
40	190.2030291557312	fix_pre	0		120	38.0	2.5	/experiments/knapen_AOT/AOT_stimuli/rescaled_final/0195_fw.mp4	0.0	214.85550117492676	1.000248908996582
40	190.37903714179993	pulse	0	t		38.0	2.5	/experiments/knapen_AOT/AOT_stimuli/rescaled_final/0195_fw.mp4	0.0	215.03150916099548	
40	191.20327806472778	movie	1		244	38.0	2.5	/experiments/knapen_AOT/AOT_stimuli/rescaled_final/0195_fw.mp4	0.0	215.85575008392334	2.5003559589385986
40	191.97941422462463	pulse	1	t		38.0	2.5	/experiments/knapen_AOT/AOT_stimuli/rescaled_final/0195_fw.mp4	0.0	216.6318862438202	
40	193.57888412475586	pulse	1	t		38.0	2.5	/experiments/knapen_AOT/AOT_stimuli/rescaled_final/0195_fw.mp4	0.0	218.23135614395142	
40	193.70363402366638	fix_post	2		12	38.0	2.5	/experiments/knapen_AOT/AOT_stimuli/rescaled_final/0195_fw.mp4	0.0	218.35610604286194	0.09995317459106445
41	193.80358719825745	fix_pre	0		120	39.0	2.5	/experiments/knapen_AOT/AOT_stimuli/rescaled_final/1575_rv.mp4	0.0	218.456059217453	1.000126838684082
41	194.80371403694153	movie	1		244	39.0	2.5	/experiments/knapen_AOT/AOT_stimuli/rescaled_final/1575_rv.mp4	0.0	219.45618605613708	2.4921951293945312
41	195.178964138031	pulse	1	t		39.0	2.5	/experiments/knapen_AOT/AOT_stimuli/rescaled_final/1575_rv.mp4	0.0	219.83143615722656	
41	196.77928805351257	pulse	1	t		39.0	2.5	/experiments/knapen_AOT/AOT_stimuli/rescaled_final/1575_rv.mp4	0.0	221.43176007270813	
41	197.29590916633606	fix_post	2		12	39.0	2.5	/experiments/knapen_AOT/AOT_stimuli/rescaled_final/1575_rv.mp4	0.0	221.94838118553162	0.09996795654296875
42	197.39587712287903	fix_pre	0		119	40.0	2.5	blank	1.0	222.04834914207458	0.9917569160461426
42	198.37942719459534	pulse	0	t		40.0	2.5	blank	1.0	223.0318992137909	
42	198.38763403892517	movie	1		301	40.0	2.5	blank	1.0	223.04010605812073	2.5086960792541504
42	199.97971105575562	pulse	1	t		40.0	2.5	blank	1.0	224.63218307495117	
42	200.89633011817932	fix_post	2		12	40.0	2.5	blank	1.0	225.54880213737488	0.10001397132873535
43	200.99634408950806	fix_pre	0		120	41.0	2.5	/experiments/knapen_AOT/AOT_stimuli/rescaled_final/0643_rv.mp4	0.0	225.6488161087036	1.000162124633789
43	201.58009219169617	pulse	0	t		41.0	2.5	/experiments/knapen_AOT/AOT_stimuli/rescaled_final/0643_rv.mp4	0.0	226.23256421089172	
43	201.99650621414185	movie	1		244	41.0	2.5	/experiments/knapen_AOT/AOT_stimuli/rescaled_final/0643_rv.mp4	0.0	226.6489782333374	2.5003929138183594
43	203.18039321899414	pulse	1	t		41.0	2.5	/experiments/knapen_AOT/AOT_stimuli/rescaled_final/0643_rv.mp4	0.0	227.8328652381897	
43	204.4968991279602	fix_post	2		12	41.0	2.5	/experiments/knapen_AOT/AOT_stimuli/rescaled_final/0643_rv.mp4	0.0	229.14937114715576	0.09995698928833008
44	204.59685611724854	fix_pre	0		120	42.0	2.5	/experiments/knapen_AOT/AOT_stimuli/rescaled_final/2018_fw.mp4	0.0	229.2493281364441	1.0002789497375488
44	204.78042817115784	pulse	0	t		42.0	2.5	/experiments/knapen_AOT/AOT_stimuli/rescaled_final/2018_fw.mp4	0.0	229.4329001903534	
44	205.59713506698608	movie	1		244	42.0	2.5	/experiments/knapen_AOT/AOT_stimuli/rescaled_final/2018_fw.mp4	0.0	230.24960708618164	2.500241994857788
44	206.38066720962524	pulse	1	t		42.0	2.5	/experiments/knapen_AOT/AOT_stimuli/rescaled_final/2018_fw.mp4	0.0	231.0331392288208	
44	207.98084807395935	pulse	1	t		42.0	2.5	/experiments/knapen_AOT/AOT_stimuli/rescaled_final/2018_fw.mp4	0.0	232.6333200931549	
44	208.09737706184387	fix_post	2		11	42.0	2.5	/experiments/knapen_AOT/AOT_stimuli/rescaled_final/2018_fw.mp4	0.0	232.74984908103943	0.09167909622192383
45	208.1890561580658	fix_pre	0		120	43.0	2.5	/experiments/knapen_AOT/AOT_stimuli/rescaled_final/0303_rv.mp4	0.0	232.84152817726135	1.0001540184020996
45	209.1892101764679	movie	1		244	43.0	2.5	/experiments/knapen_AOT/AOT_stimuli/rescaled_final/0303_rv.mp4	0.0	233.84168219566345	2.500411033630371
45	209.58129811286926	pulse	1	t		43.0	2.5	/experiments/knapen_AOT/AOT_stimuli/rescaled_final/0303_rv.mp4	0.0	234.23377013206482	
45	211.18144607543945	pulse	1	t		43.0	2.5	/experiments/knapen_AOT/AOT_stimuli/rescaled_final/0303_rv.mp4	0.0	235.833918094635	
45	211.68962121009827	fix_post	2		12	43.0	2.5	/experiments/knapen_AOT/AOT_stimuli/rescaled_final/0303_rv.mp4	0.0	236.34209322929382	0.09998297691345215
46	211.78960418701172	fix_pre	0		120	44.0	2.5	/experiments/knapen_AOT/AOT_stimuli/rescaled_final/0032_fw.mp4	0.0	236.44207620620728	1.0001609325408936
46	212.78163599967957	pulse	0	t		44.0	2.5	/experiments/knapen_AOT/AOT_stimuli/rescaled_final/0032_fw.mp4	0.0	237.43410801887512	
46	212.7897651195526	movie	1		246	44.0	2.5	/experiments/knapen_AOT/AOT_stimuli/rescaled_final/0032_fw.mp4	0.0	237.44223713874817	2.5087740421295166
46	214.3825261592865	pulse	1	t		44.0	2.5	/experiments/knapen_AOT/AOT_stimuli/rescaled_final/0032_fw.mp4	0.0	239.03499817848206	
46	215.29853916168213	fix_post	2		12	44.0	2.5	/experiments/knapen_AOT/AOT_stimuli/rescaled_final/0032_fw.mp4	0.0	239.95101118087769	0.09999394416809082
47	215.39853310585022	fix_pre	0		120	45.0	2.5	/experiments/knapen_AOT/AOT_stimuli/rescaled_final/0014_rv.mp4	0.0	240.05100512504578	1.0001699924468994
47	215.98210620880127	pulse	0	t		45.0	2.5	/experiments/knapen_AOT/AOT_stimuli/rescaled_final/0014_rv.mp4	0.0	240.63457822799683	
47	216.39870309829712	movie	1		244	45.0	2.5	/experiments/knapen_AOT/AOT_stimuli/rescaled_final/0014_rv.mp4	0.0	241.05117511749268	2.500333070755005
47	217.5825080871582	pulse	1	t		45.0	2.5	/experiments/knapen_AOT/AOT_stimuli/rescaled_final/0014_rv.mp4	0.0	242.23498010635376	
47	218.89903616905212	fix_post	2		12	45.0	2.5	/experiments/knapen_AOT/AOT_stimuli/rescaled_final/0014_rv.mp4	0.0	243.55150818824768	0.09995484352111816
48	218.99899101257324	fix_pre	0		120	46.0	2.5	/experiments/knapen_AOT/AOT_stimuli/rescaled_final/0586_rv.mp4	0.0	243.6514630317688	1.0001890659332275
48	219.1825671195984	pulse	0	t		46.0	2.5	/experiments/knapen_AOT/AOT_stimuli/rescaled_final/0586_rv.mp4	0.0	243.83503913879395	
48	219.99918007850647	movie	1		243	46.0	2.5	/experiments/knapen_AOT/AOT_stimuli/rescaled_final/0586_rv.mp4	0.0	244.65165209770203	2.5004470348358154
48	220.7829031944275	pulse	1	t		46.0	2.5	/experiments/knapen_AOT/AOT_stimuli/rescaled_final/0586_rv.mp4	0.0	245.43537521362305	
48	222.38294100761414	pulse	1	t		46.0	2.5	/experiments/knapen_AOT/AOT_stimuli/rescaled_final/0586_rv.mp4	0.0	247.0354130268097	
48	222.49962711334229	fix_post	2		12	46.0	2.5	/experiments/knapen_AOT/AOT_stimuli/rescaled_final/0586_rv.mp4	0.0	247.15209913253784	0.09990501403808594
49	222.59953212738037	fix_pre	0		120	47.0	2.5	blank	1.0	247.25200414657593	1.0001780986785889
49	223.59971022605896	movie	1		299	47.0	2.5	blank	1.0	248.25218224525452	2.4920449256896973
49	223.9833312034607	pulse	1	t		47.0	2.5	blank	1.0	248.63580322265625	
49	225.58352708816528	pulse	1	t		47.0	2.5	blank	1.0	250.23599910736084	
49	226.09175515174866	fix_post	2		12	47.0	2.5	blank	1.0	250.7442271709442	0.10004591941833496
50	226.191801071167	fix_pre	0		120	48.0	2.5	/experiments/knapen_AOT/AOT_stimuli/rescaled_final/0459_fw.mp4	0.0	250.84427309036255	1.0001270771026611
50	227.18387818336487	pulse	0	t		48.0	2.5	/experiments/knapen_AOT/AOT_stimuli/rescaled_final/0459_fw.mp4	0.0	251.83635020256042	
50	227.19192814826965	movie	1		246	48.0	2.5	/experiments/knapen_AOT/AOT_stimuli/rescaled_final/0459_fw.mp4	0.0	251.8444001674652	2.508723020553589
50	228.78521609306335	pulse	1	t		48.0	2.5	/experiments/knapen_AOT/AOT_stimuli/rescaled_final/0459_fw.mp4	0.0	253.4376881122589	
50	229.70065116882324	fix_post	2		12	48.0	2.5	/experiments/knapen_AOT/AOT_stimuli/rescaled_final/0459_fw.mp4	0.0	254.3531231880188	0.10006093978881836
51	229.80071210861206	fix_pre	0		120	49.0	2.5	/experiments/knapen_AOT/AOT_stimuli/rescaled_final/0089_rv.mp4	0.0	254.45318412780762	1.0001330375671387
51	230.38423609733582	pulse	0	t		49.0	2.5	/experiments/knapen_AOT/AOT_stimuli/rescaled_final/0089_rv.mp4	0.0	255.03670811653137	
51	230.8008451461792	movie	1		244	49.0	2.5	/experiments/knapen_AOT/AOT_stimuli/rescaled_final/0089_rv.mp4	0.0	255.45331716537476	2.500298023223877
51	231.9846510887146	pulse	1	t		49.0	2.5	/experiments/knapen_AOT/AOT_stimuli/rescaled_final/0089_rv.mp4	0.0	256.63712310791016	
51	233.30114316940308	fix_post	2		12	49.0	2.5	/experiments/knapen_AOT/AOT_stimuli/rescaled_final/0089_rv.mp4	0.0	257.95361518859863	0.10002398490905762
52	233.40116715431213	fix_pre	0		120	50.0	2.5	/experiments/knapen_AOT/AOT_stimuli/rescaled_final/0489_rv.mp4	0.0	258.0536391735077	1.0001599788665771
52	233.58479118347168	pulse	0	t		50.0	2.5	/experiments/knapen_AOT/AOT_stimuli/rescaled_final/0489_rv.mp4	0.0	258.23726320266724	
52	234.4013271331787	movie	1		245	50.0	2.5	/experiments/knapen_AOT/AOT_stimuli/rescaled_final/0489_rv.mp4	0.0	259.05379915237427	2.500403881072998
52	235.18500018119812	pulse	1	t		50.0	2.5	/experiments/knapen_AOT/AOT_stimuli/rescaled_final/0489_rv.mp4	0.0	259.8374722003937	
52	236.7829830646515	pulse	1	t		50.0	2.5	/experiments/knapen_AOT/AOT_stimuli/rescaled_final/0489_rv.mp4	0.0	261.43545508384705	
52	236.9017310142517	fix_post	2		12	50.0	2.5	/experiments/knapen_AOT/AOT_stimuli/rescaled_final/0489_rv.mp4	0.0	261.55420303344727	0.09996199607849121
53	237.0016930103302	fix_pre	0		120	51.0	2.5	/experiments/knapen_AOT/AOT_stimuli/rescaled_final/1898_fw.mp4	0.0	261.65416502952576	1.0001420974731445
53	238.00183510780334	movie	1		244	51.0	2.5	/experiments/knapen_AOT/AOT_stimuli/rescaled_final/1898_fw.mp4	0.0	262.6543071269989	2.492094039916992
53	238.38721299171448	pulse	1	t		51.0	2.5	/experiments/knapen_AOT/AOT_stimuli/rescaled_final/1898_fw.mp4	0.0	263.03968501091003	
53	239.985671043396	pulse	1	t		51.0	2.5	/experiments/knapen_AOT/AOT_stimuli/rescaled_final/1898_fw.mp4	0.0	264.63814306259155	
53	240.49392914772034	fix_post	2		12	51.0	2.5	/experiments/knapen_AOT/AOT_stimuli/rescaled_final/1898_fw.mp4	0.0	265.1464011669159	0.0999760627746582
54	240.593905210495	fix_pre	0		120	52.0	2.5	/experiments/knapen_AOT/AOT_stimuli/rescaled_final/1764_rv.mp4	0.0	265.24637722969055	1.0001518726348877
54	241.586040019989	pulse	0	t		52.0	2.5	/experiments/knapen_AOT/AOT_stimuli/rescaled_final/1764_rv.mp4	0.0	266.23851203918457	
54	241.59405708312988	movie	1		246	52.0	2.5	/experiments/knapen_AOT/AOT_stimuli/rescaled_final/1764_rv.mp4	0.0	266.24652910232544	2.508798122406006
54	243.18765711784363	pulse	1	t		52.0	2.5	/experiments/knapen_AOT/AOT_stimuli/rescaled_final/1764_rv.mp4	0.0	267.8401291370392	
54	244.1028552055359	fix_post	2		10	52.0	2.5	/experiments/knapen_AOT/AOT_stimuli/rescaled_final/1764_rv.mp4	0.0	268.75532722473145	0.09994387626647949
55	244.20279908180237	fix_pre	0		120	53.0	2.5	/experiments/knapen_AOT/AOT_stimuli/rescaled_final/0377_fw.mp4	0.0	268.8552711009979	1.0002539157867432
55	244.78634810447693	pulse	0	t		53.0	2.5	/experiments/knapen_AOT/AOT_stimuli/rescaled_final/0377_fw.mp4	0.0	269.4388201236725	
55	245.2030529975891	movie	1		245	53.0	2.5	/experiments/knapen_AOT/AOT_stimuli/rescaled_final/0377_fw.mp4	0.0	269.85552501678467	2.5002732276916504
55	246.37971711158752	pulse	1	t		53.0	2.5	/experiments/knapen_AOT/AOT_stimuli/rescaled_final/0377_fw.mp4	0.0	271.0321891307831	
55	247.70332622528076	fix_post	2		12	53.0	2.5	/experiments/knapen_AOT/AOT_stimuli/rescaled_final/0377_fw.mp4	0.0	272.3557982444763	0.10000395774841309
56	247.80333018302917	fix_pre	0		120	54.0	2.5	/experiments/knapen_AOT/AOT_stimuli/rescaled_final/1278_rv.mp4	0.0	272.45580220222473	1.0001518726348877
56	247.98694109916687	pulse	0	t		54.0	2.5	/experiments/knapen_AOT/AOT_stimuli/rescaled_final/1278_rv.mp4	0.0	272.6394131183624	
56	248.80348205566406	movie	1		245	54.0	2.5	/experiments/knapen_AOT/AOT_stimuli/rescaled_final/1278_rv.mp4	0.0	273.4559540748596	2.5003490447998047
56	249.57978320121765	pulse	1	t		54.0	2.5	/experiments/knapen_AOT/AOT_stimuli/rescaled_final/1278_rv.mp4	0.0	274.2322552204132	
56	251.1849992275238	pulse	1	t		54.0	2.5	/experiments/knapen_AOT/AOT_stimuli/rescaled_final/1278_rv.mp4	0.0	275.83747124671936	
56	251.30383110046387	fix_post	2		12	54.0	2.5	/experiments/knapen_AOT/AOT_stimuli/rescaled_final/1278_rv.mp4	0.0	275.9563031196594	0.10006308555603027
57	251.4038941860199	fix_pre	0		120	55.0	2.5	blank	1.0	276.05636620521545	1.0001349449157715
57	252.40402913093567	movie	1		299	55.0	2.5	blank	1.0	277.0565011501312	2.4920668601989746
57	252.78006601333618	pulse	1	t		55.0	2.5	blank	1.0	277.43253803253174	
57	254.37946319580078	pulse	1	t		55.0	2.5	blank	1.0	279.03193521499634	
57	254.89609599113464	fix_post	2		12	55.0	2.5	blank	1.0	279.5485680103302	0.09993100166320801
58	254.99602699279785	fix_pre	0		119	56.0	2.5	/experiments/knapen_AOT/AOT_stimuli/rescaled_final/1191_fw.mp4	0.0	279.6484990119934	0.9918441772460938
58	255.97970509529114	pulse	0	t		56.0	2.5	/experiments/knapen_AOT/AOT_stimuli/rescaled_final/1191_fw.mp4	0.0	280.6321771144867	
58	255.98787117004395	movie	1		245	56.0	2.5	/experiments/knapen_AOT/AOT_stimuli/rescaled_final/1191_fw.mp4	0.0	280.6403431892395	2.5087509155273438
58	257.5805079936981	pulse	1	t		56.0	2.5	/experiments/knapen_AOT/AOT_stimuli/rescaled_final/1191_fw.mp4	0.0	282.2329800128937	
58	258.4966220855713	fix_post	2		12	56.0	2.5	/experiments/knapen_AOT/AOT_stimuli/rescaled_final/1191_fw.mp4	0.0	283.14909410476685	0.10001206398010254
59	258.5966341495514	fix_pre	0		120	57.0	2.5	/experiments/knapen_AOT/AOT_stimuli/rescaled_final/1695_rv.mp4	0.0	283.24910616874695	1.0001800060272217
59	259.1802520751953	pulse	0	t		57.0	2.5	/experiments/knapen_AOT/AOT_stimuli/rescaled_final/1695_rv.mp4	0.0	283.83272409439087	
59	259.5968141555786	movie	1		243	57.0	2.5	/experiments/knapen_AOT/AOT_stimuli/rescaled_final/1695_rv.mp4	0.0	284.24928617477417	2.500298023223877
59	260.78046917915344	pulse	1	t		57.0	2.5	/experiments/knapen_AOT/AOT_stimuli/rescaled_final/1695_rv.mp4	0.0	285.432941198349	
59	262.0971121788025	fix_post	2		12	57.0	2.5	/experiments/knapen_AOT/AOT_stimuli/rescaled_final/1695_rv.mp4	0.0	286.74958419799805	0.10006093978881836
60	262.1971731185913	fix_pre	0		120	58.0	2.5	/experiments/knapen_AOT/AOT_stimuli/rescaled_final/2134_fw.mp4	0.0	286.84964513778687	1.000093936920166
60	262.38078212738037	pulse	0	t		58.0	2.5	/experiments/knapen_AOT/AOT_stimuli/rescaled_final/2134_fw.mp4	0.0	287.0332541465759	
60	263.1972670555115	movie	1		245	58.0	2.5	/experiments/knapen_AOT/AOT_stimuli/rescaled_final/2134_fw.mp4	0.0	287.84973907470703	2.5004360675811768
60	263.98097920417786	pulse	1	t		58.0	2.5	/experiments/knapen_AOT/AOT_stimuli/rescaled_final/2134_fw.mp4	0.0	288.6334512233734	
60	265.5788481235504	pulse	1	t		58.0	2.5	/experiments/knapen_AOT/AOT_stimuli/rescaled_final/2134_fw.mp4	0.0	290.231320142746	
60	265.69770312309265	fix_post	2		12	58.0	2.5	/experiments/knapen_AOT/AOT_stimuli/rescaled_final/2134_fw.mp4	0.0	290.3501751422882	0.09993600845336914
61	265.797639131546	fix_pre	0		119	59.0	2.5	/experiments/knapen_AOT/AOT_stimuli/rescaled_final/2066_rv.mp4	0.0	290.4501111507416	0.9918820858001709
61	266.7895212173462	movie	1		244	59.0	2.5	/experiments/knapen_AOT/AOT_stimuli/rescaled_final/2066_rv.mp4	0.0	291.44199323654175	2.500372886657715
61	267.18145203590393	pulse	1	t		59.0	2.5	/experiments/knapen_AOT/AOT_stimuli/rescaled_final/2066_rv.mp4	0.0	291.8339240550995	
61	268.7817180156708	pulse	1	t		59.0	2.5	/experiments/knapen_AOT/AOT_stimuli/rescaled_final/2066_rv.mp4	0.0	293.43419003486633	
61	269.2898941040039	fix_post	2		12	59.0	2.5	/experiments/knapen_AOT/AOT_stimuli/rescaled_final/2066_rv.mp4	0.0	293.94236612319946	0.09998607635498047
62	269.3898801803589	fix_pre	0		120	60.0	2.5	/experiments/knapen_AOT/AOT_stimuli/rescaled_final/0173_rv.mp4	0.0	294.04235219955444	1.0001788139343262
62	270.3818590641022	pulse	0	t		60.0	2.5	/experiments/knapen_AOT/AOT_stimuli/rescaled_final/0173_rv.mp4	0.0	295.03433108329773	
62	270.3900589942932	movie	1		246	60.0	2.5	/experiments/knapen_AOT/AOT_stimuli/rescaled_final/0173_rv.mp4	0.0	295.04253101348877	2.5087032318115234
62	271.9826171398163	pulse	1	t		60.0	2.5	/experiments/knapen_AOT/AOT_stimuli/rescaled_final/0173_rv.mp4	0.0	296.63508915901184	
62	272.89876222610474	fix_post	2		12	60.0	2.5	/experiments/knapen_AOT/AOT_stimuli/rescaled_final/0173_rv.mp4	0.0	297.5512342453003	0.0999608039855957
63	272.99872303009033	fix_pre	0		120	61.0	2.5	/experiments/knapen_AOT/AOT_stimuli/rescaled_final/0195_fw.mp4	0.0	297.6511950492859	1.0001671314239502
63	273.5823972225189	pulse	0	t		61.0	2.5	/experiments/knapen_AOT/AOT_stimuli/rescaled_final/0195_fw.mp4	0.0	298.2348692417145	
63	273.9988901615143	movie	1		244	61.0	2.5	/experiments/knapen_AOT/AOT_stimuli/rescaled_final/0195_fw.mp4	0.0	298.65136218070984	2.500382900238037
63	275.18267822265625	pulse	1	t		61.0	2.5	/experiments/knapen_AOT/AOT_stimuli/rescaled_final/0195_fw.mp4	0.0	299.8351502418518	
63	276.4992730617523	fix_post	2		12	61.0	2.5	/experiments/knapen_AOT/AOT_stimuli/rescaled_final/0195_fw.mp4	0.0	301.1517450809479	0.09999608993530273
64	276.5992691516876	fix_pre	0		120	62.0	2.5	blank	1.0	301.2517411708832	1.000216007232666
64	276.7829351425171	pulse	0	t		62.0	2.5	blank	1.0	301.43540716171265	
64	277.5994851589203	movie	1		300	62.0	2.5	blank	1.0	302.25195717811584	2.500309944152832
64	278.3831992149353	pulse	1	t		62.0	2.5	blank	1.0	303.03567123413086	
64	279.98331809043884	pulse	1	t		62.0	2.5	blank	1.0	304.6357901096344	
64	280.0997951030731	fix_post	2		12	62.0	2.5	blank	1.0	304.7522671222687	0.10009598731994629
65	280.19989109039307	fix_pre	0		120	63.0	2.5	/experiments/knapen_AOT/AOT_stimuli/rescaled_final/1215_fw.mp4	0.0	304.8523631095886	1.0000979900360107
65	281.1999890804291	movie	1		244	63.0	2.5	/experiments/knapen_AOT/AOT_stimuli/rescaled_final/1215_fw.mp4	0.0	305.85246109962463	2.4921109676361084
65	281.5876841545105	pulse	1	t		63.0	2.5	/experiments/knapen_AOT/AOT_stimuli/rescaled_final/1215_fw.mp4	0.0	306.24015617370605	
65	283.183874130249	pulse	1	t		63.0	2.5	/experiments/knapen_AOT/AOT_stimuli/rescaled_final/1215_fw.mp4	0.0	307.8363461494446	
65	283.6921000480652	fix_post	2		12	63.0	2.5	/experiments/knapen_AOT/AOT_stimuli/rescaled_final/1215_fw.mp4	0.0	308.34457206726074	0.09993314743041992
66	283.7920331954956	fix_pre	0		120	64.0	2.5	/experiments/knapen_AOT/AOT_stimuli/rescaled_final/0123_fw.mp4	0.0	308.44450521469116	1.000175952911377
66	284.78414511680603	pulse	0	t		64.0	2.5	/experiments/knapen_AOT/AOT_stimuli/rescaled_final/0123_fw.mp4	0.0	309.4366171360016	
66	284.792209148407	movie	1		245	64.0	2.5	/experiments/knapen_AOT/AOT_stimuli/rescaled_final/0123_fw.mp4	0.0	309.44468116760254	2.508692979812622
66	286.3850860595703	pulse	1	t		64.0	2.5	/experiments/knapen_AOT/AOT_stimuli/rescaled_final/0123_fw.mp4	0.0	311.03755807876587	
66	287.3009021282196	fix_post	2		12	64.0	2.5	/experiments/knapen_AOT/AOT_stimuli/rescaled_final/0123_fw.mp4	0.0	311.95337414741516	0.09998607635498047
67	287.4008882045746	fix_pre	0		120	65.0	2.5	/experiments/knapen_AOT/AOT_stimuli/rescaled_final/1194_fw.mp4	0.0	312.05336022377014	1.0001559257507324
67	287.9844720363617	pulse	0	t		65.0	2.5	/experiments/knapen_AOT/AOT_stimuli/rescaled_final/1194_fw.mp4	0.0	312.63694405555725	
67	288.4010441303253	movie	1		248	65.0	2.5	/experiments/knapen_AOT/AOT_stimuli/rescaled_final/1194_fw.mp4	0.0	313.0535161495209	2.500415086746216
67	289.5848591327667	pulse	1	t		65.0	2.5	/experiments/knapen_AOT/AOT_stimuli/rescaled_final/1194_fw.mp4	0.0	314.2373311519623	
67	290.90145921707153	fix_post	2		12	65.0	2.5	/experiments/knapen_AOT/AOT_stimuli/rescaled_final/1194_fw.mp4	0.0	315.5539312362671	0.09998393058776855
68	291.0014431476593	fix_pre	0		120	66.0	2.5	/experiments/knapen_AOT/AOT_stimuli/rescaled_final/0377_rv.mp4	0.0	315.65391516685486	1.0001158714294434
68	291.1850252151489	pulse	0	t		66.0	2.5	/experiments/knapen_AOT/AOT_stimuli/rescaled_final/0377_rv.mp4	0.0	315.8374972343445	
68	292.00155901908875	movie	1		245	66.0	2.5	/experiments/knapen_AOT/AOT_stimuli/rescaled_final/0377_rv.mp4	0.0	316.6540310382843	2.5004019737243652
68	292.78533601760864	pulse	1	t		66.0	2.5	/experiments/knapen_AOT/AOT_stimuli/rescaled_final/0377_rv.mp4	0.0	317.4378080368042	
68	294.38304901123047	pulse	1	t		66.0	2.5	/experiments/knapen_AOT/AOT_stimuli/rescaled_final/0377_rv.mp4	0.0	319.035521030426	
68	294.5019609928131	fix_post	2		12	66.0	2.5	/experiments/knapen_AOT/AOT_stimuli/rescaled_final/0377_rv.mp4	0.0	319.15443301200867	0.09997916221618652
69	294.6019401550293	fix_pre	0		120	67.0	2.5	/experiments/knapen_AOT/AOT_stimuli/rescaled_final/0680_rv.mp4	0.0	319.25441217422485	1.00022292137146
69	295.60216307640076	movie	1		243	67.0	2.5	/experiments/knapen_AOT/AOT_stimuli/rescaled_final/0680_rv.mp4	0.0	320.2546350955963	2.4920079708099365
69	295.9868950843811	pulse	1	t		67.0	2.5	/experiments/knapen_AOT/AOT_stimuli/rescaled_final/0680_rv.mp4	0.0	320.63936710357666	
69	297.5860300064087	pulse	1	t		67.0	2.5	/experiments/knapen_AOT/AOT_stimuli/rescaled_final/0680_rv.mp4	0.0	322.23850202560425	
69	298.0941710472107	fix_post	2		12	67.0	2.5	/experiments/knapen_AOT/AOT_stimuli/rescaled_final/0680_rv.mp4	0.0	322.74664306640625	0.10000801086425781
70	298.19417905807495	fix_pre	0		120	68.0	2.5	blank	1.0	322.8466510772705	1.0001370906829834
70	299.1863172054291	pulse	0	t		68.0	2.5	blank	1.0	323.83878922462463	
70	299.19431614875793	movie	1		301	68.0	2.5	blank	1.0	323.8467881679535	2.5087220668792725
70	300.78648614883423	pulse	1	t		68.0	2.5	blank	1.0	325.4389581680298	
70	301.7030382156372	fix_post	2		12	68.0	2.5	blank	1.0	326.35551023483276	0.09995889663696289
71	301.80299711227417	fix_pre	0		120	69.0	2.5	/experiments/knapen_AOT/AOT_stimuli/rescaled_final/0090_fw.mp4	0.0	326.4554691314697	1.0001800060272217
71	302.37924909591675	pulse	0	t		69.0	2.5	/experiments/knapen_AOT/AOT_stimuli/rescaled_final/0090_fw.mp4	0.0	327.0317211151123	
71	302.8031771183014	movie	1		245	69.0	2.5	/experiments/knapen_AOT/AOT_stimuli/rescaled_final/0090_fw.mp4	0.0	327.45564913749695	2.500441074371338
71	303.9793281555176	pulse	1	t		69.0	2.5	/experiments/knapen_AOT/AOT_stimuli/rescaled_final/0090_fw.mp4	0.0	328.63180017471313	
71	305.30361819267273	fix_post	2		12	69.0	2.5	/experiments/knapen_AOT/AOT_stimuli/rescaled_final/0090_fw.mp4	0.0	329.9560902118683	0.09996581077575684
72	305.4035840034485	fix_pre	0		120	70.0	2.5	/experiments/knapen_AOT/AOT_stimuli/rescaled_final/1781_fw.mp4	0.0	330.05605602264404	1.0001521110534668
72	305.5796790122986	pulse	0	t		70.0	2.5	/experiments/knapen_AOT/AOT_stimuli/rescaled_final/1781_fw.mp4	0.0	330.23215103149414	
72	306.40373611450195	movie	1		245	70.0	2.5	/experiments/knapen_AOT/AOT_stimuli/rescaled_final/1781_fw.mp4	0.0	331.0562081336975	2.5004029273986816
72	307.1798961162567	pulse	1	t		70.0	2.5	/experiments/knapen_AOT/AOT_stimuli/rescaled_final/1781_fw.mp4	0.0	331.83236813545227	
72	308.7794370651245	pulse	1	t		70.0	2.5	/experiments/knapen_AOT/AOT_stimuli/rescaled_final/1781_fw.mp4	0.0	333.43190908432007	
72	308.90413904190063	fix_post	2		12	70.0	2.5	/experiments/knapen_AOT/AOT_stimuli/rescaled_final/1781_fw.mp4	0.0	333.5566110610962	0.09995317459106445
73	309.0040922164917	fix_pre	0		120	71.0	2.5	/experiments/knapen_AOT/AOT_stimuli/rescaled_final/1414_rv.mp4	0.0	333.65656423568726	1.0001928806304932
73	310.0042850971222	movie	1		243	71.0	2.5	/experiments/knapen_AOT/AOT_stimuli/rescaled_final/1414_rv.mp4	0.0	334.65675711631775	2.492029905319214
73	310.3794641494751	pulse	1	t		71.0	2.5	/experiments/knapen_AOT/AOT_stimuli/rescaled_final/1414_rv.mp4	0.0	335.03193616867065	
73	311.9798090457916	pulse	1	t		71.0	2.5	/experiments/knapen_AOT/AOT_stimuli/rescaled_final/1414_rv.mp4	0.0	336.6322810649872	
73	312.4963150024414	fix_post	2		12	71.0	2.5	/experiments/knapen_AOT/AOT_stimuli/rescaled_final/1414_rv.mp4	0.0	337.14878702163696	0.09997010231018066
74	312.5962851047516	fix_pre	0		119	72.0	2.5	/experiments/knapen_AOT/AOT_stimuli/rescaled_final/1610_fw.mp4	0.0	337.24875712394714	0.9918420314788818
74	313.57993721961975	pulse	0	t		72.0	2.5	/experiments/knapen_AOT/AOT_stimuli/rescaled_final/1610_fw.mp4	0.0	338.2324092388153	
74	313.58812713623047	movie	1		246	72.0	2.5	/experiments/knapen_AOT/AOT_stimuli/rescaled_final/1610_fw.mp4	0.0	338.240599155426	2.5087170600891113
74	315.1809821128845	pulse	1	t		72.0	2.5	/experiments/knapen_AOT/AOT_stimuli/rescaled_final/1610_fw.mp4	0.0	339.8334541320801	
74	316.0968441963196	fix_post	2		12	72.0	2.5	/experiments/knapen_AOT/AOT_stimuli/rescaled_final/1610_fw.mp4	0.0	340.74931621551514	0.10001802444458008
75	316.19686222076416	fix_pre	0		120	73.0	2.5	/experiments/knapen_AOT/AOT_stimuli/rescaled_final/1334_fw.mp4	0.0	340.8493342399597	1.0001637935638428
75	316.78042817115784	pulse	0	t		73.0	2.5	/experiments/knapen_AOT/AOT_stimuli/rescaled_final/1334_fw.mp4	0.0	341.4329001903534	
75	317.197026014328	movie	1		244	73.0	2.5	/experiments/knapen_AOT/AOT_stimuli/rescaled_final/1334_fw.mp4	0.0	341.84949803352356	2.5003511905670166
75	318.380823135376	pulse	1	t		73.0	2.5	/experiments/knapen_AOT/AOT_stimuli/rescaled_final/1334_fw.mp4	0.0	343.03329515457153	
75	319.697377204895	fix_post	2		12	73.0	2.5	/experiments/knapen_AOT/AOT_stimuli/rescaled_final/1334_fw.mp4	0.0	344.3498492240906	0.09997200965881348
76	319.79734921455383	fix_pre	0		120	74.0	2.5	/experiments/knapen_AOT/AOT_stimuli/rescaled_final/1436_fw.mp4	0.0	344.4498212337494	1.0002069473266602
76	319.9809250831604	pulse	0	t		74.0	2.5	/experiments/knapen_AOT/AOT_stimuli/rescaled_final/1436_fw.mp4	0.0	344.63339710235596	
76	320.7975561618805	movie	1		244	74.0	2.5	/experiments/knapen_AOT/AOT_stimuli/rescaled_final/1436_fw.mp4	0.0	345.45002818107605	2.5003950595855713
76	321.58120608329773	pulse	1	t		74.0	2.5	/experiments/knapen_AOT/AOT_stimuli/rescaled_final/1436_fw.mp4	0.0	346.2336781024933	
76	323.18139719963074	pulse	1	t		74.0	2.5	/experiments/knapen_AOT/AOT_stimuli/rescaled_final/1436_fw.mp4	0.0	347.8338692188263	
76	323.29795122146606	fix_post	2		12	74.0	2.5	/experiments/knapen_AOT/AOT_stimuli/rescaled_final/1436_fw.mp4	0.0	347.9504232406616	0.09996294975280762
77	323.3979141712189	fix_pre	0		120	75.0	2.5	/experiments/knapen_AOT/AOT_stimuli/rescaled_final/0454_rv.mp4	0.0	348.05038619041443	1.0002360343933105
77	324.3981502056122	movie	1		244	75.0	2.5	/experiments/knapen_AOT/AOT_stimuli/rescaled_final/0454_rv.mp4	0.0	349.05062222480774	2.492041826248169
77	324.78672313690186	pulse	1	t		75.0	2.5	/experiments/knapen_AOT/AOT_stimuli/rescaled_final/0454_rv.mp4	0.0	349.4391951560974	
77	326.38195514678955	pulse	1	t		75.0	2.5	/experiments/knapen_AOT/AOT_stimuli/rescaled_final/0454_rv.mp4	0.0	351.0344271659851	
77	326.89019203186035	fix_post	2		12	75.0	2.5	/experiments/knapen_AOT/AOT_stimuli/rescaled_final/0454_rv.mp4	0.0	351.5426640510559	0.09995007514953613
78	326.9901421070099	fix_pre	0		120	76.0	2.5	blank	1.0	351.64261412620544	1.0001380443572998
78	327.9821472167969	pulse	0	t		76.0	2.5	blank	1.0	352.63461923599243	
78	327.9902801513672	movie	1		301	76.0	2.5	blank	1.0	352.64275217056274	2.508723020553589
78	329.58238220214844	pulse	1	t		76.0	2.5	blank	1.0	354.234854221344	
78	330.4990031719208	fix_post	2		12	76.0	2.5	blank	1.0	355.15147519111633	0.09997987747192383
79	330.5989830493927	fix_pre	0		120	77.0	2.5	/experiments/knapen_AOT/AOT_stimuli/rescaled_final/0275_rv.mp4	0.0	355.25145506858826	1.0001661777496338
79	331.18260312080383	pulse	0	t		77.0	2.5	/experiments/knapen_AOT/AOT_stimuli/rescaled_final/0275_rv.mp4	0.0	355.8350751399994	
79	331.59914922714233	movie	1		244	77.0	2.5	/experiments/knapen_AOT/AOT_stimuli/rescaled_final/0275_rv.mp4	0.0	356.2516212463379	2.50042986869812
79	332.7829930782318	pulse	1	t		77.0	2.5	/experiments/knapen_AOT/AOT_stimuli/rescaled_final/0275_rv.mp4	0.0	357.43546509742737	
79	334.09957909584045	fix_post	2		12	77.0	2.5	/experiments/knapen_AOT/AOT_stimuli/rescaled_final/0275_rv.mp4	0.0	358.752051115036	0.10008692741394043
80	334.1996660232544	fix_pre	0		120	78.0	2.5	/experiments/knapen_AOT/AOT_stimuli/rescaled_final/1648_rv.mp4	0.0	358.85213804244995	1.0000901222229004
80	334.38311100006104	pulse	0	t		78.0	2.5	/experiments/knapen_AOT/AOT_stimuli/rescaled_final/1648_rv.mp4	0.0	359.0355830192566	
80	335.1997561454773	movie	1		244	78.0	2.5	/experiments/knapen_AOT/AOT_stimuli/rescaled_final/1648_rv.mp4	0.0	359.85222816467285	2.500369071960449
80	335.98334312438965	pulse	1	t		78.0	2.5	/experiments/knapen_AOT/AOT_stimuli/rescaled_final/1648_rv.mp4	0.0	360.6358151435852	
80	337.5836601257324	pulse	1	t		78.0	2.5	/experiments/knapen_AOT/AOT_stimuli/rescaled_final/1648_rv.mp4	0.0	362.236132144928	
80	337.70012521743774	fix_post	2		12	78.0	2.5	/experiments/knapen_AOT/AOT_stimuli/rescaled_final/1648_rv.mp4	0.0	362.3525972366333	0.0999138355255127
81	337.80003905296326	fix_pre	0		119	79.0	2.5	/experiments/knapen_AOT/AOT_stimuli/rescaled_final/0515_rv.mp4	0.0	362.4525110721588	0.9918761253356934
81	338.79191517829895	movie	1		245	79.0	2.5	/experiments/knapen_AOT/AOT_stimuli/rescaled_final/0515_rv.mp4	0.0	363.4443871974945	2.5003609657287598
81	339.1838631629944	pulse	1	t		79.0	2.5	/experiments/knapen_AOT/AOT_stimuli/rescaled_final/0515_rv.mp4	0.0	363.83633518218994	
81	340.7841022014618	pulse	1	t		79.0	2.5	/experiments/knapen_AOT/AOT_stimuli/rescaled_final/0515_rv.mp4	0.0	365.43657422065735	
81	341.2922761440277	fix_post	2		12	79.0	2.5	/experiments/knapen_AOT/AOT_stimuli/rescaled_final/0515_rv.mp4	0.0	365.94474816322327	0.09999704360961914
82	341.39227318763733	fix_pre	0		120	80.0	2.5	/experiments/knapen_AOT/AOT_stimuli/rescaled_final/0810_fw.mp4	0.0	366.0447452068329	1.000234842300415
82	342.3842990398407	pulse	0	t		80.0	2.5	/experiments/knapen_AOT/AOT_stimuli/rescaled_final/0810_fw.mp4	0.0	367.03677105903625	
82	342.39250802993774	movie	1		246	80.0	2.5	/experiments/knapen_AOT/AOT_stimuli/rescaled_final/0810_fw.mp4	0.0	367.0449800491333	2.5086381435394287
82	343.9849500656128	pulse	1	t		80.0	2.5	/experiments/knapen_AOT/AOT_stimuli/rescaled_final/0810_fw.mp4	0.0	368.63742208480835	
82	344.9011461734772	fix_post	2		12	80.0	2.5	/experiments/knapen_AOT/AOT_stimuli/rescaled_final/0810_fw.mp4	0.0	369.55361819267273	0.09997892379760742
83	345.0011250972748	fix_pre	0		120	81.0	2.5	/experiments/knapen_AOT/AOT_stimuli/rescaled_final/0813_rv.mp4	0.0	369.65359711647034	1.0001749992370605
83	345.58486008644104	pulse	0	t		81.0	2.5	/experiments/knapen_AOT/AOT_stimuli/rescaled_final/0813_rv.mp4	0.0	370.2373321056366	
83	346.00130009651184	movie	1		244	81.0	2.5	/experiments/knapen_AOT/AOT_stimuli/rescaled_final/0813_rv.mp4	0.0	370.6537721157074	2.5003559589385986
83	347.18522906303406	pulse	1	t		81.0	2.5	/experiments/knapen_AOT/AOT_stimuli/rescaled_final/0813_rv.mp4	0.0	371.8377010822296	
83	348.50165605545044	fix_post	2		12	81.0	2.5	/experiments/knapen_AOT/AOT_stimuli/rescaled_final/0813_rv.mp4	0.0	373.154128074646	0.10001015663146973
84	348.6016662120819	fix_pre	0		120	82.0	2.5	/experiments/knapen_AOT/AOT_stimuli/rescaled_final/0123_rv.mp4	0.0	373.25413823127747	1.0001637935638428
84	348.78532218933105	pulse	0	t		82.0	2.5	/experiments/knapen_AOT/AOT_stimuli/rescaled_final/0123_rv.mp4	0.0	373.4377942085266	
84	349.60183000564575	movie	1		243	82.0	2.5	/experiments/knapen_AOT/AOT_stimuli/rescaled_final/0123_rv.mp4	0.0	374.2543020248413	2.5004000663757324
84	350.38543820381165	pulse	1	t		82.0	2.5	/experiments/knapen_AOT/AOT_stimuli/rescaled_final/0123_rv.mp4	0.0	375.0379102230072	
84	351.9857120513916	pulse	1	t		82.0	2.5	/experiments/knapen_AOT/AOT_stimuli/rescaled_final/0123_rv.mp4	0.0	376.63818407058716	
84	352.1022300720215	fix_post	2		12	82.0	2.5	/experiments/knapen_AOT/AOT_stimuli/rescaled_final/0123_rv.mp4	0.0	376.75470209121704	0.100006103515625
85	352.2022361755371	fix_pre	0		120	83.0	2.5	blank	1.0	376.85470819473267	1.0001180171966553
85	353.20235419273376	movie	1		299	83.0	2.5	blank	1.0	377.8548262119293	2.492079973220825
85	353.58602714538574	pulse	1	t		83.0	2.5	blank	1.0	378.2384991645813	
85	355.186243057251	pulse	1	t		83.0	2.5	blank	1.0	379.83871507644653	
85	355.6944341659546	fix_post	2		12	83.0	2.5	blank	1.0	380.34690618515015	0.09996700286865234
87	355.79440116882324	stim	0		1716					380.4468731880188	14.30224895477295
87	356.77917098999023	pulse	0	t						381.4316430091858	
87	358.3865911960602	pulse	0	t						383.03906321525574	
87	359.9794862270355	pulse	0	t						384.6319582462311	
87	361.57967805862427	pulse	0	t						386.2321500778198	
87	363.17894315719604	pulse	0	t						387.8314151763916	
87	364.77925300598145	pulse	0	t						389.431725025177	
87	366.37943720817566	pulse	0	t						391.0319092273712	
87	367.9797902107239	pulse	0	t						392.63226222991943	
87	369.5800371170044	pulse	0	t						394.23250913619995	
