trial_nr	onset	event_type	phase	response	nr_frames	movie_index	movie_duration	movie_file	blank	onset_abs	duration
0	0.20826983451843262	stim	0		195					32.16235399246216	1.625101089477539
0	1.8252208232879639	response	0	space						33.77930498123169	
1	1.8333709239959717	stim	0		4854					33.7874550819397	40.4850800037384
1	42.30361986160278	pulse	0	t						74.25770401954651	
1	42.318450927734375	stim	1		1715					74.2725350856781	14.298134088516235
1	43.89812684059143	pulse	1	t						75.85221099853516	
1	45.49845099449158	pulse	1	t						77.4525351524353	
1	47.09869194030762	pulse	1	t						79.05277609825134	
1	48.69894599914551	pulse	1	t						80.65303015708923	
1	50.29905986785889	pulse	1	t						82.25314402580261	
1	51.899271965026855	pulse	1	t						83.85335612297058	
1	53.49966883659363	pulse	1	t						85.45375299453735	
1	55.099867820739746	pulse	1	t						87.05395197868347	
2	56.61658501625061	fix_pre	0		11	0.0	2.5	/experiments/knapen_AOT/AOT_stimuli/rescaled_final/0269_fw.mp4	0.0	88.57066917419434	0.1001429557800293
2	56.70004391670227	pulse	0	t		0.0	2.5	/experiments/knapen_AOT/AOT_stimuli/rescaled_final/0269_fw.mp4	0.0	88.654128074646	
2	56.71672797203064	movie	1		245	0.0	2.5	/experiments/knapen_AOT/AOT_stimuli/rescaled_final/0269_fw.mp4	0.0	88.67081212997437	2.5002479553222656
2	58.300896883010864	pulse	1	t		0.0	2.5	/experiments/knapen_AOT/AOT_stimuli/rescaled_final/0269_fw.mp4	0.0	90.25498104095459	
2	59.216975927352905	fix_post	2		12	0.0	2.5	/experiments/knapen_AOT/AOT_stimuli/rescaled_final/0269_fw.mp4	0.0	91.17106008529663	0.09999489784240723
3	59.31697082519531	fix_pre	0		120	1.0	2.5	/experiments/knapen_AOT/AOT_stimuli/rescaled_final/1710_fw.mp4	0.0	91.27105498313904	1.0001440048217773
3	59.90059685707092	pulse	0	t		1.0	2.5	/experiments/knapen_AOT/AOT_stimuli/rescaled_final/1710_fw.mp4	0.0	91.85468101501465	
3	60.31711483001709	movie	1		247	1.0	2.5	/experiments/knapen_AOT/AOT_stimuli/rescaled_final/1710_fw.mp4	0.0	92.27119898796082	2.5003411769866943
3	61.496280908584595	pulse	1	t		1.0	2.5	/experiments/knapen_AOT/AOT_stimuli/rescaled_final/1710_fw.mp4	0.0	93.45036506652832	
3	62.817456007003784	fix_post	2		12	1.0	2.5	/experiments/knapen_AOT/AOT_stimuli/rescaled_final/1710_fw.mp4	0.0	94.77154016494751	0.10000395774841309
4	62.9174599647522	fix_pre	0		120	2.0	2.5	/experiments/knapen_AOT/AOT_stimuli/rescaled_final/0068_rv.mp4	0.0	94.87154412269592	1.0002639293670654
4	63.093565940856934	pulse	0	t		2.0	2.5	/experiments/knapen_AOT/AOT_stimuli/rescaled_final/0068_rv.mp4	0.0	95.04765009880066	
4	63.91772389411926	movie	1		246	2.0	2.5	/experiments/knapen_AOT/AOT_stimuli/rescaled_final/0068_rv.mp4	0.0	95.87180805206299	2.500303030014038
4	64.69403004646301	pulse	1	t		2.0	2.5	/experiments/knapen_AOT/AOT_stimuli/rescaled_final/0068_rv.mp4	0.0	96.64811420440674	
4	66.29399394989014	pulse	1	t		2.0	2.5	/experiments/knapen_AOT/AOT_stimuli/rescaled_final/0068_rv.mp4	0.0	98.24807810783386	
4	66.4180269241333	fix_post	2		12	2.0	2.5	/experiments/knapen_AOT/AOT_stimuli/rescaled_final/0068_rv.mp4	0.0	98.37211108207703	0.10003209114074707
5	66.51805901527405	fix_pre	0		120	3.0	2.5	/experiments/knapen_AOT/AOT_stimuli/rescaled_final/1785_rv.mp4	0.0	98.47214317321777	1.0001258850097656
5	67.51818490028381	movie	1		245	3.0	2.5	/experiments/knapen_AOT/AOT_stimuli/rescaled_final/1785_rv.mp4	0.0	99.47226905822754	2.492077112197876
5	67.89346504211426	pulse	1	t		3.0	2.5	/experiments/knapen_AOT/AOT_stimuli/rescaled_final/1785_rv.mp4	0.0	99.84754920005798	
5	69.49371290206909	pulse	1	t		3.0	2.5	/experiments/knapen_AOT/AOT_stimuli/rescaled_final/1785_rv.mp4	0.0	101.44779706001282	
5	70.01026201248169	fix_post	2		12	3.0	2.5	/experiments/knapen_AOT/AOT_stimuli/rescaled_final/1785_rv.mp4	0.0	101.96434617042542	0.0999298095703125
6	70.110191822052	fix_pre	0		119	4.0	2.5	/experiments/knapen_AOT/AOT_stimuli/rescaled_final/0753_rv.mp4	0.0	102.06427597999573	0.9918382167816162
6	71.09383893013	pulse	0	t		4.0	2.5	/experiments/knapen_AOT/AOT_stimuli/rescaled_final/0753_rv.mp4	0.0	103.04792308807373	
6	71.10203003883362	movie	1		248	4.0	2.5	/experiments/knapen_AOT/AOT_stimuli/rescaled_final/0753_rv.mp4	0.0	103.05611419677734	2.508711814880371
6	72.69476199150085	pulse	1	t		4.0	2.5	/experiments/knapen_AOT/AOT_stimuli/rescaled_final/0753_rv.mp4	0.0	104.64884614944458	
6	73.61074185371399	fix_post	2		12	4.0	2.5	/experiments/knapen_AOT/AOT_stimuli/rescaled_final/0753_rv.mp4	0.0	105.56482601165771	0.10002613067626953
7	73.71076798439026	fix_pre	0		120	5.0	2.5	/experiments/knapen_AOT/AOT_stimuli/rescaled_final/0428_fw.mp4	0.0	105.66485214233398	1.000148057937622
7	74.29443883895874	pulse	0	t		5.0	2.5	/experiments/knapen_AOT/AOT_stimuli/rescaled_final/0428_fw.mp4	0.0	106.24852299690247	
7	74.71091604232788	movie	1		247	5.0	2.5	/experiments/knapen_AOT/AOT_stimuli/rescaled_final/0428_fw.mp4	0.0	106.6650002002716	2.5004329681396484
7	75.89467287063599	pulse	1	t		5.0	2.5	/experiments/knapen_AOT/AOT_stimuli/rescaled_final/0428_fw.mp4	0.0	107.84875702857971	
7	77.21134901046753	fix_post	2		12	5.0	2.5	/experiments/knapen_AOT/AOT_stimuli/rescaled_final/0428_fw.mp4	0.0	109.16543316841125	0.09994983673095703
8	77.31129884719849	fix_pre	0		120	6.0	2.5	blank	1.0	109.26538300514221	1.0001461505889893
8	77.49485492706299	pulse	0	t		6.0	2.5	blank	1.0	109.44893908500671	
8	78.31144499778748	movie	1		300	6.0	2.5	blank	1.0	110.2655291557312	2.5003888607025146
8	79.09506702423096	pulse	1	t		6.0	2.5	blank	1.0	111.04915118217468	
8	80.69531488418579	pulse	1	t		6.0	2.5	blank	1.0	112.64939904212952	
8	80.81183385848999	fix_post	2		12	6.0	2.5	blank	1.0	112.76591801643372	0.10002708435058594
9	80.91186094284058	fix_pre	0		120	7.0	2.5	/experiments/knapen_AOT/AOT_stimuli/rescaled_final/0913_fw.mp4	0.0	112.8659451007843	1.000119924545288
9	81.91198086738586	movie	1		246	7.0	2.5	/experiments/knapen_AOT/AOT_stimuli/rescaled_final/0913_fw.mp4	0.0	113.86606502532959	2.4920270442962646
9	82.29593896865845	pulse	1	t		7.0	2.5	/experiments/knapen_AOT/AOT_stimuli/rescaled_final/0913_fw.mp4	0.0	114.25002312660217	
9	83.89581298828125	pulse	1	t		7.0	2.5	/experiments/knapen_AOT/AOT_stimuli/rescaled_final/0913_fw.mp4	0.0	115.84989714622498	
9	84.40400791168213	fix_post	2		12	7.0	2.5	/experiments/knapen_AOT/AOT_stimuli/rescaled_final/0913_fw.mp4	0.0	116.35809206962585	0.09999895095825195
10	84.50400686264038	fix_pre	0		120	8.0	2.5	/experiments/knapen_AOT/AOT_stimuli/rescaled_final/1785_fw.mp4	0.0	116.4580910205841	1.000169038772583
10	85.4960458278656	pulse	0	t		8.0	2.5	/experiments/knapen_AOT/AOT_stimuli/rescaled_final/1785_fw.mp4	0.0	117.45012998580933	
10	85.50417590141296	movie	1		247	8.0	2.5	/experiments/knapen_AOT/AOT_stimuli/rescaled_final/1785_fw.mp4	0.0	117.45826005935669	2.5087900161743164
10	87.09701895713806	pulse	1	t		8.0	2.5	/experiments/knapen_AOT/AOT_stimuli/rescaled_final/1785_fw.mp4	0.0	119.05110311508179	
10	88.01296591758728	fix_post	2		12	8.0	2.5	/experiments/knapen_AOT/AOT_stimuli/rescaled_final/1785_fw.mp4	0.0	119.967050075531	0.09995198249816895
11	88.11291790008545	fix_pre	0		120	9.0	2.5	/experiments/knapen_AOT/AOT_stimuli/rescaled_final/1841_rv.mp4	0.0	120.06700205802917	1.0001931190490723
11	88.69655990600586	pulse	0	t		9.0	2.5	/experiments/knapen_AOT/AOT_stimuli/rescaled_final/1841_rv.mp4	0.0	120.65064406394958	
11	89.11311101913452	movie	1		247	9.0	2.5	/experiments/knapen_AOT/AOT_stimuli/rescaled_final/1841_rv.mp4	0.0	121.06719517707825	2.50042986869812
11	90.29687881469727	pulse	1	t		9.0	2.5	/experiments/knapen_AOT/AOT_stimuli/rescaled_final/1841_rv.mp4	0.0	122.25096297264099	
11	91.61354088783264	fix_post	2		12	9.0	2.5	/experiments/knapen_AOT/AOT_stimuli/rescaled_final/1841_rv.mp4	0.0	123.56762504577637	0.09991598129272461
12	91.71345686912537	fix_pre	0		120	10.0	2.5	/experiments/knapen_AOT/AOT_stimuli/rescaled_final/1833_fw.mp4	0.0	123.66754102706909	1.0001130104064941
12	91.89698481559753	pulse	0	t		10.0	2.5	/experiments/knapen_AOT/AOT_stimuli/rescaled_final/1833_fw.mp4	0.0	123.85106897354126	
12	92.71356987953186	movie	1		246	10.0	2.5	/experiments/knapen_AOT/AOT_stimuli/rescaled_final/1833_fw.mp4	0.0	124.66765403747559	2.500504970550537
12	93.49730682373047	pulse	1	t		10.0	2.5	/experiments/knapen_AOT/AOT_stimuli/rescaled_final/1833_fw.mp4	0.0	125.4513909816742	
12	95.09754991531372	pulse	1	t		10.0	2.5	/experiments/knapen_AOT/AOT_stimuli/rescaled_final/1833_fw.mp4	0.0	127.05163407325745	
12	95.2140748500824	fix_post	2		12	10.0	2.5	/experiments/knapen_AOT/AOT_stimuli/rescaled_final/1833_fw.mp4	0.0	127.16815900802612	0.09989714622497559
13	95.31397199630737	fix_pre	0		120	11.0	2.5	/experiments/knapen_AOT/AOT_stimuli/rescaled_final/0047_fw.mp4	0.0	127.2680561542511	1.0001380443572998
13	96.31411004066467	movie	1		245	11.0	2.5	/experiments/knapen_AOT/AOT_stimuli/rescaled_final/0047_fw.mp4	0.0	128.2681941986084	2.492076873779297
13	96.69805002212524	pulse	1	t		11.0	2.5	/experiments/knapen_AOT/AOT_stimuli/rescaled_final/0047_fw.mp4	0.0	128.65213418006897	
13	98.29801082611084	pulse	1	t		11.0	2.5	/experiments/knapen_AOT/AOT_stimuli/rescaled_final/0047_fw.mp4	0.0	130.25209498405457	
13	98.80618691444397	fix_post	2		12	11.0	2.5	/experiments/knapen_AOT/AOT_stimuli/rescaled_final/0047_fw.mp4	0.0	130.7602710723877	0.10001707077026367
14	98.90620398521423	fix_pre	0		120	12.0	2.5	/experiments/knapen_AOT/AOT_stimuli/rescaled_final/0406_rv.mp4	0.0	130.86028814315796	1.000196933746338
14	99.89822292327881	pulse	0	t		12.0	2.5	/experiments/knapen_AOT/AOT_stimuli/rescaled_final/0406_rv.mp4	0.0	131.85230708122253	
14	99.90640091896057	movie	1		247	12.0	2.5	/experiments/knapen_AOT/AOT_stimuli/rescaled_final/0406_rv.mp4	0.0	131.8604850769043	2.508618116378784
14	101.50305581092834	pulse	1	t		12.0	2.5	/experiments/knapen_AOT/AOT_stimuli/rescaled_final/0406_rv.mp4	0.0	133.45713996887207	
14	102.41501903533936	fix_post	2		12	12.0	2.5	/experiments/knapen_AOT/AOT_stimuli/rescaled_final/0406_rv.mp4	0.0	134.36910319328308	0.09997677803039551
15	102.51499581336975	fix_pre	0		120	13.0	2.5	/experiments/knapen_AOT/AOT_stimuli/rescaled_final/0507_fw.mp4	0.0	134.46907997131348	1.0002291202545166
15	103.09873104095459	pulse	0	t		13.0	2.5	/experiments/knapen_AOT/AOT_stimuli/rescaled_final/0507_fw.mp4	0.0	135.05281519889832	
15	103.51522493362427	movie	1		244	13.0	2.5	/experiments/knapen_AOT/AOT_stimuli/rescaled_final/0507_fw.mp4	0.0	135.469309091568	2.5003180503845215
15	104.69897890090942	pulse	1	t		13.0	2.5	/experiments/knapen_AOT/AOT_stimuli/rescaled_final/0507_fw.mp4	0.0	136.65306305885315	
15	106.01554298400879	fix_post	2		12	13.0	2.5	/experiments/knapen_AOT/AOT_stimuli/rescaled_final/0507_fw.mp4	0.0	137.96962714195251	0.10001897811889648
16	106.11556196212769	fix_pre	0		120	14.0	2.5	blank	1.0	138.0696461200714	1.0001850128173828
16	106.2992308139801	pulse	0	t		14.0	2.5	blank	1.0	138.25331497192383	
16	107.11574697494507	movie	1		300	14.0	2.5	blank	1.0	139.0698311328888	2.5003950595855713
16	107.89954495429993	pulse	1	t		14.0	2.5	blank	1.0	139.85362911224365	
16	109.49963998794556	pulse	1	t		14.0	2.5	blank	1.0	141.45372414588928	
16	109.61614203453064	fix_post	2		12	14.0	2.5	blank	1.0	141.57022619247437	0.10004687309265137
17	109.71618890762329	fix_pre	0		120	15.0	2.5	/experiments/knapen_AOT/AOT_stimuli/rescaled_final/0047_fw.mp4	0.0	141.67027306556702	1.0000510215759277
17	110.71623992919922	movie	1		244	15.0	2.5	/experiments/knapen_AOT/AOT_stimuli/rescaled_final/0047_fw.mp4	0.0	142.67032408714294	2.4920880794525146
17	111.1010890007019	pulse	1	t		15.0	2.5	/experiments/knapen_AOT/AOT_stimuli/rescaled_final/0047_fw.mp4	0.0	143.05517315864563	
17	112.70009183883667	pulse	1	t		15.0	2.5	/experiments/knapen_AOT/AOT_stimuli/rescaled_final/0047_fw.mp4	0.0	144.6541759967804	
17	113.20832800865173	fix_post	2		12	15.0	2.5	/experiments/knapen_AOT/AOT_stimuli/rescaled_final/0047_fw.mp4	0.0	145.16241216659546	0.10003900527954102
18	113.30836701393127	fix_pre	0		120	16.0	2.5	/experiments/knapen_AOT/AOT_stimuli/rescaled_final/0374_fw.mp4	0.0	145.262451171875	1.0001428127288818
18	114.3004949092865	pulse	0	t		16.0	2.5	/experiments/knapen_AOT/AOT_stimuli/rescaled_final/0374_fw.mp4	0.0	146.25457906723022	
18	114.30850982666016	movie	1		247	16.0	2.5	/experiments/knapen_AOT/AOT_stimuli/rescaled_final/0374_fw.mp4	0.0	146.26259398460388	2.508730173110962
18	115.90098285675049	pulse	1	t		16.0	2.5	/experiments/knapen_AOT/AOT_stimuli/rescaled_final/0374_fw.mp4	0.0	147.8550670146942	
18	116.81723999977112	fix_post	2		8	16.0	2.5	/experiments/knapen_AOT/AOT_stimuli/rescaled_final/0374_fw.mp4	0.0	148.77132415771484	0.09995889663696289
19	116.91719889640808	fix_pre	0		120	17.0	2.5	/experiments/knapen_AOT/AOT_stimuli/rescaled_final/0848_rv.mp4	0.0	148.8712830543518	1.0001580715179443
19	117.49338793754578	pulse	0	t		17.0	2.5	/experiments/knapen_AOT/AOT_stimuli/rescaled_final/0848_rv.mp4	0.0	149.4474720954895	
19	117.91735696792603	movie	1		246	17.0	2.5	/experiments/knapen_AOT/AOT_stimuli/rescaled_final/0848_rv.mp4	0.0	149.87144112586975	2.5005240440368652
19	119.0932388305664	pulse	1	t		17.0	2.5	/experiments/knapen_AOT/AOT_stimuli/rescaled_final/0848_rv.mp4	0.0	151.04732298851013	
19	120.41788101196289	fix_post	2		12	17.0	2.5	/experiments/knapen_AOT/AOT_stimuli/rescaled_final/0848_rv.mp4	0.0	152.37196516990662	0.09983587265014648
20	120.51771688461304	fix_pre	0		120	18.0	2.5	/experiments/knapen_AOT/AOT_stimuli/rescaled_final/1735_fw.mp4	0.0	152.47180104255676	1.0001640319824219
20	120.69369792938232	pulse	0	t		18.0	2.5	/experiments/knapen_AOT/AOT_stimuli/rescaled_final/1735_fw.mp4	0.0	152.64778208732605	
20	121.51788091659546	movie	1		246	18.0	2.5	/experiments/knapen_AOT/AOT_stimuli/rescaled_final/1735_fw.mp4	0.0	153.47196507453918	2.500369071960449
20	122.29316687583923	pulse	1	t		18.0	2.5	/experiments/knapen_AOT/AOT_stimuli/rescaled_final/1735_fw.mp4	0.0	154.24725103378296	
20	123.89344882965088	pulse	1	t		18.0	2.5	/experiments/knapen_AOT/AOT_stimuli/rescaled_final/1735_fw.mp4	0.0	155.8475329875946	
20	124.01824998855591	fix_post	2		12	18.0	2.5	/experiments/knapen_AOT/AOT_stimuli/rescaled_final/1735_fw.mp4	0.0	155.97233414649963	0.1000208854675293
21	124.11827087402344	fix_pre	0		120	19.0	2.5	blank	1.0	156.07235503196716	1.0001471042633057
21	125.11841797828674	movie	1		299	19.0	2.5	blank	1.0	157.07250213623047	2.4920828342437744
21	125.49381184577942	pulse	1	t		19.0	2.5	blank	1.0	157.44789600372314	
21	127.09390902519226	pulse	1	t		19.0	2.5	blank	1.0	159.047993183136	
21	127.61050081253052	fix_post	2		12	19.0	2.5	blank	1.0	159.56458497047424	0.10001111030578613
22	127.7105119228363	fix_pre	0		119	20.0	2.5	/experiments/knapen_AOT/AOT_stimuli/rescaled_final/1181_fw.mp4	0.0	159.66459608078003	0.9917929172515869
22	128.69412088394165	pulse	0	t		20.0	2.5	/experiments/knapen_AOT/AOT_stimuli/rescaled_final/1181_fw.mp4	0.0	160.64820504188538	
22	128.7023048400879	movie	1		246	20.0	2.5	/experiments/knapen_AOT/AOT_stimuli/rescaled_final/1181_fw.mp4	0.0	160.65638899803162	2.508721113204956
22	130.2951419353485	pulse	1	t		20.0	2.5	/experiments/knapen_AOT/AOT_stimuli/rescaled_final/1181_fw.mp4	0.0	162.24922609329224	
22	131.21102595329285	fix_post	2		12	20.0	2.5	/experiments/knapen_AOT/AOT_stimuli/rescaled_final/1181_fw.mp4	0.0	163.16511011123657	0.09999799728393555
23	131.31102395057678	fix_pre	0		120	21.0	2.5	/experiments/knapen_AOT/AOT_stimuli/rescaled_final/1298_rv.mp4	0.0	163.2651081085205	1.000154972076416
23	131.89466881752014	pulse	0	t		21.0	2.5	/experiments/knapen_AOT/AOT_stimuli/rescaled_final/1298_rv.mp4	0.0	163.84875297546387	
23	132.3111789226532	movie	1		246	21.0	2.5	/experiments/knapen_AOT/AOT_stimuli/rescaled_final/1298_rv.mp4	0.0	164.26526308059692	2.5004220008850098
23	133.49495100975037	pulse	1	t		21.0	2.5	/experiments/knapen_AOT/AOT_stimuli/rescaled_final/1298_rv.mp4	0.0	165.4490351676941	
23	134.8116009235382	fix_post	2		12	21.0	2.5	/experiments/knapen_AOT/AOT_stimuli/rescaled_final/1298_rv.mp4	0.0	166.76568508148193	0.09993791580200195
24	134.9115388393402	fix_pre	0		120	22.0	2.5	/experiments/knapen_AOT/AOT_stimuli/rescaled_final/0738_rv.mp4	0.0	166.86562299728394	1.000176191329956
24	135.0950789451599	pulse	0	t		22.0	2.5	/experiments/knapen_AOT/AOT_stimuli/rescaled_final/0738_rv.mp4	0.0	167.04916310310364	
24	135.91171503067017	movie	1		246	22.0	2.5	/experiments/knapen_AOT/AOT_stimuli/rescaled_final/0738_rv.mp4	0.0	167.8657991886139	2.5003528594970703
24	136.69540882110596	pulse	1	t		22.0	2.5	/experiments/knapen_AOT/AOT_stimuli/rescaled_final/0738_rv.mp4	0.0	168.64949297904968	
24	138.29565596580505	pulse	1	t		22.0	2.5	/experiments/knapen_AOT/AOT_stimuli/rescaled_final/0738_rv.mp4	0.0	170.24974012374878	
24	138.41206789016724	fix_post	2		12	22.0	2.5	/experiments/knapen_AOT/AOT_stimuli/rescaled_final/0738_rv.mp4	0.0	170.36615204811096	0.10002493858337402
25	138.5120928287506	fix_pre	0		119	23.0	2.5	/experiments/knapen_AOT/AOT_stimuli/rescaled_final/1679_fw.mp4	0.0	170.46617698669434	0.9918560981750488
25	139.50394892692566	movie	1		245	23.0	2.5	/experiments/knapen_AOT/AOT_stimuli/rescaled_final/1679_fw.mp4	0.0	171.45803308486938	2.500335931777954
25	139.89593887329102	pulse	1	t		23.0	2.5	/experiments/knapen_AOT/AOT_stimuli/rescaled_final/1679_fw.mp4	0.0	171.85002303123474	
25	141.49606895446777	pulse	1	t		23.0	2.5	/experiments/knapen_AOT/AOT_stimuli/rescaled_final/1679_fw.mp4	0.0	173.4501531124115	
25	142.0042848587036	fix_post	2		12	23.0	2.5	/experiments/knapen_AOT/AOT_stimuli/rescaled_final/1679_fw.mp4	0.0	173.95836901664734	0.10000109672546387
26	142.10428595542908	fix_pre	0		120	24.0	2.5	/experiments/knapen_AOT/AOT_stimuli/rescaled_final/0447_fw.mp4	0.0	174.0583701133728	1.000216007232666
26	143.09632682800293	pulse	0	t		24.0	2.5	/experiments/knapen_AOT/AOT_stimuli/rescaled_final/0447_fw.mp4	0.0	175.05041098594666	
26	143.10450196266174	movie	1		249	24.0	2.5	/experiments/knapen_AOT/AOT_stimuli/rescaled_final/0447_fw.mp4	0.0	175.05858612060547	2.508755922317505
26	144.69703102111816	pulse	1	t		24.0	2.5	/experiments/knapen_AOT/AOT_stimuli/rescaled_final/0447_fw.mp4	0.0	176.6511151790619	
26	145.61325788497925	fix_post	2		12	24.0	2.5	/experiments/knapen_AOT/AOT_stimuli/rescaled_final/0447_fw.mp4	0.0	177.56734204292297	0.0999000072479248
27	145.71315789222717	fix_pre	0		120	25.0	2.5	/experiments/knapen_AOT/AOT_stimuli/rescaled_final/0428_rv.mp4	0.0	177.6672420501709	1.0002050399780273
27	146.29688000679016	pulse	0	t		25.0	2.5	/experiments/knapen_AOT/AOT_stimuli/rescaled_final/0428_rv.mp4	0.0	178.2509641647339	
27	146.7133629322052	movie	1		248	25.0	2.5	/experiments/knapen_AOT/AOT_stimuli/rescaled_final/0428_rv.mp4	0.0	178.66744709014893	2.5003130435943604
27	147.89712285995483	pulse	1	t		25.0	2.5	/experiments/knapen_AOT/AOT_stimuli/rescaled_final/0428_rv.mp4	0.0	179.85120701789856	
27	149.21367597579956	fix_post	2		12	25.0	2.5	/experiments/knapen_AOT/AOT_stimuli/rescaled_final/0428_rv.mp4	0.0	181.1677601337433	0.10003185272216797
28	149.31370782852173	fix_pre	0		120	26.0	2.5	/experiments/knapen_AOT/AOT_stimuli/rescaled_final/0703_fw.mp4	0.0	181.26779198646545	1.0001730918884277
28	149.49728083610535	pulse	0	t		26.0	2.5	/experiments/knapen_AOT/AOT_stimuli/rescaled_final/0703_fw.mp4	0.0	181.45136499404907	
28	150.31388092041016	movie	1		248	26.0	2.5	/experiments/knapen_AOT/AOT_stimuli/rescaled_final/0703_fw.mp4	0.0	182.26796507835388	2.5003700256347656
28	151.09751987457275	pulse	1	t		26.0	2.5	/experiments/knapen_AOT/AOT_stimuli/rescaled_final/0703_fw.mp4	0.0	183.05160403251648	
28	152.69775295257568	pulse	1	t		26.0	2.5	/experiments/knapen_AOT/AOT_stimuli/rescaled_final/0703_fw.mp4	0.0	184.6518371105194	
28	152.81425094604492	fix_post	2		12	26.0	2.5	/experiments/knapen_AOT/AOT_stimuli/rescaled_final/0703_fw.mp4	0.0	184.76833510398865	0.09996509552001953
29	152.91421604156494	fix_pre	0		119	27.0	2.5	/experiments/knapen_AOT/AOT_stimuli/rescaled_final/1366_fw.mp4	0.0	184.86830019950867	0.9919359683990479
29	153.906152009964	movie	1		248	27.0	2.5	/experiments/knapen_AOT/AOT_stimuli/rescaled_final/1366_fw.mp4	0.0	185.86023616790771	2.500250816345215
29	154.29820585250854	pulse	1	t		27.0	2.5	/experiments/knapen_AOT/AOT_stimuli/rescaled_final/1366_fw.mp4	0.0	186.25229001045227	
29	155.89824986457825	pulse	1	t		27.0	2.5	/experiments/knapen_AOT/AOT_stimuli/rescaled_final/1366_fw.mp4	0.0	187.85233402252197	
29	156.4064028263092	fix_post	2		12	27.0	2.5	/experiments/knapen_AOT/AOT_stimuli/rescaled_final/1366_fw.mp4	0.0	188.36048698425293	0.10005307197570801
30	156.5064558982849	fix_pre	0		120	28.0	2.5	blank	1.0	188.46054005622864	1.000201940536499
30	157.49852299690247	pulse	0	t		28.0	2.5	blank	1.0	189.4526071548462	
30	157.5066578388214	movie	1		301	28.0	2.5	blank	1.0	189.46074199676514	2.508679151535034
30	159.09875297546387	pulse	1	t		28.0	2.5	blank	1.0	191.0528371334076	
30	160.01533699035645	fix_post	2		12	28.0	2.5	blank	1.0	191.96942114830017	0.09998488426208496
31	160.11532187461853	fix_pre	0		120	29.0	2.5	/experiments/knapen_AOT/AOT_stimuli/rescaled_final/0052_fw.mp4	0.0	192.06940603256226	1.0001540184020996
31	160.69897985458374	pulse	0	t		29.0	2.5	/experiments/knapen_AOT/AOT_stimuli/rescaled_final/0052_fw.mp4	0.0	192.65306401252747	
31	161.11547589302063	movie	1		250	29.0	2.5	/experiments/knapen_AOT/AOT_stimuli/rescaled_final/0052_fw.mp4	0.0	193.06956005096436	2.5003421306610107
31	162.2992479801178	pulse	1	t		29.0	2.5	/experiments/knapen_AOT/AOT_stimuli/rescaled_final/0052_fw.mp4	0.0	194.25333213806152	
31	163.61581802368164	fix_post	2		12	29.0	2.5	/experiments/knapen_AOT/AOT_stimuli/rescaled_final/0052_fw.mp4	0.0	195.56990218162537	0.1000509262084961
32	163.71586894989014	fix_pre	0		120	30.0	2.5	/experiments/knapen_AOT/AOT_stimuli/rescaled_final/1396_rv.mp4	0.0	195.66995310783386	1.0001459121704102
32	163.89946699142456	pulse	0	t		30.0	2.5	/experiments/knapen_AOT/AOT_stimuli/rescaled_final/1396_rv.mp4	0.0	195.8535511493683	
32	164.71601486206055	movie	1		247	30.0	2.5	/experiments/knapen_AOT/AOT_stimuli/rescaled_final/1396_rv.mp4	0.0	196.67009902000427	2.500368118286133
32	165.49973392486572	pulse	1	t		30.0	2.5	/experiments/knapen_AOT/AOT_stimuli/rescaled_final/1396_rv.mp4	0.0	197.45381808280945	
32	167.10003900527954	pulse	1	t		30.0	2.5	/experiments/knapen_AOT/AOT_stimuli/rescaled_final/1396_rv.mp4	0.0	199.05412316322327	
32	167.21638298034668	fix_post	2		12	30.0	2.5	/experiments/knapen_AOT/AOT_stimuli/rescaled_final/1396_rv.mp4	0.0	199.1704671382904	0.10002589225769043
33	167.31640887260437	fix_pre	0		120	31.0	2.5	/experiments/knapen_AOT/AOT_stimuli/rescaled_final/1229_fw.mp4	0.0	199.2704930305481	1.0001311302185059
33	168.31654000282288	movie	1		247	31.0	2.5	/experiments/knapen_AOT/AOT_stimuli/rescaled_final/1229_fw.mp4	0.0	200.2706241607666	2.4920449256896973
33	168.7007439136505	pulse	1	t		31.0	2.5	/experiments/knapen_AOT/AOT_stimuli/rescaled_final/1229_fw.mp4	0.0	200.65482807159424	
33	170.30045700073242	pulse	1	t		31.0	2.5	/experiments/knapen_AOT/AOT_stimuli/rescaled_final/1229_fw.mp4	0.0	202.25454115867615	
33	170.80858492851257	fix_post	2		12	31.0	2.5	/experiments/knapen_AOT/AOT_stimuli/rescaled_final/1229_fw.mp4	0.0	202.7626690864563	0.10001492500305176
34	170.90859985351562	fix_pre	0		120	32.0	2.5	/experiments/knapen_AOT/AOT_stimuli/rescaled_final/0424_fw.mp4	0.0	202.86268401145935	1.0001699924468994
34	171.90063381195068	pulse	0	t		32.0	2.5	/experiments/knapen_AOT/AOT_stimuli/rescaled_final/0424_fw.mp4	0.0	203.8547179698944	
34	171.90876984596252	movie	1		249	32.0	2.5	/experiments/knapen_AOT/AOT_stimuli/rescaled_final/0424_fw.mp4	0.0	203.86285400390625	2.5086681842803955
34	173.5017910003662	pulse	1	t		32.0	2.5	/experiments/knapen_AOT/AOT_stimuli/rescaled_final/0424_fw.mp4	0.0	205.45587515830994	
34	174.41743803024292	fix_post	2		12	32.0	2.5	/experiments/knapen_AOT/AOT_stimuli/rescaled_final/0424_fw.mp4	0.0	206.37152218818665	0.10003280639648438
35	174.5174708366394	fix_pre	0		120	33.0	2.5	/experiments/knapen_AOT/AOT_stimuli/rescaled_final/1251_rv.mp4	0.0	206.47155499458313	1.0001780986785889
35	175.10109186172485	pulse	0	t		33.0	2.5	/experiments/knapen_AOT/AOT_stimuli/rescaled_final/1251_rv.mp4	0.0	207.05517601966858	
35	175.517648935318	movie	1		244	33.0	2.5	/experiments/knapen_AOT/AOT_stimuli/rescaled_final/1251_rv.mp4	0.0	207.47173309326172	2.500349998474121
35	176.6944420337677	pulse	1	t		33.0	2.5	/experiments/knapen_AOT/AOT_stimuli/rescaled_final/1251_rv.mp4	0.0	208.64852619171143	
35	178.01799893379211	fix_post	2		12	33.0	2.5	/experiments/knapen_AOT/AOT_stimuli/rescaled_final/1251_rv.mp4	0.0	209.97208309173584	0.09999990463256836
36	178.11799883842468	fix_pre	0		120	34.0	2.5	/experiments/knapen_AOT/AOT_stimuli/rescaled_final/0531_fw.mp4	0.0	210.0720829963684	1.0002131462097168
36	178.29409098625183	pulse	0	t		34.0	2.5	/experiments/knapen_AOT/AOT_stimuli/rescaled_final/0531_fw.mp4	0.0	210.24817514419556	
36	179.1182119846344	movie	1		246	34.0	2.5	/experiments/knapen_AOT/AOT_stimuli/rescaled_final/0531_fw.mp4	0.0	211.07229614257812	2.500288963317871
36	179.89452004432678	pulse	1	t		34.0	2.5	/experiments/knapen_AOT/AOT_stimuli/rescaled_final/0531_fw.mp4	0.0	211.8486042022705	
36	181.49389004707336	pulse	1	t		34.0	2.5	/experiments/knapen_AOT/AOT_stimuli/rescaled_final/0531_fw.mp4	0.0	213.4479742050171	
36	181.61850094795227	fix_post	2		12	34.0	2.5	/experiments/knapen_AOT/AOT_stimuli/rescaled_final/0531_fw.mp4	0.0	213.572585105896	0.10005307197570801
37	181.71855401992798	fix_pre	0		120	35.0	2.5	blank	1.0	213.6726381778717	1.0001518726348877
37	182.71870589256287	movie	1		299	35.0	2.5	blank	1.0	214.6727900505066	2.4920589923858643
37	183.0939178466797	pulse	1	t		35.0	2.5	blank	1.0	215.0480020046234	
37	184.69415593147278	pulse	1	t		35.0	2.5	blank	1.0	216.6482400894165	
37	185.21076488494873	fix_post	2		12	35.0	2.5	blank	1.0	217.16484904289246	0.09998202323913574
38	185.31074690818787	fix_pre	0		119	36.0	2.5	/experiments/knapen_AOT/AOT_stimuli/rescaled_final/0482_fw.mp4	0.0	217.2648310661316	0.9918501377105713
38	186.29449796676636	pulse	0	t		36.0	2.5	/experiments/knapen_AOT/AOT_stimuli/rescaled_final/0482_fw.mp4	0.0	218.24858212471008	
38	186.30259704589844	movie	1		245	36.0	2.5	/experiments/knapen_AOT/AOT_stimuli/rescaled_final/0482_fw.mp4	0.0	218.25668120384216	2.5087428092956543
38	187.89675498008728	pulse	1	t		36.0	2.5	/experiments/knapen_AOT/AOT_stimuli/rescaled_final/0482_fw.mp4	0.0	219.850839138031	
38	188.8113398551941	fix_post	2		8	36.0	2.5	/experiments/knapen_AOT/AOT_stimuli/rescaled_final/0482_fw.mp4	0.0	220.76542401313782	0.09994816780090332
39	188.911288022995	fix_pre	0		120	37.0	2.5	/experiments/knapen_AOT/AOT_stimuli/rescaled_final/1712_rv.mp4	0.0	220.86537218093872	1.0001609325408936
39	189.4949209690094	pulse	0	t		37.0	2.5	/experiments/knapen_AOT/AOT_stimuli/rescaled_final/1712_rv.mp4	0.0	221.44900512695312	
39	189.9114489555359	movie	1		245	37.0	2.5	/experiments/knapen_AOT/AOT_stimuli/rescaled_final/1712_rv.mp4	0.0	221.86553311347961	2.500382900238037
39	191.09526181221008	pulse	1	t		37.0	2.5	/experiments/knapen_AOT/AOT_stimuli/rescaled_final/1712_rv.mp4	0.0	223.0493459701538	
39	192.41183185577393	fix_post	2		12	37.0	2.5	/experiments/knapen_AOT/AOT_stimuli/rescaled_final/1712_rv.mp4	0.0	224.36591601371765	0.10000300407409668
40	192.51183485984802	fix_pre	0		120	38.0	2.5	/experiments/knapen_AOT/AOT_stimuli/rescaled_final/1120_fw.mp4	0.0	224.46591901779175	1.0001461505889893
40	192.6954300403595	pulse	0	t		38.0	2.5	/experiments/knapen_AOT/AOT_stimuli/rescaled_final/1120_fw.mp4	0.0	224.64951419830322	
40	193.511981010437	movie	1		246	38.0	2.5	/experiments/knapen_AOT/AOT_stimuli/rescaled_final/1120_fw.mp4	0.0	225.46606516838074	2.50034499168396
40	194.29576992988586	pulse	1	t		38.0	2.5	/experiments/knapen_AOT/AOT_stimuli/rescaled_final/1120_fw.mp4	0.0	226.2498540878296	
40	195.89588904380798	pulse	1	t		38.0	2.5	/experiments/knapen_AOT/AOT_stimuli/rescaled_final/1120_fw.mp4	0.0	227.8499732017517	
40	196.01232600212097	fix_post	2		12	38.0	2.5	/experiments/knapen_AOT/AOT_stimuli/rescaled_final/1120_fw.mp4	0.0	227.9664101600647	0.1000528335571289
41	196.1123788356781	fix_pre	0		120	39.0	2.5	/experiments/knapen_AOT/AOT_stimuli/rescaled_final/1335_rv.mp4	0.0	228.06646299362183	1.0001170635223389
41	197.11249589920044	movie	1		246	39.0	2.5	/experiments/knapen_AOT/AOT_stimuli/rescaled_final/1335_rv.mp4	0.0	229.06658005714417	2.4920570850372314
41	197.49661993980408	pulse	1	t		39.0	2.5	/experiments/knapen_AOT/AOT_stimuli/rescaled_final/1335_rv.mp4	0.0	229.4507040977478	
41	199.096421957016	pulse	1	t		39.0	2.5	/experiments/knapen_AOT/AOT_stimuli/rescaled_final/1335_rv.mp4	0.0	231.05050611495972	
41	199.60455298423767	fix_post	2		12	39.0	2.5	/experiments/knapen_AOT/AOT_stimuli/rescaled_final/1335_rv.mp4	0.0	231.5586371421814	0.10006284713745117
42	199.70461583137512	fix_pre	0		120	40.0	2.5	/experiments/knapen_AOT/AOT_stimuli/rescaled_final/0600_rv.mp4	0.0	231.65869998931885	1.0001440048217773
42	200.6967158317566	pulse	0	t		40.0	2.5	/experiments/knapen_AOT/AOT_stimuli/rescaled_final/0600_rv.mp4	0.0	232.65079998970032	
42	200.7047598361969	movie	1		251	40.0	2.5	/experiments/knapen_AOT/AOT_stimuli/rescaled_final/0600_rv.mp4	0.0	232.65884399414062	2.5087890625
42	202.30113887786865	pulse	1	t		40.0	2.5	/experiments/knapen_AOT/AOT_stimuli/rescaled_final/0600_rv.mp4	0.0	234.25522303581238	
42	203.2135488986969	fix_post	2		12	40.0	2.5	/experiments/knapen_AOT/AOT_stimuli/rescaled_final/0600_rv.mp4	0.0	235.16763305664062	0.09992408752441406
43	203.3134729862213	fix_pre	0		120	41.0	2.5	/experiments/knapen_AOT/AOT_stimuli/rescaled_final/0142_rv.mp4	0.0	235.26755714416504	1.0000839233398438
43	203.8970229625702	pulse	0	t		41.0	2.5	/experiments/knapen_AOT/AOT_stimuli/rescaled_final/0142_rv.mp4	0.0	235.85110712051392	
43	204.31355690956116	movie	1		247	41.0	2.5	/experiments/knapen_AOT/AOT_stimuli/rescaled_final/0142_rv.mp4	0.0	236.26764106750488	2.500504970550537
43	205.49749302864075	pulse	1	t		41.0	2.5	/experiments/knapen_AOT/AOT_stimuli/rescaled_final/0142_rv.mp4	0.0	237.45157718658447	
43	206.8140618801117	fix_post	2		12	41.0	2.5	/experiments/knapen_AOT/AOT_stimuli/rescaled_final/0142_rv.mp4	0.0	238.76814603805542	0.09991216659545898
44	206.91397404670715	fix_pre	0		120	42.0	2.5	blank	1.0	238.86805820465088	1.000166893005371
44	207.0976858139038	pulse	0	t		42.0	2.5	blank	1.0	239.05176997184753	
44	207.91414093971252	movie	1		300	42.0	2.5	blank	1.0	239.86822509765625	2.500391960144043
44	208.69786882400513	pulse	1	t		42.0	2.5	blank	1.0	240.65195298194885	
44	210.2979760169983	pulse	1	t		42.0	2.5	blank	1.0	242.25206017494202	
44	210.41453289985657	fix_post	2		12	42.0	2.5	blank	1.0	242.3686170578003	0.09996795654296875
45	210.51450085639954	fix_pre	0		120	43.0	2.5	/experiments/knapen_AOT/AOT_stimuli/rescaled_final/1904_rv.mp4	0.0	242.46858501434326	1.0001990795135498
45	211.5146999359131	movie	1		246	43.0	2.5	/experiments/knapen_AOT/AOT_stimuli/rescaled_final/1904_rv.mp4	0.0	243.4687840938568	2.4920060634613037
45	211.89885592460632	pulse	1	t		43.0	2.5	/experiments/knapen_AOT/AOT_stimuli/rescaled_final/1904_rv.mp4	0.0	243.85294008255005	
45	213.49858903884888	pulse	1	t		43.0	2.5	/experiments/knapen_AOT/AOT_stimuli/rescaled_final/1904_rv.mp4	0.0	245.4526731967926	
45	214.0067059993744	fix_post	2		12	43.0	2.5	/experiments/knapen_AOT/AOT_stimuli/rescaled_final/1904_rv.mp4	0.0	245.96079015731812	0.10006093978881836
46	214.1067669391632	fix_pre	0		120	44.0	2.5	/experiments/knapen_AOT/AOT_stimuli/rescaled_final/0688_rv.mp4	0.0	246.06085109710693	1.0001270771026611
46	215.0988688468933	pulse	0	t		44.0	2.5	/experiments/knapen_AOT/AOT_stimuli/rescaled_final/0688_rv.mp4	0.0	247.05295300483704	
46	215.10689401626587	movie	1		247	44.0	2.5	/experiments/knapen_AOT/AOT_stimuli/rescaled_final/0688_rv.mp4	0.0	247.0609781742096	2.5086679458618164
46	216.7002890110016	pulse	1	t		44.0	2.5	/experiments/knapen_AOT/AOT_stimuli/rescaled_final/0688_rv.mp4	0.0	248.6543731689453	
46	217.61556196212769	fix_post	2		12	44.0	2.5	/experiments/knapen_AOT/AOT_stimuli/rescaled_final/0688_rv.mp4	0.0	249.5696461200714	0.10005307197570801
47	217.7156150341034	fix_pre	0		120	45.0	2.5	/experiments/knapen_AOT/AOT_stimuli/rescaled_final/0992_fw.mp4	0.0	249.66969919204712	1.0002028942108154
47	218.29935884475708	pulse	0	t		45.0	2.5	/experiments/knapen_AOT/AOT_stimuli/rescaled_final/0992_fw.mp4	0.0	250.2534430027008	
47	218.7158179283142	movie	1		248	45.0	2.5	/experiments/knapen_AOT/AOT_stimuli/rescaled_final/0992_fw.mp4	0.0	250.66990208625793	2.5002689361572266
47	219.8996729850769	pulse	1	t		45.0	2.5	/experiments/knapen_AOT/AOT_stimuli/rescaled_final/0992_fw.mp4	0.0	251.85375714302063	
47	221.21608686447144	fix_post	2		12	45.0	2.5	/experiments/knapen_AOT/AOT_stimuli/rescaled_final/0992_fw.mp4	0.0	253.17017102241516	0.10002017021179199
48	221.31610703468323	fix_pre	0		120	46.0	2.5	/experiments/knapen_AOT/AOT_stimuli/rescaled_final/1468_fw.mp4	0.0	253.27019119262695	1.0001978874206543
48	221.4997899532318	pulse	0	t		46.0	2.5	/experiments/knapen_AOT/AOT_stimuli/rescaled_final/1468_fw.mp4	0.0	253.45387411117554	
48	222.31630492210388	movie	1		245	46.0	2.5	/experiments/knapen_AOT/AOT_stimuli/rescaled_final/1468_fw.mp4	0.0	254.2703890800476	2.5003440380096436
48	223.09999299049377	pulse	1	t		46.0	2.5	/experiments/knapen_AOT/AOT_stimuli/rescaled_final/1468_fw.mp4	0.0	255.0540771484375	
48	224.7001359462738	pulse	1	t		46.0	2.5	/experiments/knapen_AOT/AOT_stimuli/rescaled_final/1468_fw.mp4	0.0	256.65422010421753	
48	224.81664896011353	fix_post	2		12	46.0	2.5	/experiments/knapen_AOT/AOT_stimuli/rescaled_final/1468_fw.mp4	0.0	256.77073311805725	0.10006403923034668
49	224.91671299934387	fix_pre	0		120	47.0	2.5	/experiments/knapen_AOT/AOT_stimuli/rescaled_final/1697_fw.mp4	0.0	256.8707971572876	1.00010085105896
49	225.91681385040283	movie	1		243	47.0	2.5	/experiments/knapen_AOT/AOT_stimuli/rescaled_final/1697_fw.mp4	0.0	257.87089800834656	2.492246150970459
49	226.300794839859	pulse	1	t		47.0	2.5	/experiments/knapen_AOT/AOT_stimuli/rescaled_final/1697_fw.mp4	0.0	258.25487899780273	
49	227.89332795143127	pulse	1	t		47.0	2.5	/experiments/knapen_AOT/AOT_stimuli/rescaled_final/1697_fw.mp4	0.0	259.847412109375	
49	228.4090600013733	fix_post	2		12	47.0	2.5	/experiments/knapen_AOT/AOT_stimuli/rescaled_final/1697_fw.mp4	0.0	260.363144159317	0.09981298446655273
50	228.50887298583984	fix_pre	0		120	48.0	2.5	blank	1.0	260.46295714378357	1.0001609325408936
50	229.49348497390747	pulse	0	t		48.0	2.5	blank	1.0	261.4475691318512	
50	229.50903391838074	movie	1		301	48.0	2.5	blank	1.0	261.46311807632446	2.508721113204956
50	231.09375596046448	pulse	1	t		48.0	2.5	blank	1.0	263.0478401184082	
50	232.0177550315857	fix_post	2		12	48.0	2.5	blank	1.0	263.9718391895294	0.1000058650970459
51	232.11776089668274	fix_pre	0		120	49.0	2.5	/experiments/knapen_AOT/AOT_stimuli/rescaled_final/0394_rv.mp4	0.0	264.07184505462646	1.0001640319824219
51	232.69377303123474	pulse	0	t		49.0	2.5	/experiments/knapen_AOT/AOT_stimuli/rescaled_final/0394_rv.mp4	0.0	264.64785718917847	
51	233.11792492866516	movie	1		244	49.0	2.5	/experiments/knapen_AOT/AOT_stimuli/rescaled_final/0394_rv.mp4	0.0	265.0720090866089	2.500322103500366
51	234.29383301734924	pulse	1	t		49.0	2.5	/experiments/knapen_AOT/AOT_stimuli/rescaled_final/0394_rv.mp4	0.0	266.24791717529297	
51	235.61824703216553	fix_post	2		12	49.0	2.5	/experiments/knapen_AOT/AOT_stimuli/rescaled_final/0394_rv.mp4	0.0	267.57233119010925	0.10000300407409668
52	235.71825003623962	fix_pre	0		120	50.0	2.5	/experiments/knapen_AOT/AOT_stimuli/rescaled_final/0688_fw.mp4	0.0	267.67233419418335	1.0001859664916992
52	235.8937108516693	pulse	0	t		50.0	2.5	/experiments/knapen_AOT/AOT_stimuli/rescaled_final/0688_fw.mp4	0.0	267.84779500961304	
52	236.71843600273132	movie	1		244	50.0	2.5	/experiments/knapen_AOT/AOT_stimuli/rescaled_final/0688_fw.mp4	0.0	268.67252016067505	2.5003788471221924
52	237.49370098114014	pulse	1	t		50.0	2.5	/experiments/knapen_AOT/AOT_stimuli/rescaled_final/0688_fw.mp4	0.0	269.44778513908386	
52	239.09387588500977	pulse	1	t		50.0	2.5	/experiments/knapen_AOT/AOT_stimuli/rescaled_final/0688_fw.mp4	0.0	271.0479600429535	
52	239.21881484985352	fix_post	2		12	50.0	2.5	/experiments/knapen_AOT/AOT_stimuli/rescaled_final/0688_fw.mp4	0.0	271.17289900779724	0.10002017021179199
53	239.3188350200653	fix_pre	0		119	51.0	2.5	/experiments/knapen_AOT/AOT_stimuli/rescaled_final/1727_rv.mp4	0.0	271.27291917800903	0.9917969703674316
53	240.31063199043274	movie	1		244	51.0	2.5	/experiments/knapen_AOT/AOT_stimuli/rescaled_final/1727_rv.mp4	0.0	272.26471614837646	2.5003700256347656
53	240.69491386413574	pulse	1	t		51.0	2.5	/experiments/knapen_AOT/AOT_stimuli/rescaled_final/1727_rv.mp4	0.0	272.64899802207947	
53	242.2944688796997	pulse	1	t		51.0	2.5	/experiments/knapen_AOT/AOT_stimuli/rescaled_final/1727_rv.mp4	0.0	274.24855303764343	
53	242.8110020160675	fix_post	2		12	51.0	2.5	/experiments/knapen_AOT/AOT_stimuli/rescaled_final/1727_rv.mp4	0.0	274.76508617401123	0.10001087188720703
54	242.9110128879547	fix_pre	0		119	52.0	2.5	/experiments/knapen_AOT/AOT_stimuli/rescaled_final/1543_fw.mp4	0.0	274.86509704589844	0.9919230937957764
54	243.8947880268097	pulse	0	t		52.0	2.5	/experiments/knapen_AOT/AOT_stimuli/rescaled_final/1543_fw.mp4	0.0	275.8488721847534	
54	243.9029359817505	movie	1		245	52.0	2.5	/experiments/knapen_AOT/AOT_stimuli/rescaled_final/1543_fw.mp4	0.0	275.8570201396942	2.5086510181427
54	245.49955987930298	pulse	1	t		52.0	2.5	/experiments/knapen_AOT/AOT_stimuli/rescaled_final/1543_fw.mp4	0.0	277.4536440372467	
54	246.4115869998932	fix_post	2		12	52.0	2.5	/experiments/knapen_AOT/AOT_stimuli/rescaled_final/1543_fw.mp4	0.0	278.3656711578369	0.09995198249816895
55	246.51153898239136	fix_pre	0		120	53.0	2.5	/experiments/knapen_AOT/AOT_stimuli/rescaled_final/0320_fw.mp4	0.0	278.4656231403351	1.0001709461212158
55	247.09513902664185	pulse	0	t		53.0	2.5	/experiments/knapen_AOT/AOT_stimuli/rescaled_final/0320_fw.mp4	0.0	279.04922318458557	
55	247.51170992851257	movie	1		245	53.0	2.5	/experiments/knapen_AOT/AOT_stimuli/rescaled_final/0320_fw.mp4	0.0	279.4657940864563	2.5003790855407715
55	248.69547986984253	pulse	1	t		53.0	2.5	/experiments/knapen_AOT/AOT_stimuli/rescaled_final/0320_fw.mp4	0.0	280.64956402778625	
55	250.01208901405334	fix_post	2		12	53.0	2.5	/experiments/knapen_AOT/AOT_stimuli/rescaled_final/0320_fw.mp4	0.0	281.96617317199707	0.1000058650970459
56	250.1120948791504	fix_pre	0		120	54.0	2.5	/experiments/knapen_AOT/AOT_stimuli/rescaled_final/1414_rv.mp4	0.0	282.0661790370941	1.0001959800720215
56	250.29578399658203	pulse	0	t		54.0	2.5	/experiments/knapen_AOT/AOT_stimuli/rescaled_final/1414_rv.mp4	0.0	282.24986815452576	
56	251.1122908592224	movie	1		244	54.0	2.5	/experiments/knapen_AOT/AOT_stimuli/rescaled_final/1414_rv.mp4	0.0	283.06637501716614	2.5003390312194824
56	251.89595103263855	pulse	1	t		54.0	2.5	/experiments/knapen_AOT/AOT_stimuli/rescaled_final/1414_rv.mp4	0.0	283.8500351905823	
56	253.49636387825012	pulse	1	t		54.0	2.5	/experiments/knapen_AOT/AOT_stimuli/rescaled_final/1414_rv.mp4	0.0	285.45044803619385	
56	253.6126298904419	fix_post	2		12	54.0	2.5	/experiments/knapen_AOT/AOT_stimuli/rescaled_final/1414_rv.mp4	0.0	285.5667140483856	0.10003495216369629
57	253.7126648426056	fix_pre	0		116	55.0	2.5	blank	1.0	285.6667490005493	1.0001370906829834
57	254.71280193328857	movie	1		299	55.0	2.5	blank	1.0	286.6668860912323	2.492079019546509
57	255.09641790390015	pulse	1	t		55.0	2.5	blank	1.0	287.0505020618439	
57	256.69656801223755	pulse	1	t		55.0	2.5	blank	1.0	288.6506521701813	
57	257.2048809528351	fix_post	2		12	55.0	2.5	blank	1.0	289.1589651107788	0.0999600887298584
58	257.30484104156494	fix_pre	0		120	56.0	2.5	/experiments/knapen_AOT/AOT_stimuli/rescaled_final/1377_rv.mp4	0.0	289.25892519950867	1.000135898590088
58	258.29694294929504	pulse	0	t		56.0	2.5	/experiments/knapen_AOT/AOT_stimuli/rescaled_final/1377_rv.mp4	0.0	290.25102710723877	
58	258.30497694015503	movie	1		245	56.0	2.5	/experiments/knapen_AOT/AOT_stimuli/rescaled_final/1377_rv.mp4	0.0	290.25906109809875	2.508734941482544
58	259.8975009918213	pulse	1	t		56.0	2.5	/experiments/knapen_AOT/AOT_stimuli/rescaled_final/1377_rv.mp4	0.0	291.851585149765	
58	260.8137118816376	fix_post	2		12	56.0	2.5	/experiments/knapen_AOT/AOT_stimuli/rescaled_final/1377_rv.mp4	0.0	292.7677960395813	0.10003304481506348
59	260.91374492645264	fix_pre	0		120	57.0	2.5	/experiments/knapen_AOT/AOT_stimuli/rescaled_final/1181_rv.mp4	0.0	292.86782908439636	1.0001161098480225
59	261.4974539279938	pulse	0	t		57.0	2.5	/experiments/knapen_AOT/AOT_stimuli/rescaled_final/1181_rv.mp4	0.0	293.4515380859375	
59	261.91386103630066	movie	1		244	57.0	2.5	/experiments/knapen_AOT/AOT_stimuli/rescaled_final/1181_rv.mp4	0.0	293.8679451942444	2.5005099773406982
59	263.0977008342743	pulse	1	t		57.0	2.5	/experiments/knapen_AOT/AOT_stimuli/rescaled_final/1181_rv.mp4	0.0	295.051784992218	
59	264.41437101364136	fix_post	2		12	57.0	2.5	/experiments/knapen_AOT/AOT_stimuli/rescaled_final/1181_rv.mp4	0.0	296.3684551715851	0.09990191459655762
60	264.5142729282379	fix_pre	0		120	58.0	2.5	/experiments/knapen_AOT/AOT_stimuli/rescaled_final/1534_rv.mp4	0.0	296.46835708618164	1.0001580715179443
60	264.6979179382324	pulse	0	t		58.0	2.5	/experiments/knapen_AOT/AOT_stimuli/rescaled_final/1534_rv.mp4	0.0	296.65200209617615	
60	265.51443099975586	movie	1		244	58.0	2.5	/experiments/knapen_AOT/AOT_stimuli/rescaled_final/1534_rv.mp4	0.0	297.4685151576996	2.5003130435943604
60	266.29823088645935	pulse	1	t		58.0	2.5	/experiments/knapen_AOT/AOT_stimuli/rescaled_final/1534_rv.mp4	0.0	298.2523150444031	
60	267.89858198165894	pulse	1	t		58.0	2.5	/experiments/knapen_AOT/AOT_stimuli/rescaled_final/1534_rv.mp4	0.0	299.85266613960266	
60	268.0147440433502	fix_post	2		12	58.0	2.5	/experiments/knapen_AOT/AOT_stimuli/rescaled_final/1534_rv.mp4	0.0	299.96882820129395	0.10003089904785156
61	268.11477494239807	fix_pre	0		120	59.0	2.5	/experiments/knapen_AOT/AOT_stimuli/rescaled_final/1487_fw.mp4	0.0	300.0688591003418	1.0002009868621826
61	269.11497592926025	movie	1		244	59.0	2.5	/experiments/knapen_AOT/AOT_stimuli/rescaled_final/1487_fw.mp4	0.0	301.069060087204	2.492053985595703
61	269.49930787086487	pulse	1	t		59.0	2.5	/experiments/knapen_AOT/AOT_stimuli/rescaled_final/1487_fw.mp4	0.0	301.4533920288086	
61	271.0987858772278	pulse	1	t		59.0	2.5	/experiments/knapen_AOT/AOT_stimuli/rescaled_final/1487_fw.mp4	0.0	303.0528700351715	
61	271.60702991485596	fix_post	2		12	59.0	2.5	/experiments/knapen_AOT/AOT_stimuli/rescaled_final/1487_fw.mp4	0.0	303.5611140727997	0.09995007514953613
62	271.7069799900055	fix_pre	0		120	60.0	2.5	/experiments/knapen_AOT/AOT_stimuli/rescaled_final/1754_rv.mp4	0.0	303.6610641479492	1.0001800060272217
62	272.6989438533783	pulse	0	t		60.0	2.5	/experiments/knapen_AOT/AOT_stimuli/rescaled_final/1754_rv.mp4	0.0	304.653028011322	
62	272.7071599960327	movie	1		249	60.0	2.5	/experiments/knapen_AOT/AOT_stimuli/rescaled_final/1754_rv.mp4	0.0	304.66124415397644	2.5086770057678223
62	274.29972791671753	pulse	1	t		60.0	2.5	/experiments/knapen_AOT/AOT_stimuli/rescaled_final/1754_rv.mp4	0.0	306.25381207466125	
62	275.21583700180054	fix_post	2		12	60.0	2.5	/experiments/knapen_AOT/AOT_stimuli/rescaled_final/1754_rv.mp4	0.0	307.16992115974426	0.10001802444458008
63	275.3158550262451	fix_pre	0		120	61.0	2.5	blank	1.0	307.26993918418884	1.0001628398895264
63	275.8996260166168	pulse	0	t		61.0	2.5	blank	1.0	307.85371017456055	
63	276.31601786613464	movie	1		300	61.0	2.5	blank	1.0	308.27010202407837	2.500386953353882
63	277.4997818470001	pulse	1	t		61.0	2.5	blank	1.0	309.45386600494385	
63	278.8164048194885	fix_post	2		12	61.0	2.5	blank	1.0	310.77048897743225	0.10005307197570801
64	278.91645789146423	fix_pre	0		120	62.0	2.5	/experiments/knapen_AOT/AOT_stimuli/rescaled_final/2026_fw.mp4	0.0	310.87054204940796	1.0000550746917725
64	279.0999798774719	pulse	0	t		62.0	2.5	/experiments/knapen_AOT/AOT_stimuli/rescaled_final/2026_fw.mp4	0.0	311.05406403541565	
64	279.916512966156	movie	1		245	62.0	2.5	/experiments/knapen_AOT/AOT_stimuli/rescaled_final/2026_fw.mp4	0.0	311.87059712409973	2.5003960132598877
64	280.7001779079437	pulse	1	t		62.0	2.5	/experiments/knapen_AOT/AOT_stimuli/rescaled_final/2026_fw.mp4	0.0	312.65426206588745	
64	282.2929608821869	pulse	1	t		62.0	2.5	/experiments/knapen_AOT/AOT_stimuli/rescaled_final/2026_fw.mp4	0.0	314.2470450401306	
64	282.4169089794159	fix_post	2		12	62.0	2.5	/experiments/knapen_AOT/AOT_stimuli/rescaled_final/2026_fw.mp4	0.0	314.3709931373596	0.10001087188720703
65	282.5169198513031	fix_pre	0		120	63.0	2.5	/experiments/knapen_AOT/AOT_stimuli/rescaled_final/1710_rv.mp4	0.0	314.4710040092468	1.0001740455627441
65	283.51709389686584	movie	1		246	63.0	2.5	/experiments/knapen_AOT/AOT_stimuli/rescaled_final/1710_rv.mp4	0.0	315.47117805480957	2.49219012260437
65	283.90187096595764	pulse	1	t		63.0	2.5	/experiments/knapen_AOT/AOT_stimuli/rescaled_final/1710_rv.mp4	0.0	315.85595512390137	
65	285.4936499595642	pulse	1	t		63.0	2.5	/experiments/knapen_AOT/AOT_stimuli/rescaled_final/1710_rv.mp4	0.0	317.44773411750793	
65	286.0092840194702	fix_post	2		12	63.0	2.5	/experiments/knapen_AOT/AOT_stimuli/rescaled_final/1710_rv.mp4	0.0	317.96336817741394	0.09984302520751953
66	286.10912704467773	fix_pre	0		120	64.0	2.5	/experiments/knapen_AOT/AOT_stimuli/rescaled_final/0655_fw.mp4	0.0	318.06321120262146	1.0001959800720215
66	287.0936288833618	pulse	0	t		64.0	2.5	/experiments/knapen_AOT/AOT_stimuli/rescaled_final/0655_fw.mp4	0.0	319.04771304130554	
66	287.10932302474976	movie	1		248	64.0	2.5	/experiments/knapen_AOT/AOT_stimuli/rescaled_final/0655_fw.mp4	0.0	319.0634071826935	2.508697986602783
66	288.69331097602844	pulse	1	t		64.0	2.5	/experiments/knapen_AOT/AOT_stimuli/rescaled_final/0655_fw.mp4	0.0	320.64739513397217	
66	289.61802101135254	fix_post	2		12	64.0	2.5	/experiments/knapen_AOT/AOT_stimuli/rescaled_final/0655_fw.mp4	0.0	321.57210516929626	0.10000491142272949
67	289.71802592277527	fix_pre	0		120	65.0	2.5	/experiments/knapen_AOT/AOT_stimuli/rescaled_final/0324_fw.mp4	0.0	321.672110080719	1.0001330375671387
67	290.2932560443878	pulse	0	t		65.0	2.5	/experiments/knapen_AOT/AOT_stimuli/rescaled_final/0324_fw.mp4	0.0	322.24734020233154	
67	290.7181589603424	movie	1		244	65.0	2.5	/experiments/knapen_AOT/AOT_stimuli/rescaled_final/0324_fw.mp4	0.0	322.67224311828613	2.5004630088806152
67	291.8938808441162	pulse	1	t		65.0	2.5	/experiments/knapen_AOT/AOT_stimuli/rescaled_final/0324_fw.mp4	0.0	323.84796500205994	
67	293.218621969223	fix_post	2		12	65.0	2.5	/experiments/knapen_AOT/AOT_stimuli/rescaled_final/0324_fw.mp4	0.0	325.17270612716675	0.09993600845336914
68	293.3185579776764	fix_pre	0		120	66.0	2.5	/experiments/knapen_AOT/AOT_stimuli/rescaled_final/1008_rv.mp4	0.0	325.2726421356201	1.0001890659332275
68	293.4938769340515	pulse	0	t		66.0	2.5	/experiments/knapen_AOT/AOT_stimuli/rescaled_final/1008_rv.mp4	0.0	325.44796109199524	
68	294.3187470436096	movie	1		244	66.0	2.5	/experiments/knapen_AOT/AOT_stimuli/rescaled_final/1008_rv.mp4	0.0	326.27283120155334	2.4919779300689697
68	295.09399485588074	pulse	1	t		66.0	2.5	/experiments/knapen_AOT/AOT_stimuli/rescaled_final/1008_rv.mp4	0.0	327.04807901382446	
68	296.6943278312683	pulse	1	t		66.0	2.5	/experiments/knapen_AOT/AOT_stimuli/rescaled_final/1008_rv.mp4	0.0	328.64841198921204	
68	296.8107249736786	fix_post	2		13	66.0	2.5	/experiments/knapen_AOT/AOT_stimuli/rescaled_final/1008_rv.mp4	0.0	328.7648091316223	0.10834693908691406
69	296.9190719127655	fix_pre	0		119	67.0	2.5	/experiments/knapen_AOT/AOT_stimuli/rescaled_final/0757_rv.mp4	0.0	328.87315607070923	0.9918849468231201
69	297.9109568595886	movie	1		246	67.0	2.5	/experiments/knapen_AOT/AOT_stimuli/rescaled_final/0757_rv.mp4	0.0	329.86504101753235	2.500375986099243
69	298.2983310222626	pulse	1	t		67.0	2.5	/experiments/knapen_AOT/AOT_stimuli/rescaled_final/0757_rv.mp4	0.0	330.2524151802063	
69	299.8947398662567	pulse	1	t		67.0	2.5	/experiments/knapen_AOT/AOT_stimuli/rescaled_final/0757_rv.mp4	0.0	331.84882402420044	
69	300.41133284568787	fix_post	2		12	67.0	2.5	/experiments/knapen_AOT/AOT_stimuli/rescaled_final/0757_rv.mp4	0.0	332.3654170036316	0.10010814666748047
70	300.51144099235535	fix_pre	0		119	68.0	2.5	blank	1.0	332.4655251502991	0.9917018413543701
70	301.4949679374695	pulse	0	t		68.0	2.5	blank	1.0	333.4490520954132	
70	301.5031428337097	movie	1		301	68.0	2.5	blank	1.0	333.45722699165344	2.508692979812622
70	303.09521985054016	pulse	1	t		68.0	2.5	blank	1.0	335.0493040084839	
70	304.01183581352234	fix_post	2		12	68.0	2.5	blank	1.0	335.96591997146606	0.10001516342163086
71	304.11185097694397	fix_pre	0		120	69.0	2.5	/experiments/knapen_AOT/AOT_stimuli/rescaled_final/0269_rv.mp4	0.0	336.0659351348877	1.0001440048217773
71	304.6955978870392	pulse	0	t		69.0	2.5	/experiments/knapen_AOT/AOT_stimuli/rescaled_final/0269_rv.mp4	0.0	336.6496820449829	
71	305.11199498176575	movie	1		246	69.0	2.5	/experiments/knapen_AOT/AOT_stimuli/rescaled_final/0269_rv.mp4	0.0	337.0660791397095	2.500309944152832
71	306.2958710193634	pulse	1	t		69.0	2.5	/experiments/knapen_AOT/AOT_stimuli/rescaled_final/0269_rv.mp4	0.0	338.24995517730713	
71	307.6123049259186	fix_post	2		12	69.0	2.5	/experiments/knapen_AOT/AOT_stimuli/rescaled_final/0269_rv.mp4	0.0	339.5663890838623	0.10008502006530762
72	307.7123899459839	fix_pre	0		120	70.0	2.5	/experiments/knapen_AOT/AOT_stimuli/rescaled_final/1543_rv.mp4	0.0	339.6664741039276	1.0001120567321777
72	307.89591002464294	pulse	0	t		70.0	2.5	/experiments/knapen_AOT/AOT_stimuli/rescaled_final/1543_rv.mp4	0.0	339.84999418258667	
72	308.71250200271606	movie	1		244	70.0	2.5	/experiments/knapen_AOT/AOT_stimuli/rescaled_final/1543_rv.mp4	0.0	340.6665861606598	2.500375986099243
72	309.4961619377136	pulse	1	t		70.0	2.5	/experiments/knapen_AOT/AOT_stimuli/rescaled_final/1543_rv.mp4	0.0	341.45024609565735	
72	311.09650182724	pulse	1	t		70.0	2.5	/experiments/knapen_AOT/AOT_stimuli/rescaled_final/1543_rv.mp4	0.0	343.0505859851837	
72	311.2128779888153	fix_post	2		12	70.0	2.5	/experiments/knapen_AOT/AOT_stimuli/rescaled_final/1543_rv.mp4	0.0	343.16696214675903	0.10003185272216797
73	311.3129098415375	fix_pre	0		119	71.0	2.5	/experiments/knapen_AOT/AOT_stimuli/rescaled_final/1487_rv.mp4	0.0	343.2669939994812	0.9918010234832764
73	312.30471086502075	movie	1		246	71.0	2.5	/experiments/knapen_AOT/AOT_stimuli/rescaled_final/1487_rv.mp4	0.0	344.2587950229645	2.5004520416259766
73	312.69675397872925	pulse	1	t		71.0	2.5	/experiments/knapen_AOT/AOT_stimuli/rescaled_final/1487_rv.mp4	0.0	344.650838136673	
73	314.29704189300537	pulse	1	t		71.0	2.5	/experiments/knapen_AOT/AOT_stimuli/rescaled_final/1487_rv.mp4	0.0	346.2511260509491	
73	314.80516290664673	fix_post	2		12	71.0	2.5	/experiments/knapen_AOT/AOT_stimuli/rescaled_final/1487_rv.mp4	0.0	346.75924706459045	0.09993910789489746
74	314.9051020145416	fix_pre	0		120	72.0	2.5	/experiments/knapen_AOT/AOT_stimuli/rescaled_final/0640_rv.mp4	0.0	346.85918617248535	1.000152826309204
74	315.8970949649811	pulse	0	t		72.0	2.5	/experiments/knapen_AOT/AOT_stimuli/rescaled_final/0640_rv.mp4	0.0	347.8511791229248	
74	315.90525484085083	movie	1		245	72.0	2.5	/experiments/knapen_AOT/AOT_stimuli/rescaled_final/0640_rv.mp4	0.0	347.85933899879456	2.508697986602783
74	317.4978988170624	pulse	1	t		72.0	2.5	/experiments/knapen_AOT/AOT_stimuli/rescaled_final/0640_rv.mp4	0.0	349.4519829750061	
74	318.4139528274536	fix_post	2		12	72.0	2.5	/experiments/knapen_AOT/AOT_stimuli/rescaled_final/0640_rv.mp4	0.0	350.36803698539734	0.09998607635498047
75	318.5139389038086	fix_pre	0		120	73.0	2.5	/experiments/knapen_AOT/AOT_stimuli/rescaled_final/1544_fw.mp4	0.0	350.4680230617523	1.000196933746338
75	319.0977318286896	pulse	0	t		73.0	2.5	/experiments/knapen_AOT/AOT_stimuli/rescaled_final/1544_fw.mp4	0.0	351.0518159866333	
75	319.51413583755493	movie	1		245	73.0	2.5	/experiments/knapen_AOT/AOT_stimuli/rescaled_final/1544_fw.mp4	0.0	351.46821999549866	2.5003280639648438
75	320.6979868412018	pulse	1	t		73.0	2.5	/experiments/knapen_AOT/AOT_stimuli/rescaled_final/1544_fw.mp4	0.0	352.6520709991455	
75	322.0144639015198	fix_post	2		12	73.0	2.5	/experiments/knapen_AOT/AOT_stimuli/rescaled_final/1544_fw.mp4	0.0	353.9685480594635	0.10005593299865723
76	322.11451983451843	fix_pre	0		120	74.0	2.5	/experiments/knapen_AOT/AOT_stimuli/rescaled_final/0143_fw.mp4	0.0	354.06860399246216	1.00018310546875
76	322.29806995391846	pulse	0	t		74.0	2.5	/experiments/knapen_AOT/AOT_stimuli/rescaled_final/0143_fw.mp4	0.0	354.2521541118622	
76	323.1147029399872	movie	1		242	74.0	2.5	/experiments/knapen_AOT/AOT_stimuli/rescaled_final/0143_fw.mp4	0.0	355.0687870979309	2.500335931777954
76	323.89842796325684	pulse	1	t		74.0	2.5	/experiments/knapen_AOT/AOT_stimuli/rescaled_final/0143_fw.mp4	0.0	355.85251212120056	
76	325.496248960495	pulse	1	t		74.0	2.5	/experiments/knapen_AOT/AOT_stimuli/rescaled_final/0143_fw.mp4	0.0	357.4503331184387	
76	325.61503887176514	fix_post	2		12	74.0	2.5	/experiments/knapen_AOT/AOT_stimuli/rescaled_final/0143_fw.mp4	0.0	357.56912302970886	0.09998798370361328
77	325.71502685546875	fix_pre	0		119	75.0	2.5	/experiments/knapen_AOT/AOT_stimuli/rescaled_final/0185_fw.mp4	0.0	357.6691110134125	0.9919731616973877
77	326.70700001716614	movie	1		245	75.0	2.5	/experiments/knapen_AOT/AOT_stimuli/rescaled_final/0185_fw.mp4	0.0	358.66108417510986	2.500309944152832
77	327.0989909172058	pulse	1	t		75.0	2.5	/experiments/knapen_AOT/AOT_stimuli/rescaled_final/0185_fw.mp4	0.0	359.05307507514954	
77	328.69911193847656	pulse	1	t		75.0	2.5	/experiments/knapen_AOT/AOT_stimuli/rescaled_final/0185_fw.mp4	0.0	360.6531960964203	
77	329.20730996131897	fix_post	2		12	75.0	2.5	/experiments/knapen_AOT/AOT_stimuli/rescaled_final/0185_fw.mp4	0.0	361.1613941192627	0.09992694854736328
78	329.30723690986633	fix_pre	0		120	76.0	2.5	blank	1.0	361.26132106781006	1.0002100467681885
78	330.29932403564453	pulse	0	t		76.0	2.5	blank	1.0	362.25340819358826	
78	330.3074469566345	movie	1		301	76.0	2.5	blank	1.0	362.26153111457825	2.5086798667907715
78	331.8995850086212	pulse	1	t		76.0	2.5	blank	1.0	363.85366916656494	
78	332.8161268234253	fix_post	2		12	76.0	2.5	blank	1.0	364.770210981369	0.09999513626098633
79	332.9161219596863	fix_pre	0		120	77.0	2.5	/experiments/knapen_AOT/AOT_stimuli/rescaled_final/0109_rv.mp4	0.0	364.87020611763	1.000204086303711
79	333.49976992607117	pulse	0	t		77.0	2.5	/experiments/knapen_AOT/AOT_stimuli/rescaled_final/0109_rv.mp4	0.0	365.4538540840149	
79	333.91632604599	movie	1		244	77.0	2.5	/experiments/knapen_AOT/AOT_stimuli/rescaled_final/0109_rv.mp4	0.0	365.8704102039337	2.5004029273986816
79	335.1001489162445	pulse	1	t		77.0	2.5	/experiments/knapen_AOT/AOT_stimuli/rescaled_final/0109_rv.mp4	0.0	367.05423307418823	
79	336.4167289733887	fix_post	2		12	77.0	2.5	/experiments/knapen_AOT/AOT_stimuli/rescaled_final/0109_rv.mp4	0.0	368.3708131313324	0.09993696212768555
80	336.51666593551636	fix_pre	0		120	78.0	2.5	/experiments/knapen_AOT/AOT_stimuli/rescaled_final/0256_fw.mp4	0.0	368.4707500934601	1.0001709461212158
80	336.70020389556885	pulse	0	t		78.0	2.5	/experiments/knapen_AOT/AOT_stimuli/rescaled_final/0256_fw.mp4	0.0	368.6542880535126	
80	337.5168368816376	movie	1		245	78.0	2.5	/experiments/knapen_AOT/AOT_stimuli/rescaled_final/0256_fw.mp4	0.0	369.4709210395813	2.500429153442383
80	338.3004879951477	pulse	1	t		78.0	2.5	/experiments/knapen_AOT/AOT_stimuli/rescaled_final/0256_fw.mp4	0.0	370.25457215309143	
80	339.90078592300415	pulse	1	t		78.0	2.5	/experiments/knapen_AOT/AOT_stimuli/rescaled_final/0256_fw.mp4	0.0	371.8548700809479	
80	340.01726603507996	fix_post	2		12	78.0	2.5	/experiments/knapen_AOT/AOT_stimuli/rescaled_final/0256_fw.mp4	0.0	371.9713501930237	0.09993982315063477
81	340.1172058582306	fix_pre	0		120	79.0	2.5	/experiments/knapen_AOT/AOT_stimuli/rescaled_final/1710_rv.mp4	0.0	372.0712900161743	1.0001389980316162
81	341.1173448562622	movie	1		244	79.0	2.5	/experiments/knapen_AOT/AOT_stimuli/rescaled_final/1710_rv.mp4	0.0	373.07142901420593	2.492051124572754
81	341.5055179595947	pulse	1	t		79.0	2.5	/experiments/knapen_AOT/AOT_stimuli/rescaled_final/1710_rv.mp4	0.0	373.45960211753845	
81	343.09395384788513	pulse	1	t		79.0	2.5	/experiments/knapen_AOT/AOT_stimuli/rescaled_final/1710_rv.mp4	0.0	375.04803800582886	
81	343.60939598083496	fix_post	2		12	79.0	2.5	/experiments/knapen_AOT/AOT_stimuli/rescaled_final/1710_rv.mp4	0.0	375.5634801387787	0.1000058650970459
82	343.709401845932	fix_pre	0		120	80.0	2.5	/experiments/knapen_AOT/AOT_stimuli/rescaled_final/0318_rv.mp4	0.0	375.66348600387573	1.0001721382141113
82	344.69390392303467	pulse	0	t		80.0	2.5	/experiments/knapen_AOT/AOT_stimuli/rescaled_final/0318_rv.mp4	0.0	376.6479880809784	
82	344.7095739841461	movie	1		247	80.0	2.5	/experiments/knapen_AOT/AOT_stimuli/rescaled_final/0318_rv.mp4	0.0	376.66365814208984	2.508681058883667
82	346.3022439479828	pulse	1	t		80.0	2.5	/experiments/knapen_AOT/AOT_stimuli/rescaled_final/0318_rv.mp4	0.0	378.2563281059265	
82	347.2182550430298	fix_post	2		12	80.0	2.5	/experiments/knapen_AOT/AOT_stimuli/rescaled_final/0318_rv.mp4	0.0	379.1723392009735	0.10000896453857422
83	347.31826400756836	fix_pre	0		120	81.0	2.5	/experiments/knapen_AOT/AOT_stimuli/rescaled_final/1904_rv.mp4	0.0	379.2723481655121	1.0002729892730713
83	347.8943598270416	pulse	0	t		81.0	2.5	/experiments/knapen_AOT/AOT_stimuli/rescaled_final/1904_rv.mp4	0.0	379.84844398498535	
83	348.31853699684143	movie	1		244	81.0	2.5	/experiments/knapen_AOT/AOT_stimuli/rescaled_final/1904_rv.mp4	0.0	380.27262115478516	2.5002708435058594
83	349.4985408782959	pulse	1	t		81.0	2.5	/experiments/knapen_AOT/AOT_stimuli/rescaled_final/1904_rv.mp4	0.0	381.4526250362396	
83	350.8188078403473	fix_post	2		12	81.0	2.5	/experiments/knapen_AOT/AOT_stimuli/rescaled_final/1904_rv.mp4	0.0	382.772891998291	0.1000070571899414
84	350.91881489753723	fix_pre	0		120	82.0	2.5	/experiments/knapen_AOT/AOT_stimuli/rescaled_final/0798_fw.mp4	0.0	382.87289905548096	1.0001919269561768
84	351.09397983551025	pulse	0	t		82.0	2.5	/experiments/knapen_AOT/AOT_stimuli/rescaled_final/0798_fw.mp4	0.0	383.048063993454	
84	351.9190068244934	movie	1		245	82.0	2.5	/experiments/knapen_AOT/AOT_stimuli/rescaled_final/0798_fw.mp4	0.0	383.87309098243713	2.5003139972686768
84	352.6943688392639	pulse	1	t		82.0	2.5	/experiments/knapen_AOT/AOT_stimuli/rescaled_final/0798_fw.mp4	0.0	384.64845299720764	
84	354.2945308685303	pulse	1	t		82.0	2.5	/experiments/knapen_AOT/AOT_stimuli/rescaled_final/0798_fw.mp4	0.0	386.248615026474	
84	354.4193208217621	fix_post	2		12	82.0	2.5	/experiments/knapen_AOT/AOT_stimuli/rescaled_final/0798_fw.mp4	0.0	386.3734049797058	0.10004019737243652
85	354.5193610191345	fix_pre	0		120	83.0	2.5	blank	1.0	386.47344517707825	1.0001578330993652
85	355.5195188522339	movie	1		299	83.0	2.5	blank	1.0	387.4736030101776	2.4920339584350586
85	355.89472103118896	pulse	1	t		83.0	2.5	blank	1.0	387.8488051891327	
85	357.49493193626404	pulse	1	t		83.0	2.5	blank	1.0	389.44901609420776	
85	358.01155281066895	fix_post	2		12	83.0	2.5	blank	1.0	389.96563696861267	0.10000801086425781
87	358.1115608215332	stim	0		1716					390.06564497947693	14.30215311050415
87	359.09520983695984	pulse	0	t						391.04929399490356	
87	360.6955499649048	pulse	0	t						392.6496341228485	
87	362.2956819534302	pulse	0	t						394.2497661113739	
87	363.89595794677734	pulse	0	t						395.85004210472107	
87	365.49621987342834	pulse	0	t						397.45030403137207	
87	367.09646487236023	pulse	0	t						399.05054903030396	
87	368.6966588497162	pulse	0	t						400.6507430076599	
87	370.2968590259552	pulse	0	t						402.2509431838989	
87	371.8970639705658	pulse	0	t						403.8511481285095	
