trial_nr	onset	event_type	phase	response	nr_frames	movie_index	movie_duration	movie_file	blank	onset_abs	duration
0	0.16643047332763672	stim	0		71					19.865957498550415	0.5916488170623779
0	0.7501342296600342	response	0	space						20.449661254882812	
1	0.7580792903900146	stim	0		4615					20.457606315612793	38.47682309150696
1	39.220224380493164	pulse	0	t						58.91975140571594	
1	39.23490238189697	stim	1		1714					58.93442940711975	14.297796726226807
1	40.814388036727905	pulse	1	t						60.513915061950684	
1	42.414594411849976	pulse	1	t						62.114121437072754	
1	44.014758348464966	pulse	1	t						63.714285373687744	
1	45.61500000953674	pulse	1	t						65.31452703475952	
1	47.21526002883911	pulse	1	t						66.91478705406189	
1	48.815502882003784	pulse	1	t						68.51502990722656	
1	50.41573166847229	pulse	1	t						70.11525869369507	
1	52.01598858833313	pulse	1	t						71.71551561355591	
2	53.53269910812378	fix_pre	0		11	0.0	2.5	/experiments/Knapen_AOT/AOT_stimuli/rescaled_final/2005_fw.mp4	0.0	73.23222613334656	0.10845685005187988
2	53.61625051498413	pulse	0	t		0.0	2.5	/experiments/Knapen_AOT/AOT_stimuli/rescaled_final/2005_fw.mp4	0.0	73.31577754020691	
2	53.64115595817566	movie	1		288	0.0	2.5	/experiments/Knapen_AOT/AOT_stimuli/rescaled_final/2005_fw.mp4	0.0	73.34068298339844	2.4919233322143555
2	55.21470093727112	pulse	1	t		0.0	2.5	/experiments/Knapen_AOT/AOT_stimuli/rescaled_final/2005_fw.mp4	0.0	74.9142279624939	
2	56.133079290390015	fix_post	2		12	0.0	2.5	/experiments/Knapen_AOT/AOT_stimuli/rescaled_final/2005_fw.mp4	0.0	75.8326063156128	0.10008049011230469
3	56.23315978050232	fix_pre	0		120	1.0	2.5	/experiments/Knapen_AOT/AOT_stimuli/rescaled_final/1592_fw.mp4	0.0	75.9326868057251	1.0084326267242432
3	56.81680727005005	pulse	0	t		1.0	2.5	/experiments/Knapen_AOT/AOT_stimuli/rescaled_final/1592_fw.mp4	0.0	76.51633429527283	
3	57.24159240722656	movie	1		285	1.0	2.5	/experiments/Knapen_AOT/AOT_stimuli/rescaled_final/1592_fw.mp4	0.0	76.94111943244934	2.492084503173828
3	58.41581726074219	pulse	1	t		1.0	2.5	/experiments/Knapen_AOT/AOT_stimuli/rescaled_final/1592_fw.mp4	0.0	78.11534428596497	
3	59.73367691040039	fix_post	2		12	1.0	2.5	/experiments/Knapen_AOT/AOT_stimuli/rescaled_final/1592_fw.mp4	0.0	79.43320393562317	0.10014033317565918
4	59.83381724357605	fix_pre	0		120	2.0	2.5	/experiments/Knapen_AOT/AOT_stimuli/rescaled_final/2023_rv.mp4	0.0	79.53334426879883	1.0083179473876953
4	60.009525299072266	pulse	0	t		2.0	2.5	/experiments/Knapen_AOT/AOT_stimuli/rescaled_final/2023_rv.mp4	0.0	79.70905232429504	
4	60.842135190963745	movie	1		284	2.0	2.5	/experiments/Knapen_AOT/AOT_stimuli/rescaled_final/2023_rv.mp4	0.0	80.54166221618652	2.492067813873291
4	61.61563420295715	pulse	1	t		2.0	2.5	/experiments/Knapen_AOT/AOT_stimuli/rescaled_final/2023_rv.mp4	0.0	81.31516122817993	
4	63.210447788238525	pulse	1	t		2.0	2.5	/experiments/Knapen_AOT/AOT_stimuli/rescaled_final/2023_rv.mp4	0.0	82.9099748134613	
4	63.334203004837036	fix_post	2		12	2.0	2.5	/experiments/Knapen_AOT/AOT_stimuli/rescaled_final/2023_rv.mp4	0.0	83.03373003005981	0.10001754760742188
5	63.43422055244446	fix_pre	0		120	3.0	2.5	/experiments/Knapen_AOT/AOT_stimuli/rescaled_final/0843_fw.mp4	0.0	83.13374757766724	1.008490800857544
5	64.442711353302	movie	1		280	3.0	2.5	/experiments/Knapen_AOT/AOT_stimuli/rescaled_final/0843_fw.mp4	0.0	84.14223837852478	2.5003433227539062
5	64.80967044830322	pulse	1	t		3.0	2.5	/experiments/Knapen_AOT/AOT_stimuli/rescaled_final/0843_fw.mp4	0.0	84.509197473526	
5	66.41003203392029	pulse	1	t		3.0	2.5	/experiments/Knapen_AOT/AOT_stimuli/rescaled_final/0843_fw.mp4	0.0	86.10955905914307	
5	66.94305467605591	fix_post	2		11	3.0	2.5	/experiments/Knapen_AOT/AOT_stimuli/rescaled_final/0843_fw.mp4	0.0	86.64258170127869	0.09172844886779785
6	67.0347831249237	fix_pre	0		118	4.0	2.5	/experiments/Knapen_AOT/AOT_stimuli/rescaled_final/0539_rv.mp4	0.0	86.73431015014648	0.9918050765991211
6	68.01007580757141	pulse	0	t		4.0	2.5	/experiments/Knapen_AOT/AOT_stimuli/rescaled_final/0539_rv.mp4	0.0	87.70960283279419	
6	68.02658820152283	movie	1		293	4.0	2.5	/experiments/Knapen_AOT/AOT_stimuli/rescaled_final/0539_rv.mp4	0.0	87.7261152267456	2.5003368854522705
6	69.61038756370544	pulse	1	t		4.0	2.5	/experiments/Knapen_AOT/AOT_stimuli/rescaled_final/0539_rv.mp4	0.0	89.30991458892822	
6	70.5269250869751	fix_post	2		12	4.0	2.5	/experiments/Knapen_AOT/AOT_stimuli/rescaled_final/0539_rv.mp4	0.0	90.22645211219788	0.10001730918884277
7	70.62694239616394	fix_pre	0		120	5.0	2.5	/experiments/Knapen_AOT/AOT_stimuli/rescaled_final/1100_rv.mp4	0.0	90.32646942138672	1.0085294246673584
7	71.21053433418274	pulse	0	t		5.0	2.5	/experiments/Knapen_AOT/AOT_stimuli/rescaled_final/1100_rv.mp4	0.0	90.91006135940552	
7	71.6354718208313	movie	1		280	5.0	2.5	/experiments/Knapen_AOT/AOT_stimuli/rescaled_final/1100_rv.mp4	0.0	91.33499884605408	2.4920153617858887
7	72.81081771850586	pulse	1	t		5.0	2.5	/experiments/Knapen_AOT/AOT_stimuli/rescaled_final/1100_rv.mp4	0.0	92.51034474372864	
7	74.12748718261719	fix_post	2		12	5.0	2.5	/experiments/Knapen_AOT/AOT_stimuli/rescaled_final/1100_rv.mp4	0.0	93.82701420783997	0.10004138946533203
8	74.22752857208252	fix_pre	0		120	6.0	2.5	blank	1.0	93.9270555973053	1.0001447200775146
8	74.4110758304596	pulse	0	t		6.0	2.5	blank	1.0	94.11060285568237	
8	75.22767329216003	movie	1		300	6.0	2.5	blank	1.0	94.92720031738281	2.5003533363342285
8	76.01135063171387	pulse	1	t		6.0	2.5	blank	1.0	95.71087765693665	
8	77.61164975166321	pulse	1	t		6.0	2.5	blank	1.0	97.31117677688599	
8	77.72802662849426	fix_post	2		12	6.0	2.5	blank	1.0	97.42755365371704	0.09998536109924316
9	77.8280119895935	fix_pre	0		120	7.0	2.5	/experiments/Knapen_AOT/AOT_stimuli/rescaled_final/1339_fw.mp4	0.0	97.52753901481628	1.0085244178771973
9	78.8365364074707	movie	1		287	7.0	2.5	/experiments/Knapen_AOT/AOT_stimuli/rescaled_final/1339_fw.mp4	0.0	98.53606343269348	2.492034912109375
9	79.21005582809448	pulse	1	t		7.0	2.5	/experiments/Knapen_AOT/AOT_stimuli/rescaled_final/1339_fw.mp4	0.0	98.90958285331726	
9	80.80972528457642	pulse	1	t		7.0	2.5	/experiments/Knapen_AOT/AOT_stimuli/rescaled_final/1339_fw.mp4	0.0	100.5092523097992	
9	81.32857131958008	fix_post	2		12	7.0	2.5	/experiments/Knapen_AOT/AOT_stimuli/rescaled_final/1339_fw.mp4	0.0	101.02809834480286	0.10003495216369629
10	81.42860627174377	fix_pre	0		119	8.0	2.5	/experiments/Knapen_AOT/AOT_stimuli/rescaled_final/2039_rv.mp4	0.0	101.12813329696655	1.000117301940918
10	82.41226315498352	pulse	0	t		8.0	2.5	/experiments/Knapen_AOT/AOT_stimuli/rescaled_final/2039_rv.mp4	0.0	102.1117901802063	
10	82.42872357368469	movie	1		281	8.0	2.5	/experiments/Knapen_AOT/AOT_stimuli/rescaled_final/2039_rv.mp4	0.0	102.12825059890747	2.5003535747528076
10	84.01131176948547	pulse	1	t		8.0	2.5	/experiments/Knapen_AOT/AOT_stimuli/rescaled_final/2039_rv.mp4	0.0	103.71083879470825	
10	84.9290771484375	fix_post	2		12	8.0	2.5	/experiments/Knapen_AOT/AOT_stimuli/rescaled_final/2039_rv.mp4	0.0	104.62860417366028	0.1000213623046875
11	85.02909851074219	fix_pre	0		120	9.0	2.5	/experiments/Knapen_AOT/AOT_stimuli/rescaled_final/1735_fw.mp4	0.0	104.72862553596497	1.0085022449493408
11	85.61274027824402	pulse	0	t		9.0	2.5	/experiments/Knapen_AOT/AOT_stimuli/rescaled_final/1735_fw.mp4	0.0	105.3122673034668	
11	86.03760075569153	movie	1		286	9.0	2.5	/experiments/Knapen_AOT/AOT_stimuli/rescaled_final/1735_fw.mp4	0.0	105.7371277809143	2.492069721221924
11	87.211740732193	pulse	1	t		9.0	2.5	/experiments/Knapen_AOT/AOT_stimuli/rescaled_final/1735_fw.mp4	0.0	106.91126775741577	
11	88.52967047691345	fix_post	2		12	9.0	2.5	/experiments/Knapen_AOT/AOT_stimuli/rescaled_final/1735_fw.mp4	0.0	108.22919750213623	0.0999612808227539
12	88.6296317577362	fix_pre	0		120	10.0	2.5	/experiments/Knapen_AOT/AOT_stimuli/rescaled_final/0412_rv.mp4	0.0	108.32915878295898	1.0085315704345703
12	88.81318640708923	pulse	0	t		10.0	2.5	/experiments/Knapen_AOT/AOT_stimuli/rescaled_final/0412_rv.mp4	0.0	108.51271343231201	
12	89.63816332817078	movie	1		274	10.0	2.5	/experiments/Knapen_AOT/AOT_stimuli/rescaled_final/0412_rv.mp4	0.0	109.33769035339355	2.4920125007629395
12	90.41114616394043	pulse	1	t		10.0	2.5	/experiments/Knapen_AOT/AOT_stimuli/rescaled_final/0412_rv.mp4	0.0	110.11067318916321	
12	92.01186752319336	pulse	1	t		10.0	2.5	/experiments/Knapen_AOT/AOT_stimuli/rescaled_final/0412_rv.mp4	0.0	111.71139454841614	
12	92.13017582893372	fix_post	2		12	10.0	2.5	/experiments/Knapen_AOT/AOT_stimuli/rescaled_final/0412_rv.mp4	0.0	111.8297028541565	0.09999966621398926
13	92.2301754951477	fix_pre	0		120	11.0	2.5	/experiments/Knapen_AOT/AOT_stimuli/rescaled_final/1991_fw.mp4	0.0	111.92970252037048	1.008530855178833
13	93.23870635032654	movie	1		281	11.0	2.5	/experiments/Knapen_AOT/AOT_stimuli/rescaled_final/1991_fw.mp4	0.0	112.93823337554932	2.492006540298462
13	93.61235690116882	pulse	1	t		11.0	2.5	/experiments/Knapen_AOT/AOT_stimuli/rescaled_final/1991_fw.mp4	0.0	113.3118839263916	
13	95.21211075782776	pulse	1	t		11.0	2.5	/experiments/Knapen_AOT/AOT_stimuli/rescaled_final/1991_fw.mp4	0.0	114.91163778305054	
13	95.730712890625	fix_post	2		12	11.0	2.5	/experiments/Knapen_AOT/AOT_stimuli/rescaled_final/1991_fw.mp4	0.0	115.43023991584778	0.10001730918884277
14	95.83073019981384	fix_pre	0		119	12.0	2.5	/experiments/Knapen_AOT/AOT_stimuli/rescaled_final/0407_fw.mp4	0.0	115.53025722503662	1.0001530647277832
14	96.81442403793335	pulse	0	t		12.0	2.5	/experiments/Knapen_AOT/AOT_stimuli/rescaled_final/0407_fw.mp4	0.0	116.51395106315613	
14	96.83088326454163	movie	1		283	12.0	2.5	/experiments/Knapen_AOT/AOT_stimuli/rescaled_final/0407_fw.mp4	0.0	116.5304102897644	2.500363349914551
14	98.41328811645508	pulse	1	t		12.0	2.5	/experiments/Knapen_AOT/AOT_stimuli/rescaled_final/0407_fw.mp4	0.0	118.11281514167786	
14	99.33124661445618	fix_post	2		12	12.0	2.5	/experiments/Knapen_AOT/AOT_stimuli/rescaled_final/0407_fw.mp4	0.0	119.03077363967896	0.10001754760742188
15	99.4312641620636	fix_pre	0		120	13.0	2.5	blank	1.0	119.13079118728638	1.0001420974731445
15	100.0149793624878	pulse	0	t		13.0	2.5	blank	1.0	119.71450638771057	
15	100.43140625953674	movie	1		300	13.0	2.5	blank	1.0	120.13093328475952	2.5004284381866455
15	101.61528038978577	pulse	1	t		13.0	2.5	blank	1.0	121.31480741500854	
15	102.93183469772339	fix_post	2		12	13.0	2.5	blank	1.0	122.63136172294617	0.10015296936035156
16	103.03198766708374	fix_pre	0		120	14.0	2.5	/experiments/Knapen_AOT/AOT_stimuli/rescaled_final/2162_fw.mp4	0.0	122.73151469230652	1.0082950592041016
16	103.21539831161499	pulse	0	t		14.0	2.5	/experiments/Knapen_AOT/AOT_stimuli/rescaled_final/2162_fw.mp4	0.0	122.91492533683777	
16	104.04028272628784	movie	1		286	14.0	2.5	/experiments/Knapen_AOT/AOT_stimuli/rescaled_final/2162_fw.mp4	0.0	123.73980975151062	2.4920451641082764
16	104.813631772995	pulse	1	t		14.0	2.5	/experiments/Knapen_AOT/AOT_stimuli/rescaled_final/2162_fw.mp4	0.0	124.51315879821777	
16	106.41391515731812	pulse	1	t		14.0	2.5	/experiments/Knapen_AOT/AOT_stimuli/rescaled_final/2162_fw.mp4	0.0	126.1134421825409	
16	106.53232789039612	fix_post	2		12	14.0	2.5	/experiments/Knapen_AOT/AOT_stimuli/rescaled_final/2162_fw.mp4	0.0	126.2318549156189	0.10007500648498535
17	106.6324028968811	fix_pre	0		120	15.0	2.5	/experiments/Knapen_AOT/AOT_stimuli/rescaled_final/0606_fw.mp4	0.0	126.33192992210388	1.0084311962127686
17	107.64083409309387	movie	1		285	15.0	2.5	/experiments/Knapen_AOT/AOT_stimuli/rescaled_final/0606_fw.mp4	0.0	127.34036111831665	2.492095470428467
17	108.0146586894989	pulse	1	t		15.0	2.5	/experiments/Knapen_AOT/AOT_stimuli/rescaled_final/0606_fw.mp4	0.0	127.71418571472168	
17	109.61454916000366	pulse	1	t		15.0	2.5	/experiments/Knapen_AOT/AOT_stimuli/rescaled_final/0606_fw.mp4	0.0	129.31407618522644	
17	110.13292956352234	fix_post	2		12	15.0	2.5	/experiments/Knapen_AOT/AOT_stimuli/rescaled_final/0606_fw.mp4	0.0	129.83245658874512	0.09998416900634766
18	110.23291373252869	fix_pre	0		119	16.0	2.5	/experiments/Knapen_AOT/AOT_stimuli/rescaled_final/0186_fw.mp4	0.0	129.93244075775146	1.0001165866851807
18	111.2166121006012	pulse	0	t		16.0	2.5	/experiments/Knapen_AOT/AOT_stimuli/rescaled_final/0186_fw.mp4	0.0	130.91613912582397	
18	111.23303031921387	movie	1		280	16.0	2.5	/experiments/Knapen_AOT/AOT_stimuli/rescaled_final/0186_fw.mp4	0.0	130.93255734443665	2.5003867149353027
18	112.81517934799194	pulse	1	t		16.0	2.5	/experiments/Knapen_AOT/AOT_stimuli/rescaled_final/0186_fw.mp4	0.0	132.51470637321472	
18	113.73341703414917	fix_post	2		12	16.0	2.5	/experiments/Knapen_AOT/AOT_stimuli/rescaled_final/0186_fw.mp4	0.0	133.43294405937195	0.10004234313964844
19	113.83345937728882	fix_pre	0		120	17.0	2.5	/experiments/Knapen_AOT/AOT_stimuli/rescaled_final/0510_rv.mp4	0.0	133.5329864025116	1.0084669589996338
19	114.4170606136322	pulse	0	t		17.0	2.5	/experiments/Knapen_AOT/AOT_stimuli/rescaled_final/0510_rv.mp4	0.0	134.11658763885498	
19	114.84192633628845	movie	1		286	17.0	2.5	/experiments/Knapen_AOT/AOT_stimuli/rescaled_final/0510_rv.mp4	0.0	134.54145336151123	2.4920876026153564
19	116.01553559303284	pulse	1	t		17.0	2.5	/experiments/Knapen_AOT/AOT_stimuli/rescaled_final/0510_rv.mp4	0.0	135.71506261825562	
19	117.33401393890381	fix_post	2		12	17.0	2.5	/experiments/Knapen_AOT/AOT_stimuli/rescaled_final/0510_rv.mp4	0.0	137.0335409641266	0.09996604919433594
20	117.43397998809814	fix_pre	0		120	18.0	2.5	/experiments/Knapen_AOT/AOT_stimuli/rescaled_final/1759_fw.mp4	0.0	137.13350701332092	1.0084822177886963
20	117.61753416061401	pulse	0	t		18.0	2.5	/experiments/Knapen_AOT/AOT_stimuli/rescaled_final/1759_fw.mp4	0.0	137.3170611858368	
20	118.44246220588684	movie	1		284	18.0	2.5	/experiments/Knapen_AOT/AOT_stimuli/rescaled_final/1759_fw.mp4	0.0	138.14198923110962	2.49204158782959
20	119.21683192253113	pulse	1	t		18.0	2.5	/experiments/Knapen_AOT/AOT_stimuli/rescaled_final/1759_fw.mp4	0.0	138.9163589477539	
20	120.81010413169861	pulse	1	t		18.0	2.5	/experiments/Knapen_AOT/AOT_stimuli/rescaled_final/1759_fw.mp4	0.0	140.5096311569214	
20	120.93450379371643	fix_post	2		12	18.0	2.5	/experiments/Knapen_AOT/AOT_stimuli/rescaled_final/1759_fw.mp4	0.0	140.6340308189392	0.09999632835388184
21	121.03450012207031	fix_pre	0		120	19.0	2.5	/experiments/Knapen_AOT/AOT_stimuli/rescaled_final/1255_rv.mp4	0.0	140.7340271472931	1.008516788482666
21	122.04301691055298	movie	1		281	19.0	2.5	/experiments/Knapen_AOT/AOT_stimuli/rescaled_final/1255_rv.mp4	0.0	141.74254393577576	2.4920284748077393
21	122.4101448059082	pulse	1	t		19.0	2.5	/experiments/Knapen_AOT/AOT_stimuli/rescaled_final/1255_rv.mp4	0.0	142.10967183113098	
21	124.01022243499756	pulse	1	t		19.0	2.5	/experiments/Knapen_AOT/AOT_stimuli/rescaled_final/1255_rv.mp4	0.0	143.70974946022034	
21	124.53504538536072	fix_post	2		12	19.0	2.5	/experiments/Knapen_AOT/AOT_stimuli/rescaled_final/1255_rv.mp4	0.0	144.2345724105835	0.10001873970031738
22	124.63506412506104	fix_pre	0		118	20.0	2.5	blank	1.0	144.3345911502838	0.9834544658660889
22	125.61062026023865	pulse	0	t		20.0	2.5	blank	1.0	145.31014728546143	
22	125.61851859092712	movie	1		301	20.0	2.5	blank	1.0	145.3180456161499	2.508772611618042
22	127.21063685417175	pulse	1	t		20.0	2.5	blank	1.0	146.91016387939453	
22	128.12729120254517	fix_post	2		12	20.0	2.5	blank	1.0	147.82681822776794	0.10001230239868164
23	128.22730350494385	fix_pre	0		120	21.0	2.5	/experiments/Knapen_AOT/AOT_stimuli/rescaled_final/0852_fw.mp4	0.0	147.92683053016663	1.0084547996520996
23	128.8110010623932	pulse	0	t		21.0	2.5	/experiments/Knapen_AOT/AOT_stimuli/rescaled_final/0852_fw.mp4	0.0	148.51052808761597	
23	129.23575830459595	movie	1		287	21.0	2.5	/experiments/Knapen_AOT/AOT_stimuli/rescaled_final/0852_fw.mp4	0.0	148.93528532981873	2.492056369781494
23	130.41155195236206	pulse	1	t		21.0	2.5	/experiments/Knapen_AOT/AOT_stimuli/rescaled_final/0852_fw.mp4	0.0	150.11107897758484	
23	131.72781467437744	fix_post	2		12	21.0	2.5	/experiments/Knapen_AOT/AOT_stimuli/rescaled_final/0852_fw.mp4	0.0	151.42734169960022	0.09998011589050293
24	131.82779479026794	fix_pre	0		120	22.0	2.5	/experiments/Knapen_AOT/AOT_stimuli/rescaled_final/1844_fw.mp4	0.0	151.52732181549072	1.008573293685913
24	132.011381149292	pulse	0	t		22.0	2.5	/experiments/Knapen_AOT/AOT_stimuli/rescaled_final/1844_fw.mp4	0.0	151.71090817451477	
24	132.83636808395386	movie	1		276	22.0	2.5	/experiments/Knapen_AOT/AOT_stimuli/rescaled_final/1844_fw.mp4	0.0	152.53589510917664	2.4919958114624023
24	133.610613822937	pulse	1	t		22.0	2.5	/experiments/Knapen_AOT/AOT_stimuli/rescaled_final/1844_fw.mp4	0.0	153.3101408481598	
24	135.21181201934814	pulse	1	t		22.0	2.5	/experiments/Knapen_AOT/AOT_stimuli/rescaled_final/1844_fw.mp4	0.0	154.91133904457092	
24	135.32836389541626	fix_post	2		12	22.0	2.5	/experiments/Knapen_AOT/AOT_stimuli/rescaled_final/1844_fw.mp4	0.0	155.02789092063904	0.10001659393310547
25	135.42838048934937	fix_pre	0		120	23.0	2.5	/experiments/Knapen_AOT/AOT_stimuli/rescaled_final/1507_fw.mp4	0.0	155.12790751457214	1.0085904598236084
25	136.43697094917297	movie	1		285	23.0	2.5	/experiments/Knapen_AOT/AOT_stimuli/rescaled_final/1507_fw.mp4	0.0	156.13649797439575	2.491891384124756
25	136.81078433990479	pulse	1	t		23.0	2.5	/experiments/Knapen_AOT/AOT_stimuli/rescaled_final/1507_fw.mp4	0.0	156.51031136512756	
25	138.41058564186096	pulse	1	t		23.0	2.5	/experiments/Knapen_AOT/AOT_stimuli/rescaled_final/1507_fw.mp4	0.0	158.11011266708374	
25	138.92886233329773	fix_post	2		12	23.0	2.5	/experiments/Knapen_AOT/AOT_stimuli/rescaled_final/1507_fw.mp4	0.0	158.6283893585205	0.10003089904785156
26	139.02889323234558	fix_pre	0		119	24.0	2.5	/experiments/Knapen_AOT/AOT_stimuli/rescaled_final/0235_fw.mp4	0.0	158.72842025756836	1.0001769065856934
26	140.01271033287048	pulse	0	t		24.0	2.5	/experiments/Knapen_AOT/AOT_stimuli/rescaled_final/0235_fw.mp4	0.0	159.71223735809326	
26	140.02907013893127	movie	1		290	24.0	2.5	/experiments/Knapen_AOT/AOT_stimuli/rescaled_final/0235_fw.mp4	0.0	159.72859716415405	2.500366449356079
26	141.6130509376526	pulse	1	t		24.0	2.5	/experiments/Knapen_AOT/AOT_stimuli/rescaled_final/0235_fw.mp4	0.0	161.31257796287537	
26	142.52943658828735	fix_post	2		12	24.0	2.5	/experiments/Knapen_AOT/AOT_stimuli/rescaled_final/0235_fw.mp4	0.0	162.22896361351013	0.10002279281616211
27	142.62945938110352	fix_pre	0		120	25.0	2.5	/experiments/Knapen_AOT/AOT_stimuli/rescaled_final/1206_rv.mp4	0.0	162.3289864063263	1.0084736347198486
27	143.213383436203	pulse	0	t		25.0	2.5	/experiments/Knapen_AOT/AOT_stimuli/rescaled_final/1206_rv.mp4	0.0	162.91291046142578	
27	143.63793301582336	movie	1		283	25.0	2.5	/experiments/Knapen_AOT/AOT_stimuli/rescaled_final/1206_rv.mp4	0.0	163.33746004104614	2.492004156112671
27	144.8114595413208	pulse	1	t		25.0	2.5	/experiments/Knapen_AOT/AOT_stimuli/rescaled_final/1206_rv.mp4	0.0	164.51098656654358	
27	146.12993717193604	fix_post	2		12	25.0	2.5	/experiments/Knapen_AOT/AOT_stimuli/rescaled_final/1206_rv.mp4	0.0	165.8294641971588	0.10003900527954102
28	146.22997617721558	fix_pre	0		120	26.0	2.5	/experiments/Knapen_AOT/AOT_stimuli/rescaled_final/1533_rv.mp4	0.0	165.92950320243835	1.008592128753662
28	146.41361594200134	pulse	0	t		26.0	2.5	/experiments/Knapen_AOT/AOT_stimuli/rescaled_final/1533_rv.mp4	0.0	166.11314296722412	
28	147.23856830596924	movie	1		285	26.0	2.5	/experiments/Knapen_AOT/AOT_stimuli/rescaled_final/1533_rv.mp4	0.0	166.93809533119202	2.4919538497924805
28	148.01168942451477	pulse	1	t		26.0	2.5	/experiments/Knapen_AOT/AOT_stimuli/rescaled_final/1533_rv.mp4	0.0	167.71121644973755	
28	149.6120913028717	pulse	1	t		26.0	2.5	/experiments/Knapen_AOT/AOT_stimuli/rescaled_final/1533_rv.mp4	0.0	169.31161832809448	
28	149.73052215576172	fix_post	2		12	26.0	2.5	/experiments/Knapen_AOT/AOT_stimuli/rescaled_final/1533_rv.mp4	0.0	169.4300491809845	0.10002613067626953
29	149.830548286438	fix_pre	0		120	27.0	2.5	/experiments/Knapen_AOT/AOT_stimuli/rescaled_final/1620_rv.mp4	0.0	169.53007531166077	1.0084927082061768
29	150.83904099464417	movie	1		281	27.0	2.5	/experiments/Knapen_AOT/AOT_stimuli/rescaled_final/1620_rv.mp4	0.0	170.53856801986694	2.491999626159668
29	151.214426279068	pulse	1	t		27.0	2.5	/experiments/Knapen_AOT/AOT_stimuli/rescaled_final/1620_rv.mp4	0.0	170.91395330429077	
29	152.81253242492676	pulse	1	t		27.0	2.5	/experiments/Knapen_AOT/AOT_stimuli/rescaled_final/1620_rv.mp4	0.0	172.51205945014954	
29	153.33104062080383	fix_post	2		12	27.0	2.5	/experiments/Knapen_AOT/AOT_stimuli/rescaled_final/1620_rv.mp4	0.0	173.0305676460266	0.10001516342163086
30	153.43105578422546	fix_pre	0		119	28.0	2.5	blank	1.0	173.13058280944824	0.9918410778045654
30	154.4147846698761	pulse	0	t		28.0	2.5	blank	1.0	174.11431169509888	
30	154.42289686203003	movie	1		301	28.0	2.5	blank	1.0	174.1224238872528	2.508723020553589
30	156.01498222351074	pulse	1	t		28.0	2.5	blank	1.0	175.71450924873352	
30	156.93161988258362	fix_post	2		12	28.0	2.5	blank	1.0	176.6311469078064	0.10004186630249023
31	157.0316617488861	fix_pre	0		120	29.0	2.5	/experiments/Knapen_AOT/AOT_stimuli/rescaled_final/1022_fw.mp4	0.0	176.7311887741089	1.0085539817810059
31	157.6152858734131	pulse	0	t		29.0	2.5	/experiments/Knapen_AOT/AOT_stimuli/rescaled_final/1022_fw.mp4	0.0	177.31481289863586	
31	158.04021573066711	movie	1		274	29.0	2.5	/experiments/Knapen_AOT/AOT_stimuli/rescaled_final/1022_fw.mp4	0.0	177.7397427558899	2.491903066635132
31	159.21567487716675	pulse	1	t		29.0	2.5	/experiments/Knapen_AOT/AOT_stimuli/rescaled_final/1022_fw.mp4	0.0	178.91520190238953	
31	160.53211879730225	fix_post	2		12	29.0	2.5	/experiments/Knapen_AOT/AOT_stimuli/rescaled_final/1022_fw.mp4	0.0	180.23164582252502	0.10001945495605469
32	160.6321382522583	fix_pre	0		120	30.0	2.5	/experiments/Knapen_AOT/AOT_stimuli/rescaled_final/1906_fw.mp4	0.0	180.33166527748108	1.00856614112854
32	160.8157045841217	pulse	0	t		30.0	2.5	/experiments/Knapen_AOT/AOT_stimuli/rescaled_final/1906_fw.mp4	0.0	180.51523160934448	
32	161.64070439338684	movie	1		284	30.0	2.5	/experiments/Knapen_AOT/AOT_stimuli/rescaled_final/1906_fw.mp4	0.0	181.34023141860962	2.491987943649292
32	162.41400599479675	pulse	1	t		30.0	2.5	/experiments/Knapen_AOT/AOT_stimuli/rescaled_final/1906_fw.mp4	0.0	182.11353302001953	
32	164.0144464969635	pulse	1	t		30.0	2.5	/experiments/Knapen_AOT/AOT_stimuli/rescaled_final/1906_fw.mp4	0.0	183.71397352218628	
32	164.13269233703613	fix_post	2		12	30.0	2.5	/experiments/Knapen_AOT/AOT_stimuli/rescaled_final/1906_fw.mp4	0.0	183.8322193622589	0.10000872611999512
33	164.23270106315613	fix_pre	0		120	31.0	2.5	/experiments/Knapen_AOT/AOT_stimuli/rescaled_final/1571_fw.mp4	0.0	183.9322280883789	1.0084607601165771
33	165.2411618232727	movie	1		279	31.0	2.5	/experiments/Knapen_AOT/AOT_stimuli/rescaled_final/1571_fw.mp4	0.0	184.94068884849548	2.492048978805542
33	165.61487436294556	pulse	1	t		31.0	2.5	/experiments/Knapen_AOT/AOT_stimuli/rescaled_final/1571_fw.mp4	0.0	185.31440138816833	
33	167.21478819847107	pulse	1	t		31.0	2.5	/experiments/Knapen_AOT/AOT_stimuli/rescaled_final/1571_fw.mp4	0.0	186.91431522369385	
33	167.73321080207825	fix_post	2		12	31.0	2.5	/experiments/Knapen_AOT/AOT_stimuli/rescaled_final/1571_fw.mp4	0.0	187.43273782730103	0.1000063419342041
34	167.83321714401245	fix_pre	0		119	32.0	2.5	/experiments/Knapen_AOT/AOT_stimuli/rescaled_final/1768_fw.mp4	0.0	187.53274416923523	1.0002365112304688
34	168.8170084953308	pulse	0	t		32.0	2.5	/experiments/Knapen_AOT/AOT_stimuli/rescaled_final/1768_fw.mp4	0.0	188.5165355205536	
34	168.83345365524292	movie	1		284	32.0	2.5	/experiments/Knapen_AOT/AOT_stimuli/rescaled_final/1768_fw.mp4	0.0	188.5329806804657	2.500361680984497
34	170.415687084198	pulse	1	t		32.0	2.5	/experiments/Knapen_AOT/AOT_stimuli/rescaled_final/1768_fw.mp4	0.0	190.11521410942078	
34	171.33381533622742	fix_post	2		12	32.0	2.5	/experiments/Knapen_AOT/AOT_stimuli/rescaled_final/1768_fw.mp4	0.0	191.0333423614502	0.09998130798339844
35	171.43379664421082	fix_pre	0		120	33.0	2.5	/experiments/Knapen_AOT/AOT_stimuli/rescaled_final/1533_rv.mp4	0.0	191.1333236694336	1.0084547996520996
35	172.0103771686554	pulse	0	t		33.0	2.5	/experiments/Knapen_AOT/AOT_stimuli/rescaled_final/1533_rv.mp4	0.0	191.70990419387817	
35	172.44225144386292	movie	1		275	33.0	2.5	/experiments/Knapen_AOT/AOT_stimuli/rescaled_final/1533_rv.mp4	0.0	192.1417784690857	2.492027997970581
35	173.60941529273987	pulse	1	t		33.0	2.5	/experiments/Knapen_AOT/AOT_stimuli/rescaled_final/1533_rv.mp4	0.0	193.30894231796265	
35	174.9342794418335	fix_post	2		12	33.0	2.5	/experiments/Knapen_AOT/AOT_stimuli/rescaled_final/1533_rv.mp4	0.0	194.63380646705627	0.10001969337463379
36	175.03429913520813	fix_pre	0		120	34.0	2.5	/experiments/Knapen_AOT/AOT_stimuli/rescaled_final/0607_rv.mp4	0.0	194.7338261604309	1.008514404296875
36	175.20947766304016	pulse	0	t		34.0	2.5	/experiments/Knapen_AOT/AOT_stimuli/rescaled_final/0607_rv.mp4	0.0	194.90900468826294	
36	176.042813539505	movie	1		282	34.0	2.5	/experiments/Knapen_AOT/AOT_stimuli/rescaled_final/0607_rv.mp4	0.0	195.74234056472778	2.4920847415924072
36	176.80971956253052	pulse	1	t		34.0	2.5	/experiments/Knapen_AOT/AOT_stimuli/rescaled_final/0607_rv.mp4	0.0	196.5092465877533	
36	178.410053730011	pulse	1	t		34.0	2.5	/experiments/Knapen_AOT/AOT_stimuli/rescaled_final/0607_rv.mp4	0.0	198.10958075523376	
36	178.5348982810974	fix_post	2		12	34.0	2.5	/experiments/Knapen_AOT/AOT_stimuli/rescaled_final/0607_rv.mp4	0.0	198.2344253063202	0.10007572174072266
37	178.63497400283813	fix_pre	0		120	35.0	2.5	blank	1.0	198.3345010280609	1.0000464916229248
37	179.63502049446106	movie	1		300	35.0	2.5	blank	1.0	199.33454751968384	2.500352621078491
37	180.01027059555054	pulse	1	t		35.0	2.5	blank	1.0	199.70979762077332	
37	181.61049246788025	pulse	1	t		35.0	2.5	blank	1.0	201.31001949310303	
37	182.13537311553955	fix_post	2		12	35.0	2.5	blank	1.0	201.83490014076233	0.09999728202819824
38	182.23537039756775	fix_pre	0		118	36.0	2.5	/experiments/Knapen_AOT/AOT_stimuli/rescaled_final/0945_fw.mp4	0.0	201.93489742279053	0.9918665885925293
38	183.21080374717712	pulse	0	t		36.0	2.5	/experiments/Knapen_AOT/AOT_stimuli/rescaled_final/0945_fw.mp4	0.0	202.9103307723999	
38	183.22723698616028	movie	1		283	36.0	2.5	/experiments/Knapen_AOT/AOT_stimuli/rescaled_final/0945_fw.mp4	0.0	202.92676401138306	2.5003466606140137
38	184.80973052978516	pulse	1	t		36.0	2.5	/experiments/Knapen_AOT/AOT_stimuli/rescaled_final/0945_fw.mp4	0.0	204.50925755500793	
38	185.7275836467743	fix_post	2		12	36.0	2.5	/experiments/Knapen_AOT/AOT_stimuli/rescaled_final/0945_fw.mp4	0.0	205.42711067199707	0.10000085830688477
39	185.82758450508118	fix_pre	0		120	37.0	2.5	/experiments/Knapen_AOT/AOT_stimuli/rescaled_final/0510_fw.mp4	0.0	205.52711153030396	1.0085136890411377
39	186.41135668754578	pulse	0	t		37.0	2.5	/experiments/Knapen_AOT/AOT_stimuli/rescaled_final/0510_fw.mp4	0.0	206.11088371276855	
39	186.83609819412231	movie	1		283	37.0	2.5	/experiments/Knapen_AOT/AOT_stimuli/rescaled_final/0510_fw.mp4	0.0	206.5356252193451	2.4920246601104736
39	188.00952172279358	pulse	1	t		37.0	2.5	/experiments/Knapen_AOT/AOT_stimuli/rescaled_final/0510_fw.mp4	0.0	207.70904874801636	
39	189.3281228542328	fix_post	2		12	37.0	2.5	/experiments/Knapen_AOT/AOT_stimuli/rescaled_final/0510_fw.mp4	0.0	209.02764987945557	0.10017609596252441
40	189.4282989501953	fix_pre	0		120	38.0	2.5	/experiments/Knapen_AOT/AOT_stimuli/rescaled_final/0387_fw.mp4	0.0	209.1278259754181	1.0083422660827637
40	189.61169457435608	pulse	0	t		38.0	2.5	/experiments/Knapen_AOT/AOT_stimuli/rescaled_final/0387_fw.mp4	0.0	209.31122159957886	
40	190.43664121627808	movie	1		273	38.0	2.5	/experiments/Knapen_AOT/AOT_stimuli/rescaled_final/0387_fw.mp4	0.0	210.13616824150085	2.4920125007629395
40	191.21019911766052	pulse	1	t		38.0	2.5	/experiments/Knapen_AOT/AOT_stimuli/rescaled_final/0387_fw.mp4	0.0	210.9097261428833	
40	192.81008577346802	pulse	1	t		38.0	2.5	/experiments/Knapen_AOT/AOT_stimuli/rescaled_final/0387_fw.mp4	0.0	212.5096127986908	
40	192.92865371704102	fix_post	2		12	38.0	2.5	/experiments/Knapen_AOT/AOT_stimuli/rescaled_final/0387_fw.mp4	0.0	212.6281807422638	0.10001659393310547
41	193.02867031097412	fix_pre	0		120	39.0	2.5	/experiments/Knapen_AOT/AOT_stimuli/rescaled_final/0754_rv.mp4	0.0	212.7281973361969	1.0084853172302246
41	194.03715562820435	movie	1		280	39.0	2.5	/experiments/Knapen_AOT/AOT_stimuli/rescaled_final/0754_rv.mp4	0.0	213.73668265342712	2.4920287132263184
41	194.41203951835632	pulse	1	t		39.0	2.5	/experiments/Knapen_AOT/AOT_stimuli/rescaled_final/0754_rv.mp4	0.0	214.1115665435791	
41	196.01060032844543	pulse	1	t		39.0	2.5	/experiments/Knapen_AOT/AOT_stimuli/rescaled_final/0754_rv.mp4	0.0	215.7101273536682	
41	196.52918434143066	fix_post	2		12	39.0	2.5	/experiments/Knapen_AOT/AOT_stimuli/rescaled_final/0754_rv.mp4	0.0	216.22871136665344	0.10001230239868164
42	196.62919664382935	fix_pre	0		119	40.0	2.5	/experiments/Knapen_AOT/AOT_stimuli/rescaled_final/1673_fw.mp4	0.0	216.32872366905212	1.000211477279663
42	197.61343002319336	pulse	0	t		40.0	2.5	/experiments/Knapen_AOT/AOT_stimuli/rescaled_final/1673_fw.mp4	0.0	217.31295704841614	
42	197.629408121109	movie	1		292	40.0	2.5	/experiments/Knapen_AOT/AOT_stimuli/rescaled_final/1673_fw.mp4	0.0	217.3289351463318	2.500328302383423
42	199.21180820465088	pulse	1	t		40.0	2.5	/experiments/Knapen_AOT/AOT_stimuli/rescaled_final/1673_fw.mp4	0.0	218.91133522987366	
42	200.12973642349243	fix_post	2		12	40.0	2.5	/experiments/Knapen_AOT/AOT_stimuli/rescaled_final/1673_fw.mp4	0.0	219.8292634487152	0.10000753402709961
43	200.22974395751953	fix_pre	0		120	41.0	2.5	/experiments/Knapen_AOT/AOT_stimuli/rescaled_final/0130_rv.mp4	0.0	219.9292709827423	1.0084939002990723
43	200.81390380859375	pulse	0	t		41.0	2.5	/experiments/Knapen_AOT/AOT_stimuli/rescaled_final/0130_rv.mp4	0.0	220.51343083381653	
43	201.2382378578186	movie	1		294	41.0	2.5	/experiments/Knapen_AOT/AOT_stimuli/rescaled_final/0130_rv.mp4	0.0	220.93776488304138	2.4921321868896484
43	202.41179728507996	pulse	1	t		41.0	2.5	/experiments/Knapen_AOT/AOT_stimuli/rescaled_final/0130_rv.mp4	0.0	222.11132431030273	
43	203.73037004470825	fix_post	2		12	41.0	2.5	/experiments/Knapen_AOT/AOT_stimuli/rescaled_final/0130_rv.mp4	0.0	223.42989706993103	0.0998988151550293
44	203.83026885986328	fix_pre	0		120	42.0	2.5	blank	1.0	223.52979588508606	1.000185489654541
44	204.0140609741211	pulse	0	t		42.0	2.5	blank	1.0	223.71358799934387	
44	204.83045434951782	movie	1		300	42.0	2.5	blank	1.0	224.5299813747406	2.5003583431243896
44	205.61426258087158	pulse	1	t		42.0	2.5	blank	1.0	225.31378960609436	
44	207.21523189544678	pulse	1	t		42.0	2.5	blank	1.0	226.91475892066956	
44	207.3308126926422	fix_post	2		12	42.0	2.5	blank	1.0	227.030339717865	0.10000348091125488
45	207.43081617355347	fix_pre	0		120	43.0	2.5	/experiments/Knapen_AOT/AOT_stimuli/rescaled_final/1045_fw.mp4	0.0	227.13034319877625	1.0085322856903076
45	208.43934845924377	movie	1		292	43.0	2.5	/experiments/Knapen_AOT/AOT_stimuli/rescaled_final/1045_fw.mp4	0.0	228.13887548446655	2.4919891357421875
45	208.81224846839905	pulse	1	t		43.0	2.5	/experiments/Knapen_AOT/AOT_stimuli/rescaled_final/1045_fw.mp4	0.0	228.51177549362183	
45	210.41056990623474	pulse	1	t		43.0	2.5	/experiments/Knapen_AOT/AOT_stimuli/rescaled_final/1045_fw.mp4	0.0	230.11009693145752	
45	210.93133759498596	fix_post	2		12	43.0	2.5	/experiments/Knapen_AOT/AOT_stimuli/rescaled_final/1045_fw.mp4	0.0	230.63086462020874	0.10001921653747559
46	211.03135681152344	fix_pre	0		119	44.0	2.5	/experiments/Knapen_AOT/AOT_stimuli/rescaled_final/1244_fw.mp4	0.0	230.73088383674622	1.0001819133758545
46	212.01550912857056	pulse	0	t		44.0	2.5	/experiments/Knapen_AOT/AOT_stimuli/rescaled_final/1244_fw.mp4	0.0	231.71503615379333	
46	212.0315387248993	movie	1		296	44.0	2.5	/experiments/Knapen_AOT/AOT_stimuli/rescaled_final/1244_fw.mp4	0.0	231.73106575012207	2.5088117122650146
46	213.61250638961792	pulse	1	t		44.0	2.5	/experiments/Knapen_AOT/AOT_stimuli/rescaled_final/1244_fw.mp4	0.0	233.3120334148407	
46	214.5403504371643	fix_post	2		11	44.0	2.5	/experiments/Knapen_AOT/AOT_stimuli/rescaled_final/1244_fw.mp4	0.0	234.23987746238708	0.09169316291809082
47	214.6320436000824	fix_pre	0		120	45.0	2.5	/experiments/Knapen_AOT/AOT_stimuli/rescaled_final/0637_fw.mp4	0.0	234.33157062530518	1.0083942413330078
47	215.21545839309692	pulse	0	t		45.0	2.5	/experiments/Knapen_AOT/AOT_stimuli/rescaled_final/0637_fw.mp4	0.0	234.9149854183197	
47	215.6404378414154	movie	1		279	45.0	2.5	/experiments/Knapen_AOT/AOT_stimuli/rescaled_final/0637_fw.mp4	0.0	235.33996486663818	2.491957664489746
47	216.81148481369019	pulse	1	t		45.0	2.5	/experiments/Knapen_AOT/AOT_stimuli/rescaled_final/0637_fw.mp4	0.0	236.51101183891296	
47	218.13239550590515	fix_post	2		12	45.0	2.5	/experiments/Knapen_AOT/AOT_stimuli/rescaled_final/0637_fw.mp4	0.0	237.83192253112793	0.10001921653747559
48	218.23241472244263	fix_pre	0		120	46.0	2.5	/experiments/Knapen_AOT/AOT_stimuli/rescaled_final/0382_rv.mp4	0.0	237.9319417476654	1.0085482597351074
48	218.4158911705017	pulse	0	t		46.0	2.5	/experiments/Knapen_AOT/AOT_stimuli/rescaled_final/0382_rv.mp4	0.0	238.1154181957245	
48	219.24096298217773	movie	1		283	46.0	2.5	/experiments/Knapen_AOT/AOT_stimuli/rescaled_final/0382_rv.mp4	0.0	238.9404900074005	2.492023229598999
48	220.01517486572266	pulse	1	t		46.0	2.5	/experiments/Knapen_AOT/AOT_stimuli/rescaled_final/0382_rv.mp4	0.0	239.71470189094543	
48	221.61334323883057	pulse	1	t		46.0	2.5	/experiments/Knapen_AOT/AOT_stimuli/rescaled_final/0382_rv.mp4	0.0	241.31287026405334	
48	221.73298621177673	fix_post	2		12	46.0	2.5	/experiments/Knapen_AOT/AOT_stimuli/rescaled_final/0382_rv.mp4	0.0	241.4325132369995	0.10007286071777344
49	221.8330590724945	fix_pre	0		120	47.0	2.5	blank	1.0	241.53258609771729	1.0000622272491455
49	222.83312129974365	movie	1		300	47.0	2.5	blank	1.0	242.53264832496643	2.5003769397735596
49	223.2166039943695	pulse	1	t		47.0	2.5	blank	1.0	242.91613101959229	
49	224.81693410873413	pulse	1	t		47.0	2.5	blank	1.0	244.5164611339569	
49	225.3334982395172	fix_post	2		12	47.0	2.5	blank	1.0	245.03302526474	0.10003185272216797
50	225.43353009223938	fix_pre	0		119	48.0	2.5	/experiments/Knapen_AOT/AOT_stimuli/rescaled_final/0785_rv.mp4	0.0	245.13305711746216	1.0001652240753174
50	226.41724395751953	pulse	0	t		48.0	2.5	/experiments/Knapen_AOT/AOT_stimuli/rescaled_final/0785_rv.mp4	0.0	246.1167709827423	
50	226.4336953163147	movie	1		291	48.0	2.5	/experiments/Knapen_AOT/AOT_stimuli/rescaled_final/0785_rv.mp4	0.0	246.13322234153748	2.500364065170288
50	228.01604843139648	pulse	1	t		48.0	2.5	/experiments/Knapen_AOT/AOT_stimuli/rescaled_final/0785_rv.mp4	0.0	247.71557545661926	
50	228.93405938148499	fix_post	2		12	48.0	2.5	/experiments/Knapen_AOT/AOT_stimuli/rescaled_final/0785_rv.mp4	0.0	248.63358640670776	0.10002732276916504
51	229.03408670425415	fix_pre	0		120	49.0	2.5	/experiments/Knapen_AOT/AOT_stimuli/rescaled_final/1056_fw.mp4	0.0	248.73361372947693	1.008486032485962
51	229.6101086139679	pulse	0	t		49.0	2.5	/experiments/Knapen_AOT/AOT_stimuli/rescaled_final/1056_fw.mp4	0.0	249.30963563919067	
51	230.0425727367401	movie	1		277	49.0	2.5	/experiments/Knapen_AOT/AOT_stimuli/rescaled_final/1056_fw.mp4	0.0	249.7420997619629	2.4920358657836914
51	231.21015691757202	pulse	1	t		49.0	2.5	/experiments/Knapen_AOT/AOT_stimuli/rescaled_final/1056_fw.mp4	0.0	250.9096839427948	
51	232.5346086025238	fix_post	2		12	49.0	2.5	/experiments/Knapen_AOT/AOT_stimuli/rescaled_final/1056_fw.mp4	0.0	252.23413562774658	0.10001420974731445
52	232.63462281227112	fix_pre	0		120	50.0	2.5	/experiments/Knapen_AOT/AOT_stimuli/rescaled_final/1137_rv.mp4	0.0	252.3341498374939	1.0084753036499023
52	232.80995154380798	pulse	0	t		50.0	2.5	/experiments/Knapen_AOT/AOT_stimuli/rescaled_final/1137_rv.mp4	0.0	252.50947856903076	
52	233.64309811592102	movie	1		288	50.0	2.5	/experiments/Knapen_AOT/AOT_stimuli/rescaled_final/1137_rv.mp4	0.0	253.3426251411438	2.4920356273651123
52	234.41027569770813	pulse	1	t		50.0	2.5	/experiments/Knapen_AOT/AOT_stimuli/rescaled_final/1137_rv.mp4	0.0	254.1098027229309	
52	236.01034426689148	pulse	1	t		50.0	2.5	/experiments/Knapen_AOT/AOT_stimuli/rescaled_final/1137_rv.mp4	0.0	255.70987129211426	
52	236.13513374328613	fix_post	2		12	50.0	2.5	/experiments/Knapen_AOT/AOT_stimuli/rescaled_final/1137_rv.mp4	0.0	255.8346607685089	0.10002923011779785
53	236.23516297340393	fix_pre	0		120	51.0	2.5	/experiments/Knapen_AOT/AOT_stimuli/rescaled_final/0843_rv.mp4	0.0	255.9346899986267	1.008500576019287
53	237.24366354942322	movie	1		263	51.0	2.5	/experiments/Knapen_AOT/AOT_stimuli/rescaled_final/0843_rv.mp4	0.0	256.943190574646	2.4920272827148438
53	237.61077618598938	pulse	1	t		51.0	2.5	/experiments/Knapen_AOT/AOT_stimuli/rescaled_final/0843_rv.mp4	0.0	257.31030321121216	
53	239.21080422401428	pulse	1	t		51.0	2.5	/experiments/Knapen_AOT/AOT_stimuli/rescaled_final/0843_rv.mp4	0.0	258.91033124923706	
53	239.73569083213806	fix_post	2		12	51.0	2.5	/experiments/Knapen_AOT/AOT_stimuli/rescaled_final/0843_rv.mp4	0.0	259.43521785736084	0.1000065803527832
54	239.83569741249084	fix_pre	0		118	52.0	2.5	/experiments/Knapen_AOT/AOT_stimuli/rescaled_final/0653_rv.mp4	0.0	259.5352244377136	0.9918198585510254
54	240.81113266944885	pulse	0	t		52.0	2.5	/experiments/Knapen_AOT/AOT_stimuli/rescaled_final/0653_rv.mp4	0.0	260.51065969467163	
54	240.82751727104187	movie	1		275	52.0	2.5	/experiments/Knapen_AOT/AOT_stimuli/rescaled_final/0653_rv.mp4	0.0	260.52704429626465	2.5003883838653564
54	242.41016268730164	pulse	1	t		52.0	2.5	/experiments/Knapen_AOT/AOT_stimuli/rescaled_final/0653_rv.mp4	0.0	262.1096897125244	
54	243.32790565490723	fix_post	2		12	52.0	2.5	/experiments/Knapen_AOT/AOT_stimuli/rescaled_final/0653_rv.mp4	0.0	263.02743268013	0.10001802444458008
55	243.4279236793518	fix_pre	0		120	53.0	2.5	/experiments/Knapen_AOT/AOT_stimuli/rescaled_final/0551_fw.mp4	0.0	263.1274507045746	1.0085029602050781
55	244.01156306266785	pulse	0	t		53.0	2.5	/experiments/Knapen_AOT/AOT_stimuli/rescaled_final/0551_fw.mp4	0.0	263.7110900878906	
55	244.43642663955688	movie	1		286	53.0	2.5	/experiments/Knapen_AOT/AOT_stimuli/rescaled_final/0551_fw.mp4	0.0	264.13595366477966	2.4920105934143066
55	245.61038517951965	pulse	1	t		53.0	2.5	/experiments/Knapen_AOT/AOT_stimuli/rescaled_final/0551_fw.mp4	0.0	265.30991220474243	
55	246.9284372329712	fix_post	2		12	53.0	2.5	/experiments/Knapen_AOT/AOT_stimuli/rescaled_final/0551_fw.mp4	0.0	266.62796425819397	0.10001969337463379
56	247.02845692634583	fix_pre	0		120	54.0	2.5	/experiments/Knapen_AOT/AOT_stimuli/rescaled_final/1469_rv.mp4	0.0	266.7279839515686	1.0085258483886719
56	247.21204113960266	pulse	0	t		54.0	2.5	/experiments/Knapen_AOT/AOT_stimuli/rescaled_final/1469_rv.mp4	0.0	266.91156816482544	
56	248.0369827747345	movie	1		277	54.0	2.5	/experiments/Knapen_AOT/AOT_stimuli/rescaled_final/1469_rv.mp4	0.0	267.7365097999573	2.4920835494995117
56	248.8104124069214	pulse	1	t		54.0	2.5	/experiments/Knapen_AOT/AOT_stimuli/rescaled_final/1469_rv.mp4	0.0	268.50993943214417	
56	250.4108235836029	pulse	1	t		54.0	2.5	/experiments/Knapen_AOT/AOT_stimuli/rescaled_final/1469_rv.mp4	0.0	270.1103506088257	
56	250.529066324234	fix_post	2		12	54.0	2.5	/experiments/Knapen_AOT/AOT_stimuli/rescaled_final/1469_rv.mp4	0.0	270.2285933494568	0.10009193420410156
57	250.6291582584381	fix_pre	0		120	55.0	2.5	blank	1.0	270.3286852836609	0.9999918937683105
57	251.62915015220642	movie	1		300	55.0	2.5	blank	1.0	271.3286771774292	2.5003509521484375
57	252.01273465156555	pulse	1	t		55.0	2.5	blank	1.0	271.71226167678833	
57	253.61298632621765	pulse	1	t		55.0	2.5	blank	1.0	273.31251335144043	
57	254.12950110435486	fix_post	2		12	55.0	2.5	blank	1.0	273.82902812957764	0.10003352165222168
58	254.22953462600708	fix_pre	0		119	56.0	2.5	/experiments/Knapen_AOT/AOT_stimuli/rescaled_final/1944_fw.mp4	0.0	273.92906165122986	1.0085723400115967
58	255.21354866027832	pulse	0	t		56.0	2.5	/experiments/Knapen_AOT/AOT_stimuli/rescaled_final/1944_fw.mp4	0.0	274.9130756855011	
58	255.23810696601868	movie	1		274	56.0	2.5	/experiments/Knapen_AOT/AOT_stimuli/rescaled_final/1944_fw.mp4	0.0	274.93763399124146	2.492032051086426
58	256.8119111061096	pulse	1	t		56.0	2.5	/experiments/Knapen_AOT/AOT_stimuli/rescaled_final/1944_fw.mp4	0.0	276.5114381313324	
58	257.7301390171051	fix_post	2		12	56.0	2.5	/experiments/Knapen_AOT/AOT_stimuli/rescaled_final/1944_fw.mp4	0.0	277.4296660423279	0.09992837905883789
59	257.83006739616394	fix_pre	0		120	57.0	2.5	/experiments/Knapen_AOT/AOT_stimuli/rescaled_final/1865_rv.mp4	0.0	277.5295944213867	1.0085103511810303
59	258.41380882263184	pulse	0	t		57.0	2.5	/experiments/Knapen_AOT/AOT_stimuli/rescaled_final/1865_rv.mp4	0.0	278.1133358478546	
59	258.83857774734497	movie	1		277	57.0	2.5	/experiments/Knapen_AOT/AOT_stimuli/rescaled_final/1865_rv.mp4	0.0	278.53810477256775	2.4922690391540527
59	260.0122196674347	pulse	1	t		57.0	2.5	/experiments/Knapen_AOT/AOT_stimuli/rescaled_final/1865_rv.mp4	0.0	279.71174669265747	
59	261.330846786499	fix_post	2		12	57.0	2.5	/experiments/Knapen_AOT/AOT_stimuli/rescaled_final/1865_rv.mp4	0.0	281.0303738117218	0.09977483749389648
60	261.4306216239929	fix_pre	0		120	58.0	2.5	/experiments/Knapen_AOT/AOT_stimuli/rescaled_final/0904_fw.mp4	0.0	281.1301486492157	1.0085382461547852
60	261.614187002182	pulse	0	t		58.0	2.5	/experiments/Knapen_AOT/AOT_stimuli/rescaled_final/0904_fw.mp4	0.0	281.3137140274048	
60	262.4391598701477	movie	1		262	58.0	2.5	/experiments/Knapen_AOT/AOT_stimuli/rescaled_final/0904_fw.mp4	0.0	282.1386868953705	2.4920010566711426
60	263.2145481109619	pulse	1	t		58.0	2.5	/experiments/Knapen_AOT/AOT_stimuli/rescaled_final/0904_fw.mp4	0.0	282.9140751361847	
60	264.81372261047363	pulse	1	t		58.0	2.5	/experiments/Knapen_AOT/AOT_stimuli/rescaled_final/0904_fw.mp4	0.0	284.5132496356964	
60	264.93116092681885	fix_post	2		12	58.0	2.5	/experiments/Knapen_AOT/AOT_stimuli/rescaled_final/0904_fw.mp4	0.0	284.6306879520416	0.100006103515625
61	265.0311670303345	fix_pre	0		120	59.0	2.5	/experiments/Knapen_AOT/AOT_stimuli/rescaled_final/0190_rv.mp4	0.0	284.73069405555725	1.0084924697875977
61	266.03965950012207	movie	1		287	59.0	2.5	/experiments/Knapen_AOT/AOT_stimuli/rescaled_final/0190_rv.mp4	0.0	285.73918652534485	2.4920554161071777
61	266.41509795188904	pulse	1	t		59.0	2.5	/experiments/Knapen_AOT/AOT_stimuli/rescaled_final/0190_rv.mp4	0.0	286.1146249771118	
61	268.0128700733185	pulse	1	t		59.0	2.5	/experiments/Knapen_AOT/AOT_stimuli/rescaled_final/0190_rv.mp4	0.0	287.71239709854126	
61	268.53171491622925	fix_post	2		12	59.0	2.5	/experiments/Knapen_AOT/AOT_stimuli/rescaled_final/0190_rv.mp4	0.0	288.231241941452	0.09998703002929688
62	268.63170194625854	fix_pre	0		119	60.0	2.5	/experiments/Knapen_AOT/AOT_stimuli/rescaled_final/0564_rv.mp4	0.0	288.3312289714813	1.000159502029419
62	269.61549496650696	pulse	0	t		60.0	2.5	/experiments/Knapen_AOT/AOT_stimuli/rescaled_final/0564_rv.mp4	0.0	289.31502199172974	
62	269.63186144828796	movie	1		279	60.0	2.5	/experiments/Knapen_AOT/AOT_stimuli/rescaled_final/0564_rv.mp4	0.0	289.33138847351074	2.5003533363342285
62	271.2143898010254	pulse	1	t		60.0	2.5	/experiments/Knapen_AOT/AOT_stimuli/rescaled_final/0564_rv.mp4	0.0	290.91391682624817	
62	272.1322147846222	fix_post	2		12	60.0	2.5	/experiments/Knapen_AOT/AOT_stimuli/rescaled_final/0564_rv.mp4	0.0	291.83174180984497	0.1000359058380127
63	272.2322506904602	fix_pre	0		120	61.0	2.5	/experiments/Knapen_AOT/AOT_stimuli/rescaled_final/0904_fw.mp4	0.0	291.931777715683	1.0085344314575195
63	272.8160479068756	pulse	0	t		61.0	2.5	/experiments/Knapen_AOT/AOT_stimuli/rescaled_final/0904_fw.mp4	0.0	292.5155749320984	
63	273.2407851219177	movie	1		291	61.0	2.5	/experiments/Knapen_AOT/AOT_stimuli/rescaled_final/0904_fw.mp4	0.0	292.9403121471405	2.4920613765716553
63	274.4147837162018	pulse	1	t		61.0	2.5	/experiments/Knapen_AOT/AOT_stimuli/rescaled_final/0904_fw.mp4	0.0	294.11431074142456	
63	275.7328464984894	fix_post	2		12	61.0	2.5	/experiments/Knapen_AOT/AOT_stimuli/rescaled_final/0904_fw.mp4	0.0	295.43237352371216	0.09995079040527344
64	275.83279728889465	fix_pre	0		120	62.0	2.5	blank	1.0	295.53232431411743	1.0001552104949951
64	276.01634550094604	pulse	0	t		62.0	2.5	blank	1.0	295.7158725261688	
64	276.83295249938965	movie	1		300	62.0	2.5	blank	1.0	296.5324795246124	2.5003554821014404
64	277.61659264564514	pulse	1	t		62.0	2.5	blank	1.0	297.3161196708679	
64	279.216854095459	pulse	1	t		62.0	2.5	blank	1.0	298.91638112068176	
64	279.3333079814911	fix_post	2		12	62.0	2.5	blank	1.0	299.03283500671387	0.10001277923583984
65	279.43332076072693	fix_pre	0		120	63.0	2.5	/experiments/Knapen_AOT/AOT_stimuli/rescaled_final/1206_fw.mp4	0.0	299.1328477859497	1.0085201263427734
65	280.4418408870697	movie	1		271	63.0	2.5	/experiments/Knapen_AOT/AOT_stimuli/rescaled_final/1206_fw.mp4	0.0	300.1413679122925	2.492023468017578
65	280.81733417510986	pulse	1	t		63.0	2.5	/experiments/Knapen_AOT/AOT_stimuli/rescaled_final/1206_fw.mp4	0.0	300.51686120033264	
65	282.41520643234253	pulse	1	t		63.0	2.5	/experiments/Knapen_AOT/AOT_stimuli/rescaled_final/1206_fw.mp4	0.0	302.1147334575653	
65	282.9338643550873	fix_post	2		12	63.0	2.5	/experiments/Knapen_AOT/AOT_stimuli/rescaled_final/1206_fw.mp4	0.0	302.63339138031006	0.0999753475189209
66	283.0338397026062	fix_pre	0		119	64.0	2.5	/experiments/Knapen_AOT/AOT_stimuli/rescaled_final/1100_fw.mp4	0.0	302.733366727829	1.008692979812622
66	284.0107057094574	pulse	0	t		64.0	2.5	/experiments/Knapen_AOT/AOT_stimuli/rescaled_final/1100_fw.mp4	0.0	303.7102327346802	
66	284.0425326824188	movie	1		273	64.0	2.5	/experiments/Knapen_AOT/AOT_stimuli/rescaled_final/1100_fw.mp4	0.0	303.7420597076416	2.4918668270111084
66	285.61631298065186	pulse	1	t		64.0	2.5	/experiments/Knapen_AOT/AOT_stimuli/rescaled_final/1100_fw.mp4	0.0	305.31584000587463	
66	286.53439950942993	fix_post	2		12	64.0	2.5	/experiments/Knapen_AOT/AOT_stimuli/rescaled_final/1100_fw.mp4	0.0	306.2339265346527	0.10006904602050781
67	286.63446855545044	fix_pre	0		120	65.0	2.5	/experiments/Knapen_AOT/AOT_stimuli/rescaled_final/1103_fw.mp4	0.0	306.3339955806732	1.0084145069122314
67	287.21015763282776	pulse	0	t		65.0	2.5	/experiments/Knapen_AOT/AOT_stimuli/rescaled_final/1103_fw.mp4	0.0	306.90968465805054	
67	287.64288306236267	movie	1		292	65.0	2.5	/experiments/Knapen_AOT/AOT_stimuli/rescaled_final/1103_fw.mp4	0.0	307.34241008758545	2.4920811653137207
67	288.8102533817291	pulse	1	t		65.0	2.5	/experiments/Knapen_AOT/AOT_stimuli/rescaled_final/1103_fw.mp4	0.0	308.5097804069519	
67	290.1349642276764	fix_post	2		12	65.0	2.5	/experiments/Knapen_AOT/AOT_stimuli/rescaled_final/1103_fw.mp4	0.0	309.83449125289917	0.10001564025878906
68	290.2349798679352	fix_pre	0		120	66.0	2.5	/experiments/Knapen_AOT/AOT_stimuli/rescaled_final/1652_fw.mp4	0.0	309.93450689315796	1.0084724426269531
68	290.41045331954956	pulse	0	t		66.0	2.5	/experiments/Knapen_AOT/AOT_stimuli/rescaled_final/1652_fw.mp4	0.0	310.10998034477234	
68	291.24345231056213	movie	1		274	66.0	2.5	/experiments/Knapen_AOT/AOT_stimuli/rescaled_final/1652_fw.mp4	0.0	310.9429793357849	2.4920074939727783
68	292.0104455947876	pulse	1	t		66.0	2.5	/experiments/Knapen_AOT/AOT_stimuli/rescaled_final/1652_fw.mp4	0.0	311.7099726200104	
68	293.6107988357544	pulse	1	t		66.0	2.5	/experiments/Knapen_AOT/AOT_stimuli/rescaled_final/1652_fw.mp4	0.0	313.3103258609772	
68	293.7354598045349	fix_post	2		12	66.0	2.5	/experiments/Knapen_AOT/AOT_stimuli/rescaled_final/1652_fw.mp4	0.0	313.4349868297577	0.10001182556152344
69	293.83547163009644	fix_pre	0		120	67.0	2.5	/experiments/Knapen_AOT/AOT_stimuli/rescaled_final/0177_rv.mp4	0.0	313.5349986553192	1.0085737705230713
69	294.8440454006195	movie	1		267	67.0	2.5	/experiments/Knapen_AOT/AOT_stimuli/rescaled_final/0177_rv.mp4	0.0	314.5435724258423	2.49202299118042
69	295.2110915184021	pulse	1	t		67.0	2.5	/experiments/Knapen_AOT/AOT_stimuli/rescaled_final/0177_rv.mp4	0.0	314.9106185436249	
69	296.8111810684204	pulse	1	t		67.0	2.5	/experiments/Knapen_AOT/AOT_stimuli/rescaled_final/0177_rv.mp4	0.0	316.5107080936432	
69	297.3360683917999	fix_post	2		12	67.0	2.5	/experiments/Knapen_AOT/AOT_stimuli/rescaled_final/0177_rv.mp4	0.0	317.0355954170227	0.10025334358215332
70	297.4363217353821	fix_pre	0		118	68.0	2.5	blank	1.0	317.13584876060486	0.9831843376159668
70	298.4117429256439	pulse	0	t		68.0	2.5	blank	1.0	318.1112699508667	
70	298.41950607299805	movie	1		301	68.0	2.5	blank	1.0	318.1190330982208	2.508716106414795
70	300.0115966796875	pulse	1	t		68.0	2.5	blank	1.0	319.7111237049103	
70	300.92822217941284	fix_post	2		12	68.0	2.5	blank	1.0	320.6277492046356	0.1000216007232666
71	301.0282437801361	fix_pre	0		120	69.0	2.5	/experiments/Knapen_AOT/AOT_stimuli/rescaled_final/1045_rv.mp4	0.0	320.7277708053589	1.0084865093231201
71	301.6119966506958	pulse	0	t		69.0	2.5	/experiments/Knapen_AOT/AOT_stimuli/rescaled_final/1045_rv.mp4	0.0	321.3115236759186	
71	302.03673028945923	movie	1		276	69.0	2.5	/experiments/Knapen_AOT/AOT_stimuli/rescaled_final/1045_rv.mp4	0.0	321.736257314682	2.4920387268066406
71	303.21066212654114	pulse	1	t		69.0	2.5	/experiments/Knapen_AOT/AOT_stimuli/rescaled_final/1045_rv.mp4	0.0	322.9101891517639	
71	304.52876901626587	fix_post	2		12	69.0	2.5	/experiments/Knapen_AOT/AOT_stimuli/rescaled_final/1045_rv.mp4	0.0	324.22829604148865	0.10001754760742188
72	304.6287865638733	fix_pre	0		120	70.0	2.5	/experiments/Knapen_AOT/AOT_stimuli/rescaled_final/0668_fw.mp4	0.0	324.32831358909607	1.008495807647705
72	304.81233620643616	pulse	0	t		70.0	2.5	/experiments/Knapen_AOT/AOT_stimuli/rescaled_final/0668_fw.mp4	0.0	324.51186323165894	
72	305.637282371521	movie	1		272	70.0	2.5	/experiments/Knapen_AOT/AOT_stimuli/rescaled_final/0668_fw.mp4	0.0	325.3368093967438	2.4920434951782227
72	306.41203141212463	pulse	1	t		70.0	2.5	/experiments/Knapen_AOT/AOT_stimuli/rescaled_final/0668_fw.mp4	0.0	326.1115584373474	
72	308.01070952415466	pulse	1	t		70.0	2.5	/experiments/Knapen_AOT/AOT_stimuli/rescaled_final/0668_fw.mp4	0.0	327.71023654937744	
72	308.1293258666992	fix_post	2		12	70.0	2.5	/experiments/Knapen_AOT/AOT_stimuli/rescaled_final/0668_fw.mp4	0.0	327.828852891922	0.10001063346862793
73	308.22933650016785	fix_pre	0		120	71.0	2.5	/experiments/Knapen_AOT/AOT_stimuli/rescaled_final/1133_fw.mp4	0.0	327.9288635253906	1.0084865093231201
73	309.23782300949097	movie	1		268	71.0	2.5	/experiments/Knapen_AOT/AOT_stimuli/rescaled_final/1133_fw.mp4	0.0	328.93735003471375	2.492029905319214
73	309.61144518852234	pulse	1	t		71.0	2.5	/experiments/Knapen_AOT/AOT_stimuli/rescaled_final/1133_fw.mp4	0.0	329.3109722137451	
73	311.21158361434937	pulse	1	t		71.0	2.5	/experiments/Knapen_AOT/AOT_stimuli/rescaled_final/1133_fw.mp4	0.0	330.91111063957214	
73	311.7298529148102	fix_post	2		12	71.0	2.5	/experiments/Knapen_AOT/AOT_stimuli/rescaled_final/1133_fw.mp4	0.0	331.42937994003296	0.10000991821289062
74	311.82986283302307	fix_pre	0		119	72.0	2.5	/experiments/Knapen_AOT/AOT_stimuli/rescaled_final/0690_rv.mp4	0.0	331.52938985824585	1.0000882148742676
74	312.8135132789612	pulse	0	t		72.0	2.5	/experiments/Knapen_AOT/AOT_stimuli/rescaled_final/0690_rv.mp4	0.0	332.51304030418396	
74	312.82995104789734	movie	1		274	72.0	2.5	/experiments/Knapen_AOT/AOT_stimuli/rescaled_final/0690_rv.mp4	0.0	332.5294780731201	2.5004401206970215
74	314.4123647212982	pulse	1	t		72.0	2.5	/experiments/Knapen_AOT/AOT_stimuli/rescaled_final/0690_rv.mp4	0.0	334.111891746521	
74	315.33039116859436	fix_post	2		12	72.0	2.5	/experiments/Knapen_AOT/AOT_stimuli/rescaled_final/0690_rv.mp4	0.0	335.02991819381714	0.10005307197570801
75	315.43044424057007	fix_pre	0		120	73.0	2.5	/experiments/Knapen_AOT/AOT_stimuli/rescaled_final/0069_rv.mp4	0.0	335.12997126579285	1.0084824562072754
75	316.01410722732544	pulse	0	t		73.0	2.5	/experiments/Knapen_AOT/AOT_stimuli/rescaled_final/0069_rv.mp4	0.0	335.7136342525482	
75	316.43892669677734	movie	1		286	73.0	2.5	/experiments/Knapen_AOT/AOT_stimuli/rescaled_final/0069_rv.mp4	0.0	336.1384537220001	2.491999864578247
75	317.6121530532837	pulse	1	t		73.0	2.5	/experiments/Knapen_AOT/AOT_stimuli/rescaled_final/0069_rv.mp4	0.0	337.31168007850647	
75	318.9309265613556	fix_post	2		12	73.0	2.5	/experiments/Knapen_AOT/AOT_stimuli/rescaled_final/0069_rv.mp4	0.0	338.63045358657837	0.10003376007080078
76	319.0309603214264	fix_pre	0		120	74.0	2.5	/experiments/Knapen_AOT/AOT_stimuli/rescaled_final/0408_fw.mp4	0.0	338.73048734664917	1.0085029602050781
76	319.2146589756012	pulse	0	t		74.0	2.5	/experiments/Knapen_AOT/AOT_stimuli/rescaled_final/0408_fw.mp4	0.0	338.914186000824	
76	320.03946328163147	movie	1		282	74.0	2.5	/experiments/Knapen_AOT/AOT_stimuli/rescaled_final/0408_fw.mp4	0.0	339.73899030685425	2.4920129776000977
76	320.8127064704895	pulse	1	t		74.0	2.5	/experiments/Knapen_AOT/AOT_stimuli/rescaled_final/0408_fw.mp4	0.0	340.5122334957123	
76	322.4138388633728	pulse	1	t		74.0	2.5	/experiments/Knapen_AOT/AOT_stimuli/rescaled_final/0408_fw.mp4	0.0	342.1133658885956	
76	322.53147625923157	fix_post	2		12	74.0	2.5	/experiments/Knapen_AOT/AOT_stimuli/rescaled_final/0408_fw.mp4	0.0	342.23100328445435	0.10000491142272949
77	322.6314811706543	fix_pre	0		120	75.0	2.5	blank	1.0	342.3310081958771	1.000166416168213
77	323.6316475868225	movie	1		300	75.0	2.5	blank	1.0	343.3311746120453	2.500361204147339
77	324.0152418613434	pulse	1	t		75.0	2.5	blank	1.0	343.71476888656616	
77	325.6155059337616	pulse	1	t		75.0	2.5	blank	1.0	345.3150329589844	
77	326.13200879096985	fix_post	2		12	75.0	2.5	blank	1.0	345.8315358161926	0.10006833076477051
78	326.2320771217346	fix_pre	0		119	76.0	2.5	/experiments/Knapen_AOT/AOT_stimuli/rescaled_final/0821_rv.mp4	0.0	345.9316041469574	1.00852632522583
78	327.2158417701721	pulse	0	t		76.0	2.5	/experiments/Knapen_AOT/AOT_stimuli/rescaled_final/0821_rv.mp4	0.0	346.9153687953949	
78	327.24060344696045	movie	1		265	76.0	2.5	/experiments/Knapen_AOT/AOT_stimuli/rescaled_final/0821_rv.mp4	0.0	346.9401304721832	2.491962194442749
78	328.81494522094727	pulse	1	t		76.0	2.5	/experiments/Knapen_AOT/AOT_stimuli/rescaled_final/0821_rv.mp4	0.0	348.51447224617004	
78	329.7325656414032	fix_post	2		12	76.0	2.5	/experiments/Knapen_AOT/AOT_stimuli/rescaled_final/0821_rv.mp4	0.0	349.432092666626	0.10001063346862793
79	329.8325762748718	fix_pre	0		120	77.0	2.5	/experiments/Knapen_AOT/AOT_stimuli/rescaled_final/1470_rv.mp4	0.0	349.5321033000946	1.0084826946258545
79	330.4161674976349	pulse	0	t		77.0	2.5	/experiments/Knapen_AOT/AOT_stimuli/rescaled_final/1470_rv.mp4	0.0	350.11569452285767	
79	330.8410589694977	movie	1		280	77.0	2.5	/experiments/Knapen_AOT/AOT_stimuli/rescaled_final/1470_rv.mp4	0.0	350.54058599472046	2.4920427799224854
79	332.0146415233612	pulse	1	t		77.0	2.5	/experiments/Knapen_AOT/AOT_stimuli/rescaled_final/1470_rv.mp4	0.0	351.714168548584	
79	333.33310174942017	fix_post	2		12	77.0	2.5	/experiments/Knapen_AOT/AOT_stimuli/rescaled_final/1470_rv.mp4	0.0	353.03262877464294	0.10002756118774414
80	333.4331293106079	fix_pre	0		120	78.0	2.5	/experiments/Knapen_AOT/AOT_stimuli/rescaled_final/0917_fw.mp4	0.0	353.1326563358307	1.0084762573242188
80	333.61684012413025	pulse	0	t		78.0	2.5	/experiments/Knapen_AOT/AOT_stimuli/rescaled_final/0917_fw.mp4	0.0	353.316367149353	
80	334.44160556793213	movie	1		271	78.0	2.5	/experiments/Knapen_AOT/AOT_stimuli/rescaled_final/0917_fw.mp4	0.0	354.1411325931549	2.4920437335968018
80	335.2148103713989	pulse	1	t		78.0	2.5	/experiments/Knapen_AOT/AOT_stimuli/rescaled_final/0917_fw.mp4	0.0	354.9143373966217	
80	336.8152766227722	pulse	1	t		78.0	2.5	/experiments/Knapen_AOT/AOT_stimuli/rescaled_final/0917_fw.mp4	0.0	356.514803647995	
80	336.93364930152893	fix_post	2		12	78.0	2.5	/experiments/Knapen_AOT/AOT_stimuli/rescaled_final/0917_fw.mp4	0.0	356.6331763267517	0.10001921653747559
81	337.0336685180664	fix_pre	0		120	79.0	2.5	/experiments/Knapen_AOT/AOT_stimuli/rescaled_final/1242_fw.mp4	0.0	356.7331955432892	1.008469820022583
81	338.042138338089	movie	1		278	79.0	2.5	/experiments/Knapen_AOT/AOT_stimuli/rescaled_final/1242_fw.mp4	0.0	357.74166536331177	2.492037057876587
81	338.41570496559143	pulse	1	t		79.0	2.5	/experiments/Knapen_AOT/AOT_stimuli/rescaled_final/1242_fw.mp4	0.0	358.1152319908142	
81	340.00969409942627	pulse	1	t		79.0	2.5	/experiments/Knapen_AOT/AOT_stimuli/rescaled_final/1242_fw.mp4	0.0	359.70922112464905	
81	340.5341753959656	fix_post	2		12	79.0	2.5	/experiments/Knapen_AOT/AOT_stimuli/rescaled_final/1242_fw.mp4	0.0	360.23370242118835	0.10003423690795898
82	340.63420963287354	fix_pre	0		118	80.0	2.5	/experiments/Knapen_AOT/AOT_stimuli/rescaled_final/1673_rv.mp4	0.0	360.3337366580963	0.9919121265411377
82	341.6098346710205	pulse	0	t		80.0	2.5	/experiments/Knapen_AOT/AOT_stimuli/rescaled_final/1673_rv.mp4	0.0	361.3093616962433	
82	341.6261217594147	movie	1		285	80.0	2.5	/experiments/Knapen_AOT/AOT_stimuli/rescaled_final/1673_rv.mp4	0.0	361.32564878463745	2.5003039836883545
82	343.21840476989746	pulse	1	t		80.0	2.5	/experiments/Knapen_AOT/AOT_stimuli/rescaled_final/1673_rv.mp4	0.0	362.91793179512024	
82	344.126425743103	fix_post	2		12	80.0	2.5	/experiments/Knapen_AOT/AOT_stimuli/rescaled_final/1673_rv.mp4	0.0	363.8259527683258	0.09998965263366699
83	344.2264153957367	fix_pre	0		120	81.0	2.5	/experiments/Knapen_AOT/AOT_stimuli/rescaled_final/1950_fw.mp4	0.0	363.9259424209595	1.0084953308105469
83	344.8101124763489	pulse	0	t		81.0	2.5	/experiments/Knapen_AOT/AOT_stimuli/rescaled_final/1950_fw.mp4	0.0	364.50963950157166	
83	345.23491072654724	movie	1		265	81.0	2.5	/experiments/Knapen_AOT/AOT_stimuli/rescaled_final/1950_fw.mp4	0.0	364.93443775177	2.491989850997925
83	346.41034603118896	pulse	1	t		81.0	2.5	/experiments/Knapen_AOT/AOT_stimuli/rescaled_final/1950_fw.mp4	0.0	366.10987305641174	
83	347.72690057754517	fix_post	2		12	81.0	2.5	/experiments/Knapen_AOT/AOT_stimuli/rescaled_final/1950_fw.mp4	0.0	367.42642760276794	0.10007810592651367
84	347.8269786834717	fix_pre	0		120	82.0	2.5	blank	1.0	367.52650570869446	1.0001106262207031
84	348.0106146335602	pulse	0	t		82.0	2.5	blank	1.0	367.71014165878296	
84	348.8270893096924	movie	1		300	82.0	2.5	blank	1.0	368.52661633491516	2.500370979309082
84	349.6110279560089	pulse	1	t		82.0	2.5	blank	1.0	369.3105549812317	
84	351.21107292175293	pulse	1	t		82.0	2.5	blank	1.0	370.9105999469757	
84	351.32746028900146	fix_post	2		12	82.0	2.5	blank	1.0	371.02698731422424	0.10002303123474121
85	351.4274833202362	fix_pre	0		120	83.0	2.5	/experiments/Knapen_AOT/AOT_stimuli/rescaled_final/1312_fw.mp4	0.0	371.127010345459	1.008542776107788
85	352.436026096344	movie	1		270	83.0	2.5	/experiments/Knapen_AOT/AOT_stimuli/rescaled_final/1312_fw.mp4	0.0	372.1355531215668	2.4920144081115723
85	352.8114492893219	pulse	1	t		83.0	2.5	/experiments/Knapen_AOT/AOT_stimuli/rescaled_final/1312_fw.mp4	0.0	372.5109763145447	
85	354.40979409217834	pulse	1	t		83.0	2.5	/experiments/Knapen_AOT/AOT_stimuli/rescaled_final/1312_fw.mp4	0.0	374.1093211174011	
85	354.92804050445557	fix_post	2		12	83.0	2.5	/experiments/Knapen_AOT/AOT_stimuli/rescaled_final/1312_fw.mp4	0.0	374.62756752967834	0.09995889663696289
87	355.02799940109253	stim	0		1715					374.7275264263153	14.293850660324097
87	356.0118308067322	pulse	0	t						375.71135783195496	
87	357.6120607852936	pulse	0	t						377.31158781051636	
87	359.21230387687683	pulse	0	t						378.9118309020996	
87	360.8124554157257	pulse	0	t						380.5119824409485	
87	362.41270303726196	pulse	0	t						382.11223006248474	
87	364.0130708217621	pulse	0	t						383.71259784698486	
87	365.61325693130493	pulse	0	t						385.3127839565277	
87	367.2134299278259	pulse	0	t						386.9129569530487	
87	368.8136637210846	pulse	0	t						388.5131907463074	
