trial_nr	onset	event_type	phase	response	nr_frames	movie_index	movie_duration	movie_file	blank	onset_abs	duration
0	0.14157605171203613	stim	0		67					16.16414761543274	0.5582418441772461
0	0.692131519317627	response	0	space						16.71470308303833	
1	0.6998178958892822	stim	0		4573					16.722389459609985	38.12652945518494
1	38.811978340148926	pulse	0	t						54.83454990386963	
1	38.82634735107422	stim	1		1714					54.84891891479492	14.298067808151245
1	40.40602207183838	pulse	1	t						56.42859363555908	
1	42.00625801086426	pulse	1	t						58.02882957458496	
1	43.60648822784424	pulse	1	t						59.62905979156494	
1	45.206796407699585	pulse	1	t						61.22936797142029	
1	46.80699372291565	pulse	1	t						62.82956528663635	
1	48.407188415527344	pulse	1	t						64.42975997924805	
1	50.00755977630615	pulse	1	t						66.03013134002686	
1	51.60774374008179	pulse	1	t						67.63031530380249	
2	53.124415159225464	fix_pre	0		11	0.0	2.5	/experiments/Knapen_AOT/AOT_stimuli/rescaled_final/1112_fw.mp4	0.0	69.14698672294617	0.10839009284973145
2	53.20831346511841	pulse	0	t		0.0	2.5	/experiments/Knapen_AOT/AOT_stimuli/rescaled_final/1112_fw.mp4	0.0	69.23088502883911	
2	53.232805252075195	movie	1		279	0.0	2.5	/experiments/Knapen_AOT/AOT_stimuli/rescaled_final/1112_fw.mp4	0.0	69.2553768157959	2.491974115371704
2	54.80699443817139	pulse	1	t		0.0	2.5	/experiments/Knapen_AOT/AOT_stimuli/rescaled_final/1112_fw.mp4	0.0	70.82956600189209	
2	55.7247793674469	fix_post	2		12	0.0	2.5	/experiments/Knapen_AOT/AOT_stimuli/rescaled_final/1112_fw.mp4	0.0	71.7473509311676	0.10001015663146973
3	55.82478952407837	fix_pre	0		120	1.0	2.5	/experiments/Knapen_AOT/AOT_stimuli/rescaled_final/1871_fw.mp4	0.0	71.84736108779907	1.008512258529663
3	56.40841507911682	pulse	0	t		1.0	2.5	/experiments/Knapen_AOT/AOT_stimuli/rescaled_final/1871_fw.mp4	0.0	72.43098664283752	
3	56.83330178260803	movie	1		283	1.0	2.5	/experiments/Knapen_AOT/AOT_stimuli/rescaled_final/1871_fw.mp4	0.0	72.85587334632874	2.4920592308044434
3	58.008131980895996	pulse	1	t		1.0	2.5	/experiments/Knapen_AOT/AOT_stimuli/rescaled_final/1871_fw.mp4	0.0	74.0307035446167	
3	59.325361013412476	fix_post	2		12	1.0	2.5	/experiments/Knapen_AOT/AOT_stimuli/rescaled_final/1871_fw.mp4	0.0	75.34793257713318	0.10004544258117676
4	59.42540645599365	fix_pre	0		120	2.0	2.5	/experiments/Knapen_AOT/AOT_stimuli/rescaled_final/0676_fw.mp4	0.0	75.44797801971436	1.008490800857544
4	59.601009368896484	pulse	0	t		2.0	2.5	/experiments/Knapen_AOT/AOT_stimuli/rescaled_final/0676_fw.mp4	0.0	75.62358093261719	
4	60.433897256851196	movie	1		281	2.0	2.5	/experiments/Knapen_AOT/AOT_stimuli/rescaled_final/0676_fw.mp4	0.0	76.4564688205719	2.4920146465301514
4	61.20112204551697	pulse	1	t		2.0	2.5	/experiments/Knapen_AOT/AOT_stimuli/rescaled_final/0676_fw.mp4	0.0	77.22369360923767	
4	62.801087379455566	pulse	1	t		2.0	2.5	/experiments/Knapen_AOT/AOT_stimuli/rescaled_final/0676_fw.mp4	0.0	78.82365894317627	
4	62.92591190338135	fix_post	2		12	2.0	2.5	/experiments/Knapen_AOT/AOT_stimuli/rescaled_final/0676_fw.mp4	0.0	78.94848346710205	0.09998083114624023
5	63.02589273452759	fix_pre	0		120	3.0	2.5	/experiments/Knapen_AOT/AOT_stimuli/rescaled_final/2086_fw.mp4	0.0	79.04846429824829	1.0084974765777588
5	64.03439021110535	movie	1		283	3.0	2.5	/experiments/Knapen_AOT/AOT_stimuli/rescaled_final/2086_fw.mp4	0.0	80.05696177482605	2.4920222759246826
5	64.40139985084534	pulse	1	t		3.0	2.5	/experiments/Knapen_AOT/AOT_stimuli/rescaled_final/2086_fw.mp4	0.0	80.42397141456604	
5	66.00178027153015	pulse	1	t		3.0	2.5	/experiments/Knapen_AOT/AOT_stimuli/rescaled_final/2086_fw.mp4	0.0	82.02435183525085	
5	66.52641248703003	fix_post	2		12	3.0	2.5	/experiments/Knapen_AOT/AOT_stimuli/rescaled_final/2086_fw.mp4	0.0	82.54898405075073	0.10007691383361816
6	66.62648940086365	fix_pre	0		118	4.0	2.5	/experiments/Knapen_AOT/AOT_stimuli/rescaled_final/2030_fw.mp4	0.0	82.64906096458435	0.9917654991149902
6	67.60179233551025	pulse	0	t		4.0	2.5	/experiments/Knapen_AOT/AOT_stimuli/rescaled_final/2030_fw.mp4	0.0	83.62436389923096	
6	67.61825489997864	movie	1		285	4.0	2.5	/experiments/Knapen_AOT/AOT_stimuli/rescaled_final/2030_fw.mp4	0.0	83.64082646369934	2.5003676414489746
6	69.20212745666504	pulse	1	t		4.0	2.5	/experiments/Knapen_AOT/AOT_stimuli/rescaled_final/2030_fw.mp4	0.0	85.22469902038574	
6	70.11862254142761	fix_post	2		12	4.0	2.5	/experiments/Knapen_AOT/AOT_stimuli/rescaled_final/2030_fw.mp4	0.0	86.14119410514832	0.10009431838989258
7	70.2187168598175	fix_pre	0		120	5.0	2.5	/experiments/Knapen_AOT/AOT_stimuli/rescaled_final/1016_rv.mp4	0.0	86.24128842353821	1.0084288120269775
7	70.80231356620789	pulse	0	t		5.0	2.5	/experiments/Knapen_AOT/AOT_stimuli/rescaled_final/1016_rv.mp4	0.0	86.82488512992859	
7	71.22714567184448	movie	1		274	5.0	2.5	/experiments/Knapen_AOT/AOT_stimuli/rescaled_final/1016_rv.mp4	0.0	87.24971723556519	2.4920291900634766
7	72.40257740020752	pulse	1	t		5.0	2.5	/experiments/Knapen_AOT/AOT_stimuli/rescaled_final/1016_rv.mp4	0.0	88.42514896392822	
7	73.71917486190796	fix_post	2		12	5.0	2.5	/experiments/Knapen_AOT/AOT_stimuli/rescaled_final/1016_rv.mp4	0.0	89.74174642562866	0.10004711151123047
8	73.81922197341919	fix_pre	0		120	6.0	2.5	blank	1.0	89.84179353713989	1.0001208782196045
8	74.00274991989136	pulse	0	t		6.0	2.5	blank	1.0	90.02532148361206	
8	74.8193428516388	movie	1		300	6.0	2.5	blank	1.0	90.8419144153595	2.500358819961548
8	75.60296177864075	pulse	1	t		6.0	2.5	blank	1.0	91.62553334236145	
8	77.20321345329285	pulse	1	t		6.0	2.5	blank	1.0	93.22578501701355	
8	77.31970167160034	fix_post	2		12	6.0	2.5	blank	1.0	93.34227323532104	0.10000944137573242
9	77.41971111297607	fix_pre	0		120	7.0	2.5	/experiments/Knapen_AOT/AOT_stimuli/rescaled_final/0040_fw.mp4	0.0	93.44228267669678	1.0084972381591797
9	78.42820835113525	movie	1		286	7.0	2.5	/experiments/Knapen_AOT/AOT_stimuli/rescaled_final/0040_fw.mp4	0.0	94.45077991485596	2.492037534713745
9	78.80189728736877	pulse	1	t		7.0	2.5	/experiments/Knapen_AOT/AOT_stimuli/rescaled_final/0040_fw.mp4	0.0	94.82446885108948	
9	80.40157699584961	pulse	1	t		7.0	2.5	/experiments/Knapen_AOT/AOT_stimuli/rescaled_final/0040_fw.mp4	0.0	96.42414855957031	
9	80.920245885849	fix_post	2		12	7.0	2.5	/experiments/Knapen_AOT/AOT_stimuli/rescaled_final/0040_fw.mp4	0.0	96.9428174495697	0.10001707077026367
10	81.02026295661926	fix_pre	0		119	8.0	2.5	/experiments/Knapen_AOT/AOT_stimuli/rescaled_final/1425_fw.mp4	0.0	97.04283452033997	1.000169038772583
10	82.00397849082947	pulse	0	t		8.0	2.5	/experiments/Knapen_AOT/AOT_stimuli/rescaled_final/1425_fw.mp4	0.0	98.02655005455017	
10	82.02043199539185	movie	1		286	8.0	2.5	/experiments/Knapen_AOT/AOT_stimuli/rescaled_final/1425_fw.mp4	0.0	98.04300355911255	2.5003433227539062
10	83.60246157646179	pulse	1	t		8.0	2.5	/experiments/Knapen_AOT/AOT_stimuli/rescaled_final/1425_fw.mp4	0.0	99.6250331401825	
10	84.52077531814575	fix_post	2		12	8.0	2.5	/experiments/Knapen_AOT/AOT_stimuli/rescaled_final/1425_fw.mp4	0.0	100.54334688186646	0.10002350807189941
11	84.62079882621765	fix_pre	0		120	9.0	2.5	/experiments/Knapen_AOT/AOT_stimuli/rescaled_final/2035_fw.mp4	0.0	100.64337038993835	1.0085210800170898
11	85.20453333854675	pulse	0	t		9.0	2.5	/experiments/Knapen_AOT/AOT_stimuli/rescaled_final/2035_fw.mp4	0.0	101.22710490226746	
11	85.62931990623474	movie	1		283	9.0	2.5	/experiments/Knapen_AOT/AOT_stimuli/rescaled_final/2035_fw.mp4	0.0	101.65189146995544	2.4920096397399902
11	86.80301880836487	pulse	1	t		9.0	2.5	/experiments/Knapen_AOT/AOT_stimuli/rescaled_final/2035_fw.mp4	0.0	102.82559037208557	
11	88.12132954597473	fix_post	2		12	9.0	2.5	/experiments/Knapen_AOT/AOT_stimuli/rescaled_final/2035_fw.mp4	0.0	104.14390110969543	0.10009217262268066
12	88.22142171859741	fix_pre	0		120	10.0	2.5	/experiments/Knapen_AOT/AOT_stimuli/rescaled_final/0795_rv.mp4	0.0	104.24399328231812	1.0084385871887207
12	88.40488791465759	pulse	0	t		10.0	2.5	/experiments/Knapen_AOT/AOT_stimuli/rescaled_final/0795_rv.mp4	0.0	104.4274594783783	
12	89.22986030578613	movie	1		279	10.0	2.5	/experiments/Knapen_AOT/AOT_stimuli/rescaled_final/0795_rv.mp4	0.0	105.25243186950684	2.492039918899536
12	90.00315856933594	pulse	1	t		10.0	2.5	/experiments/Knapen_AOT/AOT_stimuli/rescaled_final/0795_rv.mp4	0.0	106.02573013305664	
12	91.6033194065094	pulse	1	t		10.0	2.5	/experiments/Knapen_AOT/AOT_stimuli/rescaled_final/0795_rv.mp4	0.0	107.6258909702301	
12	91.72190022468567	fix_post	2		12	10.0	2.5	/experiments/Knapen_AOT/AOT_stimuli/rescaled_final/0795_rv.mp4	0.0	107.74447178840637	0.0999901294708252
13	91.8218903541565	fix_pre	0		120	11.0	2.5	/experiments/Knapen_AOT/AOT_stimuli/rescaled_final/1427_rv.mp4	0.0	107.8444619178772	1.0086417198181152
13	92.83053207397461	movie	1		281	11.0	2.5	/experiments/Knapen_AOT/AOT_stimuli/rescaled_final/1427_rv.mp4	0.0	108.85310363769531	2.4918758869171143
13	93.20352268218994	pulse	1	t		11.0	2.5	/experiments/Knapen_AOT/AOT_stimuli/rescaled_final/1427_rv.mp4	0.0	109.22609424591064	
13	94.80372977256775	pulse	1	t		11.0	2.5	/experiments/Knapen_AOT/AOT_stimuli/rescaled_final/1427_rv.mp4	0.0	110.82630133628845	
13	95.32240796089172	fix_post	2		12	11.0	2.5	/experiments/Knapen_AOT/AOT_stimuli/rescaled_final/1427_rv.mp4	0.0	111.34497952461243	0.10001945495605469
14	95.42242741584778	fix_pre	0		119	12.0	2.5	blank	1.0	111.44499897956848	0.9918692111968994
14	96.40610980987549	pulse	0	t		12.0	2.5	blank	1.0	112.42868137359619	
14	96.41429662704468	movie	1		301	12.0	2.5	blank	1.0	112.43686819076538	2.508636236190796
14	98.00637817382812	pulse	1	t		12.0	2.5	blank	1.0	114.02894973754883	
14	98.92293286323547	fix_post	2		12	12.0	2.5	blank	1.0	114.94550442695618	0.10002970695495605
15	99.02296257019043	fix_pre	0		120	13.0	2.5	/experiments/Knapen_AOT/AOT_stimuli/rescaled_final/0844_rv.mp4	0.0	115.04553413391113	1.0085210800170898
15	99.60661220550537	pulse	0	t		13.0	2.5	/experiments/Knapen_AOT/AOT_stimuli/rescaled_final/0844_rv.mp4	0.0	115.62918376922607	
15	100.03148365020752	movie	1		290	13.0	2.5	/experiments/Knapen_AOT/AOT_stimuli/rescaled_final/0844_rv.mp4	0.0	116.05405521392822	2.492025375366211
15	101.20514583587646	pulse	1	t		13.0	2.5	/experiments/Knapen_AOT/AOT_stimuli/rescaled_final/0844_rv.mp4	0.0	117.22771739959717	
15	102.52350902557373	fix_post	2		12	13.0	2.5	/experiments/Knapen_AOT/AOT_stimuli/rescaled_final/0844_rv.mp4	0.0	118.54608058929443	0.10004234313964844
16	102.62355136871338	fix_pre	0		119	14.0	2.5	/experiments/Knapen_AOT/AOT_stimuli/rescaled_final/2000_fw.mp4	0.0	118.64612293243408	1.0084869861602783
16	102.80727338790894	pulse	0	t		14.0	2.5	/experiments/Knapen_AOT/AOT_stimuli/rescaled_final/2000_fw.mp4	0.0	118.82984495162964	
16	103.63203835487366	movie	1		275	14.0	2.5	/experiments/Knapen_AOT/AOT_stimuli/rescaled_final/2000_fw.mp4	0.0	119.65460991859436	2.4920079708099365
16	104.4053065776825	pulse	1	t		14.0	2.5	/experiments/Knapen_AOT/AOT_stimuli/rescaled_final/2000_fw.mp4	0.0	120.4278781414032	
16	106.00540542602539	pulse	1	t		14.0	2.5	/experiments/Knapen_AOT/AOT_stimuli/rescaled_final/2000_fw.mp4	0.0	122.0279769897461	
16	106.1240463256836	fix_post	2		12	14.0	2.5	/experiments/Knapen_AOT/AOT_stimuli/rescaled_final/2000_fw.mp4	0.0	122.1466178894043	0.10013198852539062
17	106.22417831420898	fix_pre	0		120	15.0	2.5	/experiments/Knapen_AOT/AOT_stimuli/rescaled_final/1671_fw.mp4	0.0	122.24674987792969	1.0084362030029297
17	107.23261451721191	movie	1		283	15.0	2.5	/experiments/Knapen_AOT/AOT_stimuli/rescaled_final/1671_fw.mp4	0.0	123.25518608093262	2.491990566253662
17	107.60609269142151	pulse	1	t		15.0	2.5	/experiments/Knapen_AOT/AOT_stimuli/rescaled_final/1671_fw.mp4	0.0	123.62866425514221	
17	109.20608830451965	pulse	1	t		15.0	2.5	/experiments/Knapen_AOT/AOT_stimuli/rescaled_final/1671_fw.mp4	0.0	125.22865986824036	
17	109.72460508346558	fix_post	2		12	15.0	2.5	/experiments/Knapen_AOT/AOT_stimuli/rescaled_final/1671_fw.mp4	0.0	125.74717664718628	0.10004425048828125
18	109.82464933395386	fix_pre	0		119	16.0	2.5	/experiments/Knapen_AOT/AOT_stimuli/rescaled_final/1302_fw.mp4	0.0	125.84722089767456	1.0001254081726074
18	110.80830264091492	pulse	0	t		16.0	2.5	/experiments/Knapen_AOT/AOT_stimuli/rescaled_final/1302_fw.mp4	0.0	126.83087420463562	
18	110.82477474212646	movie	1		286	16.0	2.5	/experiments/Knapen_AOT/AOT_stimuli/rescaled_final/1302_fw.mp4	0.0	126.84734630584717	2.5003433227539062
18	112.40701937675476	pulse	1	t		16.0	2.5	/experiments/Knapen_AOT/AOT_stimuli/rescaled_final/1302_fw.mp4	0.0	128.42959094047546	
18	113.32511806488037	fix_post	2		12	16.0	2.5	/experiments/Knapen_AOT/AOT_stimuli/rescaled_final/1302_fw.mp4	0.0	129.34768962860107	0.10001897811889648
19	113.42513704299927	fix_pre	0		120	17.0	2.5	/experiments/Knapen_AOT/AOT_stimuli/rescaled_final/1266_fw.mp4	0.0	129.44770860671997	1.0085229873657227
19	114.0087513923645	pulse	0	t		17.0	2.5	/experiments/Knapen_AOT/AOT_stimuli/rescaled_final/1266_fw.mp4	0.0	130.0313229560852	
19	114.43366003036499	movie	1		280	17.0	2.5	/experiments/Knapen_AOT/AOT_stimuli/rescaled_final/1266_fw.mp4	0.0	130.4562315940857	2.4920177459716797
19	115.60813975334167	pulse	1	t		17.0	2.5	/experiments/Knapen_AOT/AOT_stimuli/rescaled_final/1266_fw.mp4	0.0	131.63071131706238	
19	116.92567777633667	fix_post	2		12	17.0	2.5	/experiments/Knapen_AOT/AOT_stimuli/rescaled_final/1266_fw.mp4	0.0	132.94824934005737	0.1000666618347168
20	117.02574443817139	fix_pre	0		120	18.0	2.5	/experiments/Knapen_AOT/AOT_stimuli/rescaled_final/1691_fw.mp4	0.0	133.0483160018921	1.0084247589111328
20	117.20151996612549	pulse	0	t		18.0	2.5	/experiments/Knapen_AOT/AOT_stimuli/rescaled_final/1691_fw.mp4	0.0	133.2240915298462	
20	118.03416919708252	movie	1		280	18.0	2.5	/experiments/Knapen_AOT/AOT_stimuli/rescaled_final/1691_fw.mp4	0.0	134.05674076080322	2.492035150527954
20	118.80774736404419	pulse	1	t		18.0	2.5	/experiments/Knapen_AOT/AOT_stimuli/rescaled_final/1691_fw.mp4	0.0	134.8303189277649	
20	120.40166878700256	pulse	1	t		18.0	2.5	/experiments/Knapen_AOT/AOT_stimuli/rescaled_final/1691_fw.mp4	0.0	136.42424035072327	
20	120.52620434761047	fix_post	2		12	18.0	2.5	/experiments/Knapen_AOT/AOT_stimuli/rescaled_final/1691_fw.mp4	0.0	136.54877591133118	0.10006546974182129
21	120.6262698173523	fix_pre	0		120	19.0	2.5	blank	1.0	136.648841381073	1.0000977516174316
21	121.62636756896973	movie	1		300	19.0	2.5	blank	1.0	137.64893913269043	2.5003814697265625
21	122.00163125991821	pulse	1	t		19.0	2.5	blank	1.0	138.02420282363892	
21	123.60186553001404	pulse	1	t		19.0	2.5	blank	1.0	139.62443709373474	
21	124.12674903869629	fix_post	2		12	19.0	2.5	blank	1.0	140.149320602417	0.1000370979309082
22	124.2267861366272	fix_pre	0		118	20.0	2.5	/experiments/Knapen_AOT/AOT_stimuli/rescaled_final/1171_rv.mp4	0.0	140.2493577003479	0.9918186664581299
22	125.20218586921692	pulse	0	t		20.0	2.5	/experiments/Knapen_AOT/AOT_stimuli/rescaled_final/1171_rv.mp4	0.0	141.22475743293762	
22	125.21860480308533	movie	1		280	20.0	2.5	/experiments/Knapen_AOT/AOT_stimuli/rescaled_final/1171_rv.mp4	0.0	141.24117636680603	2.500361919403076
22	126.80075788497925	pulse	1	t		20.0	2.5	/experiments/Knapen_AOT/AOT_stimuli/rescaled_final/1171_rv.mp4	0.0	142.82332944869995	
22	127.7189667224884	fix_post	2		12	20.0	2.5	/experiments/Knapen_AOT/AOT_stimuli/rescaled_final/1171_rv.mp4	0.0	143.7415382862091	0.10002660751342773
23	127.81899333000183	fix_pre	0		120	21.0	2.5	/experiments/Knapen_AOT/AOT_stimuli/rescaled_final/1502_fw.mp4	0.0	143.84156489372253	1.0084810256958008
23	128.40260100364685	pulse	0	t		21.0	2.5	/experiments/Knapen_AOT/AOT_stimuli/rescaled_final/1502_fw.mp4	0.0	144.42517256736755	
23	128.82747435569763	movie	1		283	21.0	2.5	/experiments/Knapen_AOT/AOT_stimuli/rescaled_final/1502_fw.mp4	0.0	144.85004591941833	2.4920108318328857
23	130.00298357009888	pulse	1	t		21.0	2.5	/experiments/Knapen_AOT/AOT_stimuli/rescaled_final/1502_fw.mp4	0.0	146.02555513381958	
23	131.31948518753052	fix_post	2		12	21.0	2.5	/experiments/Knapen_AOT/AOT_stimuli/rescaled_final/1502_fw.mp4	0.0	147.34205675125122	0.10004353523254395
24	131.41952872276306	fix_pre	0		120	22.0	2.5	/experiments/Knapen_AOT/AOT_stimuli/rescaled_final/1958_rv.mp4	0.0	147.44210028648376	1.0085039138793945
24	131.60306334495544	pulse	0	t		22.0	2.5	/experiments/Knapen_AOT/AOT_stimuli/rescaled_final/1958_rv.mp4	0.0	147.62563490867615	
24	132.42803263664246	movie	1		271	22.0	2.5	/experiments/Knapen_AOT/AOT_stimuli/rescaled_final/1958_rv.mp4	0.0	148.45060420036316	2.4920194149017334
24	133.2037537097931	pulse	1	t		22.0	2.5	/experiments/Knapen_AOT/AOT_stimuli/rescaled_final/1958_rv.mp4	0.0	149.2263252735138	
24	134.80178689956665	pulse	1	t		22.0	2.5	/experiments/Knapen_AOT/AOT_stimuli/rescaled_final/1958_rv.mp4	0.0	150.82435846328735	
24	134.9200520515442	fix_post	2		12	22.0	2.5	/experiments/Knapen_AOT/AOT_stimuli/rescaled_final/1958_rv.mp4	0.0	150.9426236152649	0.10005807876586914
25	135.02011013031006	fix_pre	0		120	23.0	2.5	/experiments/Knapen_AOT/AOT_stimuli/rescaled_final/0919_fw.mp4	0.0	151.04268169403076	1.0084507465362549
25	136.0285608768463	movie	1		285	23.0	2.5	/experiments/Knapen_AOT/AOT_stimuli/rescaled_final/0919_fw.mp4	0.0	152.05113244056702	2.492016077041626
25	136.40423393249512	pulse	1	t		23.0	2.5	/experiments/Knapen_AOT/AOT_stimuli/rescaled_final/0919_fw.mp4	0.0	152.42680549621582	
25	138.00173807144165	pulse	1	t		23.0	2.5	/experiments/Knapen_AOT/AOT_stimuli/rescaled_final/0919_fw.mp4	0.0	154.02430963516235	
25	138.52057695388794	fix_post	2		12	23.0	2.5	/experiments/Knapen_AOT/AOT_stimuli/rescaled_final/0919_fw.mp4	0.0	154.54314851760864	0.10001587867736816
26	138.6205928325653	fix_pre	0		119	24.0	2.5	/experiments/Knapen_AOT/AOT_stimuli/rescaled_final/0702_fw.mp4	0.0	154.643164396286	1.0002140998840332
26	139.60434365272522	pulse	0	t		24.0	2.5	/experiments/Knapen_AOT/AOT_stimuli/rescaled_final/0702_fw.mp4	0.0	155.62691521644592	
26	139.62080693244934	movie	1		293	24.0	2.5	/experiments/Knapen_AOT/AOT_stimuli/rescaled_final/0702_fw.mp4	0.0	155.64337849617004	2.5002992153167725
26	141.2030849456787	pulse	1	t		24.0	2.5	/experiments/Knapen_AOT/AOT_stimuli/rescaled_final/0702_fw.mp4	0.0	157.2256565093994	
26	142.1211061477661	fix_post	2		12	24.0	2.5	/experiments/Knapen_AOT/AOT_stimuli/rescaled_final/0702_fw.mp4	0.0	158.14367771148682	0.10001969337463379
27	142.22112584114075	fix_pre	0		120	25.0	2.5	/experiments/Knapen_AOT/AOT_stimuli/rescaled_final/0757_fw.mp4	0.0	158.24369740486145	1.0085194110870361
27	142.804749250412	pulse	0	t		25.0	2.5	/experiments/Knapen_AOT/AOT_stimuli/rescaled_final/0757_fw.mp4	0.0	158.8273208141327	
27	143.22964525222778	movie	1		270	25.0	2.5	/experiments/Knapen_AOT/AOT_stimuli/rescaled_final/0757_fw.mp4	0.0	159.2522168159485	2.4919955730438232
27	144.4039924144745	pulse	1	t		25.0	2.5	/experiments/Knapen_AOT/AOT_stimuli/rescaled_final/0757_fw.mp4	0.0	160.4265639781952	
27	145.7216408252716	fix_post	2		12	25.0	2.5	/experiments/Knapen_AOT/AOT_stimuli/rescaled_final/0757_fw.mp4	0.0	161.7442123889923	0.10002851486206055
28	145.82166934013367	fix_pre	0		120	26.0	2.5	/experiments/Knapen_AOT/AOT_stimuli/rescaled_final/1141_fw.mp4	0.0	161.84424090385437	1.008540391921997
28	146.00522875785828	pulse	0	t		26.0	2.5	/experiments/Knapen_AOT/AOT_stimuli/rescaled_final/1141_fw.mp4	0.0	162.02780032157898	
28	146.83020973205566	movie	1		284	26.0	2.5	/experiments/Knapen_AOT/AOT_stimuli/rescaled_final/1141_fw.mp4	0.0	162.85278129577637	2.492082357406616
28	147.60532402992249	pulse	1	t		26.0	2.5	/experiments/Knapen_AOT/AOT_stimuli/rescaled_final/1141_fw.mp4	0.0	163.6278955936432	
28	149.2036008834839	pulse	1	t		26.0	2.5	/experiments/Knapen_AOT/AOT_stimuli/rescaled_final/1141_fw.mp4	0.0	165.2261724472046	
28	149.32229208946228	fix_post	2		12	26.0	2.5	/experiments/Knapen_AOT/AOT_stimuli/rescaled_final/1141_fw.mp4	0.0	165.34486365318298	0.09992480278015137
29	149.42221689224243	fix_pre	0		120	27.0	2.5	blank	1.0	165.44478845596313	1.0001614093780518
29	150.42237830162048	movie	1		300	27.0	2.5	blank	1.0	166.4449498653412	2.5003509521484375
29	150.80598211288452	pulse	1	t		27.0	2.5	blank	1.0	166.82855367660522	
29	152.40622186660767	pulse	1	t		27.0	2.5	blank	1.0	168.42879343032837	
29	152.92272925376892	fix_post	2		12	27.0	2.5	blank	1.0	168.94530081748962	0.10003423690795898
30	153.02276349067688	fix_pre	0		119	28.0	2.5	/experiments/Knapen_AOT/AOT_stimuli/rescaled_final/0178_fw.mp4	0.0	169.04533505439758	1.0001490116119385
30	154.00640773773193	pulse	0	t		28.0	2.5	/experiments/Knapen_AOT/AOT_stimuli/rescaled_final/0178_fw.mp4	0.0	170.02897930145264	
30	154.02291250228882	movie	1		276	28.0	2.5	/experiments/Knapen_AOT/AOT_stimuli/rescaled_final/0178_fw.mp4	0.0	170.04548406600952	2.500410318374634
30	155.60562944412231	pulse	1	t		28.0	2.5	/experiments/Knapen_AOT/AOT_stimuli/rescaled_final/0178_fw.mp4	0.0	171.62820100784302	
30	156.52332282066345	fix_post	2		12	28.0	2.5	/experiments/Knapen_AOT/AOT_stimuli/rescaled_final/0178_fw.mp4	0.0	172.54589438438416	0.10014986991882324
31	156.62347269058228	fix_pre	0		120	29.0	2.5	/experiments/Knapen_AOT/AOT_stimuli/rescaled_final/0676_rv.mp4	0.0	172.64604425430298	1.008326768875122
31	157.2009961605072	pulse	0	t		29.0	2.5	/experiments/Knapen_AOT/AOT_stimuli/rescaled_final/0676_rv.mp4	0.0	173.2235677242279	
31	157.6317994594574	movie	1		284	29.0	2.5	/experiments/Knapen_AOT/AOT_stimuli/rescaled_final/0676_rv.mp4	0.0	173.6543710231781	2.4920365810394287
31	158.80546355247498	pulse	1	t		29.0	2.5	/experiments/Knapen_AOT/AOT_stimuli/rescaled_final/0676_rv.mp4	0.0	174.82803511619568	
31	160.12383604049683	fix_post	2		12	29.0	2.5	/experiments/Knapen_AOT/AOT_stimuli/rescaled_final/0676_rv.mp4	0.0	176.14640760421753	0.10002899169921875
32	160.22386503219604	fix_pre	0		120	30.0	2.5	/experiments/Knapen_AOT/AOT_stimuli/rescaled_final/1893_rv.mp4	0.0	176.24643659591675	1.008474588394165
32	160.40740156173706	pulse	0	t		30.0	2.5	/experiments/Knapen_AOT/AOT_stimuli/rescaled_final/1893_rv.mp4	0.0	176.42997312545776	
32	161.2323396205902	movie	1		284	30.0	2.5	/experiments/Knapen_AOT/AOT_stimuli/rescaled_final/1893_rv.mp4	0.0	177.2549111843109	2.4920132160186768
32	162.00553488731384	pulse	1	t		30.0	2.5	/experiments/Knapen_AOT/AOT_stimuli/rescaled_final/1893_rv.mp4	0.0	178.02810645103455	
32	163.60574197769165	pulse	1	t		30.0	2.5	/experiments/Knapen_AOT/AOT_stimuli/rescaled_final/1893_rv.mp4	0.0	179.62831354141235	
32	163.7243528366089	fix_post	2		12	30.0	2.5	/experiments/Knapen_AOT/AOT_stimuli/rescaled_final/1893_rv.mp4	0.0	179.7469244003296	0.10000300407409668
33	163.82435584068298	fix_pre	0		120	31.0	2.5	/experiments/Knapen_AOT/AOT_stimuli/rescaled_final/1669_rv.mp4	0.0	179.8469274044037	1.0085406303405762
33	164.83289647102356	movie	1		292	31.0	2.5	/experiments/Knapen_AOT/AOT_stimuli/rescaled_final/1669_rv.mp4	0.0	180.85546803474426	2.4920246601104736
33	165.2068109512329	pulse	1	t		31.0	2.5	/experiments/Knapen_AOT/AOT_stimuli/rescaled_final/1669_rv.mp4	0.0	181.2293825149536	
33	166.80643272399902	pulse	1	t		31.0	2.5	/experiments/Knapen_AOT/AOT_stimuli/rescaled_final/1669_rv.mp4	0.0	182.82900428771973	
33	167.32492113113403	fix_post	2		12	31.0	2.5	/experiments/Knapen_AOT/AOT_stimuli/rescaled_final/1669_rv.mp4	0.0	183.34749269485474	0.1000065803527832
34	167.42492771148682	fix_pre	0		119	32.0	2.5	/experiments/Knapen_AOT/AOT_stimuli/rescaled_final/0122_fw.mp4	0.0	183.44749927520752	1.0001640319824219
34	168.4008731842041	pulse	0	t		32.0	2.5	/experiments/Knapen_AOT/AOT_stimuli/rescaled_final/0122_fw.mp4	0.0	184.4234447479248	
34	168.42509174346924	movie	1		282	32.0	2.5	/experiments/Knapen_AOT/AOT_stimuli/rescaled_final/0122_fw.mp4	0.0	184.44766330718994	2.50038480758667
34	170.0071725845337	pulse	1	t		32.0	2.5	/experiments/Knapen_AOT/AOT_stimuli/rescaled_final/0122_fw.mp4	0.0	186.0297441482544	
34	170.9254765510559	fix_post	2		12	32.0	2.5	/experiments/Knapen_AOT/AOT_stimuli/rescaled_final/0122_fw.mp4	0.0	186.9480481147766	0.09996795654296875
35	171.02544450759888	fix_pre	0		120	33.0	2.5	blank	1.0	187.04801607131958	1.0001695156097412
35	171.600980758667	pulse	0	t		33.0	2.5	blank	1.0	187.6235523223877	
35	172.02561402320862	movie	1		300	33.0	2.5	blank	1.0	188.04818558692932	2.5003724098205566
35	173.20097732543945	pulse	1	t		33.0	2.5	blank	1.0	189.22354888916016	
35	174.52598643302917	fix_post	2		12	33.0	2.5	blank	1.0	190.54855799674988	0.10004901885986328
36	174.62603545188904	fix_pre	0		120	34.0	2.5	/experiments/Knapen_AOT/AOT_stimuli/rescaled_final/1749_rv.mp4	0.0	190.64860701560974	1.0084900856018066
36	174.80145502090454	pulse	0	t		34.0	2.5	/experiments/Knapen_AOT/AOT_stimuli/rescaled_final/1749_rv.mp4	0.0	190.82402658462524	
36	175.63452553749084	movie	1		269	34.0	2.5	/experiments/Knapen_AOT/AOT_stimuli/rescaled_final/1749_rv.mp4	0.0	191.65709710121155	2.4920103549957275
36	176.4015281200409	pulse	1	t		34.0	2.5	/experiments/Knapen_AOT/AOT_stimuli/rescaled_final/1749_rv.mp4	0.0	192.4240996837616	
36	178.0017511844635	pulse	1	t		34.0	2.5	/experiments/Knapen_AOT/AOT_stimuli/rescaled_final/1749_rv.mp4	0.0	194.0243227481842	
36	178.12653589248657	fix_post	2		12	34.0	2.5	/experiments/Knapen_AOT/AOT_stimuli/rescaled_final/1749_rv.mp4	0.0	194.14910745620728	0.1000666618347168
37	178.2266025543213	fix_pre	0		120	35.0	2.5	/experiments/Knapen_AOT/AOT_stimuli/rescaled_final/0504_rv.mp4	0.0	194.249174118042	1.0084259510040283
37	179.23502850532532	movie	1		274	35.0	2.5	/experiments/Knapen_AOT/AOT_stimuli/rescaled_final/0504_rv.mp4	0.0	195.25760006904602	2.492050886154175
37	179.602520942688	pulse	1	t		35.0	2.5	/experiments/Knapen_AOT/AOT_stimuli/rescaled_final/0504_rv.mp4	0.0	195.6250925064087	
37	181.20194268226624	pulse	1	t		35.0	2.5	/experiments/Knapen_AOT/AOT_stimuli/rescaled_final/0504_rv.mp4	0.0	197.22451424598694	
37	181.7270793914795	fix_post	2		12	35.0	2.5	/experiments/Knapen_AOT/AOT_stimuli/rescaled_final/0504_rv.mp4	0.0	197.7496509552002	0.10000848770141602
38	181.8270878791809	fix_pre	0		118	36.0	2.5	/experiments/Knapen_AOT/AOT_stimuli/rescaled_final/1302_rv.mp4	0.0	197.8496594429016	0.9918594360351562
38	182.80276679992676	pulse	0	t		36.0	2.5	/experiments/Knapen_AOT/AOT_stimuli/rescaled_final/1302_rv.mp4	0.0	198.82533836364746	
38	182.81894731521606	movie	1		278	36.0	2.5	/experiments/Knapen_AOT/AOT_stimuli/rescaled_final/1302_rv.mp4	0.0	198.84151887893677	2.500460386276245
38	184.401132106781	pulse	1	t		36.0	2.5	/experiments/Knapen_AOT/AOT_stimuli/rescaled_final/1302_rv.mp4	0.0	200.4237036705017	
38	185.3194077014923	fix_post	2		12	36.0	2.5	/experiments/Knapen_AOT/AOT_stimuli/rescaled_final/1302_rv.mp4	0.0	201.341979265213	0.099884033203125
39	185.41929173469543	fix_pre	0		120	37.0	2.5	/experiments/Knapen_AOT/AOT_stimuli/rescaled_final/2016_rv.mp4	0.0	201.44186329841614	1.0085232257843018
39	186.00308346748352	pulse	0	t		37.0	2.5	/experiments/Knapen_AOT/AOT_stimuli/rescaled_final/2016_rv.mp4	0.0	202.02565503120422	
39	186.42781496047974	movie	1		283	37.0	2.5	/experiments/Knapen_AOT/AOT_stimuli/rescaled_final/2016_rv.mp4	0.0	202.45038652420044	2.492011547088623
39	187.6012225151062	pulse	1	t		37.0	2.5	/experiments/Knapen_AOT/AOT_stimuli/rescaled_final/2016_rv.mp4	0.0	203.6237940788269	
39	188.91982650756836	fix_post	2		12	37.0	2.5	/experiments/Knapen_AOT/AOT_stimuli/rescaled_final/2016_rv.mp4	0.0	204.94239807128906	0.10001039505004883
40	189.0198369026184	fix_pre	0		120	38.0	2.5	/experiments/Knapen_AOT/AOT_stimuli/rescaled_final/0002_fw.mp4	0.0	205.0424084663391	1.0085079669952393
40	189.203462600708	pulse	0	t		38.0	2.5	/experiments/Knapen_AOT/AOT_stimuli/rescaled_final/0002_fw.mp4	0.0	205.2260341644287	
40	190.02834486961365	movie	1		267	38.0	2.5	/experiments/Knapen_AOT/AOT_stimuli/rescaled_final/0002_fw.mp4	0.0	206.05091643333435	2.492013692855835
40	190.8016653060913	pulse	1	t		38.0	2.5	/experiments/Knapen_AOT/AOT_stimuli/rescaled_final/0002_fw.mp4	0.0	206.824236869812	
40	192.40216636657715	pulse	1	t		38.0	2.5	/experiments/Knapen_AOT/AOT_stimuli/rescaled_final/0002_fw.mp4	0.0	208.42473793029785	
40	192.52035856246948	fix_post	2		12	38.0	2.5	/experiments/Knapen_AOT/AOT_stimuli/rescaled_final/0002_fw.mp4	0.0	208.54293012619019	0.10001516342163086
41	192.6203737258911	fix_pre	0		120	39.0	2.5	/experiments/Knapen_AOT/AOT_stimuli/rescaled_final/0757_rv.mp4	0.0	208.64294528961182	1.0085017681121826
41	193.6288754940033	movie	1		284	39.0	2.5	/experiments/Knapen_AOT/AOT_stimuli/rescaled_final/0757_rv.mp4	0.0	209.651447057724	2.4920454025268555
41	194.0023045539856	pulse	1	t		39.0	2.5	/experiments/Knapen_AOT/AOT_stimuli/rescaled_final/0757_rv.mp4	0.0	210.0248761177063	
41	195.60261464118958	pulse	1	t		39.0	2.5	/experiments/Knapen_AOT/AOT_stimuli/rescaled_final/0757_rv.mp4	0.0	211.62518620491028	
41	196.12092089653015	fix_post	2		12	39.0	2.5	/experiments/Knapen_AOT/AOT_stimuli/rescaled_final/0757_rv.mp4	0.0	212.14349246025085	0.09998917579650879
42	196.22091007232666	fix_pre	0		119	40.0	2.5	/experiments/Knapen_AOT/AOT_stimuli/rescaled_final/0552_fw.mp4	0.0	212.24348163604736	1.000187873840332
42	197.20462465286255	pulse	0	t		40.0	2.5	/experiments/Knapen_AOT/AOT_stimuli/rescaled_final/0552_fw.mp4	0.0	213.22719621658325	
42	197.221097946167	movie	1		286	40.0	2.5	/experiments/Knapen_AOT/AOT_stimuli/rescaled_final/0552_fw.mp4	0.0	213.2436695098877	2.5005760192871094
42	198.80381107330322	pulse	1	t		40.0	2.5	/experiments/Knapen_AOT/AOT_stimuli/rescaled_final/0552_fw.mp4	0.0	214.82638263702393	
42	199.7216739654541	fix_post	2		12	40.0	2.5	/experiments/Knapen_AOT/AOT_stimuli/rescaled_final/0552_fw.mp4	0.0	215.7442455291748	0.09980106353759766
43	199.8214750289917	fix_pre	0		120	41.0	2.5	/experiments/Knapen_AOT/AOT_stimuli/rescaled_final/1965_rv.mp4	0.0	215.8440465927124	1.0085535049438477
43	200.4054982662201	pulse	0	t		41.0	2.5	/experiments/Knapen_AOT/AOT_stimuli/rescaled_final/1965_rv.mp4	0.0	216.4280698299408	
43	200.83002853393555	movie	1		273	41.0	2.5	/experiments/Knapen_AOT/AOT_stimuli/rescaled_final/1965_rv.mp4	0.0	216.85260009765625	2.4919607639312744
43	202.00387263298035	pulse	1	t		41.0	2.5	/experiments/Knapen_AOT/AOT_stimuli/rescaled_final/1965_rv.mp4	0.0	218.02644419670105	
43	203.32198929786682	fix_post	2		12	41.0	2.5	/experiments/Knapen_AOT/AOT_stimuli/rescaled_final/1965_rv.mp4	0.0	219.34456086158752	0.1000058650970459
44	203.42199516296387	fix_pre	0		120	42.0	2.5	blank	1.0	219.44456672668457	1.0001919269561768
44	203.60564279556274	pulse	0	t		42.0	2.5	blank	1.0	219.62821435928345	
44	204.42218708992004	movie	1		300	42.0	2.5	blank	1.0	220.44475865364075	2.5003528594970703
44	205.20585203170776	pulse	1	t		42.0	2.5	blank	1.0	221.22842359542847	
44	206.8060622215271	pulse	1	t		42.0	2.5	blank	1.0	222.8286337852478	
44	206.92253994941711	fix_post	2		12	42.0	2.5	blank	1.0	222.94511151313782	0.10003042221069336
45	207.0225703716278	fix_pre	0		120	43.0	2.5	/experiments/Knapen_AOT/AOT_stimuli/rescaled_final/1308_rv.mp4	0.0	223.0451419353485	1.0084660053253174
45	208.03103637695312	movie	1		272	43.0	2.5	/experiments/Knapen_AOT/AOT_stimuli/rescaled_final/1308_rv.mp4	0.0	224.05360794067383	2.4920332431793213
45	208.4065444469452	pulse	1	t		43.0	2.5	/experiments/Knapen_AOT/AOT_stimuli/rescaled_final/1308_rv.mp4	0.0	224.4291160106659	
45	210.0045325756073	pulse	1	t		43.0	2.5	/experiments/Knapen_AOT/AOT_stimuli/rescaled_final/1308_rv.mp4	0.0	226.027104139328	
45	210.52306962013245	fix_post	2		12	43.0	2.5	/experiments/Knapen_AOT/AOT_stimuli/rescaled_final/1308_rv.mp4	0.0	226.54564118385315	0.1000356674194336
46	210.62310528755188	fix_pre	0		119	44.0	2.5	/experiments/Knapen_AOT/AOT_stimuli/rescaled_final/2081_rv.mp4	0.0	226.64567685127258	1.0005736351013184
46	211.60676622390747	pulse	0	t		44.0	2.5	/experiments/Knapen_AOT/AOT_stimuli/rescaled_final/2081_rv.mp4	0.0	227.62933778762817	
46	211.6236789226532	movie	1		281	44.0	2.5	/experiments/Knapen_AOT/AOT_stimuli/rescaled_final/2081_rv.mp4	0.0	227.6462504863739	2.4999263286590576
46	213.20575881004333	pulse	1	t		44.0	2.5	/experiments/Knapen_AOT/AOT_stimuli/rescaled_final/2081_rv.mp4	0.0	229.22833037376404	
46	214.12360525131226	fix_post	2		12	44.0	2.5	/experiments/Knapen_AOT/AOT_stimuli/rescaled_final/2081_rv.mp4	0.0	230.14617681503296	0.10002923011779785
47	214.22363448143005	fix_pre	0		120	45.0	2.5	/experiments/Knapen_AOT/AOT_stimuli/rescaled_final/2028_fw.mp4	0.0	230.24620604515076	1.008509874343872
47	214.80731678009033	pulse	0	t		45.0	2.5	/experiments/Knapen_AOT/AOT_stimuli/rescaled_final/2028_fw.mp4	0.0	230.82988834381104	
47	215.23214435577393	movie	1		289	45.0	2.5	/experiments/Knapen_AOT/AOT_stimuli/rescaled_final/2028_fw.mp4	0.0	231.25471591949463	2.4919910430908203
47	216.40547060966492	pulse	1	t		45.0	2.5	/experiments/Knapen_AOT/AOT_stimuli/rescaled_final/2028_fw.mp4	0.0	232.42804217338562	
47	217.72413539886475	fix_post	2		12	45.0	2.5	/experiments/Knapen_AOT/AOT_stimuli/rescaled_final/2028_fw.mp4	0.0	233.74670696258545	0.10007596015930176
48	217.82421135902405	fix_pre	0		104	46.0	2.5	/experiments/Knapen_AOT/AOT_stimuli/rescaled_final/0723_fw.mp4	0.0	233.84678292274475	1.008530855178833
48	218.00774550437927	pulse	0	t		46.0	2.5	/experiments/Knapen_AOT/AOT_stimuli/rescaled_final/0723_fw.mp4	0.0	234.03031706809998	
48	218.83274221420288	movie	1		280	46.0	2.5	/experiments/Knapen_AOT/AOT_stimuli/rescaled_final/0723_fw.mp4	0.0	234.85531377792358	2.4919228553771973
48	219.60750269889832	pulse	1	t		46.0	2.5	/experiments/Knapen_AOT/AOT_stimuli/rescaled_final/0723_fw.mp4	0.0	235.63007426261902	
48	221.20936369895935	pulse	1	t		46.0	2.5	/experiments/Knapen_AOT/AOT_stimuli/rescaled_final/0723_fw.mp4	0.0	237.23193526268005	
48	221.32466506958008	fix_post	2		12	46.0	2.5	/experiments/Knapen_AOT/AOT_stimuli/rescaled_final/0723_fw.mp4	0.0	237.34723663330078	0.10002875328063965
49	221.42469382286072	fix_pre	0		120	47.0	2.5	blank	1.0	237.44726538658142	1.000150203704834
49	222.42484402656555	movie	1		300	47.0	2.5	blank	1.0	238.44741559028625	2.5003762245178223
49	222.80843353271484	pulse	1	t		47.0	2.5	blank	1.0	238.83100509643555	
49	224.40159559249878	pulse	1	t		47.0	2.5	blank	1.0	240.42416715621948	
49	224.92522025108337	fix_post	2		12	47.0	2.5	blank	1.0	240.94779181480408	0.10002517700195312
50	225.02524542808533	fix_pre	0		119	48.0	2.5	/experiments/Knapen_AOT/AOT_stimuli/rescaled_final/1652_rv.mp4	0.0	241.04781699180603	1.0001368522644043
50	226.00888800621033	pulse	0	t		48.0	2.5	/experiments/Knapen_AOT/AOT_stimuli/rescaled_final/1652_rv.mp4	0.0	242.03145956993103	
50	226.02538228034973	movie	1		271	48.0	2.5	/experiments/Knapen_AOT/AOT_stimuli/rescaled_final/1652_rv.mp4	0.0	242.04795384407043	2.500393867492676
50	227.60759902000427	pulse	1	t		48.0	2.5	/experiments/Knapen_AOT/AOT_stimuli/rescaled_final/1652_rv.mp4	0.0	243.63017058372498	
50	228.5257761478424	fix_post	2		12	48.0	2.5	/experiments/Knapen_AOT/AOT_stimuli/rescaled_final/1652_rv.mp4	0.0	244.5483477115631	0.10001993179321289
51	228.62579607963562	fix_pre	0		120	49.0	2.5	/experiments/Knapen_AOT/AOT_stimuli/rescaled_final/0034_fw.mp4	0.0	244.64836764335632	1.0085630416870117
51	229.20160627365112	pulse	0	t		49.0	2.5	/experiments/Knapen_AOT/AOT_stimuli/rescaled_final/0034_fw.mp4	0.0	245.22417783737183	
51	229.63435912132263	movie	1		269	49.0	2.5	/experiments/Knapen_AOT/AOT_stimuli/rescaled_final/0034_fw.mp4	0.0	245.65693068504333	2.492002248764038
51	230.8016335964203	pulse	1	t		49.0	2.5	/experiments/Knapen_AOT/AOT_stimuli/rescaled_final/0034_fw.mp4	0.0	246.824205160141	
51	232.12636137008667	fix_post	2		12	49.0	2.5	/experiments/Knapen_AOT/AOT_stimuli/rescaled_final/0034_fw.mp4	0.0	248.14893293380737	0.09996771812438965
52	232.22632908821106	fix_pre	0		120	50.0	2.5	/experiments/Knapen_AOT/AOT_stimuli/rescaled_final/0744_rv.mp4	0.0	248.24890065193176	1.0084879398345947
52	232.40175437927246	pulse	0	t		50.0	2.5	/experiments/Knapen_AOT/AOT_stimuli/rescaled_final/0744_rv.mp4	0.0	248.42432594299316	
52	233.23481702804565	movie	1		273	50.0	2.5	/experiments/Knapen_AOT/AOT_stimuli/rescaled_final/0744_rv.mp4	0.0	249.25738859176636	2.492037057876587
52	234.00182938575745	pulse	1	t		50.0	2.5	/experiments/Knapen_AOT/AOT_stimuli/rescaled_final/0744_rv.mp4	0.0	250.02440094947815	
52	235.60228419303894	pulse	1	t		50.0	2.5	/experiments/Knapen_AOT/AOT_stimuli/rescaled_final/0744_rv.mp4	0.0	251.62485575675964	
52	235.72685408592224	fix_post	2		12	50.0	2.5	/experiments/Knapen_AOT/AOT_stimuli/rescaled_final/0744_rv.mp4	0.0	251.74942564964294	0.1000359058380127
53	235.82688999176025	fix_pre	0		120	51.0	2.5	/experiments/Knapen_AOT/AOT_stimuli/rescaled_final/1319_fw.mp4	0.0	251.84946155548096	1.0085086822509766
53	236.83539867401123	movie	1		278	51.0	2.5	/experiments/Knapen_AOT/AOT_stimuli/rescaled_final/1319_fw.mp4	0.0	252.85797023773193	2.49200701713562
53	237.20233130455017	pulse	1	t		51.0	2.5	/experiments/Knapen_AOT/AOT_stimuli/rescaled_final/1319_fw.mp4	0.0	253.22490286827087	
53	238.80278825759888	pulse	1	t		51.0	2.5	/experiments/Knapen_AOT/AOT_stimuli/rescaled_final/1319_fw.mp4	0.0	254.82535982131958	
53	239.32740569114685	fix_post	2		12	51.0	2.5	/experiments/Knapen_AOT/AOT_stimuli/rescaled_final/1319_fw.mp4	0.0	255.34997725486755	0.10001659393310547
54	239.42742228507996	fix_pre	0		118	52.0	2.5	/experiments/Knapen_AOT/AOT_stimuli/rescaled_final/0548_fw.mp4	0.0	255.44999384880066	1.000199556350708
54	240.40313577651978	pulse	0	t		52.0	2.5	/experiments/Knapen_AOT/AOT_stimuli/rescaled_final/0548_fw.mp4	0.0	256.4257073402405	
54	240.42762184143066	movie	1		291	52.0	2.5	/experiments/Knapen_AOT/AOT_stimuli/rescaled_final/0548_fw.mp4	0.0	256.45019340515137	2.4920105934143066
54	242.00156497955322	pulse	1	t		52.0	2.5	/experiments/Knapen_AOT/AOT_stimuli/rescaled_final/0548_fw.mp4	0.0	258.0241365432739	
54	242.91963243484497	fix_post	2		12	52.0	2.5	/experiments/Knapen_AOT/AOT_stimuli/rescaled_final/0548_fw.mp4	0.0	258.9422039985657	0.10013413429260254
55	243.01976656913757	fix_pre	0		120	53.0	2.5	/experiments/Knapen_AOT/AOT_stimuli/rescaled_final/1563_rv.mp4	0.0	259.0423381328583	1.0083532333374023
55	243.60321044921875	pulse	0	t		53.0	2.5	/experiments/Knapen_AOT/AOT_stimuli/rescaled_final/1563_rv.mp4	0.0	259.62578201293945	
55	244.02811980247498	movie	1		280	53.0	2.5	/experiments/Knapen_AOT/AOT_stimuli/rescaled_final/1563_rv.mp4	0.0	260.0506913661957	2.492021322250366
55	245.20192861557007	pulse	1	t		53.0	2.5	/experiments/Knapen_AOT/AOT_stimuli/rescaled_final/1563_rv.mp4	0.0	261.22450017929077	
55	246.52014112472534	fix_post	2		12	53.0	2.5	/experiments/Knapen_AOT/AOT_stimuli/rescaled_final/1563_rv.mp4	0.0	262.54271268844604	0.10005068778991699
56	246.62019181251526	fix_pre	0		120	54.0	2.5	blank	1.0	262.64276337623596	1.000119686126709
56	246.8037850856781	pulse	0	t		54.0	2.5	blank	1.0	262.8263566493988	
56	247.62031149864197	movie	1		300	54.0	2.5	blank	1.0	263.64288306236267	2.500373363494873
56	248.40401363372803	pulse	1	t		54.0	2.5	blank	1.0	264.42658519744873	
56	250.00425052642822	pulse	1	t		54.0	2.5	blank	1.0	266.0268220901489	
56	250.12068486213684	fix_post	2		12	54.0	2.5	blank	1.0	266.14325642585754	0.10002422332763672
57	250.22070908546448	fix_pre	0		120	55.0	2.5	/experiments/Knapen_AOT/AOT_stimuli/rescaled_final/0723_rv.mp4	0.0	266.2432806491852	1.0084903240203857
57	251.22919940948486	movie	1		273	55.0	2.5	/experiments/Knapen_AOT/AOT_stimuli/rescaled_final/0723_rv.mp4	0.0	267.25177097320557	2.4920272827148438
57	251.6031529903412	pulse	1	t		55.0	2.5	/experiments/Knapen_AOT/AOT_stimuli/rescaled_final/0723_rv.mp4	0.0	267.6257245540619	
57	253.2027108669281	pulse	1	t		55.0	2.5	/experiments/Knapen_AOT/AOT_stimuli/rescaled_final/0723_rv.mp4	0.0	269.2252824306488	
57	253.7212266921997	fix_post	2		12	55.0	2.5	/experiments/Knapen_AOT/AOT_stimuli/rescaled_final/0723_rv.mp4	0.0	269.7437982559204	0.10005617141723633
58	253.82128286361694	fix_pre	0		119	56.0	2.5	/experiments/Knapen_AOT/AOT_stimuli/rescaled_final/1559_rv.mp4	0.0	269.84385442733765	1.0001206398010254
58	254.80502653121948	pulse	0	t		56.0	2.5	/experiments/Knapen_AOT/AOT_stimuli/rescaled_final/1559_rv.mp4	0.0	270.8275980949402	
58	254.82140350341797	movie	1		285	56.0	2.5	/experiments/Knapen_AOT/AOT_stimuli/rescaled_final/1559_rv.mp4	0.0	270.8439750671387	2.500354051589966
58	256.4039378166199	pulse	1	t		56.0	2.5	/experiments/Knapen_AOT/AOT_stimuli/rescaled_final/1559_rv.mp4	0.0	272.4265093803406	
58	257.32175755500793	fix_post	2		12	56.0	2.5	/experiments/Knapen_AOT/AOT_stimuli/rescaled_final/1559_rv.mp4	0.0	273.34432911872864	0.10007786750793457
59	257.42183542251587	fix_pre	0		120	57.0	2.5	/experiments/Knapen_AOT/AOT_stimuli/rescaled_final/2017_fw.mp4	0.0	273.4444069862366	1.0084564685821533
59	258.0053918361664	pulse	0	t		57.0	2.5	/experiments/Knapen_AOT/AOT_stimuli/rescaled_final/2017_fw.mp4	0.0	274.0279633998871	
59	258.430291891098	movie	1		272	57.0	2.5	/experiments/Knapen_AOT/AOT_stimuli/rescaled_final/2017_fw.mp4	0.0	274.4528634548187	2.4920544624328613
59	259.6041581630707	pulse	1	t		57.0	2.5	/experiments/Knapen_AOT/AOT_stimuli/rescaled_final/2017_fw.mp4	0.0	275.6267297267914	
59	260.9223463535309	fix_post	2		12	57.0	2.5	/experiments/Knapen_AOT/AOT_stimuli/rescaled_final/2017_fw.mp4	0.0	276.9449179172516	0.09997868537902832
60	261.0223250389099	fix_pre	0		120	58.0	2.5	/experiments/Knapen_AOT/AOT_stimuli/rescaled_final/0626_rv.mp4	0.0	277.0448966026306	1.0085136890411377
60	261.2058455944061	pulse	0	t		58.0	2.5	/experiments/Knapen_AOT/AOT_stimuli/rescaled_final/0626_rv.mp4	0.0	277.22841715812683	
60	262.03083872795105	movie	1		271	58.0	2.5	/experiments/Knapen_AOT/AOT_stimuli/rescaled_final/0626_rv.mp4	0.0	278.05341029167175	2.492013454437256
60	262.8045287132263	pulse	1	t		58.0	2.5	/experiments/Knapen_AOT/AOT_stimuli/rescaled_final/0626_rv.mp4	0.0	278.827100276947	
60	264.404913187027	pulse	1	t		58.0	2.5	/experiments/Knapen_AOT/AOT_stimuli/rescaled_final/0626_rv.mp4	0.0	280.4274847507477	
60	264.5228521823883	fix_post	2		12	58.0	2.5	/experiments/Knapen_AOT/AOT_stimuli/rescaled_final/0626_rv.mp4	0.0	280.545423746109	0.10004091262817383
61	264.6228930950165	fix_pre	0		120	59.0	2.5	/experiments/Knapen_AOT/AOT_stimuli/rescaled_final/0719_rv.mp4	0.0	280.6454646587372	1.0085408687591553
61	265.63143396377563	movie	1		276	59.0	2.5	/experiments/Knapen_AOT/AOT_stimuli/rescaled_final/0719_rv.mp4	0.0	281.65400552749634	2.491945505142212
61	266.00577187538147	pulse	1	t		59.0	2.5	/experiments/Knapen_AOT/AOT_stimuli/rescaled_final/0719_rv.mp4	0.0	282.0283434391022	
61	267.60468554496765	pulse	1	t		59.0	2.5	/experiments/Knapen_AOT/AOT_stimuli/rescaled_final/0719_rv.mp4	0.0	283.62725710868835	
61	268.12337946891785	fix_post	2		12	59.0	2.5	/experiments/Knapen_AOT/AOT_stimuli/rescaled_final/0719_rv.mp4	0.0	284.14595103263855	0.10001564025878906
62	268.22339510917664	fix_pre	0		119	60.0	2.5	/experiments/Knapen_AOT/AOT_stimuli/rescaled_final/1893_rv.mp4	0.0	284.24596667289734	1.0001578330993652
62	269.20709681510925	pulse	0	t		60.0	2.5	/experiments/Knapen_AOT/AOT_stimuli/rescaled_final/1893_rv.mp4	0.0	285.22966837882996	
62	269.223552942276	movie	1		287	60.0	2.5	/experiments/Knapen_AOT/AOT_stimuli/rescaled_final/1893_rv.mp4	0.0	285.2461245059967	2.5004851818084717
62	270.80569791793823	pulse	1	t		60.0	2.5	/experiments/Knapen_AOT/AOT_stimuli/rescaled_final/1893_rv.mp4	0.0	286.82826948165894	
62	271.7240381240845	fix_post	2		12	60.0	2.5	/experiments/Knapen_AOT/AOT_stimuli/rescaled_final/1893_rv.mp4	0.0	287.7466096878052	0.09989309310913086
63	271.8239312171936	fix_pre	0		120	61.0	2.5	/experiments/Knapen_AOT/AOT_stimuli/rescaled_final/1095_rv.mp4	0.0	287.8465027809143	1.0085115432739258
63	272.40760564804077	pulse	0	t		61.0	2.5	/experiments/Knapen_AOT/AOT_stimuli/rescaled_final/1095_rv.mp4	0.0	288.4301772117615	
63	272.83244276046753	movie	1		286	61.0	2.5	/experiments/Knapen_AOT/AOT_stimuli/rescaled_final/1095_rv.mp4	0.0	288.85501432418823	2.492035388946533
63	274.00600481033325	pulse	1	t		61.0	2.5	/experiments/Knapen_AOT/AOT_stimuli/rescaled_final/1095_rv.mp4	0.0	290.02857637405396	
63	275.32447814941406	fix_post	2		12	61.0	2.5	/experiments/Knapen_AOT/AOT_stimuli/rescaled_final/1095_rv.mp4	0.0	291.34704971313477	0.1000068187713623
64	275.4244849681854	fix_pre	0		120	62.0	2.5	/experiments/Knapen_AOT/AOT_stimuli/rescaled_final/1959_fw.mp4	0.0	291.4470565319061	1.0084922313690186
64	275.6080675125122	pulse	0	t		62.0	2.5	/experiments/Knapen_AOT/AOT_stimuli/rescaled_final/1959_fw.mp4	0.0	291.6306390762329	
64	276.43297719955444	movie	1		273	62.0	2.5	/experiments/Knapen_AOT/AOT_stimuli/rescaled_final/1959_fw.mp4	0.0	292.45554876327515	2.4920971393585205
64	277.20635294914246	pulse	1	t		62.0	2.5	/experiments/Knapen_AOT/AOT_stimuli/rescaled_final/1959_fw.mp4	0.0	293.22892451286316	
64	278.806604385376	pulse	1	t		62.0	2.5	/experiments/Knapen_AOT/AOT_stimuli/rescaled_final/1959_fw.mp4	0.0	294.8291759490967	
64	278.92507433891296	fix_post	2		12	62.0	2.5	/experiments/Knapen_AOT/AOT_stimuli/rescaled_final/1959_fw.mp4	0.0	294.94764590263367	0.09995698928833008
65	279.0250313282013	fix_pre	0		120	63.0	2.5	blank	1.0	295.047602891922	1.000145673751831
65	280.0251770019531	movie	1		300	63.0	2.5	blank	1.0	296.0477485656738	2.500415802001953
65	280.40879011154175	pulse	1	t		63.0	2.5	blank	1.0	296.43136167526245	
65	282.00909781455994	pulse	1	t		63.0	2.5	blank	1.0	298.03166937828064	
65	282.5255928039551	fix_post	2		12	63.0	2.5	blank	1.0	298.5481643676758	0.09999728202819824
66	282.6255900859833	fix_pre	0		119	64.0	2.5	/experiments/Knapen_AOT/AOT_stimuli/rescaled_final/1481_rv.mp4	0.0	298.648161649704	1.0085172653198242
66	283.602383852005	pulse	0	t		64.0	2.5	/experiments/Knapen_AOT/AOT_stimuli/rescaled_final/1481_rv.mp4	0.0	299.6249554157257	
66	283.6341073513031	movie	1		279	64.0	2.5	/experiments/Knapen_AOT/AOT_stimuli/rescaled_final/1481_rv.mp4	0.0	299.6566789150238	2.491976499557495
66	285.20787286758423	pulse	1	t		64.0	2.5	/experiments/Knapen_AOT/AOT_stimuli/rescaled_final/1481_rv.mp4	0.0	301.23044443130493	
66	286.1260838508606	fix_post	2		12	64.0	2.5	/experiments/Knapen_AOT/AOT_stimuli/rescaled_final/1481_rv.mp4	0.0	302.1486554145813	0.10003495216369629
67	286.2261188030243	fix_pre	0		120	65.0	2.5	/experiments/Knapen_AOT/AOT_stimuli/rescaled_final/0488_rv.mp4	0.0	302.248690366745	1.0084943771362305
67	286.801899433136	pulse	0	t		65.0	2.5	/experiments/Knapen_AOT/AOT_stimuli/rescaled_final/0488_rv.mp4	0.0	302.8244709968567	
67	287.2346131801605	movie	1		284	65.0	2.5	/experiments/Knapen_AOT/AOT_stimuli/rescaled_final/0488_rv.mp4	0.0	303.2571847438812	2.492034673690796
67	288.40225744247437	pulse	1	t		65.0	2.5	/experiments/Knapen_AOT/AOT_stimuli/rescaled_final/0488_rv.mp4	0.0	304.42482900619507	
67	289.7266478538513	fix_post	2		12	65.0	2.5	/experiments/Knapen_AOT/AOT_stimuli/rescaled_final/0488_rv.mp4	0.0	305.749219417572	0.10001420974731445
68	289.82666206359863	fix_pre	0		120	66.0	2.5	/experiments/Knapen_AOT/AOT_stimuli/rescaled_final/0704_rv.mp4	0.0	305.84923362731934	1.0084831714630127
68	290.0021674633026	pulse	0	t		66.0	2.5	/experiments/Knapen_AOT/AOT_stimuli/rescaled_final/0704_rv.mp4	0.0	306.0247390270233	
68	290.83514523506165	movie	1		270	66.0	2.5	/experiments/Knapen_AOT/AOT_stimuli/rescaled_final/0704_rv.mp4	0.0	306.85771679878235	2.4921748638153076
68	291.6021156311035	pulse	1	t		66.0	2.5	/experiments/Knapen_AOT/AOT_stimuli/rescaled_final/0704_rv.mp4	0.0	307.6246871948242	
68	293.20248913764954	pulse	1	t		66.0	2.5	/experiments/Knapen_AOT/AOT_stimuli/rescaled_final/0704_rv.mp4	0.0	309.22506070137024	
68	293.32732009887695	fix_post	2		12	66.0	2.5	/experiments/Knapen_AOT/AOT_stimuli/rescaled_final/0704_rv.mp4	0.0	309.34989166259766	0.09988117218017578
69	293.42720127105713	fix_pre	0		120	67.0	2.5	/experiments/Knapen_AOT/AOT_stimuli/rescaled_final/0207_rv.mp4	0.0	309.44977283477783	1.008544683456421
69	294.43574595451355	movie	1		275	67.0	2.5	/experiments/Knapen_AOT/AOT_stimuli/rescaled_final/0207_rv.mp4	0.0	310.45831751823425	2.4919798374176025
69	294.8012902736664	pulse	1	t		67.0	2.5	/experiments/Knapen_AOT/AOT_stimuli/rescaled_final/0207_rv.mp4	0.0	310.8238618373871	
69	296.402868270874	pulse	1	t		67.0	2.5	/experiments/Knapen_AOT/AOT_stimuli/rescaled_final/0207_rv.mp4	0.0	312.4254398345947	
69	296.92772579193115	fix_post	2		12	67.0	2.5	/experiments/Knapen_AOT/AOT_stimuli/rescaled_final/0207_rv.mp4	0.0	312.95029735565186	0.10002827644348145
70	297.02775406837463	fix_pre	0		118	68.0	2.5	/experiments/Knapen_AOT/AOT_stimuli/rescaled_final/1958_rv.mp4	0.0	313.05032563209534	0.9918515682220459
70	298.0030884742737	pulse	0	t		68.0	2.5	/experiments/Knapen_AOT/AOT_stimuli/rescaled_final/1958_rv.mp4	0.0	314.0256600379944	
70	298.0196056365967	movie	1		276	68.0	2.5	/experiments/Knapen_AOT/AOT_stimuli/rescaled_final/1958_rv.mp4	0.0	314.0421772003174	2.50034236907959
70	299.60202503204346	pulse	1	t		68.0	2.5	/experiments/Knapen_AOT/AOT_stimuli/rescaled_final/1958_rv.mp4	0.0	315.62459659576416	
70	300.51994800567627	fix_post	2		12	68.0	2.5	/experiments/Knapen_AOT/AOT_stimuli/rescaled_final/1958_rv.mp4	0.0	316.542519569397	0.10000729560852051
71	300.6199553012848	fix_pre	0		120	69.0	2.5	/experiments/Knapen_AOT/AOT_stimuli/rescaled_final/1566_rv.mp4	0.0	316.6425268650055	1.0084898471832275
71	301.2036509513855	pulse	0	t		69.0	2.5	/experiments/Knapen_AOT/AOT_stimuli/rescaled_final/1566_rv.mp4	0.0	317.2262225151062	
71	301.628445148468	movie	1		270	69.0	2.5	/experiments/Knapen_AOT/AOT_stimuli/rescaled_final/1566_rv.mp4	0.0	317.6510167121887	2.4920332431793213
71	302.80338740348816	pulse	1	t		69.0	2.5	/experiments/Knapen_AOT/AOT_stimuli/rescaled_final/1566_rv.mp4	0.0	318.82595896720886	
71	304.12047839164734	fix_post	2		12	69.0	2.5	/experiments/Knapen_AOT/AOT_stimuli/rescaled_final/1566_rv.mp4	0.0	320.14304995536804	0.10015630722045898
72	304.2206346988678	fix_pre	0		120	70.0	2.5	blank	1.0	320.2432062625885	0.999995231628418
72	304.40403747558594	pulse	0	t		70.0	2.5	blank	1.0	320.42660903930664	
72	305.2206299304962	movie	1		300	70.0	2.5	blank	1.0	321.2432014942169	2.500385284423828
72	306.00438356399536	pulse	1	t		70.0	2.5	blank	1.0	322.02695512771606	
72	307.60457587242126	pulse	1	t		70.0	2.5	blank	1.0	323.62714743614197	
72	307.72101521492004	fix_post	2		12	70.0	2.5	blank	1.0	323.74358677864075	0.10009455680847168
73	307.8211097717285	fix_pre	0		120	71.0	2.5	/experiments/Knapen_AOT/AOT_stimuli/rescaled_final/0569_rv.mp4	0.0	323.8436813354492	1.0084118843078613
73	308.8295216560364	movie	1		286	71.0	2.5	/experiments/Knapen_AOT/AOT_stimuli/rescaled_final/0569_rv.mp4	0.0	324.8520932197571	2.492175579071045
73	309.20294284820557	pulse	1	t		71.0	2.5	/experiments/Knapen_AOT/AOT_stimuli/rescaled_final/0569_rv.mp4	0.0	325.22551441192627	
73	310.8033559322357	pulse	1	t		71.0	2.5	/experiments/Knapen_AOT/AOT_stimuli/rescaled_final/0569_rv.mp4	0.0	326.8259274959564	
73	311.3216972351074	fix_post	2		12	71.0	2.5	/experiments/Knapen_AOT/AOT_stimuli/rescaled_final/0569_rv.mp4	0.0	327.3442687988281	0.09991574287414551
74	311.42161297798157	fix_pre	0		119	72.0	2.5	/experiments/Knapen_AOT/AOT_stimuli/rescaled_final/0679_rv.mp4	0.0	327.44418454170227	1.0001122951507568
74	312.40531611442566	pulse	0	t		72.0	2.5	/experiments/Knapen_AOT/AOT_stimuli/rescaled_final/0679_rv.mp4	0.0	328.42788767814636	
74	312.4217252731323	movie	1		278	72.0	2.5	/experiments/Knapen_AOT/AOT_stimuli/rescaled_final/0679_rv.mp4	0.0	328.444296836853	2.500504493713379
74	314.0053548812866	pulse	1	t		72.0	2.5	/experiments/Knapen_AOT/AOT_stimuli/rescaled_final/0679_rv.mp4	0.0	330.0279264450073	
74	314.9222297668457	fix_post	2		12	72.0	2.5	/experiments/Knapen_AOT/AOT_stimuli/rescaled_final/0679_rv.mp4	0.0	330.9448013305664	0.09989476203918457
75	315.0221245288849	fix_pre	0		120	73.0	2.5	/experiments/Knapen_AOT/AOT_stimuli/rescaled_final/1910_rv.mp4	0.0	331.0446960926056	1.0085155963897705
75	315.6057825088501	pulse	0	t		73.0	2.5	/experiments/Knapen_AOT/AOT_stimuli/rescaled_final/1910_rv.mp4	0.0	331.6283540725708	
75	316.03064012527466	movie	1		279	73.0	2.5	/experiments/Knapen_AOT/AOT_stimuli/rescaled_final/1910_rv.mp4	0.0	332.05321168899536	2.492089033126831
75	317.20561838150024	pulse	1	t		73.0	2.5	/experiments/Knapen_AOT/AOT_stimuli/rescaled_final/1910_rv.mp4	0.0	333.22818994522095	
75	318.5227291584015	fix_post	2		12	73.0	2.5	/experiments/Knapen_AOT/AOT_stimuli/rescaled_final/1910_rv.mp4	0.0	334.5453007221222	0.10003829002380371
76	318.6227674484253	fix_pre	0		120	74.0	2.5	/experiments/Knapen_AOT/AOT_stimuli/rescaled_final/0723_fw.mp4	0.0	334.645339012146	1.008394479751587
76	318.8062708377838	pulse	0	t		74.0	2.5	/experiments/Knapen_AOT/AOT_stimuli/rescaled_final/0723_fw.mp4	0.0	334.8288424015045	
76	319.6311619281769	movie	1		273	74.0	2.5	/experiments/Knapen_AOT/AOT_stimuli/rescaled_final/0723_fw.mp4	0.0	335.6537334918976	2.4920201301574707
76	320.40433740615845	pulse	1	t		74.0	2.5	/experiments/Knapen_AOT/AOT_stimuli/rescaled_final/0723_fw.mp4	0.0	336.42690896987915	
76	322.0068106651306	pulse	1	t		74.0	2.5	/experiments/Knapen_AOT/AOT_stimuli/rescaled_final/0723_fw.mp4	0.0	338.0293822288513	
76	322.12318205833435	fix_post	2		12	74.0	2.5	/experiments/Knapen_AOT/AOT_stimuli/rescaled_final/0723_fw.mp4	0.0	338.14575362205505	0.10000371932983398
77	322.2231857776642	fix_pre	0		120	75.0	2.5	/experiments/Knapen_AOT/AOT_stimuli/rescaled_final/1808_rv.mp4	0.0	338.2457573413849	1.0084962844848633
77	323.23168206214905	movie	1		280	75.0	2.5	/experiments/Knapen_AOT/AOT_stimuli/rescaled_final/1808_rv.mp4	0.0	339.25425362586975	2.492034435272217
77	323.6071081161499	pulse	1	t		75.0	2.5	/experiments/Knapen_AOT/AOT_stimuli/rescaled_final/1808_rv.mp4	0.0	339.6296796798706	
77	325.2050874233246	pulse	1	t		75.0	2.5	/experiments/Knapen_AOT/AOT_stimuli/rescaled_final/1808_rv.mp4	0.0	341.2276589870453	
77	325.72371649742126	fix_post	2		12	75.0	2.5	/experiments/Knapen_AOT/AOT_stimuli/rescaled_final/1808_rv.mp4	0.0	341.74628806114197	0.10001969337463379
78	325.8237361907959	fix_pre	0		119	76.0	2.5	/experiments/Knapen_AOT/AOT_stimuli/rescaled_final/0195_fw.mp4	0.0	341.8463077545166	1.0000989437103271
78	326.807514667511	pulse	0	t		76.0	2.5	/experiments/Knapen_AOT/AOT_stimuli/rescaled_final/0195_fw.mp4	0.0	342.8300862312317	
78	326.8238351345062	movie	1		271	76.0	2.5	/experiments/Knapen_AOT/AOT_stimuli/rescaled_final/0195_fw.mp4	0.0	342.84640669822693	2.5004220008850098
78	328.40649700164795	pulse	1	t		76.0	2.5	/experiments/Knapen_AOT/AOT_stimuli/rescaled_final/0195_fw.mp4	0.0	344.42906856536865	
78	329.32425713539124	fix_post	2		12	76.0	2.5	/experiments/Knapen_AOT/AOT_stimuli/rescaled_final/0195_fw.mp4	0.0	345.34682869911194	0.10007834434509277
79	329.4243354797363	fix_pre	0		120	77.0	2.5	blank	1.0	345.44690704345703	1.0000851154327393
79	330.00799894332886	pulse	0	t		77.0	2.5	blank	1.0	346.03057050704956	
79	330.42442059516907	movie	1		300	77.0	2.5	blank	1.0	346.44699215888977	2.5003628730773926
79	331.60816383361816	pulse	1	t		77.0	2.5	blank	1.0	347.63073539733887	
79	332.92478346824646	fix_post	2		11	77.0	2.5	blank	1.0	348.94735503196716	0.1000375747680664
80	333.0248210430145	fix_pre	0		120	78.0	2.5	/experiments/Knapen_AOT/AOT_stimuli/rescaled_final/1965_rv.mp4	0.0	349.04739260673523	1.0085203647613525
80	333.20836758613586	pulse	0	t		78.0	2.5	/experiments/Knapen_AOT/AOT_stimuli/rescaled_final/1965_rv.mp4	0.0	349.23093914985657	
80	334.0333414077759	movie	1		286	78.0	2.5	/experiments/Knapen_AOT/AOT_stimuli/rescaled_final/1965_rv.mp4	0.0	350.0559129714966	2.4920449256896973
80	334.80766701698303	pulse	1	t		78.0	2.5	/experiments/Knapen_AOT/AOT_stimuli/rescaled_final/1965_rv.mp4	0.0	350.83023858070374	
80	336.40736985206604	pulse	1	t		78.0	2.5	/experiments/Knapen_AOT/AOT_stimuli/rescaled_final/1965_rv.mp4	0.0	352.42994141578674	
80	336.5253863334656	fix_post	2		12	78.0	2.5	/experiments/Knapen_AOT/AOT_stimuli/rescaled_final/1965_rv.mp4	0.0	352.5479578971863	0.09997725486755371
81	336.62536358833313	fix_pre	0		120	79.0	2.5	/experiments/Knapen_AOT/AOT_stimuli/rescaled_final/0703_rv.mp4	0.0	352.64793515205383	1.0085442066192627
81	337.6339077949524	movie	1		269	79.0	2.5	/experiments/Knapen_AOT/AOT_stimuli/rescaled_final/0703_rv.mp4	0.0	353.6564793586731	2.4920032024383545
81	338.0073297023773	pulse	1	t		79.0	2.5	/experiments/Knapen_AOT/AOT_stimuli/rescaled_final/0703_rv.mp4	0.0	354.029901266098	
81	339.6013340950012	pulse	1	t		79.0	2.5	/experiments/Knapen_AOT/AOT_stimuli/rescaled_final/0703_rv.mp4	0.0	355.6239056587219	
81	340.12591099739075	fix_post	2		12	79.0	2.5	/experiments/Knapen_AOT/AOT_stimuli/rescaled_final/0703_rv.mp4	0.0	356.14848256111145	0.0999913215637207
82	340.22590231895447	fix_pre	0		118	80.0	2.5	/experiments/Knapen_AOT/AOT_stimuli/rescaled_final/1996_fw.mp4	0.0	356.24847388267517	0.991826057434082
82	341.20120310783386	pulse	0	t		80.0	2.5	/experiments/Knapen_AOT/AOT_stimuli/rescaled_final/1996_fw.mp4	0.0	357.22377467155457	
82	341.21772837638855	movie	1		275	80.0	2.5	/experiments/Knapen_AOT/AOT_stimuli/rescaled_final/1996_fw.mp4	0.0	357.24029994010925	2.5003514289855957
82	342.8015534877777	pulse	1	t		80.0	2.5	/experiments/Knapen_AOT/AOT_stimuli/rescaled_final/1996_fw.mp4	0.0	358.8241250514984	
82	343.71807980537415	fix_post	2		12	80.0	2.5	/experiments/Knapen_AOT/AOT_stimuli/rescaled_final/1996_fw.mp4	0.0	359.74065136909485	0.10003542900085449
83	343.818115234375	fix_pre	0		120	81.0	2.5	/experiments/Knapen_AOT/AOT_stimuli/rescaled_final/1783_rv.mp4	0.0	359.8406867980957	1.008474588394165
83	344.4017174243927	pulse	0	t		81.0	2.5	/experiments/Knapen_AOT/AOT_stimuli/rescaled_final/1783_rv.mp4	0.0	360.4242889881134	
83	344.82658982276917	movie	1		268	81.0	2.5	/experiments/Knapen_AOT/AOT_stimuli/rescaled_final/1783_rv.mp4	0.0	360.84916138648987	2.4922072887420654
83	346.0019853115082	pulse	1	t		81.0	2.5	/experiments/Knapen_AOT/AOT_stimuli/rescaled_final/1783_rv.mp4	0.0	362.0245568752289	
83	347.31879711151123	fix_post	2		12	81.0	2.5	/experiments/Knapen_AOT/AOT_stimuli/rescaled_final/1783_rv.mp4	0.0	363.34136867523193	0.09985923767089844
84	347.41865634918213	fix_pre	0		119	82.0	2.5	/experiments/Knapen_AOT/AOT_stimuli/rescaled_final/1910_fw.mp4	0.0	363.44122791290283	1.0084986686706543
84	347.6025140285492	pulse	0	t		82.0	2.5	/experiments/Knapen_AOT/AOT_stimuli/rescaled_final/1910_fw.mp4	0.0	363.6250855922699	
84	348.4271550178528	movie	1		273	82.0	2.5	/experiments/Knapen_AOT/AOT_stimuli/rescaled_final/1910_fw.mp4	0.0	364.4497265815735	2.4920597076416016
84	349.202796459198	pulse	1	t		82.0	2.5	/experiments/Knapen_AOT/AOT_stimuli/rescaled_final/1910_fw.mp4	0.0	365.2253680229187	
84	350.80304169654846	pulse	1	t		82.0	2.5	/experiments/Knapen_AOT/AOT_stimuli/rescaled_final/1910_fw.mp4	0.0	366.82561326026917	
84	350.9192147254944	fix_post	2		12	82.0	2.5	/experiments/Knapen_AOT/AOT_stimuli/rescaled_final/1910_fw.mp4	0.0	366.9417862892151	0.10015249252319336
85	351.0193672180176	fix_pre	0		120	83.0	2.5	blank	1.0	367.0419387817383	0.9999673366546631
85	352.01933455467224	movie	1		300	83.0	2.5	blank	1.0	368.04190611839294	2.5004379749298096
85	352.4029459953308	pulse	1	t		83.0	2.5	blank	1.0	368.4255175590515	
85	354.00314497947693	pulse	1	t		83.0	2.5	blank	1.0	370.02571654319763	
85	354.51977252960205	fix_post	2		12	83.0	2.5	blank	1.0	370.54234409332275	0.09998798370361328
87	354.61976051330566	stim	0		1715					370.64233207702637	14.29380464553833
87	355.60368824005127	pulse	0	t						371.626259803772	
87	357.20368695259094	pulse	0	t						373.22625851631165	
87	358.80390524864197	pulse	0	t						374.82647681236267	
87	360.40420031547546	pulse	0	t						376.42677187919617	
87	362.0044162273407	pulse	0	t						378.0269877910614	
87	363.604608297348	pulse	0	t						379.6271798610687	
87	365.2049376964569	pulse	0	t						381.2275092601776	
87	366.8051567077637	pulse	0	t						382.8277282714844	
87	368.4053692817688	pulse	0	t						384.4279408454895	
