trial_nr	onset	event_type	phase	response	nr_frames	movie_index	movie_duration	movie_file	blank	onset_abs	duration
0	0.20824599266052246	stim	0		26					101.589998960495	0.2166152000427246
0	0.40961599349975586	response	0	space						101.79136896133423	
1	0.42486119270324707	stim	0		4589					101.80661416053772	38.25932693481445
1	38.66910099983215	pulse	0	t						140.05085396766663	
1	38.6841881275177	stim	1		1715					140.06594109535217	14.298527956008911
1	40.26430320739746	pulse	1	t						141.64605617523193	
1	41.86449313163757	pulse	1	t						143.24624609947205	
1	43.46481013298035	pulse	1	t						144.84656310081482	
1	45.065093994140625	pulse	1	t						146.4468469619751	
1	46.66532015800476	pulse	1	t						148.04707312583923	
1	48.265427112579346	pulse	1	t						149.64718008041382	
1	49.865718126297	pulse	1	t						151.24747109413147	
1	51.4660530090332	pulse	1	t						152.84780597686768	
2	52.98271608352661	fix_pre	0		11	0.0	2.5	/experiments/knapen_AOT/AOT_stimuli/rescaled_final/1741_rv.mp4	0.0	154.36446905136108	0.09164094924926758
2	53.05883812904358	pulse	0	t		0.0	2.5	/experiments/knapen_AOT/AOT_stimuli/rescaled_final/1741_rv.mp4	0.0	154.44059109687805	
2	53.07435703277588	movie	1		242	0.0	2.5	/experiments/knapen_AOT/AOT_stimuli/rescaled_final/1741_rv.mp4	0.0	154.45611000061035	2.5087881088256836
2	54.67112398147583	pulse	1	t		0.0	2.5	/experiments/knapen_AOT/AOT_stimuli/rescaled_final/1741_rv.mp4	0.0	156.0528769493103	
2	55.58314514160156	fix_post	2		12	0.0	2.5	/experiments/knapen_AOT/AOT_stimuli/rescaled_final/1741_rv.mp4	0.0	156.96489810943604	0.09999299049377441
3	55.68313813209534	fix_pre	0		120	1.0	2.5	/experiments/knapen_AOT/AOT_stimuli/rescaled_final/0021_fw.mp4	0.0	157.0648910999298	1.0001099109649658
3	56.2591609954834	pulse	0	t		1.0	2.5	/experiments/knapen_AOT/AOT_stimuli/rescaled_final/0021_fw.mp4	0.0	157.64091396331787	
3	56.6832480430603	movie	1		244	1.0	2.5	/experiments/knapen_AOT/AOT_stimuli/rescaled_final/0021_fw.mp4	0.0	158.06500101089478	2.5004019737243652
3	57.85908007621765	pulse	1	t		1.0	2.5	/experiments/knapen_AOT/AOT_stimuli/rescaled_final/0021_fw.mp4	0.0	159.24083304405212	
3	59.18365001678467	fix_post	2		12	1.0	2.5	/experiments/knapen_AOT/AOT_stimuli/rescaled_final/0021_fw.mp4	0.0	160.56540298461914	0.10003995895385742
4	59.283689975738525	fix_pre	0		120	2.0	2.5	/experiments/knapen_AOT/AOT_stimuli/rescaled_final/0016_rv.mp4	0.0	160.665442943573	1.0001280307769775
4	59.4597430229187	pulse	0	t		2.0	2.5	/experiments/knapen_AOT/AOT_stimuli/rescaled_final/0016_rv.mp4	0.0	160.84149599075317	
4	60.2838180065155	movie	1		243	2.0	2.5	/experiments/knapen_AOT/AOT_stimuli/rescaled_final/0016_rv.mp4	0.0	161.66557097434998	2.500378131866455
4	61.05915904045105	pulse	1	t		2.0	2.5	/experiments/knapen_AOT/AOT_stimuli/rescaled_final/0016_rv.mp4	0.0	162.44091200828552	
4	62.659300088882446	pulse	1	t		2.0	2.5	/experiments/knapen_AOT/AOT_stimuli/rescaled_final/0016_rv.mp4	0.0	164.04105305671692	
4	62.78419613838196	fix_post	2		12	2.0	2.5	/experiments/knapen_AOT/AOT_stimuli/rescaled_final/0016_rv.mp4	0.0	164.16594910621643	0.09996485710144043
5	62.8841609954834	fix_pre	0		119	3.0	2.5	/experiments/knapen_AOT/AOT_stimuli/rescaled_final/0362_rv.mp4	0.0	164.26591396331787	0.9918441772460938
5	63.87600517272949	movie	1		243	3.0	2.5	/experiments/knapen_AOT/AOT_stimuli/rescaled_final/0362_rv.mp4	0.0	165.25775814056396	2.50034499168396
5	64.26387119293213	pulse	1	t		3.0	2.5	/experiments/knapen_AOT/AOT_stimuli/rescaled_final/0362_rv.mp4	0.0	165.6456241607666	
5	65.85988402366638	pulse	1	t		3.0	2.5	/experiments/knapen_AOT/AOT_stimuli/rescaled_final/0362_rv.mp4	0.0	167.24163699150085	
5	66.37635016441345	fix_post	2		12	3.0	2.5	/experiments/knapen_AOT/AOT_stimuli/rescaled_final/0362_rv.mp4	0.0	167.75810313224792	0.10002994537353516
6	66.47638010978699	fix_pre	0		119	4.0	2.5	/experiments/knapen_AOT/AOT_stimuli/rescaled_final/1766_rv.mp4	0.0	167.85813307762146	0.9917960166931152
6	67.46007800102234	pulse	0	t		4.0	2.5	/experiments/knapen_AOT/AOT_stimuli/rescaled_final/1766_rv.mp4	0.0	168.8418309688568	
6	67.4681761264801	movie	1		244	4.0	2.5	/experiments/knapen_AOT/AOT_stimuli/rescaled_final/1766_rv.mp4	0.0	168.84992909431458	2.508826971054077
6	69.06156301498413	pulse	1	t		4.0	2.5	/experiments/knapen_AOT/AOT_stimuli/rescaled_final/1766_rv.mp4	0.0	170.4433159828186	
6	69.97700309753418	fix_post	2		12	4.0	2.5	/experiments/knapen_AOT/AOT_stimuli/rescaled_final/1766_rv.mp4	0.0	171.35875606536865	0.09993410110473633
7	70.07693719863892	fix_pre	0		120	5.0	2.5	blank	1.0	171.4586901664734	1.0001277923583984
7	70.66052007675171	pulse	0	t		5.0	2.5	blank	1.0	172.04227304458618	
7	71.07706499099731	movie	1		300	5.0	2.5	blank	1.0	172.4588179588318	2.500375986099243
7	72.2607831954956	pulse	1	t		5.0	2.5	blank	1.0	173.64253616333008	
7	73.57744097709656	fix_post	2		12	5.0	2.5	blank	1.0	174.95919394493103	0.09999322891235352
8	73.67743420600891	fix_pre	0		120	6.0	2.5	/experiments/knapen_AOT/AOT_stimuli/rescaled_final/1070_fw.mp4	0.0	175.05918717384338	1.000140905380249
8	73.86112308502197	pulse	0	t		6.0	2.5	/experiments/knapen_AOT/AOT_stimuli/rescaled_final/1070_fw.mp4	0.0	175.24287605285645	
8	74.67757511138916	movie	1		242	6.0	2.5	/experiments/knapen_AOT/AOT_stimuli/rescaled_final/1070_fw.mp4	0.0	176.05932807922363	2.5005998611450195
8	75.46125316619873	pulse	1	t		6.0	2.5	/experiments/knapen_AOT/AOT_stimuli/rescaled_final/1070_fw.mp4	0.0	176.8430061340332	
8	77.06209802627563	pulse	1	t		6.0	2.5	/experiments/knapen_AOT/AOT_stimuli/rescaled_final/1070_fw.mp4	0.0	178.4438509941101	
8	77.17817497253418	fix_post	2		12	6.0	2.5	/experiments/knapen_AOT/AOT_stimuli/rescaled_final/1070_fw.mp4	0.0	178.55992794036865	0.09985804557800293
9	77.27803301811218	fix_pre	0		120	7.0	2.5	/experiments/knapen_AOT/AOT_stimuli/rescaled_final/1557_fw.mp4	0.0	178.65978598594666	1.0000979900360107
9	78.2781310081482	movie	1		242	7.0	2.5	/experiments/knapen_AOT/AOT_stimuli/rescaled_final/1557_fw.mp4	0.0	179.65988397598267	2.502674102783203
9	78.66236710548401	pulse	1	t		7.0	2.5	/experiments/knapen_AOT/AOT_stimuli/rescaled_final/1557_fw.mp4	0.0	180.04412007331848	
9	80.26207518577576	pulse	1	t		7.0	2.5	/experiments/knapen_AOT/AOT_stimuli/rescaled_final/1557_fw.mp4	0.0	181.64382815361023	
9	80.7808051109314	fix_post	2		10	7.0	2.5	/experiments/knapen_AOT/AOT_stimuli/rescaled_final/1557_fw.mp4	0.0	182.16255807876587	0.0894169807434082
10	80.8702220916748	fix_pre	0		120	8.0	2.5	/experiments/knapen_AOT/AOT_stimuli/rescaled_final/0049_rv.mp4	0.0	182.25197505950928	1.000143051147461
10	81.86234307289124	pulse	0	t		8.0	2.5	/experiments/knapen_AOT/AOT_stimuli/rescaled_final/0049_rv.mp4	0.0	183.2440960407257	
10	81.87036514282227	movie	1		243	8.0	2.5	/experiments/knapen_AOT/AOT_stimuli/rescaled_final/0049_rv.mp4	0.0	183.25211811065674	2.5088179111480713
10	83.46311712265015	pulse	1	t		8.0	2.5	/experiments/knapen_AOT/AOT_stimuli/rescaled_final/0049_rv.mp4	0.0	184.84487009048462	
10	84.37918305397034	fix_post	2		12	8.0	2.5	/experiments/knapen_AOT/AOT_stimuli/rescaled_final/0049_rv.mp4	0.0	185.7609360218048	0.09993195533752441
11	84.47911500930786	fix_pre	0		120	9.0	2.5	/experiments/knapen_AOT/AOT_stimuli/rescaled_final/2171_rv.mp4	0.0	185.86086797714233	1.0000700950622559
11	85.06271719932556	pulse	0	t		9.0	2.5	/experiments/knapen_AOT/AOT_stimuli/rescaled_final/2171_rv.mp4	0.0	186.44447016716003	
11	85.47918510437012	movie	1		242	9.0	2.5	/experiments/knapen_AOT/AOT_stimuli/rescaled_final/2171_rv.mp4	0.0	186.8609380722046	2.500566005706787
11	86.65921807289124	pulse	1	t		9.0	2.5	/experiments/knapen_AOT/AOT_stimuli/rescaled_final/2171_rv.mp4	0.0	188.0409710407257	
11	87.9797511100769	fix_post	2		12	9.0	2.5	/experiments/knapen_AOT/AOT_stimuli/rescaled_final/2171_rv.mp4	0.0	189.36150407791138	0.09987497329711914
12	88.07962608337402	fix_pre	0		120	10.0	2.5	/experiments/knapen_AOT/AOT_stimuli/rescaled_final/1289_rv.mp4	0.0	189.4613790512085	1.0001580715179443
12	88.26324200630188	pulse	0	t		10.0	2.5	/experiments/knapen_AOT/AOT_stimuli/rescaled_final/1289_rv.mp4	0.0	189.64499497413635	
12	89.07978415489197	movie	1		242	10.0	2.5	/experiments/knapen_AOT/AOT_stimuli/rescaled_final/1289_rv.mp4	0.0	190.46153712272644	2.5004990100860596
12	89.8634090423584	pulse	1	t		10.0	2.5	/experiments/knapen_AOT/AOT_stimuli/rescaled_final/1289_rv.mp4	0.0	191.24516201019287	
12	91.46448016166687	pulse	1	t		10.0	2.5	/experiments/knapen_AOT/AOT_stimuli/rescaled_final/1289_rv.mp4	0.0	192.84623312950134	
12	91.58028316497803	fix_post	2		12	10.0	2.5	/experiments/knapen_AOT/AOT_stimuli/rescaled_final/1289_rv.mp4	0.0	192.9620361328125	0.09993100166320801
13	91.68021416664124	fix_pre	0		120	11.0	2.5	/experiments/knapen_AOT/AOT_stimuli/rescaled_final/2135_rv.mp4	0.0	193.0619671344757	1.0000479221343994
13	92.68026208877563	movie	1		242	11.0	2.5	/experiments/knapen_AOT/AOT_stimuli/rescaled_final/2135_rv.mp4	0.0	194.0620150566101	2.4921979904174805
13	93.06464409828186	pulse	1	t		11.0	2.5	/experiments/knapen_AOT/AOT_stimuli/rescaled_final/2135_rv.mp4	0.0	194.44639706611633	
13	94.66436505317688	pulse	1	t		11.0	2.5	/experiments/knapen_AOT/AOT_stimuli/rescaled_final/2135_rv.mp4	0.0	196.04611802101135	
13	95.17246007919312	fix_post	2		12	11.0	2.5	/experiments/knapen_AOT/AOT_stimuli/rescaled_final/2135_rv.mp4	0.0	196.5542130470276	0.09986400604248047
14	95.2723240852356	fix_pre	0		120	12.0	2.5	blank	1.0	196.65407705307007	1.0002329349517822
14	96.26425909996033	pulse	0	t		12.0	2.5	blank	1.0	197.6460120677948	
14	96.27255702018738	movie	1		301	12.0	2.5	blank	1.0	197.65430998802185	2.508632183074951
14	97.86450910568237	pulse	1	t		12.0	2.5	blank	1.0	199.24626207351685	
14	98.78118920326233	fix_post	2		12	12.0	2.5	blank	1.0	200.1629421710968	0.10000300407409668
15	98.88119220733643	fix_pre	0		120	13.0	2.5	/experiments/knapen_AOT/AOT_stimuli/rescaled_final/1195_fw.mp4	0.0	200.2629451751709	1.0001869201660156
15	99.46488308906555	pulse	0	t		13.0	2.5	/experiments/knapen_AOT/AOT_stimuli/rescaled_final/1195_fw.mp4	0.0	200.84663605690002	
15	99.88137912750244	movie	1		243	13.0	2.5	/experiments/knapen_AOT/AOT_stimuli/rescaled_final/1195_fw.mp4	0.0	201.2631320953369	2.5005290508270264
15	101.0650839805603	pulse	1	t		13.0	2.5	/experiments/knapen_AOT/AOT_stimuli/rescaled_final/1195_fw.mp4	0.0	202.44683694839478	
15	102.38190817832947	fix_post	2		12	13.0	2.5	/experiments/knapen_AOT/AOT_stimuli/rescaled_final/1195_fw.mp4	0.0	203.76366114616394	0.09979581832885742
16	102.48170399665833	fix_pre	0		120	14.0	2.5	/experiments/knapen_AOT/AOT_stimuli/rescaled_final/1965_rv.mp4	0.0	203.8634569644928	1.0002009868621826
16	102.66527700424194	pulse	0	t		14.0	2.5	/experiments/knapen_AOT/AOT_stimuli/rescaled_final/1965_rv.mp4	0.0	204.04702997207642	
16	103.48190498352051	movie	1		242	14.0	2.5	/experiments/knapen_AOT/AOT_stimuli/rescaled_final/1965_rv.mp4	0.0	204.86365795135498	2.492150068283081
16	104.26545906066895	pulse	1	t		14.0	2.5	/experiments/knapen_AOT/AOT_stimuli/rescaled_final/1965_rv.mp4	0.0	205.64721202850342	
16	105.86575698852539	pulse	1	t		14.0	2.5	/experiments/knapen_AOT/AOT_stimuli/rescaled_final/1965_rv.mp4	0.0	207.24750995635986	
16	105.97405505180359	fix_post	2		13	14.0	2.5	/experiments/knapen_AOT/AOT_stimuli/rescaled_final/1965_rv.mp4	0.0	207.35580801963806	0.10821199417114258
17	106.08226704597473	fix_pre	0		120	15.0	2.5	/experiments/knapen_AOT/AOT_stimuli/rescaled_final/1307_fw.mp4	0.0	207.4640200138092	1.000169038772583
17	107.08243608474731	movie	1		243	15.0	2.5	/experiments/knapen_AOT/AOT_stimuli/rescaled_final/1307_fw.mp4	0.0	208.4641890525818	2.492079019546509
17	107.46673107147217	pulse	1	t		15.0	2.5	/experiments/knapen_AOT/AOT_stimuli/rescaled_final/1307_fw.mp4	0.0	208.84848403930664	
17	109.05915117263794	pulse	1	t		15.0	2.5	/experiments/knapen_AOT/AOT_stimuli/rescaled_final/1307_fw.mp4	0.0	210.4409041404724	
17	109.57451510429382	fix_post	2		12	15.0	2.5	/experiments/knapen_AOT/AOT_stimuli/rescaled_final/1307_fw.mp4	0.0	210.9562680721283	0.09999203681945801
18	109.67450714111328	fix_pre	0		120	16.0	2.5	/experiments/knapen_AOT/AOT_stimuli/rescaled_final/1036_rv.mp4	0.0	211.05626010894775	1.0001628398895264
18	110.65887308120728	pulse	0	t		16.0	2.5	/experiments/knapen_AOT/AOT_stimuli/rescaled_final/1036_rv.mp4	0.0	212.04062604904175	
18	110.67466998100281	movie	1		243	16.0	2.5	/experiments/knapen_AOT/AOT_stimuli/rescaled_final/1036_rv.mp4	0.0	212.05642294883728	2.5087220668792725
18	112.27120518684387	pulse	1	t		16.0	2.5	/experiments/knapen_AOT/AOT_stimuli/rescaled_final/1036_rv.mp4	0.0	213.65295815467834	
18	113.18339204788208	fix_post	2		12	16.0	2.5	/experiments/knapen_AOT/AOT_stimuli/rescaled_final/1036_rv.mp4	0.0	214.56514501571655	0.09996294975280762
19	113.28335499763489	fix_pre	0		120	17.0	2.5	/experiments/knapen_AOT/AOT_stimuli/rescaled_final/1142_rv.mp4	0.0	214.66510796546936	1.0001850128173828
19	113.85855007171631	pulse	0	t		17.0	2.5	/experiments/knapen_AOT/AOT_stimuli/rescaled_final/1142_rv.mp4	0.0	215.24030303955078	
19	114.28354001045227	movie	1		243	17.0	2.5	/experiments/knapen_AOT/AOT_stimuli/rescaled_final/1142_rv.mp4	0.0	215.66529297828674	2.500509023666382
19	115.45949006080627	pulse	1	t		17.0	2.5	/experiments/knapen_AOT/AOT_stimuli/rescaled_final/1142_rv.mp4	0.0	216.84124302864075	
19	116.78404903411865	fix_post	2		12	17.0	2.5	/experiments/knapen_AOT/AOT_stimuli/rescaled_final/1142_rv.mp4	0.0	218.16580200195312	0.09985613822937012
20	116.88390517234802	fix_pre	0		120	18.0	2.5	/experiments/knapen_AOT/AOT_stimuli/rescaled_final/1977_fw.mp4	0.0	218.2656581401825	1.0001628398895264
20	117.05908298492432	pulse	0	t		18.0	2.5	/experiments/knapen_AOT/AOT_stimuli/rescaled_final/1977_fw.mp4	0.0	218.4408359527588	
20	117.88406801223755	movie	1		243	18.0	2.5	/experiments/knapen_AOT/AOT_stimuli/rescaled_final/1977_fw.mp4	0.0	219.26582098007202	2.5003550052642822
20	118.65927815437317	pulse	1	t		18.0	2.5	/experiments/knapen_AOT/AOT_stimuli/rescaled_final/1977_fw.mp4	0.0	220.04103112220764	
20	120.25957298278809	pulse	1	t		18.0	2.5	/experiments/knapen_AOT/AOT_stimuli/rescaled_final/1977_fw.mp4	0.0	221.64132595062256	
20	120.38442301750183	fix_post	2		12	18.0	2.5	/experiments/knapen_AOT/AOT_stimuli/rescaled_final/1977_fw.mp4	0.0	221.7661759853363	0.10010099411010742
21	120.48452401161194	fix_pre	0		119	19.0	2.5	blank	1.0	221.8662769794464	0.9917140007019043
21	121.47623801231384	movie	1		300	19.0	2.5	blank	1.0	222.85799098014832	2.5003840923309326
21	121.85988402366638	pulse	1	t		19.0	2.5	blank	1.0	223.24163699150085	
21	123.46006917953491	pulse	1	t		19.0	2.5	blank	1.0	224.84182214736938	
21	123.97662210464478	fix_post	2		12	19.0	2.5	blank	1.0	225.35837507247925	0.10004687309265137
22	124.07666897773743	fix_pre	0		119	20.0	2.5	/experiments/knapen_AOT/AOT_stimuli/rescaled_final/1657_rv.mp4	0.0	225.4584219455719	0.9918241500854492
22	125.06027817726135	pulse	0	t		20.0	2.5	/experiments/knapen_AOT/AOT_stimuli/rescaled_final/1657_rv.mp4	0.0	226.44203114509583	
22	125.06849312782288	movie	1		243	20.0	2.5	/experiments/knapen_AOT/AOT_stimuli/rescaled_final/1657_rv.mp4	0.0	226.45024609565735	2.508694887161255
22	126.66096305847168	pulse	1	t		20.0	2.5	/experiments/knapen_AOT/AOT_stimuli/rescaled_final/1657_rv.mp4	0.0	228.04271602630615	
22	127.57718801498413	fix_post	2		12	20.0	2.5	/experiments/knapen_AOT/AOT_stimuli/rescaled_final/1657_rv.mp4	0.0	228.9589409828186	0.0999751091003418
23	127.67716312408447	fix_pre	0		120	21.0	2.5	/experiments/knapen_AOT/AOT_stimuli/rescaled_final/1405_fw.mp4	0.0	229.05891609191895	1.0001580715179443
23	128.26086711883545	pulse	0	t		21.0	2.5	/experiments/knapen_AOT/AOT_stimuli/rescaled_final/1405_fw.mp4	0.0	229.64262008666992	
23	128.67732119560242	movie	1		243	21.0	2.5	/experiments/knapen_AOT/AOT_stimuli/rescaled_final/1405_fw.mp4	0.0	230.0590741634369	2.5005879402160645
23	129.86110997200012	pulse	1	t		21.0	2.5	/experiments/knapen_AOT/AOT_stimuli/rescaled_final/1405_fw.mp4	0.0	231.2428629398346	
23	131.17790913581848	fix_post	2		12	21.0	2.5	/experiments/knapen_AOT/AOT_stimuli/rescaled_final/1405_fw.mp4	0.0	232.55966210365295	0.09982085227966309
24	131.27772998809814	fix_pre	0		120	22.0	2.5	/experiments/knapen_AOT/AOT_stimuli/rescaled_final/0487_fw.mp4	0.0	232.65948295593262	1.0001661777496338
24	131.46122002601624	pulse	0	t		22.0	2.5	/experiments/knapen_AOT/AOT_stimuli/rescaled_final/0487_fw.mp4	0.0	232.8429729938507	
24	132.27789616584778	movie	1		244	22.0	2.5	/experiments/knapen_AOT/AOT_stimuli/rescaled_final/0487_fw.mp4	0.0	233.65964913368225	2.5003228187561035
24	133.0613830089569	pulse	1	t		22.0	2.5	/experiments/knapen_AOT/AOT_stimuli/rescaled_final/0487_fw.mp4	0.0	234.44313597679138	
24	134.6618320941925	pulse	1	t		22.0	2.5	/experiments/knapen_AOT/AOT_stimuli/rescaled_final/0487_fw.mp4	0.0	236.04358506202698	
24	134.77821898460388	fix_post	2		12	22.0	2.5	/experiments/knapen_AOT/AOT_stimuli/rescaled_final/0487_fw.mp4	0.0	236.15997195243835	0.1000361442565918
25	134.87825512886047	fix_pre	0		119	23.0	2.5	/experiments/knapen_AOT/AOT_stimuli/rescaled_final/2037_rv.mp4	0.0	236.26000809669495	0.9918699264526367
25	135.8701250553131	movie	1		243	23.0	2.5	/experiments/knapen_AOT/AOT_stimuli/rescaled_final/2037_rv.mp4	0.0	237.25187802314758	2.5003130435943604
25	136.26206803321838	pulse	1	t		23.0	2.5	/experiments/knapen_AOT/AOT_stimuli/rescaled_final/2037_rv.mp4	0.0	237.64382100105286	
25	137.86227107048035	pulse	1	t		23.0	2.5	/experiments/knapen_AOT/AOT_stimuli/rescaled_final/2037_rv.mp4	0.0	239.24402403831482	
25	138.37043809890747	fix_post	2		12	23.0	2.5	/experiments/knapen_AOT/AOT_stimuli/rescaled_final/2037_rv.mp4	0.0	239.75219106674194	0.10013508796691895
26	138.4705731868744	fix_pre	0		120	24.0	2.5	/experiments/knapen_AOT/AOT_stimuli/rescaled_final/1405_rv.mp4	0.0	239.85232615470886	1.0000569820404053
26	139.46239519119263	pulse	0	t		24.0	2.5	/experiments/knapen_AOT/AOT_stimuli/rescaled_final/1405_rv.mp4	0.0	240.8441481590271	
26	139.4706301689148	movie	1		244	24.0	2.5	/experiments/knapen_AOT/AOT_stimuli/rescaled_final/1405_rv.mp4	0.0	240.85238313674927	2.508762836456299
26	141.06313014030457	pulse	1	t		24.0	2.5	/experiments/knapen_AOT/AOT_stimuli/rescaled_final/1405_rv.mp4	0.0	242.44488310813904	
26	141.9793930053711	fix_post	2		12	24.0	2.5	/experiments/knapen_AOT/AOT_stimuli/rescaled_final/1405_rv.mp4	0.0	243.36114597320557	0.09994101524353027
27	142.07933402061462	fix_pre	0		120	25.0	2.5	/experiments/knapen_AOT/AOT_stimuli/rescaled_final/1408_fw.mp4	0.0	243.4610869884491	1.0002031326293945
27	142.66300916671753	pulse	0	t		25.0	2.5	/experiments/knapen_AOT/AOT_stimuli/rescaled_final/1408_fw.mp4	0.0	244.044762134552	
27	143.07953715324402	movie	1		242	25.0	2.5	/experiments/knapen_AOT/AOT_stimuli/rescaled_final/1408_fw.mp4	0.0	244.4612901210785	2.5005500316619873
27	144.26337504386902	pulse	1	t		25.0	2.5	/experiments/knapen_AOT/AOT_stimuli/rescaled_final/1408_fw.mp4	0.0	245.6451280117035	
27	145.580087184906	fix_post	2		12	25.0	2.5	/experiments/knapen_AOT/AOT_stimuli/rescaled_final/1408_fw.mp4	0.0	246.96184015274048	0.09979701042175293
28	145.67988419532776	fix_pre	0		120	26.0	2.5	/experiments/knapen_AOT/AOT_stimuli/rescaled_final/0744_rv.mp4	0.0	247.06163716316223	1.0001389980316162
28	145.86336302757263	pulse	0	t		26.0	2.5	/experiments/knapen_AOT/AOT_stimuli/rescaled_final/0744_rv.mp4	0.0	247.2451159954071	
28	146.68002319335938	movie	1		237	26.0	2.5	/experiments/knapen_AOT/AOT_stimuli/rescaled_final/0744_rv.mp4	0.0	248.06177616119385	2.492269992828369
28	147.4635751247406	pulse	1	t		26.0	2.5	/experiments/knapen_AOT/AOT_stimuli/rescaled_final/0744_rv.mp4	0.0	248.84532809257507	
28	149.06373119354248	pulse	1	t		26.0	2.5	/experiments/knapen_AOT/AOT_stimuli/rescaled_final/0744_rv.mp4	0.0	250.44548416137695	
28	149.17229318618774	fix_post	2		13	26.0	2.5	/experiments/knapen_AOT/AOT_stimuli/rescaled_final/0744_rv.mp4	0.0	250.55404615402222	0.10808801651000977
29	149.28038120269775	fix_pre	0		119	27.0	2.5	/experiments/knapen_AOT/AOT_stimuli/rescaled_final/1928_fw.mp4	0.0	250.66213417053223	0.9918158054351807
29	150.27219700813293	movie	1		243	27.0	2.5	/experiments/knapen_AOT/AOT_stimuli/rescaled_final/1928_fw.mp4	0.0	251.6539499759674	2.5006000995635986
29	150.66430616378784	pulse	1	t		27.0	2.5	/experiments/knapen_AOT/AOT_stimuli/rescaled_final/1928_fw.mp4	0.0	252.04605913162231	
29	152.26440811157227	pulse	1	t		27.0	2.5	/experiments/knapen_AOT/AOT_stimuli/rescaled_final/1928_fw.mp4	0.0	253.64616107940674	
29	152.77279710769653	fix_post	2		12	27.0	2.5	/experiments/knapen_AOT/AOT_stimuli/rescaled_final/1928_fw.mp4	0.0	254.154550075531	0.09988689422607422
30	152.8726840019226	fix_pre	0		120	28.0	2.5	blank	1.0	254.25443696975708	1.0001230239868164
30	153.8645100593567	pulse	0	t		28.0	2.5	blank	1.0	255.24626302719116	
30	153.87280702590942	movie	1		301	28.0	2.5	blank	1.0	255.2545599937439	2.5086591243743896
30	155.46483516693115	pulse	1	t		28.0	2.5	blank	1.0	256.8465881347656	
30	156.3814661502838	fix_post	2		12	28.0	2.5	blank	1.0	257.7632191181183	0.10003805160522461
31	156.48150420188904	fix_pre	0		120	29.0	2.5	/experiments/knapen_AOT/AOT_stimuli/rescaled_final/1858_fw.mp4	0.0	257.8632571697235	1.0001068115234375
31	157.06506204605103	pulse	0	t		29.0	2.5	/experiments/knapen_AOT/AOT_stimuli/rescaled_final/1858_fw.mp4	0.0	258.4468150138855	
31	157.48161101341248	movie	1		242	29.0	2.5	/experiments/knapen_AOT/AOT_stimuli/rescaled_final/1858_fw.mp4	0.0	258.86336398124695	2.5006489753723145
31	158.6613531112671	pulse	1	t		29.0	2.5	/experiments/knapen_AOT/AOT_stimuli/rescaled_final/1858_fw.mp4	0.0	260.04310607910156	
31	159.9822599887848	fix_post	2		12	29.0	2.5	/experiments/knapen_AOT/AOT_stimuli/rescaled_final/1858_fw.mp4	0.0	261.36401295661926	0.0998220443725586
32	160.08208203315735	fix_pre	0		120	30.0	2.5	/experiments/knapen_AOT/AOT_stimuli/rescaled_final/0846_fw.mp4	0.0	261.4638350009918	1.0000929832458496
32	160.2655131816864	pulse	0	t		30.0	2.5	/experiments/knapen_AOT/AOT_stimuli/rescaled_final/0846_fw.mp4	0.0	261.6472661495209	
32	161.0821750164032	movie	1		246	30.0	2.5	/experiments/knapen_AOT/AOT_stimuli/rescaled_final/0846_fw.mp4	0.0	262.46392798423767	2.5003511905670166
32	161.86575198173523	pulse	1	t		30.0	2.5	/experiments/knapen_AOT/AOT_stimuli/rescaled_final/0846_fw.mp4	0.0	263.2475049495697	
32	163.46611404418945	pulse	1	t		30.0	2.5	/experiments/knapen_AOT/AOT_stimuli/rescaled_final/0846_fw.mp4	0.0	264.8478670120239	
32	163.58252620697021	fix_post	2		12	30.0	2.5	/experiments/knapen_AOT/AOT_stimuli/rescaled_final/0846_fw.mp4	0.0	264.9642791748047	0.10003876686096191
33	163.68256497383118	fix_pre	0		119	31.0	2.5	/experiments/knapen_AOT/AOT_stimuli/rescaled_final/0441_rv.mp4	0.0	265.06431794166565	0.9918241500854492
33	164.67438912391663	movie	1		242	31.0	2.5	/experiments/knapen_AOT/AOT_stimuli/rescaled_final/0441_rv.mp4	0.0	266.0561420917511	2.500562906265259
33	165.06636714935303	pulse	1	t		31.0	2.5	/experiments/knapen_AOT/AOT_stimuli/rescaled_final/0441_rv.mp4	0.0	266.4481201171875	
33	166.65928316116333	pulse	1	t		31.0	2.5	/experiments/knapen_AOT/AOT_stimuli/rescaled_final/0441_rv.mp4	0.0	268.0410361289978	
33	167.17495203018188	fix_post	2		12	31.0	2.5	/experiments/knapen_AOT/AOT_stimuli/rescaled_final/0441_rv.mp4	0.0	268.55670499801636	0.09982013702392578
34	167.2747721672058	fix_pre	0		120	32.0	2.5	/experiments/knapen_AOT/AOT_stimuli/rescaled_final/1828_rv.mp4	0.0	268.6565251350403	1.000152826309204
34	168.2592761516571	pulse	0	t		32.0	2.5	/experiments/knapen_AOT/AOT_stimuli/rescaled_final/1828_rv.mp4	0.0	269.6410291194916	
34	168.27492499351501	movie	1		244	32.0	2.5	/experiments/knapen_AOT/AOT_stimuli/rescaled_final/1828_rv.mp4	0.0	269.6566779613495	2.5087621212005615
34	169.8675332069397	pulse	1	t		32.0	2.5	/experiments/knapen_AOT/AOT_stimuli/rescaled_final/1828_rv.mp4	0.0	271.24928617477417	
34	170.78368711471558	fix_post	2		12	32.0	2.5	/experiments/knapen_AOT/AOT_stimuli/rescaled_final/1828_rv.mp4	0.0	272.16544008255005	0.09993886947631836
35	170.8836259841919	fix_pre	0		120	33.0	2.5	/experiments/knapen_AOT/AOT_stimuli/rescaled_final/1426_fw.mp4	0.0	272.26537895202637	1.0001420974731445
35	171.45966506004333	pulse	0	t		33.0	2.5	/experiments/knapen_AOT/AOT_stimuli/rescaled_final/1426_fw.mp4	0.0	272.8414180278778	
35	171.88376808166504	movie	1		246	33.0	2.5	/experiments/knapen_AOT/AOT_stimuli/rescaled_final/1426_fw.mp4	0.0	273.2655210494995	2.500370979309082
35	173.0602250099182	pulse	1	t		33.0	2.5	/experiments/knapen_AOT/AOT_stimuli/rescaled_final/1426_fw.mp4	0.0	274.4419779777527	
35	174.38413906097412	fix_post	2		12	33.0	2.5	/experiments/knapen_AOT/AOT_stimuli/rescaled_final/1426_fw.mp4	0.0	275.7658920288086	0.10002613067626953
36	174.4841651916504	fix_pre	0		120	34.0	2.5	/experiments/knapen_AOT/AOT_stimuli/rescaled_final/2101_fw.mp4	0.0	275.86591815948486	1.0001559257507324
36	174.65944004058838	pulse	0	t		34.0	2.5	/experiments/knapen_AOT/AOT_stimuli/rescaled_final/2101_fw.mp4	0.0	276.04119300842285	
36	175.48432111740112	movie	1		243	34.0	2.5	/experiments/knapen_AOT/AOT_stimuli/rescaled_final/2101_fw.mp4	0.0	276.8660740852356	2.500369071960449
36	176.25952410697937	pulse	1	t		34.0	2.5	/experiments/knapen_AOT/AOT_stimuli/rescaled_final/2101_fw.mp4	0.0	277.64127707481384	
36	177.8597869873047	pulse	1	t		34.0	2.5	/experiments/knapen_AOT/AOT_stimuli/rescaled_final/2101_fw.mp4	0.0	279.24153995513916	
36	177.98469018936157	fix_post	2		11	34.0	2.5	/experiments/knapen_AOT/AOT_stimuli/rescaled_final/2101_fw.mp4	0.0	279.36644315719604	0.09168195724487305
37	178.07637214660645	fix_pre	0		120	35.0	2.5	blank	1.0	279.4581251144409	1.0002288818359375
37	179.07660102844238	movie	1		300	35.0	2.5	blank	1.0	280.45835399627686	2.5002939701080322
37	179.46002006530762	pulse	1	t		35.0	2.5	blank	1.0	280.8417730331421	
37	181.06030416488647	pulse	1	t		35.0	2.5	blank	1.0	282.44205713272095	
37	181.57689499855042	fix_post	2		12	35.0	2.5	blank	1.0	282.9586479663849	0.10001206398010254
38	181.67690706253052	fix_pre	0		119	36.0	2.5	/experiments/knapen_AOT/AOT_stimuli/rescaled_final/0939_fw.mp4	0.0	283.058660030365	0.9918289184570312
38	182.6604871749878	pulse	0	t		36.0	2.5	/experiments/knapen_AOT/AOT_stimuli/rescaled_final/0939_fw.mp4	0.0	284.04224014282227	
38	182.66873598098755	movie	1		244	36.0	2.5	/experiments/knapen_AOT/AOT_stimuli/rescaled_final/0939_fw.mp4	0.0	284.050488948822	2.5087640285491943
38	184.26139307022095	pulse	1	t		36.0	2.5	/experiments/knapen_AOT/AOT_stimuli/rescaled_final/0939_fw.mp4	0.0	285.6431460380554	
38	185.17750000953674	fix_post	2		12	36.0	2.5	/experiments/knapen_AOT/AOT_stimuli/rescaled_final/0939_fw.mp4	0.0	286.5592529773712	0.09998607635498047
39	185.27748608589172	fix_pre	0		120	37.0	2.5	/experiments/knapen_AOT/AOT_stimuli/rescaled_final/0732_fw.mp4	0.0	286.6592390537262	1.000133991241455
39	185.86099314689636	pulse	0	t		37.0	2.5	/experiments/knapen_AOT/AOT_stimuli/rescaled_final/0732_fw.mp4	0.0	287.24274611473083	
39	186.27762007713318	movie	1		244	37.0	2.5	/experiments/knapen_AOT/AOT_stimuli/rescaled_final/0732_fw.mp4	0.0	287.65937304496765	2.500291109085083
39	187.46133017539978	pulse	1	t		37.0	2.5	/experiments/knapen_AOT/AOT_stimuli/rescaled_final/0732_fw.mp4	0.0	288.84308314323425	
39	188.77791118621826	fix_post	2		12	37.0	2.5	/experiments/knapen_AOT/AOT_stimuli/rescaled_final/0732_fw.mp4	0.0	290.15966415405273	0.1001279354095459
40	188.8780391216278	fix_pre	0		120	38.0	2.5	/experiments/knapen_AOT/AOT_stimuli/rescaled_final/0297_rv.mp4	0.0	290.2597920894623	1.0000650882720947
40	189.06152415275574	pulse	0	t		38.0	2.5	/experiments/knapen_AOT/AOT_stimuli/rescaled_final/0297_rv.mp4	0.0	290.4432771205902	
40	189.8781042098999	movie	1		242	38.0	2.5	/experiments/knapen_AOT/AOT_stimuli/rescaled_final/0297_rv.mp4	0.0	291.2598571777344	2.5006368160247803
40	190.66177320480347	pulse	1	t		38.0	2.5	/experiments/knapen_AOT/AOT_stimuli/rescaled_final/0297_rv.mp4	0.0	292.04352617263794	
40	192.2624809741974	pulse	1	t		38.0	2.5	/experiments/knapen_AOT/AOT_stimuli/rescaled_final/0297_rv.mp4	0.0	293.64423394203186	
40	192.37874102592468	fix_post	2		12	38.0	2.5	/experiments/knapen_AOT/AOT_stimuli/rescaled_final/0297_rv.mp4	0.0	293.76049399375916	0.09985709190368652
41	192.47859811782837	fix_pre	0		119	39.0	2.5	/experiments/knapen_AOT/AOT_stimuli/rescaled_final/0058_fw.mp4	0.0	293.86035108566284	0.9917449951171875
41	193.47034311294556	movie	1		245	39.0	2.5	/experiments/knapen_AOT/AOT_stimuli/rescaled_final/0058_fw.mp4	0.0	294.85209608078003	2.5003819465637207
41	193.86231899261475	pulse	1	t		39.0	2.5	/experiments/knapen_AOT/AOT_stimuli/rescaled_final/0058_fw.mp4	0.0	295.2440719604492	
41	195.46240901947021	pulse	1	t		39.0	2.5	/experiments/knapen_AOT/AOT_stimuli/rescaled_final/0058_fw.mp4	0.0	296.8441619873047	
41	195.97072505950928	fix_post	2		12	39.0	2.5	/experiments/knapen_AOT/AOT_stimuli/rescaled_final/0058_fw.mp4	0.0	297.35247802734375	0.10002708435058594
42	196.07075214385986	fix_pre	0		120	40.0	2.5	/experiments/knapen_AOT/AOT_stimuli/rescaled_final/0328_rv.mp4	0.0	297.45250511169434	1.0001158714294434
42	197.06279516220093	pulse	0	t		40.0	2.5	/experiments/knapen_AOT/AOT_stimuli/rescaled_final/0328_rv.mp4	0.0	298.4445481300354	
42	197.0708680152893	movie	1		244	40.0	2.5	/experiments/knapen_AOT/AOT_stimuli/rescaled_final/0328_rv.mp4	0.0	298.4526209831238	2.508716106414795
42	198.66365003585815	pulse	1	t		40.0	2.5	/experiments/knapen_AOT/AOT_stimuli/rescaled_final/0328_rv.mp4	0.0	300.0454030036926	
42	199.5795841217041	fix_post	2		12	40.0	2.5	/experiments/knapen_AOT/AOT_stimuli/rescaled_final/0328_rv.mp4	0.0	300.9613370895386	0.10005593299865723
43	199.67964005470276	fix_pre	0		120	41.0	2.5	/experiments/knapen_AOT/AOT_stimuli/rescaled_final/0160_rv.mp4	0.0	301.06139302253723	1.0001311302185059
43	200.26315808296204	pulse	0	t		41.0	2.5	/experiments/knapen_AOT/AOT_stimuli/rescaled_final/0160_rv.mp4	0.0	301.6449110507965	
43	200.67977118492126	movie	1		242	41.0	2.5	/experiments/knapen_AOT/AOT_stimuli/rescaled_final/0160_rv.mp4	0.0	302.06152415275574	2.500469923019409
43	201.86342000961304	pulse	1	t		41.0	2.5	/experiments/knapen_AOT/AOT_stimuli/rescaled_final/0160_rv.mp4	0.0	303.2451729774475	
43	203.18024110794067	fix_post	2		12	41.0	2.5	/experiments/knapen_AOT/AOT_stimuli/rescaled_final/0160_rv.mp4	0.0	304.56199407577515	0.0999000072479248
44	203.2801411151886	fix_pre	0		120	42.0	2.5	blank	1.0	304.66189408302307	1.0001158714294434
44	203.46371006965637	pulse	0	t		42.0	2.5	blank	1.0	304.84546303749084	
44	204.28025698661804	movie	1		300	42.0	2.5	blank	1.0	305.6620099544525	2.500399112701416
44	205.06397819519043	pulse	1	t		42.0	2.5	blank	1.0	306.4457311630249	
44	206.66414618492126	pulse	1	t		42.0	2.5	blank	1.0	308.04589915275574	
44	206.78065609931946	fix_post	2		12	42.0	2.5	blank	1.0	308.16240906715393	0.09999799728393555
45	206.8806540966034	fix_pre	0		120	43.0	2.5	/experiments/knapen_AOT/AOT_stimuli/rescaled_final/1574_fw.mp4	0.0	308.26240706443787	1.0002179145812988
45	207.8808720111847	movie	1		242	43.0	2.5	/experiments/knapen_AOT/AOT_stimuli/rescaled_final/1574_fw.mp4	0.0	309.26262497901917	2.4921600818634033
45	208.26469612121582	pulse	1	t		43.0	2.5	/experiments/knapen_AOT/AOT_stimuli/rescaled_final/1574_fw.mp4	0.0	309.6464490890503	
45	209.86459398269653	pulse	1	t		43.0	2.5	/experiments/knapen_AOT/AOT_stimuli/rescaled_final/1574_fw.mp4	0.0	311.246346950531	
45	210.3730320930481	fix_post	2		12	43.0	2.5	/experiments/knapen_AOT/AOT_stimuli/rescaled_final/1574_fw.mp4	0.0	311.75478506088257	0.09984207153320312
46	210.4728741645813	fix_pre	0		120	44.0	2.5	/experiments/knapen_AOT/AOT_stimuli/rescaled_final/0058_rv.mp4	0.0	311.85462713241577	1.0001649856567383
46	211.46491718292236	pulse	0	t		44.0	2.5	/experiments/knapen_AOT/AOT_stimuli/rescaled_final/0058_rv.mp4	0.0	312.84667015075684	
46	211.47303915023804	movie	1		245	44.0	2.5	/experiments/knapen_AOT/AOT_stimuli/rescaled_final/0058_rv.mp4	0.0	312.8547921180725	2.5086560249328613
46	213.06973719596863	pulse	1	t		44.0	2.5	/experiments/knapen_AOT/AOT_stimuli/rescaled_final/0058_rv.mp4	0.0	314.4514901638031	
46	213.9816951751709	fix_post	2		12	44.0	2.5	/experiments/knapen_AOT/AOT_stimuli/rescaled_final/0058_rv.mp4	0.0	315.36344814300537	0.10011792182922363
47	214.08181309700012	fix_pre	0		117	45.0	2.5	/experiments/knapen_AOT/AOT_stimuli/rescaled_final/1239_fw.mp4	0.0	315.4635660648346	1.0001330375671387
47	214.6653289794922	pulse	0	t		45.0	2.5	/experiments/knapen_AOT/AOT_stimuli/rescaled_final/1239_fw.mp4	0.0	316.04708194732666	
47	215.08194613456726	movie	1		243	45.0	2.5	/experiments/knapen_AOT/AOT_stimuli/rescaled_final/1239_fw.mp4	0.0	316.46369910240173	2.500403881072998
47	216.2656271457672	pulse	1	t		45.0	2.5	/experiments/knapen_AOT/AOT_stimuli/rescaled_final/1239_fw.mp4	0.0	317.6473801136017	
47	217.58235001564026	fix_post	2		12	45.0	2.5	/experiments/knapen_AOT/AOT_stimuli/rescaled_final/1239_fw.mp4	0.0	318.96410298347473	0.09992098808288574
48	217.68227100372314	fix_pre	0		120	46.0	2.5	/experiments/knapen_AOT/AOT_stimuli/rescaled_final/1935_fw.mp4	0.0	319.0640239715576	1.0001881122589111
48	217.86590814590454	pulse	0	t		46.0	2.5	/experiments/knapen_AOT/AOT_stimuli/rescaled_final/1935_fw.mp4	0.0	319.247661113739	
48	218.68245911598206	movie	1		243	46.0	2.5	/experiments/knapen_AOT/AOT_stimuli/rescaled_final/1935_fw.mp4	0.0	320.0642120838165	2.5005359649658203
48	219.46611309051514	pulse	1	t		46.0	2.5	/experiments/knapen_AOT/AOT_stimuli/rescaled_final/1935_fw.mp4	0.0	320.8478660583496	
48	221.06633114814758	pulse	1	t		46.0	2.5	/experiments/knapen_AOT/AOT_stimuli/rescaled_final/1935_fw.mp4	0.0	322.44808411598206	
48	221.18299508094788	fix_post	2		12	46.0	2.5	/experiments/knapen_AOT/AOT_stimuli/rescaled_final/1935_fw.mp4	0.0	322.56474804878235	0.09988212585449219
49	221.28287720680237	fix_pre	0		120	47.0	2.5	/experiments/knapen_AOT/AOT_stimuli/rescaled_final/1596_fw.mp4	0.0	322.66463017463684	1.0001227855682373
49	222.2829999923706	movie	1		242	47.0	2.5	/experiments/knapen_AOT/AOT_stimuli/rescaled_final/1596_fw.mp4	0.0	323.6647529602051	2.492249011993408
49	222.6670880317688	pulse	1	t		47.0	2.5	/experiments/knapen_AOT/AOT_stimuli/rescaled_final/1596_fw.mp4	0.0	324.04884099960327	
49	224.25945019721985	pulse	1	t		47.0	2.5	/experiments/knapen_AOT/AOT_stimuli/rescaled_final/1596_fw.mp4	0.0	325.6412031650543	
49	224.775249004364	fix_post	2		12	47.0	2.5	/experiments/knapen_AOT/AOT_stimuli/rescaled_final/1596_fw.mp4	0.0	326.1570019721985	0.09981298446655273
50	224.87506198883057	fix_pre	0		120	48.0	2.5	/experiments/knapen_AOT/AOT_stimuli/rescaled_final/1928_rv.mp4	0.0	326.25681495666504	1.000068187713623
50	225.85952615737915	pulse	0	t		48.0	2.5	/experiments/knapen_AOT/AOT_stimuli/rescaled_final/1928_rv.mp4	0.0	327.2412791252136	
50	225.8751301765442	movie	1		245	48.0	2.5	/experiments/knapen_AOT/AOT_stimuli/rescaled_final/1928_rv.mp4	0.0	327.25688314437866	2.5087928771972656
50	227.45907020568848	pulse	1	t		48.0	2.5	/experiments/knapen_AOT/AOT_stimuli/rescaled_final/1928_rv.mp4	0.0	328.84082317352295	
50	228.38392305374146	fix_post	2		12	48.0	2.5	/experiments/knapen_AOT/AOT_stimuli/rescaled_final/1928_rv.mp4	0.0	329.7656760215759	0.10004401206970215
51	228.48396706581116	fix_pre	0		120	49.0	2.5	blank	1.0	329.86572003364563	1.0001089572906494
51	229.0590682029724	pulse	0	t		49.0	2.5	blank	1.0	330.4408211708069	
51	229.4840760231018	movie	1		300	49.0	2.5	blank	1.0	330.8658289909363	2.500312089920044
51	230.65929198265076	pulse	1	t		49.0	2.5	blank	1.0	332.04104495048523	
51	231.98438811302185	fix_post	2		12	49.0	2.5	blank	1.0	333.3661410808563	0.10007500648498535
52	232.08446311950684	fix_pre	0		120	50.0	2.5	/experiments/knapen_AOT/AOT_stimuli/rescaled_final/0943_rv.mp4	0.0	333.4662160873413	1.0001909732818604
52	232.25968408584595	pulse	0	t		50.0	2.5	/experiments/knapen_AOT/AOT_stimuli/rescaled_final/0943_rv.mp4	0.0	333.6414370536804	
52	233.0846540927887	movie	1		242	50.0	2.5	/experiments/knapen_AOT/AOT_stimuli/rescaled_final/0943_rv.mp4	0.0	334.46640706062317	2.5005829334259033
52	233.85996508598328	pulse	1	t		50.0	2.5	/experiments/knapen_AOT/AOT_stimuli/rescaled_final/0943_rv.mp4	0.0	335.24171805381775	
52	235.460223197937	pulse	1	t		50.0	2.5	/experiments/knapen_AOT/AOT_stimuli/rescaled_final/0943_rv.mp4	0.0	336.8419761657715	
52	235.5852370262146	fix_post	2		12	50.0	2.5	/experiments/knapen_AOT/AOT_stimuli/rescaled_final/0943_rv.mp4	0.0	336.9669899940491	0.09978103637695312
53	235.68501806259155	fix_pre	0		120	51.0	2.5	/experiments/knapen_AOT/AOT_stimuli/rescaled_final/0954_fw.mp4	0.0	337.066771030426	1.000114917755127
53	236.68513298034668	movie	1		243	51.0	2.5	/experiments/knapen_AOT/AOT_stimuli/rescaled_final/0954_fw.mp4	0.0	338.06688594818115	2.4919891357421875
53	237.06027102470398	pulse	1	t		51.0	2.5	/experiments/knapen_AOT/AOT_stimuli/rescaled_final/0954_fw.mp4	0.0	338.44202399253845	
53	238.66059803962708	pulse	1	t		51.0	2.5	/experiments/knapen_AOT/AOT_stimuli/rescaled_final/0954_fw.mp4	0.0	340.04235100746155	
53	239.17712211608887	fix_post	2		12	51.0	2.5	/experiments/knapen_AOT/AOT_stimuli/rescaled_final/0954_fw.mp4	0.0	340.55887508392334	0.10006594657897949
54	239.27718806266785	fix_pre	0		119	52.0	2.5	/experiments/knapen_AOT/AOT_stimuli/rescaled_final/0720_rv.mp4	0.0	340.6589410305023	0.9918010234832764
54	240.26090097427368	pulse	0	t		52.0	2.5	/experiments/knapen_AOT/AOT_stimuli/rescaled_final/0720_rv.mp4	0.0	341.64265394210815	
54	240.26898908615112	movie	1		244	52.0	2.5	/experiments/knapen_AOT/AOT_stimuli/rescaled_final/0720_rv.mp4	0.0	341.6507420539856	2.50872802734375
54	241.86206102371216	pulse	1	t		52.0	2.5	/experiments/knapen_AOT/AOT_stimuli/rescaled_final/0720_rv.mp4	0.0	343.24381399154663	
54	242.77771711349487	fix_post	2		12	52.0	2.5	/experiments/knapen_AOT/AOT_stimuli/rescaled_final/0720_rv.mp4	0.0	344.15947008132935	0.10001897811889648
55	242.87773609161377	fix_pre	0		120	53.0	2.5	/experiments/knapen_AOT/AOT_stimuli/rescaled_final/0846_rv.mp4	0.0	344.25948905944824	1.000093936920166
55	243.4613561630249	pulse	0	t		53.0	2.5	/experiments/knapen_AOT/AOT_stimuli/rescaled_final/0846_rv.mp4	0.0	344.8431091308594	
55	243.87783002853394	movie	1		244	53.0	2.5	/experiments/knapen_AOT/AOT_stimuli/rescaled_final/0846_rv.mp4	0.0	345.2595829963684	2.5003621578216553
55	245.0615770816803	pulse	1	t		53.0	2.5	/experiments/knapen_AOT/AOT_stimuli/rescaled_final/0846_rv.mp4	0.0	346.44333004951477	
55	246.3781921863556	fix_post	2		12	53.0	2.5	/experiments/knapen_AOT/AOT_stimuli/rescaled_final/0846_rv.mp4	0.0	347.75994515419006	0.10006594657897949
56	246.47825813293457	fix_pre	0		120	54.0	2.5	/experiments/knapen_AOT/AOT_stimuli/rescaled_final/1948_fw.mp4	0.0	347.86001110076904	1.0001280307769775
56	246.6617510318756	pulse	0	t		54.0	2.5	/experiments/knapen_AOT/AOT_stimuli/rescaled_final/1948_fw.mp4	0.0	348.0435039997101	
56	247.47838616371155	movie	1		243	54.0	2.5	/experiments/knapen_AOT/AOT_stimuli/rescaled_final/1948_fw.mp4	0.0	348.860139131546	2.5005698204040527
56	248.26200699806213	pulse	1	t		54.0	2.5	/experiments/knapen_AOT/AOT_stimuli/rescaled_final/1948_fw.mp4	0.0	349.6437599658966	
56	249.86281204223633	pulse	1	t		54.0	2.5	/experiments/knapen_AOT/AOT_stimuli/rescaled_final/1948_fw.mp4	0.0	351.2445650100708	
56	249.9789559841156	fix_post	2		12	54.0	2.5	/experiments/knapen_AOT/AOT_stimuli/rescaled_final/1948_fw.mp4	0.0	351.3607089519501	0.09985613822937012
57	250.07881212234497	fix_pre	0		120	55.0	2.5	/experiments/knapen_AOT/AOT_stimuli/rescaled_final/0021_rv.mp4	0.0	351.46056509017944	1.0001590251922607
57	251.07897114753723	movie	1		242	55.0	2.5	/experiments/knapen_AOT/AOT_stimuli/rescaled_final/0021_rv.mp4	0.0	352.4607241153717	2.4922120571136475
57	251.46303820610046	pulse	1	t		55.0	2.5	/experiments/knapen_AOT/AOT_stimuli/rescaled_final/0021_rv.mp4	0.0	352.84479117393494	
57	253.06274819374084	pulse	1	t		55.0	2.5	/experiments/knapen_AOT/AOT_stimuli/rescaled_final/0021_rv.mp4	0.0	354.4445011615753	
57	253.57118320465088	fix_post	2		12	55.0	2.5	/experiments/knapen_AOT/AOT_stimuli/rescaled_final/0021_rv.mp4	0.0	354.95293617248535	0.09979987144470215
58	253.67098307609558	fix_pre	0		120	56.0	2.5	blank	1.0	355.05273604393005	1.0001499652862549
58	254.6630780696869	pulse	0	t		56.0	2.5	blank	1.0	356.04483103752136	
58	254.67113304138184	movie	1		301	56.0	2.5	blank	1.0	356.0528860092163	2.508695125579834
58	256.2633011341095	pulse	1	t		56.0	2.5	blank	1.0	357.64505410194397	
58	257.17982816696167	fix_post	2		12	56.0	2.5	blank	1.0	358.56158113479614	0.10006403923034668
59	257.279892206192	fix_pre	0		120	57.0	2.5	/experiments/knapen_AOT/AOT_stimuli/rescaled_final/0982_fw.mp4	0.0	358.6616451740265	1.0001468658447266
59	257.86347913742065	pulse	0	t		57.0	2.5	/experiments/knapen_AOT/AOT_stimuli/rescaled_final/0982_fw.mp4	0.0	359.2452321052551	
59	258.28003907203674	movie	1		242	57.0	2.5	/experiments/knapen_AOT/AOT_stimuli/rescaled_final/0982_fw.mp4	0.0	359.6617920398712	2.500481128692627
59	259.4637680053711	pulse	1	t		57.0	2.5	/experiments/knapen_AOT/AOT_stimuli/rescaled_final/0982_fw.mp4	0.0	360.84552097320557	
59	260.78052020072937	fix_post	2		12	57.0	2.5	/experiments/knapen_AOT/AOT_stimuli/rescaled_final/0982_fw.mp4	0.0	362.16227316856384	0.09991979598999023
60	260.88043999671936	fix_pre	0		120	58.0	2.5	/experiments/knapen_AOT/AOT_stimuli/rescaled_final/0341_fw.mp4	0.0	362.26219296455383	1.0000801086425781
60	261.0638611316681	pulse	0	t		58.0	2.5	/experiments/knapen_AOT/AOT_stimuli/rescaled_final/0341_fw.mp4	0.0	362.44561409950256	
60	261.88052010536194	movie	1		244	58.0	2.5	/experiments/knapen_AOT/AOT_stimuli/rescaled_final/0341_fw.mp4	0.0	363.2622730731964	2.500446081161499
60	262.66424918174744	pulse	1	t		58.0	2.5	/experiments/knapen_AOT/AOT_stimuli/rescaled_final/0341_fw.mp4	0.0	364.0460021495819	
60	264.26445508003235	pulse	1	t		58.0	2.5	/experiments/knapen_AOT/AOT_stimuli/rescaled_final/0341_fw.mp4	0.0	365.6462080478668	
60	264.38096618652344	fix_post	2		12	58.0	2.5	/experiments/knapen_AOT/AOT_stimuli/rescaled_final/0341_fw.mp4	0.0	365.7627191543579	0.09995698928833008
61	264.48092317581177	fix_pre	0		120	59.0	2.5	/experiments/knapen_AOT/AOT_stimuli/rescaled_final/1219_fw.mp4	0.0	365.86267614364624	1.0002000331878662
61	265.48112320899963	movie	1		242	59.0	2.5	/experiments/knapen_AOT/AOT_stimuli/rescaled_final/1219_fw.mp4	0.0	366.8628761768341	2.4920427799224854
61	265.8654580116272	pulse	1	t		59.0	2.5	/experiments/knapen_AOT/AOT_stimuli/rescaled_final/1219_fw.mp4	0.0	367.24721097946167	
61	267.4648640155792	pulse	1	t		59.0	2.5	/experiments/knapen_AOT/AOT_stimuli/rescaled_final/1219_fw.mp4	0.0	368.8466169834137	
61	267.9731659889221	fix_post	2		12	59.0	2.5	/experiments/knapen_AOT/AOT_stimuli/rescaled_final/1219_fw.mp4	0.0	369.3549189567566	0.10001611709594727
62	268.07318210601807	fix_pre	0		120	60.0	2.5	/experiments/knapen_AOT/AOT_stimuli/rescaled_final/0660_fw.mp4	0.0	369.45493507385254	1.0000889301300049
62	269.0651500225067	pulse	0	t		60.0	2.5	/experiments/knapen_AOT/AOT_stimuli/rescaled_final/0660_fw.mp4	0.0	370.4469029903412	
62	269.07327103614807	movie	1		243	60.0	2.5	/experiments/knapen_AOT/AOT_stimuli/rescaled_final/0660_fw.mp4	0.0	370.45502400398254	2.5087671279907227
62	270.6665999889374	pulse	1	t		60.0	2.5	/experiments/knapen_AOT/AOT_stimuli/rescaled_final/0660_fw.mp4	0.0	372.04835295677185	
62	271.5820381641388	fix_post	2		12	60.0	2.5	/experiments/knapen_AOT/AOT_stimuli/rescaled_final/0660_fw.mp4	0.0	372.96379113197327	0.10000395774841309
63	271.6820421218872	fix_pre	0		120	61.0	2.5	/experiments/knapen_AOT/AOT_stimuli/rescaled_final/1597_rv.mp4	0.0	373.0637950897217	1.0001239776611328
63	272.2655441761017	pulse	0	t		61.0	2.5	/experiments/knapen_AOT/AOT_stimuli/rescaled_final/1597_rv.mp4	0.0	373.64729714393616	
63	272.68216609954834	movie	1		242	61.0	2.5	/experiments/knapen_AOT/AOT_stimuli/rescaled_final/1597_rv.mp4	0.0	374.0639190673828	2.5005850791931152
63	273.8659281730652	pulse	1	t		61.0	2.5	/experiments/knapen_AOT/AOT_stimuli/rescaled_final/1597_rv.mp4	0.0	375.24768114089966	
63	275.18275117874146	fix_post	2		12	61.0	2.5	/experiments/knapen_AOT/AOT_stimuli/rescaled_final/1597_rv.mp4	0.0	376.5645041465759	0.09988689422607422
64	275.28263807296753	fix_pre	0		120	62.0	2.5	blank	1.0	376.664391040802	1.00006103515625
64	275.4586400985718	pulse	0	t		62.0	2.5	blank	1.0	376.84039306640625	
64	276.2826991081238	movie	1		300	62.0	2.5	blank	1.0	377.66445207595825	2.5003910064697266
64	277.0588140487671	pulse	1	t		62.0	2.5	blank	1.0	378.44056701660156	
64	278.65903997421265	pulse	1	t		62.0	2.5	blank	1.0	380.0407929420471	
64	278.7830901145935	fix_post	2		12	62.0	2.5	blank	1.0	380.164843082428	0.10004186630249023
65	278.883131980896	fix_pre	0		120	63.0	2.5	/experiments/knapen_AOT/AOT_stimuli/rescaled_final/0228_rv.mp4	0.0	380.26488494873047	1.0000741481781006
65	279.8832061290741	movie	1		241	63.0	2.5	/experiments/knapen_AOT/AOT_stimuli/rescaled_final/0228_rv.mp4	0.0	381.26495909690857	2.492119073867798
65	280.26838207244873	pulse	1	t		63.0	2.5	/experiments/knapen_AOT/AOT_stimuli/rescaled_final/0228_rv.mp4	0.0	381.6501350402832	
65	281.8588252067566	pulse	1	t		63.0	2.5	/experiments/knapen_AOT/AOT_stimuli/rescaled_final/0228_rv.mp4	0.0	383.24057817459106	
65	282.3753252029419	fix_post	2		8	63.0	2.5	/experiments/knapen_AOT/AOT_stimuli/rescaled_final/0228_rv.mp4	0.0	383.75707817077637	0.09993791580200195
66	282.4752631187439	fix_pre	0		119	64.0	2.5	/experiments/knapen_AOT/AOT_stimuli/rescaled_final/1144_fw.mp4	0.0	383.85701608657837	0.9918839931488037
66	283.4588520526886	pulse	0	t		64.0	2.5	/experiments/knapen_AOT/AOT_stimuli/rescaled_final/1144_fw.mp4	0.0	384.84060502052307	
66	283.4671471118927	movie	1		243	64.0	2.5	/experiments/knapen_AOT/AOT_stimuli/rescaled_final/1144_fw.mp4	0.0	384.8489000797272	2.5086638927459717
66	285.0600390434265	pulse	1	t		64.0	2.5	/experiments/knapen_AOT/AOT_stimuli/rescaled_final/1144_fw.mp4	0.0	386.441792011261	
66	285.9758110046387	fix_post	2		12	64.0	2.5	/experiments/knapen_AOT/AOT_stimuli/rescaled_final/1144_fw.mp4	0.0	387.35756397247314	0.10004711151123047
67	286.0758581161499	fix_pre	0		120	65.0	2.5	/experiments/knapen_AOT/AOT_stimuli/rescaled_final/0890_rv.mp4	0.0	387.4576110839844	1.0000889301300049
67	286.6593291759491	pulse	0	t		65.0	2.5	/experiments/knapen_AOT/AOT_stimuli/rescaled_final/0890_rv.mp4	0.0	388.04108214378357	
67	287.0759470462799	movie	1		243	65.0	2.5	/experiments/knapen_AOT/AOT_stimuli/rescaled_final/0890_rv.mp4	0.0	388.4577000141144	2.500394105911255
67	288.2597839832306	pulse	1	t		65.0	2.5	/experiments/knapen_AOT/AOT_stimuli/rescaled_final/0890_rv.mp4	0.0	389.64153695106506	
67	289.57634115219116	fix_post	2		12	65.0	2.5	/experiments/knapen_AOT/AOT_stimuli/rescaled_final/0890_rv.mp4	0.0	390.95809412002563	0.10000395774841309
68	289.6763451099396	fix_pre	0		120	66.0	2.5	/experiments/knapen_AOT/AOT_stimuli/rescaled_final/1788_fw.mp4	0.0	391.05809807777405	1.0001840591430664
68	289.85990810394287	pulse	0	t		66.0	2.5	/experiments/knapen_AOT/AOT_stimuli/rescaled_final/1788_fw.mp4	0.0	391.24166107177734	
68	290.67652916908264	movie	1		243	66.0	2.5	/experiments/knapen_AOT/AOT_stimuli/rescaled_final/1788_fw.mp4	0.0	392.0582821369171	2.500347852706909
68	291.46009612083435	pulse	1	t		66.0	2.5	/experiments/knapen_AOT/AOT_stimuli/rescaled_final/1788_fw.mp4	0.0	392.8418490886688	
68	293.0603840351105	pulse	1	t		66.0	2.5	/experiments/knapen_AOT/AOT_stimuli/rescaled_final/1788_fw.mp4	0.0	394.44213700294495	
68	293.17687702178955	fix_post	2		12	66.0	2.5	/experiments/knapen_AOT/AOT_stimuli/rescaled_final/1788_fw.mp4	0.0	394.558629989624	0.09999203681945801
69	293.276869058609	fix_pre	0		120	67.0	2.5	/experiments/knapen_AOT/AOT_stimuli/rescaled_final/0226_rv.mp4	0.0	394.6586220264435	1.000157117843628
69	294.27702617645264	movie	1		242	67.0	2.5	/experiments/knapen_AOT/AOT_stimuli/rescaled_final/0226_rv.mp4	0.0	395.6587791442871	2.492192029953003
69	294.66174817085266	pulse	1	t		67.0	2.5	/experiments/knapen_AOT/AOT_stimuli/rescaled_final/0226_rv.mp4	0.0	396.04350113868713	
69	296.26092410087585	pulse	1	t		67.0	2.5	/experiments/knapen_AOT/AOT_stimuli/rescaled_final/0226_rv.mp4	0.0	397.6426770687103	
69	296.76921820640564	fix_post	2		12	67.0	2.5	/experiments/knapen_AOT/AOT_stimuli/rescaled_final/0226_rv.mp4	0.0	398.1509711742401	0.0998849868774414
70	296.8691031932831	fix_pre	0		120	68.0	2.5	blank	1.0	398.25085616111755	1.0001068115234375
70	297.86109614372253	pulse	0	t		68.0	2.5	blank	1.0	399.242849111557	
70	297.8692100048065	movie	1		301	68.0	2.5	blank	1.0	399.250962972641	2.5087451934814453
70	299.4612669944763	pulse	1	t		68.0	2.5	blank	1.0	400.8430199623108	
70	300.37795519828796	fix_post	2		12	68.0	2.5	blank	1.0	401.75970816612244	0.10002779960632324
71	300.4779829978943	fix_pre	0		120	69.0	2.5	/experiments/knapen_AOT/AOT_stimuli/rescaled_final/1256_fw.mp4	0.0	401.85973596572876	1.0001599788665771
71	301.0614960193634	pulse	0	t		69.0	2.5	/experiments/knapen_AOT/AOT_stimuli/rescaled_final/1256_fw.mp4	0.0	402.4432489871979	
71	301.47814297676086	movie	1		245	69.0	2.5	/experiments/knapen_AOT/AOT_stimuli/rescaled_final/1256_fw.mp4	0.0	402.85989594459534	2.5003180503845215
71	302.6619071960449	pulse	1	t		69.0	2.5	/experiments/knapen_AOT/AOT_stimuli/rescaled_final/1256_fw.mp4	0.0	404.0436601638794	
71	303.9784610271454	fix_post	2		12	69.0	2.5	/experiments/knapen_AOT/AOT_stimuli/rescaled_final/1256_fw.mp4	0.0	405.36021399497986	0.10003209114074707
72	304.07849311828613	fix_pre	0		120	70.0	2.5	/experiments/knapen_AOT/AOT_stimuli/rescaled_final/1264_rv.mp4	0.0	405.4602460861206	1.0001769065856934
72	304.2620711326599	pulse	0	t		70.0	2.5	/experiments/knapen_AOT/AOT_stimuli/rescaled_final/1264_rv.mp4	0.0	405.6438241004944	
72	305.0786700248718	movie	1		243	70.0	2.5	/experiments/knapen_AOT/AOT_stimuli/rescaled_final/1264_rv.mp4	0.0	406.4604229927063	2.5005171298980713
72	305.86228704452515	pulse	1	t		70.0	2.5	/experiments/knapen_AOT/AOT_stimuli/rescaled_final/1264_rv.mp4	0.0	407.2440400123596	
72	307.46305203437805	pulse	1	t		70.0	2.5	/experiments/knapen_AOT/AOT_stimuli/rescaled_final/1264_rv.mp4	0.0	408.8448050022125	
72	307.5791871547699	fix_post	2		12	70.0	2.5	/experiments/knapen_AOT/AOT_stimuli/rescaled_final/1264_rv.mp4	0.0	408.96094012260437	0.09984898567199707
73	307.6790361404419	fix_pre	0		119	71.0	2.5	/experiments/knapen_AOT/AOT_stimuli/rescaled_final/0006_rv.mp4	0.0	409.06078910827637	0.9917998313903809
73	308.6708359718323	movie	1		242	71.0	2.5	/experiments/knapen_AOT/AOT_stimuli/rescaled_final/0006_rv.mp4	0.0	410.05258893966675	2.5004870891571045
73	309.0627820491791	pulse	1	t		71.0	2.5	/experiments/knapen_AOT/AOT_stimuli/rescaled_final/0006_rv.mp4	0.0	410.44453501701355	
73	310.6630940437317	pulse	1	t		71.0	2.5	/experiments/knapen_AOT/AOT_stimuli/rescaled_final/0006_rv.mp4	0.0	412.04484701156616	
73	311.1713230609894	fix_post	2		12	71.0	2.5	/experiments/knapen_AOT/AOT_stimuli/rescaled_final/0006_rv.mp4	0.0	412.55307602882385	0.09990406036376953
74	311.27122712135315	fix_pre	0		120	72.0	2.5	/experiments/knapen_AOT/AOT_stimuli/rescaled_final/0575_rv.mp4	0.0	412.6529800891876	1.0002448558807373
74	312.26325511932373	pulse	0	t		72.0	2.5	/experiments/knapen_AOT/AOT_stimuli/rescaled_final/0575_rv.mp4	0.0	413.6450080871582	
74	312.2714719772339	movie	1		244	72.0	2.5	/experiments/knapen_AOT/AOT_stimuli/rescaled_final/0575_rv.mp4	0.0	413.65322494506836	2.5086371898651123
74	313.8649001121521	pulse	1	t		72.0	2.5	/experiments/knapen_AOT/AOT_stimuli/rescaled_final/0575_rv.mp4	0.0	415.2466530799866	
74	314.780109167099	fix_post	2		12	72.0	2.5	/experiments/knapen_AOT/AOT_stimuli/rescaled_final/0575_rv.mp4	0.0	416.1618621349335	0.10000300407409668
75	314.8801121711731	fix_pre	0		120	73.0	2.5	/experiments/knapen_AOT/AOT_stimuli/rescaled_final/1268_fw.mp4	0.0	416.26186513900757	1.0001928806304932
75	315.46372413635254	pulse	0	t		73.0	2.5	/experiments/knapen_AOT/AOT_stimuli/rescaled_final/1268_fw.mp4	0.0	416.845477104187	
75	315.8803050518036	movie	1		244	73.0	2.5	/experiments/knapen_AOT/AOT_stimuli/rescaled_final/1268_fw.mp4	0.0	417.26205801963806	2.5003581047058105
75	317.06403398513794	pulse	1	t		73.0	2.5	/experiments/knapen_AOT/AOT_stimuli/rescaled_final/1268_fw.mp4	0.0	418.4457869529724	
75	318.3806631565094	fix_post	2		12	73.0	2.5	/experiments/knapen_AOT/AOT_stimuli/rescaled_final/1268_fw.mp4	0.0	419.7624161243439	0.09997296333312988
76	318.48063611984253	fix_pre	0		120	74.0	2.5	/experiments/knapen_AOT/AOT_stimuli/rescaled_final/1897_rv.mp4	0.0	419.862389087677	1.0002238750457764
76	318.6642370223999	pulse	0	t		74.0	2.5	/experiments/knapen_AOT/AOT_stimuli/rescaled_final/1897_rv.mp4	0.0	420.0459899902344	
76	319.4808599948883	movie	1		245	74.0	2.5	/experiments/knapen_AOT/AOT_stimuli/rescaled_final/1897_rv.mp4	0.0	420.8626129627228	2.500293016433716
76	320.26435899734497	pulse	1	t		74.0	2.5	/experiments/knapen_AOT/AOT_stimuli/rescaled_final/1897_rv.mp4	0.0	421.64611196517944	
76	321.86211919784546	pulse	1	t		74.0	2.5	/experiments/knapen_AOT/AOT_stimuli/rescaled_final/1897_rv.mp4	0.0	423.24387216567993	
76	321.981153011322	fix_post	2		12	74.0	2.5	/experiments/knapen_AOT/AOT_stimuli/rescaled_final/1897_rv.mp4	0.0	423.3629059791565	0.10001206398010254
77	322.0811650753021	fix_pre	0		119	75.0	2.5	/experiments/knapen_AOT/AOT_stimuli/rescaled_final/0892_rv.mp4	0.0	423.4629180431366	0.9918570518493652
77	323.0730221271515	movie	1		242	75.0	2.5	/experiments/knapen_AOT/AOT_stimuli/rescaled_final/0892_rv.mp4	0.0	424.45477509498596	2.500459909439087
77	323.4650070667267	pulse	1	t		75.0	2.5	/experiments/knapen_AOT/AOT_stimuli/rescaled_final/0892_rv.mp4	0.0	424.84676003456116	
77	325.0651340484619	pulse	1	t		75.0	2.5	/experiments/knapen_AOT/AOT_stimuli/rescaled_final/0892_rv.mp4	0.0	426.4468870162964	
77	325.5734820365906	fix_post	2		12	75.0	2.5	/experiments/knapen_AOT/AOT_stimuli/rescaled_final/0892_rv.mp4	0.0	426.95523500442505	0.09989309310913086
78	325.6733751296997	fix_pre	0		120	76.0	2.5	/experiments/knapen_AOT/AOT_stimuli/rescaled_final/1483_rv.mp4	0.0	427.0551280975342	1.000251054763794
78	326.6653380393982	pulse	0	t		76.0	2.5	/experiments/knapen_AOT/AOT_stimuli/rescaled_final/1483_rv.mp4	0.0	428.04709100723267	
78	326.6736261844635	movie	1		243	76.0	2.5	/experiments/knapen_AOT/AOT_stimuli/rescaled_final/1483_rv.mp4	0.0	428.055379152298	2.5087289810180664
78	328.26627016067505	pulse	1	t		76.0	2.5	/experiments/knapen_AOT/AOT_stimuli/rescaled_final/1483_rv.mp4	0.0	429.6480231285095	
78	329.18235516548157	fix_post	2		12	76.0	2.5	/experiments/knapen_AOT/AOT_stimuli/rescaled_final/1483_rv.mp4	0.0	430.56410813331604	0.09988784790039062
79	329.28224301338196	fix_pre	0		120	77.0	2.5	blank	1.0	430.66399598121643	1.0001740455627441
79	329.8658699989319	pulse	0	t		77.0	2.5	blank	1.0	431.24762296676636	
79	330.2824170589447	movie	1		300	77.0	2.5	blank	1.0	431.6641700267792	2.5003890991210938
79	331.46620202064514	pulse	1	t		77.0	2.5	blank	1.0	432.8479549884796	
79	332.7828061580658	fix_post	2		12	77.0	2.5	blank	1.0	434.16455912590027	0.10000300407409668
80	332.8828091621399	fix_pre	0		120	78.0	2.5	/experiments/knapen_AOT/AOT_stimuli/rescaled_final/2101_rv.mp4	0.0	434.26456212997437	1.0001490116119385
80	333.0663950443268	pulse	0	t		78.0	2.5	/experiments/knapen_AOT/AOT_stimuli/rescaled_final/2101_rv.mp4	0.0	434.44814801216125	
80	333.88295817375183	movie	1		243	78.0	2.5	/experiments/knapen_AOT/AOT_stimuli/rescaled_final/2101_rv.mp4	0.0	435.2647111415863	2.5003468990325928
80	334.6665291786194	pulse	1	t		78.0	2.5	/experiments/knapen_AOT/AOT_stimuli/rescaled_final/2101_rv.mp4	0.0	436.04828214645386	
80	336.26650500297546	pulse	1	t		78.0	2.5	/experiments/knapen_AOT/AOT_stimuli/rescaled_final/2101_rv.mp4	0.0	437.64825797080994	
80	336.3833050727844	fix_post	2		12	78.0	2.5	/experiments/knapen_AOT/AOT_stimuli/rescaled_final/2101_rv.mp4	0.0	437.7650580406189	0.1000509262084961
81	336.4833559989929	fix_pre	0		119	79.0	2.5	/experiments/knapen_AOT/AOT_stimuli/rescaled_final/1403_fw.mp4	0.0	437.8651089668274	0.9917800426483154
81	337.47513604164124	movie	1		243	79.0	2.5	/experiments/knapen_AOT/AOT_stimuli/rescaled_final/1403_fw.mp4	0.0	438.8568890094757	2.5005791187286377
81	337.8671371936798	pulse	1	t		79.0	2.5	/experiments/knapen_AOT/AOT_stimuli/rescaled_final/1403_fw.mp4	0.0	439.2488901615143	
81	339.4600350856781	pulse	1	t		79.0	2.5	/experiments/knapen_AOT/AOT_stimuli/rescaled_final/1403_fw.mp4	0.0	440.8417880535126	
81	339.9757151603699	fix_post	2		12	79.0	2.5	/experiments/knapen_AOT/AOT_stimuli/rescaled_final/1403_fw.mp4	0.0	441.35746812820435	0.09985184669494629
82	340.0755670070648	fix_pre	0		120	80.0	2.5	/experiments/knapen_AOT/AOT_stimuli/rescaled_final/0328_fw.mp4	0.0	441.4573199748993	1.0001790523529053
82	341.0599880218506	pulse	0	t		80.0	2.5	/experiments/knapen_AOT/AOT_stimuli/rescaled_final/0328_fw.mp4	0.0	442.44174098968506	
82	341.0757460594177	movie	1		244	80.0	2.5	/experiments/knapen_AOT/AOT_stimuli/rescaled_final/0328_fw.mp4	0.0	442.4574990272522	2.5086660385131836
82	342.6595242023468	pulse	1	t		80.0	2.5	/experiments/knapen_AOT/AOT_stimuli/rescaled_final/0328_fw.mp4	0.0	444.0412771701813	
82	343.5844120979309	fix_post	2		12	80.0	2.5	/experiments/knapen_AOT/AOT_stimuli/rescaled_final/0328_fw.mp4	0.0	444.9661650657654	0.09998893737792969
83	343.68440103530884	fix_pre	0		120	81.0	2.5	/experiments/knapen_AOT/AOT_stimuli/rescaled_final/0033_rv.mp4	0.0	445.0661540031433	1.0001611709594727
83	344.2595901489258	pulse	0	t		81.0	2.5	/experiments/knapen_AOT/AOT_stimuli/rescaled_final/0033_rv.mp4	0.0	445.64134311676025	
83	344.6845622062683	movie	1		244	81.0	2.5	/experiments/knapen_AOT/AOT_stimuli/rescaled_final/0033_rv.mp4	0.0	446.0663151741028	2.50042986869812
83	345.86090898513794	pulse	1	t		81.0	2.5	/experiments/knapen_AOT/AOT_stimuli/rescaled_final/0033_rv.mp4	0.0	447.2426619529724	
83	347.18499207496643	fix_post	2		9	81.0	2.5	/experiments/knapen_AOT/AOT_stimuli/rescaled_final/0033_rv.mp4	0.0	448.5667450428009	0.0999910831451416
84	347.2849831581116	fix_pre	0		120	82.0	2.5	/experiments/knapen_AOT/AOT_stimuli/rescaled_final/2079_rv.mp4	0.0	448.66673612594604	1.000140905380249
84	347.4602541923523	pulse	0	t		82.0	2.5	/experiments/knapen_AOT/AOT_stimuli/rescaled_final/2079_rv.mp4	0.0	448.84200716018677	
84	348.2851240634918	movie	1		242	82.0	2.5	/experiments/knapen_AOT/AOT_stimuli/rescaled_final/2079_rv.mp4	0.0	449.6668770313263	2.4921860694885254
84	349.0603041648865	pulse	1	t		82.0	2.5	/experiments/knapen_AOT/AOT_stimuli/rescaled_final/2079_rv.mp4	0.0	450.44205713272095	
84	350.6605360507965	pulse	1	t		82.0	2.5	/experiments/knapen_AOT/AOT_stimuli/rescaled_final/2079_rv.mp4	0.0	452.042289018631	
84	350.77731013298035	fix_post	2		13	82.0	2.5	/experiments/knapen_AOT/AOT_stimuli/rescaled_final/2079_rv.mp4	0.0	452.1590631008148	0.1082000732421875
85	350.88551020622253	fix_pre	0		119	83.0	2.5	blank	1.0	452.267263174057	0.9917778968811035
85	351.87728810310364	movie	1		300	83.0	2.5	blank	1.0	453.2590410709381	2.5003819465637207
85	352.26081109046936	pulse	1	t		83.0	2.5	blank	1.0	453.64256405830383	
85	353.8610680103302	pulse	1	t		83.0	2.5	blank	1.0	455.2428209781647	
85	354.37767004966736	fix_post	2		12	83.0	2.5	blank	1.0	455.75942301750183	0.10004210472106934
87	354.4777121543884	stim	0		1716					455.8594651222229	14.302197933197021
87	355.4613380432129	pulse	0	t						456.84309101104736	
87	357.0616490840912	pulse	0	t						458.44340205192566	
87	358.6617751121521	pulse	0	t						460.0435280799866	
87	360.2620360851288	pulse	0	t						461.64378905296326	
87	361.86228609085083	pulse	0	t						463.2440390586853	
87	363.46243715286255	pulse	0	t						464.844190120697	
87	365.0628261566162	pulse	0	t						466.4445791244507	
87	366.66297817230225	pulse	0	t						468.0447311401367	
87	368.2632281780243	pulse	0	t						469.64498114585876	
