trial_nr	onset	event_type	phase	response	nr_frames	movie_index	movie_duration	movie_file	blank	onset_abs	duration
0	0.15827441215515137	stim	0		1					16.876076698303223	0.008317708969116211
0	0.16001439094543457	response	0	space						16.877816677093506	
1	0.16659212112426758	stim	0		4429					16.88439440727234	36.92578482627869
1	37.07773947715759	pulse	0	t						53.795541763305664	
1	37.092376947402954	stim	1		1714					53.810179233551025	14.298500776290894
1	38.6724648475647	pulse	1	t						55.39026713371277	
1	40.27269959449768	pulse	1	t						56.99050188064575	
1	41.87287783622742	pulse	1	t						58.59068012237549	
1	43.47312903404236	pulse	1	t						60.19093132019043	
1	45.073373556137085	pulse	1	t						61.791175842285156	
1	46.673701763153076	pulse	1	t						63.39150404930115	
1	48.27383089065552	pulse	1	t						64.99163317680359	
1	49.874181270599365	pulse	1	t						66.59198355674744	
2	51.39087772369385	fix_pre	0		11	0.0	2.5	/experiments/Knapen_AOT/AOT_stimuli/rescaled_final/1431_rv.mp4	0.0	68.10868000984192	0.10834956169128418
2	51.474427223205566	pulse	0	t		0.0	2.5	/experiments/Knapen_AOT/AOT_stimuli/rescaled_final/1431_rv.mp4	0.0	68.19222950935364	
2	51.49922728538513	movie	1		287	0.0	2.5	/experiments/Knapen_AOT/AOT_stimuli/rescaled_final/1431_rv.mp4	0.0	68.2170295715332	2.4919726848602295
2	53.0752592086792	pulse	1	t		0.0	2.5	/experiments/Knapen_AOT/AOT_stimuli/rescaled_final/1431_rv.mp4	0.0	69.79306149482727	
2	53.99119997024536	fix_post	2		12	0.0	2.5	/experiments/Knapen_AOT/AOT_stimuli/rescaled_final/1431_rv.mp4	0.0	70.70900225639343	0.10002255439758301
3	54.091222524642944	fix_pre	0		120	1.0	2.5	/experiments/Knapen_AOT/AOT_stimuli/rescaled_final/1431_fw.mp4	0.0	70.80902481079102	1.0085132122039795
3	54.67493510246277	pulse	0	t		1.0	2.5	/experiments/Knapen_AOT/AOT_stimuli/rescaled_final/1431_fw.mp4	0.0	71.39273738861084	
3	55.099735736846924	movie	1		274	1.0	2.5	/experiments/Knapen_AOT/AOT_stimuli/rescaled_final/1431_fw.mp4	0.0	71.817538022995	2.492002010345459
3	56.26732110977173	pulse	1	t		1.0	2.5	/experiments/Knapen_AOT/AOT_stimuli/rescaled_final/1431_fw.mp4	0.0	72.9851233959198	
3	57.59173774719238	fix_post	2		12	1.0	2.5	/experiments/Knapen_AOT/AOT_stimuli/rescaled_final/1431_fw.mp4	0.0	74.30954003334045	0.10004806518554688
4	57.69178581237793	fix_pre	0		120	2.0	2.5	/experiments/Knapen_AOT/AOT_stimuli/rescaled_final/1335_fw.mp4	0.0	74.409588098526	1.008507251739502
4	57.86719298362732	pulse	0	t		2.0	2.5	/experiments/Knapen_AOT/AOT_stimuli/rescaled_final/1335_fw.mp4	0.0	74.58499526977539	
4	58.70029306411743	movie	1		287	2.0	2.5	/experiments/Knapen_AOT/AOT_stimuli/rescaled_final/1335_fw.mp4	0.0	75.4180953502655	2.491985559463501
4	59.46725559234619	pulse	1	t		2.0	2.5	/experiments/Knapen_AOT/AOT_stimuli/rescaled_final/1335_fw.mp4	0.0	76.18505787849426	
4	61.06749701499939	pulse	1	t		2.0	2.5	/experiments/Knapen_AOT/AOT_stimuli/rescaled_final/1335_fw.mp4	0.0	77.78529930114746	
4	61.19227862358093	fix_post	2		12	2.0	2.5	/experiments/Knapen_AOT/AOT_stimuli/rescaled_final/1335_fw.mp4	0.0	77.910080909729	0.1000218391418457
5	61.29230046272278	fix_pre	0		120	3.0	2.5	/experiments/Knapen_AOT/AOT_stimuli/rescaled_final/1965_fw.mp4	0.0	78.01010274887085	1.0084810256958008
5	62.30078148841858	movie	1		289	3.0	2.5	/experiments/Knapen_AOT/AOT_stimuli/rescaled_final/1965_fw.mp4	0.0	79.01858377456665	2.492074966430664
5	62.6678409576416	pulse	1	t		3.0	2.5	/experiments/Knapen_AOT/AOT_stimuli/rescaled_final/1965_fw.mp4	0.0	79.38564324378967	
5	64.26805853843689	pulse	1	t		3.0	2.5	/experiments/Knapen_AOT/AOT_stimuli/rescaled_final/1965_fw.mp4	0.0	80.98586082458496	
5	64.79285645484924	fix_post	2		12	3.0	2.5	/experiments/Knapen_AOT/AOT_stimuli/rescaled_final/1965_fw.mp4	0.0	81.51065874099731	0.10012173652648926
6	64.89297819137573	fix_pre	0		118	4.0	2.5	/experiments/Knapen_AOT/AOT_stimuli/rescaled_final/0626_fw.mp4	0.0	81.6107804775238	0.9917042255401611
6	65.868239402771	pulse	0	t		4.0	2.5	/experiments/Knapen_AOT/AOT_stimuli/rescaled_final/0626_fw.mp4	0.0	82.58604168891907	
6	65.8846824169159	movie	1		290	4.0	2.5	/experiments/Knapen_AOT/AOT_stimuli/rescaled_final/0626_fw.mp4	0.0	82.60248470306396	2.500375747680664
6	67.46861910820007	pulse	1	t		4.0	2.5	/experiments/Knapen_AOT/AOT_stimuli/rescaled_final/0626_fw.mp4	0.0	84.18642139434814	
6	68.38505816459656	fix_post	2		12	4.0	2.5	/experiments/Knapen_AOT/AOT_stimuli/rescaled_final/0626_fw.mp4	0.0	85.10286045074463	0.10003423690795898
7	68.48509240150452	fix_pre	0		120	5.0	2.5	/experiments/Knapen_AOT/AOT_stimuli/rescaled_final/0569_fw.mp4	0.0	85.20289468765259	1.0084733963012695
7	69.06870675086975	pulse	0	t		5.0	2.5	/experiments/Knapen_AOT/AOT_stimuli/rescaled_final/0569_fw.mp4	0.0	85.78650903701782	
7	69.49356579780579	movie	1		283	5.0	2.5	/experiments/Knapen_AOT/AOT_stimuli/rescaled_final/0569_fw.mp4	0.0	86.21136808395386	2.4920945167541504
7	70.66713523864746	pulse	1	t		5.0	2.5	/experiments/Knapen_AOT/AOT_stimuli/rescaled_final/0569_fw.mp4	0.0	87.38493752479553	
7	71.98566031455994	fix_post	2		12	5.0	2.5	/experiments/Knapen_AOT/AOT_stimuli/rescaled_final/0569_fw.mp4	0.0	88.70346260070801	0.09993600845336914
8	72.0855963230133	fix_pre	0		120	6.0	2.5	/experiments/Knapen_AOT/AOT_stimuli/rescaled_final/0669_fw.mp4	0.0	88.80339860916138	1.0084822177886963
8	72.26917338371277	pulse	0	t		6.0	2.5	/experiments/Knapen_AOT/AOT_stimuli/rescaled_final/0669_fw.mp4	0.0	88.98697566986084	
8	73.094078540802	movie	1		275	6.0	2.5	/experiments/Knapen_AOT/AOT_stimuli/rescaled_final/0669_fw.mp4	0.0	89.81188082695007	2.492088794708252
8	73.86769199371338	pulse	1	t		6.0	2.5	/experiments/Knapen_AOT/AOT_stimuli/rescaled_final/0669_fw.mp4	0.0	90.58549427986145	
8	75.46813535690308	pulse	1	t		6.0	2.5	/experiments/Knapen_AOT/AOT_stimuli/rescaled_final/0669_fw.mp4	0.0	92.18593764305115	
8	75.58616733551025	fix_post	2		12	6.0	2.5	/experiments/Knapen_AOT/AOT_stimuli/rescaled_final/0669_fw.mp4	0.0	92.30396962165833	0.10000801086425781
9	75.68617534637451	fix_pre	0		120	7.0	2.5	blank	1.0	92.40397763252258	1.0000996589660645
9	76.68627500534058	movie	1		300	7.0	2.5	blank	1.0	93.40407729148865	2.500375509262085
9	77.0698766708374	pulse	1	t		7.0	2.5	blank	1.0	93.78767895698547	
9	78.67019367218018	pulse	1	t		7.0	2.5	blank	1.0	95.38799595832825	
9	79.18665051460266	fix_post	2		12	7.0	2.5	blank	1.0	95.90445280075073	0.10001993179321289
10	79.28667044639587	fix_pre	0		119	8.0	2.5	/experiments/Knapen_AOT/AOT_stimuli/rescaled_final/1363_rv.mp4	0.0	96.00447273254395	1.0001168251037598
10	80.27035450935364	pulse	0	t		8.0	2.5	/experiments/Knapen_AOT/AOT_stimuli/rescaled_final/1363_rv.mp4	0.0	96.98815679550171	
10	80.28678727149963	movie	1		280	8.0	2.5	/experiments/Knapen_AOT/AOT_stimuli/rescaled_final/1363_rv.mp4	0.0	97.0045895576477	2.5004115104675293
10	81.87072253227234	pulse	1	t		8.0	2.5	/experiments/Knapen_AOT/AOT_stimuli/rescaled_final/1363_rv.mp4	0.0	98.58852481842041	
10	82.78719878196716	fix_post	2		12	8.0	2.5	/experiments/Knapen_AOT/AOT_stimuli/rescaled_final/1363_rv.mp4	0.0	99.50500106811523	0.10002374649047852
11	82.88722252845764	fix_pre	0		120	9.0	2.5	/experiments/Knapen_AOT/AOT_stimuli/rescaled_final/0301_fw.mp4	0.0	99.60502481460571	1.0085115432739258
11	83.47090530395508	pulse	0	t		9.0	2.5	/experiments/Knapen_AOT/AOT_stimuli/rescaled_final/0301_fw.mp4	0.0	100.18870759010315	
11	83.89573407173157	movie	1		289	9.0	2.5	/experiments/Knapen_AOT/AOT_stimuli/rescaled_final/0301_fw.mp4	0.0	100.61353635787964	2.492048501968384
11	85.06910109519958	pulse	1	t		9.0	2.5	/experiments/Knapen_AOT/AOT_stimuli/rescaled_final/0301_fw.mp4	0.0	101.78690338134766	
11	86.38778257369995	fix_post	2		12	9.0	2.5	/experiments/Knapen_AOT/AOT_stimuli/rescaled_final/0301_fw.mp4	0.0	103.10558485984802	0.09999442100524902
12	86.4877769947052	fix_pre	0		120	10.0	2.5	/experiments/Knapen_AOT/AOT_stimuli/rescaled_final/0504_fw.mp4	0.0	103.20557928085327	1.0085258483886719
12	86.67135381698608	pulse	0	t		10.0	2.5	/experiments/Knapen_AOT/AOT_stimuli/rescaled_final/0504_fw.mp4	0.0	103.38915610313416	
12	87.49630284309387	movie	1		283	10.0	2.5	/experiments/Knapen_AOT/AOT_stimuli/rescaled_final/0504_fw.mp4	0.0	104.21410512924194	2.4919707775115967
12	88.2694730758667	pulse	1	t		10.0	2.5	/experiments/Knapen_AOT/AOT_stimuli/rescaled_final/0504_fw.mp4	0.0	104.98727536201477	
12	89.86955571174622	pulse	1	t		10.0	2.5	/experiments/Knapen_AOT/AOT_stimuli/rescaled_final/0504_fw.mp4	0.0	106.58735799789429	
12	89.98827362060547	fix_post	2		12	10.0	2.5	/experiments/Knapen_AOT/AOT_stimuli/rescaled_final/0504_fw.mp4	0.0	106.70607590675354	0.10002994537353516
13	90.088303565979	fix_pre	0		120	11.0	2.5	/experiments/Knapen_AOT/AOT_stimuli/rescaled_final/0494_fw.mp4	0.0	106.80610585212708	1.0084879398345947
13	91.0967915058136	movie	1		278	11.0	2.5	/experiments/Knapen_AOT/AOT_stimuli/rescaled_final/0494_fw.mp4	0.0	107.81459379196167	2.4920341968536377
13	91.47034025192261	pulse	1	t		11.0	2.5	/experiments/Knapen_AOT/AOT_stimuli/rescaled_final/0494_fw.mp4	0.0	108.18814253807068	
13	93.07028865814209	pulse	1	t		11.0	2.5	/experiments/Knapen_AOT/AOT_stimuli/rescaled_final/0494_fw.mp4	0.0	109.78809094429016	
13	93.58882570266724	fix_post	2		12	11.0	2.5	/experiments/Knapen_AOT/AOT_stimuli/rescaled_final/0494_fw.mp4	0.0	110.30662798881531	0.10002541542053223
14	93.68885111808777	fix_pre	0		119	12.0	2.5	blank	1.0	110.40665340423584	0.9918081760406494
14	94.67263531684875	pulse	0	t		12.0	2.5	blank	1.0	111.39043760299683	
14	94.68065929412842	movie	1		301	12.0	2.5	blank	1.0	111.39846158027649	2.508704423904419
14	96.27278542518616	pulse	1	t		12.0	2.5	blank	1.0	112.99058771133423	
14	97.18936371803284	fix_post	2		12	12.0	2.5	blank	1.0	113.90716600418091	0.10002303123474121
15	97.28938674926758	fix_pre	0		120	13.0	2.5	/experiments/Knapen_AOT/AOT_stimuli/rescaled_final/1004_rv.mp4	0.0	114.00718903541565	1.0085241794586182
15	97.87300229072571	pulse	0	t		13.0	2.5	/experiments/Knapen_AOT/AOT_stimuli/rescaled_final/1004_rv.mp4	0.0	114.59080457687378	
15	98.2979109287262	movie	1		277	13.0	2.5	/experiments/Knapen_AOT/AOT_stimuli/rescaled_final/1004_rv.mp4	0.0	115.01571321487427	2.4919979572296143
15	99.47402930259705	pulse	1	t		13.0	2.5	/experiments/Knapen_AOT/AOT_stimuli/rescaled_final/1004_rv.mp4	0.0	116.19183158874512	
15	100.78990888595581	fix_post	2		12	13.0	2.5	/experiments/Knapen_AOT/AOT_stimuli/rescaled_final/1004_rv.mp4	0.0	117.50771117210388	0.10001111030578613
16	100.8899199962616	fix_pre	0		120	14.0	2.5	/experiments/Knapen_AOT/AOT_stimuli/rescaled_final/0844_fw.mp4	0.0	117.60772228240967	1.0085489749908447
16	101.07356381416321	pulse	0	t		14.0	2.5	/experiments/Knapen_AOT/AOT_stimuli/rescaled_final/0844_fw.mp4	0.0	117.79136610031128	
16	101.89846897125244	movie	1		285	14.0	2.5	/experiments/Knapen_AOT/AOT_stimuli/rescaled_final/0844_fw.mp4	0.0	118.61627125740051	2.49198055267334
16	102.67165493965149	pulse	1	t		14.0	2.5	/experiments/Knapen_AOT/AOT_stimuli/rescaled_final/0844_fw.mp4	0.0	119.38945722579956	
16	104.27387762069702	pulse	1	t		14.0	2.5	/experiments/Knapen_AOT/AOT_stimuli/rescaled_final/0844_fw.mp4	0.0	120.99167990684509	
16	104.39044952392578	fix_post	2		12	14.0	2.5	/experiments/Knapen_AOT/AOT_stimuli/rescaled_final/0844_fw.mp4	0.0	121.10825181007385	0.10003185272216797
17	104.49048137664795	fix_pre	0		120	15.0	2.5	/experiments/Knapen_AOT/AOT_stimuli/rescaled_final/1302_rv.mp4	0.0	121.20828366279602	1.0085229873657227
17	105.49900436401367	movie	1		281	15.0	2.5	/experiments/Knapen_AOT/AOT_stimuli/rescaled_final/1302_rv.mp4	0.0	122.21680665016174	2.491983652114868
17	105.87249851226807	pulse	1	t		15.0	2.5	/experiments/Knapen_AOT/AOT_stimuli/rescaled_final/1302_rv.mp4	0.0	122.59030079841614	
17	107.47231364250183	pulse	1	t		15.0	2.5	/experiments/Knapen_AOT/AOT_stimuli/rescaled_final/1302_rv.mp4	0.0	124.1901159286499	
17	107.99098801612854	fix_post	2		12	15.0	2.5	/experiments/Knapen_AOT/AOT_stimuli/rescaled_final/1302_rv.mp4	0.0	124.70879030227661	0.10005354881286621
18	108.0910415649414	fix_pre	0		119	16.0	2.5	/experiments/Knapen_AOT/AOT_stimuli/rescaled_final/0169_fw.mp4	0.0	124.80884385108948	1.0002264976501465
18	109.07495832443237	pulse	0	t		16.0	2.5	/experiments/Knapen_AOT/AOT_stimuli/rescaled_final/0169_fw.mp4	0.0	125.79276061058044	
18	109.09126806259155	movie	1		285	16.0	2.5	/experiments/Knapen_AOT/AOT_stimuli/rescaled_final/0169_fw.mp4	0.0	125.80907034873962	2.500255823135376
18	110.67372512817383	pulse	1	t		16.0	2.5	/experiments/Knapen_AOT/AOT_stimuli/rescaled_final/0169_fw.mp4	0.0	127.3915274143219	
18	111.59152388572693	fix_post	2		12	16.0	2.5	/experiments/Knapen_AOT/AOT_stimuli/rescaled_final/0169_fw.mp4	0.0	128.309326171875	0.10002732276916504
19	111.6915512084961	fix_pre	0		120	17.0	2.5	/experiments/Knapen_AOT/AOT_stimuli/rescaled_final/1325_rv.mp4	0.0	128.40935349464417	1.008528709411621
19	112.27520203590393	pulse	0	t		17.0	2.5	/experiments/Knapen_AOT/AOT_stimuli/rescaled_final/1325_rv.mp4	0.0	128.993004322052	
19	112.70007991790771	movie	1		279	17.0	2.5	/experiments/Knapen_AOT/AOT_stimuli/rescaled_final/1325_rv.mp4	0.0	129.4178822040558	2.4920506477355957
19	113.87353157997131	pulse	1	t		17.0	2.5	/experiments/Knapen_AOT/AOT_stimuli/rescaled_final/1325_rv.mp4	0.0	130.59133386611938	
19	115.19213056564331	fix_post	2		12	17.0	2.5	/experiments/Knapen_AOT/AOT_stimuli/rescaled_final/1325_rv.mp4	0.0	131.90993285179138	0.10013794898986816
20	115.29226851463318	fix_pre	0		120	18.0	2.5	/experiments/Knapen_AOT/AOT_stimuli/rescaled_final/0931_rv.mp4	0.0	132.01007080078125	1.0083129405975342
20	115.46766352653503	pulse	0	t		18.0	2.5	/experiments/Knapen_AOT/AOT_stimuli/rescaled_final/0931_rv.mp4	0.0	132.1854658126831	
20	116.30058145523071	movie	1		281	18.0	2.5	/experiments/Knapen_AOT/AOT_stimuli/rescaled_final/0931_rv.mp4	0.0	133.01838374137878	2.492033004760742
20	117.06765532493591	pulse	1	t		18.0	2.5	/experiments/Knapen_AOT/AOT_stimuli/rescaled_final/0931_rv.mp4	0.0	133.78545761108398	
20	118.66791319847107	pulse	1	t		18.0	2.5	/experiments/Knapen_AOT/AOT_stimuli/rescaled_final/0931_rv.mp4	0.0	135.38571548461914	
20	118.79261445999146	fix_post	2		12	18.0	2.5	/experiments/Knapen_AOT/AOT_stimuli/rescaled_final/0931_rv.mp4	0.0	135.51041674613953	0.10001659393310547
21	118.89263105392456	fix_pre	0		120	19.0	2.5	/experiments/Knapen_AOT/AOT_stimuli/rescaled_final/1656_fw.mp4	0.0	135.61043334007263	1.0085103511810303
21	119.90114140510559	movie	1		281	19.0	2.5	/experiments/Knapen_AOT/AOT_stimuli/rescaled_final/1656_fw.mp4	0.0	136.61894369125366	2.492075204849243
21	120.26827907562256	pulse	1	t		19.0	2.5	/experiments/Knapen_AOT/AOT_stimuli/rescaled_final/1656_fw.mp4	0.0	136.98608136177063	
21	121.86831617355347	pulse	1	t		19.0	2.5	/experiments/Knapen_AOT/AOT_stimuli/rescaled_final/1656_fw.mp4	0.0	138.58611845970154	
21	122.39321660995483	fix_post	2		12	19.0	2.5	/experiments/Knapen_AOT/AOT_stimuli/rescaled_final/1656_fw.mp4	0.0	139.1110188961029	0.09996676445007324
22	122.49318337440491	fix_pre	0		118	20.0	2.5	blank	1.0	139.21098566055298	0.9835624694824219
22	123.4686062335968	pulse	0	t		20.0	2.5	blank	1.0	140.18640851974487	
22	123.47674584388733	movie	1		301	20.0	2.5	blank	1.0	140.1945481300354	2.508622884750366
22	125.06881952285767	pulse	1	t		20.0	2.5	blank	1.0	141.78662180900574	
22	125.9853687286377	fix_post	2		12	20.0	2.5	blank	1.0	142.70317101478577	0.10000371932983398
23	126.08537244796753	fix_pre	0		120	21.0	2.5	/experiments/Knapen_AOT/AOT_stimuli/rescaled_final/1112_rv.mp4	0.0	142.8031747341156	1.0085217952728271
23	126.66898775100708	pulse	0	t		21.0	2.5	/experiments/Knapen_AOT/AOT_stimuli/rescaled_final/1112_rv.mp4	0.0	143.38679003715515	
23	127.09389424324036	movie	1		277	21.0	2.5	/experiments/Knapen_AOT/AOT_stimuli/rescaled_final/1112_rv.mp4	0.0	143.81169652938843	2.4920010566711426
23	128.26912379264832	pulse	1	t		21.0	2.5	/experiments/Knapen_AOT/AOT_stimuli/rescaled_final/1112_rv.mp4	0.0	144.9869260787964	
23	129.5858952999115	fix_post	2		12	21.0	2.5	/experiments/Knapen_AOT/AOT_stimuli/rescaled_final/1112_rv.mp4	0.0	146.30369758605957	0.10002470016479492
24	129.6859200000763	fix_pre	0		120	22.0	2.5	/experiments/Knapen_AOT/AOT_stimuli/rescaled_final/0765_rv.mp4	0.0	146.40372228622437	1.008497714996338
24	129.8694908618927	pulse	0	t		22.0	2.5	/experiments/Knapen_AOT/AOT_stimuli/rescaled_final/0765_rv.mp4	0.0	146.58729314804077	
24	130.69441771507263	movie	1		275	22.0	2.5	/experiments/Knapen_AOT/AOT_stimuli/rescaled_final/0765_rv.mp4	0.0	147.4122200012207	2.4920639991760254
24	131.46779918670654	pulse	1	t		22.0	2.5	/experiments/Knapen_AOT/AOT_stimuli/rescaled_final/0765_rv.mp4	0.0	148.18560147285461	
24	133.06774020195007	pulse	1	t		22.0	2.5	/experiments/Knapen_AOT/AOT_stimuli/rescaled_final/0765_rv.mp4	0.0	149.78554248809814	
24	133.18648171424866	fix_post	2		12	22.0	2.5	/experiments/Knapen_AOT/AOT_stimuli/rescaled_final/0765_rv.mp4	0.0	149.90428400039673	0.09997677803039551
25	133.28645849227905	fix_pre	0		120	23.0	2.5	/experiments/Knapen_AOT/AOT_stimuli/rescaled_final/1949_fw.mp4	0.0	150.00426077842712	1.0085060596466064
25	134.29496455192566	movie	1		279	23.0	2.5	/experiments/Knapen_AOT/AOT_stimuli/rescaled_final/1949_fw.mp4	0.0	151.01276683807373	2.492011547088623
25	134.6685631275177	pulse	1	t		23.0	2.5	/experiments/Knapen_AOT/AOT_stimuli/rescaled_final/1949_fw.mp4	0.0	151.38636541366577	
25	136.26861333847046	pulse	1	t		23.0	2.5	/experiments/Knapen_AOT/AOT_stimuli/rescaled_final/1949_fw.mp4	0.0	152.98641562461853	
25	136.78697609901428	fix_post	2		12	23.0	2.5	/experiments/Knapen_AOT/AOT_stimuli/rescaled_final/1949_fw.mp4	0.0	153.50477838516235	0.1000356674194336
26	136.88701176643372	fix_pre	0		119	24.0	2.5	/experiments/Knapen_AOT/AOT_stimuli/rescaled_final/0318_fw.mp4	0.0	153.6048140525818	1.000171184539795
26	137.87108850479126	pulse	0	t		24.0	2.5	/experiments/Knapen_AOT/AOT_stimuli/rescaled_final/0318_fw.mp4	0.0	154.58889079093933	
26	137.8871829509735	movie	1		288	24.0	2.5	/experiments/Knapen_AOT/AOT_stimuli/rescaled_final/0318_fw.mp4	0.0	154.60498523712158	2.5003726482391357
26	139.46955037117004	pulse	1	t		24.0	2.5	/experiments/Knapen_AOT/AOT_stimuli/rescaled_final/0318_fw.mp4	0.0	156.18735265731812	
26	140.38755559921265	fix_post	2		12	24.0	2.5	/experiments/Knapen_AOT/AOT_stimuli/rescaled_final/0318_fw.mp4	0.0	157.10535788536072	0.10000133514404297
27	140.4875569343567	fix_pre	0		120	25.0	2.5	/experiments/Knapen_AOT/AOT_stimuli/rescaled_final/1749_fw.mp4	0.0	157.20535922050476	1.0084781646728516
27	141.07121515274048	pulse	0	t		25.0	2.5	/experiments/Knapen_AOT/AOT_stimuli/rescaled_final/1749_fw.mp4	0.0	157.78901743888855	
27	141.49603509902954	movie	1		283	25.0	2.5	/experiments/Knapen_AOT/AOT_stimuli/rescaled_final/1749_fw.mp4	0.0	158.2138373851776	2.4920520782470703
27	142.6693787574768	pulse	1	t		25.0	2.5	/experiments/Knapen_AOT/AOT_stimuli/rescaled_final/1749_fw.mp4	0.0	159.38718104362488	
27	143.9880871772766	fix_post	2		12	25.0	2.5	/experiments/Knapen_AOT/AOT_stimuli/rescaled_final/1749_fw.mp4	0.0	160.70588946342468	0.10004591941833496
28	144.08813309669495	fix_pre	0		120	26.0	2.5	/experiments/Knapen_AOT/AOT_stimuli/rescaled_final/0188_rv.mp4	0.0	160.80593538284302	1.0084567070007324
28	144.27162885665894	pulse	0	t		26.0	2.5	/experiments/Knapen_AOT/AOT_stimuli/rescaled_final/0188_rv.mp4	0.0	160.989431142807	
28	145.09658980369568	movie	1		286	26.0	2.5	/experiments/Knapen_AOT/AOT_stimuli/rescaled_final/0188_rv.mp4	0.0	161.81439208984375	2.4920270442962646
28	145.87101650238037	pulse	1	t		26.0	2.5	/experiments/Knapen_AOT/AOT_stimuli/rescaled_final/0188_rv.mp4	0.0	162.58881878852844	
28	147.47015810012817	pulse	1	t		26.0	2.5	/experiments/Knapen_AOT/AOT_stimuli/rescaled_final/0188_rv.mp4	0.0	164.18796038627625	
28	147.58861684799194	fix_post	2		12	26.0	2.5	/experiments/Knapen_AOT/AOT_stimuli/rescaled_final/0188_rv.mp4	0.0	164.30641913414001	0.10001611709594727
29	147.6886329650879	fix_pre	0		120	27.0	2.5	/experiments/Knapen_AOT/AOT_stimuli/rescaled_final/1626_rv.mp4	0.0	164.40643525123596	1.0085060596466064
29	148.6971390247345	movie	1		283	27.0	2.5	/experiments/Knapen_AOT/AOT_stimuli/rescaled_final/1626_rv.mp4	0.0	165.41494131088257	2.492020845413208
29	149.07077765464783	pulse	1	t		27.0	2.5	/experiments/Knapen_AOT/AOT_stimuli/rescaled_final/1626_rv.mp4	0.0	165.7885799407959	
29	150.6705732345581	pulse	1	t		27.0	2.5	/experiments/Knapen_AOT/AOT_stimuli/rescaled_final/1626_rv.mp4	0.0	167.38837552070618	
29	151.1891598701477	fix_post	2		12	27.0	2.5	/experiments/Knapen_AOT/AOT_stimuli/rescaled_final/1626_rv.mp4	0.0	167.90696215629578	0.09999728202819824
30	151.2891571521759	fix_pre	0		119	28.0	2.5	blank	1.0	168.00695943832397	0.9918258190155029
30	152.27295660972595	pulse	0	t		28.0	2.5	blank	1.0	168.99075889587402	
30	152.2809829711914	movie	1		301	28.0	2.5	blank	1.0	168.99878525733948	2.5087180137634277
30	153.87309861183167	pulse	1	t		28.0	2.5	blank	1.0	170.59090089797974	
30	154.78970098495483	fix_post	2		12	28.0	2.5	blank	1.0	171.5075032711029	0.10007286071777344
31	154.8897738456726	fix_pre	0		120	29.0	2.5	/experiments/Knapen_AOT/AOT_stimuli/rescaled_final/1965_fw.mp4	0.0	171.60757613182068	1.0084424018859863
31	155.47339296340942	pulse	0	t		29.0	2.5	/experiments/Knapen_AOT/AOT_stimuli/rescaled_final/1965_fw.mp4	0.0	172.1911952495575	
31	155.8982162475586	movie	1		283	29.0	2.5	/experiments/Knapen_AOT/AOT_stimuli/rescaled_final/1965_fw.mp4	0.0	172.61601853370667	2.4920120239257812
31	157.07175612449646	pulse	1	t		29.0	2.5	/experiments/Knapen_AOT/AOT_stimuli/rescaled_final/1965_fw.mp4	0.0	173.78955841064453	
31	158.39022827148438	fix_post	2		12	29.0	2.5	/experiments/Knapen_AOT/AOT_stimuli/rescaled_final/1965_fw.mp4	0.0	175.10803055763245	0.10003876686096191
32	158.49026703834534	fix_pre	0		120	30.0	2.5	/experiments/Knapen_AOT/AOT_stimuli/rescaled_final/1893_fw.mp4	0.0	175.2080693244934	1.0084946155548096
32	158.67385482788086	pulse	0	t		30.0	2.5	/experiments/Knapen_AOT/AOT_stimuli/rescaled_final/1893_fw.mp4	0.0	175.39165711402893	
32	159.49876165390015	movie	1		286	30.0	2.5	/experiments/Knapen_AOT/AOT_stimuli/rescaled_final/1893_fw.mp4	0.0	176.21656394004822	2.492013454437256
32	160.2723331451416	pulse	1	t		30.0	2.5	/experiments/Knapen_AOT/AOT_stimuli/rescaled_final/1893_fw.mp4	0.0	176.99013543128967	
32	161.87230944633484	pulse	1	t		30.0	2.5	/experiments/Knapen_AOT/AOT_stimuli/rescaled_final/1893_fw.mp4	0.0	178.5901117324829	
32	161.9907751083374	fix_post	2		12	30.0	2.5	/experiments/Knapen_AOT/AOT_stimuli/rescaled_final/1893_fw.mp4	0.0	178.70857739448547	0.1000523567199707
33	162.09082746505737	fix_pre	0		120	31.0	2.5	/experiments/Knapen_AOT/AOT_stimuli/rescaled_final/1158_fw.mp4	0.0	178.80862975120544	1.0084431171417236
33	163.0992705821991	movie	1		288	31.0	2.5	/experiments/Knapen_AOT/AOT_stimuli/rescaled_final/1158_fw.mp4	0.0	179.81707286834717	2.492286443710327
33	163.47487425804138	pulse	1	t		31.0	2.5	/experiments/Knapen_AOT/AOT_stimuli/rescaled_final/1158_fw.mp4	0.0	180.19267654418945	
33	165.0739848613739	pulse	1	t		31.0	2.5	/experiments/Knapen_AOT/AOT_stimuli/rescaled_final/1158_fw.mp4	0.0	181.79178714752197	
33	165.59155702590942	fix_post	2		12	31.0	2.5	/experiments/Knapen_AOT/AOT_stimuli/rescaled_final/1158_fw.mp4	0.0	182.3093593120575	0.09977865219116211
34	165.6913356781006	fix_pre	0		119	32.0	2.5	/experiments/Knapen_AOT/AOT_stimuli/rescaled_final/1292_fw.mp4	0.0	182.40913796424866	1.0001599788665771
34	166.67514061927795	pulse	0	t		32.0	2.5	/experiments/Knapen_AOT/AOT_stimuli/rescaled_final/1292_fw.mp4	0.0	183.39294290542603	
34	166.69149565696716	movie	1		284	32.0	2.5	/experiments/Knapen_AOT/AOT_stimuli/rescaled_final/1292_fw.mp4	0.0	183.40929794311523	2.5003862380981445
34	168.27383542060852	pulse	1	t		32.0	2.5	/experiments/Knapen_AOT/AOT_stimuli/rescaled_final/1292_fw.mp4	0.0	184.9916377067566	
34	169.1918818950653	fix_post	2		12	32.0	2.5	/experiments/Knapen_AOT/AOT_stimuli/rescaled_final/1292_fw.mp4	0.0	185.90968418121338	0.09999871253967285
35	169.29188060760498	fix_pre	0		120	33.0	2.5	/experiments/Knapen_AOT/AOT_stimuli/rescaled_final/0571_rv.mp4	0.0	186.00968289375305	1.0085279941558838
35	169.86825442314148	pulse	0	t		33.0	2.5	/experiments/Knapen_AOT/AOT_stimuli/rescaled_final/0571_rv.mp4	0.0	186.58605670928955	
35	170.30040860176086	movie	1		270	33.0	2.5	/experiments/Knapen_AOT/AOT_stimuli/rescaled_final/0571_rv.mp4	0.0	187.01821088790894	2.492098569869995
35	171.47594046592712	pulse	1	t		33.0	2.5	/experiments/Knapen_AOT/AOT_stimuli/rescaled_final/0571_rv.mp4	0.0	188.1937427520752	
35	172.79250717163086	fix_post	2		12	33.0	2.5	/experiments/Knapen_AOT/AOT_stimuli/rescaled_final/0571_rv.mp4	0.0	189.51030945777893	0.09991574287414551
36	172.892422914505	fix_pre	0		120	34.0	2.5	blank	1.0	189.61022520065308	1.0001473426818848
36	173.06807374954224	pulse	0	t		34.0	2.5	blank	1.0	189.7858760356903	
36	173.8925702571869	movie	1		300	34.0	2.5	blank	1.0	190.61037254333496	2.5004100799560547
36	174.66796469688416	pulse	1	t		34.0	2.5	blank	1.0	191.38576698303223	
36	176.26818299293518	pulse	1	t		34.0	2.5	blank	1.0	192.98598527908325	
36	176.39298033714294	fix_post	2		12	34.0	2.5	blank	1.0	193.11078262329102	0.09999871253967285
37	176.49297904968262	fix_pre	0		120	35.0	2.5	/experiments/Knapen_AOT/AOT_stimuli/rescaled_final/2046_fw.mp4	0.0	193.2107813358307	1.008474588394165
37	177.50145363807678	movie	1		271	35.0	2.5	/experiments/Knapen_AOT/AOT_stimuli/rescaled_final/2046_fw.mp4	0.0	194.21925592422485	2.49202561378479
37	177.86687707901	pulse	1	t		35.0	2.5	/experiments/Knapen_AOT/AOT_stimuli/rescaled_final/2046_fw.mp4	0.0	194.58467936515808	
37	179.46857357025146	pulse	1	t		35.0	2.5	/experiments/Knapen_AOT/AOT_stimuli/rescaled_final/2046_fw.mp4	0.0	196.18637585639954	
37	179.99347925186157	fix_post	2		12	35.0	2.5	/experiments/Knapen_AOT/AOT_stimuli/rescaled_final/2046_fw.mp4	0.0	196.71128153800964	0.10004901885986328
38	180.09352827072144	fix_pre	0		118	36.0	2.5	/experiments/Knapen_AOT/AOT_stimuli/rescaled_final/1091_rv.mp4	0.0	196.8113305568695	0.9917714595794678
38	181.06885385513306	pulse	0	t		36.0	2.5	/experiments/Knapen_AOT/AOT_stimuli/rescaled_final/1091_rv.mp4	0.0	197.78665614128113	
38	181.0852997303009	movie	1		278	36.0	2.5	/experiments/Knapen_AOT/AOT_stimuli/rescaled_final/1091_rv.mp4	0.0	197.80310201644897	2.5004336833953857
38	182.66752099990845	pulse	1	t		36.0	2.5	/experiments/Knapen_AOT/AOT_stimuli/rescaled_final/1091_rv.mp4	0.0	199.38532328605652	
38	183.5857334136963	fix_post	2		12	36.0	2.5	/experiments/Knapen_AOT/AOT_stimuli/rescaled_final/1091_rv.mp4	0.0	200.30353569984436	0.09997677803039551
39	183.68571019172668	fix_pre	0		120	37.0	2.5	/experiments/Knapen_AOT/AOT_stimuli/rescaled_final/1669_fw.mp4	0.0	200.40351247787476	1.008512258529663
39	184.26938772201538	pulse	0	t		37.0	2.5	/experiments/Knapen_AOT/AOT_stimuli/rescaled_final/1669_fw.mp4	0.0	200.98719000816345	
39	184.69422245025635	movie	1		291	37.0	2.5	/experiments/Knapen_AOT/AOT_stimuli/rescaled_final/1669_fw.mp4	0.0	201.41202473640442	2.4919984340667725
39	185.86792421340942	pulse	1	t		37.0	2.5	/experiments/Knapen_AOT/AOT_stimuli/rescaled_final/1669_fw.mp4	0.0	202.5857264995575	
39	187.18622088432312	fix_post	2		12	37.0	2.5	/experiments/Knapen_AOT/AOT_stimuli/rescaled_final/1669_fw.mp4	0.0	203.9040231704712	0.10001611709594727
40	187.28623700141907	fix_pre	0		120	38.0	2.5	/experiments/Knapen_AOT/AOT_stimuli/rescaled_final/1337_fw.mp4	0.0	204.00403928756714	1.0085484981536865
40	187.46979928016663	pulse	0	t		38.0	2.5	/experiments/Knapen_AOT/AOT_stimuli/rescaled_final/1337_fw.mp4	0.0	204.1876015663147	
40	188.29478549957275	movie	1		265	38.0	2.5	/experiments/Knapen_AOT/AOT_stimuli/rescaled_final/1337_fw.mp4	0.0	205.01258778572083	2.4919819831848145
40	189.07131242752075	pulse	1	t		38.0	2.5	/experiments/Knapen_AOT/AOT_stimuli/rescaled_final/1337_fw.mp4	0.0	205.78911471366882	
40	190.6684262752533	pulse	1	t		38.0	2.5	/experiments/Knapen_AOT/AOT_stimuli/rescaled_final/1337_fw.mp4	0.0	207.38622856140137	
40	190.78676748275757	fix_post	2		12	38.0	2.5	/experiments/Knapen_AOT/AOT_stimuli/rescaled_final/1337_fw.mp4	0.0	207.50456976890564	0.10003948211669922
41	190.88680696487427	fix_pre	0		120	39.0	2.5	/experiments/Knapen_AOT/AOT_stimuli/rescaled_final/0537_rv.mp4	0.0	207.60460925102234	1.0084962844848633
41	191.89530324935913	movie	1		274	39.0	2.5	/experiments/Knapen_AOT/AOT_stimuli/rescaled_final/0537_rv.mp4	0.0	208.6131055355072	2.492000102996826
41	192.26902890205383	pulse	1	t		39.0	2.5	/experiments/Knapen_AOT/AOT_stimuli/rescaled_final/0537_rv.mp4	0.0	208.9868311882019	
41	193.86881041526794	pulse	1	t		39.0	2.5	/experiments/Knapen_AOT/AOT_stimuli/rescaled_final/0537_rv.mp4	0.0	210.58661270141602	
41	194.38730335235596	fix_post	2		12	39.0	2.5	/experiments/Knapen_AOT/AOT_stimuli/rescaled_final/0537_rv.mp4	0.0	211.10510563850403	0.10002684593200684
42	194.48733019828796	fix_pre	0		119	40.0	2.5	/experiments/Knapen_AOT/AOT_stimuli/rescaled_final/0860_rv.mp4	0.0	211.20513248443604	1.0001451969146729
42	195.47099542617798	pulse	0	t		40.0	2.5	/experiments/Knapen_AOT/AOT_stimuli/rescaled_final/0860_rv.mp4	0.0	212.18879771232605	
42	195.48747539520264	movie	1		285	40.0	2.5	/experiments/Knapen_AOT/AOT_stimuli/rescaled_final/0860_rv.mp4	0.0	212.2052776813507	2.5003674030303955
42	197.06964015960693	pulse	1	t		40.0	2.5	/experiments/Knapen_AOT/AOT_stimuli/rescaled_final/0860_rv.mp4	0.0	213.787442445755	
42	197.98784279823303	fix_post	2		12	40.0	2.5	/experiments/Knapen_AOT/AOT_stimuli/rescaled_final/0860_rv.mp4	0.0	214.7056450843811	0.10003376007080078
43	198.08787655830383	fix_pre	0		120	41.0	2.5	blank	1.0	214.8056788444519	1.000220775604248
43	198.67152333259583	pulse	0	t		41.0	2.5	blank	1.0	215.3893256187439	
43	199.08809733390808	movie	1		300	41.0	2.5	blank	1.0	215.80589962005615	2.500293731689453
43	200.2717249393463	pulse	1	t		41.0	2.5	blank	1.0	216.98952722549438	
43	201.58839106559753	fix_post	2		12	41.0	2.5	blank	1.0	218.3061933517456	0.10001969337463379
44	201.68841075897217	fix_pre	0		120	42.0	2.5	/experiments/Knapen_AOT/AOT_stimuli/rescaled_final/1656_rv.mp4	0.0	218.40621304512024	1.0085046291351318
44	201.87204217910767	pulse	0	t		42.0	2.5	/experiments/Knapen_AOT/AOT_stimuli/rescaled_final/1656_rv.mp4	0.0	218.58984446525574	
44	202.6969153881073	movie	1		275	42.0	2.5	/experiments/Knapen_AOT/AOT_stimuli/rescaled_final/1656_rv.mp4	0.0	219.41471767425537	2.492006778717041
44	203.47048473358154	pulse	1	t		42.0	2.5	/experiments/Knapen_AOT/AOT_stimuli/rescaled_final/1656_rv.mp4	0.0	220.18828701972961	
44	205.0706343650818	pulse	1	t		42.0	2.5	/experiments/Knapen_AOT/AOT_stimuli/rescaled_final/1656_rv.mp4	0.0	221.78843665122986	
44	205.18892216682434	fix_post	2		12	42.0	2.5	/experiments/Knapen_AOT/AOT_stimuli/rescaled_final/1656_rv.mp4	0.0	221.9067244529724	0.10002422332763672
45	205.28894639015198	fix_pre	0		120	43.0	2.5	/experiments/Knapen_AOT/AOT_stimuli/rescaled_final/2131_fw.mp4	0.0	222.00674867630005	1.0085232257843018
45	206.29746961593628	movie	1		283	43.0	2.5	/experiments/Knapen_AOT/AOT_stimuli/rescaled_final/2131_fw.mp4	0.0	223.01527190208435	2.491994857788086
45	206.6711618900299	pulse	1	t		43.0	2.5	/experiments/Knapen_AOT/AOT_stimuli/rescaled_final/2131_fw.mp4	0.0	223.38896417617798	
45	208.27112913131714	pulse	1	t		43.0	2.5	/experiments/Knapen_AOT/AOT_stimuli/rescaled_final/2131_fw.mp4	0.0	224.9889314174652	
45	208.78946447372437	fix_post	2		12	43.0	2.5	/experiments/Knapen_AOT/AOT_stimuli/rescaled_final/2131_fw.mp4	0.0	225.50726675987244	0.10007405281066895
46	208.88953852653503	fix_pre	0		119	44.0	2.5	/experiments/Knapen_AOT/AOT_stimuli/rescaled_final/0993_fw.mp4	0.0	225.6073408126831	1.0001354217529297
46	209.87333130836487	pulse	0	t		44.0	2.5	/experiments/Knapen_AOT/AOT_stimuli/rescaled_final/0993_fw.mp4	0.0	226.59113359451294	
46	209.88967394828796	movie	1		280	44.0	2.5	/experiments/Knapen_AOT/AOT_stimuli/rescaled_final/0993_fw.mp4	0.0	226.60747623443604	2.5003554821014404
46	211.4731798171997	pulse	1	t		44.0	2.5	/experiments/Knapen_AOT/AOT_stimuli/rescaled_final/0993_fw.mp4	0.0	228.19098210334778	
46	212.3900294303894	fix_post	2		12	44.0	2.5	/experiments/Knapen_AOT/AOT_stimuli/rescaled_final/0993_fw.mp4	0.0	229.10783171653748	0.10007858276367188
47	212.49010801315308	fix_pre	0		120	45.0	2.5	/experiments/Knapen_AOT/AOT_stimuli/rescaled_final/0849_fw.mp4	0.0	229.20791029930115	1.0084164142608643
47	213.07369422912598	pulse	0	t		45.0	2.5	/experiments/Knapen_AOT/AOT_stimuli/rescaled_final/0849_fw.mp4	0.0	229.79149651527405	
47	213.49852442741394	movie	1		286	45.0	2.5	/experiments/Knapen_AOT/AOT_stimuli/rescaled_final/0849_fw.mp4	0.0	230.216326713562	2.4922027587890625
47	214.67204761505127	pulse	1	t		45.0	2.5	/experiments/Knapen_AOT/AOT_stimuli/rescaled_final/0849_fw.mp4	0.0	231.38984990119934	
47	215.990727186203	fix_post	2		12	45.0	2.5	/experiments/Knapen_AOT/AOT_stimuli/rescaled_final/0849_fw.mp4	0.0	232.70852947235107	0.09991121292114258
48	216.09063839912415	fix_pre	0		120	46.0	2.5	/experiments/Knapen_AOT/AOT_stimuli/rescaled_final/0730_fw.mp4	0.0	232.80844068527222	1.008434534072876
48	216.27421689033508	pulse	0	t		46.0	2.5	/experiments/Knapen_AOT/AOT_stimuli/rescaled_final/0730_fw.mp4	0.0	232.99201917648315	
48	217.09907293319702	movie	1		262	46.0	2.5	/experiments/Knapen_AOT/AOT_stimuli/rescaled_final/0730_fw.mp4	0.0	233.8168752193451	2.500373125076294
48	217.87212014198303	pulse	1	t		46.0	2.5	/experiments/Knapen_AOT/AOT_stimuli/rescaled_final/0730_fw.mp4	0.0	234.5899224281311	
48	219.47262692451477	pulse	1	t		46.0	2.5	/experiments/Knapen_AOT/AOT_stimuli/rescaled_final/0730_fw.mp4	0.0	236.19042921066284	
48	219.59944605827332	fix_post	2		11	46.0	2.5	/experiments/Knapen_AOT/AOT_stimuli/rescaled_final/0730_fw.mp4	0.0	236.3172483444214	0.09168124198913574
49	219.69112730026245	fix_pre	0		120	47.0	2.5	blank	1.0	236.40892958641052	1.000138759613037
49	220.6912660598755	movie	1		300	47.0	2.5	blank	1.0	237.40906834602356	2.5003533363342285
49	221.0674343109131	pulse	1	t		47.0	2.5	blank	1.0	237.78523659706116	
49	222.66742038726807	pulse	1	t		47.0	2.5	blank	1.0	239.38522267341614	
49	223.19161939620972	fix_post	2		12	47.0	2.5	blank	1.0	239.9094216823578	0.10008811950683594
50	223.29170751571655	fix_pre	0		118	48.0	2.5	/experiments/Knapen_AOT/AOT_stimuli/rescaled_final/0305_rv.mp4	0.0	240.00950980186462	0.9917457103729248
50	224.26742506027222	pulse	0	t		48.0	2.5	/experiments/Knapen_AOT/AOT_stimuli/rescaled_final/0305_rv.mp4	0.0	240.9852273464203	
50	224.28345322608948	movie	1		278	48.0	2.5	/experiments/Knapen_AOT/AOT_stimuli/rescaled_final/0305_rv.mp4	0.0	241.00125551223755	2.5004336833953857
50	225.86785793304443	pulse	1	t		48.0	2.5	/experiments/Knapen_AOT/AOT_stimuli/rescaled_final/0305_rv.mp4	0.0	242.5856602191925	
50	226.78388690948486	fix_post	2		12	48.0	2.5	/experiments/Knapen_AOT/AOT_stimuli/rescaled_final/0305_rv.mp4	0.0	243.50168919563293	0.09997415542602539
51	226.8838610649109	fix_pre	0		120	49.0	2.5	/experiments/Knapen_AOT/AOT_stimuli/rescaled_final/0399_rv.mp4	0.0	243.60166335105896	1.0085349082946777
51	227.46764159202576	pulse	0	t		49.0	2.5	/experiments/Knapen_AOT/AOT_stimuli/rescaled_final/0399_rv.mp4	0.0	244.18544387817383	
51	227.89239597320557	movie	1		282	49.0	2.5	/experiments/Knapen_AOT/AOT_stimuli/rescaled_final/0399_rv.mp4	0.0	244.61019825935364	2.491999864578247
51	229.06776666641235	pulse	1	t		49.0	2.5	/experiments/Knapen_AOT/AOT_stimuli/rescaled_final/0399_rv.mp4	0.0	245.78556895256042	
51	230.3843958377838	fix_post	2		12	49.0	2.5	/experiments/Knapen_AOT/AOT_stimuli/rescaled_final/0399_rv.mp4	0.0	247.10219812393188	0.10008573532104492
52	230.48448157310486	fix_pre	0		120	50.0	2.5	/experiments/Knapen_AOT/AOT_stimuli/rescaled_final/1783_rv.mp4	0.0	247.20228385925293	1.0084302425384521
52	230.6681032180786	pulse	0	t		50.0	2.5	/experiments/Knapen_AOT/AOT_stimuli/rescaled_final/1783_rv.mp4	0.0	247.38590550422668	
52	231.4929118156433	movie	1		277	50.0	2.5	/experiments/Knapen_AOT/AOT_stimuli/rescaled_final/1783_rv.mp4	0.0	248.21071410179138	2.4920389652252197
52	232.26822423934937	pulse	1	t		50.0	2.5	/experiments/Knapen_AOT/AOT_stimuli/rescaled_final/1783_rv.mp4	0.0	248.98602652549744	
52	233.86853742599487	pulse	1	t		50.0	2.5	/experiments/Knapen_AOT/AOT_stimuli/rescaled_final/1783_rv.mp4	0.0	250.58633971214294	
52	233.98495078086853	fix_post	2		12	50.0	2.5	/experiments/Knapen_AOT/AOT_stimuli/rescaled_final/1783_rv.mp4	0.0	250.7027530670166	0.10004997253417969
53	234.0850007534027	fix_pre	0		120	51.0	2.5	/experiments/Knapen_AOT/AOT_stimuli/rescaled_final/0040_fw.mp4	0.0	250.80280303955078	1.00850510597229
53	235.093505859375	movie	1		278	51.0	2.5	/experiments/Knapen_AOT/AOT_stimuli/rescaled_final/0040_fw.mp4	0.0	251.81130814552307	2.491973400115967
53	235.4688000679016	pulse	1	t		51.0	2.5	/experiments/Knapen_AOT/AOT_stimuli/rescaled_final/0040_fw.mp4	0.0	252.18660235404968	
53	237.06905102729797	pulse	1	t		51.0	2.5	/experiments/Knapen_AOT/AOT_stimuli/rescaled_final/0040_fw.mp4	0.0	253.78685331344604	
53	237.58547925949097	fix_post	2		12	51.0	2.5	/experiments/Knapen_AOT/AOT_stimuli/rescaled_final/0040_fw.mp4	0.0	254.30328154563904	0.10001254081726074
54	237.68549180030823	fix_pre	0		119	52.0	2.5	/experiments/Knapen_AOT/AOT_stimuli/rescaled_final/0329_rv.mp4	0.0	254.4032940864563	1.0001671314239502
54	238.66922235488892	pulse	0	t		52.0	2.5	/experiments/Knapen_AOT/AOT_stimuli/rescaled_final/0329_rv.mp4	0.0	255.387024641037	
54	238.68565893173218	movie	1		279	52.0	2.5	/experiments/Knapen_AOT/AOT_stimuli/rescaled_final/0329_rv.mp4	0.0	255.40346121788025	2.500357151031494
54	240.26791095733643	pulse	1	t		52.0	2.5	/experiments/Knapen_AOT/AOT_stimuli/rescaled_final/0329_rv.mp4	0.0	256.9857132434845	
54	241.18601608276367	fix_post	2		12	52.0	2.5	/experiments/Knapen_AOT/AOT_stimuli/rescaled_final/0329_rv.mp4	0.0	257.90381836891174	0.10004043579101562
55	241.2860565185547	fix_pre	0		120	53.0	2.5	/experiments/Knapen_AOT/AOT_stimuli/rescaled_final/0551_fw.mp4	0.0	258.00385880470276	1.0084831714630127
55	241.86966228485107	pulse	0	t		53.0	2.5	/experiments/Knapen_AOT/AOT_stimuli/rescaled_final/0551_fw.mp4	0.0	258.58746457099915	
55	242.2945396900177	movie	1		270	53.0	2.5	/experiments/Knapen_AOT/AOT_stimuli/rescaled_final/0551_fw.mp4	0.0	259.01234197616577	2.492048501968384
55	243.4685001373291	pulse	1	t		53.0	2.5	/experiments/Knapen_AOT/AOT_stimuli/rescaled_final/0551_fw.mp4	0.0	260.1863024234772	
55	244.78658819198608	fix_post	2		12	53.0	2.5	/experiments/Knapen_AOT/AOT_stimuli/rescaled_final/0551_fw.mp4	0.0	261.50439047813416	0.09999227523803711
56	244.88658046722412	fix_pre	0		120	54.0	2.5	/experiments/Knapen_AOT/AOT_stimuli/rescaled_final/1095_fw.mp4	0.0	261.6043827533722	1.0084691047668457
56	245.07017874717712	pulse	0	t		54.0	2.5	/experiments/Knapen_AOT/AOT_stimuli/rescaled_final/1095_fw.mp4	0.0	261.7879810333252	
56	245.89504957199097	movie	1		274	54.0	2.5	/experiments/Knapen_AOT/AOT_stimuli/rescaled_final/1095_fw.mp4	0.0	262.61285185813904	2.4920825958251953
56	246.66815090179443	pulse	1	t		54.0	2.5	/experiments/Knapen_AOT/AOT_stimuli/rescaled_final/1095_fw.mp4	0.0	263.3859531879425	
56	248.26859664916992	pulse	1	t		54.0	2.5	/experiments/Knapen_AOT/AOT_stimuli/rescaled_final/1095_fw.mp4	0.0	264.986398935318	
56	248.38713216781616	fix_post	2		12	54.0	2.5	/experiments/Knapen_AOT/AOT_stimuli/rescaled_final/1095_fw.mp4	0.0	265.10493445396423	0.10001301765441895
57	248.48714518547058	fix_pre	0		120	55.0	2.5	blank	1.0	265.20494747161865	1.0001237392425537
57	249.48726892471313	movie	1		300	55.0	2.5	blank	1.0	266.2050712108612	2.5004079341888428
57	249.87090587615967	pulse	1	t		55.0	2.5	blank	1.0	266.58870816230774	
57	251.4712290763855	pulse	1	t		55.0	2.5	blank	1.0	268.18903136253357	
57	251.98767685890198	fix_post	2		12	55.0	2.5	blank	1.0	268.70547914505005	0.1000206470489502
58	252.08769750595093	fix_pre	0		119	56.0	2.5	/experiments/Knapen_AOT/AOT_stimuli/rescaled_final/1292_fw.mp4	0.0	268.805499792099	1.0001471042633057
58	253.07146883010864	pulse	0	t		56.0	2.5	/experiments/Knapen_AOT/AOT_stimuli/rescaled_final/1292_fw.mp4	0.0	269.7892711162567	
58	253.08784461021423	movie	1		287	56.0	2.5	/experiments/Knapen_AOT/AOT_stimuli/rescaled_final/1292_fw.mp4	0.0	269.8056468963623	2.5003411769866943
58	254.67065334320068	pulse	1	t		56.0	2.5	/experiments/Knapen_AOT/AOT_stimuli/rescaled_final/1292_fw.mp4	0.0	271.38845562934875	
58	255.58818578720093	fix_post	2		12	56.0	2.5	/experiments/Knapen_AOT/AOT_stimuli/rescaled_final/1292_fw.mp4	0.0	272.305988073349	0.10014867782592773
59	255.68833446502686	fix_pre	0		120	57.0	2.5	/experiments/Knapen_AOT/AOT_stimuli/rescaled_final/0753_fw.mp4	0.0	272.4061367511749	1.0083951950073242
59	256.27181458473206	pulse	0	t		57.0	2.5	/experiments/Knapen_AOT/AOT_stimuli/rescaled_final/0753_fw.mp4	0.0	272.9896168708801	
59	256.6967296600342	movie	1		269	57.0	2.5	/experiments/Knapen_AOT/AOT_stimuli/rescaled_final/0753_fw.mp4	0.0	273.41453194618225	2.491994619369507
59	257.87005591392517	pulse	1	t		57.0	2.5	/experiments/Knapen_AOT/AOT_stimuli/rescaled_final/0753_fw.mp4	0.0	274.58785820007324	
59	259.1887242794037	fix_post	2		12	57.0	2.5	/experiments/Knapen_AOT/AOT_stimuli/rescaled_final/0753_fw.mp4	0.0	275.90652656555176	0.10001444816589355
60	259.2887387275696	fix_pre	0		120	58.0	2.5	/experiments/Knapen_AOT/AOT_stimuli/rescaled_final/1418_fw.mp4	0.0	276.00654101371765	1.0086066722869873
60	259.47230315208435	pulse	0	t		58.0	2.5	/experiments/Knapen_AOT/AOT_stimuli/rescaled_final/1418_fw.mp4	0.0	276.1901054382324	
60	260.29734539985657	movie	1		281	58.0	2.5	/experiments/Knapen_AOT/AOT_stimuli/rescaled_final/1418_fw.mp4	0.0	277.01514768600464	2.4919064044952393
60	261.0728635787964	pulse	1	t		58.0	2.5	/experiments/Knapen_AOT/AOT_stimuli/rescaled_final/1418_fw.mp4	0.0	277.79066586494446	
60	262.670761346817	pulse	1	t		58.0	2.5	/experiments/Knapen_AOT/AOT_stimuli/rescaled_final/1418_fw.mp4	0.0	279.3885636329651	
60	262.7892518043518	fix_post	2		12	58.0	2.5	/experiments/Knapen_AOT/AOT_stimuli/rescaled_final/1418_fw.mp4	0.0	279.5070540904999	0.10005593299865723
61	262.88930773735046	fix_pre	0		120	59.0	2.5	/experiments/Knapen_AOT/AOT_stimuli/rescaled_final/0765_rv.mp4	0.0	279.60711002349854	1.008481502532959
61	263.8977892398834	movie	1		286	59.0	2.5	/experiments/Knapen_AOT/AOT_stimuli/rescaled_final/0765_rv.mp4	0.0	280.6155915260315	2.4920413494110107
61	264.27169275283813	pulse	1	t		59.0	2.5	/experiments/Knapen_AOT/AOT_stimuli/rescaled_final/0765_rv.mp4	0.0	280.9894950389862	
61	265.871057510376	pulse	1	t		59.0	2.5	/experiments/Knapen_AOT/AOT_stimuli/rescaled_final/0765_rv.mp4	0.0	282.58885979652405	
61	266.38983058929443	fix_post	2		12	59.0	2.5	/experiments/Knapen_AOT/AOT_stimuli/rescaled_final/0765_rv.mp4	0.0	283.1076328754425	0.09999966621398926
62	266.4898302555084	fix_pre	0		119	60.0	2.5	/experiments/Knapen_AOT/AOT_stimuli/rescaled_final/1643_fw.mp4	0.0	283.2076325416565	1.000133752822876
62	267.47354316711426	pulse	0	t		60.0	2.5	/experiments/Knapen_AOT/AOT_stimuli/rescaled_final/1643_fw.mp4	0.0	284.19134545326233	
62	267.4899640083313	movie	1		269	60.0	2.5	/experiments/Knapen_AOT/AOT_stimuli/rescaled_final/1643_fw.mp4	0.0	284.20776629447937	2.5089564323425293
62	269.0725893974304	pulse	1	t		60.0	2.5	/experiments/Knapen_AOT/AOT_stimuli/rescaled_final/1643_fw.mp4	0.0	285.7903916835785	
62	269.9989204406738	fix_post	2		11	60.0	2.5	/experiments/Knapen_AOT/AOT_stimuli/rescaled_final/1643_fw.mp4	0.0	286.7167227268219	0.09147024154663086
63	270.09039068222046	fix_pre	0		120	61.0	2.5	/experiments/Knapen_AOT/AOT_stimuli/rescaled_final/0178_rv.mp4	0.0	286.80819296836853	1.0084917545318604
63	270.67400002479553	pulse	0	t		61.0	2.5	/experiments/Knapen_AOT/AOT_stimuli/rescaled_final/0178_rv.mp4	0.0	287.3918023109436	
63	271.0988824367523	movie	1		266	61.0	2.5	/experiments/Knapen_AOT/AOT_stimuli/rescaled_final/0178_rv.mp4	0.0	287.8166847229004	2.4920616149902344
63	272.2743968963623	pulse	1	t		61.0	2.5	/experiments/Knapen_AOT/AOT_stimuli/rescaled_final/0178_rv.mp4	0.0	288.9921991825104	
63	273.59094405174255	fix_post	2		12	61.0	2.5	/experiments/Knapen_AOT/AOT_stimuli/rescaled_final/0178_rv.mp4	0.0	290.3087463378906	0.10003948211669922
64	273.69098353385925	fix_pre	0		120	62.0	2.5	/experiments/Knapen_AOT/AOT_stimuli/rescaled_final/0751_rv.mp4	0.0	290.4087858200073	1.0083940029144287
64	273.8744521141052	pulse	0	t		62.0	2.5	/experiments/Knapen_AOT/AOT_stimuli/rescaled_final/0751_rv.mp4	0.0	290.5922544002533	
64	274.6993775367737	movie	1		265	62.0	2.5	/experiments/Knapen_AOT/AOT_stimuli/rescaled_final/0751_rv.mp4	0.0	291.41717982292175	2.492048740386963
64	275.47297072410583	pulse	1	t		62.0	2.5	/experiments/Knapen_AOT/AOT_stimuli/rescaled_final/0751_rv.mp4	0.0	292.1907730102539	
64	277.07300090789795	pulse	1	t		62.0	2.5	/experiments/Knapen_AOT/AOT_stimuli/rescaled_final/0751_rv.mp4	0.0	293.790803194046	
64	277.19142627716064	fix_post	2		12	62.0	2.5	/experiments/Knapen_AOT/AOT_stimuli/rescaled_final/0751_rv.mp4	0.0	293.9092285633087	0.10001564025878906
65	277.29144191741943	fix_pre	0		120	63.0	2.5	blank	1.0	294.0092442035675	1.0001327991485596
65	278.291574716568	movie	1		300	63.0	2.5	blank	1.0	295.00937700271606	2.5004189014434814
65	278.67523646354675	pulse	1	t		63.0	2.5	blank	1.0	295.3930387496948	
65	280.2754108905792	pulse	1	t		63.0	2.5	blank	1.0	296.9932131767273	
65	280.7919936180115	fix_post	2		12	63.0	2.5	blank	1.0	297.50979590415955	0.10005331039428711
66	280.89204692840576	fix_pre	0		119	64.0	2.5	/experiments/Knapen_AOT/AOT_stimuli/rescaled_final/0679_rv.mp4	0.0	297.60984921455383	1.0000357627868652
66	281.868066072464	pulse	0	t		64.0	2.5	/experiments/Knapen_AOT/AOT_stimuli/rescaled_final/0679_rv.mp4	0.0	298.58586835861206	
66	281.8920826911926	movie	1		281	64.0	2.5	/experiments/Knapen_AOT/AOT_stimuli/rescaled_final/0679_rv.mp4	0.0	298.6098849773407	2.5004119873046875
66	283.46786546707153	pulse	1	t		64.0	2.5	/experiments/Knapen_AOT/AOT_stimuli/rescaled_final/0679_rv.mp4	0.0	300.1856677532196	
66	284.3924946784973	fix_post	2		12	64.0	2.5	/experiments/Knapen_AOT/AOT_stimuli/rescaled_final/0679_rv.mp4	0.0	301.1102969646454	0.10002636909484863
67	284.49252104759216	fix_pre	0		120	65.0	2.5	/experiments/Knapen_AOT/AOT_stimuli/rescaled_final/0626_rv.mp4	0.0	301.21032333374023	1.0170283317565918
67	285.0678834915161	pulse	0	t		65.0	2.5	/experiments/Knapen_AOT/AOT_stimuli/rescaled_final/0626_rv.mp4	0.0	301.7856857776642	
67	285.50954937934875	movie	1		270	65.0	2.5	/experiments/Knapen_AOT/AOT_stimuli/rescaled_final/0626_rv.mp4	0.0	302.2273516654968	2.4835879802703857
67	286.66834926605225	pulse	1	t		65.0	2.5	/experiments/Knapen_AOT/AOT_stimuli/rescaled_final/0626_rv.mp4	0.0	303.3861515522003	
67	287.99313735961914	fix_post	2		12	65.0	2.5	/experiments/Knapen_AOT/AOT_stimuli/rescaled_final/0626_rv.mp4	0.0	304.7109396457672	0.09997034072875977
68	288.0931077003479	fix_pre	0		120	66.0	2.5	/experiments/Knapen_AOT/AOT_stimuli/rescaled_final/1427_fw.mp4	0.0	304.810909986496	1.0084655284881592
68	288.26840019226074	pulse	0	t		66.0	2.5	/experiments/Knapen_AOT/AOT_stimuli/rescaled_final/1427_fw.mp4	0.0	304.9862024784088	
68	289.10157322883606	movie	1		279	66.0	2.5	/experiments/Knapen_AOT/AOT_stimuli/rescaled_final/1427_fw.mp4	0.0	305.81937551498413	2.4920272827148438
68	289.8685691356659	pulse	1	t		66.0	2.5	/experiments/Knapen_AOT/AOT_stimuli/rescaled_final/1427_fw.mp4	0.0	306.58637142181396	
68	291.4688358306885	pulse	1	t		66.0	2.5	/experiments/Knapen_AOT/AOT_stimuli/rescaled_final/1427_fw.mp4	0.0	308.18663811683655	
68	291.5936005115509	fix_post	2		12	66.0	2.5	/experiments/Knapen_AOT/AOT_stimuli/rescaled_final/1427_fw.mp4	0.0	308.311402797699	0.10002541542053223
69	291.69362592697144	fix_pre	0		120	67.0	2.5	/experiments/Knapen_AOT/AOT_stimuli/rescaled_final/1397_fw.mp4	0.0	308.4114282131195	1.0085101127624512
69	292.7021360397339	movie	1		278	67.0	2.5	/experiments/Knapen_AOT/AOT_stimuli/rescaled_final/1397_fw.mp4	0.0	309.41993832588196	2.4920921325683594
69	293.0677897930145	pulse	1	t		67.0	2.5	/experiments/Knapen_AOT/AOT_stimuli/rescaled_final/1397_fw.mp4	0.0	309.7855920791626	
69	294.6692976951599	pulse	1	t		67.0	2.5	/experiments/Knapen_AOT/AOT_stimuli/rescaled_final/1397_fw.mp4	0.0	311.387099981308	
69	295.19422817230225	fix_post	2		12	67.0	2.5	/experiments/Knapen_AOT/AOT_stimuli/rescaled_final/1397_fw.mp4	0.0	311.9120304584503	0.1000814437866211
70	295.29430961608887	fix_pre	0		118	68.0	2.5	/experiments/Knapen_AOT/AOT_stimuli/rescaled_final/1112_rv.mp4	0.0	312.01211190223694	0.991652250289917
70	296.2695689201355	pulse	0	t		68.0	2.5	/experiments/Knapen_AOT/AOT_stimuli/rescaled_final/1112_rv.mp4	0.0	312.98737120628357	
70	296.2859618663788	movie	1		277	68.0	2.5	/experiments/Knapen_AOT/AOT_stimuli/rescaled_final/1112_rv.mp4	0.0	313.00376415252686	2.500420331954956
70	297.86865234375	pulse	1	t		68.0	2.5	/experiments/Knapen_AOT/AOT_stimuli/rescaled_final/1112_rv.mp4	0.0	314.58645462989807	
70	298.78638219833374	fix_post	2		12	68.0	2.5	/experiments/Knapen_AOT/AOT_stimuli/rescaled_final/1112_rv.mp4	0.0	315.5041844844818	0.10004162788391113
71	298.88642382621765	fix_pre	0		120	69.0	2.5	blank	1.0	315.6042261123657	1.0000507831573486
71	299.47010374069214	pulse	0	t		69.0	2.5	blank	1.0	316.1879060268402	
71	299.886474609375	movie	1		300	69.0	2.5	blank	1.0	316.60427689552307	2.5004026889801025
71	301.07026624679565	pulse	1	t		69.0	2.5	blank	1.0	317.7880685329437	
71	302.3868772983551	fix_post	2		12	69.0	2.5	blank	1.0	319.1046795845032	0.10001683235168457
72	302.4868941307068	fix_pre	0		120	70.0	2.5	/experiments/Knapen_AOT/AOT_stimuli/rescaled_final/1652_fw.mp4	0.0	319.20469641685486	1.0084872245788574
72	302.6705596446991	pulse	0	t		70.0	2.5	/experiments/Knapen_AOT/AOT_stimuli/rescaled_final/1652_fw.mp4	0.0	319.38836193084717	
72	303.49538135528564	movie	1		261	70.0	2.5	/experiments/Knapen_AOT/AOT_stimuli/rescaled_final/1652_fw.mp4	0.0	320.2131836414337	2.4920456409454346
72	304.2692391872406	pulse	1	t		70.0	2.5	/experiments/Knapen_AOT/AOT_stimuli/rescaled_final/1652_fw.mp4	0.0	320.9870414733887	
72	305.87109303474426	pulse	1	t		70.0	2.5	/experiments/Knapen_AOT/AOT_stimuli/rescaled_final/1652_fw.mp4	0.0	322.58889532089233	
72	305.9874269962311	fix_post	2		12	70.0	2.5	/experiments/Knapen_AOT/AOT_stimuli/rescaled_final/1652_fw.mp4	0.0	322.70522928237915	0.10006952285766602
73	306.08749651908875	fix_pre	0		120	71.0	2.5	/experiments/Knapen_AOT/AOT_stimuli/rescaled_final/0702_rv.mp4	0.0	322.8052988052368	1.008467435836792
73	307.09596395492554	movie	1		269	71.0	2.5	/experiments/Knapen_AOT/AOT_stimuli/rescaled_final/0702_rv.mp4	0.0	323.8137662410736	2.492032766342163
73	307.4692802429199	pulse	1	t		71.0	2.5	/experiments/Knapen_AOT/AOT_stimuli/rescaled_final/0702_rv.mp4	0.0	324.187082529068	
73	309.071373462677	pulse	1	t		71.0	2.5	/experiments/Knapen_AOT/AOT_stimuli/rescaled_final/0702_rv.mp4	0.0	325.7891757488251	
73	309.5879967212677	fix_post	2		12	71.0	2.5	/experiments/Knapen_AOT/AOT_stimuli/rescaled_final/0702_rv.mp4	0.0	326.30579900741577	0.09998631477355957
74	309.68798303604126	fix_pre	0		119	72.0	2.5	/experiments/Knapen_AOT/AOT_stimuli/rescaled_final/1626_fw.mp4	0.0	326.40578532218933	1.0001661777496338
74	310.6716523170471	pulse	0	t		72.0	2.5	/experiments/Knapen_AOT/AOT_stimuli/rescaled_final/1626_fw.mp4	0.0	327.3894546031952	
74	310.6881492137909	movie	1		275	72.0	2.5	/experiments/Knapen_AOT/AOT_stimuli/rescaled_final/1626_fw.mp4	0.0	327.40595149993896	2.5003645420074463
74	312.27136158943176	pulse	1	t		72.0	2.5	/experiments/Knapen_AOT/AOT_stimuli/rescaled_final/1626_fw.mp4	0.0	328.98916387557983	
74	313.18851375579834	fix_post	2		12	72.0	2.5	/experiments/Knapen_AOT/AOT_stimuli/rescaled_final/1626_fw.mp4	0.0	329.9063160419464	0.10004401206970215
75	313.28855776786804	fix_pre	0		120	73.0	2.5	/experiments/Knapen_AOT/AOT_stimuli/rescaled_final/1158_rv.mp4	0.0	330.0063600540161	1.0085833072662354
75	313.87239360809326	pulse	0	t		73.0	2.5	/experiments/Knapen_AOT/AOT_stimuli/rescaled_final/1158_rv.mp4	0.0	330.59019589424133	
75	314.2971410751343	movie	1		279	73.0	2.5	/experiments/Knapen_AOT/AOT_stimuli/rescaled_final/1158_rv.mp4	0.0	331.01494336128235	2.491922616958618
75	315.4708971977234	pulse	1	t		73.0	2.5	/experiments/Knapen_AOT/AOT_stimuli/rescaled_final/1158_rv.mp4	0.0	332.18869948387146	
75	316.7890636920929	fix_post	2		12	73.0	2.5	/experiments/Knapen_AOT/AOT_stimuli/rescaled_final/1158_rv.mp4	0.0	333.50686597824097	0.10003089904785156
76	316.88909459114075	fix_pre	0		120	74.0	2.5	/experiments/Knapen_AOT/AOT_stimuli/rescaled_final/0765_fw.mp4	0.0	333.6068968772888	1.0084733963012695
76	317.0729384422302	pulse	0	t		74.0	2.5	/experiments/Knapen_AOT/AOT_stimuli/rescaled_final/0765_fw.mp4	0.0	333.7907407283783	
76	317.897567987442	movie	1		276	74.0	2.5	/experiments/Knapen_AOT/AOT_stimuli/rescaled_final/0765_fw.mp4	0.0	334.6153702735901	2.492018699645996
76	318.6706373691559	pulse	1	t		74.0	2.5	/experiments/Knapen_AOT/AOT_stimuli/rescaled_final/0765_fw.mp4	0.0	335.38843965530396	
76	320.271107673645	pulse	1	t		74.0	2.5	/experiments/Knapen_AOT/AOT_stimuli/rescaled_final/0765_fw.mp4	0.0	336.9889099597931	
76	320.389586687088	fix_post	2		12	74.0	2.5	/experiments/Knapen_AOT/AOT_stimuli/rescaled_final/0765_fw.mp4	0.0	337.1073889732361	0.10011887550354004
77	320.48970556259155	fix_pre	0		120	75.0	2.5	blank	1.0	337.2075078487396	1.0000348091125488
77	321.4897403717041	movie	1		299	75.0	2.5	blank	1.0	338.2075426578522	2.500396966934204
77	321.8733193874359	pulse	1	t		75.0	2.5	blank	1.0	338.591121673584	
77	323.4735252857208	pulse	1	t		75.0	2.5	blank	1.0	340.1913275718689	
77	323.9901373386383	fix_post	2		12	75.0	2.5	blank	1.0	340.7079396247864	0.10002589225769043
78	324.090163230896	fix_pre	0		119	76.0	2.5	/experiments/Knapen_AOT/AOT_stimuli/rescaled_final/1496_fw.mp4	0.0	340.80796551704407	1.0001208782196045
78	325.07380533218384	pulse	0	t		76.0	2.5	/experiments/Knapen_AOT/AOT_stimuli/rescaled_final/1496_fw.mp4	0.0	341.7916076183319	
78	325.0902841091156	movie	1		257	76.0	2.5	/experiments/Knapen_AOT/AOT_stimuli/rescaled_final/1496_fw.mp4	0.0	341.8080863952637	2.5004336833953857
78	326.67397809028625	pulse	1	t		76.0	2.5	/experiments/Knapen_AOT/AOT_stimuli/rescaled_final/1496_fw.mp4	0.0	343.3917803764343	
78	327.590717792511	fix_post	2		12	76.0	2.5	/experiments/Knapen_AOT/AOT_stimuli/rescaled_final/1496_fw.mp4	0.0	344.30852007865906	0.09998250007629395
79	327.6907002925873	fix_pre	0		120	77.0	2.5	/experiments/Knapen_AOT/AOT_stimuli/rescaled_final/1874_fw.mp4	0.0	344.40850257873535	1.008500099182129
79	328.27436232566833	pulse	0	t		77.0	2.5	/experiments/Knapen_AOT/AOT_stimuli/rescaled_final/1874_fw.mp4	0.0	344.9921646118164	
79	328.6992003917694	movie	1		272	77.0	2.5	/experiments/Knapen_AOT/AOT_stimuli/rescaled_final/1874_fw.mp4	0.0	345.4170026779175	2.4920432567596436
79	329.87273693084717	pulse	1	t		77.0	2.5	/experiments/Knapen_AOT/AOT_stimuli/rescaled_final/1874_fw.mp4	0.0	346.59053921699524	
79	331.19124364852905	fix_post	2		12	77.0	2.5	/experiments/Knapen_AOT/AOT_stimuli/rescaled_final/1874_fw.mp4	0.0	347.9090459346771	0.0999913215637207
80	331.2912349700928	fix_pre	0		120	78.0	2.5	/experiments/Knapen_AOT/AOT_stimuli/rescaled_final/0123_fw.mp4	0.0	348.00903725624084	1.0085973739624023
80	331.4747989177704	pulse	0	t		78.0	2.5	/experiments/Knapen_AOT/AOT_stimuli/rescaled_final/0123_fw.mp4	0.0	348.19260120391846	
80	332.2998323440552	movie	1		264	78.0	2.5	/experiments/Knapen_AOT/AOT_stimuli/rescaled_final/0123_fw.mp4	0.0	349.01763463020325	2.491908311843872
80	333.07337641716003	pulse	1	t		78.0	2.5	/experiments/Knapen_AOT/AOT_stimuli/rescaled_final/0123_fw.mp4	0.0	349.7911787033081	
80	334.6734483242035	pulse	1	t		78.0	2.5	/experiments/Knapen_AOT/AOT_stimuli/rescaled_final/0123_fw.mp4	0.0	351.39125061035156	
80	334.79174065589905	fix_post	2		12	78.0	2.5	/experiments/Knapen_AOT/AOT_stimuli/rescaled_final/0123_fw.mp4	0.0	351.5095429420471	0.10003304481506348
81	334.8917737007141	fix_pre	0		120	79.0	2.5	/experiments/Knapen_AOT/AOT_stimuli/rescaled_final/0494_rv.mp4	0.0	351.6095759868622	1.0084950923919678
81	335.9002687931061	movie	1		263	79.0	2.5	/experiments/Knapen_AOT/AOT_stimuli/rescaled_final/0494_rv.mp4	0.0	352.61807107925415	2.4920241832733154
81	336.2744688987732	pulse	1	t		79.0	2.5	/experiments/Knapen_AOT/AOT_stimuli/rescaled_final/0494_rv.mp4	0.0	352.99227118492126	
81	337.8758363723755	pulse	1	t		79.0	2.5	/experiments/Knapen_AOT/AOT_stimuli/rescaled_final/0494_rv.mp4	0.0	354.59363865852356	
81	338.3922929763794	fix_post	2		12	79.0	2.5	/experiments/Knapen_AOT/AOT_stimuli/rescaled_final/0494_rv.mp4	0.0	355.11009526252747	0.10012078285217285
82	338.49241375923157	fix_pre	0		119	80.0	2.5	/experiments/Knapen_AOT/AOT_stimuli/rescaled_final/0329_fw.mp4	0.0	355.21021604537964	1.0001182556152344
82	339.46944093704224	pulse	0	t		80.0	2.5	/experiments/Knapen_AOT/AOT_stimuli/rescaled_final/0329_fw.mp4	0.0	356.1872432231903	
82	339.4925320148468	movie	1		252	80.0	2.5	/experiments/Knapen_AOT/AOT_stimuli/rescaled_final/0329_fw.mp4	0.0	356.2103343009949	2.500352621078491
82	341.06830978393555	pulse	1	t		80.0	2.5	/experiments/Knapen_AOT/AOT_stimuli/rescaled_final/0329_fw.mp4	0.0	357.7861120700836	
82	341.9928846359253	fix_post	2		12	80.0	2.5	/experiments/Knapen_AOT/AOT_stimuli/rescaled_final/0329_fw.mp4	0.0	358.71068692207336	0.10001373291015625
83	342.09289836883545	fix_pre	0		120	81.0	2.5	/experiments/Knapen_AOT/AOT_stimuli/rescaled_final/0719_fw.mp4	0.0	358.8107006549835	1.0084254741668701
83	342.66817569732666	pulse	0	t		81.0	2.5	/experiments/Knapen_AOT/AOT_stimuli/rescaled_final/0719_fw.mp4	0.0	359.38597798347473	
83	343.1013238430023	movie	1		256	81.0	2.5	/experiments/Knapen_AOT/AOT_stimuli/rescaled_final/0719_fw.mp4	0.0	359.8191261291504	2.492053985595703
83	344.2686433792114	pulse	1	t		81.0	2.5	/experiments/Knapen_AOT/AOT_stimuli/rescaled_final/0719_fw.mp4	0.0	360.9864456653595	
83	345.593377828598	fix_post	2		12	81.0	2.5	/experiments/Knapen_AOT/AOT_stimuli/rescaled_final/0719_fw.mp4	0.0	362.3111801147461	0.09999394416809082
84	345.6933717727661	fix_pre	0		120	82.0	2.5	/experiments/Knapen_AOT/AOT_stimuli/rescaled_final/2070_rv.mp4	0.0	362.4111740589142	1.008533239364624
84	345.8686878681183	pulse	0	t		82.0	2.5	/experiments/Knapen_AOT/AOT_stimuli/rescaled_final/2070_rv.mp4	0.0	362.58649015426636	
84	346.70190501213074	movie	1		267	82.0	2.5	/experiments/Knapen_AOT/AOT_stimuli/rescaled_final/2070_rv.mp4	0.0	363.4197072982788	2.492083787918091
84	347.467481136322	pulse	1	t		82.0	2.5	/experiments/Knapen_AOT/AOT_stimuli/rescaled_final/2070_rv.mp4	0.0	364.1852834224701	
84	349.067834854126	pulse	1	t		82.0	2.5	/experiments/Knapen_AOT/AOT_stimuli/rescaled_final/2070_rv.mp4	0.0	365.78563714027405	
84	349.1939888000488	fix_post	2		12	82.0	2.5	/experiments/Knapen_AOT/AOT_stimuli/rescaled_final/2070_rv.mp4	0.0	365.9117910861969	0.10002613067626953
85	349.2940149307251	fix_pre	0		120	83.0	2.5	blank	1.0	366.01181721687317	1.0000553131103516
85	350.29407024383545	movie	1		300	83.0	2.5	blank	1.0	367.0118725299835	2.5003914833068848
85	350.66936469078064	pulse	1	t		83.0	2.5	blank	1.0	367.3871669769287	
85	352.2697160243988	pulse	1	t		83.0	2.5	blank	1.0	368.9875183105469	
85	352.79446172714233	fix_post	2		12	83.0	2.5	blank	1.0	369.5122640132904	0.10001349449157715
87	352.8944752216339	stim	0		1715					369.612277507782	14.293821096420288
87	353.86998677253723	pulse	0	t						370.5877890586853	
87	355.47020506858826	pulse	0	t						372.1880073547363	
87	357.0703492164612	pulse	0	t						373.78815150260925	
87	358.67067193984985	pulse	0	t						375.3884742259979	
87	360.2707402706146	pulse	0	t						376.9885425567627	
87	361.8711807727814	pulse	0	t						378.58898305892944	
87	363.47140073776245	pulse	0	t						380.1892030239105	
87	365.071759223938	pulse	0	t						381.78956151008606	
87	366.672043800354	pulse	0	t						383.3898460865021	
