trial_nr	onset	event_type	phase	response	nr_frames	movie_index	movie_duration	movie_file	blank	onset_abs	duration
0	0.14948201179504395	stim	0		120					21.00844693183899	1.0003321170806885
0	1.1418590545654297	response	0	space						22.000823974609375	
1	1.1498141288757324	stim	0		8278					22.008779048919678	68.98262476921082
1	70.12974405288696	pulse	0	t						90.98870897293091	
1	70.13243889808655	stim	1		1717					90.9914038181305	14.308678150177002
1	71.72473502159119	pulse	1	t						92.58369994163513	
1	73.32468390464783	pulse	1	t						94.18364882469177	
1	74.92465400695801	pulse	1	t						95.78361892700195	
1	76.52464509010315	pulse	1	t						97.3836100101471	
1	78.12472605705261	pulse	1	t						98.98369097709656	
1	79.72467112541199	pulse	1	t						100.58363604545593	
1	81.32464098930359	pulse	1	t						102.18360590934753	
1	82.92469906806946	pulse	1	t						103.7836639881134	
2	84.44111704826355	fix_pre	0		11	0.0	2.5	/experiments/AOT/AOT_stimuli/rescaled_final/1813_rv.mp4	0.0	105.3000819683075	0.09171795845031738
2	84.52465891838074	pulse	0	t		0.0	2.5	/experiments/AOT/AOT_stimuli/rescaled_final/1813_rv.mp4	0.0	105.38362383842468	
2	84.53283500671387	movie	1		245	0.0	2.5	/experiments/AOT/AOT_stimuli/rescaled_final/1813_rv.mp4	0.0	105.39179992675781	2.5079939365386963
2	86.123615026474	pulse	1	t		0.0	2.5	/experiments/AOT/AOT_stimuli/rescaled_final/1813_rv.mp4	0.0	106.98257994651794	
2	87.04082894325256	fix_post	2		12	0.0	2.5	/experiments/AOT/AOT_stimuli/rescaled_final/1813_rv.mp4	0.0	107.89979386329651	0.10056710243225098
3	87.14139604568481	fix_pre	0		120	1.0	2.5	/experiments/AOT/AOT_stimuli/rescaled_final/0130_fw.mp4	0.0	108.00036096572876	0.9995639324188232
3	87.72485208511353	pulse	0	t		1.0	2.5	/experiments/AOT/AOT_stimuli/rescaled_final/0130_fw.mp4	0.0	108.58381700515747	
3	88.14095997810364	movie	1		244	1.0	2.5	/experiments/AOT/AOT_stimuli/rescaled_final/0130_fw.mp4	0.0	108.99992489814758	2.5001890659332275
3	89.3247549533844	pulse	1	t		1.0	2.5	/experiments/AOT/AOT_stimuli/rescaled_final/0130_fw.mp4	0.0	110.18371987342834	
3	90.64114904403687	fix_post	2		12	1.0	2.5	/experiments/AOT/AOT_stimuli/rescaled_final/0130_fw.mp4	0.0	111.50011396408081	0.10004901885986328
4	90.74119806289673	fix_pre	0		120	2.0	2.5	/experiments/AOT/AOT_stimuli/rescaled_final/0228_fw.mp4	0.0	111.60016298294067	0.9999630451202393
4	90.92460608482361	pulse	0	t		2.0	2.5	/experiments/AOT/AOT_stimuli/rescaled_final/0228_fw.mp4	0.0	111.78357100486755	
4	91.74116110801697	movie	1		243	2.0	2.5	/experiments/AOT/AOT_stimuli/rescaled_final/0228_fw.mp4	0.0	112.60012602806091	2.499936819076538
4	92.52459692955017	pulse	1	t		2.0	2.5	/experiments/AOT/AOT_stimuli/rescaled_final/0228_fw.mp4	0.0	113.38356184959412	
4	94.12301898002625	pulse	1	t		2.0	2.5	/experiments/AOT/AOT_stimuli/rescaled_final/0228_fw.mp4	0.0	114.98198390007019	
4	94.2410979270935	fix_post	2		12	2.0	2.5	/experiments/AOT/AOT_stimuli/rescaled_final/0228_fw.mp4	0.0	115.10006284713745	0.10005617141723633
5	94.34115409851074	fix_pre	0		120	3.0	2.5	/experiments/AOT/AOT_stimuli/rescaled_final/0473_fw.mp4	0.0	115.20011901855469	0.9999339580535889
5	95.34108805656433	movie	1		243	3.0	2.5	/experiments/AOT/AOT_stimuli/rescaled_final/0473_fw.mp4	0.0	116.20005297660828	2.4995739459991455
5	95.72548604011536	pulse	1	t		3.0	2.5	/experiments/AOT/AOT_stimuli/rescaled_final/0473_fw.mp4	0.0	116.5844509601593	
5	97.32454895973206	pulse	1	t		3.0	2.5	/experiments/AOT/AOT_stimuli/rescaled_final/0473_fw.mp4	0.0	118.183513879776	
5	97.84066200256348	fix_post	2		12	3.0	2.5	/experiments/AOT/AOT_stimuli/rescaled_final/0473_fw.mp4	0.0	118.69962692260742	0.10040402412414551
6	97.94106602668762	fix_pre	0		119	4.0	2.5	/experiments/AOT/AOT_stimuli/rescaled_final/0559_fw.mp4	0.0	118.80003094673157	0.9916849136352539
6	98.92455911636353	pulse	0	t		4.0	2.5	/experiments/AOT/AOT_stimuli/rescaled_final/0559_fw.mp4	0.0	119.78352403640747	
6	98.93275094032288	movie	1		244	4.0	2.5	/experiments/AOT/AOT_stimuli/rescaled_final/0559_fw.mp4	0.0	119.79171586036682	2.5082740783691406
6	100.5249080657959	pulse	1	t		4.0	2.5	/experiments/AOT/AOT_stimuli/rescaled_final/0559_fw.mp4	0.0	121.38387298583984	
6	101.44102501869202	fix_post	2		12	4.0	2.5	/experiments/AOT/AOT_stimuli/rescaled_final/0559_fw.mp4	0.0	122.29998993873596	0.09999990463256836
7	101.54102492332458	fix_pre	0		120	5.0	2.5	/experiments/AOT/AOT_stimuli/rescaled_final/1249_fw.mp4	0.0	122.39998984336853	1.0000250339508057
7	102.1245710849762	pulse	0	t		5.0	2.5	/experiments/AOT/AOT_stimuli/rescaled_final/1249_fw.mp4	0.0	122.98353600502014	
7	102.54104995727539	movie	1		246	5.0	2.5	/experiments/AOT/AOT_stimuli/rescaled_final/1249_fw.mp4	0.0	123.40001487731934	2.5000410079956055
7	103.72464394569397	pulse	1	t		5.0	2.5	/experiments/AOT/AOT_stimuli/rescaled_final/1249_fw.mp4	0.0	124.58360886573792	
7	105.041090965271	fix_post	2		12	5.0	2.5	/experiments/AOT/AOT_stimuli/rescaled_final/1249_fw.mp4	0.0	125.90005588531494	0.09990596771240234
8	105.1409969329834	fix_pre	0		120	6.0	2.5	/experiments/AOT/AOT_stimuli/rescaled_final/0724_rv.mp4	0.0	125.99996185302734	1.0000700950622559
8	105.32454490661621	pulse	0	t		6.0	2.5	/experiments/AOT/AOT_stimuli/rescaled_final/0724_rv.mp4	0.0	126.18350982666016	
8	106.14106702804565	movie	1		249	6.0	2.5	/experiments/AOT/AOT_stimuli/rescaled_final/0724_rv.mp4	0.0	127.0000319480896	2.4998888969421387
8	106.9246129989624	pulse	1	t		6.0	2.5	/experiments/AOT/AOT_stimuli/rescaled_final/0724_rv.mp4	0.0	127.78357791900635	
8	108.52459812164307	pulse	1	t		6.0	2.5	/experiments/AOT/AOT_stimuli/rescaled_final/0724_rv.mp4	0.0	129.383563041687	
8	108.6409559249878	fix_post	2		12	6.0	2.5	/experiments/AOT/AOT_stimuli/rescaled_final/0724_rv.mp4	0.0	129.49992084503174	0.10001897811889648
9	108.74097490310669	fix_pre	0		120	7.0	2.5	blank	1.0	129.59993982315063	1.000063180923462
9	109.74103808403015	movie	1		300	7.0	2.5	blank	1.0	130.6000030040741	2.4999489784240723
9	110.12456703186035	pulse	1	t		7.0	2.5	blank	1.0	130.9835319519043	
9	111.72454190254211	pulse	1	t		7.0	2.5	blank	1.0	132.58350682258606	
9	112.24098706245422	fix_post	2		12	7.0	2.5	blank	1.0	133.09995198249817	0.09994983673095703
10	112.34093689918518	fix_pre	0		119	8.0	2.5	/experiments/AOT/AOT_stimuli/rescaled_final/0685_rv.mp4	0.0	133.19990181922913	0.9916641712188721
10	113.32451796531677	pulse	0	t		8.0	2.5	/experiments/AOT/AOT_stimuli/rescaled_final/0685_rv.mp4	0.0	134.18348288536072	
10	113.33260107040405	movie	1		246	8.0	2.5	/experiments/AOT/AOT_stimuli/rescaled_final/0685_rv.mp4	0.0	134.191565990448	2.508335828781128
10	114.92573189735413	pulse	1	t		8.0	2.5	/experiments/AOT/AOT_stimuli/rescaled_final/0685_rv.mp4	0.0	135.78469681739807	
10	115.84093689918518	fix_post	2		12	8.0	2.5	/experiments/AOT/AOT_stimuli/rescaled_final/0685_rv.mp4	0.0	136.69990181922913	0.10011816024780273
11	115.94105505943298	fix_pre	0		120	9.0	2.5	/experiments/AOT/AOT_stimuli/rescaled_final/0401_rv.mp4	0.0	136.80001997947693	0.9999010562896729
11	116.52443599700928	pulse	0	t		9.0	2.5	/experiments/AOT/AOT_stimuli/rescaled_final/0401_rv.mp4	0.0	137.38340091705322	
11	116.94095611572266	movie	1		243	9.0	2.5	/experiments/AOT/AOT_stimuli/rescaled_final/0401_rv.mp4	0.0	137.7999210357666	2.4999167919158936
11	118.12452602386475	pulse	1	t		9.0	2.5	/experiments/AOT/AOT_stimuli/rescaled_final/0401_rv.mp4	0.0	138.9834909439087	
11	119.44087290763855	fix_post	2		12	9.0	2.5	/experiments/AOT/AOT_stimuli/rescaled_final/0401_rv.mp4	0.0	140.2998378276825	0.10002708435058594
12	119.54089999198914	fix_pre	0		120	10.0	2.5	/experiments/AOT/AOT_stimuli/rescaled_final/0912_fw.mp4	0.0	140.39986491203308	1.0002429485321045
12	119.72444105148315	pulse	0	t		10.0	2.5	/experiments/AOT/AOT_stimuli/rescaled_final/0912_fw.mp4	0.0	140.5834059715271	
12	120.54114294052124	movie	1		243	10.0	2.5	/experiments/AOT/AOT_stimuli/rescaled_final/0912_fw.mp4	0.0	141.40010786056519	2.4999401569366455
12	121.32445907592773	pulse	1	t		10.0	2.5	/experiments/AOT/AOT_stimuli/rescaled_final/0912_fw.mp4	0.0	142.18342399597168	
12	122.92301201820374	pulse	1	t		10.0	2.5	/experiments/AOT/AOT_stimuli/rescaled_final/0912_fw.mp4	0.0	143.78197693824768	
12	123.04108309745789	fix_post	2		12	10.0	2.5	/experiments/AOT/AOT_stimuli/rescaled_final/0912_fw.mp4	0.0	143.90004801750183	0.0999598503112793
13	123.14104294776917	fix_pre	0		120	11.0	2.5	/experiments/AOT/AOT_stimuli/rescaled_final/1965_fw.mp4	0.0	144.0000078678131	1.0000150203704834
13	124.14105796813965	movie	1		245	11.0	2.5	/experiments/AOT/AOT_stimuli/rescaled_final/1965_fw.mp4	0.0	145.0000228881836	2.4999139308929443
13	124.52494311332703	pulse	1	t		11.0	2.5	/experiments/AOT/AOT_stimuli/rescaled_final/1965_fw.mp4	0.0	145.38390803337097	
13	126.1244490146637	pulse	1	t		11.0	2.5	/experiments/AOT/AOT_stimuli/rescaled_final/1965_fw.mp4	0.0	146.98341393470764	
13	126.64097189903259	fix_post	2		12	11.0	2.5	/experiments/AOT/AOT_stimuli/rescaled_final/1965_fw.mp4	0.0	147.49993681907654	0.1000051498413086
14	126.7409770488739	fix_pre	0		119	12.0	2.5	blank	1.0	147.59994196891785	0.9916460514068604
14	127.72450113296509	pulse	0	t		12.0	2.5	blank	1.0	148.58346605300903	
14	127.73262310028076	movie	1		301	12.0	2.5	blank	1.0	148.5915880203247	2.5082828998565674
14	129.32443594932556	pulse	1	t		12.0	2.5	blank	1.0	150.1834008693695	
14	130.24090600013733	fix_post	2		12	12.0	2.5	blank	1.0	151.09987092018127	0.10004496574401855
15	130.34095096588135	fix_pre	0		120	13.0	2.5	/experiments/AOT/AOT_stimuli/rescaled_final/0473_rv.mp4	0.0	151.1999158859253	0.9999380111694336
15	130.92442893981934	pulse	0	t		13.0	2.5	/experiments/AOT/AOT_stimuli/rescaled_final/0473_rv.mp4	0.0	151.78339385986328	
15	131.34088897705078	movie	1		244	13.0	2.5	/experiments/AOT/AOT_stimuli/rescaled_final/0473_rv.mp4	0.0	152.19985389709473	2.5001020431518555
15	132.5244700908661	pulse	1	t		13.0	2.5	/experiments/AOT/AOT_stimuli/rescaled_final/0473_rv.mp4	0.0	153.38343501091003	
15	133.84099102020264	fix_post	2		12	13.0	2.5	/experiments/AOT/AOT_stimuli/rescaled_final/0473_rv.mp4	0.0	154.69995594024658	0.09997105598449707
16	133.94096207618713	fix_pre	0		120	14.0	2.5	/experiments/AOT/AOT_stimuli/rescaled_final/0735_rv.mp4	0.0	154.79992699623108	0.9999558925628662
16	134.12438893318176	pulse	0	t		14.0	2.5	/experiments/AOT/AOT_stimuli/rescaled_final/0735_rv.mp4	0.0	154.9833538532257	
16	134.94091796875	movie	1		246	14.0	2.5	/experiments/AOT/AOT_stimuli/rescaled_final/0735_rv.mp4	0.0	155.79988288879395	2.499983072280884
16	135.7243299484253	pulse	1	t		14.0	2.5	/experiments/AOT/AOT_stimuli/rescaled_final/0735_rv.mp4	0.0	156.58329486846924	
16	137.32435393333435	pulse	1	t		14.0	2.5	/experiments/AOT/AOT_stimuli/rescaled_final/0735_rv.mp4	0.0	158.1833188533783	
16	137.44090104103088	fix_post	2		12	14.0	2.5	/experiments/AOT/AOT_stimuli/rescaled_final/0735_rv.mp4	0.0	158.29986596107483	0.09998607635498047
17	137.54088711738586	fix_pre	0		120	15.0	2.5	/experiments/AOT/AOT_stimuli/rescaled_final/0281_rv.mp4	0.0	158.3998520374298	0.9999878406524658
17	138.54087495803833	movie	1		245	15.0	2.5	/experiments/AOT/AOT_stimuli/rescaled_final/0281_rv.mp4	0.0	159.39983987808228	2.4996120929718018
17	138.9237699508667	pulse	1	t		15.0	2.5	/experiments/AOT/AOT_stimuli/rescaled_final/0281_rv.mp4	0.0	159.78273487091064	
17	140.5243000984192	pulse	1	t		15.0	2.5	/experiments/AOT/AOT_stimuli/rescaled_final/0281_rv.mp4	0.0	161.38326501846313	
17	141.04048705101013	fix_post	2		12	15.0	2.5	/experiments/AOT/AOT_stimuli/rescaled_final/0281_rv.mp4	0.0	161.89945197105408	0.10045695304870605
18	141.14094400405884	fix_pre	0		119	16.0	2.5	/experiments/AOT/AOT_stimuli/rescaled_final/2047_rv.mp4	0.0	161.99990892410278	0.991204023361206
18	142.1239869594574	pulse	0	t		16.0	2.5	/experiments/AOT/AOT_stimuli/rescaled_final/2047_rv.mp4	0.0	162.98295187950134	
18	142.13214802742004	movie	1		245	16.0	2.5	/experiments/AOT/AOT_stimuli/rescaled_final/2047_rv.mp4	0.0	162.991112947464	2.508668899536133
18	143.72412991523743	pulse	1	t		16.0	2.5	/experiments/AOT/AOT_stimuli/rescaled_final/2047_rv.mp4	0.0	164.58309483528137	
18	144.64081692695618	fix_post	2		12	16.0	2.5	/experiments/AOT/AOT_stimuli/rescaled_final/2047_rv.mp4	0.0	165.49978184700012	0.10005807876586914
19	144.74087500572205	fix_pre	0		120	17.0	2.5	/experiments/AOT/AOT_stimuli/rescaled_final/2047_fw.mp4	0.0	165.599839925766	1.0000770092010498
19	145.32437992095947	pulse	0	t		17.0	2.5	/experiments/AOT/AOT_stimuli/rescaled_final/2047_fw.mp4	0.0	166.18334484100342	
19	145.7409520149231	movie	1		247	17.0	2.5	/experiments/AOT/AOT_stimuli/rescaled_final/2047_fw.mp4	0.0	166.59991693496704	2.4999589920043945
19	146.92439794540405	pulse	1	t		17.0	2.5	/experiments/AOT/AOT_stimuli/rescaled_final/2047_fw.mp4	0.0	167.783362865448	
19	148.2409110069275	fix_post	2		12	17.0	2.5	/experiments/AOT/AOT_stimuli/rescaled_final/2047_fw.mp4	0.0	169.09987592697144	0.10001492500305176
20	148.34092593193054	fix_pre	0		120	18.0	2.5	/experiments/AOT/AOT_stimuli/rescaled_final/0724_fw.mp4	0.0	169.1998908519745	0.9999451637268066
20	148.52444100379944	pulse	0	t		18.0	2.5	/experiments/AOT/AOT_stimuli/rescaled_final/0724_fw.mp4	0.0	169.38340592384338	
20	149.34087109565735	movie	1		249	18.0	2.5	/experiments/AOT/AOT_stimuli/rescaled_final/0724_fw.mp4	0.0	170.1998360157013	2.4999840259552
20	150.12420797348022	pulse	1	t		18.0	2.5	/experiments/AOT/AOT_stimuli/rescaled_final/0724_fw.mp4	0.0	170.98317289352417	
20	151.72431802749634	pulse	1	t		18.0	2.5	/experiments/AOT/AOT_stimuli/rescaled_final/0724_fw.mp4	0.0	172.58328294754028	
20	151.84085512161255	fix_post	2		12	18.0	2.5	/experiments/AOT/AOT_stimuli/rescaled_final/0724_fw.mp4	0.0	172.6998200416565	0.09950399398803711
21	151.9403591156006	fix_pre	0		120	19.0	2.5	/experiments/AOT/AOT_stimuli/rescaled_final/2122_fw.mp4	0.0	172.79932403564453	1.0004899501800537
21	152.94084906578064	movie	1		245	19.0	2.5	/experiments/AOT/AOT_stimuli/rescaled_final/2122_fw.mp4	0.0	173.79981398582458	2.499948024749756
21	153.3238410949707	pulse	1	t		19.0	2.5	/experiments/AOT/AOT_stimuli/rescaled_final/2122_fw.mp4	0.0	174.18280601501465	
21	154.92420506477356	pulse	1	t		19.0	2.5	/experiments/AOT/AOT_stimuli/rescaled_final/2122_fw.mp4	0.0	175.7831699848175	
21	155.4407970905304	fix_post	2		12	19.0	2.5	/experiments/AOT/AOT_stimuli/rescaled_final/2122_fw.mp4	0.0	176.29976201057434	0.09996199607849121
22	155.5407590866089	fix_pre	0		119	20.0	2.5	blank	1.0	176.39972400665283	0.9916999340057373
22	156.52425003051758	pulse	0	t		20.0	2.5	blank	1.0	177.38321495056152	
22	156.53245902061462	movie	1		301	20.0	2.5	blank	1.0	177.39142394065857	2.5083279609680176
22	158.12429809570312	pulse	1	t		20.0	2.5	blank	1.0	178.98326301574707	
22	159.04078698158264	fix_post	2		12	20.0	2.5	blank	1.0	179.8997519016266	0.10002708435058594
23	159.14081406593323	fix_pre	0		120	21.0	2.5	/experiments/AOT/AOT_stimuli/rescaled_final/0490_rv.mp4	0.0	179.99977898597717	1.0000319480895996
23	159.72432804107666	pulse	0	t		21.0	2.5	/experiments/AOT/AOT_stimuli/rescaled_final/0490_rv.mp4	0.0	180.5832929611206	
23	160.14084601402283	movie	1		244	21.0	2.5	/experiments/AOT/AOT_stimuli/rescaled_final/0490_rv.mp4	0.0	180.99981093406677	2.4999520778656006
23	161.32430696487427	pulse	1	t		21.0	2.5	/experiments/AOT/AOT_stimuli/rescaled_final/0490_rv.mp4	0.0	182.1832718849182	
23	162.64079809188843	fix_post	2		12	21.0	2.5	/experiments/AOT/AOT_stimuli/rescaled_final/0490_rv.mp4	0.0	183.49976301193237	0.10002994537353516
24	162.74082803726196	fix_pre	0		120	22.0	2.5	/experiments/AOT/AOT_stimuli/rescaled_final/0499_fw.mp4	0.0	183.5997929573059	0.9999899864196777
24	162.92431807518005	pulse	0	t		22.0	2.5	/experiments/AOT/AOT_stimuli/rescaled_final/0499_fw.mp4	0.0	183.783282995224	
24	163.74081802368164	movie	1		244	22.0	2.5	/experiments/AOT/AOT_stimuli/rescaled_final/0499_fw.mp4	0.0	184.5997829437256	2.4998738765716553
24	164.52420711517334	pulse	1	t		22.0	2.5	/experiments/AOT/AOT_stimuli/rescaled_final/0499_fw.mp4	0.0	185.38317203521729	
24	166.1231291294098	pulse	1	t		22.0	2.5	/experiments/AOT/AOT_stimuli/rescaled_final/0499_fw.mp4	0.0	186.98209404945374	
24	166.2406919002533	fix_post	2		12	22.0	2.5	/experiments/AOT/AOT_stimuli/rescaled_final/0499_fw.mp4	0.0	187.09965682029724	0.0999910831451416
25	166.34068298339844	fix_pre	0		120	23.0	2.5	/experiments/AOT/AOT_stimuli/rescaled_final/1523_rv.mp4	0.0	187.19964790344238	0.9996190071105957
25	167.34030199050903	movie	1		244	23.0	2.5	/experiments/AOT/AOT_stimuli/rescaled_final/1523_rv.mp4	0.0	188.19926691055298	2.500365972518921
25	167.72383999824524	pulse	1	t		23.0	2.5	/experiments/AOT/AOT_stimuli/rescaled_final/1523_rv.mp4	0.0	188.58280491828918	
25	169.3242928981781	pulse	1	t		23.0	2.5	/experiments/AOT/AOT_stimuli/rescaled_final/1523_rv.mp4	0.0	190.18325781822205	
25	169.84066796302795	fix_post	2		12	23.0	2.5	/experiments/AOT/AOT_stimuli/rescaled_final/1523_rv.mp4	0.0	190.6996328830719	0.10011696815490723
26	169.94078493118286	fix_pre	0		119	24.0	2.5	/experiments/AOT/AOT_stimuli/rescaled_final/0922_fw.mp4	0.0	190.7997498512268	0.9916291236877441
26	170.92420411109924	pulse	0	t		24.0	2.5	/experiments/AOT/AOT_stimuli/rescaled_final/0922_fw.mp4	0.0	191.7831690311432	
26	170.9324140548706	movie	1		246	24.0	2.5	/experiments/AOT/AOT_stimuli/rescaled_final/0922_fw.mp4	0.0	191.79137897491455	2.508349895477295
26	172.52405190467834	pulse	1	t		24.0	2.5	/experiments/AOT/AOT_stimuli/rescaled_final/0922_fw.mp4	0.0	193.3830168247223	
26	173.4407639503479	fix_post	2		12	24.0	2.5	/experiments/AOT/AOT_stimuli/rescaled_final/0922_fw.mp4	0.0	194.29972887039185	0.09993505477905273
27	173.54069900512695	fix_pre	0		120	25.0	2.5	/experiments/AOT/AOT_stimuli/rescaled_final/0186_rv.mp4	0.0	194.3996639251709	0.9999380111694336
27	174.12421894073486	pulse	0	t		25.0	2.5	/experiments/AOT/AOT_stimuli/rescaled_final/0186_rv.mp4	0.0	194.9831838607788	
27	174.5406370162964	movie	1		246	25.0	2.5	/experiments/AOT/AOT_stimuli/rescaled_final/0186_rv.mp4	0.0	195.39960193634033	2.500051975250244
27	175.72421312332153	pulse	1	t		25.0	2.5	/experiments/AOT/AOT_stimuli/rescaled_final/0186_rv.mp4	0.0	196.58317804336548	
27	177.04068899154663	fix_post	2		12	25.0	2.5	/experiments/AOT/AOT_stimuli/rescaled_final/0186_rv.mp4	0.0	197.89965391159058	0.09998703002929688
28	177.14067602157593	fix_pre	0		120	26.0	2.5	blank	1.0	197.99964094161987	0.9999980926513672
28	177.3241651058197	pulse	0	t		26.0	2.5	blank	1.0	198.18313002586365	
28	178.1406741142273	movie	1		300	26.0	2.5	blank	1.0	198.99963903427124	2.499907970428467
28	178.9242091178894	pulse	1	t		26.0	2.5	blank	1.0	199.78317403793335	
28	180.52409601211548	pulse	1	t		26.0	2.5	blank	1.0	201.38306093215942	
28	180.64058208465576	fix_post	2		12	26.0	2.5	blank	1.0	201.4995470046997	0.10003995895385742
29	180.74062204360962	fix_pre	0		120	27.0	2.5	/experiments/AOT/AOT_stimuli/rescaled_final/1193_rv.mp4	0.0	201.59958696365356	1.0001039505004883
29	181.7407259941101	movie	1		243	27.0	2.5	/experiments/AOT/AOT_stimuli/rescaled_final/1193_rv.mp4	0.0	202.59969091415405	2.4999310970306396
29	182.1238889694214	pulse	1	t		27.0	2.5	/experiments/AOT/AOT_stimuli/rescaled_final/1193_rv.mp4	0.0	202.98285388946533	
29	183.7242031097412	pulse	1	t		27.0	2.5	/experiments/AOT/AOT_stimuli/rescaled_final/1193_rv.mp4	0.0	204.58316802978516	
29	184.24065709114075	fix_post	2		12	27.0	2.5	/experiments/AOT/AOT_stimuli/rescaled_final/1193_rv.mp4	0.0	205.0996220111847	0.0999898910522461
30	184.340646982193	fix_pre	0		119	28.0	2.5	/experiments/AOT/AOT_stimuli/rescaled_final/0685_rv.mp4	0.0	205.19961190223694	0.9916031360626221
30	185.32417702674866	pulse	0	t		28.0	2.5	/experiments/AOT/AOT_stimuli/rescaled_final/0685_rv.mp4	0.0	206.1831419467926	
30	185.33225011825562	movie	1		245	28.0	2.5	/experiments/AOT/AOT_stimuli/rescaled_final/0685_rv.mp4	0.0	206.19121503829956	2.5083818435668945
30	186.92366290092468	pulse	1	t		28.0	2.5	/experiments/AOT/AOT_stimuli/rescaled_final/0685_rv.mp4	0.0	207.78262782096863	
30	187.8406319618225	fix_post	2		12	28.0	2.5	/experiments/AOT/AOT_stimuli/rescaled_final/0685_rv.mp4	0.0	208.69959688186646	0.09999299049377441
31	187.94062495231628	fix_pre	0		120	29.0	2.5	/experiments/AOT/AOT_stimuli/rescaled_final/0519_rv.mp4	0.0	208.79958987236023	0.9999821186065674
31	188.5241141319275	pulse	0	t		29.0	2.5	/experiments/AOT/AOT_stimuli/rescaled_final/0519_rv.mp4	0.0	209.38307905197144	
31	188.94060707092285	movie	1		244	29.0	2.5	/experiments/AOT/AOT_stimuli/rescaled_final/0519_rv.mp4	0.0	209.7995719909668	2.4999828338623047
31	190.12420511245728	pulse	1	t		29.0	2.5	/experiments/AOT/AOT_stimuli/rescaled_final/0519_rv.mp4	0.0	210.98317003250122	
31	191.44058990478516	fix_post	2		12	29.0	2.5	/experiments/AOT/AOT_stimuli/rescaled_final/0519_rv.mp4	0.0	212.2995548248291	0.10009622573852539
32	191.54068613052368	fix_pre	0		120	30.0	2.5	/experiments/AOT/AOT_stimuli/rescaled_final/1696_fw.mp4	0.0	212.39965105056763	0.99993896484375
32	191.72414994239807	pulse	0	t		30.0	2.5	/experiments/AOT/AOT_stimuli/rescaled_final/1696_fw.mp4	0.0	212.58311486244202	
32	192.54062509536743	movie	1		243	30.0	2.5	/experiments/AOT/AOT_stimuli/rescaled_final/1696_fw.mp4	0.0	213.39959001541138	2.500046968460083
32	193.3240931034088	pulse	1	t		30.0	2.5	/experiments/AOT/AOT_stimuli/rescaled_final/1696_fw.mp4	0.0	214.18305802345276	
32	194.92270493507385	pulse	1	t		30.0	2.5	/experiments/AOT/AOT_stimuli/rescaled_final/1696_fw.mp4	0.0	215.7816698551178	
32	195.04067206382751	fix_post	2		12	30.0	2.5	/experiments/AOT/AOT_stimuli/rescaled_final/1696_fw.mp4	0.0	215.89963698387146	0.09993290901184082
33	195.14060497283936	fix_pre	0		120	31.0	2.5	/experiments/AOT/AOT_stimuli/rescaled_final/1047_fw.mp4	0.0	215.9995698928833	1.000223159790039
33	196.1408281326294	movie	1		244	31.0	2.5	/experiments/AOT/AOT_stimuli/rescaled_final/1047_fw.mp4	0.0	216.99979305267334	2.4995408058166504
33	196.52336597442627	pulse	1	t		31.0	2.5	/experiments/AOT/AOT_stimuli/rescaled_final/1047_fw.mp4	0.0	217.38233089447021	
33	198.12366604804993	pulse	1	t		31.0	2.5	/experiments/AOT/AOT_stimuli/rescaled_final/1047_fw.mp4	0.0	218.98263096809387	
33	198.64036893844604	fix_post	2		12	31.0	2.5	/experiments/AOT/AOT_stimuli/rescaled_final/1047_fw.mp4	0.0	219.49933385849	0.10038208961486816
34	198.7407510280609	fix_pre	0		119	32.0	2.5	/experiments/AOT/AOT_stimuli/rescaled_final/2170_rv.mp4	0.0	219.59971594810486	0.9913768768310547
34	199.7239339351654	pulse	0	t		32.0	2.5	/experiments/AOT/AOT_stimuli/rescaled_final/2170_rv.mp4	0.0	220.58289885520935	
34	199.73212790489197	movie	1		246	32.0	2.5	/experiments/AOT/AOT_stimuli/rescaled_final/2170_rv.mp4	0.0	220.5910928249359	2.508531093597412
34	201.323872089386	pulse	1	t		32.0	2.5	/experiments/AOT/AOT_stimuli/rescaled_final/2170_rv.mp4	0.0	222.18283700942993	
34	202.24065899848938	fix_post	2		12	32.0	2.5	/experiments/AOT/AOT_stimuli/rescaled_final/2170_rv.mp4	0.0	223.09962391853333	0.09998607635498047
35	202.34064507484436	fix_pre	0		120	33.0	2.5	/experiments/AOT/AOT_stimuli/rescaled_final/0490_fw.mp4	0.0	223.1996099948883	0.9999208450317383
35	202.92406392097473	pulse	0	t		33.0	2.5	/experiments/AOT/AOT_stimuli/rescaled_final/0490_fw.mp4	0.0	223.78302884101868	
35	203.3405659198761	movie	1		245	33.0	2.5	/experiments/AOT/AOT_stimuli/rescaled_final/0490_fw.mp4	0.0	224.19953083992004	2.4999430179595947
35	204.52407002449036	pulse	1	t		33.0	2.5	/experiments/AOT/AOT_stimuli/rescaled_final/0490_fw.mp4	0.0	225.3830349445343	
35	205.8405089378357	fix_post	2		12	33.0	2.5	/experiments/AOT/AOT_stimuli/rescaled_final/0490_fw.mp4	0.0	226.69947385787964	0.10007596015930176
36	205.940584897995	fix_pre	0		120	34.0	2.5	/experiments/AOT/AOT_stimuli/rescaled_final/1350_fw.mp4	0.0	226.79954981803894	0.999953031539917
36	206.12417006492615	pulse	0	t		34.0	2.5	/experiments/AOT/AOT_stimuli/rescaled_final/1350_fw.mp4	0.0	226.9831349849701	
36	206.9405379295349	movie	1		245	34.0	2.5	/experiments/AOT/AOT_stimuli/rescaled_final/1350_fw.mp4	0.0	227.79950284957886	2.4996910095214844
36	207.7239580154419	pulse	1	t		34.0	2.5	/experiments/AOT/AOT_stimuli/rescaled_final/1350_fw.mp4	0.0	228.58292293548584	
36	209.32259511947632	pulse	1	t		34.0	2.5	/experiments/AOT/AOT_stimuli/rescaled_final/1350_fw.mp4	0.0	230.18156003952026	
36	209.4402289390564	fix_post	2		12	34.0	2.5	/experiments/AOT/AOT_stimuli/rescaled_final/1350_fw.mp4	0.0	230.29919385910034	0.10026812553405762
37	209.54049706459045	fix_pre	0		120	35.0	2.5	blank	1.0	230.3994619846344	1.0000510215759277
37	210.54054808616638	movie	1		300	35.0	2.5	blank	1.0	231.39951300621033	2.4999449253082275
37	210.92405796051025	pulse	1	t		35.0	2.5	blank	1.0	231.7830228805542	
37	212.5239930152893	pulse	1	t		35.0	2.5	blank	1.0	233.38295793533325	
37	213.0404930114746	fix_post	2		12	35.0	2.5	blank	1.0	233.89945793151855	0.09997200965881348
38	213.14046502113342	fix_pre	0		119	36.0	2.5	/experiments/AOT/AOT_stimuli/rescaled_final/1294_rv.mp4	0.0	233.99942994117737	0.9917149543762207
38	214.1241490840912	pulse	0	t		36.0	2.5	/experiments/AOT/AOT_stimuli/rescaled_final/1294_rv.mp4	0.0	234.98311400413513	
38	214.13217997550964	movie	1		246	36.0	2.5	/experiments/AOT/AOT_stimuli/rescaled_final/1294_rv.mp4	0.0	234.9911448955536	2.508270025253296
38	215.72387194633484	pulse	1	t		36.0	2.5	/experiments/AOT/AOT_stimuli/rescaled_final/1294_rv.mp4	0.0	236.58283686637878	
38	216.64045000076294	fix_post	2		12	36.0	2.5	/experiments/AOT/AOT_stimuli/rescaled_final/1294_rv.mp4	0.0	237.49941492080688	0.10004305839538574
39	216.74049305915833	fix_pre	0		120	37.0	2.5	/experiments/AOT/AOT_stimuli/rescaled_final/0579_fw.mp4	0.0	237.59945797920227	1.0000309944152832
39	217.3240101337433	pulse	0	t		37.0	2.5	/experiments/AOT/AOT_stimuli/rescaled_final/0579_fw.mp4	0.0	238.18297505378723	
39	217.7405240535736	movie	1		245	37.0	2.5	/experiments/AOT/AOT_stimuli/rescaled_final/0579_fw.mp4	0.0	238.59948897361755	2.500005006790161
39	218.92413592338562	pulse	1	t		37.0	2.5	/experiments/AOT/AOT_stimuli/rescaled_final/0579_fw.mp4	0.0	239.78310084342957	
39	220.24052906036377	fix_post	2		12	37.0	2.5	/experiments/AOT/AOT_stimuli/rescaled_final/0579_fw.mp4	0.0	241.09949398040771	0.09991884231567383
40	220.34044790267944	fix_pre	0		120	38.0	2.5	/experiments/AOT/AOT_stimuli/rescaled_final/0535_rv.mp4	0.0	241.1994128227234	1.0000371932983398
40	220.52389192581177	pulse	0	t		38.0	2.5	/experiments/AOT/AOT_stimuli/rescaled_final/0535_rv.mp4	0.0	241.3828568458557	
40	221.34048509597778	movie	1		243	38.0	2.5	/experiments/AOT/AOT_stimuli/rescaled_final/0535_rv.mp4	0.0	242.19945001602173	2.499990940093994
40	222.1239960193634	pulse	1	t		38.0	2.5	/experiments/AOT/AOT_stimuli/rescaled_final/0535_rv.mp4	0.0	242.98296093940735	
40	223.72225308418274	pulse	1	t		38.0	2.5	/experiments/AOT/AOT_stimuli/rescaled_final/0535_rv.mp4	0.0	244.58121800422668	
40	223.84047603607178	fix_post	2		12	38.0	2.5	/experiments/AOT/AOT_stimuli/rescaled_final/0535_rv.mp4	0.0	244.69944095611572	0.10000205039978027
41	223.94047808647156	fix_pre	0		120	39.0	2.5	/experiments/AOT/AOT_stimuli/rescaled_final/1047_rv.mp4	0.0	244.7994430065155	0.9999728202819824
41	224.94045090675354	movie	1		243	39.0	2.5	/experiments/AOT/AOT_stimuli/rescaled_final/1047_rv.mp4	0.0	245.79941582679749	2.500016212463379
41	225.32400012016296	pulse	1	t		39.0	2.5	/experiments/AOT/AOT_stimuli/rescaled_final/1047_rv.mp4	0.0	246.1829650402069	
41	226.92390203475952	pulse	1	t		39.0	2.5	/experiments/AOT/AOT_stimuli/rescaled_final/1047_rv.mp4	0.0	247.78286695480347	
41	227.44046711921692	fix_post	2		12	39.0	2.5	/experiments/AOT/AOT_stimuli/rescaled_final/1047_rv.mp4	0.0	248.29943203926086	0.10004496574401855
42	227.54051208496094	fix_pre	0		119	40.0	2.5	/experiments/AOT/AOT_stimuli/rescaled_final/0396_rv.mp4	0.0	248.39947700500488	0.9915719032287598
42	228.52387309074402	pulse	0	t		40.0	2.5	/experiments/AOT/AOT_stimuli/rescaled_final/0396_rv.mp4	0.0	249.38283801078796	
42	228.5320839881897	movie	1		246	40.0	2.5	/experiments/AOT/AOT_stimuli/rescaled_final/0396_rv.mp4	0.0	249.39104890823364	2.5083401203155518
42	230.12335205078125	pulse	1	t		40.0	2.5	/experiments/AOT/AOT_stimuli/rescaled_final/0396_rv.mp4	0.0	250.9823169708252	
42	231.04042410850525	fix_post	2		12	40.0	2.5	/experiments/AOT/AOT_stimuli/rescaled_final/0396_rv.mp4	0.0	251.8993890285492	0.10001087188720703
43	231.14043498039246	fix_pre	0		120	41.0	2.5	/experiments/AOT/AOT_stimuli/rescaled_final/0487_rv.mp4	0.0	251.9993999004364	0.9999070167541504
43	231.7239339351654	pulse	0	t		41.0	2.5	/experiments/AOT/AOT_stimuli/rescaled_final/0487_rv.mp4	0.0	252.58289885520935	
43	232.1403419971466	movie	1		246	41.0	2.5	/experiments/AOT/AOT_stimuli/rescaled_final/0487_rv.mp4	0.0	252.99930691719055	2.4996581077575684
43	233.32398200035095	pulse	1	t		41.0	2.5	/experiments/AOT/AOT_stimuli/rescaled_final/0487_rv.mp4	0.0	254.1829469203949	
43	234.64000010490417	fix_post	2		12	41.0	2.5	/experiments/AOT/AOT_stimuli/rescaled_final/0487_rv.mp4	0.0	255.49896502494812	0.10033583641052246
44	234.7403359413147	fix_pre	0		120	42.0	2.5	blank	1.0	255.59930086135864	1.000046968460083
44	234.92390489578247	pulse	0	t		42.0	2.5	blank	1.0	255.78286981582642	
44	235.74038290977478	movie	1		300	42.0	2.5	blank	1.0	256.5993478298187	2.5000112056732178
44	236.52392292022705	pulse	1	t		42.0	2.5	blank	1.0	257.382887840271	
44	238.12396097183228	pulse	1	t		42.0	2.5	blank	1.0	258.9829258918762	
44	238.240394115448	fix_post	2		12	42.0	2.5	blank	1.0	259.09935903549194	0.10001897811889648
45	238.3404130935669	fix_pre	0		120	43.0	2.5	/experiments/AOT/AOT_stimuli/rescaled_final/0905_rv.mp4	0.0	259.19937801361084	0.9999809265136719
45	239.34039402008057	movie	1		248	43.0	2.5	/experiments/AOT/AOT_stimuli/rescaled_final/0905_rv.mp4	0.0	260.1993589401245	2.499937057495117
45	239.72349405288696	pulse	1	t		43.0	2.5	/experiments/AOT/AOT_stimuli/rescaled_final/0905_rv.mp4	0.0	260.5824589729309	
45	241.3239231109619	pulse	1	t		43.0	2.5	/experiments/AOT/AOT_stimuli/rescaled_final/0905_rv.mp4	0.0	262.18288803100586	
45	241.84033107757568	fix_post	2		12	43.0	2.5	/experiments/AOT/AOT_stimuli/rescaled_final/0905_rv.mp4	0.0	262.69929599761963	0.10015392303466797
46	241.94048500061035	fix_pre	0		119	44.0	2.5	/experiments/AOT/AOT_stimuli/rescaled_final/0513_rv.mp4	0.0	262.7994499206543	0.9915459156036377
46	242.92391896247864	pulse	0	t		44.0	2.5	/experiments/AOT/AOT_stimuli/rescaled_final/0513_rv.mp4	0.0	263.7828838825226	
46	242.932030916214	movie	1		246	44.0	2.5	/experiments/AOT/AOT_stimuli/rescaled_final/0513_rv.mp4	0.0	263.79099583625793	2.5080480575561523
46	244.52488708496094	pulse	1	t		44.0	2.5	/experiments/AOT/AOT_stimuli/rescaled_final/0513_rv.mp4	0.0	265.3838520050049	
46	245.44007897377014	fix_post	2		12	44.0	2.5	/experiments/AOT/AOT_stimuli/rescaled_final/0513_rv.mp4	0.0	266.2990438938141	0.10030007362365723
47	245.5403790473938	fix_pre	0		120	45.0	2.5	/experiments/AOT/AOT_stimuli/rescaled_final/0904_fw.mp4	0.0	266.39934396743774	0.9996440410614014
47	246.12380194664001	pulse	0	t		45.0	2.5	/experiments/AOT/AOT_stimuli/rescaled_final/0904_fw.mp4	0.0	266.98276686668396	
47	246.5400230884552	movie	1		246	45.0	2.5	/experiments/AOT/AOT_stimuli/rescaled_final/0904_fw.mp4	0.0	267.39898800849915	2.4999048709869385
47	247.7239179611206	pulse	1	t		45.0	2.5	/experiments/AOT/AOT_stimuli/rescaled_final/0904_fw.mp4	0.0	268.58288288116455	
47	249.03992795944214	fix_post	2		12	45.0	2.5	/experiments/AOT/AOT_stimuli/rescaled_final/0904_fw.mp4	0.0	269.8988928794861	0.10043001174926758
48	249.1403579711914	fix_pre	0		120	46.0	2.5	/experiments/AOT/AOT_stimuli/rescaled_final/1177_rv.mp4	0.0	269.99932289123535	0.9999690055847168
48	249.32381010055542	pulse	0	t		46.0	2.5	/experiments/AOT/AOT_stimuli/rescaled_final/1177_rv.mp4	0.0	270.18277502059937	
48	250.14032697677612	movie	1		244	46.0	2.5	/experiments/AOT/AOT_stimuli/rescaled_final/1177_rv.mp4	0.0	270.99929189682007	2.4999899864196777
48	250.92380595207214	pulse	1	t		46.0	2.5	/experiments/AOT/AOT_stimuli/rescaled_final/1177_rv.mp4	0.0	271.7827708721161	
48	252.5217320919037	pulse	1	t		46.0	2.5	/experiments/AOT/AOT_stimuli/rescaled_final/1177_rv.mp4	0.0	273.38069701194763	
48	252.6403169631958	fix_post	2		12	46.0	2.5	/experiments/AOT/AOT_stimuli/rescaled_final/1177_rv.mp4	0.0	273.49928188323975	0.09996795654296875
49	252.74028491973877	fix_pre	0		120	47.0	2.5	/experiments/AOT/AOT_stimuli/rescaled_final/0168_rv.mp4	0.0	273.5992498397827	0.9998650550842285
49	253.740149974823	movie	1		242	47.0	2.5	/experiments/AOT/AOT_stimuli/rescaled_final/0168_rv.mp4	0.0	274.59911489486694	2.500088930130005
49	254.12334489822388	pulse	1	t		47.0	2.5	/experiments/AOT/AOT_stimuli/rescaled_final/0168_rv.mp4	0.0	274.9823098182678	
49	255.72364497184753	pulse	1	t		47.0	2.5	/experiments/AOT/AOT_stimuli/rescaled_final/0168_rv.mp4	0.0	276.5826098918915	
49	256.240238904953	fix_post	2		12	47.0	2.5	/experiments/AOT/AOT_stimuli/rescaled_final/0168_rv.mp4	0.0	277.09920382499695	0.10006999969482422
50	256.3403089046478	fix_pre	0		119	48.0	2.5	blank	1.0	277.1992738246918	0.9917020797729492
50	257.32382702827454	pulse	0	t		48.0	2.5	blank	1.0	278.1827919483185	
50	257.3320109844208	movie	1		301	48.0	2.5	blank	1.0	278.1909759044647	2.5083460807800293
50	258.9238169193268	pulse	1	t		48.0	2.5	blank	1.0	279.7827818393707	
50	259.8403570652008	fix_post	2		12	48.0	2.5	blank	1.0	280.69932198524475	0.09993195533752441
51	259.94028902053833	fix_pre	0		120	49.0	2.5	/experiments/AOT/AOT_stimuli/rescaled_final/0116_fw.mp4	0.0	280.7992539405823	1.0000131130218506
51	260.5237019062042	pulse	0	t		49.0	2.5	/experiments/AOT/AOT_stimuli/rescaled_final/0116_fw.mp4	0.0	281.38266682624817	
51	260.9403021335602	movie	1		247	49.0	2.5	/experiments/AOT/AOT_stimuli/rescaled_final/0116_fw.mp4	0.0	281.7992670536041	2.49995493888855
51	262.12376594543457	pulse	1	t		49.0	2.5	/experiments/AOT/AOT_stimuli/rescaled_final/0116_fw.mp4	0.0	282.9827308654785	
51	263.44025707244873	fix_post	2		12	49.0	2.5	/experiments/AOT/AOT_stimuli/rescaled_final/0116_fw.mp4	0.0	284.2992219924927	0.10007286071777344
52	263.5403299331665	fix_pre	0		120	50.0	2.5	/experiments/AOT/AOT_stimuli/rescaled_final/1491_fw.mp4	0.0	284.39929485321045	0.9999251365661621
52	263.7236931324005	pulse	0	t		50.0	2.5	/experiments/AOT/AOT_stimuli/rescaled_final/1491_fw.mp4	0.0	284.58265805244446	
52	264.54025506973267	movie	1		246	50.0	2.5	/experiments/AOT/AOT_stimuli/rescaled_final/1491_fw.mp4	0.0	285.3992199897766	2.4999818801879883
52	265.3237109184265	pulse	1	t		50.0	2.5	/experiments/AOT/AOT_stimuli/rescaled_final/1491_fw.mp4	0.0	286.18267583847046	
52	266.91964411735535	pulse	1	t		50.0	2.5	/experiments/AOT/AOT_stimuli/rescaled_final/1491_fw.mp4	0.0	287.7786090373993	
52	267.04023694992065	fix_post	2		12	50.0	2.5	/experiments/AOT/AOT_stimuli/rescaled_final/1491_fw.mp4	0.0	287.8992018699646	0.10000014305114746
53	267.1402370929718	fix_pre	0		120	51.0	2.5	/experiments/AOT/AOT_stimuli/rescaled_final/1190_fw.mp4	0.0	287.99920201301575	1.0000338554382324
53	268.14027094841003	movie	1		243	51.0	2.5	/experiments/AOT/AOT_stimuli/rescaled_final/1190_fw.mp4	0.0	288.999235868454	2.499964952468872
53	268.5232529640198	pulse	1	t		51.0	2.5	/experiments/AOT/AOT_stimuli/rescaled_final/1190_fw.mp4	0.0	289.3822178840637	
53	270.1236550807953	pulse	1	t		51.0	2.5	/experiments/AOT/AOT_stimuli/rescaled_final/1190_fw.mp4	0.0	290.98262000083923	
53	270.6402359008789	fix_post	2		12	51.0	2.5	/experiments/AOT/AOT_stimuli/rescaled_final/1190_fw.mp4	0.0	291.49920082092285	0.0999760627746582
54	270.74021196365356	fix_pre	0		119	52.0	2.5	/experiments/AOT/AOT_stimuli/rescaled_final/0650_fw.mp4	0.0	291.5991768836975	0.9916551113128662
54	271.723690032959	pulse	0	t		52.0	2.5	/experiments/AOT/AOT_stimuli/rescaled_final/0650_fw.mp4	0.0	292.58265495300293	
54	271.73186707496643	movie	1		244	52.0	2.5	/experiments/AOT/AOT_stimuli/rescaled_final/0650_fw.mp4	0.0	292.5908319950104	2.508328914642334
54	273.324933052063	pulse	1	t		52.0	2.5	/experiments/AOT/AOT_stimuli/rescaled_final/0650_fw.mp4	0.0	294.18389797210693	
54	274.24019598960876	fix_post	2		12	52.0	2.5	/experiments/AOT/AOT_stimuli/rescaled_final/0650_fw.mp4	0.0	295.0991609096527	0.09995603561401367
55	274.3401520252228	fix_pre	0		120	53.0	2.5	/experiments/AOT/AOT_stimuli/rescaled_final/0977_fw.mp4	0.0	295.1991169452667	1.0000510215759277
55	274.923770904541	pulse	0	t		53.0	2.5	/experiments/AOT/AOT_stimuli/rescaled_final/0977_fw.mp4	0.0	295.78273582458496	
55	275.3402030467987	movie	1		246	53.0	2.5	/experiments/AOT/AOT_stimuli/rescaled_final/0977_fw.mp4	0.0	296.19916796684265	2.499898910522461
55	276.52378606796265	pulse	1	t		53.0	2.5	/experiments/AOT/AOT_stimuli/rescaled_final/0977_fw.mp4	0.0	297.3827509880066	
55	277.84010195732117	fix_post	2		12	53.0	2.5	/experiments/AOT/AOT_stimuli/rescaled_final/0977_fw.mp4	0.0	298.6990668773651	0.10002708435058594
56	277.94012904167175	fix_pre	0		120	54.0	2.5	/experiments/AOT/AOT_stimuli/rescaled_final/1732_fw.mp4	0.0	298.7990939617157	0.9999620914459229
56	278.12363505363464	pulse	0	t		54.0	2.5	/experiments/AOT/AOT_stimuli/rescaled_final/1732_fw.mp4	0.0	298.9825999736786	
56	278.9400911331177	movie	1		243	54.0	2.5	/experiments/AOT/AOT_stimuli/rescaled_final/1732_fw.mp4	0.0	299.7990560531616	2.500062942504883
56	279.72368812561035	pulse	1	t		54.0	2.5	/experiments/AOT/AOT_stimuli/rescaled_final/1732_fw.mp4	0.0	300.5826530456543	
56	281.32218503952026	pulse	1	t		54.0	2.5	/experiments/AOT/AOT_stimuli/rescaled_final/1732_fw.mp4	0.0	302.1811499595642	
56	281.44015407562256	fix_post	2		12	54.0	2.5	/experiments/AOT/AOT_stimuli/rescaled_final/1732_fw.mp4	0.0	302.2991189956665	0.09998083114624023
57	281.5401349067688	fix_pre	0		120	55.0	2.5	/experiments/AOT/AOT_stimuli/rescaled_final/1798_rv.mp4	0.0	302.39909982681274	1.0000660419464111
57	282.5402009487152	movie	1		245	55.0	2.5	/experiments/AOT/AOT_stimuli/rescaled_final/1798_rv.mp4	0.0	303.39916586875916	2.4999730587005615
57	282.9236710071564	pulse	1	t		55.0	2.5	/experiments/AOT/AOT_stimuli/rescaled_final/1798_rv.mp4	0.0	303.7826359272003	
57	284.52367401123047	pulse	1	t		55.0	2.5	/experiments/AOT/AOT_stimuli/rescaled_final/1798_rv.mp4	0.0	305.3826389312744	
57	285.04017400741577	fix_post	2		12	55.0	2.5	/experiments/AOT/AOT_stimuli/rescaled_final/1798_rv.mp4	0.0	305.8991389274597	0.10001301765441895
58	285.1401870250702	fix_pre	0		119	56.0	2.5	blank	1.0	305.99915194511414	0.9916400909423828
58	286.1236729621887	pulse	0	t		56.0	2.5	blank	1.0	306.98263788223267	
58	286.1318271160126	movie	1		301	56.0	2.5	blank	1.0	306.9907920360565	2.5083119869232178
58	287.7236399650574	pulse	1	t		56.0	2.5	blank	1.0	308.5826048851013	
58	288.6401391029358	fix_post	2		12	56.0	2.5	blank	1.0	309.49910402297974	0.10003495216369629
59	288.7401740550995	fix_pre	0		120	57.0	2.5	/experiments/AOT/AOT_stimuli/rescaled_final/1337_rv.mp4	0.0	309.59913897514343	0.9999630451202393
59	289.32365012168884	pulse	0	t		57.0	2.5	/experiments/AOT/AOT_stimuli/rescaled_final/1337_rv.mp4	0.0	310.1826150417328	
59	289.7401371002197	movie	1		243	57.0	2.5	/experiments/AOT/AOT_stimuli/rescaled_final/1337_rv.mp4	0.0	310.5991020202637	2.5000228881835938
59	290.92369413375854	pulse	1	t		57.0	2.5	/experiments/AOT/AOT_stimuli/rescaled_final/1337_rv.mp4	0.0	311.7826590538025	
59	292.2401599884033	fix_post	2		12	57.0	2.5	/experiments/AOT/AOT_stimuli/rescaled_final/1337_rv.mp4	0.0	313.09912490844727	0.09992504119873047
60	292.34008502960205	fix_pre	0		120	58.0	2.5	/experiments/AOT/AOT_stimuli/rescaled_final/1270_rv.mp4	0.0	313.199049949646	1.0001499652862549
60	292.523668050766	pulse	0	t		58.0	2.5	/experiments/AOT/AOT_stimuli/rescaled_final/1270_rv.mp4	0.0	313.38263297080994	
60	293.3402349948883	movie	1		244	58.0	2.5	/experiments/AOT/AOT_stimuli/rescaled_final/1270_rv.mp4	0.0	314.19919991493225	2.4994571208953857
60	294.1236181259155	pulse	1	t		58.0	2.5	/experiments/AOT/AOT_stimuli/rescaled_final/1270_rv.mp4	0.0	314.9825830459595	
60	295.7220311164856	pulse	1	t		58.0	2.5	/experiments/AOT/AOT_stimuli/rescaled_final/1270_rv.mp4	0.0	316.58099603652954	
60	295.8396921157837	fix_post	2		12	58.0	2.5	/experiments/AOT/AOT_stimuli/rescaled_final/1270_rv.mp4	0.0	316.69865703582764	0.10039281845092773
61	295.9400849342346	fix_pre	0		120	59.0	2.5	/experiments/AOT/AOT_stimuli/rescaled_final/1291_fw.mp4	0.0	316.79904985427856	1.0000581741333008
61	296.9401431083679	movie	1		244	59.0	2.5	/experiments/AOT/AOT_stimuli/rescaled_final/1291_fw.mp4	0.0	317.79910802841187	2.499943971633911
61	297.3232789039612	pulse	1	t		59.0	2.5	/experiments/AOT/AOT_stimuli/rescaled_final/1291_fw.mp4	0.0	318.1822438240051	
61	298.92366099357605	pulse	1	t		59.0	2.5	/experiments/AOT/AOT_stimuli/rescaled_final/1291_fw.mp4	0.0	319.78262591362	
61	299.44008708000183	fix_post	2		12	59.0	2.5	/experiments/AOT/AOT_stimuli/rescaled_final/1291_fw.mp4	0.0	320.2990520000458	0.10004901885986328
62	299.5401360988617	fix_pre	0		119	60.0	2.5	/experiments/AOT/AOT_stimuli/rescaled_final/1047_fw.mp4	0.0	320.39910101890564	0.9916739463806152
62	300.52350306510925	pulse	0	t		60.0	2.5	/experiments/AOT/AOT_stimuli/rescaled_final/1047_fw.mp4	0.0	321.3824679851532	
62	300.5318100452423	movie	1		244	60.0	2.5	/experiments/AOT/AOT_stimuli/rescaled_final/1047_fw.mp4	0.0	321.39077496528625	2.5082249641418457
62	302.12371802330017	pulse	1	t		60.0	2.5	/experiments/AOT/AOT_stimuli/rescaled_final/1047_fw.mp4	0.0	322.9826829433441	
62	303.04003500938416	fix_post	2		12	60.0	2.5	/experiments/AOT/AOT_stimuli/rescaled_final/1047_fw.mp4	0.0	323.8989999294281	0.10007905960083008
63	303.140114068985	fix_pre	0		120	61.0	2.5	/experiments/AOT/AOT_stimuli/rescaled_final/1294_fw.mp4	0.0	323.99907898902893	1.0000150203704834
63	303.7236559391022	pulse	0	t		61.0	2.5	/experiments/AOT/AOT_stimuli/rescaled_final/1294_fw.mp4	0.0	324.5826208591461	
63	304.14012908935547	movie	1		243	61.0	2.5	/experiments/AOT/AOT_stimuli/rescaled_final/1294_fw.mp4	0.0	324.9990940093994	2.5000059604644775
63	305.32373094558716	pulse	1	t		61.0	2.5	/experiments/AOT/AOT_stimuli/rescaled_final/1294_fw.mp4	0.0	326.1826958656311	
63	306.64013504981995	fix_post	2		12	61.0	2.5	/experiments/AOT/AOT_stimuli/rescaled_final/1294_fw.mp4	0.0	327.4990999698639	0.09985184669494629
64	306.7399868965149	fix_pre	0		120	62.0	2.5	/experiments/AOT/AOT_stimuli/rescaled_final/1965_rv.mp4	0.0	327.59895181655884	0.9999191761016846
64	306.9235529899597	pulse	0	t		62.0	2.5	/experiments/AOT/AOT_stimuli/rescaled_final/1965_rv.mp4	0.0	327.78251791000366	
64	307.7399060726166	movie	1		246	62.0	2.5	/experiments/AOT/AOT_stimuli/rescaled_final/1965_rv.mp4	0.0	328.5988709926605	2.4998810291290283
64	308.5230839252472	pulse	1	t		62.0	2.5	/experiments/AOT/AOT_stimuli/rescaled_final/1965_rv.mp4	0.0	329.38204884529114	
64	310.121719121933	pulse	1	t		62.0	2.5	/experiments/AOT/AOT_stimuli/rescaled_final/1965_rv.mp4	0.0	330.98068404197693	
64	310.2397871017456	fix_post	2		12	62.0	2.5	/experiments/AOT/AOT_stimuli/rescaled_final/1965_rv.mp4	0.0	331.09875202178955	0.0999748706817627
65	310.33976197242737	fix_pre	0		120	63.0	2.5	blank	1.0	331.1987268924713	1.0000851154327393
65	311.3398470878601	movie	1		300	63.0	2.5	blank	1.0	332.19881200790405	2.500213861465454
65	311.72379207611084	pulse	1	t		63.0	2.5	blank	1.0	332.5827569961548	
65	313.32348895072937	pulse	1	t		63.0	2.5	blank	1.0	334.1824538707733	
65	313.84006094932556	fix_post	2		12	63.0	2.5	blank	1.0	334.6990258693695	0.09993910789489746
66	313.94000005722046	fix_pre	0		119	64.0	2.5	/experiments/AOT/AOT_stimuli/rescaled_final/2128_rv.mp4	0.0	334.7989649772644	0.9916698932647705
66	314.9236350059509	pulse	0	t		64.0	2.5	/experiments/AOT/AOT_stimuli/rescaled_final/2128_rv.mp4	0.0	335.7825999259949	
66	314.93166995048523	movie	1		245	64.0	2.5	/experiments/AOT/AOT_stimuli/rescaled_final/2128_rv.mp4	0.0	335.7906348705292	2.508291006088257
66	316.52311992645264	pulse	1	t		64.0	2.5	/experiments/AOT/AOT_stimuli/rescaled_final/2128_rv.mp4	0.0	337.3820848464966	
66	317.4399609565735	fix_post	2		12	64.0	2.5	/experiments/AOT/AOT_stimuli/rescaled_final/2128_rv.mp4	0.0	338.29892587661743	0.09999895095825195
67	317.53995990753174	fix_pre	0		120	65.0	2.5	/experiments/AOT/AOT_stimuli/rescaled_final/0906_fw.mp4	0.0	338.3989248275757	1.0000600814819336
67	318.12338304519653	pulse	0	t		65.0	2.5	/experiments/AOT/AOT_stimuli/rescaled_final/0906_fw.mp4	0.0	338.9823479652405	
67	318.5400199890137	movie	1		246	65.0	2.5	/experiments/AOT/AOT_stimuli/rescaled_final/0906_fw.mp4	0.0	339.3989849090576	2.5000269412994385
67	319.7235209941864	pulse	1	t		65.0	2.5	/experiments/AOT/AOT_stimuli/rescaled_final/0906_fw.mp4	0.0	340.58248591423035	
67	321.0400469303131	fix_post	2		12	65.0	2.5	/experiments/AOT/AOT_stimuli/rescaled_final/0906_fw.mp4	0.0	341.89901185035706	0.09995913505554199
68	321.14000606536865	fix_pre	0		120	66.0	2.5	/experiments/AOT/AOT_stimuli/rescaled_final/1169_fw.mp4	0.0	341.9989709854126	0.9999699592590332
68	321.32340002059937	pulse	0	t		66.0	2.5	/experiments/AOT/AOT_stimuli/rescaled_final/1169_fw.mp4	0.0	342.1823649406433	
68	322.1399760246277	movie	1		244	66.0	2.5	/experiments/AOT/AOT_stimuli/rescaled_final/1169_fw.mp4	0.0	342.99894094467163	2.499569892883301
68	322.9234781265259	pulse	1	t		66.0	2.5	/experiments/AOT/AOT_stimuli/rescaled_final/1169_fw.mp4	0.0	343.7824430465698	
68	324.52190709114075	pulse	1	t		66.0	2.5	/experiments/AOT/AOT_stimuli/rescaled_final/1169_fw.mp4	0.0	345.3808720111847	
68	324.639545917511	fix_post	2		12	66.0	2.5	/experiments/AOT/AOT_stimuli/rescaled_final/1169_fw.mp4	0.0	345.49851083755493	0.10045719146728516
69	324.74000310897827	fix_pre	0		120	67.0	2.5	/experiments/AOT/AOT_stimuli/rescaled_final/1094_rv.mp4	0.0	345.5989680290222	0.9999499320983887
69	325.73995304107666	movie	1		245	67.0	2.5	/experiments/AOT/AOT_stimuli/rescaled_final/1094_rv.mp4	0.0	346.5989179611206	2.500105857849121
69	326.1229250431061	pulse	1	t		67.0	2.5	/experiments/AOT/AOT_stimuli/rescaled_final/1094_rv.mp4	0.0	346.98188996315	
69	327.72359704971313	pulse	1	t		67.0	2.5	/experiments/AOT/AOT_stimuli/rescaled_final/1094_rv.mp4	0.0	348.5825619697571	
69	328.2400588989258	fix_post	2		12	67.0	2.5	/experiments/AOT/AOT_stimuli/rescaled_final/1094_rv.mp4	0.0	349.0990238189697	0.09992408752441406
70	328.3399829864502	fix_pre	0		119	68.0	2.5	blank	1.0	349.19894790649414	0.9916560649871826
70	329.3234429359436	pulse	0	t		68.0	2.5	blank	1.0	350.18240785598755	
70	329.3316390514374	movie	1		301	68.0	2.5	blank	1.0	350.1906039714813	2.5083489418029785
70	330.9234309196472	pulse	1	t		68.0	2.5	blank	1.0	351.78239583969116	
70	331.83998799324036	fix_post	2		12	68.0	2.5	blank	1.0	352.6989529132843	0.10000300407409668
71	331.93999099731445	fix_pre	0		120	69.0	2.5	/experiments/AOT/AOT_stimuli/rescaled_final/1732_rv.mp4	0.0	352.7989559173584	0.9999511241912842
71	332.523540019989	pulse	0	t		69.0	2.5	/experiments/AOT/AOT_stimuli/rescaled_final/1732_rv.mp4	0.0	353.38250494003296	
71	332.93994212150574	movie	1		243	69.0	2.5	/experiments/AOT/AOT_stimuli/rescaled_final/1732_rv.mp4	0.0	353.7989070415497	2.499675989151001
71	334.12352299690247	pulse	1	t		69.0	2.5	/experiments/AOT/AOT_stimuli/rescaled_final/1732_rv.mp4	0.0	354.9824879169464	
71	335.43961811065674	fix_post	2		12	69.0	2.5	/experiments/AOT/AOT_stimuli/rescaled_final/1732_rv.mp4	0.0	356.2985830307007	0.10031890869140625
72	335.53993701934814	fix_pre	0		120	70.0	2.5	/experiments/AOT/AOT_stimuli/rescaled_final/0140_rv.mp4	0.0	356.3989019393921	0.99993896484375
72	335.7234869003296	pulse	0	t		70.0	2.5	/experiments/AOT/AOT_stimuli/rescaled_final/0140_rv.mp4	0.0	356.58245182037354	
72	336.5398759841919	movie	1		244	70.0	2.5	/experiments/AOT/AOT_stimuli/rescaled_final/0140_rv.mp4	0.0	357.39884090423584	2.499575138092041
72	337.3234269618988	pulse	1	t		70.0	2.5	/experiments/AOT/AOT_stimuli/rescaled_final/0140_rv.mp4	0.0	358.18239188194275	
72	338.92247796058655	pulse	1	t		70.0	2.5	/experiments/AOT/AOT_stimuli/rescaled_final/0140_rv.mp4	0.0	359.7814428806305	
72	339.03945112228394	fix_post	2		12	70.0	2.5	/experiments/AOT/AOT_stimuli/rescaled_final/0140_rv.mp4	0.0	359.8984160423279	0.10043978691101074
73	339.13989090919495	fix_pre	0		120	71.0	2.5	/experiments/AOT/AOT_stimuli/rescaled_final/0579_rv.mp4	0.0	359.9988558292389	1.0000250339508057
73	340.13991594314575	movie	1		242	71.0	2.5	/experiments/AOT/AOT_stimuli/rescaled_final/0579_rv.mp4	0.0	360.9988808631897	2.4999921321868896
73	340.52325797080994	pulse	1	t		71.0	2.5	/experiments/AOT/AOT_stimuli/rescaled_final/0579_rv.mp4	0.0	361.3822228908539	
73	342.12336897850037	pulse	1	t		71.0	2.5	/experiments/AOT/AOT_stimuli/rescaled_final/0579_rv.mp4	0.0	362.9823338985443	
73	342.63990807533264	fix_post	2		12	71.0	2.5	/experiments/AOT/AOT_stimuli/rescaled_final/0579_rv.mp4	0.0	363.4988729953766	0.10002493858337402
74	342.739933013916	fix_pre	0		119	72.0	2.5	/experiments/AOT/AOT_stimuli/rescaled_final/0735_fw.mp4	0.0	363.59889793395996	0.991584062576294
74	343.72340202331543	pulse	0	t		72.0	2.5	/experiments/AOT/AOT_stimuli/rescaled_final/0735_fw.mp4	0.0	364.5823669433594	
74	343.7315170764923	movie	1		246	72.0	2.5	/experiments/AOT/AOT_stimuli/rescaled_final/0735_fw.mp4	0.0	364.59048199653625	2.508405923843384
74	345.3247859477997	pulse	1	t		72.0	2.5	/experiments/AOT/AOT_stimuli/rescaled_final/0735_fw.mp4	0.0	366.1837508678436	
74	346.2399230003357	fix_post	2		12	72.0	2.5	/experiments/AOT/AOT_stimuli/rescaled_final/0735_fw.mp4	0.0	367.09888792037964	0.0999290943145752
75	346.33985209465027	fix_pre	0		120	73.0	2.5	/experiments/AOT/AOT_stimuli/rescaled_final/2053_rv.mp4	0.0	367.1988170146942	0.9999189376831055
75	346.92471194267273	pulse	0	t		73.0	2.5	/experiments/AOT/AOT_stimuli/rescaled_final/2053_rv.mp4	0.0	367.7836768627167	
75	347.3397710323334	movie	1		246	73.0	2.5	/experiments/AOT/AOT_stimuli/rescaled_final/2053_rv.mp4	0.0	368.1987359523773	2.4996509552001953
75	348.52346301078796	pulse	1	t		73.0	2.5	/experiments/AOT/AOT_stimuli/rescaled_final/2053_rv.mp4	0.0	369.3824279308319	
75	349.83942198753357	fix_post	2		12	73.0	2.5	/experiments/AOT/AOT_stimuli/rescaled_final/2053_rv.mp4	0.0	370.6983869075775	0.1004171371459961
76	349.93983912467957	fix_pre	0		120	74.0	2.5	/experiments/AOT/AOT_stimuli/rescaled_final/0375_rv.mp4	0.0	370.7988040447235	0.9999690055847168
76	350.1233949661255	pulse	0	t		74.0	2.5	/experiments/AOT/AOT_stimuli/rescaled_final/0375_rv.mp4	0.0	370.98235988616943	
76	350.9398081302643	movie	1		246	74.0	2.5	/experiments/AOT/AOT_stimuli/rescaled_final/0375_rv.mp4	0.0	371.7987730503082	2.5000438690185547
76	351.7233190536499	pulse	1	t		74.0	2.5	/experiments/AOT/AOT_stimuli/rescaled_final/0375_rv.mp4	0.0	372.58228397369385	
76	353.32206892967224	pulse	1	t		74.0	2.5	/experiments/AOT/AOT_stimuli/rescaled_final/0375_rv.mp4	0.0	374.1810338497162	
76	353.43985199928284	fix_post	2		12	74.0	2.5	/experiments/AOT/AOT_stimuli/rescaled_final/0375_rv.mp4	0.0	374.2988169193268	0.09993600845336914
77	353.5397880077362	fix_pre	0		120	75.0	2.5	blank	1.0	374.39875292778015	1.000049114227295
77	354.5398371219635	movie	1		300	75.0	2.5	blank	1.0	375.39880204200745	2.499943971633911
77	354.9234781265259	pulse	1	t		75.0	2.5	blank	1.0	375.7824430465698	
77	356.52333092689514	pulse	1	t		75.0	2.5	blank	1.0	377.3822958469391	
77	357.0397810935974	fix_post	2		12	75.0	2.5	blank	1.0	377.89874601364136	0.10005784034729004
78	357.1398389339447	fix_pre	0		119	76.0	2.5	/experiments/AOT/AOT_stimuli/rescaled_final/1025_rv.mp4	0.0	377.99880385398865	0.9915690422058105
78	358.1232650279999	pulse	0	t		76.0	2.5	/experiments/AOT/AOT_stimuli/rescaled_final/1025_rv.mp4	0.0	378.9822299480438	
78	358.1314079761505	movie	1		244	76.0	2.5	/experiments/AOT/AOT_stimuli/rescaled_final/1025_rv.mp4	0.0	378.99037289619446	2.5083630084991455
78	359.72327303886414	pulse	1	t		76.0	2.5	/experiments/AOT/AOT_stimuli/rescaled_final/1025_rv.mp4	0.0	380.5822379589081	
78	360.63977098464966	fix_post	2		12	76.0	2.5	/experiments/AOT/AOT_stimuli/rescaled_final/1025_rv.mp4	0.0	381.4987359046936	0.09996509552001953
79	360.7397360801697	fix_pre	0		120	77.0	2.5	/experiments/AOT/AOT_stimuli/rescaled_final/1384_rv.mp4	0.0	381.5987010002136	0.99971604347229
79	361.32333111763	pulse	0	t		77.0	2.5	/experiments/AOT/AOT_stimuli/rescaled_final/1384_rv.mp4	0.0	382.18229603767395	
79	361.73945212364197	movie	1		243	77.0	2.5	/experiments/AOT/AOT_stimuli/rescaled_final/1384_rv.mp4	0.0	382.5984170436859	2.4999117851257324
79	362.92335295677185	pulse	1	t		77.0	2.5	/experiments/AOT/AOT_stimuli/rescaled_final/1384_rv.mp4	0.0	383.7823178768158	
79	364.2393639087677	fix_post	2		12	77.0	2.5	/experiments/AOT/AOT_stimuli/rescaled_final/1384_rv.mp4	0.0	385.09832882881165	0.10000920295715332
80	364.33937311172485	fix_pre	0		120	78.0	2.5	/experiments/AOT/AOT_stimuli/rescaled_final/1872_rv.mp4	0.0	385.1983380317688	0.9999728202819824
80	364.5228419303894	pulse	0	t		78.0	2.5	/experiments/AOT/AOT_stimuli/rescaled_final/1872_rv.mp4	0.0	385.38180685043335	
80	365.33934593200684	movie	1		243	78.0	2.5	/experiments/AOT/AOT_stimuli/rescaled_final/1872_rv.mp4	0.0	386.1983108520508	2.5004689693450928
80	366.1229009628296	pulse	1	t		78.0	2.5	/experiments/AOT/AOT_stimuli/rescaled_final/1872_rv.mp4	0.0	386.98186588287354	
80	367.72233510017395	pulse	1	t		78.0	2.5	/experiments/AOT/AOT_stimuli/rescaled_final/1872_rv.mp4	0.0	388.5813000202179	
80	367.83981490135193	fix_post	2		12	78.0	2.5	/experiments/AOT/AOT_stimuli/rescaled_final/1872_rv.mp4	0.0	388.6987798213959	0.09992122650146484
81	367.9397361278534	fix_pre	0		120	79.0	2.5	/experiments/AOT/AOT_stimuli/rescaled_final/0460_fw.mp4	0.0	388.79870104789734	1.0001258850097656
81	368.93986201286316	movie	1		243	79.0	2.5	/experiments/AOT/AOT_stimuli/rescaled_final/0460_fw.mp4	0.0	389.7988269329071	2.499825954437256
81	369.32434701919556	pulse	1	t		79.0	2.5	/experiments/AOT/AOT_stimuli/rescaled_final/0460_fw.mp4	0.0	390.1833119392395	
81	370.92330598831177	pulse	1	t		79.0	2.5	/experiments/AOT/AOT_stimuli/rescaled_final/0460_fw.mp4	0.0	391.7822709083557	
81	371.4396879673004	fix_post	2		12	79.0	2.5	/experiments/AOT/AOT_stimuli/rescaled_final/0460_fw.mp4	0.0	392.29865288734436	0.10005807876586914
82	371.5397460460663	fix_pre	0		119	80.0	2.5	/experiments/AOT/AOT_stimuli/rescaled_final/0463_rv.mp4	0.0	392.39871096611023	0.9917089939117432
82	372.52332496643066	pulse	0	t		80.0	2.5	/experiments/AOT/AOT_stimuli/rescaled_final/0463_rv.mp4	0.0	393.3822898864746	
82	372.531455039978	movie	1		247	80.0	2.5	/experiments/AOT/AOT_stimuli/rescaled_final/0463_rv.mp4	0.0	393.390419960022	2.5082690715789795
82	374.12282490730286	pulse	1	t		80.0	2.5	/experiments/AOT/AOT_stimuli/rescaled_final/0463_rv.mp4	0.0	394.9817898273468	
82	375.039724111557	fix_post	2		12	80.0	2.5	/experiments/AOT/AOT_stimuli/rescaled_final/0463_rv.mp4	0.0	395.89868903160095	0.0999298095703125
83	375.1396539211273	fix_pre	0		120	81.0	2.5	/experiments/AOT/AOT_stimuli/rescaled_final/2047_fw.mp4	0.0	395.99861884117126	1.0001051425933838
83	375.7232060432434	pulse	0	t		81.0	2.5	/experiments/AOT/AOT_stimuli/rescaled_final/2047_fw.mp4	0.0	396.58217096328735	
83	376.1397590637207	movie	1		247	81.0	2.5	/experiments/AOT/AOT_stimuli/rescaled_final/2047_fw.mp4	0.0	396.99872398376465	2.4998779296875
83	377.32322001457214	pulse	1	t		81.0	2.5	/experiments/AOT/AOT_stimuli/rescaled_final/2047_fw.mp4	0.0	398.1821849346161	
83	378.6396369934082	fix_post	2		12	81.0	2.5	/experiments/AOT/AOT_stimuli/rescaled_final/2047_fw.mp4	0.0	399.49860191345215	0.10003495216369629
84	378.7396719455719	fix_pre	0		120	82.0	2.5	/experiments/AOT/AOT_stimuli/rescaled_final/1106_fw.mp4	0.0	399.59863686561584	1.0000131130218506
84	378.92322611808777	pulse	0	t		82.0	2.5	/experiments/AOT/AOT_stimuli/rescaled_final/1106_fw.mp4	0.0	399.7821910381317	
84	379.73968505859375	movie	1		243	82.0	2.5	/experiments/AOT/AOT_stimuli/rescaled_final/1106_fw.mp4	0.0	400.5986499786377	2.5001070499420166
84	380.52304911613464	pulse	1	t		82.0	2.5	/experiments/AOT/AOT_stimuli/rescaled_final/1106_fw.mp4	0.0	401.3820140361786	
84	382.12178802490234	pulse	1	t		82.0	2.5	/experiments/AOT/AOT_stimuli/rescaled_final/1106_fw.mp4	0.0	402.9807529449463	
84	382.23979210853577	fix_post	2		12	82.0	2.5	/experiments/AOT/AOT_stimuli/rescaled_final/1106_fw.mp4	0.0	403.0987570285797	0.0998389720916748
85	382.33963108062744	fix_pre	0		120	83.0	2.5	blank	1.0	403.1985960006714	1.0000309944152832
85	383.3396620750427	movie	1		300	83.0	2.5	blank	1.0	404.19862699508667	2.4999380111694336
85	383.72318506240845	pulse	1	t		83.0	2.5	blank	1.0	404.5821499824524	
85	385.3232469558716	pulse	1	t		83.0	2.5	blank	1.0	406.1822118759155	
85	385.83960008621216	fix_post	2		12	83.0	2.5	blank	1.0	406.6985650062561	0.1000368595123291
87	385.9396369457245	stim	0		1716					406.79860186576843	14.300008058547974
87	386.92314100265503	pulse	0	t						407.782105922699	
87	388.52312994003296	pulse	0	t						409.3820948600769	
87	390.12315607070923	pulse	0	t						410.9821209907532	
87	391.7231230735779	pulse	0	t						412.5820879936218	
87	393.3231611251831	pulse	0	t						414.18212604522705	
87	394.92310404777527	pulse	0	t						415.7820689678192	
87	396.5231170654297	pulse	0	t						417.38208198547363	
87	398.1231060028076	pulse	0	t						418.98207092285156	
87	399.7231330871582	pulse	0	t						420.58209800720215	
