trial_nr	onset	event_type	phase	response	nr_frames	movie_index	movie_duration	movie_file	blank	onset_abs	duration
0	0.1665503978729248	stim	0		95					18.043309450149536	0.7915990352630615
0	0.9500586986541748	response	0	space						18.826817750930786	
1	0.9581494331359863	stim	0		4329					18.834908485412598	36.09228205680847
1	37.03957939147949	pulse	0	t						54.9163384437561	
1	37.05043148994446	stim	1		1715					54.92719054222107	14.30710744857788
1	38.63070321083069	pulse	1	t						56.5074622631073	
1	40.230990171432495	pulse	1	t						58.107749223709106	
1	41.83114671707153	pulse	1	t						59.707905769348145	
1	43.431464433670044	pulse	1	t						61.308223485946655	
1	45.031628131866455	pulse	1	t						62.908387184143066	
1	46.631935834884644	pulse	1	t						64.50869488716125	
1	48.23215889930725	pulse	1	t						66.10891795158386	
1	49.83234453201294	pulse	1	t						67.70910358428955	
2	51.35753893852234	fix_pre	0		10	0.0	2.5	/experiments/Knapen_AOT/AOT_stimuli/rescaled_final/0780_rv.mp4	0.0	69.23429799079895	0.10000252723693848
2	51.43261408805847	pulse	0	t		0.0	2.5	/experiments/Knapen_AOT/AOT_stimuli/rescaled_final/0780_rv.mp4	0.0	69.30937314033508	
2	51.45754146575928	movie	1		292	0.0	2.5	/experiments/Knapen_AOT/AOT_stimuli/rescaled_final/0780_rv.mp4	0.0	69.33430051803589	2.491945266723633
2	53.03154802322388	pulse	1	t		0.0	2.5	/experiments/Knapen_AOT/AOT_stimuli/rescaled_final/0780_rv.mp4	0.0	70.90830707550049	
2	53.94948673248291	fix_post	2		12	0.0	2.5	/experiments/Knapen_AOT/AOT_stimuli/rescaled_final/0780_rv.mp4	0.0	71.82624578475952	0.10002374649047852
3	54.04951047897339	fix_pre	0		120	1.0	2.5	/experiments/Knapen_AOT/AOT_stimuli/rescaled_final/0744_rv.mp4	0.0	71.92626953125	1.0084974765777588
3	54.6332004070282	pulse	0	t		1.0	2.5	/experiments/Knapen_AOT/AOT_stimuli/rescaled_final/0744_rv.mp4	0.0	72.50995945930481	
3	55.05800795555115	movie	1		287	1.0	2.5	/experiments/Knapen_AOT/AOT_stimuli/rescaled_final/0744_rv.mp4	0.0	72.93476700782776	2.492027521133423
3	56.23233771324158	pulse	1	t		1.0	2.5	/experiments/Knapen_AOT/AOT_stimuli/rescaled_final/0744_rv.mp4	0.0	74.10909676551819	
3	57.55003547668457	fix_post	2		12	1.0	2.5	/experiments/Knapen_AOT/AOT_stimuli/rescaled_final/0744_rv.mp4	0.0	75.42679452896118	0.10001587867736816
4	57.65005135536194	fix_pre	0		120	2.0	2.5	/experiments/Knapen_AOT/AOT_stimuli/rescaled_final/1044_fw.mp4	0.0	75.52681040763855	1.008540391921997
4	57.83360934257507	pulse	0	t		2.0	2.5	/experiments/Knapen_AOT/AOT_stimuli/rescaled_final/1044_fw.mp4	0.0	75.71036839485168	
4	58.658591747283936	movie	1		280	2.0	2.5	/experiments/Knapen_AOT/AOT_stimuli/rescaled_final/1044_fw.mp4	0.0	76.53535079956055	2.4919793605804443
4	59.43181228637695	pulse	1	t		2.0	2.5	/experiments/Knapen_AOT/AOT_stimuli/rescaled_final/1044_fw.mp4	0.0	77.30857133865356	
4	61.03346633911133	pulse	1	t		2.0	2.5	/experiments/Knapen_AOT/AOT_stimuli/rescaled_final/1044_fw.mp4	0.0	78.91022539138794	
4	61.15057110786438	fix_post	2		12	2.0	2.5	/experiments/Knapen_AOT/AOT_stimuli/rescaled_final/1044_fw.mp4	0.0	79.02733016014099	0.10002565383911133
5	61.25059676170349	fix_pre	0		120	3.0	2.5	/experiments/Knapen_AOT/AOT_stimuli/rescaled_final/1684_fw.mp4	0.0	79.1273558139801	1.0084891319274902
5	62.25908589363098	movie	1		275	3.0	2.5	/experiments/Knapen_AOT/AOT_stimuli/rescaled_final/1684_fw.mp4	0.0	80.13584494590759	2.492032289505005
5	62.632463693618774	pulse	1	t		3.0	2.5	/experiments/Knapen_AOT/AOT_stimuli/rescaled_final/1684_fw.mp4	0.0	80.50922274589539	
5	64.23246026039124	pulse	1	t		3.0	2.5	/experiments/Knapen_AOT/AOT_stimuli/rescaled_final/1684_fw.mp4	0.0	82.10921931266785	
5	64.75111818313599	fix_post	2		12	3.0	2.5	/experiments/Knapen_AOT/AOT_stimuli/rescaled_final/1684_fw.mp4	0.0	82.6278772354126	0.10003232955932617
6	64.85115051269531	fix_pre	0		119	4.0	2.5	/experiments/Knapen_AOT/AOT_stimuli/rescaled_final/1648_fw.mp4	0.0	82.72790956497192	1.0001397132873535
6	65.83490777015686	pulse	0	t		4.0	2.5	/experiments/Knapen_AOT/AOT_stimuli/rescaled_final/1648_fw.mp4	0.0	83.71166682243347	
6	65.85129022598267	movie	1		295	4.0	2.5	/experiments/Knapen_AOT/AOT_stimuli/rescaled_final/1648_fw.mp4	0.0	83.72804927825928	2.500380754470825
6	67.43345475196838	pulse	1	t		4.0	2.5	/experiments/Knapen_AOT/AOT_stimuli/rescaled_final/1648_fw.mp4	0.0	85.310213804245	
6	68.35167098045349	fix_post	2		12	4.0	2.5	/experiments/Knapen_AOT/AOT_stimuli/rescaled_final/1648_fw.mp4	0.0	86.2284300327301	0.1000053882598877
7	68.45167636871338	fix_pre	0		120	5.0	2.5	/experiments/Knapen_AOT/AOT_stimuli/rescaled_final/1077_fw.mp4	0.0	86.32843542098999	1.0085370540618896
7	69.0353536605835	pulse	0	t		5.0	2.5	/experiments/Knapen_AOT/AOT_stimuli/rescaled_final/1077_fw.mp4	0.0	86.91211271286011	
7	69.46021342277527	movie	1		276	5.0	2.5	/experiments/Knapen_AOT/AOT_stimuli/rescaled_final/1077_fw.mp4	0.0	87.33697247505188	2.49198842048645
7	70.63357949256897	pulse	1	t		5.0	2.5	/experiments/Knapen_AOT/AOT_stimuli/rescaled_final/1077_fw.mp4	0.0	88.51033854484558	
7	71.95220184326172	fix_post	2		12	5.0	2.5	/experiments/Knapen_AOT/AOT_stimuli/rescaled_final/1077_fw.mp4	0.0	89.82896089553833	0.10001111030578613
8	72.0522129535675	fix_pre	0		120	6.0	2.5	/experiments/Knapen_AOT/AOT_stimuli/rescaled_final/1079_fw.mp4	0.0	89.92897200584412	1.0084943771362305
8	72.23592138290405	pulse	0	t		6.0	2.5	/experiments/Knapen_AOT/AOT_stimuli/rescaled_final/1079_fw.mp4	0.0	90.11268043518066	
8	73.06070733070374	movie	1		289	6.0	2.5	/experiments/Knapen_AOT/AOT_stimuli/rescaled_final/1079_fw.mp4	0.0	90.93746638298035	2.4920437335968018
8	73.83426189422607	pulse	1	t		6.0	2.5	/experiments/Knapen_AOT/AOT_stimuli/rescaled_final/1079_fw.mp4	0.0	91.71102094650269	
8	75.42820572853088	pulse	1	t		6.0	2.5	/experiments/Knapen_AOT/AOT_stimuli/rescaled_final/1079_fw.mp4	0.0	93.3049647808075	
8	75.55275106430054	fix_post	2		12	6.0	2.5	/experiments/Knapen_AOT/AOT_stimuli/rescaled_final/1079_fw.mp4	0.0	93.42951011657715	0.10003447532653809
9	75.65278553962708	fix_pre	0		120	7.0	2.5	blank	1.0	93.52954459190369	1.0001332759857178
9	76.6529188156128	movie	1		300	7.0	2.5	blank	1.0	94.5296778678894	2.500356435775757
9	77.02831649780273	pulse	1	t		7.0	2.5	blank	1.0	94.90507555007935	
9	78.62842655181885	pulse	1	t		7.0	2.5	blank	1.0	96.50518560409546	
9	79.15327525138855	fix_post	2		12	7.0	2.5	blank	1.0	97.03003430366516	0.10003161430358887
10	79.25330686569214	fix_pre	0		118	8.0	2.5	/experiments/Knapen_AOT/AOT_stimuli/rescaled_final/1543_fw.mp4	0.0	97.13006591796875	0.9918951988220215
10	80.22871804237366	pulse	0	t		8.0	2.5	/experiments/Knapen_AOT/AOT_stimuli/rescaled_final/1543_fw.mp4	0.0	98.10547709465027	
10	80.24520206451416	movie	1		281	8.0	2.5	/experiments/Knapen_AOT/AOT_stimuli/rescaled_final/1543_fw.mp4	0.0	98.12196111679077	2.5003042221069336
10	81.82903623580933	pulse	1	t		8.0	2.5	/experiments/Knapen_AOT/AOT_stimuli/rescaled_final/1543_fw.mp4	0.0	99.70579528808594	
10	82.7455062866211	fix_post	2		12	8.0	2.5	/experiments/Knapen_AOT/AOT_stimuli/rescaled_final/1543_fw.mp4	0.0	100.6222653388977	0.10000801086425781
11	82.84551429748535	fix_pre	0		120	9.0	2.5	/experiments/Knapen_AOT/AOT_stimuli/rescaled_final/0869_fw.mp4	0.0	100.72227334976196	1.0084996223449707
11	83.42962670326233	pulse	0	t		9.0	2.5	/experiments/Knapen_AOT/AOT_stimuli/rescaled_final/0869_fw.mp4	0.0	101.30638575553894	
11	83.85401391983032	movie	1		280	9.0	2.5	/experiments/Knapen_AOT/AOT_stimuli/rescaled_final/0869_fw.mp4	0.0	101.73077297210693	2.492025375366211
11	85.02932715415955	pulse	1	t		9.0	2.5	/experiments/Knapen_AOT/AOT_stimuli/rescaled_final/0869_fw.mp4	0.0	102.90608620643616	
11	86.34603929519653	fix_post	2		12	9.0	2.5	/experiments/Knapen_AOT/AOT_stimuli/rescaled_final/0869_fw.mp4	0.0	104.22279834747314	0.10001826286315918
12	86.44605755805969	fix_pre	0		120	10.0	2.5	/experiments/Knapen_AOT/AOT_stimuli/rescaled_final/1146_fw.mp4	0.0	104.3228166103363	1.008512258529663
12	86.6295976638794	pulse	0	t		10.0	2.5	/experiments/Knapen_AOT/AOT_stimuli/rescaled_final/1146_fw.mp4	0.0	104.506356716156	
12	87.45456981658936	movie	1		285	10.0	2.5	/experiments/Knapen_AOT/AOT_stimuli/rescaled_final/1146_fw.mp4	0.0	105.33132886886597	2.4920339584350586
12	88.2297933101654	pulse	1	t		10.0	2.5	/experiments/Knapen_AOT/AOT_stimuli/rescaled_final/1146_fw.mp4	0.0	106.10655236244202	
12	89.82880067825317	pulse	1	t		10.0	2.5	/experiments/Knapen_AOT/AOT_stimuli/rescaled_final/1146_fw.mp4	0.0	107.70555973052979	
12	89.94660377502441	fix_post	2		12	10.0	2.5	/experiments/Knapen_AOT/AOT_stimuli/rescaled_final/1146_fw.mp4	0.0	107.82336282730103	0.10000348091125488
13	90.04660725593567	fix_pre	0		120	11.0	2.5	/experiments/Knapen_AOT/AOT_stimuli/rescaled_final/1888_fw.mp4	0.0	107.92336630821228	1.0084786415100098
13	91.05508589744568	movie	1		286	11.0	2.5	/experiments/Knapen_AOT/AOT_stimuli/rescaled_final/1888_fw.mp4	0.0	108.93184494972229	2.4922146797180176
13	91.42839026451111	pulse	1	t		11.0	2.5	/experiments/Knapen_AOT/AOT_stimuli/rescaled_final/1888_fw.mp4	0.0	109.30514931678772	
13	93.02822399139404	pulse	1	t		11.0	2.5	/experiments/Knapen_AOT/AOT_stimuli/rescaled_final/1888_fw.mp4	0.0	110.90498304367065	
13	93.5473005771637	fix_post	2		12	11.0	2.5	/experiments/Knapen_AOT/AOT_stimuli/rescaled_final/1888_fw.mp4	0.0	111.42405962944031	0.09988784790039062
14	93.64718842506409	fix_pre	0		119	12.0	2.5	/experiments/Knapen_AOT/AOT_stimuli/rescaled_final/1014_rv.mp4	0.0	111.5239474773407	1.0001389980316162
14	94.63092947006226	pulse	0	t		12.0	2.5	/experiments/Knapen_AOT/AOT_stimuli/rescaled_final/1014_rv.mp4	0.0	112.50768852233887	
14	94.6473274230957	movie	1		288	12.0	2.5	/experiments/Knapen_AOT/AOT_stimuli/rescaled_final/1014_rv.mp4	0.0	112.52408647537231	2.5004079341888428
14	96.22937870025635	pulse	1	t		12.0	2.5	/experiments/Knapen_AOT/AOT_stimuli/rescaled_final/1014_rv.mp4	0.0	114.10613775253296	
14	97.14773535728455	fix_post	2		12	12.0	2.5	/experiments/Knapen_AOT/AOT_stimuli/rescaled_final/1014_rv.mp4	0.0	115.02449440956116	0.0999605655670166
15	97.24769592285156	fix_pre	0		120	13.0	2.5	/experiments/Knapen_AOT/AOT_stimuli/rescaled_final/0869_fw.mp4	0.0	115.12445497512817	1.0084686279296875
15	97.83127188682556	pulse	0	t		13.0	2.5	/experiments/Knapen_AOT/AOT_stimuli/rescaled_final/0869_fw.mp4	0.0	115.70803093910217	
15	98.25616455078125	movie	1		281	13.0	2.5	/experiments/Knapen_AOT/AOT_stimuli/rescaled_final/0869_fw.mp4	0.0	116.13292360305786	2.492042303085327
15	99.42959904670715	pulse	1	t		13.0	2.5	/experiments/Knapen_AOT/AOT_stimuli/rescaled_final/0869_fw.mp4	0.0	117.30635809898376	
15	100.74820685386658	fix_post	2		12	13.0	2.5	/experiments/Knapen_AOT/AOT_stimuli/rescaled_final/0869_fw.mp4	0.0	118.62496590614319	0.10001277923583984
16	100.84821963310242	fix_pre	0		120	14.0	2.5	blank	1.0	118.72497868537903	1.0001964569091797
16	101.03196573257446	pulse	0	t		14.0	2.5	blank	1.0	118.90872478485107	
16	101.8484160900116	movie	1		300	14.0	2.5	blank	1.0	119.72517514228821	2.5003695487976074
16	102.63200235366821	pulse	1	t		14.0	2.5	blank	1.0	120.50876140594482	
16	104.23227143287659	pulse	1	t		14.0	2.5	blank	1.0	122.1090304851532	
16	104.3487856388092	fix_post	2		12	14.0	2.5	blank	1.0	122.22554469108582	0.10000729560852051
17	104.44879293441772	fix_pre	0		120	15.0	2.5	/experiments/Knapen_AOT/AOT_stimuli/rescaled_final/1724_fw.mp4	0.0	122.32555198669434	1.0085020065307617
17	105.45729494094849	movie	1		287	15.0	2.5	/experiments/Knapen_AOT/AOT_stimuli/rescaled_final/1724_fw.mp4	0.0	123.3340539932251	2.4920151233673096
17	105.83097887039185	pulse	1	t		15.0	2.5	/experiments/Knapen_AOT/AOT_stimuli/rescaled_final/1724_fw.mp4	0.0	123.70773792266846	
17	107.43069171905518	pulse	1	t		15.0	2.5	/experiments/Knapen_AOT/AOT_stimuli/rescaled_final/1724_fw.mp4	0.0	125.30745077133179	
17	107.9493100643158	fix_post	2		12	15.0	2.5	/experiments/Knapen_AOT/AOT_stimuli/rescaled_final/1724_fw.mp4	0.0	125.82606911659241	0.09999346733093262
18	108.04930353164673	fix_pre	0		119	16.0	2.5	/experiments/Knapen_AOT/AOT_stimuli/rescaled_final/0042_fw.mp4	0.0	125.92606258392334	1.0001707077026367
18	109.03297877311707	pulse	0	t		16.0	2.5	/experiments/Knapen_AOT/AOT_stimuli/rescaled_final/0042_fw.mp4	0.0	126.90973782539368	
18	109.04947423934937	movie	1		297	16.0	2.5	/experiments/Knapen_AOT/AOT_stimuli/rescaled_final/0042_fw.mp4	0.0	126.92623329162598	2.5003862380981445
18	110.6317241191864	pulse	1	t		16.0	2.5	/experiments/Knapen_AOT/AOT_stimuli/rescaled_final/0042_fw.mp4	0.0	128.508483171463	
18	111.54986047744751	fix_post	2		12	16.0	2.5	/experiments/Knapen_AOT/AOT_stimuli/rescaled_final/0042_fw.mp4	0.0	129.42661952972412	0.10011529922485352
19	111.64997577667236	fix_pre	0		120	17.0	2.5	/experiments/Knapen_AOT/AOT_stimuli/rescaled_final/0564_fw.mp4	0.0	129.52673482894897	1.0083732604980469
19	112.23346948623657	pulse	0	t		17.0	2.5	/experiments/Knapen_AOT/AOT_stimuli/rescaled_final/0564_fw.mp4	0.0	130.11022853851318	
19	112.65834903717041	movie	1		286	17.0	2.5	/experiments/Knapen_AOT/AOT_stimuli/rescaled_final/0564_fw.mp4	0.0	130.53510808944702	2.4920132160186768
19	113.83192801475525	pulse	1	t		17.0	2.5	/experiments/Knapen_AOT/AOT_stimuli/rescaled_final/0564_fw.mp4	0.0	131.70868706703186	
19	115.15036225318909	fix_post	2		12	17.0	2.5	/experiments/Knapen_AOT/AOT_stimuli/rescaled_final/0564_fw.mp4	0.0	133.0271213054657	0.10002803802490234
20	115.25039029121399	fix_pre	0		120	18.0	2.5	/experiments/Knapen_AOT/AOT_stimuli/rescaled_final/1543_fw.mp4	0.0	133.1271493434906	1.0085148811340332
20	115.43400359153748	pulse	0	t		18.0	2.5	/experiments/Knapen_AOT/AOT_stimuli/rescaled_final/1543_fw.mp4	0.0	133.3107626438141	
20	116.25890517234802	movie	1		284	18.0	2.5	/experiments/Knapen_AOT/AOT_stimuli/rescaled_final/1543_fw.mp4	0.0	134.13566422462463	2.4920170307159424
20	117.0320475101471	pulse	1	t		18.0	2.5	/experiments/Knapen_AOT/AOT_stimuli/rescaled_final/1543_fw.mp4	0.0	134.9088065624237	
20	118.63255214691162	pulse	1	t		18.0	2.5	/experiments/Knapen_AOT/AOT_stimuli/rescaled_final/1543_fw.mp4	0.0	136.50931119918823	
20	118.75092220306396	fix_post	2		12	18.0	2.5	/experiments/Knapen_AOT/AOT_stimuli/rescaled_final/1543_fw.mp4	0.0	136.62768125534058	0.10003995895385742
21	118.85096216201782	fix_pre	0		120	19.0	2.5	/experiments/Knapen_AOT/AOT_stimuli/rescaled_final/0363_fw.mp4	0.0	136.72772121429443	1.0084788799285889
21	119.85944104194641	movie	1		282	19.0	2.5	/experiments/Knapen_AOT/AOT_stimuli/rescaled_final/0363_fw.mp4	0.0	137.73620009422302	2.4920573234558105
21	120.23488783836365	pulse	1	t		19.0	2.5	/experiments/Knapen_AOT/AOT_stimuli/rescaled_final/0363_fw.mp4	0.0	138.11164689064026	
21	121.83318901062012	pulse	1	t		19.0	2.5	/experiments/Knapen_AOT/AOT_stimuli/rescaled_final/0363_fw.mp4	0.0	139.70994806289673	
21	122.35149836540222	fix_post	2		12	19.0	2.5	/experiments/Knapen_AOT/AOT_stimuli/rescaled_final/0363_fw.mp4	0.0	140.22825741767883	0.09997677803039551
22	122.45147514343262	fix_pre	0		119	20.0	2.5	blank	1.0	140.32823419570923	0.9918313026428223
22	123.43543934822083	pulse	0	t		20.0	2.5	blank	1.0	141.31219840049744	
22	123.44330644607544	movie	1		301	20.0	2.5	blank	1.0	141.32006549835205	2.508713722229004
22	125.03568315505981	pulse	1	t		20.0	2.5	blank	1.0	142.91244220733643	
22	125.95202016830444	fix_post	2		12	20.0	2.5	blank	1.0	143.82877922058105	0.10008358955383301
23	126.05210375785828	fix_pre	0		120	21.0	2.5	/experiments/Knapen_AOT/AOT_stimuli/rescaled_final/0257_fw.mp4	0.0	143.9288628101349	1.0084137916564941
23	126.6288514137268	pulse	0	t		21.0	2.5	/experiments/Knapen_AOT/AOT_stimuli/rescaled_final/0257_fw.mp4	0.0	144.50561046600342	
23	127.06051754951477	movie	1		269	21.0	2.5	/experiments/Knapen_AOT/AOT_stimuli/rescaled_final/0257_fw.mp4	0.0	144.93727660179138	2.4920198917388916
23	128.23450756072998	pulse	1	t		21.0	2.5	/experiments/Knapen_AOT/AOT_stimuli/rescaled_final/0257_fw.mp4	0.0	146.1112666130066	
23	129.55253744125366	fix_post	2		12	21.0	2.5	/experiments/Knapen_AOT/AOT_stimuli/rescaled_final/0257_fw.mp4	0.0	147.42929649353027	0.10004734992980957
24	129.65258479118347	fix_pre	0		120	22.0	2.5	/experiments/Knapen_AOT/AOT_stimuli/rescaled_final/0057_fw.mp4	0.0	147.52934384346008	1.0084609985351562
24	129.82887506484985	pulse	0	t		22.0	2.5	/experiments/Knapen_AOT/AOT_stimuli/rescaled_final/0057_fw.mp4	0.0	147.70563411712646	
24	130.66104578971863	movie	1		269	22.0	2.5	/experiments/Knapen_AOT/AOT_stimuli/rescaled_final/0057_fw.mp4	0.0	148.53780484199524	2.4921133518218994
24	131.43466186523438	pulse	1	t		22.0	2.5	/experiments/Knapen_AOT/AOT_stimuli/rescaled_final/0057_fw.mp4	0.0	149.311420917511	
24	133.02860593795776	pulse	1	t		22.0	2.5	/experiments/Knapen_AOT/AOT_stimuli/rescaled_final/0057_fw.mp4	0.0	150.90536499023438	
24	133.15315914154053	fix_post	2		12	22.0	2.5	/experiments/Knapen_AOT/AOT_stimuli/rescaled_final/0057_fw.mp4	0.0	151.02991819381714	0.09996724128723145
25	133.25312638282776	fix_pre	0		120	23.0	2.5	/experiments/Knapen_AOT/AOT_stimuli/rescaled_final/2059_fw.mp4	0.0	151.12988543510437	1.008479356765747
25	134.2616057395935	movie	1		286	23.0	2.5	/experiments/Knapen_AOT/AOT_stimuli/rescaled_final/2059_fw.mp4	0.0	152.13836479187012	2.492025852203369
25	134.62868809700012	pulse	1	t		23.0	2.5	/experiments/Knapen_AOT/AOT_stimuli/rescaled_final/2059_fw.mp4	0.0	152.50544714927673	
25	136.22887325286865	pulse	1	t		23.0	2.5	/experiments/Knapen_AOT/AOT_stimuli/rescaled_final/2059_fw.mp4	0.0	154.10563230514526	
25	136.75363159179688	fix_post	2		12	23.0	2.5	/experiments/Knapen_AOT/AOT_stimuli/rescaled_final/2059_fw.mp4	0.0	154.6303906440735	0.10001873970031738
26	136.8536503314972	fix_pre	0		118	24.0	2.5	/experiments/Knapen_AOT/AOT_stimuli/rescaled_final/2059_rv.mp4	0.0	154.7304093837738	0.9917953014373779
26	137.8290457725525	pulse	0	t		24.0	2.5	/experiments/Knapen_AOT/AOT_stimuli/rescaled_final/2059_rv.mp4	0.0	155.7058048248291	
26	137.84544563293457	movie	1		284	24.0	2.5	/experiments/Knapen_AOT/AOT_stimuli/rescaled_final/2059_rv.mp4	0.0	155.72220468521118	2.5005037784576416
26	139.42940878868103	pulse	1	t		24.0	2.5	/experiments/Knapen_AOT/AOT_stimuli/rescaled_final/2059_rv.mp4	0.0	157.30616784095764	
26	140.3459494113922	fix_post	2		12	24.0	2.5	/experiments/Knapen_AOT/AOT_stimuli/rescaled_final/2059_rv.mp4	0.0	158.22270846366882	0.09995484352111816
27	140.44590425491333	fix_pre	0		120	25.0	2.5	/experiments/Knapen_AOT/AOT_stimuli/rescaled_final/1552_fw.mp4	0.0	158.32266330718994	1.008493423461914
27	141.02955389022827	pulse	0	t		25.0	2.5	/experiments/Knapen_AOT/AOT_stimuli/rescaled_final/1552_fw.mp4	0.0	158.90631294250488	
27	141.45439767837524	movie	1		276	25.0	2.5	/experiments/Knapen_AOT/AOT_stimuli/rescaled_final/1552_fw.mp4	0.0	159.33115673065186	2.4920237064361572
27	142.62978196144104	pulse	1	t		25.0	2.5	/experiments/Knapen_AOT/AOT_stimuli/rescaled_final/1552_fw.mp4	0.0	160.50654101371765	
27	143.9464213848114	fix_post	2		12	25.0	2.5	/experiments/Knapen_AOT/AOT_stimuli/rescaled_final/1552_fw.mp4	0.0	161.823180437088	0.09998440742492676
28	144.04640579223633	fix_pre	0		120	26.0	2.5	/experiments/Knapen_AOT/AOT_stimuli/rescaled_final/1313_rv.mp4	0.0	161.92316484451294	1.0085055828094482
28	144.2299747467041	pulse	0	t		26.0	2.5	/experiments/Knapen_AOT/AOT_stimuli/rescaled_final/1313_rv.mp4	0.0	162.1067337989807	
28	145.05491137504578	movie	1		274	26.0	2.5	/experiments/Knapen_AOT/AOT_stimuli/rescaled_final/1313_rv.mp4	0.0	162.9316704273224	2.4920477867126465
28	145.83046960830688	pulse	1	t		26.0	2.5	/experiments/Knapen_AOT/AOT_stimuli/rescaled_final/1313_rv.mp4	0.0	163.7072286605835	
28	147.43039965629578	pulse	1	t		26.0	2.5	/experiments/Knapen_AOT/AOT_stimuli/rescaled_final/1313_rv.mp4	0.0	165.3071587085724	
28	147.54695916175842	fix_post	2		12	26.0	2.5	/experiments/Knapen_AOT/AOT_stimuli/rescaled_final/1313_rv.mp4	0.0	165.42371821403503	0.10015559196472168
29	147.64711475372314	fix_pre	0		120	27.0	2.5	blank	1.0	165.52387380599976	0.999962329864502
29	148.64707708358765	movie	1		300	27.0	2.5	blank	1.0	166.52383613586426	2.5003914833068848
29	149.03102278709412	pulse	1	t		27.0	2.5	blank	1.0	166.90778183937073	
29	150.63120007514954	pulse	1	t		27.0	2.5	blank	1.0	168.50795912742615	
29	151.14746856689453	fix_post	2		12	27.0	2.5	blank	1.0	169.02422761917114	0.09996581077575684
30	151.2474343776703	fix_pre	0		119	28.0	2.5	/experiments/Knapen_AOT/AOT_stimuli/rescaled_final/1821_fw.mp4	0.0	169.1241934299469	1.0001938343048096
30	152.2311840057373	pulse	0	t		28.0	2.5	/experiments/Knapen_AOT/AOT_stimuli/rescaled_final/1821_fw.mp4	0.0	170.10794305801392	
30	152.2476282119751	movie	1		281	28.0	2.5	/experiments/Knapen_AOT/AOT_stimuli/rescaled_final/1821_fw.mp4	0.0	170.1243872642517	2.500401735305786
30	153.82996344566345	pulse	1	t		28.0	2.5	/experiments/Knapen_AOT/AOT_stimuli/rescaled_final/1821_fw.mp4	0.0	171.70672249794006	
30	154.74802994728088	fix_post	2		12	28.0	2.5	/experiments/Knapen_AOT/AOT_stimuli/rescaled_final/1821_fw.mp4	0.0	172.6247889995575	0.10004305839538574
31	154.84807300567627	fix_pre	0		120	29.0	2.5	/experiments/Knapen_AOT/AOT_stimuli/rescaled_final/0228_rv.mp4	0.0	172.72483205795288	1.0084228515625
31	155.43169236183167	pulse	0	t		29.0	2.5	/experiments/Knapen_AOT/AOT_stimuli/rescaled_final/0228_rv.mp4	0.0	173.30845141410828	
31	155.85649585723877	movie	1		287	29.0	2.5	/experiments/Knapen_AOT/AOT_stimuli/rescaled_final/0228_rv.mp4	0.0	173.73325490951538	2.4920670986175537
31	157.03017377853394	pulse	1	t		29.0	2.5	/experiments/Knapen_AOT/AOT_stimuli/rescaled_final/0228_rv.mp4	0.0	174.90693283081055	
31	158.34856295585632	fix_post	2		12	29.0	2.5	/experiments/Knapen_AOT/AOT_stimuli/rescaled_final/0228_rv.mp4	0.0	176.22532200813293	0.10002470016479492
32	158.44858765602112	fix_pre	0		120	30.0	2.5	/experiments/Knapen_AOT/AOT_stimuli/rescaled_final/1156_rv.mp4	0.0	176.32534670829773	1.0085277557373047
32	158.63217854499817	pulse	0	t		30.0	2.5	/experiments/Knapen_AOT/AOT_stimuli/rescaled_final/1156_rv.mp4	0.0	176.50893759727478	
32	159.45711541175842	movie	1		270	30.0	2.5	/experiments/Knapen_AOT/AOT_stimuli/rescaled_final/1156_rv.mp4	0.0	177.33387446403503	2.491978406906128
32	160.23035502433777	pulse	1	t		30.0	2.5	/experiments/Knapen_AOT/AOT_stimuli/rescaled_final/1156_rv.mp4	0.0	178.10711407661438	
32	161.83063530921936	pulse	1	t		30.0	2.5	/experiments/Knapen_AOT/AOT_stimuli/rescaled_final/1156_rv.mp4	0.0	179.70739436149597	
32	161.94909381866455	fix_post	2		12	30.0	2.5	/experiments/Knapen_AOT/AOT_stimuli/rescaled_final/1156_rv.mp4	0.0	179.82585287094116	0.10001492500305176
33	162.0491087436676	fix_pre	0		120	31.0	2.5	/experiments/Knapen_AOT/AOT_stimuli/rescaled_final/0726_rv.mp4	0.0	179.9258677959442	1.0084888935089111
33	163.0575976371765	movie	1		273	31.0	2.5	/experiments/Knapen_AOT/AOT_stimuli/rescaled_final/0726_rv.mp4	0.0	180.93435668945312	2.4920334815979004
33	163.4336700439453	pulse	1	t		31.0	2.5	/experiments/Knapen_AOT/AOT_stimuli/rescaled_final/0726_rv.mp4	0.0	181.31042909622192	
33	165.0332968235016	pulse	1	t		31.0	2.5	/experiments/Knapen_AOT/AOT_stimuli/rescaled_final/0726_rv.mp4	0.0	182.9100558757782	
33	165.5496311187744	fix_post	2		12	31.0	2.5	/experiments/Knapen_AOT/AOT_stimuli/rescaled_final/0726_rv.mp4	0.0	183.42639017105103	0.10009622573852539
34	165.64972734451294	fix_pre	0		119	32.0	2.5	/experiments/Knapen_AOT/AOT_stimuli/rescaled_final/1730_fw.mp4	0.0	183.52648639678955	1.0001306533813477
34	166.63329672813416	pulse	0	t		32.0	2.5	/experiments/Knapen_AOT/AOT_stimuli/rescaled_final/1730_fw.mp4	0.0	184.51005578041077	
34	166.6498579978943	movie	1		284	32.0	2.5	/experiments/Knapen_AOT/AOT_stimuli/rescaled_final/1730_fw.mp4	0.0	184.5266170501709	2.5003390312194824
34	168.23366785049438	pulse	1	t		32.0	2.5	/experiments/Knapen_AOT/AOT_stimuli/rescaled_final/1730_fw.mp4	0.0	186.110426902771	
34	169.15019702911377	fix_post	2		12	32.0	2.5	/experiments/Knapen_AOT/AOT_stimuli/rescaled_final/1730_fw.mp4	0.0	187.02695608139038	0.09998631477355957
35	169.25018334388733	fix_pre	0		120	33.0	2.5	/experiments/Knapen_AOT/AOT_stimuli/rescaled_final/1172_fw.mp4	0.0	187.12694239616394	1.0084929466247559
35	169.83394932746887	pulse	0	t		33.0	2.5	/experiments/Knapen_AOT/AOT_stimuli/rescaled_final/1172_fw.mp4	0.0	187.71070837974548	
35	170.25867629051208	movie	1		276	33.0	2.5	/experiments/Knapen_AOT/AOT_stimuli/rescaled_final/1172_fw.mp4	0.0	188.1354353427887	2.4921348094940186
35	171.43202877044678	pulse	1	t		33.0	2.5	/experiments/Knapen_AOT/AOT_stimuli/rescaled_final/1172_fw.mp4	0.0	189.3087878227234	
35	172.7508111000061	fix_post	2		12	33.0	2.5	/experiments/Knapen_AOT/AOT_stimuli/rescaled_final/1172_fw.mp4	0.0	190.62757015228271	0.09994935989379883
36	172.8507604598999	fix_pre	0		120	34.0	2.5	blank	1.0	190.7275195121765	1.0001420974731445
36	173.03427839279175	pulse	0	t		34.0	2.5	blank	1.0	190.91103744506836	
36	173.85090255737305	movie	1		300	34.0	2.5	blank	1.0	191.72766160964966	2.5003464221954346
36	174.63456845283508	pulse	1	t		34.0	2.5	blank	1.0	192.5113275051117	
36	176.23474431037903	pulse	1	t		34.0	2.5	blank	1.0	194.11150336265564	
36	176.35124897956848	fix_post	2		12	34.0	2.5	blank	1.0	194.2280080318451	0.1000373363494873
37	176.45128631591797	fix_pre	0		120	35.0	2.5	/experiments/Knapen_AOT/AOT_stimuli/rescaled_final/0403_rv.mp4	0.0	194.32804536819458	1.0085349082946777
37	177.45982122421265	movie	1		276	35.0	2.5	/experiments/Knapen_AOT/AOT_stimuli/rescaled_final/0403_rv.mp4	0.0	195.33658027648926	2.492015838623047
37	177.83343315124512	pulse	1	t		35.0	2.5	/experiments/Knapen_AOT/AOT_stimuli/rescaled_final/0403_rv.mp4	0.0	195.71019220352173	
37	179.4332242012024	pulse	1	t		35.0	2.5	/experiments/Knapen_AOT/AOT_stimuli/rescaled_final/0403_rv.mp4	0.0	197.309983253479	
37	179.9518370628357	fix_post	2		12	35.0	2.5	/experiments/Knapen_AOT/AOT_stimuli/rescaled_final/0403_rv.mp4	0.0	197.8285961151123	0.10000848770141602
38	180.0518455505371	fix_pre	0		119	36.0	2.5	/experiments/Knapen_AOT/AOT_stimuli/rescaled_final/1397_rv.mp4	0.0	197.92860460281372	1.0086159706115723
38	181.03557133674622	pulse	0	t		36.0	2.5	/experiments/Knapen_AOT/AOT_stimuli/rescaled_final/1397_rv.mp4	0.0	198.91233038902283	
38	181.06046152114868	movie	1		279	36.0	2.5	/experiments/Knapen_AOT/AOT_stimuli/rescaled_final/1397_rv.mp4	0.0	198.9372205734253	2.491886854171753
38	182.63565874099731	pulse	1	t		36.0	2.5	/experiments/Knapen_AOT/AOT_stimuli/rescaled_final/1397_rv.mp4	0.0	200.51241779327393	
38	183.55234837532043	fix_post	2		12	36.0	2.5	/experiments/Knapen_AOT/AOT_stimuli/rescaled_final/1397_rv.mp4	0.0	201.42910742759705	0.10000824928283691
39	183.65235662460327	fix_pre	0		120	37.0	2.5	/experiments/Knapen_AOT/AOT_stimuli/rescaled_final/0928_rv.mp4	0.0	201.52911567687988	1.0085577964782715
39	184.23599648475647	pulse	0	t		37.0	2.5	/experiments/Knapen_AOT/AOT_stimuli/rescaled_final/0928_rv.mp4	0.0	202.11275553703308	
39	184.66091442108154	movie	1		282	37.0	2.5	/experiments/Knapen_AOT/AOT_stimuli/rescaled_final/0928_rv.mp4	0.0	202.53767347335815	2.492017984390259
39	185.83432340621948	pulse	1	t		37.0	2.5	/experiments/Knapen_AOT/AOT_stimuli/rescaled_final/0928_rv.mp4	0.0	203.7110824584961	
39	187.1529324054718	fix_post	2		12	37.0	2.5	/experiments/Knapen_AOT/AOT_stimuli/rescaled_final/0928_rv.mp4	0.0	205.0296914577484	0.0999915599822998
40	187.2529239654541	fix_pre	0		120	38.0	2.5	/experiments/Knapen_AOT/AOT_stimuli/rescaled_final/1882_rv.mp4	0.0	205.1296830177307	1.0084683895111084
40	187.4295573234558	pulse	0	t		38.0	2.5	/experiments/Knapen_AOT/AOT_stimuli/rescaled_final/1882_rv.mp4	0.0	205.30631637573242	
40	188.2613923549652	movie	1		279	38.0	2.5	/experiments/Knapen_AOT/AOT_stimuli/rescaled_final/1882_rv.mp4	0.0	206.13815140724182	2.50045108795166
40	189.0345480442047	pulse	1	t		38.0	2.5	/experiments/Knapen_AOT/AOT_stimuli/rescaled_final/1882_rv.mp4	0.0	206.91130709648132	
40	190.63587594032288	pulse	1	t		38.0	2.5	/experiments/Knapen_AOT/AOT_stimuli/rescaled_final/1882_rv.mp4	0.0	208.5126349925995	
40	190.76184344291687	fix_post	2		11	38.0	2.5	/experiments/Knapen_AOT/AOT_stimuli/rescaled_final/1882_rv.mp4	0.0	208.63860249519348	0.09157562255859375
41	190.85341906547546	fix_pre	0		120	39.0	2.5	/experiments/Knapen_AOT/AOT_stimuli/rescaled_final/0671_rv.mp4	0.0	208.73017811775208	1.0085771083831787
41	191.86199617385864	movie	1		280	39.0	2.5	/experiments/Knapen_AOT/AOT_stimuli/rescaled_final/0671_rv.mp4	0.0	209.73875522613525	2.4920742511749268
41	192.22911167144775	pulse	1	t		39.0	2.5	/experiments/Knapen_AOT/AOT_stimuli/rescaled_final/0671_rv.mp4	0.0	210.10587072372437	
41	193.8297402858734	pulse	1	t		39.0	2.5	/experiments/Knapen_AOT/AOT_stimuli/rescaled_final/0671_rv.mp4	0.0	211.70649933815002	
41	194.35407042503357	fix_post	2		12	39.0	2.5	/experiments/Knapen_AOT/AOT_stimuli/rescaled_final/0671_rv.mp4	0.0	212.23082947731018	0.09992432594299316
42	194.45399475097656	fix_pre	0		118	40.0	2.5	/experiments/Knapen_AOT/AOT_stimuli/rescaled_final/0622_rv.mp4	0.0	212.33075380325317	0.991811990737915
42	195.4295825958252	pulse	0	t		40.0	2.5	/experiments/Knapen_AOT/AOT_stimuli/rescaled_final/0622_rv.mp4	0.0	213.3063416481018	
42	195.44580674171448	movie	1		283	40.0	2.5	/experiments/Knapen_AOT/AOT_stimuli/rescaled_final/0622_rv.mp4	0.0	213.3225657939911	2.5005319118499756
42	197.02969217300415	pulse	1	t		40.0	2.5	/experiments/Knapen_AOT/AOT_stimuli/rescaled_final/0622_rv.mp4	0.0	214.90645122528076	
42	197.94633865356445	fix_post	2		12	40.0	2.5	/experiments/Knapen_AOT/AOT_stimuli/rescaled_final/0622_rv.mp4	0.0	215.82309770584106	0.09986662864685059
43	198.0462052822113	fix_pre	0		120	41.0	2.5	blank	1.0	215.92296433448792	1.000173807144165
43	198.62982082366943	pulse	0	t		41.0	2.5	blank	1.0	216.50657987594604	
43	199.04637908935547	movie	1		300	41.0	2.5	blank	1.0	216.92313814163208	2.5003488063812256
43	200.23014044761658	pulse	1	t		41.0	2.5	blank	1.0	218.1068994998932	
43	201.5467278957367	fix_post	2		12	41.0	2.5	blank	1.0	219.4234869480133	0.10001659393310547
44	201.6467444896698	fix_pre	0		120	42.0	2.5	/experiments/Knapen_AOT/AOT_stimuli/rescaled_final/0661_fw.mp4	0.0	219.5235035419464	1.0085177421569824
44	201.83032274246216	pulse	0	t		42.0	2.5	/experiments/Knapen_AOT/AOT_stimuli/rescaled_final/0661_fw.mp4	0.0	219.70708179473877	
44	202.65526223182678	movie	1		282	42.0	2.5	/experiments/Knapen_AOT/AOT_stimuli/rescaled_final/0661_fw.mp4	0.0	220.5320212841034	2.4920060634613037
44	203.42909026145935	pulse	1	t		42.0	2.5	/experiments/Knapen_AOT/AOT_stimuli/rescaled_final/0661_fw.mp4	0.0	221.30584931373596	
44	205.02889227867126	pulse	1	t		42.0	2.5	/experiments/Knapen_AOT/AOT_stimuli/rescaled_final/0661_fw.mp4	0.0	222.90565133094788	
44	205.1472682952881	fix_post	2		12	42.0	2.5	/experiments/Knapen_AOT/AOT_stimuli/rescaled_final/0661_fw.mp4	0.0	223.0240273475647	0.10001730918884277
45	205.24728560447693	fix_pre	0		120	43.0	2.5	/experiments/Knapen_AOT/AOT_stimuli/rescaled_final/2143_rv.mp4	0.0	223.12404465675354	1.0084855556488037
45	206.25577116012573	movie	1		256	43.0	2.5	/experiments/Knapen_AOT/AOT_stimuli/rescaled_final/2143_rv.mp4	0.0	224.13253021240234	2.492034912109375
45	206.62966132164001	pulse	1	t		43.0	2.5	/experiments/Knapen_AOT/AOT_stimuli/rescaled_final/2143_rv.mp4	0.0	224.50642037391663	
45	208.2293336391449	pulse	1	t		43.0	2.5	/experiments/Knapen_AOT/AOT_stimuli/rescaled_final/2143_rv.mp4	0.0	226.1060926914215	
45	208.7478060722351	fix_post	2		12	43.0	2.5	/experiments/Knapen_AOT/AOT_stimuli/rescaled_final/2143_rv.mp4	0.0	226.62456512451172	0.10003495216369629
46	208.8478410243988	fix_pre	0		119	44.0	2.5	/experiments/Knapen_AOT/AOT_stimuli/rescaled_final/0454_fw.mp4	0.0	226.72460007667542	1.000159502029419
46	209.83168172836304	pulse	0	t		44.0	2.5	/experiments/Knapen_AOT/AOT_stimuli/rescaled_final/0454_fw.mp4	0.0	227.70844078063965	
46	209.84800052642822	movie	1		289	44.0	2.5	/experiments/Knapen_AOT/AOT_stimuli/rescaled_final/0454_fw.mp4	0.0	227.72475957870483	2.5004475116729736
46	211.4303116798401	pulse	1	t		44.0	2.5	/experiments/Knapen_AOT/AOT_stimuli/rescaled_final/0454_fw.mp4	0.0	229.3070707321167	
46	212.3484480381012	fix_post	2		12	44.0	2.5	/experiments/Knapen_AOT/AOT_stimuli/rescaled_final/0454_fw.mp4	0.0	230.2252070903778	0.09991788864135742
47	212.44836592674255	fix_pre	0		120	45.0	2.5	/experiments/Knapen_AOT/AOT_stimuli/rescaled_final/1077_rv.mp4	0.0	230.32512497901917	1.0084984302520752
47	213.0319697856903	pulse	0	t		45.0	2.5	/experiments/Knapen_AOT/AOT_stimuli/rescaled_final/1077_rv.mp4	0.0	230.90872883796692	
47	213.45686435699463	movie	1		286	45.0	2.5	/experiments/Knapen_AOT/AOT_stimuli/rescaled_final/1077_rv.mp4	0.0	231.33362340927124	2.4921042919158936
47	214.6304099559784	pulse	1	t		45.0	2.5	/experiments/Knapen_AOT/AOT_stimuli/rescaled_final/1077_rv.mp4	0.0	232.507169008255	
47	215.94896864891052	fix_post	2		12	45.0	2.5	/experiments/Knapen_AOT/AOT_stimuli/rescaled_final/1077_rv.mp4	0.0	233.82572770118713	0.09995126724243164
48	216.04891991615295	fix_pre	0		120	46.0	2.5	/experiments/Knapen_AOT/AOT_stimuli/rescaled_final/0150_rv.mp4	0.0	233.92567896842957	1.0084807872772217
48	216.23242568969727	pulse	0	t		46.0	2.5	/experiments/Knapen_AOT/AOT_stimuli/rescaled_final/0150_rv.mp4	0.0	234.10918474197388	
48	217.05740070343018	movie	1		264	46.0	2.5	/experiments/Knapen_AOT/AOT_stimuli/rescaled_final/0150_rv.mp4	0.0	234.9341597557068	2.4921371936798096
48	217.8305287361145	pulse	1	t		46.0	2.5	/experiments/Knapen_AOT/AOT_stimuli/rescaled_final/0150_rv.mp4	0.0	235.7072877883911	
48	219.43134880065918	pulse	1	t		46.0	2.5	/experiments/Knapen_AOT/AOT_stimuli/rescaled_final/0150_rv.mp4	0.0	237.3081078529358	
48	219.54953789710999	fix_post	2		12	46.0	2.5	/experiments/Knapen_AOT/AOT_stimuli/rescaled_final/0150_rv.mp4	0.0	237.4262969493866	0.09990501403808594
49	219.64944291114807	fix_pre	0		120	47.0	2.5	blank	1.0	237.52620196342468	1.00014328956604
49	220.6495862007141	movie	1		300	47.0	2.5	blank	1.0	238.52634525299072	2.500488758087158
49	221.03324222564697	pulse	1	t		47.0	2.5	blank	1.0	238.91000127792358	
49	222.6334011554718	pulse	1	t		47.0	2.5	blank	1.0	240.5101602077484	
49	223.15007495880127	fix_post	2		12	47.0	2.5	blank	1.0	241.02683401107788	0.09991621971130371
50	223.24999117851257	fix_pre	0		119	48.0	2.5	/experiments/Knapen_AOT/AOT_stimuli/rescaled_final/0057_rv.mp4	0.0	241.12675023078918	1.0085952281951904
50	224.2337372303009	pulse	0	t		48.0	2.5	/experiments/Knapen_AOT/AOT_stimuli/rescaled_final/0057_rv.mp4	0.0	242.11049628257751	
50	224.25858640670776	movie	1		279	48.0	2.5	/experiments/Knapen_AOT/AOT_stimuli/rescaled_final/0057_rv.mp4	0.0	242.13534545898438	2.491934061050415
50	225.83243083953857	pulse	1	t		48.0	2.5	/experiments/Knapen_AOT/AOT_stimuli/rescaled_final/0057_rv.mp4	0.0	243.70918989181519	
50	226.75052046775818	fix_post	2		12	48.0	2.5	/experiments/Knapen_AOT/AOT_stimuli/rescaled_final/0057_rv.mp4	0.0	244.6272795200348	0.09999513626098633
51	226.85051560401917	fix_pre	0		120	49.0	2.5	/experiments/Knapen_AOT/AOT_stimuli/rescaled_final/1154_rv.mp4	0.0	244.72727465629578	1.0085148811340332
51	227.43410992622375	pulse	0	t		49.0	2.5	/experiments/Knapen_AOT/AOT_stimuli/rescaled_final/1154_rv.mp4	0.0	245.31086897850037	
51	227.8590304851532	movie	1		284	49.0	2.5	/experiments/Knapen_AOT/AOT_stimuli/rescaled_final/1154_rv.mp4	0.0	245.7357895374298	2.492033004760742
51	229.03246188163757	pulse	1	t		49.0	2.5	/experiments/Knapen_AOT/AOT_stimuli/rescaled_final/1154_rv.mp4	0.0	246.90922093391418	
51	230.35106348991394	fix_post	2		12	49.0	2.5	/experiments/Knapen_AOT/AOT_stimuli/rescaled_final/1154_rv.mp4	0.0	248.22782254219055	0.10000157356262207
52	230.45106506347656	fix_pre	0		120	50.0	2.5	/experiments/Knapen_AOT/AOT_stimuli/rescaled_final/1165_fw.mp4	0.0	248.32782411575317	1.0085184574127197
52	230.6346731185913	pulse	0	t		50.0	2.5	/experiments/Knapen_AOT/AOT_stimuli/rescaled_final/1165_fw.mp4	0.0	248.51143217086792	
52	231.45958352088928	movie	1		280	50.0	2.5	/experiments/Knapen_AOT/AOT_stimuli/rescaled_final/1165_fw.mp4	0.0	249.3363425731659	2.49202036857605
52	232.23345971107483	pulse	1	t		50.0	2.5	/experiments/Knapen_AOT/AOT_stimuli/rescaled_final/1165_fw.mp4	0.0	250.11021876335144	
52	233.8346643447876	pulse	1	t		50.0	2.5	/experiments/Knapen_AOT/AOT_stimuli/rescaled_final/1165_fw.mp4	0.0	251.7114233970642	
52	233.95160388946533	fix_post	2		12	50.0	2.5	/experiments/Knapen_AOT/AOT_stimuli/rescaled_final/1165_fw.mp4	0.0	251.82836294174194	0.10002827644348145
53	234.0516321659088	fix_pre	0		120	51.0	2.5	/experiments/Knapen_AOT/AOT_stimuli/rescaled_final/0622_rv.mp4	0.0	251.92839121818542	1.0084831714630127
53	235.06011533737183	movie	1		267	51.0	2.5	/experiments/Knapen_AOT/AOT_stimuli/rescaled_final/0622_rv.mp4	0.0	252.93687438964844	2.492163896560669
53	235.43373799324036	pulse	1	t		51.0	2.5	/experiments/Knapen_AOT/AOT_stimuli/rescaled_final/0622_rv.mp4	0.0	253.31049704551697	
53	237.03577589988708	pulse	1	t		51.0	2.5	/experiments/Knapen_AOT/AOT_stimuli/rescaled_final/0622_rv.mp4	0.0	254.9125349521637	
53	237.5522792339325	fix_post	2		12	51.0	2.5	/experiments/Knapen_AOT/AOT_stimuli/rescaled_final/0622_rv.mp4	0.0	255.4290382862091	0.10000824928283691
54	237.65228748321533	fix_pre	0		119	52.0	2.5	/experiments/Knapen_AOT/AOT_stimuli/rescaled_final/0147_fw.mp4	0.0	255.52904653549194	1.0001299381256104
54	238.635844707489	pulse	0	t		52.0	2.5	/experiments/Knapen_AOT/AOT_stimuli/rescaled_final/0147_fw.mp4	0.0	256.5126037597656	
54	238.65241742134094	movie	1		268	52.0	2.5	/experiments/Knapen_AOT/AOT_stimuli/rescaled_final/0147_fw.mp4	0.0	256.52917647361755	2.5002996921539307
54	240.23489427566528	pulse	1	t		52.0	2.5	/experiments/Knapen_AOT/AOT_stimuli/rescaled_final/0147_fw.mp4	0.0	258.1116533279419	
54	241.15271711349487	fix_post	2		12	52.0	2.5	/experiments/Knapen_AOT/AOT_stimuli/rescaled_final/0147_fw.mp4	0.0	259.0294761657715	0.09998416900634766
55	241.25270128250122	fix_pre	0		120	53.0	2.5	/experiments/Knapen_AOT/AOT_stimuli/rescaled_final/0042_rv.mp4	0.0	259.12946033477783	1.0085501670837402
55	241.82890439033508	pulse	0	t		53.0	2.5	/experiments/Knapen_AOT/AOT_stimuli/rescaled_final/0042_rv.mp4	0.0	259.7056634426117	
55	242.26125144958496	movie	1		284	53.0	2.5	/experiments/Knapen_AOT/AOT_stimuli/rescaled_final/0042_rv.mp4	0.0	260.1380105018616	2.491974353790283
55	243.42829012870789	pulse	1	t		53.0	2.5	/experiments/Knapen_AOT/AOT_stimuli/rescaled_final/0042_rv.mp4	0.0	261.3050491809845	
55	244.75322580337524	fix_post	2		12	53.0	2.5	/experiments/Knapen_AOT/AOT_stimuli/rescaled_final/0042_rv.mp4	0.0	262.62998485565186	0.10001397132873535
56	244.85323977470398	fix_pre	0		120	54.0	2.5	blank	1.0	262.7299988269806	1.0001511573791504
56	245.02858686447144	pulse	0	t		54.0	2.5	blank	1.0	262.90534591674805	
56	245.85339093208313	movie	1		300	54.0	2.5	blank	1.0	263.73014998435974	2.5004191398620605
56	246.62876391410828	pulse	1	t		54.0	2.5	blank	1.0	264.5055229663849	
56	248.2290496826172	pulse	1	t		54.0	2.5	blank	1.0	266.1058087348938	
56	248.3538100719452	fix_post	2		12	54.0	2.5	blank	1.0	266.2305691242218	0.09996962547302246
57	248.4537796974182	fix_pre	0		120	55.0	2.5	/experiments/Knapen_AOT/AOT_stimuli/rescaled_final/0984_fw.mp4	0.0	266.3305387496948	1.0085420608520508
57	249.46232175827026	movie	1		281	55.0	2.5	/experiments/Knapen_AOT/AOT_stimuli/rescaled_final/0984_fw.mp4	0.0	267.3390808105469	2.491999387741089
57	249.82923698425293	pulse	1	t		55.0	2.5	/experiments/Knapen_AOT/AOT_stimuli/rescaled_final/0984_fw.mp4	0.0	267.70599603652954	
57	251.42956948280334	pulse	1	t		55.0	2.5	/experiments/Knapen_AOT/AOT_stimuli/rescaled_final/0984_fw.mp4	0.0	269.30632853507996	
57	251.95432114601135	fix_post	2		12	55.0	2.5	/experiments/Knapen_AOT/AOT_stimuli/rescaled_final/0984_fw.mp4	0.0	269.83108019828796	0.10005807876586914
58	252.05437922477722	fix_pre	0		118	56.0	2.5	/experiments/Knapen_AOT/AOT_stimuli/rescaled_final/1316_rv.mp4	0.0	269.93113827705383	0.9917683601379395
58	253.02972149848938	pulse	0	t		56.0	2.5	/experiments/Knapen_AOT/AOT_stimuli/rescaled_final/1316_rv.mp4	0.0	270.906480550766	
58	253.04614758491516	movie	1		275	56.0	2.5	/experiments/Knapen_AOT/AOT_stimuli/rescaled_final/1316_rv.mp4	0.0	270.9229066371918	2.5003662109375
58	254.62831044197083	pulse	1	t		56.0	2.5	/experiments/Knapen_AOT/AOT_stimuli/rescaled_final/1316_rv.mp4	0.0	272.50506949424744	
58	255.54651379585266	fix_post	2		12	56.0	2.5	/experiments/Knapen_AOT/AOT_stimuli/rescaled_final/1316_rv.mp4	0.0	273.4232728481293	0.10002827644348145
59	255.64654207229614	fix_pre	0		120	57.0	2.5	/experiments/Knapen_AOT/AOT_stimuli/rescaled_final/1648_fw.mp4	0.0	273.52330112457275	1.0084917545318604
59	256.23037600517273	pulse	0	t		57.0	2.5	/experiments/Knapen_AOT/AOT_stimuli/rescaled_final/1648_fw.mp4	0.0	274.10713505744934	
59	256.655033826828	movie	1		260	57.0	2.5	/experiments/Knapen_AOT/AOT_stimuli/rescaled_final/1648_fw.mp4	0.0	274.5317928791046	2.492041826248169
59	257.828910112381	pulse	1	t		57.0	2.5	/experiments/Knapen_AOT/AOT_stimuli/rescaled_final/1648_fw.mp4	0.0	275.7056691646576	
59	259.1470756530762	fix_post	2		12	57.0	2.5	/experiments/Knapen_AOT/AOT_stimuli/rescaled_final/1648_fw.mp4	0.0	277.0238347053528	0.10000920295715332
60	259.2470848560333	fix_pre	0		120	58.0	2.5	/experiments/Knapen_AOT/AOT_stimuli/rescaled_final/0564_rv.mp4	0.0	277.12384390830994	1.0084846019744873
60	259.4306402206421	pulse	0	t		58.0	2.5	/experiments/Knapen_AOT/AOT_stimuli/rescaled_final/0564_rv.mp4	0.0	277.3073992729187	
60	260.2555694580078	movie	1		287	58.0	2.5	/experiments/Knapen_AOT/AOT_stimuli/rescaled_final/0564_rv.mp4	0.0	278.1323285102844	2.492051362991333
60	261.0294270515442	pulse	1	t		58.0	2.5	/experiments/Knapen_AOT/AOT_stimuli/rescaled_final/0564_rv.mp4	0.0	278.9061861038208	
60	262.6293594837189	pulse	1	t		58.0	2.5	/experiments/Knapen_AOT/AOT_stimuli/rescaled_final/0564_rv.mp4	0.0	280.5061185359955	
60	262.74762082099915	fix_post	2		12	58.0	2.5	/experiments/Knapen_AOT/AOT_stimuli/rescaled_final/0564_rv.mp4	0.0	280.62437987327576	0.10001301765441895
61	262.84763383865356	fix_pre	0		120	59.0	2.5	/experiments/Knapen_AOT/AOT_stimuli/rescaled_final/0627_fw.mp4	0.0	280.7243928909302	1.008479118347168
61	263.85611295700073	movie	1		265	59.0	2.5	/experiments/Knapen_AOT/AOT_stimuli/rescaled_final/0627_fw.mp4	0.0	281.73287200927734	2.4920406341552734
61	264.2299828529358	pulse	1	t		59.0	2.5	/experiments/Knapen_AOT/AOT_stimuli/rescaled_final/0627_fw.mp4	0.0	282.1067419052124	
61	265.82973313331604	pulse	1	t		59.0	2.5	/experiments/Knapen_AOT/AOT_stimuli/rescaled_final/0627_fw.mp4	0.0	283.70649218559265	
61	266.348153591156	fix_post	2		12	59.0	2.5	/experiments/Knapen_AOT/AOT_stimuli/rescaled_final/0627_fw.mp4	0.0	284.2249126434326	0.1000821590423584
62	266.44823575019836	fix_pre	0		119	60.0	2.5	/experiments/Knapen_AOT/AOT_stimuli/rescaled_final/1574_fw.mp4	0.0	284.324994802475	1.0085976123809814
62	267.4323079586029	pulse	0	t		60.0	2.5	/experiments/Knapen_AOT/AOT_stimuli/rescaled_final/1574_fw.mp4	0.0	285.3090670108795	
62	267.45683336257935	movie	1		280	60.0	2.5	/experiments/Knapen_AOT/AOT_stimuli/rescaled_final/1574_fw.mp4	0.0	285.33359241485596	2.491847038269043
62	269.03358793258667	pulse	1	t		60.0	2.5	/experiments/Knapen_AOT/AOT_stimuli/rescaled_final/1574_fw.mp4	0.0	286.9103469848633	
62	269.9486804008484	fix_post	2		12	60.0	2.5	/experiments/Knapen_AOT/AOT_stimuli/rescaled_final/1574_fw.mp4	0.0	287.825439453125	0.10003519058227539
63	270.04871559143066	fix_pre	0		120	61.0	2.5	blank	1.0	287.9254746437073	1.0002145767211914
63	270.6326062679291	pulse	0	t		61.0	2.5	blank	1.0	288.5093653202057	
63	271.04893016815186	movie	1		300	61.0	2.5	blank	1.0	288.92568922042847	2.5003252029418945
63	272.2326030731201	pulse	1	t		61.0	2.5	blank	1.0	290.10936212539673	
63	273.54925537109375	fix_post	2		12	61.0	2.5	blank	1.0	291.42601442337036	0.09999632835388184
64	273.64925169944763	fix_pre	0		120	62.0	2.5	/experiments/Knapen_AOT/AOT_stimuli/rescaled_final/1079_rv.mp4	0.0	291.52601075172424	1.0084803104400635
64	273.8331332206726	pulse	0	t		62.0	2.5	/experiments/Knapen_AOT/AOT_stimuli/rescaled_final/1079_rv.mp4	0.0	291.7098922729492	
64	274.6577320098877	movie	1		286	62.0	2.5	/experiments/Knapen_AOT/AOT_stimuli/rescaled_final/1079_rv.mp4	0.0	292.5344910621643	2.492097854614258
64	275.43129682540894	pulse	1	t		62.0	2.5	/experiments/Knapen_AOT/AOT_stimuli/rescaled_final/1079_rv.mp4	0.0	293.30805587768555	
64	277.0312912464142	pulse	1	t		62.0	2.5	/experiments/Knapen_AOT/AOT_stimuli/rescaled_final/1079_rv.mp4	0.0	294.9080502986908	
64	277.14982986450195	fix_post	2		12	62.0	2.5	/experiments/Knapen_AOT/AOT_stimuli/rescaled_final/1079_rv.mp4	0.0	295.02658891677856	0.09997296333312988
65	277.2498028278351	fix_pre	0		120	63.0	2.5	/experiments/Knapen_AOT/AOT_stimuli/rescaled_final/1730_fw.mp4	0.0	295.1265618801117	1.0084826946258545
65	278.25828552246094	movie	1		277	63.0	2.5	/experiments/Knapen_AOT/AOT_stimuli/rescaled_final/1730_fw.mp4	0.0	296.13504457473755	2.4920570850372314
65	278.63194370269775	pulse	1	t		63.0	2.5	/experiments/Knapen_AOT/AOT_stimuli/rescaled_final/1730_fw.mp4	0.0	296.50870275497437	
65	280.23216462135315	pulse	1	t		63.0	2.5	/experiments/Knapen_AOT/AOT_stimuli/rescaled_final/1730_fw.mp4	0.0	298.10892367362976	
65	280.75034260749817	fix_post	2		11	63.0	2.5	/experiments/Knapen_AOT/AOT_stimuli/rescaled_final/1730_fw.mp4	0.0	298.6271016597748	0.10000252723693848
66	280.8503451347351	fix_pre	0		119	64.0	2.5	/experiments/Knapen_AOT/AOT_stimuli/rescaled_final/1311_rv.mp4	0.0	298.7271041870117	1.0084788799285889
66	281.8348090648651	pulse	0	t		64.0	2.5	/experiments/Knapen_AOT/AOT_stimuli/rescaled_final/1311_rv.mp4	0.0	299.7115681171417	
66	281.8588240146637	movie	1		275	64.0	2.5	/experiments/Knapen_AOT/AOT_stimuli/rescaled_final/1311_rv.mp4	0.0	299.7355830669403	2.4920570850372314
66	283.4336636066437	pulse	1	t		64.0	2.5	/experiments/Knapen_AOT/AOT_stimuli/rescaled_final/1311_rv.mp4	0.0	301.3104226589203	
66	284.3508810997009	fix_post	2		12	64.0	2.5	/experiments/Knapen_AOT/AOT_stimuli/rescaled_final/1311_rv.mp4	0.0	302.22764015197754	0.09999990463256836
67	284.4508810043335	fix_pre	0		120	65.0	2.5	/experiments/Knapen_AOT/AOT_stimuli/rescaled_final/1329_fw.mp4	0.0	302.3276400566101	1.008455753326416
67	285.03447437286377	pulse	0	t		65.0	2.5	/experiments/Knapen_AOT/AOT_stimuli/rescaled_final/1329_fw.mp4	0.0	302.9112334251404	
67	285.4593367576599	movie	1		270	65.0	2.5	/experiments/Knapen_AOT/AOT_stimuli/rescaled_final/1329_fw.mp4	0.0	303.3360958099365	2.5004384517669678
67	286.63320565223694	pulse	1	t		65.0	2.5	/experiments/Knapen_AOT/AOT_stimuli/rescaled_final/1329_fw.mp4	0.0	304.50996470451355	
67	287.9597752094269	fix_post	2		11	65.0	2.5	/experiments/Knapen_AOT/AOT_stimuli/rescaled_final/1329_fw.mp4	0.0	305.8365342617035	0.09168434143066406
68	288.05145955085754	fix_pre	0		120	66.0	2.5	/experiments/Knapen_AOT/AOT_stimuli/rescaled_final/1264_rv.mp4	0.0	305.92821860313416	1.008516550064087
68	288.23513293266296	pulse	0	t		66.0	2.5	/experiments/Knapen_AOT/AOT_stimuli/rescaled_final/1264_rv.mp4	0.0	306.1118919849396	
68	289.05997610092163	movie	1		276	66.0	2.5	/experiments/Knapen_AOT/AOT_stimuli/rescaled_final/1264_rv.mp4	0.0	306.93673515319824	2.492004156112671
68	289.8336365222931	pulse	1	t		66.0	2.5	/experiments/Knapen_AOT/AOT_stimuli/rescaled_final/1264_rv.mp4	0.0	307.7103955745697	
68	291.43362069129944	pulse	1	t		66.0	2.5	/experiments/Knapen_AOT/AOT_stimuli/rescaled_final/1264_rv.mp4	0.0	309.31037974357605	
68	291.5519802570343	fix_post	2		12	66.0	2.5	/experiments/Knapen_AOT/AOT_stimuli/rescaled_final/1264_rv.mp4	0.0	309.4287393093109	0.10007286071777344
69	291.6520531177521	fix_pre	0		120	67.0	2.5	/experiments/Knapen_AOT/AOT_stimuli/rescaled_final/0512_fw.mp4	0.0	309.5288121700287	1.0083694458007812
69	292.66042256355286	movie	1		286	67.0	2.5	/experiments/Knapen_AOT/AOT_stimuli/rescaled_final/0512_fw.mp4	0.0	310.53718161582947	2.492067813873291
69	293.03457522392273	pulse	1	t		67.0	2.5	/experiments/Knapen_AOT/AOT_stimuli/rescaled_final/0512_fw.mp4	0.0	310.91133427619934	
69	294.63394236564636	pulse	1	t		67.0	2.5	/experiments/Knapen_AOT/AOT_stimuli/rescaled_final/0512_fw.mp4	0.0	312.510701417923	
69	295.15249037742615	fix_post	2		12	67.0	2.5	/experiments/Knapen_AOT/AOT_stimuli/rescaled_final/0512_fw.mp4	0.0	313.02924942970276	0.10001611709594727
70	295.2525064945221	fix_pre	0		119	68.0	2.5	/experiments/Knapen_AOT/AOT_stimuli/rescaled_final/0238_rv.mp4	0.0	313.1292655467987	1.008561134338379
70	296.2286367416382	pulse	0	t		68.0	2.5	/experiments/Knapen_AOT/AOT_stimuli/rescaled_final/0238_rv.mp4	0.0	314.1053957939148	
70	296.2610676288605	movie	1		274	68.0	2.5	/experiments/Knapen_AOT/AOT_stimuli/rescaled_final/0238_rv.mp4	0.0	314.1378266811371	2.4919590950012207
70	297.83481884002686	pulse	1	t		68.0	2.5	/experiments/Knapen_AOT/AOT_stimuli/rescaled_final/0238_rv.mp4	0.0	315.71157789230347	
70	298.7530267238617	fix_post	2		12	68.0	2.5	/experiments/Knapen_AOT/AOT_stimuli/rescaled_final/0238_rv.mp4	0.0	316.6297857761383	0.10002303123474121
71	298.85304975509644	fix_pre	0		120	69.0	2.5	blank	1.0	316.72980880737305	1.000140905380249
71	299.42875504493713	pulse	0	t		69.0	2.5	blank	1.0	317.30551409721375	
71	299.8531906604767	movie	1		300	69.0	2.5	blank	1.0	317.7299497127533	2.500373363494873
71	301.0290026664734	pulse	1	t		69.0	2.5	blank	1.0	318.90576171875	
71	302.35356402397156	fix_post	2		12	69.0	2.5	blank	1.0	320.23032307624817	0.10002875328063965
72	302.4535927772522	fix_pre	0		120	70.0	2.5	/experiments/Knapen_AOT/AOT_stimuli/rescaled_final/1037_fw.mp4	0.0	320.3303518295288	1.0085110664367676
72	302.628826379776	pulse	0	t		70.0	2.5	/experiments/Knapen_AOT/AOT_stimuli/rescaled_final/1037_fw.mp4	0.0	320.5055854320526	
72	303.46210384368896	movie	1		278	70.0	2.5	/experiments/Knapen_AOT/AOT_stimuli/rescaled_final/1037_fw.mp4	0.0	321.3388628959656	2.4920244216918945
72	304.2303080558777	pulse	1	t		70.0	2.5	/experiments/Knapen_AOT/AOT_stimuli/rescaled_final/1037_fw.mp4	0.0	322.1070671081543	
72	305.82929611206055	pulse	1	t		70.0	2.5	/experiments/Knapen_AOT/AOT_stimuli/rescaled_final/1037_fw.mp4	0.0	323.70605516433716	
72	305.95412826538086	fix_post	2		12	70.0	2.5	/experiments/Knapen_AOT/AOT_stimuli/rescaled_final/1037_fw.mp4	0.0	323.83088731765747	0.10001516342163086
73	306.0541434288025	fix_pre	0		120	71.0	2.5	/experiments/Knapen_AOT/AOT_stimuli/rescaled_final/1888_rv.mp4	0.0	323.9309024810791	1.0084843635559082
73	307.0626277923584	movie	1		277	71.0	2.5	/experiments/Knapen_AOT/AOT_stimuli/rescaled_final/1888_rv.mp4	0.0	324.939386844635	2.4920692443847656
73	307.42964601516724	pulse	1	t		71.0	2.5	/experiments/Knapen_AOT/AOT_stimuli/rescaled_final/1888_rv.mp4	0.0	325.30640506744385	
73	309.02988624572754	pulse	1	t		71.0	2.5	/experiments/Knapen_AOT/AOT_stimuli/rescaled_final/1888_rv.mp4	0.0	326.90664529800415	
73	309.55469703674316	fix_post	2		12	71.0	2.5	/experiments/Knapen_AOT/AOT_stimuli/rescaled_final/1888_rv.mp4	0.0	327.4314560890198	0.10001850128173828
74	309.6547155380249	fix_pre	0		118	72.0	2.5	/experiments/Knapen_AOT/AOT_stimuli/rescaled_final/1524_rv.mp4	0.0	327.5314745903015	1.0001773834228516
74	310.63034987449646	pulse	0	t		72.0	2.5	/experiments/Knapen_AOT/AOT_stimuli/rescaled_final/1524_rv.mp4	0.0	328.50710892677307	
74	310.65489292144775	movie	1		279	72.0	2.5	/experiments/Knapen_AOT/AOT_stimuli/rescaled_final/1524_rv.mp4	0.0	328.53165197372437	2.491992235183716
74	312.2288444042206	pulse	1	t		72.0	2.5	/experiments/Knapen_AOT/AOT_stimuli/rescaled_final/1524_rv.mp4	0.0	330.1056034564972	
74	313.14688515663147	fix_post	2		12	72.0	2.5	/experiments/Knapen_AOT/AOT_stimuli/rescaled_final/1524_rv.mp4	0.0	331.0236442089081	0.10002636909484863
75	313.2469115257263	fix_pre	0		120	73.0	2.5	/experiments/Knapen_AOT/AOT_stimuli/rescaled_final/1738_fw.mp4	0.0	331.12367057800293	1.00848388671875
75	313.83057737350464	pulse	0	t		73.0	2.5	/experiments/Knapen_AOT/AOT_stimuli/rescaled_final/1738_fw.mp4	0.0	331.70733642578125	
75	314.25539541244507	movie	1		277	73.0	2.5	/experiments/Knapen_AOT/AOT_stimuli/rescaled_final/1738_fw.mp4	0.0	332.1321544647217	2.4921016693115234
75	315.429949760437	pulse	1	t		73.0	2.5	/experiments/Knapen_AOT/AOT_stimuli/rescaled_final/1738_fw.mp4	0.0	333.3067088127136	
75	316.7474970817566	fix_post	2		12	73.0	2.5	/experiments/Knapen_AOT/AOT_stimuli/rescaled_final/1738_fw.mp4	0.0	334.6242561340332	0.09994792938232422
76	316.8474450111389	fix_pre	0		120	74.0	2.5	/experiments/Knapen_AOT/AOT_stimuli/rescaled_final/0675_rv.mp4	0.0	334.7242040634155	1.008472204208374
76	317.03101992607117	pulse	0	t		74.0	2.5	/experiments/Knapen_AOT/AOT_stimuli/rescaled_final/0675_rv.mp4	0.0	334.9077789783478	
76	317.8559172153473	movie	1		266	74.0	2.5	/experiments/Knapen_AOT/AOT_stimuli/rescaled_final/0675_rv.mp4	0.0	335.7326762676239	2.492037057876587
76	318.6318747997284	pulse	1	t		74.0	2.5	/experiments/Knapen_AOT/AOT_stimuli/rescaled_final/0675_rv.mp4	0.0	336.508633852005	
76	320.23018193244934	pulse	1	t		74.0	2.5	/experiments/Knapen_AOT/AOT_stimuli/rescaled_final/0675_rv.mp4	0.0	338.10694098472595	
76	320.3479542732239	fix_post	2		12	74.0	2.5	/experiments/Knapen_AOT/AOT_stimuli/rescaled_final/0675_rv.mp4	0.0	338.2247133255005	0.10001993179321289
77	320.4479742050171	fix_pre	0		120	75.0	2.5	blank	1.0	338.3247332572937	1.0001678466796875
77	321.4481420516968	movie	1		300	75.0	2.5	blank	1.0	339.3249011039734	2.5003485679626465
77	321.83176922798157	pulse	1	t		75.0	2.5	blank	1.0	339.7085282802582	
77	323.4320638179779	pulse	1	t		75.0	2.5	blank	1.0	341.3088228702545	
77	323.9484906196594	fix_post	2		12	75.0	2.5	blank	1.0	341.82524967193604	0.10003781318664551
78	324.04852843284607	fix_pre	0		119	76.0	2.5	/experiments/Knapen_AOT/AOT_stimuli/rescaled_final/1201_rv.mp4	0.0	341.9252874851227	1.0001044273376465
78	325.0322313308716	pulse	0	t		76.0	2.5	/experiments/Knapen_AOT/AOT_stimuli/rescaled_final/1201_rv.mp4	0.0	342.9089903831482	
78	325.0486328601837	movie	1		282	76.0	2.5	/experiments/Knapen_AOT/AOT_stimuli/rescaled_final/1201_rv.mp4	0.0	342.9253919124603	2.500392198562622
78	326.63111543655396	pulse	1	t		76.0	2.5	/experiments/Knapen_AOT/AOT_stimuli/rescaled_final/1201_rv.mp4	0.0	344.50787448883057	
78	327.54902505874634	fix_post	2		12	76.0	2.5	/experiments/Knapen_AOT/AOT_stimuli/rescaled_final/1201_rv.mp4	0.0	345.42578411102295	0.10008740425109863
79	327.64911246299744	fix_pre	0		120	77.0	2.5	/experiments/Knapen_AOT/AOT_stimuli/rescaled_final/0150_rv.mp4	0.0	345.52587151527405	1.0084545612335205
79	328.2327094078064	pulse	0	t		77.0	2.5	/experiments/Knapen_AOT/AOT_stimuli/rescaled_final/0150_rv.mp4	0.0	346.109468460083	
79	328.65756702423096	movie	1		274	77.0	2.5	/experiments/Knapen_AOT/AOT_stimuli/rescaled_final/0150_rv.mp4	0.0	346.53432607650757	2.492013454437256
79	329.83142161369324	pulse	1	t		77.0	2.5	/experiments/Knapen_AOT/AOT_stimuli/rescaled_final/0150_rv.mp4	0.0	347.70818066596985	
79	331.1495804786682	fix_post	2		12	77.0	2.5	/experiments/Knapen_AOT/AOT_stimuli/rescaled_final/0150_rv.mp4	0.0	349.0263395309448	0.1000511646270752
80	331.2496316432953	fix_pre	0		120	78.0	2.5	/experiments/Knapen_AOT/AOT_stimuli/rescaled_final/0715_rv.mp4	0.0	349.1263906955719	1.0084645748138428
80	331.43335461616516	pulse	0	t		78.0	2.5	/experiments/Knapen_AOT/AOT_stimuli/rescaled_final/0715_rv.mp4	0.0	349.3101136684418	
80	332.25809621810913	movie	1		280	78.0	2.5	/experiments/Knapen_AOT/AOT_stimuli/rescaled_final/0715_rv.mp4	0.0	350.13485527038574	2.492011308670044
80	333.0319130420685	pulse	1	t		78.0	2.5	/experiments/Knapen_AOT/AOT_stimuli/rescaled_final/0715_rv.mp4	0.0	350.9086720943451	
80	334.6316089630127	pulse	1	t		78.0	2.5	/experiments/Knapen_AOT/AOT_stimuli/rescaled_final/0715_rv.mp4	0.0	352.5083680152893	
80	334.7501075267792	fix_post	2		12	78.0	2.5	/experiments/Knapen_AOT/AOT_stimuli/rescaled_final/0715_rv.mp4	0.0	352.6268665790558	0.10002326965332031
81	334.8501307964325	fix_pre	0		120	79.0	2.5	/experiments/Knapen_AOT/AOT_stimuli/rescaled_final/1138_fw.mp4	0.0	352.7268898487091	1.0084879398345947
81	335.8586187362671	movie	1		270	79.0	2.5	/experiments/Knapen_AOT/AOT_stimuli/rescaled_final/1138_fw.mp4	0.0	353.7353777885437	2.4921936988830566
81	336.23326420783997	pulse	1	t		79.0	2.5	/experiments/Knapen_AOT/AOT_stimuli/rescaled_final/1138_fw.mp4	0.0	354.1100232601166	
81	337.83244800567627	pulse	1	t		79.0	2.5	/experiments/Knapen_AOT/AOT_stimuli/rescaled_final/1138_fw.mp4	0.0	355.7092070579529	
81	338.35081243515015	fix_post	2		12	79.0	2.5	/experiments/Knapen_AOT/AOT_stimuli/rescaled_final/1138_fw.mp4	0.0	356.22757148742676	0.09989404678344727
82	338.4507064819336	fix_pre	0		119	80.0	2.5	/experiments/Knapen_AOT/AOT_stimuli/rescaled_final/1755_rv.mp4	0.0	356.3274655342102	1.0002200603485107
82	339.43455958366394	pulse	0	t		80.0	2.5	/experiments/Knapen_AOT/AOT_stimuli/rescaled_final/1755_rv.mp4	0.0	357.31131863594055	
82	339.4509265422821	movie	1		264	80.0	2.5	/experiments/Knapen_AOT/AOT_stimuli/rescaled_final/1755_rv.mp4	0.0	357.3276855945587	2.500371217727661
82	341.03319907188416	pulse	1	t		80.0	2.5	/experiments/Knapen_AOT/AOT_stimuli/rescaled_final/1755_rv.mp4	0.0	358.90995812416077	
82	341.95129776000977	fix_post	2		12	80.0	2.5	/experiments/Knapen_AOT/AOT_stimuli/rescaled_final/1755_rv.mp4	0.0	359.8280568122864	0.09994053840637207
83	342.05123829841614	fix_pre	0		120	81.0	2.5	/experiments/Knapen_AOT/AOT_stimuli/rescaled_final/0809_rv.mp4	0.0	359.92799735069275	1.0085244178771973
83	342.6348216533661	pulse	0	t		81.0	2.5	/experiments/Knapen_AOT/AOT_stimuli/rescaled_final/0809_rv.mp4	0.0	360.5115807056427	
83	343.05976271629333	movie	1		276	81.0	2.5	/experiments/Knapen_AOT/AOT_stimuli/rescaled_final/0809_rv.mp4	0.0	360.93652176856995	2.4919841289520264
83	344.23423314094543	pulse	1	t		81.0	2.5	/experiments/Knapen_AOT/AOT_stimuli/rescaled_final/0809_rv.mp4	0.0	362.11099219322205	
83	345.55174684524536	fix_post	2		12	81.0	2.5	/experiments/Knapen_AOT/AOT_stimuli/rescaled_final/0809_rv.mp4	0.0	363.428505897522	0.10001921653747559
84	345.65176606178284	fix_pre	0		120	82.0	2.5	blank	1.0	363.52852511405945	1.0001986026763916
84	345.83534264564514	pulse	0	t		82.0	2.5	blank	1.0	363.71210169792175	
84	346.65196466445923	movie	1		300	82.0	2.5	blank	1.0	364.52872371673584	2.5003111362457275
84	347.4357240200043	pulse	1	t		82.0	2.5	blank	1.0	365.3124830722809	
84	349.03579330444336	pulse	1	t		82.0	2.5	blank	1.0	366.91255235671997	
84	349.15227580070496	fix_post	2		12	82.0	2.5	blank	1.0	367.02903485298157	0.10001969337463379
85	349.2522954940796	fix_pre	0		120	83.0	2.5	/experiments/Knapen_AOT/AOT_stimuli/rescaled_final/0984_rv.mp4	0.0	367.1290545463562	1.008483648300171
85	350.26077914237976	movie	1		291	83.0	2.5	/experiments/Knapen_AOT/AOT_stimuli/rescaled_final/0984_rv.mp4	0.0	368.1375381946564	2.492068290710449
85	350.6348922252655	pulse	1	t		83.0	2.5	/experiments/Knapen_AOT/AOT_stimuli/rescaled_final/0984_rv.mp4	0.0	368.5116512775421	
85	352.2346818447113	pulse	1	t		83.0	2.5	/experiments/Knapen_AOT/AOT_stimuli/rescaled_final/0984_rv.mp4	0.0	370.1114408969879	
85	352.7528474330902	fix_post	2		12	83.0	2.5	/experiments/Knapen_AOT/AOT_stimuli/rescaled_final/0984_rv.mp4	0.0	370.6296064853668	0.10002708435058594
87	352.8528745174408	stim	0		1716					370.7296335697174	14.302130460739136
87	353.8293447494507	pulse	0	t						371.7061038017273	
87	355.42911863327026	pulse	0	t						373.3058776855469	
87	357.02925634384155	pulse	0	t						374.90601539611816	
87	358.6292164325714	pulse	0	t						376.505975484848	
87	360.229211807251	pulse	0	t						378.1059708595276	
87	361.8294575214386	pulse	0	t						379.7062165737152	
87	363.42962765693665	pulse	0	t						381.30638670921326	
87	365.03003764152527	pulse	0	t						382.9067966938019	
87	366.6302840709686	pulse	0	t						384.50704312324524	
