trial_nr	onset	event_type	phase	response	nr_frames	movie_index	movie_duration	movie_file	blank	onset_abs	duration
0	0.14955401420593262	stim	0		94					23.616055965423584	0.7837629318237305
0	0.9252409934997559	response	0	space						24.391742944717407	
1	0.9333169460296631	stim	0		40616					24.399818897247314	338.4649660587311
1	339.3930459022522	pulse	0	t						362.85954785346985	
1	339.39828300476074	stim	1		1717					362.8647849559784	14.308238983154297
1	340.9900789260864	pulse	1	t						364.4565808773041	
1	342.59006690979004	pulse	1	t						366.0565688610077	
1	344.1900179386139	pulse	1	t						367.65651988983154	
1	345.7901029586792	pulse	1	t						369.25660490989685	
1	347.38999795913696	pulse	1	t						370.8564999103546	
1	348.9900150299072	pulse	1	t						372.4565169811249	
1	350.5899729728699	pulse	1	t						374.0564749240875	
1	352.18991804122925	pulse	1	t						375.6564199924469	
2	353.70652198791504	fix_pre	0		11	0.0	2.5	/experiments/AOT/AOT_stimuli/rescaled_final/0857_fw.mp4	0.0	377.1730239391327	0.09173989295959473
2	353.78999185562134	pulse	0	t		0.0	2.5	/experiments/AOT/AOT_stimuli/rescaled_final/0857_fw.mp4	0.0	377.256493806839	
2	353.79826188087463	movie	1		243	0.0	2.5	/experiments/AOT/AOT_stimuli/rescaled_final/0857_fw.mp4	0.0	377.2647638320923	2.5082650184631348
2	355.39018988609314	pulse	1	t		0.0	2.5	/experiments/AOT/AOT_stimuli/rescaled_final/0857_fw.mp4	0.0	378.8566918373108	
2	356.30652689933777	fix_post	2		12	0.0	2.5	/experiments/AOT/AOT_stimuli/rescaled_final/0857_fw.mp4	0.0	379.7730288505554	0.09989809989929199
3	356.40642499923706	fix_pre	0		120	1.0	2.5	/experiments/AOT/AOT_stimuli/rescaled_final/1476_rv.mp4	0.0	379.8729269504547	0.9996559619903564
3	356.99002289772034	pulse	0	t		1.0	2.5	/experiments/AOT/AOT_stimuli/rescaled_final/1476_rv.mp4	0.0	380.456524848938	
3	357.4060809612274	movie	1		245	1.0	2.5	/experiments/AOT/AOT_stimuli/rescaled_final/1476_rv.mp4	0.0	380.87258291244507	2.5004730224609375
3	358.5900888442993	pulse	1	t		1.0	2.5	/experiments/AOT/AOT_stimuli/rescaled_final/1476_rv.mp4	0.0	382.05659079551697	
3	359.90655398368835	fix_post	2		12	1.0	2.5	/experiments/AOT/AOT_stimuli/rescaled_final/1476_rv.mp4	0.0	383.373055934906	0.10000395774841309
4	360.00655794143677	fix_pre	0		120	2.0	2.5	/experiments/AOT/AOT_stimuli/rescaled_final/0787_fw.mp4	0.0	383.4730598926544	0.9998579025268555
4	360.1900269985199	pulse	0	t		2.0	2.5	/experiments/AOT/AOT_stimuli/rescaled_final/0787_fw.mp4	0.0	383.65652894973755	
4	361.0064158439636	movie	1		243	2.0	2.5	/experiments/AOT/AOT_stimuli/rescaled_final/0787_fw.mp4	0.0	384.4729177951813	2.500094175338745
4	361.79003500938416	pulse	1	t		2.0	2.5	/experiments/AOT/AOT_stimuli/rescaled_final/0787_fw.mp4	0.0	385.2565369606018	
4	363.3899269104004	pulse	1	t		2.0	2.5	/experiments/AOT/AOT_stimuli/rescaled_final/0787_fw.mp4	0.0	386.85642886161804	
4	363.50651001930237	fix_post	2		12	2.0	2.5	/experiments/AOT/AOT_stimuli/rescaled_final/0787_fw.mp4	0.0	386.97301197052	0.09997200965881348
5	363.6064820289612	fix_pre	0		120	3.0	2.5	/experiments/AOT/AOT_stimuli/rescaled_final/0129_rv.mp4	0.0	387.07298398017883	0.9999639987945557
5	364.60644602775574	movie	1		243	3.0	2.5	/experiments/AOT/AOT_stimuli/rescaled_final/0129_rv.mp4	0.0	388.0729479789734	2.4995739459991455
5	364.9895269870758	pulse	1	t		3.0	2.5	/experiments/AOT/AOT_stimuli/rescaled_final/0129_rv.mp4	0.0	388.45602893829346	
5	366.58997082710266	pulse	1	t		3.0	2.5	/experiments/AOT/AOT_stimuli/rescaled_final/0129_rv.mp4	0.0	390.0564727783203	
5	367.1060199737549	fix_post	2		12	3.0	2.5	/experiments/AOT/AOT_stimuli/rescaled_final/0129_rv.mp4	0.0	390.57252192497253	0.10040497779846191
6	367.20642495155334	fix_pre	0		119	4.0	2.5	/experiments/AOT/AOT_stimuli/rescaled_final/2115_fw.mp4	0.0	390.672926902771	0.9917118549346924
6	368.18997597694397	pulse	0	t		4.0	2.5	/experiments/AOT/AOT_stimuli/rescaled_final/2115_fw.mp4	0.0	391.6564779281616	
6	368.19813680648804	movie	1		246	4.0	2.5	/experiments/AOT/AOT_stimuli/rescaled_final/2115_fw.mp4	0.0	391.6646387577057	2.508296012878418
6	369.790158033371	pulse	1	t		4.0	2.5	/experiments/AOT/AOT_stimuli/rescaled_final/2115_fw.mp4	0.0	393.2566599845886	
6	370.70643281936646	fix_post	2		12	4.0	2.5	/experiments/AOT/AOT_stimuli/rescaled_final/2115_fw.mp4	0.0	394.1729347705841	0.1000971794128418
7	370.8065299987793	fix_pre	0		120	5.0	2.5	blank	1.0	394.27303194999695	0.9999279975891113
7	371.3899598121643	pulse	0	t		5.0	2.5	blank	1.0	394.85646176338196	
7	371.8064579963684	movie	1		300	5.0	2.5	blank	1.0	395.27295994758606	2.499997854232788
7	372.98996090888977	pulse	1	t		5.0	2.5	blank	1.0	396.4564628601074	
7	374.3064558506012	fix_post	2		12	5.0	2.5	blank	1.0	397.77295780181885	0.1000661849975586
8	374.40652203559875	fix_pre	0		120	6.0	2.5	/experiments/AOT/AOT_stimuli/rescaled_final/1737_fw.mp4	0.0	397.8730239868164	0.9999308586120605
8	374.5899429321289	pulse	0	t		6.0	2.5	/experiments/AOT/AOT_stimuli/rescaled_final/1737_fw.mp4	0.0	398.05644488334656	
8	375.4064528942108	movie	1		243	6.0	2.5	/experiments/AOT/AOT_stimuli/rescaled_final/1737_fw.mp4	0.0	398.87295484542847	2.499974012374878
8	376.18988394737244	pulse	1	t		6.0	2.5	/experiments/AOT/AOT_stimuli/rescaled_final/1737_fw.mp4	0.0	399.6563858985901	
8	377.7881398200989	pulse	1	t		6.0	2.5	/experiments/AOT/AOT_stimuli/rescaled_final/1737_fw.mp4	0.0	401.2546417713165	
8	377.9064269065857	fix_post	2		12	6.0	2.5	/experiments/AOT/AOT_stimuli/rescaled_final/1737_fw.mp4	0.0	401.37292885780334	0.10002398490905762
9	378.00645089149475	fix_pre	0		120	7.0	2.5	/experiments/AOT/AOT_stimuli/rescaled_final/1129_rv.mp4	0.0	401.4729528427124	1.0000510215759277
9	379.0065019130707	movie	1		242	7.0	2.5	/experiments/AOT/AOT_stimuli/rescaled_final/1129_rv.mp4	0.0	402.47300386428833	2.5003249645233154
9	379.3897488117218	pulse	1	t		7.0	2.5	/experiments/AOT/AOT_stimuli/rescaled_final/1129_rv.mp4	0.0	402.85625076293945	
9	380.9898760318756	pulse	1	t		7.0	2.5	/experiments/AOT/AOT_stimuli/rescaled_final/1129_rv.mp4	0.0	404.45637798309326	
9	381.506826877594	fix_post	2		12	7.0	2.5	/experiments/AOT/AOT_stimuli/rescaled_final/1129_rv.mp4	0.0	404.97332882881165	0.09953594207763672
10	381.60636281967163	fix_pre	0		119	8.0	2.5	/experiments/AOT/AOT_stimuli/rescaled_final/0760_rv.mp4	0.0	405.0728647708893	0.9917871952056885
10	382.5899419784546	pulse	0	t		8.0	2.5	/experiments/AOT/AOT_stimuli/rescaled_final/0760_rv.mp4	0.0	406.05644392967224	
10	382.5981500148773	movie	1		245	8.0	2.5	/experiments/AOT/AOT_stimuli/rescaled_final/0760_rv.mp4	0.0	406.06465196609497	2.5082240104675293
10	384.1900019645691	pulse	1	t		8.0	2.5	/experiments/AOT/AOT_stimuli/rescaled_final/0760_rv.mp4	0.0	407.65650391578674	
10	385.10637402534485	fix_post	2		12	8.0	2.5	/experiments/AOT/AOT_stimuli/rescaled_final/0760_rv.mp4	0.0	408.5728759765625	0.10001301765441895
11	385.20638704299927	fix_pre	0		120	9.0	2.5	/experiments/AOT/AOT_stimuli/rescaled_final/0649_rv.mp4	0.0	408.6728889942169	0.9995908737182617
11	385.7898700237274	pulse	0	t		9.0	2.5	/experiments/AOT/AOT_stimuli/rescaled_final/0649_rv.mp4	0.0	409.25637197494507	
11	386.20597791671753	movie	1		244	9.0	2.5	/experiments/AOT/AOT_stimuli/rescaled_final/0649_rv.mp4	0.0	409.6724798679352	2.5006461143493652
11	387.38951301574707	pulse	1	t		9.0	2.5	/experiments/AOT/AOT_stimuli/rescaled_final/0649_rv.mp4	0.0	410.8560149669647	
11	388.7066240310669	fix_post	2		12	9.0	2.5	/experiments/AOT/AOT_stimuli/rescaled_final/0649_rv.mp4	0.0	412.17312598228455	0.09999990463256836
12	388.80662393569946	fix_pre	0		120	10.0	2.5	/experiments/AOT/AOT_stimuli/rescaled_final/1222_rv.mp4	0.0	412.2731258869171	0.9997251033782959
12	388.9902169704437	pulse	0	t		10.0	2.5	/experiments/AOT/AOT_stimuli/rescaled_final/1222_rv.mp4	0.0	412.4567189216614	
12	389.80634903907776	movie	1		245	10.0	2.5	/experiments/AOT/AOT_stimuli/rescaled_final/1222_rv.mp4	0.0	413.2728509902954	2.499616861343384
12	390.5898108482361	pulse	1	t		10.0	2.5	/experiments/AOT/AOT_stimuli/rescaled_final/1222_rv.mp4	0.0	414.05631279945374	
12	392.18819403648376	pulse	1	t		10.0	2.5	/experiments/AOT/AOT_stimuli/rescaled_final/1222_rv.mp4	0.0	415.6546959877014	
12	392.30596590042114	fix_post	2		12	10.0	2.5	/experiments/AOT/AOT_stimuli/rescaled_final/1222_rv.mp4	0.0	415.7724678516388	0.10037899017333984
13	392.4063448905945	fix_pre	0		120	11.0	2.5	/experiments/AOT/AOT_stimuli/rescaled_final/0901_rv.mp4	0.0	415.87284684181213	0.9999921321868896
13	393.4063370227814	movie	1		250	11.0	2.5	/experiments/AOT/AOT_stimuli/rescaled_final/0901_rv.mp4	0.0	416.872838973999	2.4999749660491943
13	393.78936791419983	pulse	1	t		11.0	2.5	/experiments/AOT/AOT_stimuli/rescaled_final/0901_rv.mp4	0.0	417.2558698654175	
13	395.3897318840027	pulse	1	t		11.0	2.5	/experiments/AOT/AOT_stimuli/rescaled_final/0901_rv.mp4	0.0	418.85623383522034	
13	395.90631198883057	fix_post	2		12	11.0	2.5	/experiments/AOT/AOT_stimuli/rescaled_final/0901_rv.mp4	0.0	419.3728139400482	0.10004901885986328
14	396.00636100769043	fix_pre	0		119	12.0	2.5	/experiments/AOT/AOT_stimuli/rescaled_final/0068_fw.mp4	0.0	419.4728629589081	0.9916009902954102
14	396.98983502388	pulse	0	t		12.0	2.5	/experiments/AOT/AOT_stimuli/rescaled_final/0068_fw.mp4	0.0	420.45633697509766	
14	396.99796199798584	movie	1		248	12.0	2.5	/experiments/AOT/AOT_stimuli/rescaled_final/0068_fw.mp4	0.0	420.4644639492035	2.507896900177002
14	398.5894470214844	pulse	1	t		12.0	2.5	/experiments/AOT/AOT_stimuli/rescaled_final/0068_fw.mp4	0.0	422.055948972702	
14	399.50585889816284	fix_post	2		12	12.0	2.5	/experiments/AOT/AOT_stimuli/rescaled_final/0068_fw.mp4	0.0	422.9723608493805	0.1004021167755127
15	399.60626101493835	fix_pre	0		120	13.0	2.5	/experiments/AOT/AOT_stimuli/rescaled_final/0344_rv.mp4	0.0	423.072762966156	1.0000247955322266
15	400.18989396095276	pulse	0	t		13.0	2.5	/experiments/AOT/AOT_stimuli/rescaled_final/0344_rv.mp4	0.0	423.6563959121704	
15	400.6062858104706	movie	1		245	13.0	2.5	/experiments/AOT/AOT_stimuli/rescaled_final/0344_rv.mp4	0.0	424.07278776168823	2.4999711513519287
15	401.7898440361023	pulse	1	t		13.0	2.5	/experiments/AOT/AOT_stimuli/rescaled_final/0344_rv.mp4	0.0	425.25634598731995	
15	403.1062569618225	fix_post	2		12	13.0	2.5	/experiments/AOT/AOT_stimuli/rescaled_final/0344_rv.mp4	0.0	426.57275891304016	0.09998893737792969
16	403.20624589920044	fix_pre	0		120	14.0	2.5	blank	1.0	426.6727478504181	1.0000300407409668
16	403.38987493515015	pulse	0	t		14.0	2.5	blank	1.0	426.8563768863678	
16	404.2062759399414	movie	1		300	14.0	2.5	blank	1.0	427.67277789115906	2.499993085861206
16	404.9897949695587	pulse	1	t		14.0	2.5	blank	1.0	428.45629692077637	
16	406.58973002433777	pulse	1	t		14.0	2.5	blank	1.0	430.0562319755554	
16	406.7062690258026	fix_post	2		12	14.0	2.5	blank	1.0	430.17277097702026	0.09995484352111816
17	406.80622386932373	fix_pre	0		120	15.0	2.5	/experiments/AOT/AOT_stimuli/rescaled_final/0250_fw.mp4	0.0	430.2727258205414	1.0000779628753662
17	407.8063018321991	movie	1		244	15.0	2.5	/experiments/AOT/AOT_stimuli/rescaled_final/0250_fw.mp4	0.0	431.27280378341675	2.4998841285705566
17	408.18917202949524	pulse	1	t		15.0	2.5	/experiments/AOT/AOT_stimuli/rescaled_final/0250_fw.mp4	0.0	431.6556739807129	
17	409.7897298336029	pulse	1	t		15.0	2.5	/experiments/AOT/AOT_stimuli/rescaled_final/0250_fw.mp4	0.0	433.25623178482056	
17	410.30618596076965	fix_post	2		12	15.0	2.5	/experiments/AOT/AOT_stimuli/rescaled_final/0250_fw.mp4	0.0	433.7726879119873	0.10006189346313477
18	410.4062478542328	fix_pre	0		119	16.0	2.5	/experiments/AOT/AOT_stimuli/rescaled_final/1977_rv.mp4	0.0	433.87274980545044	0.9917271137237549
18	411.38971495628357	pulse	0	t		16.0	2.5	/experiments/AOT/AOT_stimuli/rescaled_final/1977_rv.mp4	0.0	434.8562169075012	
18	411.39797496795654	movie	1		246	16.0	2.5	/experiments/AOT/AOT_stimuli/rescaled_final/1977_rv.mp4	0.0	434.8644769191742	2.508301019668579
18	412.99058985710144	pulse	1	t		16.0	2.5	/experiments/AOT/AOT_stimuli/rescaled_final/1977_rv.mp4	0.0	436.4570918083191	
18	413.9062759876251	fix_post	2		12	16.0	2.5	/experiments/AOT/AOT_stimuli/rescaled_final/1977_rv.mp4	0.0	437.3727779388428	0.09993386268615723
19	414.0062098503113	fix_pre	0		120	17.0	2.5	/experiments/AOT/AOT_stimuli/rescaled_final/1605_rv.mp4	0.0	437.47271180152893	1.000025987625122
19	414.58971095085144	pulse	0	t		17.0	2.5	/experiments/AOT/AOT_stimuli/rescaled_final/1605_rv.mp4	0.0	438.0562129020691	
19	415.0062358379364	movie	1		245	17.0	2.5	/experiments/AOT/AOT_stimuli/rescaled_final/1605_rv.mp4	0.0	438.47273778915405	2.4999570846557617
19	416.1897540092468	pulse	1	t		17.0	2.5	/experiments/AOT/AOT_stimuli/rescaled_final/1605_rv.mp4	0.0	439.6562559604645	
19	417.50619292259216	fix_post	2		12	17.0	2.5	/experiments/AOT/AOT_stimuli/rescaled_final/1605_rv.mp4	0.0	440.9726948738098	0.10004401206970215
20	417.60623693466187	fix_pre	0		120	18.0	2.5	/experiments/AOT/AOT_stimuli/rescaled_final/1063_rv.mp4	0.0	441.0727388858795	1.0000369548797607
20	417.7897410392761	pulse	0	t		18.0	2.5	/experiments/AOT/AOT_stimuli/rescaled_final/1063_rv.mp4	0.0	441.2562429904938	
20	418.6062738895416	movie	1		245	18.0	2.5	/experiments/AOT/AOT_stimuli/rescaled_final/1063_rv.mp4	0.0	442.0727758407593	2.499527931213379
20	419.3898069858551	pulse	1	t		18.0	2.5	/experiments/AOT/AOT_stimuli/rescaled_final/1063_rv.mp4	0.0	442.85630893707275	
20	420.98851203918457	pulse	1	t		18.0	2.5	/experiments/AOT/AOT_stimuli/rescaled_final/1063_rv.mp4	0.0	444.4550139904022	
20	421.105801820755	fix_post	2		12	18.0	2.5	/experiments/AOT/AOT_stimuli/rescaled_final/1063_rv.mp4	0.0	444.57230377197266	0.10045814514160156
21	421.2062599658966	fix_pre	0		120	19.0	2.5	/experiments/AOT/AOT_stimuli/rescaled_final/1699_fw.mp4	0.0	444.67276191711426	0.9999470710754395
21	422.20620703697205	movie	1		243	19.0	2.5	/experiments/AOT/AOT_stimuli/rescaled_final/1699_fw.mp4	0.0	445.6727089881897	2.5000498294830322
21	422.5901219844818	pulse	1	t		19.0	2.5	/experiments/AOT/AOT_stimuli/rescaled_final/1699_fw.mp4	0.0	446.05662393569946	
21	424.1896870136261	pulse	1	t		19.0	2.5	/experiments/AOT/AOT_stimuli/rescaled_final/1699_fw.mp4	0.0	447.65618896484375	
21	424.7062568664551	fix_post	2		12	19.0	2.5	/experiments/AOT/AOT_stimuli/rescaled_final/1699_fw.mp4	0.0	448.17275881767273	0.09991002082824707
22	424.8061668872833	fix_pre	0		119	20.0	2.5	/experiments/AOT/AOT_stimuli/rescaled_final/0357_fw.mp4	0.0	448.272668838501	0.9916610717773438
22	425.7896559238434	pulse	0	t		20.0	2.5	/experiments/AOT/AOT_stimuli/rescaled_final/0357_fw.mp4	0.0	449.25615787506104	
22	425.79782795906067	movie	1		245	20.0	2.5	/experiments/AOT/AOT_stimuli/rescaled_final/0357_fw.mp4	0.0	449.2643299102783	2.508272886276245
22	427.39077496528625	pulse	1	t		20.0	2.5	/experiments/AOT/AOT_stimuli/rescaled_final/0357_fw.mp4	0.0	450.8572769165039	
22	428.3061008453369	fix_post	2		12	20.0	2.5	/experiments/AOT/AOT_stimuli/rescaled_final/0357_fw.mp4	0.0	451.77260279655457	0.1000521183013916
23	428.4061529636383	fix_pre	0		120	21.0	2.5	blank	1.0	451.87265491485596	1.000032901763916
23	428.9897530078888	pulse	0	t		21.0	2.5	blank	1.0	452.45625495910645	
23	429.4061858654022	movie	1		300	21.0	2.5	blank	1.0	452.8726878166199	2.499951124191284
23	430.5897099971771	pulse	1	t		21.0	2.5	blank	1.0	454.0562119483948	
23	431.9061369895935	fix_post	2		12	21.0	2.5	blank	1.0	455.37263894081116	0.10000395774841309
24	432.0061409473419	fix_pre	0		120	22.0	2.5	/experiments/AOT/AOT_stimuli/rescaled_final/1249_fw.mp4	0.0	455.47264289855957	0.9995689392089844
24	432.1896548271179	pulse	0	t		22.0	2.5	/experiments/AOT/AOT_stimuli/rescaled_final/1249_fw.mp4	0.0	455.65615677833557	
24	433.0057098865509	movie	1		244	22.0	2.5	/experiments/AOT/AOT_stimuli/rescaled_final/1249_fw.mp4	0.0	456.47221183776855	2.5004000663757324
24	433.789666891098	pulse	1	t		22.0	2.5	/experiments/AOT/AOT_stimuli/rescaled_final/1249_fw.mp4	0.0	457.2561688423157	
24	435.38802886009216	pulse	1	t		22.0	2.5	/experiments/AOT/AOT_stimuli/rescaled_final/1249_fw.mp4	0.0	458.8545308113098	
24	435.50610995292664	fix_post	2		12	22.0	2.5	/experiments/AOT/AOT_stimuli/rescaled_final/1249_fw.mp4	0.0	458.9726119041443	0.10005903244018555
25	435.6061689853668	fix_pre	0		120	23.0	2.5	/experiments/AOT/AOT_stimuli/rescaled_final/1967_fw.mp4	0.0	459.0726709365845	0.9999969005584717
25	436.6061658859253	movie	1		244	23.0	2.5	/experiments/AOT/AOT_stimuli/rescaled_final/1967_fw.mp4	0.0	460.07266783714294	2.499998092651367
25	436.98917984962463	pulse	1	t		23.0	2.5	/experiments/AOT/AOT_stimuli/rescaled_final/1967_fw.mp4	0.0	460.4556818008423	
25	438.58955788612366	pulse	1	t		23.0	2.5	/experiments/AOT/AOT_stimuli/rescaled_final/1967_fw.mp4	0.0	462.0560598373413	
25	439.10616397857666	fix_post	2		12	23.0	2.5	/experiments/AOT/AOT_stimuli/rescaled_final/1967_fw.mp4	0.0	462.5726659297943	0.0999748706817627
26	439.2061388492584	fix_pre	0		119	24.0	2.5	/experiments/AOT/AOT_stimuli/rescaled_final/0532_fw.mp4	0.0	462.6726408004761	0.9915909767150879
26	440.1895809173584	pulse	0	t		24.0	2.5	/experiments/AOT/AOT_stimuli/rescaled_final/0532_fw.mp4	0.0	463.65608286857605	
26	440.1977298259735	movie	1		248	24.0	2.5	/experiments/AOT/AOT_stimuli/rescaled_final/0532_fw.mp4	0.0	463.66423177719116	2.508040189743042
26	441.78904700279236	pulse	1	t		24.0	2.5	/experiments/AOT/AOT_stimuli/rescaled_final/0532_fw.mp4	0.0	465.25554895401	
26	442.70577001571655	fix_post	2		12	24.0	2.5	/experiments/AOT/AOT_stimuli/rescaled_final/0532_fw.mp4	0.0	466.1722719669342	0.09993600845336914
27	442.8057060241699	fix_pre	0		120	25.0	2.5	/experiments/AOT/AOT_stimuli/rescaled_final/0775_rv.mp4	0.0	466.2722079753876	1.000187873840332
27	443.3892409801483	pulse	0	t		25.0	2.5	/experiments/AOT/AOT_stimuli/rescaled_final/0775_rv.mp4	0.0	466.85574293136597	
27	443.80589389801025	movie	1		245	25.0	2.5	/experiments/AOT/AOT_stimuli/rescaled_final/0775_rv.mp4	0.0	467.2723958492279	2.499846935272217
27	444.98985981941223	pulse	1	t		25.0	2.5	/experiments/AOT/AOT_stimuli/rescaled_final/0775_rv.mp4	0.0	468.4563617706299	
27	446.30574083328247	fix_post	2		12	25.0	2.5	/experiments/AOT/AOT_stimuli/rescaled_final/0775_rv.mp4	0.0	469.7722427845001	0.10039305686950684
28	446.406133890152	fix_pre	0		120	26.0	2.5	blank	1.0	469.87263584136963	0.999575138092041
28	446.58979082107544	pulse	0	t		26.0	2.5	blank	1.0	470.0562927722931	
28	447.405709028244	movie	1		300	26.0	2.5	blank	1.0	470.87221097946167	2.4999020099639893
28	448.1894989013672	pulse	1	t		26.0	2.5	blank	1.0	471.65600085258484	
28	449.7895278930664	pulse	1	t		26.0	2.5	blank	1.0	473.25602984428406	
28	449.905611038208	fix_post	2		12	26.0	2.5	blank	1.0	473.37211298942566	0.10038280487060547
29	450.0059938430786	fix_pre	0		120	27.0	2.5	/experiments/AOT/AOT_stimuli/rescaled_final/1165_fw.mp4	0.0	473.47249579429626	1.0000050067901611
29	451.0059988498688	movie	1		245	27.0	2.5	/experiments/AOT/AOT_stimuli/rescaled_final/1165_fw.mp4	0.0	474.4725008010864	2.50004506111145
29	451.389084815979	pulse	1	t		27.0	2.5	/experiments/AOT/AOT_stimuli/rescaled_final/1165_fw.mp4	0.0	474.85558676719666	
29	452.989483833313	pulse	1	t		27.0	2.5	/experiments/AOT/AOT_stimuli/rescaled_final/1165_fw.mp4	0.0	476.45598578453064	
29	453.5060439109802	fix_post	2		12	27.0	2.5	/experiments/AOT/AOT_stimuli/rescaled_final/1165_fw.mp4	0.0	476.9725458621979	0.10000491142272949
30	453.60604882240295	fix_pre	0		119	28.0	2.5	/experiments/AOT/AOT_stimuli/rescaled_final/0261_rv.mp4	0.0	477.0725507736206	0.9915950298309326
30	454.5894980430603	pulse	0	t		28.0	2.5	/experiments/AOT/AOT_stimuli/rescaled_final/0261_rv.mp4	0.0	478.05599999427795	
30	454.5976438522339	movie	1		248	28.0	2.5	/experiments/AOT/AOT_stimuli/rescaled_final/0261_rv.mp4	0.0	478.06414580345154	2.508327007293701
30	456.188894033432	pulse	1	t		28.0	2.5	/experiments/AOT/AOT_stimuli/rescaled_final/0261_rv.mp4	0.0	479.65539598464966	
30	457.1059708595276	fix_post	2		12	28.0	2.5	/experiments/AOT/AOT_stimuli/rescaled_final/0261_rv.mp4	0.0	480.57247281074524	0.10008096694946289
31	457.20605182647705	fix_pre	0		120	29.0	2.5	/experiments/AOT/AOT_stimuli/rescaled_final/0871_fw.mp4	0.0	480.6725537776947	0.9999241828918457
31	457.78952503204346	pulse	0	t		29.0	2.5	/experiments/AOT/AOT_stimuli/rescaled_final/0871_fw.mp4	0.0	481.2560269832611	
31	458.2059760093689	movie	1		246	29.0	2.5	/experiments/AOT/AOT_stimuli/rescaled_final/0871_fw.mp4	0.0	481.67247796058655	2.500093936920166
31	459.3895950317383	pulse	1	t		29.0	2.5	/experiments/AOT/AOT_stimuli/rescaled_final/0871_fw.mp4	0.0	482.85609698295593	
31	460.70606994628906	fix_post	2		12	29.0	2.5	/experiments/AOT/AOT_stimuli/rescaled_final/0871_fw.mp4	0.0	484.1725718975067	0.09989500045776367
32	460.8059649467468	fix_pre	0		120	30.0	2.5	/experiments/AOT/AOT_stimuli/rescaled_final/0344_fw.mp4	0.0	484.2724668979645	1.000040054321289
32	460.9895029067993	pulse	0	t		30.0	2.5	/experiments/AOT/AOT_stimuli/rescaled_final/0344_fw.mp4	0.0	484.45600485801697	
32	461.8060050010681	movie	1		245	30.0	2.5	/experiments/AOT/AOT_stimuli/rescaled_final/0344_fw.mp4	0.0	485.27250695228577	2.499974012374878
32	462.5895290374756	pulse	1	t		30.0	2.5	/experiments/AOT/AOT_stimuli/rescaled_final/0344_fw.mp4	0.0	486.05603098869324	
32	464.18852496147156	pulse	1	t		30.0	2.5	/experiments/AOT/AOT_stimuli/rescaled_final/0344_fw.mp4	0.0	487.6550269126892	
32	464.305979013443	fix_post	2		12	30.0	2.5	/experiments/AOT/AOT_stimuli/rescaled_final/0344_fw.mp4	0.0	487.77248096466064	0.09993600845336914
33	464.40591502189636	fix_pre	0		120	31.0	2.5	/experiments/AOT/AOT_stimuli/rescaled_final/0180_rv.mp4	0.0	487.872416973114	0.9996650218963623
33	465.4055800437927	movie	1		245	31.0	2.5	/experiments/AOT/AOT_stimuli/rescaled_final/0180_rv.mp4	0.0	488.8720819950104	2.5003819465637207
33	465.7904758453369	pulse	1	t		31.0	2.5	/experiments/AOT/AOT_stimuli/rescaled_final/0180_rv.mp4	0.0	489.25697779655457	
33	467.3894488811493	pulse	1	t		31.0	2.5	/experiments/AOT/AOT_stimuli/rescaled_final/0180_rv.mp4	0.0	490.85595083236694	
33	467.90596199035645	fix_post	2		12	31.0	2.5	/experiments/AOT/AOT_stimuli/rescaled_final/0180_rv.mp4	0.0	491.3724639415741	0.10000395774841309
34	468.00596594810486	fix_pre	0		119	32.0	2.5	/experiments/AOT/AOT_stimuli/rescaled_final/0390_rv.mp4	0.0	491.4724678993225	0.9916479587554932
34	468.9894459247589	pulse	0	t		32.0	2.5	/experiments/AOT/AOT_stimuli/rescaled_final/0390_rv.mp4	0.0	492.45594787597656	
34	468.99761390686035	movie	1		247	32.0	2.5	/experiments/AOT/AOT_stimuli/rescaled_final/0390_rv.mp4	0.0	492.464115858078	2.5083179473876953
34	470.5895869731903	pulse	1	t		32.0	2.5	/experiments/AOT/AOT_stimuli/rescaled_final/0390_rv.mp4	0.0	494.05608892440796	
34	471.50593185424805	fix_post	2		12	32.0	2.5	/experiments/AOT/AOT_stimuli/rescaled_final/0390_rv.mp4	0.0	494.9724338054657	0.09998297691345215
35	471.6059148311615	fix_pre	0		120	33.0	2.5	blank	1.0	495.07241678237915	1.000028133392334
35	472.1894688606262	pulse	0	t		33.0	2.5	blank	1.0	495.6559708118439	
35	472.60594296455383	movie	1		300	33.0	2.5	blank	1.0	496.0724449157715	2.499974012374878
35	473.78940296173096	pulse	1	t		33.0	2.5	blank	1.0	497.2559049129486	
35	475.1059169769287	fix_post	2		12	33.0	2.5	blank	1.0	498.57241892814636	0.09995889663696289
36	475.2058758735657	fix_pre	0		120	34.0	2.5	/experiments/AOT/AOT_stimuli/rescaled_final/0134_rv.mp4	0.0	498.6723778247833	1.0000569820404053
36	475.3894159793854	pulse	0	t		34.0	2.5	/experiments/AOT/AOT_stimuli/rescaled_final/0134_rv.mp4	0.0	498.855917930603	
36	476.2059328556061	movie	1		244	34.0	2.5	/experiments/AOT/AOT_stimuli/rescaled_final/0134_rv.mp4	0.0	499.67243480682373	2.4995479583740234
36	476.98938488960266	pulse	1	t		34.0	2.5	/experiments/AOT/AOT_stimuli/rescaled_final/0134_rv.mp4	0.0	500.4558868408203	
36	478.58840584754944	pulse	1	t		34.0	2.5	/experiments/AOT/AOT_stimuli/rescaled_final/0134_rv.mp4	0.0	502.0549077987671	
36	478.7054808139801	fix_post	2		12	34.0	2.5	/experiments/AOT/AOT_stimuli/rescaled_final/0134_rv.mp4	0.0	502.17198276519775	0.10045313835144043
37	478.80593395233154	fix_pre	0		120	35.0	2.5	/experiments/AOT/AOT_stimuli/rescaled_final/1710_rv.mp4	0.0	502.2724359035492	1.0000159740447998
37	479.80594992637634	movie	1		246	35.0	2.5	/experiments/AOT/AOT_stimuli/rescaled_final/1710_rv.mp4	0.0	503.272451877594	2.499907970428467
37	480.190279006958	pulse	1	t		35.0	2.5	/experiments/AOT/AOT_stimuli/rescaled_final/1710_rv.mp4	0.0	503.65678095817566	
37	481.78939294815063	pulse	1	t		35.0	2.5	/experiments/AOT/AOT_stimuli/rescaled_final/1710_rv.mp4	0.0	505.2558948993683	
37	482.3058578968048	fix_post	2		12	35.0	2.5	/experiments/AOT/AOT_stimuli/rescaled_final/1710_rv.mp4	0.0	505.77235984802246	0.10022401809692383
38	482.40608191490173	fix_pre	0		119	36.0	2.5	/experiments/AOT/AOT_stimuli/rescaled_final/0787_rv.mp4	0.0	505.8725838661194	0.9914250373840332
38	483.38931584358215	pulse	0	t		36.0	2.5	/experiments/AOT/AOT_stimuli/rescaled_final/0787_rv.mp4	0.0	506.8558177947998	
38	483.39750695228577	movie	1		248	36.0	2.5	/experiments/AOT/AOT_stimuli/rescaled_final/0787_rv.mp4	0.0	506.8640089035034	2.5083889961242676
38	484.98893785476685	pulse	1	t		36.0	2.5	/experiments/AOT/AOT_stimuli/rescaled_final/0787_rv.mp4	0.0	508.4554398059845	
38	485.90589594841003	fix_post	2		12	36.0	2.5	/experiments/AOT/AOT_stimuli/rescaled_final/0787_rv.mp4	0.0	509.3723978996277	0.10014200210571289
39	486.00603795051575	fix_pre	0		120	37.0	2.5	/experiments/AOT/AOT_stimuli/rescaled_final/0157_fw.mp4	0.0	509.4725399017334	0.99947190284729
39	486.58940386772156	pulse	0	t		37.0	2.5	/experiments/AOT/AOT_stimuli/rescaled_final/0157_fw.mp4	0.0	510.0559058189392	
39	487.00550985336304	movie	1		243	37.0	2.5	/experiments/AOT/AOT_stimuli/rescaled_final/0157_fw.mp4	0.0	510.4720118045807	2.499969959259033
39	488.18935799598694	pulse	1	t		37.0	2.5	/experiments/AOT/AOT_stimuli/rescaled_final/0157_fw.mp4	0.0	511.6558599472046	
39	489.50547981262207	fix_post	2		12	37.0	2.5	/experiments/AOT/AOT_stimuli/rescaled_final/0157_fw.mp4	0.0	512.9719817638397	0.10041308403015137
40	489.6058928966522	fix_pre	0		120	38.0	2.5	/experiments/AOT/AOT_stimuli/rescaled_final/1994_rv.mp4	0.0	513.0723948478699	0.9999971389770508
40	489.7893190383911	pulse	0	t		38.0	2.5	/experiments/AOT/AOT_stimuli/rescaled_final/1994_rv.mp4	0.0	513.2558209896088	
40	490.6058900356293	movie	1		245	38.0	2.5	/experiments/AOT/AOT_stimuli/rescaled_final/1994_rv.mp4	0.0	514.0723919868469	2.4999399185180664
40	491.38939595222473	pulse	1	t		38.0	2.5	/experiments/AOT/AOT_stimuli/rescaled_final/1994_rv.mp4	0.0	514.8558979034424	
40	492.98781991004944	pulse	1	t		38.0	2.5	/experiments/AOT/AOT_stimuli/rescaled_final/1994_rv.mp4	0.0	516.4543218612671	
40	493.10582995414734	fix_post	2		12	38.0	2.5	/experiments/AOT/AOT_stimuli/rescaled_final/1994_rv.mp4	0.0	516.572331905365	0.1000070571899414
41	493.2058370113373	fix_pre	0		120	39.0	2.5	/experiments/AOT/AOT_stimuli/rescaled_final/0812_rv.mp4	0.0	516.6723389625549	0.9999969005584717
41	494.20583391189575	movie	1		242	39.0	2.5	/experiments/AOT/AOT_stimuli/rescaled_final/0812_rv.mp4	0.0	517.6723358631134	2.5000479221343994
41	494.58892703056335	pulse	1	t		39.0	2.5	/experiments/AOT/AOT_stimuli/rescaled_final/0812_rv.mp4	0.0	518.055428981781	
41	496.1893038749695	pulse	1	t		39.0	2.5	/experiments/AOT/AOT_stimuli/rescaled_final/0812_rv.mp4	0.0	519.6558058261871	
41	496.70588183403015	fix_post	2		12	39.0	2.5	/experiments/AOT/AOT_stimuli/rescaled_final/0812_rv.mp4	0.0	520.1723837852478	0.09994697570800781
42	496.80582880973816	fix_pre	0		119	40.0	2.5	blank	1.0	520.2723307609558	0.9916810989379883
42	497.7894229888916	pulse	0	t		40.0	2.5	blank	1.0	521.2559249401093	
42	497.79750990867615	movie	1		301	40.0	2.5	blank	1.0	521.2640118598938	2.508073091506958
42	499.3893949985504	pulse	1	t		40.0	2.5	blank	1.0	522.8558969497681	
42	500.3055830001831	fix_post	2		12	40.0	2.5	blank	1.0	523.7720849514008	0.10005688667297363
43	500.4056398868561	fix_pre	0		120	41.0	2.5	/experiments/AOT/AOT_stimuli/rescaled_final/1117_rv.mp4	0.0	523.8721418380737	1.0002031326293945
43	500.9892349243164	pulse	0	t		41.0	2.5	/experiments/AOT/AOT_stimuli/rescaled_final/1117_rv.mp4	0.0	524.4557368755341	
43	501.4058430194855	movie	1		245	41.0	2.5	/experiments/AOT/AOT_stimuli/rescaled_final/1117_rv.mp4	0.0	524.8723449707031	2.4995839595794678
43	502.58943486213684	pulse	1	t		41.0	2.5	/experiments/AOT/AOT_stimuli/rescaled_final/1117_rv.mp4	0.0	526.0559368133545	
43	503.90542697906494	fix_post	2		12	41.0	2.5	/experiments/AOT/AOT_stimuli/rescaled_final/1117_rv.mp4	0.0	527.3719289302826	0.10037899017333984
44	504.0058059692383	fix_pre	0		120	42.0	2.5	/experiments/AOT/AOT_stimuli/rescaled_final/1977_rv.mp4	0.0	527.4723079204559	0.9999780654907227
44	504.1893148422241	pulse	0	t		42.0	2.5	/experiments/AOT/AOT_stimuli/rescaled_final/1977_rv.mp4	0.0	527.6558167934418	
44	505.005784034729	movie	1		245	42.0	2.5	/experiments/AOT/AOT_stimuli/rescaled_final/1977_rv.mp4	0.0	528.4722859859467	2.4999868869781494
44	505.7891778945923	pulse	1	t		42.0	2.5	/experiments/AOT/AOT_stimuli/rescaled_final/1977_rv.mp4	0.0	529.2556798458099	
44	507.387925863266	pulse	1	t		42.0	2.5	/experiments/AOT/AOT_stimuli/rescaled_final/1977_rv.mp4	0.0	530.8544278144836	
44	507.50577092170715	fix_post	2		12	42.0	2.5	/experiments/AOT/AOT_stimuli/rescaled_final/1977_rv.mp4	0.0	530.9722728729248	0.09999394416809082
45	507.60576486587524	fix_pre	0		120	43.0	2.5	/experiments/AOT/AOT_stimuli/rescaled_final/0344_fw.mp4	0.0	531.0722668170929	1.000020980834961
45	508.6057858467102	movie	1		245	43.0	2.5	/experiments/AOT/AOT_stimuli/rescaled_final/0344_fw.mp4	0.0	532.0722877979279	2.4999451637268066
45	508.989284992218	pulse	1	t		43.0	2.5	/experiments/AOT/AOT_stimuli/rescaled_final/0344_fw.mp4	0.0	532.4557869434357	
45	510.5892548561096	pulse	1	t		43.0	2.5	/experiments/AOT/AOT_stimuli/rescaled_final/0344_fw.mp4	0.0	534.0557568073273	
45	511.105731010437	fix_post	2		12	43.0	2.5	/experiments/AOT/AOT_stimuli/rescaled_final/0344_fw.mp4	0.0	534.5722329616547	0.10002303123474121
46	511.20575404167175	fix_pre	0		119	44.0	2.5	/experiments/AOT/AOT_stimuli/rescaled_final/0134_fw.mp4	0.0	534.6722559928894	0.9916648864746094
46	512.1891958713531	pulse	0	t		44.0	2.5	/experiments/AOT/AOT_stimuli/rescaled_final/0134_fw.mp4	0.0	535.6556978225708	
46	512.1974189281464	movie	1		246	44.0	2.5	/experiments/AOT/AOT_stimuli/rescaled_final/0134_fw.mp4	0.0	535.663920879364	2.5083060264587402
46	513.7906119823456	pulse	1	t		44.0	2.5	/experiments/AOT/AOT_stimuli/rescaled_final/0134_fw.mp4	0.0	537.2571139335632	
46	514.7057249546051	fix_post	2		12	44.0	2.5	/experiments/AOT/AOT_stimuli/rescaled_final/0134_fw.mp4	0.0	538.1722269058228	0.09997892379760742
47	514.8057038784027	fix_pre	0		120	45.0	2.5	/experiments/AOT/AOT_stimuli/rescaled_final/0242_fw.mp4	0.0	538.2722058296204	0.999993085861206
47	515.3893179893494	pulse	0	t		45.0	2.5	/experiments/AOT/AOT_stimuli/rescaled_final/0242_fw.mp4	0.0	538.855819940567	
47	515.8056969642639	movie	1		245	45.0	2.5	/experiments/AOT/AOT_stimuli/rescaled_final/0242_fw.mp4	0.0	539.2721989154816	2.49993896484375
47	516.9892578125	pulse	1	t		45.0	2.5	/experiments/AOT/AOT_stimuli/rescaled_final/0242_fw.mp4	0.0	540.4557597637177	
47	518.3056359291077	fix_post	2		12	45.0	2.5	/experiments/AOT/AOT_stimuli/rescaled_final/0242_fw.mp4	0.0	541.7721378803253	0.10004091262817383
48	518.4056768417358	fix_pre	0		120	46.0	2.5	/experiments/AOT/AOT_stimuli/rescaled_final/1033_rv.mp4	0.0	541.8721787929535	0.9999589920043945
48	518.5893399715424	pulse	0	t		46.0	2.5	/experiments/AOT/AOT_stimuli/rescaled_final/1033_rv.mp4	0.0	542.05584192276	
48	519.4056358337402	movie	1		243	46.0	2.5	/experiments/AOT/AOT_stimuli/rescaled_final/1033_rv.mp4	0.0	542.8721377849579	2.499638080596924
48	520.1892359256744	pulse	1	t		46.0	2.5	/experiments/AOT/AOT_stimuli/rescaled_final/1033_rv.mp4	0.0	543.6557378768921	
48	521.787398815155	pulse	1	t		46.0	2.5	/experiments/AOT/AOT_stimuli/rescaled_final/1033_rv.mp4	0.0	545.2539007663727	
48	521.9052739143372	fix_post	2		12	46.0	2.5	/experiments/AOT/AOT_stimuli/rescaled_final/1033_rv.mp4	0.0	545.3717758655548	0.1004180908203125
49	522.0056920051575	fix_pre	0		120	47.0	2.5	/experiments/AOT/AOT_stimuli/rescaled_final/0515_fw.mp4	0.0	545.4721939563751	1.0000109672546387
49	523.0057029724121	movie	1		244	47.0	2.5	/experiments/AOT/AOT_stimuli/rescaled_final/0515_fw.mp4	0.0	546.4722049236298	2.4999399185180664
49	523.3889589309692	pulse	1	t		47.0	2.5	/experiments/AOT/AOT_stimuli/rescaled_final/0515_fw.mp4	0.0	546.8554608821869	
49	524.989217042923	pulse	1	t		47.0	2.5	/experiments/AOT/AOT_stimuli/rescaled_final/0515_fw.mp4	0.0	548.4557189941406	
49	525.5056428909302	fix_post	2		12	47.0	2.5	/experiments/AOT/AOT_stimuli/rescaled_final/0515_fw.mp4	0.0	548.9721448421478	0.0999901294708252
50	525.605633020401	fix_pre	0		119	48.0	2.5	/experiments/AOT/AOT_stimuli/rescaled_final/0820_rv.mp4	0.0	549.0721349716187	0.9916279315948486
50	526.5892329216003	pulse	0	t		48.0	2.5	/experiments/AOT/AOT_stimuli/rescaled_final/0820_rv.mp4	0.0	550.055734872818	
50	526.5972609519958	movie	1		244	48.0	2.5	/experiments/AOT/AOT_stimuli/rescaled_final/0820_rv.mp4	0.0	550.0637629032135	2.508405923843384
50	528.1894369125366	pulse	1	t		48.0	2.5	/experiments/AOT/AOT_stimuli/rescaled_final/0820_rv.mp4	0.0	551.6559388637543	
50	529.1056668758392	fix_post	2		12	48.0	2.5	/experiments/AOT/AOT_stimuli/rescaled_final/0820_rv.mp4	0.0	552.5721688270569	0.10003995895385742
51	529.2057068347931	fix_pre	0		120	49.0	2.5	blank	1.0	552.6722087860107	0.9999420642852783
51	529.7891368865967	pulse	0	t		49.0	2.5	blank	1.0	553.2556388378143	
51	530.2056488990784	movie	1		300	49.0	2.5	blank	1.0	553.672150850296	2.4999630451202393
51	531.3891649246216	pulse	1	t		49.0	2.5	blank	1.0	554.8556668758392	
51	532.7056119441986	fix_post	2		12	49.0	2.5	blank	1.0	556.1721138954163	0.10003805160522461
52	532.8056499958038	fix_pre	0		120	50.0	2.5	/experiments/AOT/AOT_stimuli/rescaled_final/1837_rv.mp4	0.0	556.2721519470215	0.9999918937683105
52	532.9891128540039	pulse	0	t		50.0	2.5	/experiments/AOT/AOT_stimuli/rescaled_final/1837_rv.mp4	0.0	556.4556148052216	
52	533.8056418895721	movie	1		244	50.0	2.5	/experiments/AOT/AOT_stimuli/rescaled_final/1837_rv.mp4	0.0	557.2721438407898	2.4996490478515625
52	534.5891058444977	pulse	1	t		50.0	2.5	/experiments/AOT/AOT_stimuli/rescaled_final/1837_rv.mp4	0.0	558.0556077957153	
52	536.1874299049377	pulse	1	t		50.0	2.5	/experiments/AOT/AOT_stimuli/rescaled_final/1837_rv.mp4	0.0	559.6539318561554	
52	536.3052909374237	fix_post	2		12	50.0	2.5	/experiments/AOT/AOT_stimuli/rescaled_final/1837_rv.mp4	0.0	559.7717928886414	0.1003570556640625
53	536.4056479930878	fix_pre	0		120	51.0	2.5	/experiments/AOT/AOT_stimuli/rescaled_final/0709_fw.mp4	0.0	559.8721499443054	1.0000128746032715
53	537.405660867691	movie	1		244	51.0	2.5	/experiments/AOT/AOT_stimuli/rescaled_final/0709_fw.mp4	0.0	560.8721628189087	2.499505043029785
53	537.7889888286591	pulse	1	t		51.0	2.5	/experiments/AOT/AOT_stimuli/rescaled_final/0709_fw.mp4	0.0	561.2554907798767	
53	539.3891279697418	pulse	1	t		51.0	2.5	/experiments/AOT/AOT_stimuli/rescaled_final/0709_fw.mp4	0.0	562.8556299209595	
53	539.9051659107208	fix_post	2		12	51.0	2.5	/experiments/AOT/AOT_stimuli/rescaled_final/0709_fw.mp4	0.0	563.3716678619385	0.1003880500793457
54	540.0055539608002	fix_pre	0		119	52.0	2.5	/experiments/AOT/AOT_stimuli/rescaled_final/1035_fw.mp4	0.0	563.4720559120178	0.9916770458221436
54	540.9891498088837	pulse	0	t		52.0	2.5	/experiments/AOT/AOT_stimuli/rescaled_final/1035_fw.mp4	0.0	564.4556517601013	
54	540.9972310066223	movie	1		244	52.0	2.5	/experiments/AOT/AOT_stimuli/rescaled_final/1035_fw.mp4	0.0	564.46373295784	2.508435010910034
54	542.5887830257416	pulse	1	t		52.0	2.5	/experiments/AOT/AOT_stimuli/rescaled_final/1035_fw.mp4	0.0	566.0552849769592	
54	543.5056660175323	fix_post	2		12	52.0	2.5	/experiments/AOT/AOT_stimuli/rescaled_final/1035_fw.mp4	0.0	566.97216796875	0.09990096092224121
55	543.6055669784546	fix_pre	0		120	53.0	2.5	/experiments/AOT/AOT_stimuli/rescaled_final/1859_rv.mp4	0.0	567.0720689296722	1.0000309944152832
55	544.1890490055084	pulse	0	t		53.0	2.5	/experiments/AOT/AOT_stimuli/rescaled_final/1859_rv.mp4	0.0	567.6555509567261	
55	544.6055979728699	movie	1		243	53.0	2.5	/experiments/AOT/AOT_stimuli/rescaled_final/1859_rv.mp4	0.0	568.0720999240875	2.5000648498535156
55	545.7891218662262	pulse	1	t		53.0	2.5	/experiments/AOT/AOT_stimuli/rescaled_final/1859_rv.mp4	0.0	569.2556238174438	
55	547.1056628227234	fix_post	2		12	53.0	2.5	/experiments/AOT/AOT_stimuli/rescaled_final/1859_rv.mp4	0.0	570.572164773941	0.09997320175170898
56	547.2056360244751	fix_pre	0		120	54.0	2.5	/experiments/AOT/AOT_stimuli/rescaled_final/0390_fw.mp4	0.0	570.6721379756927	0.9999978542327881
56	547.38907289505	pulse	0	t		54.0	2.5	/experiments/AOT/AOT_stimuli/rescaled_final/0390_fw.mp4	0.0	570.8555748462677	
56	548.2056338787079	movie	1		244	54.0	2.5	/experiments/AOT/AOT_stimuli/rescaled_final/0390_fw.mp4	0.0	571.6721358299255	2.4999589920043945
56	548.9890539646149	pulse	1	t		54.0	2.5	/experiments/AOT/AOT_stimuli/rescaled_final/0390_fw.mp4	0.0	572.4555559158325	
56	550.5879850387573	pulse	1	t		54.0	2.5	/experiments/AOT/AOT_stimuli/rescaled_final/0390_fw.mp4	0.0	574.054486989975	
56	550.7055928707123	fix_post	2		12	54.0	2.5	/experiments/AOT/AOT_stimuli/rescaled_final/0390_fw.mp4	0.0	574.1720948219299	0.0999610424041748
57	550.8055539131165	fix_pre	0		120	55.0	2.5	blank	1.0	574.2720558643341	1.0000290870666504
57	551.8055830001831	movie	1		300	55.0	2.5	blank	1.0	575.2720849514008	2.4999330043792725
57	552.18914103508	pulse	1	t		55.0	2.5	blank	1.0	575.6556429862976	
57	553.7885718345642	pulse	1	t		55.0	2.5	blank	1.0	577.2550737857819	
57	554.3055160045624	fix_post	2		12	55.0	2.5	blank	1.0	577.77201795578	0.10005784034729004
58	554.4055738449097	fix_pre	0		119	56.0	2.5	/experiments/AOT/AOT_stimuli/rescaled_final/1164_rv.mp4	0.0	577.8720757961273	0.9918251037597656
58	555.3892300128937	pulse	0	t		56.0	2.5	/experiments/AOT/AOT_stimuli/rescaled_final/1164_rv.mp4	0.0	578.8557319641113	
58	555.3973989486694	movie	1		247	56.0	2.5	/experiments/AOT/AOT_stimuli/rescaled_final/1164_rv.mp4	0.0	578.8639008998871	2.5081698894500732
58	556.9884598255157	pulse	1	t		56.0	2.5	/experiments/AOT/AOT_stimuli/rescaled_final/1164_rv.mp4	0.0	580.4549617767334	
58	557.9055688381195	fix_post	2		12	56.0	2.5	/experiments/AOT/AOT_stimuli/rescaled_final/1164_rv.mp4	0.0	581.3720707893372	0.09995007514953613
59	558.005518913269	fix_pre	0		120	57.0	2.5	/experiments/AOT/AOT_stimuli/rescaled_final/1565_fw.mp4	0.0	581.4720208644867	1.0000300407409668
59	558.5890989303589	pulse	0	t		57.0	2.5	/experiments/AOT/AOT_stimuli/rescaled_final/1565_fw.mp4	0.0	582.0556008815765	
59	559.00554895401	movie	1		245	57.0	2.5	/experiments/AOT/AOT_stimuli/rescaled_final/1565_fw.mp4	0.0	582.4720509052277	2.499880075454712
59	560.1889898777008	pulse	1	t		57.0	2.5	/experiments/AOT/AOT_stimuli/rescaled_final/1565_fw.mp4	0.0	583.6554918289185	
59	561.5054290294647	fix_post	2		12	57.0	2.5	/experiments/AOT/AOT_stimuli/rescaled_final/1565_fw.mp4	0.0	584.9719309806824	0.10013079643249512
60	561.6055598258972	fix_pre	0		120	58.0	2.5	/experiments/AOT/AOT_stimuli/rescaled_final/1753_rv.mp4	0.0	585.0720617771149	0.99989914894104
60	561.7891080379486	pulse	0	t		58.0	2.5	/experiments/AOT/AOT_stimuli/rescaled_final/1753_rv.mp4	0.0	585.2556099891663	
60	562.6054589748383	movie	1		243	58.0	2.5	/experiments/AOT/AOT_stimuli/rescaled_final/1753_rv.mp4	0.0	586.0719609260559	2.4995899200439453
60	563.3889968395233	pulse	1	t		58.0	2.5	/experiments/AOT/AOT_stimuli/rescaled_final/1753_rv.mp4	0.0	586.855498790741	
60	564.9974789619446	pulse	1	t		58.0	2.5	/experiments/AOT/AOT_stimuli/rescaled_final/1753_rv.mp4	0.0	588.4639809131622	
60	565.1050488948822	fix_post	2		12	58.0	2.5	/experiments/AOT/AOT_stimuli/rescaled_final/1753_rv.mp4	0.0	588.5715508460999	0.10039806365966797
61	565.2054469585419	fix_pre	0		120	59.0	2.5	/experiments/AOT/AOT_stimuli/rescaled_final/2140_fw.mp4	0.0	588.6719489097595	1.0000848770141602
61	566.205531835556	movie	1		243	59.0	2.5	/experiments/AOT/AOT_stimuli/rescaled_final/2140_fw.mp4	0.0	589.6720337867737	2.499925136566162
61	566.5882649421692	pulse	1	t		59.0	2.5	/experiments/AOT/AOT_stimuli/rescaled_final/2140_fw.mp4	0.0	590.0547668933868	
61	568.1889338493347	pulse	1	t		59.0	2.5	/experiments/AOT/AOT_stimuli/rescaled_final/2140_fw.mp4	0.0	591.6554358005524	
61	568.7054569721222	fix_post	2		12	59.0	2.5	/experiments/AOT/AOT_stimuli/rescaled_final/2140_fw.mp4	0.0	592.1719589233398	0.10001301765441895
62	568.8054699897766	fix_pre	0		119	60.0	2.5	/experiments/AOT/AOT_stimuli/rescaled_final/1859_rv.mp4	0.0	592.2719719409943	0.9916839599609375
62	569.7889289855957	pulse	0	t		60.0	2.5	/experiments/AOT/AOT_stimuli/rescaled_final/1859_rv.mp4	0.0	593.2554309368134	
62	569.7971539497375	movie	1		244	60.0	2.5	/experiments/AOT/AOT_stimuli/rescaled_final/1859_rv.mp4	0.0	593.2636559009552	2.5085840225219727
62	571.3890469074249	pulse	1	t		60.0	2.5	/experiments/AOT/AOT_stimuli/rescaled_final/1859_rv.mp4	0.0	594.8555488586426	
62	572.3057379722595	fix_post	2		12	60.0	2.5	/experiments/AOT/AOT_stimuli/rescaled_final/1859_rv.mp4	0.0	595.7722399234772	0.09968185424804688
63	572.4054198265076	fix_pre	0		120	61.0	2.5	/experiments/AOT/AOT_stimuli/rescaled_final/0328_rv.mp4	0.0	595.8719217777252	1.0000090599060059
63	572.9889178276062	pulse	0	t		61.0	2.5	/experiments/AOT/AOT_stimuli/rescaled_final/0328_rv.mp4	0.0	596.4554197788239	
63	573.4054288864136	movie	1		246	61.0	2.5	/experiments/AOT/AOT_stimuli/rescaled_final/0328_rv.mp4	0.0	596.8719308376312	2.499980926513672
63	574.5890498161316	pulse	1	t		61.0	2.5	/experiments/AOT/AOT_stimuli/rescaled_final/0328_rv.mp4	0.0	598.0555517673492	
63	575.9054098129272	fix_post	2		12	61.0	2.5	/experiments/AOT/AOT_stimuli/rescaled_final/0328_rv.mp4	0.0	599.3719117641449	0.10001420974731445
64	576.0054240226746	fix_pre	0		120	62.0	2.5	/experiments/AOT/AOT_stimuli/rescaled_final/1565_rv.mp4	0.0	599.4719259738922	0.9999909400939941
64	576.1888539791107	pulse	0	t		62.0	2.5	/experiments/AOT/AOT_stimuli/rescaled_final/1565_rv.mp4	0.0	599.6553559303284	
64	577.0054149627686	movie	1		245	62.0	2.5	/experiments/AOT/AOT_stimuli/rescaled_final/1565_rv.mp4	0.0	600.4719169139862	2.4999639987945557
64	577.788899898529	pulse	1	t		62.0	2.5	/experiments/AOT/AOT_stimuli/rescaled_final/1565_rv.mp4	0.0	601.2554018497467	
64	579.397344827652	pulse	1	t		62.0	2.5	/experiments/AOT/AOT_stimuli/rescaled_final/1565_rv.mp4	0.0	602.8638467788696	
64	579.5053789615631	fix_post	2		12	62.0	2.5	/experiments/AOT/AOT_stimuli/rescaled_final/1565_rv.mp4	0.0	602.9718809127808	0.09998297691345215
65	579.6053619384766	fix_pre	0		120	63.0	2.5	blank	1.0	603.0718638896942	1.0000710487365723
65	580.6054329872131	movie	1		300	63.0	2.5	blank	1.0	604.0719349384308	2.499941825866699
65	580.9888598918915	pulse	1	t		63.0	2.5	blank	1.0	604.4553618431091	
65	582.588987827301	pulse	1	t		63.0	2.5	blank	1.0	606.0554897785187	
65	583.1053748130798	fix_post	2		12	63.0	2.5	blank	1.0	606.5718767642975	0.09996199607849121
66	583.2053368091583	fix_pre	0		119	64.0	2.5	/experiments/AOT/AOT_stimuli/rescaled_final/1051_fw.mp4	0.0	606.671838760376	0.9916880130767822
66	584.1888689994812	pulse	0	t		64.0	2.5	/experiments/AOT/AOT_stimuli/rescaled_final/1051_fw.mp4	0.0	607.6553709506989	
66	584.1970248222351	movie	1		244	64.0	2.5	/experiments/AOT/AOT_stimuli/rescaled_final/1051_fw.mp4	0.0	607.6635267734528	2.508305072784424
66	585.7882809638977	pulse	1	t		64.0	2.5	/experiments/AOT/AOT_stimuli/rescaled_final/1051_fw.mp4	0.0	609.2547829151154	
66	586.7053298950195	fix_post	2		12	64.0	2.5	/experiments/AOT/AOT_stimuli/rescaled_final/1051_fw.mp4	0.0	610.1718318462372	0.10001897811889648
67	586.8053488731384	fix_pre	0		120	65.0	2.5	/experiments/AOT/AOT_stimuli/rescaled_final/0217_rv.mp4	0.0	610.2718508243561	1.0000050067901611
67	587.3889348506927	pulse	0	t		65.0	2.5	/experiments/AOT/AOT_stimuli/rescaled_final/0217_rv.mp4	0.0	610.8554368019104	
67	587.8053538799286	movie	1		243	65.0	2.5	/experiments/AOT/AOT_stimuli/rescaled_final/0217_rv.mp4	0.0	611.2718558311462	2.499796152114868
67	588.9890730381012	pulse	1	t		65.0	2.5	/experiments/AOT/AOT_stimuli/rescaled_final/0217_rv.mp4	0.0	612.4555749893188	
67	590.3051500320435	fix_post	2		12	65.0	2.5	/experiments/AOT/AOT_stimuli/rescaled_final/0217_rv.mp4	0.0	613.7716519832611	0.09980392456054688
68	590.404953956604	fix_pre	0		120	66.0	2.5	/experiments/AOT/AOT_stimuli/rescaled_final/0038_fw.mp4	0.0	613.8714559078217	1.0004079341888428
68	590.5888910293579	pulse	0	t		66.0	2.5	/experiments/AOT/AOT_stimuli/rescaled_final/0038_fw.mp4	0.0	614.0553929805756	
68	591.4053618907928	movie	1		243	66.0	2.5	/experiments/AOT/AOT_stimuli/rescaled_final/0038_fw.mp4	0.0	614.8718638420105	2.4999020099639893
68	592.1887738704681	pulse	1	t		66.0	2.5	/experiments/AOT/AOT_stimuli/rescaled_final/0038_fw.mp4	0.0	615.6552758216858	
68	593.797248840332	pulse	1	t		66.0	2.5	/experiments/AOT/AOT_stimuli/rescaled_final/0038_fw.mp4	0.0	617.2637507915497	
68	593.9052639007568	fix_post	2		12	66.0	2.5	/experiments/AOT/AOT_stimuli/rescaled_final/0038_fw.mp4	0.0	617.3717658519745	0.10004591941833496
69	594.0053098201752	fix_pre	0		120	67.0	2.5	/experiments/AOT/AOT_stimuli/rescaled_final/0315_fw.mp4	0.0	617.4718117713928	0.9996011257171631
69	595.0049109458923	movie	1		247	67.0	2.5	/experiments/AOT/AOT_stimuli/rescaled_final/0315_fw.mp4	0.0	618.47141289711	2.5000009536743164
69	595.3886139392853	pulse	1	t		67.0	2.5	/experiments/AOT/AOT_stimuli/rescaled_final/0315_fw.mp4	0.0	618.8551158905029	
69	596.9888718128204	pulse	1	t		67.0	2.5	/experiments/AOT/AOT_stimuli/rescaled_final/0315_fw.mp4	0.0	620.4553737640381	
69	597.5049118995667	fix_post	2		12	67.0	2.5	/experiments/AOT/AOT_stimuli/rescaled_final/0315_fw.mp4	0.0	620.9714138507843	0.1003420352935791
70	597.6052539348602	fix_pre	0		119	68.0	2.5	/experiments/AOT/AOT_stimuli/rescaled_final/1778_fw.mp4	0.0	621.0717558860779	0.9918050765991211
70	598.588812828064	pulse	0	t		68.0	2.5	/experiments/AOT/AOT_stimuli/rescaled_final/1778_fw.mp4	0.0	622.0553147792816	
70	598.5970590114594	movie	1		244	68.0	2.5	/experiments/AOT/AOT_stimuli/rescaled_final/1778_fw.mp4	0.0	622.063560962677	2.5078020095825195
70	600.1897659301758	pulse	1	t		68.0	2.5	/experiments/AOT/AOT_stimuli/rescaled_final/1778_fw.mp4	0.0	623.6562678813934	
70	601.1048610210419	fix_post	2		12	68.0	2.5	/experiments/AOT/AOT_stimuli/rescaled_final/1778_fw.mp4	0.0	624.5713629722595	0.10043191909790039
71	601.2052929401398	fix_pre	0		120	69.0	2.5	blank	1.0	624.6717948913574	1.0000550746917725
71	601.7887768745422	pulse	0	t		69.0	2.5	blank	1.0	625.2552788257599	
71	602.2053480148315	movie	1		300	69.0	2.5	blank	1.0	625.6718499660492	2.4999618530273438
71	603.3887720108032	pulse	1	t		69.0	2.5	blank	1.0	626.8552739620209	
71	604.7053098678589	fix_post	2		12	69.0	2.5	blank	1.0	628.1718118190765	0.10004615783691406
72	604.8053560256958	fix_pre	0		120	70.0	2.5	/experiments/AOT/AOT_stimuli/rescaled_final/0038_rv.mp4	0.0	628.2718579769135	0.9999289512634277
72	604.9887549877167	pulse	0	t		70.0	2.5	/experiments/AOT/AOT_stimuli/rescaled_final/0038_rv.mp4	0.0	628.4552569389343	
72	605.8052849769592	movie	1		242	70.0	2.5	/experiments/AOT/AOT_stimuli/rescaled_final/0038_rv.mp4	0.0	629.2717869281769	2.50002384185791
72	606.5888328552246	pulse	1	t		70.0	2.5	/experiments/AOT/AOT_stimuli/rescaled_final/0038_rv.mp4	0.0	630.0553348064423	
72	608.1972279548645	pulse	1	t		70.0	2.5	/experiments/AOT/AOT_stimuli/rescaled_final/0038_rv.mp4	0.0	631.6637299060822	
72	608.3053088188171	fix_post	2		12	70.0	2.5	/experiments/AOT/AOT_stimuli/rescaled_final/0038_rv.mp4	0.0	631.7718107700348	0.10001301765441895
73	608.4053218364716	fix_pre	0		120	71.0	2.5	/experiments/AOT/AOT_stimuli/rescaled_final/1797_fw.mp4	0.0	631.8718237876892	1.000054121017456
73	609.405375957489	movie	1		243	71.0	2.5	/experiments/AOT/AOT_stimuli/rescaled_final/1797_fw.mp4	0.0	632.8718779087067	2.5004069805145264
73	609.7899968624115	pulse	1	t		71.0	2.5	/experiments/AOT/AOT_stimuli/rescaled_final/1797_fw.mp4	0.0	633.2564988136292	
73	611.3884499073029	pulse	1	t		71.0	2.5	/experiments/AOT/AOT_stimuli/rescaled_final/1797_fw.mp4	0.0	634.8549518585205	
73	611.9057829380035	fix_post	2		12	71.0	2.5	/experiments/AOT/AOT_stimuli/rescaled_final/1797_fw.mp4	0.0	635.3722848892212	0.09972596168518066
74	612.0055088996887	fix_pre	0		119	72.0	2.5	/experiments/AOT/AOT_stimuli/rescaled_final/0805_fw.mp4	0.0	635.4720108509064	0.9913311004638672
74	612.9887118339539	pulse	0	t		72.0	2.5	/experiments/AOT/AOT_stimuli/rescaled_final/0805_fw.mp4	0.0	636.4552137851715	
74	612.9968400001526	movie	1		244	72.0	2.5	/experiments/AOT/AOT_stimuli/rescaled_final/0805_fw.mp4	0.0	636.4633419513702	2.5083699226379395
74	614.5882399082184	pulse	1	t		72.0	2.5	/experiments/AOT/AOT_stimuli/rescaled_final/0805_fw.mp4	0.0	638.054741859436	
74	615.5052099227905	fix_post	2		12	72.0	2.5	/experiments/AOT/AOT_stimuli/rescaled_final/0805_fw.mp4	0.0	638.9717118740082	0.10005998611450195
75	615.605269908905	fix_pre	0		120	73.0	2.5	/experiments/AOT/AOT_stimuli/rescaled_final/0381_rv.mp4	0.0	639.0717718601227	0.9999749660491943
75	616.1887118816376	pulse	0	t		73.0	2.5	/experiments/AOT/AOT_stimuli/rescaled_final/0381_rv.mp4	0.0	639.6552138328552	
75	616.6052448749542	movie	1		247	73.0	2.5	/experiments/AOT/AOT_stimuli/rescaled_final/0381_rv.mp4	0.0	640.0717468261719	2.4999921321868896
75	617.7887380123138	pulse	1	t		73.0	2.5	/experiments/AOT/AOT_stimuli/rescaled_final/0381_rv.mp4	0.0	641.2552399635315	
75	619.1052370071411	fix_post	2		12	73.0	2.5	/experiments/AOT/AOT_stimuli/rescaled_final/0381_rv.mp4	0.0	642.5717389583588	0.09990596771240234
76	619.2051429748535	fix_pre	0		120	74.0	2.5	/experiments/AOT/AOT_stimuli/rescaled_final/1173_rv.mp4	0.0	642.6716449260712	1.0001158714294434
76	619.3886380195618	pulse	0	t		74.0	2.5	/experiments/AOT/AOT_stimuli/rescaled_final/1173_rv.mp4	0.0	642.8551399707794	
76	620.205258846283	movie	1		246	74.0	2.5	/experiments/AOT/AOT_stimuli/rescaled_final/1173_rv.mp4	0.0	643.6717607975006	2.4998931884765625
76	620.9886598587036	pulse	1	t		74.0	2.5	/experiments/AOT/AOT_stimuli/rescaled_final/1173_rv.mp4	0.0	644.4551618099213	
76	622.5887558460236	pulse	1	t		74.0	2.5	/experiments/AOT/AOT_stimuli/rescaled_final/1173_rv.mp4	0.0	646.0552577972412	
76	622.7051520347595	fix_post	2		12	74.0	2.5	/experiments/AOT/AOT_stimuli/rescaled_final/1173_rv.mp4	0.0	646.1716539859772	0.10006594657897949
77	622.8052179813385	fix_pre	0		120	75.0	2.5	blank	1.0	646.2717199325562	0.9999790191650391
77	623.8051970005035	movie	1		300	75.0	2.5	blank	1.0	647.2716989517212	2.5000720024108887
77	624.1887140274048	pulse	1	t		75.0	2.5	blank	1.0	647.6552159786224	
77	625.7887318134308	pulse	1	t		75.0	2.5	blank	1.0	649.2552337646484	
77	626.3052690029144	fix_post	2		12	75.0	2.5	blank	1.0	649.7717709541321	0.0998678207397461
78	626.4051368236542	fix_pre	0		119	76.0	2.5	/experiments/AOT/AOT_stimuli/rescaled_final/0372_fw.mp4	0.0	649.8716387748718	0.9917001724243164
78	627.3886098861694	pulse	0	t		76.0	2.5	/experiments/AOT/AOT_stimuli/rescaled_final/0372_fw.mp4	0.0	650.8551118373871	
78	627.3968369960785	movie	1		245	76.0	2.5	/experiments/AOT/AOT_stimuli/rescaled_final/0372_fw.mp4	0.0	650.8633389472961	2.5083580017089844
78	628.9884829521179	pulse	1	t		76.0	2.5	/experiments/AOT/AOT_stimuli/rescaled_final/0372_fw.mp4	0.0	652.4549849033356	
78	629.9051949977875	fix_post	2		12	76.0	2.5	/experiments/AOT/AOT_stimuli/rescaled_final/0372_fw.mp4	0.0	653.3716969490051	0.09995388984680176
79	630.0051488876343	fix_pre	0		120	77.0	2.5	/experiments/AOT/AOT_stimuli/rescaled_final/0800_fw.mp4	0.0	653.4716508388519	1.0000169277191162
79	630.5886609554291	pulse	0	t		77.0	2.5	/experiments/AOT/AOT_stimuli/rescaled_final/0800_fw.mp4	0.0	654.0551629066467	
79	631.0051658153534	movie	1		243	77.0	2.5	/experiments/AOT/AOT_stimuli/rescaled_final/0800_fw.mp4	0.0	654.471667766571	2.500033140182495
79	632.1887059211731	pulse	1	t		77.0	2.5	/experiments/AOT/AOT_stimuli/rescaled_final/0800_fw.mp4	0.0	655.6552078723907	
79	633.5051989555359	fix_post	2		12	77.0	2.5	/experiments/AOT/AOT_stimuli/rescaled_final/0800_fw.mp4	0.0	656.9717009067535	0.09996199607849121
80	633.6051609516144	fix_pre	0		120	78.0	2.5	/experiments/AOT/AOT_stimuli/rescaled_final/1173_fw.mp4	0.0	657.071662902832	1.0000178813934326
80	633.7886140346527	pulse	0	t		78.0	2.5	/experiments/AOT/AOT_stimuli/rescaled_final/1173_fw.mp4	0.0	657.2551159858704	
80	634.6051788330078	movie	1		244	78.0	2.5	/experiments/AOT/AOT_stimuli/rescaled_final/1173_fw.mp4	0.0	658.0716807842255	2.4995851516723633
80	635.3886399269104	pulse	1	t		78.0	2.5	/experiments/AOT/AOT_stimuli/rescaled_final/1173_fw.mp4	0.0	658.855141878128	
80	636.9887239933014	pulse	1	t		78.0	2.5	/experiments/AOT/AOT_stimuli/rescaled_final/1173_fw.mp4	0.0	660.455225944519	
80	637.1047639846802	fix_post	2		12	78.0	2.5	/experiments/AOT/AOT_stimuli/rescaled_final/1173_fw.mp4	0.0	660.5712659358978	0.1004478931427002
81	637.2052118778229	fix_pre	0		120	79.0	2.5	/experiments/AOT/AOT_stimuli/rescaled_final/0515_rv.mp4	0.0	660.6717138290405	0.9999339580535889
81	638.2051458358765	movie	1		246	79.0	2.5	/experiments/AOT/AOT_stimuli/rescaled_final/0515_rv.mp4	0.0	661.6716477870941	2.4995861053466797
81	638.588075876236	pulse	1	t		79.0	2.5	/experiments/AOT/AOT_stimuli/rescaled_final/0515_rv.mp4	0.0	662.0545778274536	
81	640.188560962677	pulse	1	t		79.0	2.5	/experiments/AOT/AOT_stimuli/rescaled_final/0515_rv.mp4	0.0	663.6550629138947	
81	640.7047319412231	fix_post	2		12	79.0	2.5	/experiments/AOT/AOT_stimuli/rescaled_final/0515_rv.mp4	0.0	664.1712338924408	0.10040807723999023
82	640.8051400184631	fix_pre	0		119	80.0	2.5	/experiments/AOT/AOT_stimuli/rescaled_final/1466_fw.mp4	0.0	664.2716419696808	0.9916708469390869
82	641.7888398170471	pulse	0	t		80.0	2.5	/experiments/AOT/AOT_stimuli/rescaled_final/1466_fw.mp4	0.0	665.2553417682648	
82	641.7968108654022	movie	1		244	80.0	2.5	/experiments/AOT/AOT_stimuli/rescaled_final/1466_fw.mp4	0.0	665.2633128166199	2.5079030990600586
82	643.3882088661194	pulse	1	t		80.0	2.5	/experiments/AOT/AOT_stimuli/rescaled_final/1466_fw.mp4	0.0	666.854710817337	
82	644.3047139644623	fix_post	2		12	80.0	2.5	/experiments/AOT/AOT_stimuli/rescaled_final/1466_fw.mp4	0.0	667.7712159156799	0.10041189193725586
83	644.4051258563995	fix_pre	0		120	81.0	2.5	/experiments/AOT/AOT_stimuli/rescaled_final/1386_fw.mp4	0.0	667.8716278076172	0.9999861717224121
83	644.9885408878326	pulse	0	t		81.0	2.5	/experiments/AOT/AOT_stimuli/rescaled_final/1386_fw.mp4	0.0	668.4550428390503	
83	645.405112028122	movie	1		243	81.0	2.5	/experiments/AOT/AOT_stimuli/rescaled_final/1386_fw.mp4	0.0	668.8716139793396	2.5000438690185547
83	646.5886390209198	pulse	1	t		81.0	2.5	/experiments/AOT/AOT_stimuli/rescaled_final/1386_fw.mp4	0.0	670.0551409721375	
83	647.9051558971405	fix_post	2		12	81.0	2.5	/experiments/AOT/AOT_stimuli/rescaled_final/1386_fw.mp4	0.0	671.3716578483582	0.0999300479888916
84	648.0050859451294	fix_pre	0		120	82.0	2.5	blank	1.0	671.471587896347	0.9999909400939941
84	648.1885998249054	pulse	0	t		82.0	2.5	blank	1.0	671.655101776123	
84	649.0050768852234	movie	1		300	82.0	2.5	blank	1.0	672.471578836441	2.4999639987945557
84	649.7885389328003	pulse	1	t		82.0	2.5	blank	1.0	673.255040884018	
84	651.388514995575	pulse	1	t		82.0	2.5	blank	1.0	674.8550169467926	
84	651.505040884018	fix_post	2		12	82.0	2.5	blank	1.0	674.9715428352356	0.09961295127868652
85	651.6046538352966	fix_pre	0		120	83.0	2.5	/experiments/AOT/AOT_stimuli/rescaled_final/1818_rv.mp4	0.0	675.0711557865143	1.0005149841308594
85	652.6051688194275	movie	1		242	83.0	2.5	/experiments/AOT/AOT_stimuli/rescaled_final/1818_rv.mp4	0.0	676.0716707706451	2.4999492168426514
85	652.9884059429169	pulse	1	t		83.0	2.5	/experiments/AOT/AOT_stimuli/rescaled_final/1818_rv.mp4	0.0	676.4549078941345	
85	654.5884628295898	pulse	1	t		83.0	2.5	/experiments/AOT/AOT_stimuli/rescaled_final/1818_rv.mp4	0.0	678.0549647808075	
85	655.1051180362701	fix_post	2		12	83.0	2.5	/experiments/AOT/AOT_stimuli/rescaled_final/1818_rv.mp4	0.0	678.5716199874878	0.0998678207397461
87	655.2049858570099	stim	0		1716					678.6714878082275	14.300086975097656
87	656.1885259151459	pulse	0	t						679.6550278663635	
87	657.7885258197784	pulse	0	t						681.2550277709961	
87	659.3884890079498	pulse	0	t						682.8549909591675	
87	660.988499879837	pulse	0	t						684.4550018310547	
87	662.5884838104248	pulse	0	t						686.0549857616425	
87	664.1884369850159	pulse	0	t						687.6549389362335	
87	665.7879869937897	pulse	0	t						689.2544889450073	
87	667.388258934021	pulse	0	t						690.8547608852386	
87	668.9884099960327	pulse	0	t						692.4549119472504	
