trial_nr	onset	event_type	phase	response	nr_frames	movie_index	movie_duration	movie_file	blank	onset_abs	duration
0	0.19987988471984863	stim	0		25					35.78385877609253	0.20845413208007812
0	0.4001638889312744	response	0	space						35.984142780303955	
1	0.40833401679992676	stim	0		4836					35.99231290817261	40.317962884902954
1	40.71619987487793	pulse	0	t						76.30017876625061	
1	40.72629690170288	stim	1		1716					76.31027579307556	14.30674695968628
1	42.30630898475647	pulse	1	t						77.89028787612915	
1	43.9065420627594	pulse	1	t						79.49052095413208	
1	45.50673794746399	pulse	1	t						81.09071683883667	
1	47.10705804824829	pulse	1	t						82.69103693962097	
1	48.707221031188965	pulse	1	t						84.29119992256165	
1	50.30744004249573	pulse	1	t						85.89141893386841	
1	51.90777897834778	pulse	1	t						87.49175786972046	
1	53.50795388221741	pulse	1	t						89.09193277359009	
2	55.03304386138916	fix_pre	0		10	0.0	2.5	/experiments/knapen_AOT/AOT_stimuli/rescaled_final/1142_fw.mp4	0.0	90.61702275276184	0.09168815612792969
2	55.1082079410553	pulse	0	t		0.0	2.5	/experiments/knapen_AOT/AOT_stimuli/rescaled_final/1142_fw.mp4	0.0	90.69218683242798	
2	55.12473201751709	movie	1		242	0.0	2.5	/experiments/knapen_AOT/AOT_stimuli/rescaled_final/1142_fw.mp4	0.0	90.70871090888977	2.500347852706909
2	56.71282887458801	pulse	1	t		0.0	2.5	/experiments/knapen_AOT/AOT_stimuli/rescaled_final/1142_fw.mp4	0.0	92.2968077659607	
2	57.625079870224	fix_post	2		12	0.0	2.5	/experiments/knapen_AOT/AOT_stimuli/rescaled_final/1142_fw.mp4	0.0	93.20905876159668	0.10004019737243652
3	57.725120067596436	fix_pre	0		120	1.0	2.5	/experiments/knapen_AOT/AOT_stimuli/rescaled_final/1839_rv.mp4	0.0	93.30909895896912	1.0001559257507324
3	58.30873107910156	pulse	0	t		1.0	2.5	/experiments/knapen_AOT/AOT_stimuli/rescaled_final/1839_rv.mp4	0.0	93.89270997047424	
3	58.72527599334717	movie	1		242	1.0	2.5	/experiments/knapen_AOT/AOT_stimuli/rescaled_final/1839_rv.mp4	0.0	94.30925488471985	2.5004448890686035
3	59.90907597541809	pulse	1	t		1.0	2.5	/experiments/knapen_AOT/AOT_stimuli/rescaled_final/1839_rv.mp4	0.0	95.49305486679077	
3	61.22572088241577	fix_post	2		12	1.0	2.5	/experiments/knapen_AOT/AOT_stimuli/rescaled_final/1839_rv.mp4	0.0	96.80969977378845	0.09996914863586426
4	61.325690031051636	fix_pre	0		120	2.0	2.5	/experiments/knapen_AOT/AOT_stimuli/rescaled_final/1563_fw.mp4	0.0	96.90966892242432	1.0001699924468994
4	61.509268045425415	pulse	0	t		2.0	2.5	/experiments/knapen_AOT/AOT_stimuli/rescaled_final/1563_fw.mp4	0.0	97.0932469367981	
4	62.325860023498535	movie	1		243	2.0	2.5	/experiments/knapen_AOT/AOT_stimuli/rescaled_final/1563_fw.mp4	0.0	97.90983891487122	2.5003368854522705
4	63.10955190658569	pulse	1	t		2.0	2.5	/experiments/knapen_AOT/AOT_stimuli/rescaled_final/1563_fw.mp4	0.0	98.69353079795837	
4	64.70967102050781	pulse	1	t		2.0	2.5	/experiments/knapen_AOT/AOT_stimuli/rescaled_final/1563_fw.mp4	0.0	100.2936499118805	
4	64.8261969089508	fix_post	2		12	2.0	2.5	/experiments/knapen_AOT/AOT_stimuli/rescaled_final/1563_fw.mp4	0.0	100.41017580032349	0.09997701644897461
5	64.92617392539978	fix_pre	0		120	3.0	2.5	/experiments/knapen_AOT/AOT_stimuli/rescaled_final/0669_rv.mp4	0.0	100.51015281677246	1.0001220703125
5	65.92629599571228	movie	1		242	3.0	2.5	/experiments/knapen_AOT/AOT_stimuli/rescaled_final/0669_rv.mp4	0.0	101.51027488708496	2.492224931716919
5	66.3147280216217	pulse	1	t		3.0	2.5	/experiments/knapen_AOT/AOT_stimuli/rescaled_final/0669_rv.mp4	0.0	101.89870691299438	
5	67.91014695167542	pulse	1	t		3.0	2.5	/experiments/knapen_AOT/AOT_stimuli/rescaled_final/0669_rv.mp4	0.0	103.4941258430481	
5	68.4185209274292	fix_post	2		12	3.0	2.5	/experiments/knapen_AOT/AOT_stimuli/rescaled_final/0669_rv.mp4	0.0	104.00249981880188	0.09985494613647461
6	68.51837587356567	fix_pre	0		120	4.0	2.5	/experiments/knapen_AOT/AOT_stimuli/rescaled_final/1604_rv.mp4	0.0	104.10235476493835	1.0001821517944336
6	69.5104079246521	pulse	0	t		4.0	2.5	/experiments/knapen_AOT/AOT_stimuli/rescaled_final/1604_rv.mp4	0.0	105.09438681602478	
6	69.51855802536011	movie	1		243	4.0	2.5	/experiments/knapen_AOT/AOT_stimuli/rescaled_final/1604_rv.mp4	0.0	105.10253691673279	2.50869083404541
6	71.11132097244263	pulse	1	t		4.0	2.5	/experiments/knapen_AOT/AOT_stimuli/rescaled_final/1604_rv.mp4	0.0	106.69529986381531	
6	72.02724885940552	fix_post	2		12	4.0	2.5	/experiments/knapen_AOT/AOT_stimuli/rescaled_final/1604_rv.mp4	0.0	107.6112277507782	0.10006308555603027
7	72.12731194496155	fix_pre	0		120	5.0	2.5	/experiments/knapen_AOT/AOT_stimuli/rescaled_final/0796_rv.mp4	0.0	107.71129083633423	1.0001029968261719
7	72.71087002754211	pulse	0	t		5.0	2.5	/experiments/knapen_AOT/AOT_stimuli/rescaled_final/0796_rv.mp4	0.0	108.2948489189148	
7	73.12741494178772	movie	1		242	5.0	2.5	/experiments/knapen_AOT/AOT_stimuli/rescaled_final/0796_rv.mp4	0.0	108.7113938331604	2.5004429817199707
7	74.31123995780945	pulse	1	t		5.0	2.5	/experiments/knapen_AOT/AOT_stimuli/rescaled_final/0796_rv.mp4	0.0	109.89521884918213	
7	75.62785792350769	fix_post	2		12	5.0	2.5	/experiments/knapen_AOT/AOT_stimuli/rescaled_final/0796_rv.mp4	0.0	111.21183681488037	0.09995102882385254
8	75.72780895233154	fix_pre	0		120	6.0	2.5	/experiments/knapen_AOT/AOT_stimuli/rescaled_final/1069_fw.mp4	0.0	111.31178784370422	1.0001170635223389
8	75.911465883255	pulse	0	t		6.0	2.5	/experiments/knapen_AOT/AOT_stimuli/rescaled_final/1069_fw.mp4	0.0	111.49544477462769	
8	76.72792601585388	movie	1		242	6.0	2.5	/experiments/knapen_AOT/AOT_stimuli/rescaled_final/1069_fw.mp4	0.0	112.31190490722656	2.500516891479492
8	77.51172089576721	pulse	1	t		6.0	2.5	/experiments/knapen_AOT/AOT_stimuli/rescaled_final/1069_fw.mp4	0.0	113.09569978713989	
8	79.11183500289917	pulse	1	t		6.0	2.5	/experiments/knapen_AOT/AOT_stimuli/rescaled_final/1069_fw.mp4	0.0	114.69581389427185	
8	79.22844290733337	fix_post	2		12	6.0	2.5	/experiments/knapen_AOT/AOT_stimuli/rescaled_final/1069_fw.mp4	0.0	114.81242179870605	0.09983515739440918
9	79.32827806472778	fix_pre	0		120	7.0	2.5	blank	1.0	114.91225695610046	1.000196933746338
9	80.32847499847412	movie	1		299	7.0	2.5	blank	1.0	115.9124538898468	2.492100954055786
9	80.71210598945618	pulse	1	t		7.0	2.5	blank	1.0	116.29608488082886	
9	82.31237506866455	pulse	1	t		7.0	2.5	blank	1.0	117.89635396003723	
9	82.82057595252991	fix_post	2		10	7.0	2.5	blank	1.0	118.40455484390259	0.09999608993530273
10	82.92057204246521	fix_pre	0		120	8.0	2.5	/experiments/knapen_AOT/AOT_stimuli/rescaled_final/1538_fw.mp4	0.0	118.50455093383789	1.0001108646392822
10	83.91262888908386	pulse	0	t		8.0	2.5	/experiments/knapen_AOT/AOT_stimuli/rescaled_final/1538_fw.mp4	0.0	119.49660778045654	
10	83.92068290710449	movie	1		243	8.0	2.5	/experiments/knapen_AOT/AOT_stimuli/rescaled_final/1538_fw.mp4	0.0	119.50466179847717	2.508730173110962
10	85.51328492164612	pulse	1	t		8.0	2.5	/experiments/knapen_AOT/AOT_stimuli/rescaled_final/1538_fw.mp4	0.0	121.0972638130188	
10	86.42941308021545	fix_post	2		12	8.0	2.5	/experiments/knapen_AOT/AOT_stimuli/rescaled_final/1538_fw.mp4	0.0	122.01339197158813	0.09998083114624023
11	86.5293939113617	fix_pre	0		120	9.0	2.5	/experiments/knapen_AOT/AOT_stimuli/rescaled_final/1069_rv.mp4	0.0	122.11337280273438	1.000195026397705
11	87.1055839061737	pulse	0	t		9.0	2.5	/experiments/knapen_AOT/AOT_stimuli/rescaled_final/1069_rv.mp4	0.0	122.68956279754639	
11	87.5295889377594	movie	1		242	9.0	2.5	/experiments/knapen_AOT/AOT_stimuli/rescaled_final/1069_rv.mp4	0.0	123.11356782913208	2.500396966934204
11	88.71331095695496	pulse	1	t		9.0	2.5	/experiments/knapen_AOT/AOT_stimuli/rescaled_final/1069_rv.mp4	0.0	124.29728984832764	
11	90.0299859046936	fix_post	2		12	9.0	2.5	/experiments/knapen_AOT/AOT_stimuli/rescaled_final/1069_rv.mp4	0.0	125.61396479606628	0.0999760627746582
12	90.12996196746826	fix_pre	0		120	10.0	2.5	/experiments/knapen_AOT/AOT_stimuli/rescaled_final/1868_rv.mp4	0.0	125.71394085884094	1.0001099109649658
12	90.30516791343689	pulse	0	t		10.0	2.5	/experiments/knapen_AOT/AOT_stimuli/rescaled_final/1868_rv.mp4	0.0	125.88914680480957	
12	91.13007187843323	movie	1		243	10.0	2.5	/experiments/knapen_AOT/AOT_stimuli/rescaled_final/1868_rv.mp4	0.0	126.71405076980591	2.5005791187286377
12	91.90535497665405	pulse	1	t		10.0	2.5	/experiments/knapen_AOT/AOT_stimuli/rescaled_final/1868_rv.mp4	0.0	127.48933386802673	
12	93.50573205947876	pulse	1	t		10.0	2.5	/experiments/knapen_AOT/AOT_stimuli/rescaled_final/1868_rv.mp4	0.0	129.08971095085144	
12	93.63065099716187	fix_post	2		12	10.0	2.5	/experiments/knapen_AOT/AOT_stimuli/rescaled_final/1868_rv.mp4	0.0	129.21462988853455	0.09984207153320312
13	93.73049306869507	fix_pre	0		120	11.0	2.5	/experiments/knapen_AOT/AOT_stimuli/rescaled_final/1111_fw.mp4	0.0	129.31447196006775	1.0001249313354492
13	94.73061800003052	movie	1		241	11.0	2.5	/experiments/knapen_AOT/AOT_stimuli/rescaled_final/1111_fw.mp4	0.0	130.3145968914032	2.4921929836273193
13	95.10597491264343	pulse	1	t		11.0	2.5	/experiments/knapen_AOT/AOT_stimuli/rescaled_final/1111_fw.mp4	0.0	130.6899538040161	
13	96.7061538696289	pulse	1	t		11.0	2.5	/experiments/knapen_AOT/AOT_stimuli/rescaled_final/1111_fw.mp4	0.0	132.2901327610016	
13	97.22281098365784	fix_post	2		12	11.0	2.5	/experiments/knapen_AOT/AOT_stimuli/rescaled_final/1111_fw.mp4	0.0	132.80678987503052	0.09993791580200195
14	97.32274889945984	fix_pre	0		119	12.0	2.5	/experiments/knapen_AOT/AOT_stimuli/rescaled_final/2148_rv.mp4	0.0	132.90672779083252	0.9917609691619873
14	98.30631899833679	pulse	0	t		12.0	2.5	/experiments/knapen_AOT/AOT_stimuli/rescaled_final/2148_rv.mp4	0.0	133.89029788970947	
14	98.31450986862183	movie	1		243	12.0	2.5	/experiments/knapen_AOT/AOT_stimuli/rescaled_final/2148_rv.mp4	0.0	133.8984887599945	2.508676052093506
14	99.90709900856018	pulse	1	t		12.0	2.5	/experiments/knapen_AOT/AOT_stimuli/rescaled_final/2148_rv.mp4	0.0	135.49107789993286	
14	100.82318592071533	fix_post	2		12	12.0	2.5	/experiments/knapen_AOT/AOT_stimuli/rescaled_final/2148_rv.mp4	0.0	136.407164812088	0.10004305839538574
15	100.92322897911072	fix_pre	0		120	13.0	2.5	/experiments/knapen_AOT/AOT_stimuli/rescaled_final/1591_rv.mp4	0.0	136.5072078704834	1.0001769065856934
15	101.50683307647705	pulse	0	t		13.0	2.5	/experiments/knapen_AOT/AOT_stimuli/rescaled_final/1591_rv.mp4	0.0	137.09081196784973	
15	101.92340588569641	movie	1		243	13.0	2.5	/experiments/knapen_AOT/AOT_stimuli/rescaled_final/1591_rv.mp4	0.0	137.5073847770691	2.5005149841308594
15	103.10718703269958	pulse	1	t		13.0	2.5	/experiments/knapen_AOT/AOT_stimuli/rescaled_final/1591_rv.mp4	0.0	138.69116592407227	
15	104.42392086982727	fix_post	2		12	13.0	2.5	/experiments/knapen_AOT/AOT_stimuli/rescaled_final/1591_rv.mp4	0.0	140.00789976119995	0.09987521171569824
16	104.52379608154297	fix_pre	0		120	14.0	2.5	blank	1.0	140.10777497291565	1.0001089572906494
16	104.707270860672	pulse	0	t		14.0	2.5	blank	1.0	140.29124975204468	
16	105.52390503883362	movie	1		300	14.0	2.5	blank	1.0	141.1078839302063	2.5004239082336426
16	106.30763006210327	pulse	1	t		14.0	2.5	blank	1.0	141.89160895347595	
16	107.90776896476746	pulse	1	t		14.0	2.5	blank	1.0	143.49174785614014	
16	108.02432894706726	fix_post	2		12	14.0	2.5	blank	1.0	143.60830783843994	0.09997701644897461
17	108.12430596351624	fix_pre	0		119	15.0	2.5	/experiments/knapen_AOT/AOT_stimuli/rescaled_final/1111_rv.mp4	0.0	143.70828485488892	0.9918029308319092
17	109.11610889434814	movie	1		242	15.0	2.5	/experiments/knapen_AOT/AOT_stimuli/rescaled_final/1111_rv.mp4	0.0	144.70008778572083	2.5005311965942383
17	109.50817203521729	pulse	1	t		15.0	2.5	/experiments/knapen_AOT/AOT_stimuli/rescaled_final/1111_rv.mp4	0.0	145.09215092658997	
17	111.10820603370667	pulse	1	t		15.0	2.5	/experiments/knapen_AOT/AOT_stimuli/rescaled_final/1111_rv.mp4	0.0	146.69218492507935	
17	111.61664009094238	fix_post	2		12	15.0	2.5	/experiments/knapen_AOT/AOT_stimuli/rescaled_final/1111_rv.mp4	0.0	147.20061898231506	0.09990477561950684
18	111.71654486656189	fix_pre	0		120	16.0	2.5	/experiments/knapen_AOT/AOT_stimuli/rescaled_final/1822_fw.mp4	0.0	147.30052375793457	1.0001029968261719
18	112.70862793922424	pulse	0	t		16.0	2.5	/experiments/knapen_AOT/AOT_stimuli/rescaled_final/1822_fw.mp4	0.0	148.29260683059692	
18	112.71664786338806	movie	1		243	16.0	2.5	/experiments/knapen_AOT/AOT_stimuli/rescaled_final/1822_fw.mp4	0.0	148.30062675476074	2.50871205329895
18	114.30927801132202	pulse	1	t		16.0	2.5	/experiments/knapen_AOT/AOT_stimuli/rescaled_final/1822_fw.mp4	0.0	149.8932569026947	
18	115.22535991668701	fix_post	2		12	16.0	2.5	/experiments/knapen_AOT/AOT_stimuli/rescaled_final/1822_fw.mp4	0.0	150.8093388080597	0.09999895095825195
19	115.32535886764526	fix_pre	0		120	17.0	2.5	/experiments/knapen_AOT/AOT_stimuli/rescaled_final/0284_fw.mp4	0.0	150.90933775901794	1.0001580715179443
19	115.90911507606506	pulse	0	t		17.0	2.5	/experiments/knapen_AOT/AOT_stimuli/rescaled_final/0284_fw.mp4	0.0	151.49309396743774	
19	116.32551693916321	movie	1		242	17.0	2.5	/experiments/knapen_AOT/AOT_stimuli/rescaled_final/0284_fw.mp4	0.0	151.9094958305359	2.5005059242248535
19	117.50936698913574	pulse	1	t		17.0	2.5	/experiments/knapen_AOT/AOT_stimuli/rescaled_final/0284_fw.mp4	0.0	153.09334588050842	
19	118.82602286338806	fix_post	2		12	17.0	2.5	/experiments/knapen_AOT/AOT_stimuli/rescaled_final/0284_fw.mp4	0.0	154.41000175476074	0.09989404678344727
20	118.92591691017151	fix_pre	0		120	18.0	2.5	/experiments/knapen_AOT/AOT_stimuli/rescaled_final/2154_rv.mp4	0.0	154.5098958015442	1.0001161098480225
20	119.10949397087097	pulse	0	t		18.0	2.5	/experiments/knapen_AOT/AOT_stimuli/rescaled_final/2154_rv.mp4	0.0	154.69347286224365	
20	119.92603302001953	movie	1		243	18.0	2.5	/experiments/knapen_AOT/AOT_stimuli/rescaled_final/2154_rv.mp4	0.0	155.5100119113922	2.5005688667297363
20	120.70982098579407	pulse	1	t		18.0	2.5	/experiments/knapen_AOT/AOT_stimuli/rescaled_final/2154_rv.mp4	0.0	156.29379987716675	
20	122.31001496315002	pulse	1	t		18.0	2.5	/experiments/knapen_AOT/AOT_stimuli/rescaled_final/2154_rv.mp4	0.0	157.8939938545227	
20	122.42660188674927	fix_post	2		12	18.0	2.5	/experiments/knapen_AOT/AOT_stimuli/rescaled_final/2154_rv.mp4	0.0	158.01058077812195	0.09978818893432617
21	122.5263900756836	fix_pre	0		120	19.0	2.5	/experiments/knapen_AOT/AOT_stimuli/rescaled_final/0669_rv.mp4	0.0	158.11036896705627	1.0001819133758545
21	123.52657198905945	movie	1		242	19.0	2.5	/experiments/knapen_AOT/AOT_stimuli/rescaled_final/0669_rv.mp4	0.0	159.11055088043213	2.492110013961792
21	123.91154789924622	pulse	1	t		19.0	2.5	/experiments/knapen_AOT/AOT_stimuli/rescaled_final/0669_rv.mp4	0.0	159.4955267906189	
21	125.51042890548706	pulse	1	t		19.0	2.5	/experiments/knapen_AOT/AOT_stimuli/rescaled_final/0669_rv.mp4	0.0	161.09440779685974	
21	126.01868200302124	fix_post	2		12	19.0	2.5	/experiments/knapen_AOT/AOT_stimuli/rescaled_final/0669_rv.mp4	0.0	161.60266089439392	0.10001707077026367
22	126.1186990737915	fix_pre	0		120	20.0	2.5	blank	1.0	161.70267796516418	1.0001180171966553
22	127.11069989204407	pulse	0	t		20.0	2.5	blank	1.0	162.69467878341675	
22	127.11881709098816	movie	1		301	20.0	2.5	blank	1.0	162.70279598236084	2.508734941482544
22	128.71095895767212	pulse	1	t		20.0	2.5	blank	1.0	164.2949378490448	
22	129.6275520324707	fix_post	2		12	20.0	2.5	blank	1.0	165.21153092384338	0.0999748706817627
23	129.72752690315247	fix_pre	0		120	21.0	2.5	/experiments/knapen_AOT/AOT_stimuli/rescaled_final/0817_rv.mp4	0.0	165.31150579452515	1.0001511573791504
23	130.31114292144775	pulse	0	t		21.0	2.5	/experiments/knapen_AOT/AOT_stimuli/rescaled_final/0817_rv.mp4	0.0	165.89512181282043	
23	130.72767806053162	movie	1		242	21.0	2.5	/experiments/knapen_AOT/AOT_stimuli/rescaled_final/0817_rv.mp4	0.0	166.3116569519043	2.500424861907959
23	131.9114899635315	pulse	1	t		21.0	2.5	/experiments/knapen_AOT/AOT_stimuli/rescaled_final/0817_rv.mp4	0.0	167.49546885490417	
23	133.22810292243958	fix_post	2		12	21.0	2.5	/experiments/knapen_AOT/AOT_stimuli/rescaled_final/0817_rv.mp4	0.0	168.81208181381226	0.09997797012329102
24	133.32808089256287	fix_pre	0		120	22.0	2.5	/experiments/knapen_AOT/AOT_stimuli/rescaled_final/1057_rv.mp4	0.0	168.91205978393555	1.0001020431518555
24	133.51165008544922	pulse	0	t		22.0	2.5	/experiments/knapen_AOT/AOT_stimuli/rescaled_final/1057_rv.mp4	0.0	169.0956289768219	
24	134.32818293571472	movie	1		242	22.0	2.5	/experiments/knapen_AOT/AOT_stimuli/rescaled_final/1057_rv.mp4	0.0	169.9121618270874	2.500491142272949
24	135.11196398735046	pulse	1	t		22.0	2.5	/experiments/knapen_AOT/AOT_stimuli/rescaled_final/1057_rv.mp4	0.0	170.69594287872314	
24	136.71197199821472	pulse	1	t		22.0	2.5	/experiments/knapen_AOT/AOT_stimuli/rescaled_final/1057_rv.mp4	0.0	172.2959508895874	
24	136.82867407798767	fix_post	2		12	22.0	2.5	/experiments/knapen_AOT/AOT_stimuli/rescaled_final/1057_rv.mp4	0.0	172.41265296936035	0.09996795654296875
25	136.92864203453064	fix_pre	0		120	23.0	2.5	/experiments/knapen_AOT/AOT_stimuli/rescaled_final/0513_rv.mp4	0.0	172.51262092590332	1.000121831893921
25	137.92876386642456	movie	1		242	23.0	2.5	/experiments/knapen_AOT/AOT_stimuli/rescaled_final/0513_rv.mp4	0.0	173.51274275779724	2.49214506149292
25	138.31395602226257	pulse	1	t		23.0	2.5	/experiments/knapen_AOT/AOT_stimuli/rescaled_final/0513_rv.mp4	0.0	173.89793491363525	
25	139.9126319885254	pulse	1	t		23.0	2.5	/experiments/knapen_AOT/AOT_stimuli/rescaled_final/0513_rv.mp4	0.0	175.49661087989807	
25	140.42090892791748	fix_post	2		12	23.0	2.5	/experiments/knapen_AOT/AOT_stimuli/rescaled_final/0513_rv.mp4	0.0	176.00488781929016	0.0998830795288086
26	140.5207920074463	fix_pre	0		120	24.0	2.5	/experiments/knapen_AOT/AOT_stimuli/rescaled_final/0513_fw.mp4	0.0	176.10477089881897	1.0001518726348877
26	141.51287198066711	pulse	0	t		24.0	2.5	/experiments/knapen_AOT/AOT_stimuli/rescaled_final/0513_fw.mp4	0.0	177.0968508720398	
26	141.52094388008118	movie	1		244	24.0	2.5	/experiments/knapen_AOT/AOT_stimuli/rescaled_final/0513_fw.mp4	0.0	177.10492277145386	2.5087850093841553
26	143.1138880252838	pulse	1	t		24.0	2.5	/experiments/knapen_AOT/AOT_stimuli/rescaled_final/0513_fw.mp4	0.0	178.6978669166565	
26	144.02972888946533	fix_post	2		12	24.0	2.5	/experiments/knapen_AOT/AOT_stimuli/rescaled_final/0513_fw.mp4	0.0	179.613707780838	0.09993910789489746
27	144.12966799736023	fix_pre	0		120	25.0	2.5	/experiments/knapen_AOT/AOT_stimuli/rescaled_final/2085_fw.mp4	0.0	179.7136468887329	1.0001139640808105
27	144.70569705963135	pulse	0	t		25.0	2.5	/experiments/knapen_AOT/AOT_stimuli/rescaled_final/2085_fw.mp4	0.0	180.28967595100403	
27	145.12978196144104	movie	1		243	25.0	2.5	/experiments/knapen_AOT/AOT_stimuli/rescaled_final/2085_fw.mp4	0.0	180.71376085281372	2.500519037246704
27	146.30589890480042	pulse	1	t		25.0	2.5	/experiments/knapen_AOT/AOT_stimuli/rescaled_final/2085_fw.mp4	0.0	181.8898777961731	
27	147.63030099868774	fix_post	2		10	25.0	2.5	/experiments/knapen_AOT/AOT_stimuli/rescaled_final/2085_fw.mp4	0.0	183.21427989006042	0.0999300479888916
28	147.73023104667664	fix_pre	0		120	26.0	2.5	blank	1.0	183.31420993804932	1.0001440048217773
28	147.90623497962952	pulse	0	t		26.0	2.5	blank	1.0	183.4902138710022	
28	148.7303750514984	movie	1		300	26.0	2.5	blank	1.0	184.3143539428711	2.5004639625549316
28	149.50656390190125	pulse	1	t		26.0	2.5	blank	1.0	185.09054279327393	
28	151.10588693618774	pulse	1	t		26.0	2.5	blank	1.0	186.68986582756042	
28	151.23083901405334	fix_post	2		12	26.0	2.5	blank	1.0	186.81481790542603	0.09991884231567383
29	151.33075785636902	fix_pre	0		120	27.0	2.5	/experiments/knapen_AOT/AOT_stimuli/rescaled_final/1621_rv.mp4	0.0	186.9147367477417	1.0001521110534668
29	152.33090996742249	movie	1		241	27.0	2.5	/experiments/knapen_AOT/AOT_stimuli/rescaled_final/1621_rv.mp4	0.0	187.91488885879517	2.4921860694885254
29	152.70609498023987	pulse	1	t		27.0	2.5	/experiments/knapen_AOT/AOT_stimuli/rescaled_final/1621_rv.mp4	0.0	188.29007387161255	
29	154.30649304389954	pulse	1	t		27.0	2.5	/experiments/knapen_AOT/AOT_stimuli/rescaled_final/1621_rv.mp4	0.0	189.89047193527222	
29	154.823096036911	fix_post	2		12	27.0	2.5	/experiments/knapen_AOT/AOT_stimuli/rescaled_final/1621_rv.mp4	0.0	190.4070749282837	0.09985494613647461
30	154.92295098304749	fix_pre	0		119	28.0	2.5	/experiments/knapen_AOT/AOT_stimuli/rescaled_final/0422_rv.mp4	0.0	190.50692987442017	0.9919068813323975
30	155.9067280292511	pulse	0	t		28.0	2.5	/experiments/knapen_AOT/AOT_stimuli/rescaled_final/0422_rv.mp4	0.0	191.49070692062378	
30	155.91485786437988	movie	1		244	28.0	2.5	/experiments/knapen_AOT/AOT_stimuli/rescaled_final/0422_rv.mp4	0.0	191.49883675575256	2.5085952281951904
30	157.51111698150635	pulse	1	t		28.0	2.5	/experiments/knapen_AOT/AOT_stimuli/rescaled_final/0422_rv.mp4	0.0	193.09509587287903	
30	158.42345309257507	fix_post	2		12	28.0	2.5	/experiments/knapen_AOT/AOT_stimuli/rescaled_final/0422_rv.mp4	0.0	194.00743198394775	0.09996986389160156
31	158.52342295646667	fix_pre	0		120	29.0	2.5	/experiments/knapen_AOT/AOT_stimuli/rescaled_final/0290_fw.mp4	0.0	194.10740184783936	1.0002329349517822
31	159.10713291168213	pulse	0	t		29.0	2.5	/experiments/knapen_AOT/AOT_stimuli/rescaled_final/0290_fw.mp4	0.0	194.6911118030548	
31	159.52365589141846	movie	1		244	29.0	2.5	/experiments/knapen_AOT/AOT_stimuli/rescaled_final/0290_fw.mp4	0.0	195.10763478279114	2.5003600120544434
31	160.7074098587036	pulse	1	t		29.0	2.5	/experiments/knapen_AOT/AOT_stimuli/rescaled_final/0290_fw.mp4	0.0	196.2913887500763	
31	162.0240159034729	fix_post	2		12	29.0	2.5	/experiments/knapen_AOT/AOT_stimuli/rescaled_final/0290_fw.mp4	0.0	197.60799479484558	0.10004115104675293
32	162.12405705451965	fix_pre	0		120	30.0	2.5	/experiments/knapen_AOT/AOT_stimuli/rescaled_final/0307_fw.mp4	0.0	197.70803594589233	1.0001180171966553
32	162.30764389038086	pulse	0	t		30.0	2.5	/experiments/knapen_AOT/AOT_stimuli/rescaled_final/0307_fw.mp4	0.0	197.89162278175354	
32	163.1241750717163	movie	1		242	30.0	2.5	/experiments/knapen_AOT/AOT_stimuli/rescaled_final/0307_fw.mp4	0.0	198.708153963089	2.500504970550537
32	163.90787506103516	pulse	1	t		30.0	2.5	/experiments/knapen_AOT/AOT_stimuli/rescaled_final/0307_fw.mp4	0.0	199.49185395240784	
32	165.50813102722168	pulse	1	t		30.0	2.5	/experiments/knapen_AOT/AOT_stimuli/rescaled_final/0307_fw.mp4	0.0	201.09210991859436	
32	165.62468004226685	fix_post	2		12	30.0	2.5	/experiments/knapen_AOT/AOT_stimuli/rescaled_final/0307_fw.mp4	0.0	201.20865893363953	0.09998703002929688
33	165.72466707229614	fix_pre	0		120	31.0	2.5	/experiments/knapen_AOT/AOT_stimuli/rescaled_final/0048_fw.mp4	0.0	201.30864596366882	1.0000088214874268
33	166.72467589378357	movie	1		242	31.0	2.5	/experiments/knapen_AOT/AOT_stimuli/rescaled_final/0048_fw.mp4	0.0	202.30865478515625	2.492030143737793
33	167.10873007774353	pulse	1	t		31.0	2.5	/experiments/knapen_AOT/AOT_stimuli/rescaled_final/0048_fw.mp4	0.0	202.6927089691162	
33	168.70865988731384	pulse	1	t		31.0	2.5	/experiments/knapen_AOT/AOT_stimuli/rescaled_final/0048_fw.mp4	0.0	204.29263877868652	
33	169.21670603752136	fix_post	2		12	31.0	2.5	/experiments/knapen_AOT/AOT_stimuli/rescaled_final/0048_fw.mp4	0.0	204.80068492889404	0.10007095336914062
34	169.3167769908905	fix_pre	0		120	32.0	2.5	/experiments/knapen_AOT/AOT_stimuli/rescaled_final/0236_fw.mp4	0.0	204.90075588226318	1.0001518726348877
34	170.30884408950806	pulse	0	t		32.0	2.5	/experiments/knapen_AOT/AOT_stimuli/rescaled_final/0236_fw.mp4	0.0	205.89282298088074	
34	170.3169288635254	movie	1		245	32.0	2.5	/experiments/knapen_AOT/AOT_stimuli/rescaled_final/0236_fw.mp4	0.0	205.90090775489807	2.508693218231201
34	171.91324496269226	pulse	1	t		32.0	2.5	/experiments/knapen_AOT/AOT_stimuli/rescaled_final/0236_fw.mp4	0.0	207.49722385406494	
34	172.8256220817566	fix_post	2		12	32.0	2.5	/experiments/knapen_AOT/AOT_stimuli/rescaled_final/0236_fw.mp4	0.0	208.40960097312927	0.10001492500305176
35	172.92563700675964	fix_pre	0		120	33.0	2.5	/experiments/knapen_AOT/AOT_stimuli/rescaled_final/0843_fw.mp4	0.0	208.50961589813232	1.0001630783081055
35	173.50920987129211	pulse	0	t		33.0	2.5	/experiments/knapen_AOT/AOT_stimuli/rescaled_final/0843_fw.mp4	0.0	209.0931887626648	
35	173.92580008506775	movie	1		243	33.0	2.5	/experiments/knapen_AOT/AOT_stimuli/rescaled_final/0843_fw.mp4	0.0	209.50977897644043	2.5003769397735596
35	175.10966992378235	pulse	1	t		33.0	2.5	/experiments/knapen_AOT/AOT_stimuli/rescaled_final/0843_fw.mp4	0.0	210.69364881515503	
35	176.4261770248413	fix_post	2		12	33.0	2.5	/experiments/knapen_AOT/AOT_stimuli/rescaled_final/0843_fw.mp4	0.0	212.010155916214	0.09997797012329102
36	176.5261549949646	fix_pre	0		120	34.0	2.5	blank	1.0	212.11013388633728	1.0002260208129883
36	176.7098639011383	pulse	0	t		34.0	2.5	blank	1.0	212.293842792511	
36	177.5263810157776	movie	1		300	34.0	2.5	blank	1.0	213.11035990715027	2.5003550052642822
36	178.31000304222107	pulse	1	t		34.0	2.5	blank	1.0	213.89398193359375	
36	179.91012501716614	pulse	1	t		34.0	2.5	blank	1.0	215.49410390853882	
36	180.02673602104187	fix_post	2		12	34.0	2.5	blank	1.0	215.61071491241455	0.09998106956481934
37	180.1267170906067	fix_pre	0		120	35.0	2.5	/experiments/knapen_AOT/AOT_stimuli/rescaled_final/0181_fw.mp4	0.0	215.71069598197937	1.0001568794250488
37	181.12687397003174	movie	1		244	35.0	2.5	/experiments/knapen_AOT/AOT_stimuli/rescaled_final/0181_fw.mp4	0.0	216.71085286140442	2.492032051086426
37	181.51161408424377	pulse	1	t		35.0	2.5	/experiments/knapen_AOT/AOT_stimuli/rescaled_final/0181_fw.mp4	0.0	217.09559297561646	
37	183.11072301864624	pulse	1	t		35.0	2.5	/experiments/knapen_AOT/AOT_stimuli/rescaled_final/0181_fw.mp4	0.0	218.69470191001892	
37	183.61890602111816	fix_post	2		12	35.0	2.5	/experiments/knapen_AOT/AOT_stimuli/rescaled_final/0181_fw.mp4	0.0	219.20288491249084	0.10000896453857422
38	183.71891498565674	fix_pre	0		120	36.0	2.5	/experiments/knapen_AOT/AOT_stimuli/rescaled_final/0417_fw.mp4	0.0	219.30289387702942	1.0001680850982666
38	184.7109739780426	pulse	0	t		36.0	2.5	/experiments/knapen_AOT/AOT_stimuli/rescaled_final/0417_fw.mp4	0.0	220.29495286941528	
38	184.719083070755	movie	1		244	36.0	2.5	/experiments/knapen_AOT/AOT_stimuli/rescaled_final/0417_fw.mp4	0.0	220.30306196212769	2.508683919906616
38	186.31252789497375	pulse	1	t		36.0	2.5	/experiments/knapen_AOT/AOT_stimuli/rescaled_final/0417_fw.mp4	0.0	221.89650678634644	
38	187.22776699066162	fix_post	2		12	36.0	2.5	/experiments/knapen_AOT/AOT_stimuli/rescaled_final/0417_fw.mp4	0.0	222.8117458820343	0.1000509262084961
39	187.32781791687012	fix_pre	0		120	37.0	2.5	/experiments/knapen_AOT/AOT_stimuli/rescaled_final/0921_rv.mp4	0.0	222.9117968082428	1.0001001358032227
39	187.9114260673523	pulse	0	t		37.0	2.5	/experiments/knapen_AOT/AOT_stimuli/rescaled_final/0921_rv.mp4	0.0	223.49540495872498	
39	188.32791805267334	movie	1		243	37.0	2.5	/experiments/knapen_AOT/AOT_stimuli/rescaled_final/0921_rv.mp4	0.0	223.91189694404602	2.5005459785461426
39	189.5079870223999	pulse	1	t		37.0	2.5	/experiments/knapen_AOT/AOT_stimuli/rescaled_final/0921_rv.mp4	0.0	225.09196591377258	
39	190.82846403121948	fix_post	2		12	37.0	2.5	/experiments/knapen_AOT/AOT_stimuli/rescaled_final/0921_rv.mp4	0.0	226.41244292259216	0.09984397888183594
40	190.92830801010132	fix_pre	0		120	38.0	2.5	/experiments/knapen_AOT/AOT_stimuli/rescaled_final/0281_fw.mp4	0.0	226.512286901474	1.0002119541168213
40	191.1118869781494	pulse	0	t		38.0	2.5	/experiments/knapen_AOT/AOT_stimuli/rescaled_final/0281_fw.mp4	0.0	226.6958658695221	
40	191.92851996421814	movie	1		243	38.0	2.5	/experiments/knapen_AOT/AOT_stimuli/rescaled_final/0281_fw.mp4	0.0	227.51249885559082	2.50032901763916
40	192.71213388442993	pulse	1	t		38.0	2.5	/experiments/knapen_AOT/AOT_stimuli/rescaled_final/0281_fw.mp4	0.0	228.2961127758026	
40	194.31231307983398	pulse	1	t		38.0	2.5	/experiments/knapen_AOT/AOT_stimuli/rescaled_final/0281_fw.mp4	0.0	229.89629197120667	
40	194.4288489818573	fix_post	2		12	38.0	2.5	/experiments/knapen_AOT/AOT_stimuli/rescaled_final/0281_fw.mp4	0.0	230.01282787322998	0.10002994537353516
41	194.52887892723083	fix_pre	0		119	39.0	2.5	/experiments/knapen_AOT/AOT_stimuli/rescaled_final/0104_fw.mp4	0.0	230.11285781860352	0.9917550086975098
41	195.52063393592834	movie	1		243	39.0	2.5	/experiments/knapen_AOT/AOT_stimuli/rescaled_final/0104_fw.mp4	0.0	231.10461282730103	2.5003859996795654
41	195.90563702583313	pulse	1	t		39.0	2.5	/experiments/knapen_AOT/AOT_stimuli/rescaled_final/0104_fw.mp4	0.0	231.4896159172058	
41	197.50545287132263	pulse	1	t		39.0	2.5	/experiments/knapen_AOT/AOT_stimuli/rescaled_final/0104_fw.mp4	0.0	233.0894317626953	
41	198.0210199356079	fix_post	2		12	39.0	2.5	/experiments/knapen_AOT/AOT_stimuli/rescaled_final/0104_fw.mp4	0.0	233.6049988269806	0.10005402565002441
42	198.12107396125793	fix_pre	0		120	40.0	2.5	blank	1.0	233.70505285263062	1.0002830028533936
42	199.10564994812012	pulse	0	t		40.0	2.5	blank	1.0	234.6896288394928	
42	199.12135696411133	movie	1		301	40.0	2.5	blank	1.0	234.705335855484	2.5085771083831787
42	200.70596599578857	pulse	1	t		40.0	2.5	blank	1.0	236.28994488716125	
42	201.6299340724945	fix_post	2		12	40.0	2.5	blank	1.0	237.2139129638672	0.09999585151672363
43	201.72992992401123	fix_pre	0		120	41.0	2.5	/experiments/knapen_AOT/AOT_stimuli/rescaled_final/0696_fw.mp4	0.0	237.3139088153839	1.000180959701538
43	202.306086063385	pulse	0	t		41.0	2.5	/experiments/knapen_AOT/AOT_stimuli/rescaled_final/0696_fw.mp4	0.0	237.8900649547577	
43	202.73011088371277	movie	1		242	41.0	2.5	/experiments/knapen_AOT/AOT_stimuli/rescaled_final/0696_fw.mp4	0.0	238.31408977508545	2.5004541873931885
43	203.9059329032898	pulse	1	t		41.0	2.5	/experiments/knapen_AOT/AOT_stimuli/rescaled_final/0696_fw.mp4	0.0	239.48991179466248	
43	205.23056507110596	fix_post	2		12	41.0	2.5	/experiments/knapen_AOT/AOT_stimuli/rescaled_final/0696_fw.mp4	0.0	240.81454396247864	0.09990787506103516
44	205.330472946167	fix_pre	0		120	42.0	2.5	/experiments/knapen_AOT/AOT_stimuli/rescaled_final/1918_fw.mp4	0.0	240.91445183753967	1.0001981258392334
44	205.50565004348755	pulse	0	t		42.0	2.5	/experiments/knapen_AOT/AOT_stimuli/rescaled_final/1918_fw.mp4	0.0	241.08962893486023	
44	206.33067107200623	movie	1		242	42.0	2.5	/experiments/knapen_AOT/AOT_stimuli/rescaled_final/1918_fw.mp4	0.0	241.9146499633789	2.5253548622131348
44	207.1059820652008	pulse	1	t		42.0	2.5	/experiments/knapen_AOT/AOT_stimuli/rescaled_final/1918_fw.mp4	0.0	242.6899609565735	
44	208.70611906051636	pulse	1	t		42.0	2.5	/experiments/knapen_AOT/AOT_stimuli/rescaled_final/1918_fw.mp4	0.0	244.29009795188904	
44	208.85602593421936	fix_post	2		8	42.0	2.5	/experiments/knapen_AOT/AOT_stimuli/rescaled_final/1918_fw.mp4	0.0	244.44000482559204	0.06666707992553711
45	208.9226930141449	fix_pre	0		120	43.0	2.5	/experiments/knapen_AOT/AOT_stimuli/rescaled_final/0843_rv.mp4	0.0	244.50667190551758	1.000128984451294
45	209.9228219985962	movie	1		243	43.0	2.5	/experiments/knapen_AOT/AOT_stimuli/rescaled_final/0843_rv.mp4	0.0	245.50680088996887	2.5003528594970703
45	210.30757093429565	pulse	1	t		43.0	2.5	/experiments/knapen_AOT/AOT_stimuli/rescaled_final/0843_rv.mp4	0.0	245.89154982566833	
45	211.90664505958557	pulse	1	t		43.0	2.5	/experiments/knapen_AOT/AOT_stimuli/rescaled_final/0843_rv.mp4	0.0	247.49062395095825	
45	212.42317485809326	fix_post	2		12	43.0	2.5	/experiments/knapen_AOT/AOT_stimuli/rescaled_final/0843_rv.mp4	0.0	248.00715374946594	0.10002923011779785
46	212.52320408821106	fix_pre	0		119	44.0	2.5	/experiments/knapen_AOT/AOT_stimuli/rescaled_final/0696_fw.mp4	0.0	248.10718297958374	0.9918317794799805
46	213.50687193870544	pulse	0	t		44.0	2.5	/experiments/knapen_AOT/AOT_stimuli/rescaled_final/0696_fw.mp4	0.0	249.09085083007812	
46	213.51503586769104	movie	1		243	44.0	2.5	/experiments/knapen_AOT/AOT_stimuli/rescaled_final/0696_fw.mp4	0.0	249.09901475906372	2.508669137954712
46	215.1077220439911	pulse	1	t		44.0	2.5	/experiments/knapen_AOT/AOT_stimuli/rescaled_final/0696_fw.mp4	0.0	250.69170093536377	
46	216.02370500564575	fix_post	2		12	44.0	2.5	/experiments/knapen_AOT/AOT_stimuli/rescaled_final/0696_fw.mp4	0.0	251.60768389701843	0.10006999969482422
47	216.12377500534058	fix_pre	0		120	45.0	2.5	/experiments/knapen_AOT/AOT_stimuli/rescaled_final/1502_fw.mp4	0.0	251.70775389671326	1.0001790523529053
47	216.70737195014954	pulse	0	t		45.0	2.5	/experiments/knapen_AOT/AOT_stimuli/rescaled_final/1502_fw.mp4	0.0	252.29135084152222	
47	217.12395405769348	movie	1		244	45.0	2.5	/experiments/knapen_AOT/AOT_stimuli/rescaled_final/1502_fw.mp4	0.0	252.70793294906616	2.5003128051757812
47	218.30777287483215	pulse	1	t		45.0	2.5	/experiments/knapen_AOT/AOT_stimuli/rescaled_final/1502_fw.mp4	0.0	253.89175176620483	
47	219.62426686286926	fix_post	2		12	45.0	2.5	/experiments/knapen_AOT/AOT_stimuli/rescaled_final/1502_fw.mp4	0.0	255.20824575424194	0.10002923011779785
48	219.72429609298706	fix_pre	0		120	46.0	2.5	/experiments/knapen_AOT/AOT_stimuli/rescaled_final/1591_rv.mp4	0.0	255.30827498435974	1.000168800354004
48	219.90795302391052	pulse	0	t		46.0	2.5	/experiments/knapen_AOT/AOT_stimuli/rescaled_final/1591_rv.mp4	0.0	255.4919319152832	
48	220.72446489334106	movie	1		243	46.0	2.5	/experiments/knapen_AOT/AOT_stimuli/rescaled_final/1591_rv.mp4	0.0	256.30844378471375	2.500373125076294
48	221.50807189941406	pulse	1	t		46.0	2.5	/experiments/knapen_AOT/AOT_stimuli/rescaled_final/1591_rv.mp4	0.0	257.09205079078674	
48	223.10852694511414	pulse	1	t		46.0	2.5	/experiments/knapen_AOT/AOT_stimuli/rescaled_final/1591_rv.mp4	0.0	258.6925058364868	
48	223.22483801841736	fix_post	2		12	46.0	2.5	/experiments/knapen_AOT/AOT_stimuli/rescaled_final/1591_rv.mp4	0.0	258.80881690979004	0.09998703002929688
49	223.32482504844666	fix_pre	0		120	47.0	2.5	/experiments/knapen_AOT/AOT_stimuli/rescaled_final/0513_rv.mp4	0.0	258.90880393981934	1.0001599788665771
49	224.32498502731323	movie	1		242	47.0	2.5	/experiments/knapen_AOT/AOT_stimuli/rescaled_final/0513_rv.mp4	0.0	259.9089639186859	2.492055892944336
49	224.7090630531311	pulse	1	t		47.0	2.5	/experiments/knapen_AOT/AOT_stimuli/rescaled_final/0513_rv.mp4	0.0	260.2930419445038	
49	226.3088150024414	pulse	1	t		47.0	2.5	/experiments/knapen_AOT/AOT_stimuli/rescaled_final/0513_rv.mp4	0.0	261.8927938938141	
49	226.81704092025757	fix_post	2		12	47.0	2.5	/experiments/knapen_AOT/AOT_stimuli/rescaled_final/0513_rv.mp4	0.0	262.40101981163025	0.09998512268066406
50	226.91702604293823	fix_pre	0		120	48.0	2.5	blank	1.0	262.5010049343109	1.0001850128173828
50	227.90912199020386	pulse	0	t		48.0	2.5	blank	1.0	263.49310088157654	
50	227.91721105575562	movie	1		301	48.0	2.5	blank	1.0	263.5011899471283	2.5087428092956543
50	229.50927186012268	pulse	1	t		48.0	2.5	blank	1.0	265.09325075149536	
50	230.42595386505127	fix_post	2		12	48.0	2.5	blank	1.0	266.00993275642395	0.09994912147521973
51	230.5259029865265	fix_pre	0		120	49.0	2.5	/experiments/knapen_AOT/AOT_stimuli/rescaled_final/1142_rv.mp4	0.0	266.10988187789917	1.000148057937622
51	231.10949301719666	pulse	0	t		49.0	2.5	/experiments/knapen_AOT/AOT_stimuli/rescaled_final/1142_rv.mp4	0.0	266.69347190856934	
51	231.5260510444641	movie	1		244	49.0	2.5	/experiments/knapen_AOT/AOT_stimuli/rescaled_final/1142_rv.mp4	0.0	267.1100299358368	2.5003600120544434
51	232.7099049091339	pulse	1	t		49.0	2.5	/experiments/knapen_AOT/AOT_stimuli/rescaled_final/1142_rv.mp4	0.0	268.2938838005066	
51	234.02641105651855	fix_post	2		12	49.0	2.5	/experiments/knapen_AOT/AOT_stimuli/rescaled_final/1142_rv.mp4	0.0	269.61038994789124	0.10001087188720703
52	234.12642192840576	fix_pre	0		120	50.0	2.5	/experiments/knapen_AOT/AOT_stimuli/rescaled_final/0728_fw.mp4	0.0	269.71040081977844	1.0001721382141113
52	234.31022691726685	pulse	0	t		50.0	2.5	/experiments/knapen_AOT/AOT_stimuli/rescaled_final/0728_fw.mp4	0.0	269.8942058086395	
52	235.12659406661987	movie	1		243	50.0	2.5	/experiments/knapen_AOT/AOT_stimuli/rescaled_final/0728_fw.mp4	0.0	270.71057295799255	2.5003578662872314
52	235.91020703315735	pulse	1	t		50.0	2.5	/experiments/knapen_AOT/AOT_stimuli/rescaled_final/0728_fw.mp4	0.0	271.49418592453003	
52	237.51031494140625	pulse	1	t		50.0	2.5	/experiments/knapen_AOT/AOT_stimuli/rescaled_final/0728_fw.mp4	0.0	273.09429383277893	
52	237.6269519329071	fix_post	2		12	50.0	2.5	/experiments/knapen_AOT/AOT_stimuli/rescaled_final/0728_fw.mp4	0.0	273.2109308242798	0.10001111030578613
53	237.7269630432129	fix_pre	0		120	51.0	2.5	/experiments/knapen_AOT/AOT_stimuli/rescaled_final/1806_fw.mp4	0.0	273.31094193458557	1.0001728534698486
53	238.72713589668274	movie	1		242	51.0	2.5	/experiments/knapen_AOT/AOT_stimuli/rescaled_final/1806_fw.mp4	0.0	274.3111147880554	2.492017984390259
53	239.11140704154968	pulse	1	t		51.0	2.5	/experiments/knapen_AOT/AOT_stimuli/rescaled_final/1806_fw.mp4	0.0	274.69538593292236	
53	240.71114087104797	pulse	1	t		51.0	2.5	/experiments/knapen_AOT/AOT_stimuli/rescaled_final/1806_fw.mp4	0.0	276.29511976242065	
53	241.219153881073	fix_post	2		12	51.0	2.5	/experiments/knapen_AOT/AOT_stimuli/rescaled_final/1806_fw.mp4	0.0	276.8031327724457	0.10000014305114746
54	241.31915402412415	fix_pre	0		120	52.0	2.5	/experiments/knapen_AOT/AOT_stimuli/rescaled_final/1101_rv.mp4	0.0	276.9031329154968	1.0001938343048096
54	242.31114888191223	pulse	0	t		52.0	2.5	/experiments/knapen_AOT/AOT_stimuli/rescaled_final/1101_rv.mp4	0.0	277.8951277732849	
54	242.31934785842896	movie	1		243	52.0	2.5	/experiments/knapen_AOT/AOT_stimuli/rescaled_final/1101_rv.mp4	0.0	277.90332674980164	2.508674144744873
54	243.91234803199768	pulse	1	t		52.0	2.5	/experiments/knapen_AOT/AOT_stimuli/rescaled_final/1101_rv.mp4	0.0	279.49632692337036	
54	244.82802200317383	fix_post	2		12	52.0	2.5	/experiments/knapen_AOT/AOT_stimuli/rescaled_final/1101_rv.mp4	0.0	280.4120008945465	0.10000801086425781
55	244.9280300140381	fix_pre	0		120	53.0	2.5	/experiments/knapen_AOT/AOT_stimuli/rescaled_final/0767_fw.mp4	0.0	280.51200890541077	1.0001599788665771
55	245.51168608665466	pulse	0	t		53.0	2.5	/experiments/knapen_AOT/AOT_stimuli/rescaled_final/0767_fw.mp4	0.0	281.09566497802734	
55	245.92818999290466	movie	1		243	53.0	2.5	/experiments/knapen_AOT/AOT_stimuli/rescaled_final/0767_fw.mp4	0.0	281.51216888427734	2.5004940032958984
55	247.1121039390564	pulse	1	t		53.0	2.5	/experiments/knapen_AOT/AOT_stimuli/rescaled_final/0767_fw.mp4	0.0	282.6960828304291	
55	248.42868399620056	fix_post	2		12	53.0	2.5	/experiments/knapen_AOT/AOT_stimuli/rescaled_final/0767_fw.mp4	0.0	284.01266288757324	0.09989309310913086
56	248.5285770893097	fix_pre	0		120	54.0	2.5	/experiments/knapen_AOT/AOT_stimuli/rescaled_final/0545_rv.mp4	0.0	284.1125559806824	1.0001509189605713
56	248.71218585968018	pulse	0	t		54.0	2.5	/experiments/knapen_AOT/AOT_stimuli/rescaled_final/0545_rv.mp4	0.0	284.29616475105286	
56	249.52872800827026	movie	1		243	54.0	2.5	/experiments/knapen_AOT/AOT_stimuli/rescaled_final/0545_rv.mp4	0.0	285.11270689964294	2.5004348754882812
56	250.31241393089294	pulse	1	t		54.0	2.5	/experiments/knapen_AOT/AOT_stimuli/rescaled_final/0545_rv.mp4	0.0	285.8963928222656	
56	251.91239094734192	pulse	1	t		54.0	2.5	/experiments/knapen_AOT/AOT_stimuli/rescaled_final/0545_rv.mp4	0.0	287.4963698387146	
56	252.02916288375854	fix_post	2		12	54.0	2.5	/experiments/knapen_AOT/AOT_stimuli/rescaled_final/0545_rv.mp4	0.0	287.6131417751312	0.10000801086425781
57	252.1291708946228	fix_pre	0		120	55.0	2.5	/experiments/knapen_AOT/AOT_stimuli/rescaled_final/1392_fw.mp4	0.0	287.7131497859955	1.0001020431518555
57	253.12927293777466	movie	1		242	55.0	2.5	/experiments/knapen_AOT/AOT_stimuli/rescaled_final/1392_fw.mp4	0.0	288.71325182914734	2.4921181201934814
57	253.5141499042511	pulse	1	t		55.0	2.5	/experiments/knapen_AOT/AOT_stimuli/rescaled_final/1392_fw.mp4	0.0	289.0981287956238	
57	255.11306405067444	pulse	1	t		55.0	2.5	/experiments/knapen_AOT/AOT_stimuli/rescaled_final/1392_fw.mp4	0.0	290.6970429420471	
57	255.62139105796814	fix_post	2		12	55.0	2.5	/experiments/knapen_AOT/AOT_stimuli/rescaled_final/1392_fw.mp4	0.0	291.2053699493408	0.09993100166320801
58	255.72132205963135	fix_pre	0		120	56.0	2.5	blank	1.0	291.305300951004	1.000147819519043
58	256.7133700847626	pulse	0	t		56.0	2.5	blank	1.0	292.29734897613525	
58	256.7214698791504	movie	1		301	56.0	2.5	blank	1.0	292.30544877052307	2.508711099624634
58	258.3060028553009	pulse	1	t		56.0	2.5	blank	1.0	293.8899817466736	
58	259.230180978775	fix_post	2		12	56.0	2.5	blank	1.0	294.8141598701477	0.09999608993530273
59	259.3301770687103	fix_pre	0		120	57.0	2.5	/experiments/knapen_AOT/AOT_stimuli/rescaled_final/1600_fw.mp4	0.0	294.914155960083	1.000152826309204
59	259.9064209461212	pulse	0	t		57.0	2.5	/experiments/knapen_AOT/AOT_stimuli/rescaled_final/1600_fw.mp4	0.0	295.4903998374939	
59	260.33032989501953	movie	1		243	57.0	2.5	/experiments/knapen_AOT/AOT_stimuli/rescaled_final/1600_fw.mp4	0.0	295.9143087863922	2.5005810260772705
59	261.50722789764404	pulse	1	t		57.0	2.5	/experiments/knapen_AOT/AOT_stimuli/rescaled_final/1600_fw.mp4	0.0	297.0912067890167	
59	262.8309109210968	fix_post	2		12	57.0	2.5	/experiments/knapen_AOT/AOT_stimuli/rescaled_final/1600_fw.mp4	0.0	298.4148898124695	0.0998070240020752
60	262.9307179450989	fix_pre	0		120	58.0	2.5	/experiments/knapen_AOT/AOT_stimuli/rescaled_final/0290_rv.mp4	0.0	298.51469683647156	1.000154972076416
60	263.10671186447144	pulse	0	t		58.0	2.5	/experiments/knapen_AOT/AOT_stimuli/rescaled_final/0290_rv.mp4	0.0	298.6906907558441	
60	263.9308729171753	movie	1		244	58.0	2.5	/experiments/knapen_AOT/AOT_stimuli/rescaled_final/0290_rv.mp4	0.0	299.514851808548	2.500385046005249
60	264.7063100337982	pulse	1	t		58.0	2.5	/experiments/knapen_AOT/AOT_stimuli/rescaled_final/0290_rv.mp4	0.0	300.2902889251709	
60	266.30639386177063	pulse	1	t		58.0	2.5	/experiments/knapen_AOT/AOT_stimuli/rescaled_final/0290_rv.mp4	0.0	301.8903727531433	
60	266.43125796318054	fix_post	2		12	58.0	2.5	/experiments/knapen_AOT/AOT_stimuli/rescaled_final/0290_rv.mp4	0.0	302.0152368545532	0.10000205039978027
61	266.5312600135803	fix_pre	0		120	59.0	2.5	/experiments/knapen_AOT/AOT_stimuli/rescaled_final/1944_fw.mp4	0.0	302.115238904953	1.0001718997955322
61	267.53143191337585	movie	1		242	59.0	2.5	/experiments/knapen_AOT/AOT_stimuli/rescaled_final/1944_fw.mp4	0.0	303.11541080474854	2.4920411109924316
61	267.9066939353943	pulse	1	t		59.0	2.5	/experiments/knapen_AOT/AOT_stimuli/rescaled_final/1944_fw.mp4	0.0	303.49067282676697	
61	269.5070219039917	pulse	1	t		59.0	2.5	/experiments/knapen_AOT/AOT_stimuli/rescaled_final/1944_fw.mp4	0.0	305.0910007953644	
61	270.0234730243683	fix_post	2		12	59.0	2.5	/experiments/knapen_AOT/AOT_stimuli/rescaled_final/1944_fw.mp4	0.0	305.60745191574097	0.10003185272216797
62	270.12350487709045	fix_pre	0		119	60.0	2.5	/experiments/knapen_AOT/AOT_stimuli/rescaled_final/0104_rv.mp4	0.0	305.70748376846313	0.9917809963226318
62	271.10710096359253	pulse	0	t		60.0	2.5	/experiments/knapen_AOT/AOT_stimuli/rescaled_final/0104_rv.mp4	0.0	306.6910798549652	
62	271.1152858734131	movie	1		241	60.0	2.5	/experiments/knapen_AOT/AOT_stimuli/rescaled_final/0104_rv.mp4	0.0	306.69926476478577	2.508697986602783
62	272.70858788490295	pulse	1	t		60.0	2.5	/experiments/knapen_AOT/AOT_stimuli/rescaled_final/0104_rv.mp4	0.0	308.29256677627563	
62	273.62398386001587	fix_post	2		12	60.0	2.5	/experiments/knapen_AOT/AOT_stimuli/rescaled_final/0104_rv.mp4	0.0	309.20796275138855	0.10005617141723633
63	273.7240400314331	fix_pre	0		120	61.0	2.5	/experiments/knapen_AOT/AOT_stimuli/rescaled_final/2154_fw.mp4	0.0	309.3080189228058	1.000121831893921
63	274.3076000213623	pulse	0	t		61.0	2.5	/experiments/knapen_AOT/AOT_stimuli/rescaled_final/2154_fw.mp4	0.0	309.891578912735	
63	274.724161863327	movie	1		246	61.0	2.5	/experiments/knapen_AOT/AOT_stimuli/rescaled_final/2154_fw.mp4	0.0	310.3081407546997	2.5004310607910156
63	275.90789008140564	pulse	1	t		61.0	2.5	/experiments/knapen_AOT/AOT_stimuli/rescaled_final/2154_fw.mp4	0.0	311.4918689727783	
63	277.22459292411804	fix_post	2		12	61.0	2.5	/experiments/knapen_AOT/AOT_stimuli/rescaled_final/2154_fw.mp4	0.0	312.8085718154907	0.09993600845336914
64	277.3245289325714	fix_pre	0		120	62.0	2.5	blank	1.0	312.9085078239441	1.0002110004425049
64	277.50812101364136	pulse	0	t		62.0	2.5	blank	1.0	313.09209990501404	
64	278.3247399330139	movie	1		300	62.0	2.5	blank	1.0	313.9087188243866	2.50032901763916
64	279.1082980632782	pulse	1	t		62.0	2.5	blank	1.0	314.6922769546509	
64	280.7086410522461	pulse	1	t		62.0	2.5	blank	1.0	316.2926199436188	
64	280.8250689506531	fix_post	2		12	62.0	2.5	blank	1.0	316.40904784202576	0.10000491142272949
65	280.9250738620758	fix_pre	0		119	63.0	2.5	/experiments/knapen_AOT/AOT_stimuli/rescaled_final/0860_fw.mp4	0.0	316.5090527534485	0.9918510913848877
65	281.9169249534607	movie	1		243	63.0	2.5	/experiments/knapen_AOT/AOT_stimuli/rescaled_final/0860_fw.mp4	0.0	317.5009038448334	2.500498056411743
65	282.30903005599976	pulse	1	t		63.0	2.5	/experiments/knapen_AOT/AOT_stimuli/rescaled_final/0860_fw.mp4	0.0	317.89300894737244	
65	283.9091670513153	pulse	1	t		63.0	2.5	/experiments/knapen_AOT/AOT_stimuli/rescaled_final/0860_fw.mp4	0.0	319.493145942688	
65	284.41742300987244	fix_post	2		12	63.0	2.5	/experiments/knapen_AOT/AOT_stimuli/rescaled_final/0860_fw.mp4	0.0	320.0014019012451	0.09992790222167969
66	284.5173509120941	fix_pre	0		120	64.0	2.5	/experiments/knapen_AOT/AOT_stimuli/rescaled_final/0506_fw.mp4	0.0	320.1013298034668	1.0001449584960938
66	285.5093729496002	pulse	0	t		64.0	2.5	/experiments/knapen_AOT/AOT_stimuli/rescaled_final/0506_fw.mp4	0.0	321.0933518409729	
66	285.5174958705902	movie	1		244	64.0	2.5	/experiments/knapen_AOT/AOT_stimuli/rescaled_final/0506_fw.mp4	0.0	321.1014747619629	2.5086350440979004
66	287.11060905456543	pulse	1	t		64.0	2.5	/experiments/knapen_AOT/AOT_stimuli/rescaled_final/0506_fw.mp4	0.0	322.6945879459381	
66	288.0261309146881	fix_post	2		12	64.0	2.5	/experiments/knapen_AOT/AOT_stimuli/rescaled_final/0506_fw.mp4	0.0	323.6101098060608	0.10002899169921875
67	288.12615990638733	fix_pre	0		120	65.0	2.5	/experiments/knapen_AOT/AOT_stimuli/rescaled_final/1670_rv.mp4	0.0	323.71013879776	1.0001399517059326
67	288.7098650932312	pulse	0	t		65.0	2.5	/experiments/knapen_AOT/AOT_stimuli/rescaled_final/1670_rv.mp4	0.0	324.2938439846039	
67	289.12629985809326	movie	1		243	65.0	2.5	/experiments/knapen_AOT/AOT_stimuli/rescaled_final/1670_rv.mp4	0.0	324.71027874946594	2.500566005706787
67	290.3056609630585	pulse	1	t		65.0	2.5	/experiments/knapen_AOT/AOT_stimuli/rescaled_final/1670_rv.mp4	0.0	325.88963985443115	
67	291.62686586380005	fix_post	2		12	65.0	2.5	/experiments/knapen_AOT/AOT_stimuli/rescaled_final/1670_rv.mp4	0.0	327.21084475517273	0.09983015060424805
68	291.7266960144043	fix_pre	0		120	66.0	2.5	/experiments/knapen_AOT/AOT_stimuli/rescaled_final/0796_fw.mp4	0.0	327.310674905777	1.0001909732818604
68	291.91022396087646	pulse	0	t		66.0	2.5	/experiments/knapen_AOT/AOT_stimuli/rescaled_final/0796_fw.mp4	0.0	327.49420285224915	
68	292.72688698768616	movie	1		242	66.0	2.5	/experiments/knapen_AOT/AOT_stimuli/rescaled_final/0796_fw.mp4	0.0	328.31086587905884	2.5004630088806152
68	293.51054286956787	pulse	1	t		66.0	2.5	/experiments/knapen_AOT/AOT_stimuli/rescaled_final/0796_fw.mp4	0.0	329.09452176094055	
68	295.1105999946594	pulse	1	t		66.0	2.5	/experiments/knapen_AOT/AOT_stimuli/rescaled_final/0796_fw.mp4	0.0	330.6945788860321	
68	295.2273499965668	fix_post	2		12	66.0	2.5	/experiments/knapen_AOT/AOT_stimuli/rescaled_final/0796_fw.mp4	0.0	330.81132888793945	0.09991097450256348
69	295.32726097106934	fix_pre	0		120	67.0	2.5	/experiments/knapen_AOT/AOT_stimuli/rescaled_final/2148_fw.mp4	0.0	330.911239862442	1.0001499652862549
69	296.3274109363556	movie	1		241	67.0	2.5	/experiments/knapen_AOT/AOT_stimuli/rescaled_final/2148_fw.mp4	0.0	331.91138982772827	2.4921209812164307
69	296.71165800094604	pulse	1	t		67.0	2.5	/experiments/knapen_AOT/AOT_stimuli/rescaled_final/2148_fw.mp4	0.0	332.2956368923187	
69	298.31119108200073	pulse	1	t		67.0	2.5	/experiments/knapen_AOT/AOT_stimuli/rescaled_final/2148_fw.mp4	0.0	333.8951699733734	
69	298.819531917572	fix_post	2		12	67.0	2.5	/experiments/knapen_AOT/AOT_stimuli/rescaled_final/2148_fw.mp4	0.0	334.4035108089447	0.09988713264465332
70	298.9194190502167	fix_pre	0		120	68.0	2.5	blank	1.0	334.50339794158936	1.0002028942108154
70	299.9115538597107	pulse	0	t		68.0	2.5	blank	1.0	335.4955327510834	
70	299.9196219444275	movie	1		301	68.0	2.5	blank	1.0	335.50360083580017	2.508733034133911
70	301.51176404953003	pulse	1	t		68.0	2.5	blank	1.0	337.0957429409027	
70	302.4283549785614	fix_post	2		12	68.0	2.5	blank	1.0	338.0123338699341	0.10001301765441895
71	302.5283679962158	fix_pre	0		120	69.0	2.5	/experiments/knapen_AOT/AOT_stimuli/rescaled_final/2050_rv.mp4	0.0	338.1123468875885	1.0001189708709717
71	303.1120660305023	pulse	0	t		69.0	2.5	/experiments/knapen_AOT/AOT_stimuli/rescaled_final/2050_rv.mp4	0.0	338.696044921875	
71	303.5284869670868	movie	1		242	69.0	2.5	/experiments/knapen_AOT/AOT_stimuli/rescaled_final/2050_rv.mp4	0.0	339.1124658584595	2.500555992126465
71	304.7123589515686	pulse	1	t		69.0	2.5	/experiments/knapen_AOT/AOT_stimuli/rescaled_final/2050_rv.mp4	0.0	340.2963378429413	
71	306.02904295921326	fix_post	2		12	69.0	2.5	/experiments/knapen_AOT/AOT_stimuli/rescaled_final/2050_rv.mp4	0.0	341.61302185058594	0.09983611106872559
72	306.128879070282	fix_pre	0		120	70.0	2.5	/experiments/knapen_AOT/AOT_stimuli/rescaled_final/0635_rv.mp4	0.0	341.71285796165466	1.0001258850097656
72	306.31241488456726	pulse	0	t		70.0	2.5	/experiments/knapen_AOT/AOT_stimuli/rescaled_final/0635_rv.mp4	0.0	341.89639377593994	
72	307.12900495529175	movie	1		242	70.0	2.5	/experiments/knapen_AOT/AOT_stimuli/rescaled_final/0635_rv.mp4	0.0	342.71298384666443	2.5005290508270264
72	307.9127109050751	pulse	1	t		70.0	2.5	/experiments/knapen_AOT/AOT_stimuli/rescaled_final/0635_rv.mp4	0.0	343.49668979644775	
72	309.51281785964966	pulse	1	t		70.0	2.5	/experiments/knapen_AOT/AOT_stimuli/rescaled_final/0635_rv.mp4	0.0	345.09679675102234	
72	309.6295340061188	fix_post	2		12	70.0	2.5	/experiments/knapen_AOT/AOT_stimuli/rescaled_final/0635_rv.mp4	0.0	345.21351289749146	0.09987688064575195
73	309.7294108867645	fix_pre	0		120	71.0	2.5	/experiments/knapen_AOT/AOT_stimuli/rescaled_final/1924_fw.mp4	0.0	345.3133897781372	1.0001070499420166
73	310.72951793670654	movie	1		243	71.0	2.5	/experiments/knapen_AOT/AOT_stimuli/rescaled_final/1924_fw.mp4	0.0	346.3134968280792	2.492108106613159
73	311.1142489910126	pulse	1	t		71.0	2.5	/experiments/knapen_AOT/AOT_stimuli/rescaled_final/1924_fw.mp4	0.0	346.69822788238525	
73	312.70605206489563	pulse	1	t		71.0	2.5	/experiments/knapen_AOT/AOT_stimuli/rescaled_final/1924_fw.mp4	0.0	348.2900309562683	
73	313.2216260433197	fix_post	2		12	71.0	2.5	/experiments/knapen_AOT/AOT_stimuli/rescaled_final/1924_fw.mp4	0.0	348.8056049346924	0.09996700286865234
74	313.32159304618835	fix_pre	0		120	72.0	2.5	/experiments/knapen_AOT/AOT_stimuli/rescaled_final/0821_rv.mp4	0.0	348.90557193756104	1.0001590251922607
74	314.3060300350189	pulse	0	t		72.0	2.5	/experiments/knapen_AOT/AOT_stimuli/rescaled_final/0821_rv.mp4	0.0	349.8900089263916	
74	314.3217520713806	movie	1		244	72.0	2.5	/experiments/knapen_AOT/AOT_stimuli/rescaled_final/0821_rv.mp4	0.0	349.9057309627533	2.508683919906616
74	315.9143760204315	pulse	1	t		72.0	2.5	/experiments/knapen_AOT/AOT_stimuli/rescaled_final/0821_rv.mp4	0.0	351.4983549118042	
74	316.83043599128723	fix_post	2		12	72.0	2.5	/experiments/knapen_AOT/AOT_stimuli/rescaled_final/0821_rv.mp4	0.0	352.4144148826599	0.10004806518554688
75	316.9304840564728	fix_pre	0		120	73.0	2.5	/experiments/knapen_AOT/AOT_stimuli/rescaled_final/1587_rv.mp4	0.0	352.51446294784546	1.0001308917999268
75	317.50589895248413	pulse	0	t		73.0	2.5	/experiments/knapen_AOT/AOT_stimuli/rescaled_final/1587_rv.mp4	0.0	353.0898778438568	
75	317.9306149482727	movie	1		244	73.0	2.5	/experiments/knapen_AOT/AOT_stimuli/rescaled_final/1587_rv.mp4	0.0	353.5145938396454	2.5003600120544434
75	319.10640001296997	pulse	1	t		73.0	2.5	/experiments/knapen_AOT/AOT_stimuli/rescaled_final/1587_rv.mp4	0.0	354.69037890434265	
75	320.43097496032715	fix_post	2		12	73.0	2.5	/experiments/knapen_AOT/AOT_stimuli/rescaled_final/1587_rv.mp4	0.0	356.01495385169983	0.09999704360961914
76	320.53097200393677	fix_pre	0		120	74.0	2.5	/experiments/knapen_AOT/AOT_stimuli/rescaled_final/1246_rv.mp4	0.0	356.11495089530945	1.0001819133758545
76	320.7062180042267	pulse	0	t		74.0	2.5	/experiments/knapen_AOT/AOT_stimuli/rescaled_final/1246_rv.mp4	0.0	356.29019689559937	
76	321.5311539173126	movie	1		243	74.0	2.5	/experiments/knapen_AOT/AOT_stimuli/rescaled_final/1246_rv.mp4	0.0	357.1151328086853	2.500432014465332
76	322.3064739704132	pulse	1	t		74.0	2.5	/experiments/knapen_AOT/AOT_stimuli/rescaled_final/1246_rv.mp4	0.0	357.8904528617859	
76	323.9068100452423	pulse	1	t		74.0	2.5	/experiments/knapen_AOT/AOT_stimuli/rescaled_final/1246_rv.mp4	0.0	359.490788936615	
76	324.03158593177795	fix_post	2		11	74.0	2.5	/experiments/knapen_AOT/AOT_stimuli/rescaled_final/1246_rv.mp4	0.0	359.61556482315063	0.09165716171264648
77	324.1232430934906	fix_pre	0		120	75.0	2.5	/experiments/knapen_AOT/AOT_stimuli/rescaled_final/0689_rv.mp4	0.0	359.7072219848633	1.0001258850097656
77	325.12336897850037	movie	1		242	75.0	2.5	/experiments/knapen_AOT/AOT_stimuli/rescaled_final/0689_rv.mp4	0.0	360.70734786987305	2.500438928604126
77	325.50758600234985	pulse	1	t		75.0	2.5	/experiments/knapen_AOT/AOT_stimuli/rescaled_final/0689_rv.mp4	0.0	361.09156489372253	
77	327.1071529388428	pulse	1	t		75.0	2.5	/experiments/knapen_AOT/AOT_stimuli/rescaled_final/0689_rv.mp4	0.0	362.69113183021545	
77	327.6238079071045	fix_post	2		12	75.0	2.5	/experiments/knapen_AOT/AOT_stimuli/rescaled_final/0689_rv.mp4	0.0	363.2077867984772	0.09995818138122559
78	327.7237660884857	fix_pre	0		119	76.0	2.5	blank	1.0	363.3077449798584	0.9918467998504639
78	328.7074010372162	pulse	0	t		76.0	2.5	blank	1.0	364.29137992858887	
78	328.7156128883362	movie	1		301	76.0	2.5	blank	1.0	364.29959177970886	2.508692979812622
78	330.3076870441437	pulse	1	t		76.0	2.5	blank	1.0	365.89166593551636	
78	331.2243058681488	fix_post	2		12	76.0	2.5	blank	1.0	366.8082847595215	0.09995412826538086
79	331.3242599964142	fix_pre	0		120	77.0	2.5	/experiments/knapen_AOT/AOT_stimuli/rescaled_final/1744_rv.mp4	0.0	366.90823888778687	1.0001418590545654
79	331.9079658985138	pulse	0	t		77.0	2.5	/experiments/knapen_AOT/AOT_stimuli/rescaled_final/1744_rv.mp4	0.0	367.4919447898865	
79	332.32440185546875	movie	1		243	77.0	2.5	/experiments/knapen_AOT/AOT_stimuli/rescaled_final/1744_rv.mp4	0.0	367.90838074684143	2.5004022121429443
79	333.50815200805664	pulse	1	t		77.0	2.5	/experiments/knapen_AOT/AOT_stimuli/rescaled_final/1744_rv.mp4	0.0	369.0921308994293	
79	334.8248040676117	fix_post	2		12	77.0	2.5	/experiments/knapen_AOT/AOT_stimuli/rescaled_final/1744_rv.mp4	0.0	370.4087829589844	0.1000208854675293
80	334.9248249530792	fix_pre	0		118	78.0	2.5	/experiments/knapen_AOT/AOT_stimuli/rescaled_final/0194_fw.mp4	0.0	370.5088038444519	1.0001389980316162
80	335.1083469390869	pulse	0	t		78.0	2.5	/experiments/knapen_AOT/AOT_stimuli/rescaled_final/0194_fw.mp4	0.0	370.6923258304596	
80	335.92496395111084	movie	1		247	78.0	2.5	/experiments/knapen_AOT/AOT_stimuli/rescaled_final/0194_fw.mp4	0.0	371.5089428424835	2.5003719329833984
80	336.7086420059204	pulse	1	t		78.0	2.5	/experiments/knapen_AOT/AOT_stimuli/rescaled_final/0194_fw.mp4	0.0	372.2926208972931	
80	338.3088319301605	pulse	1	t		78.0	2.5	/experiments/knapen_AOT/AOT_stimuli/rescaled_final/0194_fw.mp4	0.0	373.8928108215332	
80	338.42533588409424	fix_post	2		12	78.0	2.5	/experiments/knapen_AOT/AOT_stimuli/rescaled_final/0194_fw.mp4	0.0	374.0093147754669	0.10001611709594727
81	338.5253520011902	fix_pre	0		120	79.0	2.5	/experiments/knapen_AOT/AOT_stimuli/rescaled_final/1819_fw.mp4	0.0	374.10933089256287	1.000154972076416
81	339.5255069732666	movie	1		242	79.0	2.5	/experiments/knapen_AOT/AOT_stimuli/rescaled_final/1819_fw.mp4	0.0	375.1094858646393	2.4921720027923584
81	339.9102609157562	pulse	1	t		79.0	2.5	/experiments/knapen_AOT/AOT_stimuli/rescaled_final/1819_fw.mp4	0.0	375.4942398071289	
81	341.50931096076965	pulse	1	t		79.0	2.5	/experiments/knapen_AOT/AOT_stimuli/rescaled_final/1819_fw.mp4	0.0	377.09328985214233	
81	342.01767897605896	fix_post	2		12	79.0	2.5	/experiments/knapen_AOT/AOT_stimuli/rescaled_final/1819_fw.mp4	0.0	377.60165786743164	0.09987306594848633
82	342.11755204200745	fix_pre	0		120	80.0	2.5	/experiments/knapen_AOT/AOT_stimuli/rescaled_final/2032_fw.mp4	0.0	377.7015309333801	1.000208854675293
82	343.1095759868622	pulse	0	t		80.0	2.5	/experiments/knapen_AOT/AOT_stimuli/rescaled_final/2032_fw.mp4	0.0	378.69355487823486	
82	343.11776089668274	movie	1		243	80.0	2.5	/experiments/knapen_AOT/AOT_stimuli/rescaled_final/2032_fw.mp4	0.0	378.7017397880554	2.5086610317230225
82	344.7103569507599	pulse	1	t		80.0	2.5	/experiments/knapen_AOT/AOT_stimuli/rescaled_final/2032_fw.mp4	0.0	380.29433584213257	
82	345.62642192840576	fix_post	2		12	80.0	2.5	/experiments/knapen_AOT/AOT_stimuli/rescaled_final/2032_fw.mp4	0.0	381.21040081977844	0.09997916221618652
83	345.72640109062195	fix_pre	0		120	81.0	2.5	/experiments/knapen_AOT/AOT_stimuli/rescaled_final/1476_fw.mp4	0.0	381.31037998199463	1.0001797676086426
83	346.31000208854675	pulse	0	t		81.0	2.5	/experiments/knapen_AOT/AOT_stimuli/rescaled_final/1476_fw.mp4	0.0	381.89398097991943	
83	346.7265808582306	movie	1		244	81.0	2.5	/experiments/knapen_AOT/AOT_stimuli/rescaled_final/1476_fw.mp4	0.0	382.31055974960327	2.500345230102539
83	347.91037607192993	pulse	1	t		81.0	2.5	/experiments/knapen_AOT/AOT_stimuli/rescaled_final/1476_fw.mp4	0.0	383.4943549633026	
83	349.22692608833313	fix_post	2		12	81.0	2.5	/experiments/knapen_AOT/AOT_stimuli/rescaled_final/1476_fw.mp4	0.0	384.8109049797058	0.10005593299865723
84	349.3269820213318	fix_pre	0		120	82.0	2.5	/experiments/knapen_AOT/AOT_stimuli/rescaled_final/1753_rv.mp4	0.0	384.91096091270447	1.0001280307769775
84	349.51063799858093	pulse	0	t		82.0	2.5	/experiments/knapen_AOT/AOT_stimuli/rescaled_final/1753_rv.mp4	0.0	385.0946168899536	
84	350.32711005210876	movie	1		242	82.0	2.5	/experiments/knapen_AOT/AOT_stimuli/rescaled_final/1753_rv.mp4	0.0	385.91108894348145	2.500574827194214
84	351.110778093338	pulse	1	t		82.0	2.5	/experiments/knapen_AOT/AOT_stimuli/rescaled_final/1753_rv.mp4	0.0	386.6947569847107	
84	352.7116210460663	pulse	1	t		82.0	2.5	/experiments/knapen_AOT/AOT_stimuli/rescaled_final/1753_rv.mp4	0.0	388.29559993743896	
84	352.827684879303	fix_post	2		12	82.0	2.5	/experiments/knapen_AOT/AOT_stimuli/rescaled_final/1753_rv.mp4	0.0	388.41166377067566	0.09975814819335938
85	352.92744302749634	fix_pre	0		120	83.0	2.5	blank	1.0	388.511421918869	1.0001938343048096
85	353.92763686180115	movie	1		299	83.0	2.5	blank	1.0	389.5116157531738	2.492021083831787
85	354.3111848831177	pulse	1	t		83.0	2.5	blank	1.0	389.89516377449036	
85	355.91148805618286	pulse	1	t		83.0	2.5	blank	1.0	391.49546694755554	
85	356.41965794563293	fix_post	2		12	83.0	2.5	blank	1.0	392.0036368370056	0.10006403923034668
87	356.5197219848633	stim	0		1716					392.10370087623596	14.302251100540161
87	357.51183104515076	pulse	0	t						393.09580993652344	
87	359.11193895339966	pulse	0	t						394.69591784477234	
87	360.712121963501	pulse	0	t						396.29610085487366	
87	362.31245398521423	pulse	0	t						397.8964328765869	
87	363.9126808643341	pulse	0	t						399.4966597557068	
87	365.5128879547119	pulse	0	t						401.0968668460846	
87	367.11305594444275	pulse	0	t						402.69703483581543	
87	368.7132968902588	pulse	0	t						404.29727578163147	
87	370.3062210083008	pulse	0	t						405.89019989967346	
