trial_nr	onset	event_type	phase	response	nr_frames	movie_index	movie_duration	movie_file	blank	onset_abs	duration
0	0.14988207817077637	stim	0		26					19.917211055755615	0.21662092208862305
0	0.35869693756103516	response	0	space						20.126025915145874	
1	0.3665030002593994	stim	0		5469					20.13383197784424	45.57476305961609
1	45.93455505371094	pulse	0	t						65.70188403129578	
1	45.94126605987549	stim	1		1717					65.70859503746033	14.308372020721436
1	47.5331289768219	pulse	1	t						67.30045795440674	
1	49.13312292098999	pulse	1	t						68.90045189857483	
1	50.73312211036682	pulse	1	t						70.50045108795166	
1	52.33312106132507	pulse	1	t						72.10045003890991	
1	53.93311405181885	pulse	1	t						73.70044302940369	
1	55.533117055892944	pulse	1	t						75.30044603347778	
1	57.13315510749817	pulse	1	t						76.90048408508301	
1	58.733072996139526	pulse	1	t						78.50040197372437	
2	60.249638080596924	fix_pre	0		11	0.0	2.5	/experiments/AOT/AOT_stimuli/rescaled_final/0931_fw.mp4	0.0	80.01696705818176	0.09164094924926758
2	60.33303093910217	pulse	0	t		0.0	2.5	/experiments/AOT/AOT_stimuli/rescaled_final/0931_fw.mp4	0.0	80.10035991668701	
2	60.34127902984619	movie	1		244	0.0	2.5	/experiments/AOT/AOT_stimuli/rescaled_final/0931_fw.mp4	0.0	80.10860800743103	2.507878065109253
2	61.9344220161438	pulse	1	t		0.0	2.5	/experiments/AOT/AOT_stimuli/rescaled_final/0931_fw.mp4	0.0	81.70175099372864	
2	62.849157094955444	fix_post	2		12	0.0	2.5	/experiments/AOT/AOT_stimuli/rescaled_final/0931_fw.mp4	0.0	82.61648607254028	0.10051083564758301
3	62.94966793060303	fix_pre	0		120	1.0	2.5	/experiments/AOT/AOT_stimuli/rescaled_final/1648_fw.mp4	0.0	82.71699690818787	0.9999551773071289
3	63.53306007385254	pulse	0	t		1.0	2.5	/experiments/AOT/AOT_stimuli/rescaled_final/1648_fw.mp4	0.0	83.30038905143738	
3	63.949623107910156	movie	1		243	1.0	2.5	/experiments/AOT/AOT_stimuli/rescaled_final/1648_fw.mp4	0.0	83.716952085495	2.4998278617858887
3	65.13317108154297	pulse	1	t		1.0	2.5	/experiments/AOT/AOT_stimuli/rescaled_final/1648_fw.mp4	0.0	84.90050005912781	
3	66.44945096969604	fix_post	2		12	1.0	2.5	/experiments/AOT/AOT_stimuli/rescaled_final/1648_fw.mp4	0.0	86.21677994728088	0.10003209114074707
4	66.54948306083679	fix_pre	0		120	2.0	2.5	/experiments/AOT/AOT_stimuli/rescaled_final/1137_rv.mp4	0.0	86.31681203842163	1.0000929832458496
4	66.73311996459961	pulse	0	t		2.0	2.5	/experiments/AOT/AOT_stimuli/rescaled_final/1137_rv.mp4	0.0	86.50044894218445	
4	67.54957604408264	movie	1		242	2.0	2.5	/experiments/AOT/AOT_stimuli/rescaled_final/1137_rv.mp4	0.0	87.31690502166748	2.499971866607666
4	68.33307790756226	pulse	1	t		2.0	2.5	/experiments/AOT/AOT_stimuli/rescaled_final/1137_rv.mp4	0.0	88.1004068851471	
4	69.93157887458801	pulse	1	t		2.0	2.5	/experiments/AOT/AOT_stimuli/rescaled_final/1137_rv.mp4	0.0	89.69890785217285	
4	70.04954791069031	fix_post	2		12	2.0	2.5	/experiments/AOT/AOT_stimuli/rescaled_final/1137_rv.mp4	0.0	89.81687688827515	0.10003900527954102
5	70.14958691596985	fix_pre	0		120	3.0	2.5	/experiments/AOT/AOT_stimuli/rescaled_final/1393_rv.mp4	0.0	89.91691589355469	0.9999420642852783
5	71.14952898025513	movie	1		244	3.0	2.5	/experiments/AOT/AOT_stimuli/rescaled_final/1393_rv.mp4	0.0	90.91685795783997	2.499906063079834
5	71.53254008293152	pulse	1	t		3.0	2.5	/experiments/AOT/AOT_stimuli/rescaled_final/1393_rv.mp4	0.0	91.29986906051636	
5	73.13301801681519	pulse	1	t		3.0	2.5	/experiments/AOT/AOT_stimuli/rescaled_final/1393_rv.mp4	0.0	92.90034699440002	
5	73.64943504333496	fix_post	2		12	3.0	2.5	/experiments/AOT/AOT_stimuli/rescaled_final/1393_rv.mp4	0.0	93.4167640209198	0.10002589225769043
6	73.74946093559265	fix_pre	0		119	4.0	2.5	/experiments/AOT/AOT_stimuli/rescaled_final/0404_rv.mp4	0.0	93.51678991317749	0.9916610717773438
6	74.73299407958984	pulse	0	t		4.0	2.5	/experiments/AOT/AOT_stimuli/rescaled_final/0404_rv.mp4	0.0	94.50032305717468	
6	74.74112200737	movie	1		244	4.0	2.5	/experiments/AOT/AOT_stimuli/rescaled_final/0404_rv.mp4	0.0	94.50845098495483	2.508476972579956
6	76.33298587799072	pulse	1	t		4.0	2.5	/experiments/AOT/AOT_stimuli/rescaled_final/0404_rv.mp4	0.0	96.10031485557556	
6	77.24959897994995	fix_post	2		12	4.0	2.5	/experiments/AOT/AOT_stimuli/rescaled_final/0404_rv.mp4	0.0	97.01692795753479	0.0998680591583252
7	77.34946703910828	fix_pre	0		120	5.0	2.5	/experiments/AOT/AOT_stimuli/rescaled_final/1768_rv.mp4	0.0	97.11679601669312	0.9996378421783447
7	77.93306303024292	pulse	0	t		5.0	2.5	/experiments/AOT/AOT_stimuli/rescaled_final/1768_rv.mp4	0.0	97.70039200782776	
7	78.34910488128662	movie	1		244	5.0	2.5	/experiments/AOT/AOT_stimuli/rescaled_final/1768_rv.mp4	0.0	98.11643385887146	2.500624179840088
7	79.53270506858826	pulse	1	t		5.0	2.5	/experiments/AOT/AOT_stimuli/rescaled_final/1768_rv.mp4	0.0	99.3000340461731	
7	80.84972906112671	fix_post	2		12	5.0	2.5	/experiments/AOT/AOT_stimuli/rescaled_final/1768_rv.mp4	0.0	100.61705803871155	0.09959602355957031
8	80.94932508468628	fix_pre	0		120	6.0	2.5	blank	1.0	100.71665406227112	1.0002079010009766
8	81.13324809074402	pulse	0	t		6.0	2.5	blank	1.0	100.90057706832886	
8	81.94953298568726	movie	1		300	6.0	2.5	blank	1.0	101.7168619632721	2.4999659061431885
8	82.73303508758545	pulse	1	t		6.0	2.5	blank	1.0	102.50036406517029	
8	84.33299803733826	pulse	1	t		6.0	2.5	blank	1.0	104.1003270149231	
8	84.44949889183044	fix_post	2		12	6.0	2.5	blank	1.0	104.21682786941528	0.09997415542602539
9	84.54947304725647	fix_pre	0		120	7.0	2.5	/experiments/AOT/AOT_stimuli/rescaled_final/1727_rv.mp4	0.0	104.31680202484131	0.9999868869781494
9	85.54945993423462	movie	1		245	7.0	2.5	/experiments/AOT/AOT_stimuli/rescaled_final/1727_rv.mp4	0.0	105.31678891181946	2.4999749660491943
9	85.9328339099884	pulse	1	t		7.0	2.5	/experiments/AOT/AOT_stimuli/rescaled_final/1727_rv.mp4	0.0	105.70016288757324	
9	87.53287196159363	pulse	1	t		7.0	2.5	/experiments/AOT/AOT_stimuli/rescaled_final/1727_rv.mp4	0.0	107.30020093917847	
9	88.04943490028381	fix_post	2		12	7.0	2.5	/experiments/AOT/AOT_stimuli/rescaled_final/1727_rv.mp4	0.0	107.81676387786865	0.10001420974731445
10	88.14944911003113	fix_pre	0		119	8.0	2.5	/experiments/AOT/AOT_stimuli/rescaled_final/0089_fw.mp4	0.0	107.91677808761597	0.9915969371795654
10	89.1329550743103	pulse	0	t		8.0	2.5	/experiments/AOT/AOT_stimuli/rescaled_final/0089_fw.mp4	0.0	108.90028405189514	
10	89.1410460472107	movie	1		246	8.0	2.5	/experiments/AOT/AOT_stimuli/rescaled_final/0089_fw.mp4	0.0	108.90837502479553	2.5083320140838623
10	90.73259687423706	pulse	1	t		8.0	2.5	/experiments/AOT/AOT_stimuli/rescaled_final/0089_fw.mp4	0.0	110.4999258518219	
10	91.64937806129456	fix_post	2		12	8.0	2.5	/experiments/AOT/AOT_stimuli/rescaled_final/0089_fw.mp4	0.0	111.4167070388794	0.10009098052978516
11	91.74946904182434	fix_pre	0		120	9.0	2.5	/experiments/AOT/AOT_stimuli/rescaled_final/1278_fw.mp4	0.0	111.51679801940918	0.9999330043792725
11	92.33411502838135	pulse	0	t		9.0	2.5	/experiments/AOT/AOT_stimuli/rescaled_final/1278_fw.mp4	0.0	112.10144400596619	
11	92.74940204620361	movie	1		244	9.0	2.5	/experiments/AOT/AOT_stimuli/rescaled_final/1278_fw.mp4	0.0	112.51673102378845	2.4999969005584717
11	93.93296098709106	pulse	1	t		9.0	2.5	/experiments/AOT/AOT_stimuli/rescaled_final/1278_fw.mp4	0.0	113.7002899646759	
11	95.24939894676208	fix_post	2		12	9.0	2.5	/experiments/AOT/AOT_stimuli/rescaled_final/1278_fw.mp4	0.0	115.01672792434692	0.09997105598449707
12	95.34937000274658	fix_pre	0		120	10.0	2.5	/experiments/AOT/AOT_stimuli/rescaled_final/0430_fw.mp4	0.0	115.11669898033142	0.9999980926513672
12	95.5328209400177	pulse	0	t		10.0	2.5	/experiments/AOT/AOT_stimuli/rescaled_final/0430_fw.mp4	0.0	115.30014991760254	
12	96.34936809539795	movie	1		243	10.0	2.5	/experiments/AOT/AOT_stimuli/rescaled_final/0430_fw.mp4	0.0	116.11669707298279	2.5001139640808105
12	97.13290405273438	pulse	1	t		10.0	2.5	/experiments/AOT/AOT_stimuli/rescaled_final/0430_fw.mp4	0.0	116.90023303031921	
12	98.73148107528687	pulse	1	t		10.0	2.5	/experiments/AOT/AOT_stimuli/rescaled_final/0430_fw.mp4	0.0	118.4988100528717	
12	98.84948205947876	fix_post	2		12	10.0	2.5	/experiments/AOT/AOT_stimuli/rescaled_final/0430_fw.mp4	0.0	118.6168110370636	0.0998678207397461
13	98.9493498802185	fix_pre	0		120	11.0	2.5	/experiments/AOT/AOT_stimuli/rescaled_final/0622_fw.mp4	0.0	118.71667885780334	1.0000901222229004
13	99.9494400024414	movie	1		245	11.0	2.5	/experiments/AOT/AOT_stimuli/rescaled_final/0622_fw.mp4	0.0	119.71676898002625	2.4999818801879883
13	100.33299207687378	pulse	1	t		11.0	2.5	/experiments/AOT/AOT_stimuli/rescaled_final/0622_fw.mp4	0.0	120.10032105445862	
13	101.93289089202881	pulse	1	t		11.0	2.5	/experiments/AOT/AOT_stimuli/rescaled_final/0622_fw.mp4	0.0	121.70021986961365	
13	102.4494218826294	fix_post	2		12	11.0	2.5	/experiments/AOT/AOT_stimuli/rescaled_final/0622_fw.mp4	0.0	122.21675086021423	0.09998917579650879
14	102.5494110584259	fix_pre	0		119	12.0	2.5	/experiments/AOT/AOT_stimuli/rescaled_final/1573_rv.mp4	0.0	122.31674003601074	0.9915659427642822
14	103.53288888931274	pulse	0	t		12.0	2.5	/experiments/AOT/AOT_stimuli/rescaled_final/1573_rv.mp4	0.0	123.30021786689758	
14	103.54097700119019	movie	1		246	12.0	2.5	/experiments/AOT/AOT_stimuli/rescaled_final/1573_rv.mp4	0.0	123.30830597877502	2.507978916168213
14	105.1323869228363	pulse	1	t		12.0	2.5	/experiments/AOT/AOT_stimuli/rescaled_final/1573_rv.mp4	0.0	124.89971590042114	
14	106.0489559173584	fix_post	2		12	12.0	2.5	/experiments/AOT/AOT_stimuli/rescaled_final/1573_rv.mp4	0.0	125.81628489494324	0.10048103332519531
15	106.1494369506836	fix_pre	0		120	13.0	2.5	blank	1.0	125.91676592826843	0.9999480247497559
15	106.73285698890686	pulse	0	t		13.0	2.5	blank	1.0	126.5001859664917	
15	107.14938497543335	movie	1		300	13.0	2.5	blank	1.0	126.91671395301819	2.4999821186065674
15	108.33282804489136	pulse	1	t		13.0	2.5	blank	1.0	128.1001570224762	
15	109.64936709403992	fix_post	2		12	13.0	2.5	blank	1.0	129.41669607162476	0.10002684593200684
16	109.74939393997192	fix_pre	0		120	14.0	2.5	/experiments/AOT/AOT_stimuli/rescaled_final/0802_rv.mp4	0.0	129.51672291755676	0.9999821186065674
16	109.93276405334473	pulse	0	t		14.0	2.5	/experiments/AOT/AOT_stimuli/rescaled_final/0802_rv.mp4	0.0	129.70009303092957	
16	110.74937605857849	movie	1		244	14.0	2.5	/experiments/AOT/AOT_stimuli/rescaled_final/0802_rv.mp4	0.0	130.51670503616333	2.4999399185180664
16	111.53277397155762	pulse	1	t		14.0	2.5	/experiments/AOT/AOT_stimuli/rescaled_final/0802_rv.mp4	0.0	131.30010294914246	
16	113.13137006759644	pulse	1	t		14.0	2.5	/experiments/AOT/AOT_stimuli/rescaled_final/0802_rv.mp4	0.0	132.89869904518127	
16	113.24931597709656	fix_post	2		12	14.0	2.5	/experiments/AOT/AOT_stimuli/rescaled_final/0802_rv.mp4	0.0	133.0166449546814	0.09999394416809082
17	113.34930992126465	fix_pre	0		120	15.0	2.5	/experiments/AOT/AOT_stimuli/rescaled_final/2074_rv.mp4	0.0	133.1166388988495	0.9999899864196777
17	114.34929990768433	movie	1		243	15.0	2.5	/experiments/AOT/AOT_stimuli/rescaled_final/2074_rv.mp4	0.0	134.11662888526917	2.499955177307129
17	114.73230290412903	pulse	1	t		15.0	2.5	/experiments/AOT/AOT_stimuli/rescaled_final/2074_rv.mp4	0.0	134.49963188171387	
17	116.33269596099854	pulse	1	t		15.0	2.5	/experiments/AOT/AOT_stimuli/rescaled_final/2074_rv.mp4	0.0	136.10002493858337	
17	116.84925508499146	fix_post	2		12	15.0	2.5	/experiments/AOT/AOT_stimuli/rescaled_final/2074_rv.mp4	0.0	136.6165840625763	0.10000491142272949
18	116.94925999641418	fix_pre	0		119	16.0	2.5	/experiments/AOT/AOT_stimuli/rescaled_final/0430_rv.mp4	0.0	136.71658897399902	0.9916670322418213
18	117.9327609539032	pulse	0	t		16.0	2.5	/experiments/AOT/AOT_stimuli/rescaled_final/0430_rv.mp4	0.0	137.70008993148804	
18	117.940927028656	movie	1		245	16.0	2.5	/experiments/AOT/AOT_stimuli/rescaled_final/0430_rv.mp4	0.0	137.70825600624084	2.508310079574585
18	119.53247809410095	pulse	1	t		16.0	2.5	/experiments/AOT/AOT_stimuli/rescaled_final/0430_rv.mp4	0.0	139.2998070716858	
18	120.44923710823059	fix_post	2		12	16.0	2.5	/experiments/AOT/AOT_stimuli/rescaled_final/0430_rv.mp4	0.0	140.21656608581543	0.10000085830688477
19	120.54923796653748	fix_pre	0		120	17.0	2.5	/experiments/AOT/AOT_stimuli/rescaled_final/1054_fw.mp4	0.0	140.31656694412231	0.9999921321868896
19	121.13281297683716	pulse	0	t		17.0	2.5	/experiments/AOT/AOT_stimuli/rescaled_final/1054_fw.mp4	0.0	140.900141954422	
19	121.54923009872437	movie	1		243	17.0	2.5	/experiments/AOT/AOT_stimuli/rescaled_final/1054_fw.mp4	0.0	141.3165590763092	2.4996438026428223
19	122.73280310630798	pulse	1	t		17.0	2.5	/experiments/AOT/AOT_stimuli/rescaled_final/1054_fw.mp4	0.0	142.50013208389282	
19	124.04887390136719	fix_post	2		12	17.0	2.5	/experiments/AOT/AOT_stimuli/rescaled_final/1054_fw.mp4	0.0	143.81620287895203	0.10038113594055176
20	124.14925503730774	fix_pre	0		120	18.0	2.5	/experiments/AOT/AOT_stimuli/rescaled_final/1727_fw.mp4	0.0	143.91658401489258	0.9999639987945557
20	124.33279705047607	pulse	0	t		18.0	2.5	/experiments/AOT/AOT_stimuli/rescaled_final/1727_fw.mp4	0.0	144.1001260280609	
20	125.1492190361023	movie	1		244	18.0	2.5	/experiments/AOT/AOT_stimuli/rescaled_final/1727_fw.mp4	0.0	144.91654801368713	2.5001108646392822
20	125.93277597427368	pulse	1	t		18.0	2.5	/experiments/AOT/AOT_stimuli/rescaled_final/1727_fw.mp4	0.0	145.70010495185852	
20	127.53145790100098	pulse	1	t		18.0	2.5	/experiments/AOT/AOT_stimuli/rescaled_final/1727_fw.mp4	0.0	147.29878687858582	
20	127.64932990074158	fix_post	2		12	18.0	2.5	/experiments/AOT/AOT_stimuli/rescaled_final/1727_fw.mp4	0.0	147.41665887832642	0.09990310668945312
21	127.74923300743103	fix_pre	0		120	19.0	2.5	/experiments/AOT/AOT_stimuli/rescaled_final/1832_rv.mp4	0.0	147.51656198501587	1.0000190734863281
21	128.74925208091736	movie	1		244	19.0	2.5	/experiments/AOT/AOT_stimuli/rescaled_final/1832_rv.mp4	0.0	148.5165810585022	2.4999899864196777
21	129.132395029068	pulse	1	t		19.0	2.5	/experiments/AOT/AOT_stimuli/rescaled_final/1832_rv.mp4	0.0	148.89972400665283	
21	130.7326889038086	pulse	1	t		19.0	2.5	/experiments/AOT/AOT_stimuli/rescaled_final/1832_rv.mp4	0.0	150.50001788139343	
21	131.24924206733704	fix_post	2		12	19.0	2.5	/experiments/AOT/AOT_stimuli/rescaled_final/1832_rv.mp4	0.0	151.01657104492188	0.09998393058776855
22	131.3492259979248	fix_pre	0		119	20.0	2.5	/experiments/AOT/AOT_stimuli/rescaled_final/1601_fw.mp4	0.0	151.11655497550964	0.9917678833007812
22	132.3327829837799	pulse	0	t		20.0	2.5	/experiments/AOT/AOT_stimuli/rescaled_final/1601_fw.mp4	0.0	152.10011196136475	
22	132.3409938812256	movie	1		246	20.0	2.5	/experiments/AOT/AOT_stimuli/rescaled_final/1601_fw.mp4	0.0	152.10832285881042	2.5078041553497314
22	133.93186402320862	pulse	1	t		20.0	2.5	/experiments/AOT/AOT_stimuli/rescaled_final/1601_fw.mp4	0.0	153.69919300079346	
22	134.84879803657532	fix_post	2		12	20.0	2.5	/experiments/AOT/AOT_stimuli/rescaled_final/1601_fw.mp4	0.0	154.61612701416016	0.10041403770446777
23	134.94921207427979	fix_pre	0		120	21.0	2.5	blank	1.0	154.71654105186462	1.000166893005371
23	135.5323269367218	pulse	0	t		21.0	2.5	blank	1.0	155.29965591430664	
23	135.94937896728516	movie	1		300	21.0	2.5	blank	1.0	155.71670794487	2.4998281002044678
23	137.13260006904602	pulse	1	t		21.0	2.5	blank	1.0	156.89992904663086	
23	138.44920706748962	fix_post	2		12	21.0	2.5	blank	1.0	158.21653604507446	0.10000181198120117
24	138.54920887947083	fix_pre	0		120	22.0	2.5	/experiments/AOT/AOT_stimuli/rescaled_final/0056_rv.mp4	0.0	158.31653785705566	1.000042200088501
24	138.73277688026428	pulse	0	t		22.0	2.5	/experiments/AOT/AOT_stimuli/rescaled_final/0056_rv.mp4	0.0	158.50010585784912	
24	139.54925107955933	movie	1		244	22.0	2.5	/experiments/AOT/AOT_stimuli/rescaled_final/0056_rv.mp4	0.0	159.31658005714417	2.4999189376831055
24	140.3325800895691	pulse	1	t		22.0	2.5	/experiments/AOT/AOT_stimuli/rescaled_final/0056_rv.mp4	0.0	160.09990906715393	
24	141.93095207214355	pulse	1	t		22.0	2.5	/experiments/AOT/AOT_stimuli/rescaled_final/0056_rv.mp4	0.0	161.6982810497284	
24	142.04917001724243	fix_post	2		12	22.0	2.5	/experiments/AOT/AOT_stimuli/rescaled_final/0056_rv.mp4	0.0	161.81649899482727	0.09999799728393555
25	142.14916801452637	fix_pre	0		120	23.0	2.5	/experiments/AOT/AOT_stimuli/rescaled_final/1226_fw.mp4	0.0	161.9164969921112	1.0000028610229492
25	143.14917087554932	movie	1		245	23.0	2.5	/experiments/AOT/AOT_stimuli/rescaled_final/1226_fw.mp4	0.0	162.91649985313416	2.4996581077575684
25	143.53207302093506	pulse	1	t		23.0	2.5	/experiments/AOT/AOT_stimuli/rescaled_final/1226_fw.mp4	0.0	163.2994019985199	
25	145.13260102272034	pulse	1	t		23.0	2.5	/experiments/AOT/AOT_stimuli/rescaled_final/1226_fw.mp4	0.0	164.89993000030518	
25	145.64882898330688	fix_post	2		12	23.0	2.5	/experiments/AOT/AOT_stimuli/rescaled_final/1226_fw.mp4	0.0	165.41615796089172	0.1003260612487793
26	145.74915504455566	fix_pre	0		119	24.0	2.5	/experiments/AOT/AOT_stimuli/rescaled_final/2067_rv.mp4	0.0	165.5164840221405	0.9916648864746094
26	146.73271989822388	pulse	0	t		24.0	2.5	/experiments/AOT/AOT_stimuli/rescaled_final/2067_rv.mp4	0.0	166.50004887580872	
26	146.74081993103027	movie	1		247	24.0	2.5	/experiments/AOT/AOT_stimuli/rescaled_final/2067_rv.mp4	0.0	166.5081489086151	2.5082690715789795
26	148.33217692375183	pulse	1	t		24.0	2.5	/experiments/AOT/AOT_stimuli/rescaled_final/2067_rv.mp4	0.0	168.09950590133667	
26	149.24908900260925	fix_post	2		12	24.0	2.5	/experiments/AOT/AOT_stimuli/rescaled_final/2067_rv.mp4	0.0	169.0164179801941	0.10002708435058594
27	149.34911608695984	fix_pre	0		120	25.0	2.5	/experiments/AOT/AOT_stimuli/rescaled_final/1054_rv.mp4	0.0	169.11644506454468	1.0000178813934326
27	149.93263602256775	pulse	0	t		25.0	2.5	/experiments/AOT/AOT_stimuli/rescaled_final/1054_rv.mp4	0.0	169.6999650001526	
27	150.34913396835327	movie	1		245	25.0	2.5	/experiments/AOT/AOT_stimuli/rescaled_final/1054_rv.mp4	0.0	170.1164629459381	2.5001540184020996
27	151.53274297714233	pulse	1	t		25.0	2.5	/experiments/AOT/AOT_stimuli/rescaled_final/1054_rv.mp4	0.0	171.30007195472717	
27	152.84928798675537	fix_post	2		12	25.0	2.5	/experiments/AOT/AOT_stimuli/rescaled_final/1054_rv.mp4	0.0	172.6166169643402	0.09981203079223633
28	152.9491000175476	fix_pre	0		120	26.0	2.5	/experiments/AOT/AOT_stimuli/rescaled_final/1681_fw.mp4	0.0	172.71642899513245	1.000175952911377
28	153.13260889053345	pulse	0	t		26.0	2.5	/experiments/AOT/AOT_stimuli/rescaled_final/1681_fw.mp4	0.0	172.8999378681183	
28	153.94927597045898	movie	1		243	26.0	2.5	/experiments/AOT/AOT_stimuli/rescaled_final/1681_fw.mp4	0.0	173.71660494804382	2.4995150566101074
28	154.7326099872589	pulse	1	t		26.0	2.5	/experiments/AOT/AOT_stimuli/rescaled_final/1681_fw.mp4	0.0	174.49993896484375	
28	156.33148789405823	pulse	1	t		26.0	2.5	/experiments/AOT/AOT_stimuli/rescaled_final/1681_fw.mp4	0.0	176.09881687164307	
28	156.4487910270691	fix_post	2		12	26.0	2.5	/experiments/AOT/AOT_stimuli/rescaled_final/1681_fw.mp4	0.0	176.21612000465393	0.10030508041381836
29	156.5490961074829	fix_pre	0		120	27.0	2.5	/experiments/AOT/AOT_stimuli/rescaled_final/1385_fw.mp4	0.0	176.31642508506775	1.0000238418579102
29	157.54911994934082	movie	1		244	27.0	2.5	/experiments/AOT/AOT_stimuli/rescaled_final/1385_fw.mp4	0.0	177.31644892692566	2.5000219345092773
29	157.93212509155273	pulse	1	t		27.0	2.5	/experiments/AOT/AOT_stimuli/rescaled_final/1385_fw.mp4	0.0	177.69945406913757	
29	159.5326008796692	pulse	1	t		27.0	2.5	/experiments/AOT/AOT_stimuli/rescaled_final/1385_fw.mp4	0.0	179.29992985725403	
29	160.0491418838501	fix_post	2		12	27.0	2.5	/experiments/AOT/AOT_stimuli/rescaled_final/1385_fw.mp4	0.0	179.81647086143494	0.09988117218017578
30	160.14902305603027	fix_pre	0		119	28.0	2.5	blank	1.0	179.9163520336151	0.9917209148406982
30	161.1325399875641	pulse	0	t		28.0	2.5	blank	1.0	180.89986896514893	
30	161.14074397087097	movie	1		301	28.0	2.5	blank	1.0	180.9080729484558	2.5084340572357178
30	162.7325460910797	pulse	1	t		28.0	2.5	blank	1.0	182.49987506866455	
30	163.6491780281067	fix_post	2		12	28.0	2.5	blank	1.0	183.41650700569153	0.09988594055175781
31	163.74906396865845	fix_pre	0		120	29.0	2.5	/experiments/AOT/AOT_stimuli/rescaled_final/0676_fw.mp4	0.0	183.5163929462433	0.9999549388885498
31	164.33254599571228	pulse	0	t		29.0	2.5	/experiments/AOT/AOT_stimuli/rescaled_final/0676_fw.mp4	0.0	184.09987497329712	
31	164.749018907547	movie	1		243	29.0	2.5	/experiments/AOT/AOT_stimuli/rescaled_final/0676_fw.mp4	0.0	184.51634788513184	2.500073194503784
31	165.93261909484863	pulse	1	t		29.0	2.5	/experiments/AOT/AOT_stimuli/rescaled_final/0676_fw.mp4	0.0	185.69994807243347	
31	167.24909210205078	fix_post	2		12	29.0	2.5	/experiments/AOT/AOT_stimuli/rescaled_final/0676_fw.mp4	0.0	187.01642107963562	0.09996485710144043
32	167.34905695915222	fix_pre	0		120	30.0	2.5	/experiments/AOT/AOT_stimuli/rescaled_final/1489_fw.mp4	0.0	187.11638593673706	1.0000159740447998
32	167.53261399269104	pulse	0	t		30.0	2.5	/experiments/AOT/AOT_stimuli/rescaled_final/1489_fw.mp4	0.0	187.29994297027588	
32	168.34907293319702	movie	1		244	30.0	2.5	/experiments/AOT/AOT_stimuli/rescaled_final/1489_fw.mp4	0.0	188.11640191078186	2.499936103820801
32	169.13258290290833	pulse	1	t		30.0	2.5	/experiments/AOT/AOT_stimuli/rescaled_final/1489_fw.mp4	0.0	188.89991188049316	
32	170.73098993301392	pulse	1	t		30.0	2.5	/experiments/AOT/AOT_stimuli/rescaled_final/1489_fw.mp4	0.0	190.49831891059875	
32	170.84900903701782	fix_post	2		12	30.0	2.5	/experiments/AOT/AOT_stimuli/rescaled_final/1489_fw.mp4	0.0	190.61633801460266	0.09995198249816895
33	170.948961019516	fix_pre	0		120	31.0	2.5	/experiments/AOT/AOT_stimuli/rescaled_final/1126_fw.mp4	0.0	190.71628999710083	1.0000720024108887
33	171.94903302192688	movie	1		247	31.0	2.5	/experiments/AOT/AOT_stimuli/rescaled_final/1126_fw.mp4	0.0	191.71636199951172	2.499969959259033
33	172.33207607269287	pulse	1	t		31.0	2.5	/experiments/AOT/AOT_stimuli/rescaled_final/1126_fw.mp4	0.0	192.0994050502777	
33	173.93260502815247	pulse	1	t		31.0	2.5	/experiments/AOT/AOT_stimuli/rescaled_final/1126_fw.mp4	0.0	193.6999340057373	
33	174.4490029811859	fix_post	2		12	31.0	2.5	/experiments/AOT/AOT_stimuli/rescaled_final/1126_fw.mp4	0.0	194.21633195877075	0.09963393211364746
34	174.54863691329956	fix_pre	0		119	32.0	2.5	/experiments/AOT/AOT_stimuli/rescaled_final/0387_fw.mp4	0.0	194.3159658908844	0.991995096206665
34	175.5325129032135	pulse	0	t		32.0	2.5	/experiments/AOT/AOT_stimuli/rescaled_final/0387_fw.mp4	0.0	195.29984188079834	
34	175.54063200950623	movie	1		245	32.0	2.5	/experiments/AOT/AOT_stimuli/rescaled_final/0387_fw.mp4	0.0	195.30796098709106	2.508415937423706
34	177.13215398788452	pulse	1	t		32.0	2.5	/experiments/AOT/AOT_stimuli/rescaled_final/0387_fw.mp4	0.0	196.89948296546936	
34	178.04904794692993	fix_post	2		12	32.0	2.5	/experiments/AOT/AOT_stimuli/rescaled_final/0387_fw.mp4	0.0	197.81637692451477	0.10009503364562988
35	178.14914298057556	fix_pre	0		120	33.0	2.5	/experiments/AOT/AOT_stimuli/rescaled_final/1873_rv.mp4	0.0	197.9164719581604	0.9998950958251953
35	178.7326159477234	pulse	0	t		33.0	2.5	/experiments/AOT/AOT_stimuli/rescaled_final/1873_rv.mp4	0.0	198.49994492530823	
35	179.14903807640076	movie	1		244	33.0	2.5	/experiments/AOT/AOT_stimuli/rescaled_final/1873_rv.mp4	0.0	198.9163670539856	2.500016927719116
35	180.33252787590027	pulse	1	t		33.0	2.5	/experiments/AOT/AOT_stimuli/rescaled_final/1873_rv.mp4	0.0	200.0998568534851	
35	181.64905500411987	fix_post	2		12	33.0	2.5	/experiments/AOT/AOT_stimuli/rescaled_final/1873_rv.mp4	0.0	201.4163839817047	0.09999394416809082
36	181.74904894828796	fix_pre	0		120	34.0	2.5	/experiments/AOT/AOT_stimuli/rescaled_final/0769_fw.mp4	0.0	201.5163779258728	0.9999780654907227
36	181.9324939250946	pulse	0	t		34.0	2.5	/experiments/AOT/AOT_stimuli/rescaled_final/0769_fw.mp4	0.0	201.69982290267944	
36	182.7490270137787	movie	1		244	34.0	2.5	/experiments/AOT/AOT_stimuli/rescaled_final/0769_fw.mp4	0.0	202.51635599136353	2.499912977218628
36	183.53247809410095	pulse	1	t		34.0	2.5	/experiments/AOT/AOT_stimuli/rescaled_final/0769_fw.mp4	0.0	203.2998070716858	
36	185.13101291656494	pulse	1	t		34.0	2.5	/experiments/AOT/AOT_stimuli/rescaled_final/0769_fw.mp4	0.0	204.89834189414978	
36	185.24893999099731	fix_post	2		12	34.0	2.5	/experiments/AOT/AOT_stimuli/rescaled_final/0769_fw.mp4	0.0	205.01626896858215	0.10007810592651367
37	185.34901809692383	fix_pre	0		120	35.0	2.5	blank	1.0	205.11634707450867	1.0000009536743164
37	186.34901905059814	movie	1		300	35.0	2.5	blank	1.0	206.11634802818298	2.499553918838501
37	186.7325940132141	pulse	1	t		35.0	2.5	blank	1.0	206.49992299079895	
37	188.33249592781067	pulse	1	t		35.0	2.5	blank	1.0	208.0998249053955	
37	188.84857296943665	fix_post	2		12	35.0	2.5	blank	1.0	208.61590194702148	0.10040807723999023
38	188.94898104667664	fix_pre	0		119	36.0	2.5	/experiments/AOT/AOT_stimuli/rescaled_final/0558_rv.mp4	0.0	208.71631002426147	0.9916470050811768
38	189.9319839477539	pulse	0	t		36.0	2.5	/experiments/AOT/AOT_stimuli/rescaled_final/0558_rv.mp4	0.0	209.69931292533875	
38	189.9406280517578	movie	1		245	36.0	2.5	/experiments/AOT/AOT_stimuli/rescaled_final/0558_rv.mp4	0.0	209.70795702934265	2.5081000328063965
38	191.53178691864014	pulse	1	t		36.0	2.5	/experiments/AOT/AOT_stimuli/rescaled_final/0558_rv.mp4	0.0	211.29911589622498	
38	192.4487280845642	fix_post	2		12	36.0	2.5	/experiments/AOT/AOT_stimuli/rescaled_final/0558_rv.mp4	0.0	212.21605706214905	0.10005593299865723
39	192.54878401756287	fix_pre	0		120	37.0	2.5	/experiments/AOT/AOT_stimuli/rescaled_final/1090_rv.mp4	0.0	212.3161129951477	1.0001120567321777
39	193.13231492042542	pulse	0	t		37.0	2.5	/experiments/AOT/AOT_stimuli/rescaled_final/1090_rv.mp4	0.0	212.89964389801025	
39	193.54889607429504	movie	1		246	37.0	2.5	/experiments/AOT/AOT_stimuli/rescaled_final/1090_rv.mp4	0.0	213.31622505187988	2.50003981590271
39	194.73265194892883	pulse	1	t		37.0	2.5	/experiments/AOT/AOT_stimuli/rescaled_final/1090_rv.mp4	0.0	214.49998092651367	
39	196.04893589019775	fix_post	2		12	37.0	2.5	/experiments/AOT/AOT_stimuli/rescaled_final/1090_rv.mp4	0.0	215.8162648677826	0.09990906715393066
40	196.14884495735168	fix_pre	0		120	38.0	2.5	/experiments/AOT/AOT_stimuli/rescaled_final/1260_rv.mp4	0.0	215.91617393493652	1.000119924545288
40	196.3323528766632	pulse	0	t		38.0	2.5	/experiments/AOT/AOT_stimuli/rescaled_final/1260_rv.mp4	0.0	216.09968185424805	
40	197.14896488189697	movie	1		246	38.0	2.5	/experiments/AOT/AOT_stimuli/rescaled_final/1260_rv.mp4	0.0	216.9162938594818	2.4995970726013184
40	197.93240189552307	pulse	1	t		38.0	2.5	/experiments/AOT/AOT_stimuli/rescaled_final/1260_rv.mp4	0.0	217.6997308731079	
40	199.53277397155762	pulse	1	t		38.0	2.5	/experiments/AOT/AOT_stimuli/rescaled_final/1260_rv.mp4	0.0	219.30010294914246	
40	199.6485619544983	fix_post	2		12	38.0	2.5	/experiments/AOT/AOT_stimuli/rescaled_final/1260_rv.mp4	0.0	219.41589093208313	0.1002960205078125
41	199.7488579750061	fix_pre	0		120	39.0	2.5	/experiments/AOT/AOT_stimuli/rescaled_final/0935_rv.mp4	0.0	219.51618695259094	1.0000131130218506
41	200.74887108802795	movie	1		244	39.0	2.5	/experiments/AOT/AOT_stimuli/rescaled_final/0935_rv.mp4	0.0	220.5162000656128	2.5001139640808105
41	201.13205289840698	pulse	1	t		39.0	2.5	/experiments/AOT/AOT_stimuli/rescaled_final/0935_rv.mp4	0.0	220.89938187599182	
41	202.73232698440552	pulse	1	t		39.0	2.5	/experiments/AOT/AOT_stimuli/rescaled_final/0935_rv.mp4	0.0	222.49965596199036	
41	203.24898505210876	fix_post	2		12	39.0	2.5	/experiments/AOT/AOT_stimuli/rescaled_final/0935_rv.mp4	0.0	223.0163140296936	0.09986090660095215
42	203.34884595870972	fix_pre	0		119	40.0	2.5	/experiments/AOT/AOT_stimuli/rescaled_final/2117_rv.mp4	0.0	223.11617493629456	0.9916391372680664
42	204.33227705955505	pulse	0	t		40.0	2.5	/experiments/AOT/AOT_stimuli/rescaled_final/2117_rv.mp4	0.0	224.0996060371399	
42	204.34048509597778	movie	1		246	40.0	2.5	/experiments/AOT/AOT_stimuli/rescaled_final/2117_rv.mp4	0.0	224.10781407356262	2.5083558559417725
42	205.93215203285217	pulse	1	t		40.0	2.5	/experiments/AOT/AOT_stimuli/rescaled_final/2117_rv.mp4	0.0	225.699481010437	
42	206.84884095191956	fix_post	2		12	40.0	2.5	/experiments/AOT/AOT_stimuli/rescaled_final/2117_rv.mp4	0.0	226.6161699295044	0.09995198249816895
43	206.94879293441772	fix_pre	0		120	41.0	2.5	/experiments/AOT/AOT_stimuli/rescaled_final/2084_fw.mp4	0.0	226.71612191200256	1.0000619888305664
43	207.53233194351196	pulse	0	t		41.0	2.5	/experiments/AOT/AOT_stimuli/rescaled_final/2084_fw.mp4	0.0	227.2996609210968	
43	207.9488549232483	movie	1		243	41.0	2.5	/experiments/AOT/AOT_stimuli/rescaled_final/2084_fw.mp4	0.0	227.71618390083313	2.4999380111694336
43	209.13237190246582	pulse	1	t		41.0	2.5	/experiments/AOT/AOT_stimuli/rescaled_final/2084_fw.mp4	0.0	228.89970088005066	
43	210.44879293441772	fix_post	2		12	41.0	2.5	/experiments/AOT/AOT_stimuli/rescaled_final/2084_fw.mp4	0.0	230.21612191200256	0.10001206398010254
44	210.54880499839783	fix_pre	0		120	42.0	2.5	blank	1.0	230.31613397598267	1.000032901763916
44	210.73229789733887	pulse	0	t		42.0	2.5	blank	1.0	230.4996268749237	
44	211.54883790016174	movie	1		300	42.0	2.5	blank	1.0	231.31616687774658	2.500020980834961
44	212.33237195014954	pulse	1	t		42.0	2.5	blank	1.0	232.09970092773438	
44	213.9322600364685	pulse	1	t		42.0	2.5	blank	1.0	233.69958901405334	
44	214.0488588809967	fix_post	2		12	42.0	2.5	blank	1.0	233.81618785858154	0.09992718696594238
45	214.14878606796265	fix_pre	0		120	43.0	2.5	/experiments/AOT/AOT_stimuli/rescaled_final/2036_fw.mp4	0.0	233.91611504554749	1.0000758171081543
45	215.1488618850708	movie	1		245	43.0	2.5	/experiments/AOT/AOT_stimuli/rescaled_final/2036_fw.mp4	0.0	234.91619086265564	2.5000550746917725
45	215.53220105171204	pulse	1	t		43.0	2.5	/experiments/AOT/AOT_stimuli/rescaled_final/2036_fw.mp4	0.0	235.29953002929688	
45	217.13225388526917	pulse	1	t		43.0	2.5	/experiments/AOT/AOT_stimuli/rescaled_final/2036_fw.mp4	0.0	236.899582862854	
45	217.64891695976257	fix_post	2		12	43.0	2.5	/experiments/AOT/AOT_stimuli/rescaled_final/2036_fw.mp4	0.0	237.4162459373474	0.09991002082824707
46	217.74882698059082	fix_pre	0		119	44.0	2.5	/experiments/AOT/AOT_stimuli/rescaled_final/0189_rv.mp4	0.0	237.51615595817566	0.9915969371795654
46	218.73228287696838	pulse	0	t		44.0	2.5	/experiments/AOT/AOT_stimuli/rescaled_final/0189_rv.mp4	0.0	238.49961185455322	
46	218.74042391777039	movie	1		245	44.0	2.5	/experiments/AOT/AOT_stimuli/rescaled_final/0189_rv.mp4	0.0	238.50775289535522	2.5083279609680176
46	220.33186888694763	pulse	1	t		44.0	2.5	/experiments/AOT/AOT_stimuli/rescaled_final/0189_rv.mp4	0.0	240.09919786453247	
46	221.2487518787384	fix_post	2		12	44.0	2.5	/experiments/AOT/AOT_stimuli/rescaled_final/0189_rv.mp4	0.0	241.01608085632324	0.100189208984375
47	221.34894108772278	fix_pre	0		120	45.0	2.5	/experiments/AOT/AOT_stimuli/rescaled_final/0558_fw.mp4	0.0	241.11627006530762	0.9998259544372559
47	221.93221998214722	pulse	0	t		45.0	2.5	/experiments/AOT/AOT_stimuli/rescaled_final/0558_fw.mp4	0.0	241.69954895973206	
47	222.34876704216003	movie	1		245	45.0	2.5	/experiments/AOT/AOT_stimuli/rescaled_final/0558_fw.mp4	0.0	242.11609601974487	2.5000500679016113
47	223.5323040485382	pulse	1	t		45.0	2.5	/experiments/AOT/AOT_stimuli/rescaled_final/0558_fw.mp4	0.0	243.29963302612305	
47	224.84881711006165	fix_post	2		12	45.0	2.5	/experiments/AOT/AOT_stimuli/rescaled_final/0558_fw.mp4	0.0	244.61614608764648	0.09991693496704102
48	224.9487340450287	fix_pre	0		120	46.0	2.5	/experiments/AOT/AOT_stimuli/rescaled_final/0383_rv.mp4	0.0	244.71606302261353	1.0000019073486328
48	225.13223505020142	pulse	0	t		46.0	2.5	/experiments/AOT/AOT_stimuli/rescaled_final/0383_rv.mp4	0.0	244.89956402778625	
48	225.94873595237732	movie	1		244	46.0	2.5	/experiments/AOT/AOT_stimuli/rescaled_final/0383_rv.mp4	0.0	245.71606492996216	2.500005006790161
48	226.7322061061859	pulse	1	t		46.0	2.5	/experiments/AOT/AOT_stimuli/rescaled_final/0383_rv.mp4	0.0	246.49953508377075	
48	228.3307490348816	pulse	1	t		46.0	2.5	/experiments/AOT/AOT_stimuli/rescaled_final/0383_rv.mp4	0.0	248.09807801246643	
48	228.44874095916748	fix_post	2		12	46.0	2.5	/experiments/AOT/AOT_stimuli/rescaled_final/0383_rv.mp4	0.0	248.21606993675232	0.09996509552001953
49	228.5487060546875	fix_pre	0		120	47.0	2.5	/experiments/AOT/AOT_stimuli/rescaled_final/0248_fw.mp4	0.0	248.31603503227234	1.0000009536743164
49	229.54870700836182	movie	1		243	47.0	2.5	/experiments/AOT/AOT_stimuli/rescaled_final/0248_fw.mp4	0.0	249.31603598594666	2.500020980834961
49	229.93179893493652	pulse	1	t		47.0	2.5	/experiments/AOT/AOT_stimuli/rescaled_final/0248_fw.mp4	0.0	249.69912791252136	
49	231.5322790145874	pulse	1	t		47.0	2.5	/experiments/AOT/AOT_stimuli/rescaled_final/0248_fw.mp4	0.0	251.29960799217224	
49	232.04872798919678	fix_post	2		12	47.0	2.5	/experiments/AOT/AOT_stimuli/rescaled_final/0248_fw.mp4	0.0	251.81605696678162	0.0999150276184082
50	232.14864301681519	fix_pre	0		119	48.0	2.5	/experiments/AOT/AOT_stimuli/rescaled_final/2008_rv.mp4	0.0	251.91597199440002	0.9917058944702148
50	233.13217902183533	pulse	0	t		48.0	2.5	/experiments/AOT/AOT_stimuli/rescaled_final/2008_rv.mp4	0.0	252.89950799942017	
50	233.1403489112854	movie	1		245	48.0	2.5	/experiments/AOT/AOT_stimuli/rescaled_final/2008_rv.mp4	0.0	252.90767788887024	2.508270025253296
50	234.73203110694885	pulse	1	t		48.0	2.5	/experiments/AOT/AOT_stimuli/rescaled_final/2008_rv.mp4	0.0	254.4993600845337	
50	235.6486189365387	fix_post	2		12	48.0	2.5	/experiments/AOT/AOT_stimuli/rescaled_final/2008_rv.mp4	0.0	255.41594791412354	0.10011696815490723
51	235.7487359046936	fix_pre	0		120	49.0	2.5	blank	1.0	255.51606488227844	0.999932050704956
51	236.33225202560425	pulse	0	t		49.0	2.5	blank	1.0	256.0995810031891	
51	236.74866795539856	movie	1		300	49.0	2.5	blank	1.0	256.5159969329834	2.5000500679016113
51	237.93220210075378	pulse	1	t		49.0	2.5	blank	1.0	257.6995310783386	
51	239.24871802330017	fix_post	2		12	49.0	2.5	blank	1.0	259.016047000885	0.09992194175720215
52	239.34863996505737	fix_pre	0		120	50.0	2.5	/experiments/AOT/AOT_stimuli/rescaled_final/0733_rv.mp4	0.0	259.1159689426422	1.0000519752502441
52	239.53216004371643	pulse	0	t		50.0	2.5	/experiments/AOT/AOT_stimuli/rescaled_final/0733_rv.mp4	0.0	259.29948902130127	
52	240.34869194030762	movie	1		246	50.0	2.5	/experiments/AOT/AOT_stimuli/rescaled_final/0733_rv.mp4	0.0	260.11602091789246	2.499972105026245
52	241.13217091560364	pulse	1	t		50.0	2.5	/experiments/AOT/AOT_stimuli/rescaled_final/0733_rv.mp4	0.0	260.8994998931885	
52	242.73213696479797	pulse	1	t		50.0	2.5	/experiments/AOT/AOT_stimuli/rescaled_final/0733_rv.mp4	0.0	262.4994659423828	
52	242.84866404533386	fix_post	2		12	50.0	2.5	/experiments/AOT/AOT_stimuli/rescaled_final/0733_rv.mp4	0.0	262.6159930229187	0.10001897811889648
53	242.94868302345276	fix_pre	0		120	51.0	2.5	/experiments/AOT/AOT_stimuli/rescaled_final/1832_fw.mp4	0.0	262.7160120010376	1.0000309944152832
53	243.94871401786804	movie	1		246	51.0	2.5	/experiments/AOT/AOT_stimuli/rescaled_final/1832_fw.mp4	0.0	263.7160429954529	2.4995410442352295
53	244.33293199539185	pulse	1	t		51.0	2.5	/experiments/AOT/AOT_stimuli/rescaled_final/1832_fw.mp4	0.0	264.1002609729767	
53	245.9321849346161	pulse	1	t		51.0	2.5	/experiments/AOT/AOT_stimuli/rescaled_final/1832_fw.mp4	0.0	265.6995139122009	
53	246.44825506210327	fix_post	2		12	51.0	2.5	/experiments/AOT/AOT_stimuli/rescaled_final/1832_fw.mp4	0.0	266.2155840396881	0.10035085678100586
54	246.54860591888428	fix_pre	0		119	52.0	2.5	/experiments/AOT/AOT_stimuli/rescaled_final/1044_rv.mp4	0.0	266.3159348964691	0.9914140701293945
54	247.53189301490784	pulse	0	t		52.0	2.5	/experiments/AOT/AOT_stimuli/rescaled_final/1044_rv.mp4	0.0	267.2992219924927	
54	247.54001998901367	movie	1		245	52.0	2.5	/experiments/AOT/AOT_stimuli/rescaled_final/1044_rv.mp4	0.0	267.3073489665985	2.508635997772217
54	249.1314880847931	pulse	1	t		52.0	2.5	/experiments/AOT/AOT_stimuli/rescaled_final/1044_rv.mp4	0.0	268.89881706237793	
54	250.0486559867859	fix_post	2		12	52.0	2.5	/experiments/AOT/AOT_stimuli/rescaled_final/1044_rv.mp4	0.0	269.8159849643707	0.09957003593444824
55	250.14822602272034	fix_pre	0		120	53.0	2.5	/experiments/AOT/AOT_stimuli/rescaled_final/0388_rv.mp4	0.0	269.9155550003052	1.0004220008850098
55	250.7321970462799	pulse	0	t		53.0	2.5	/experiments/AOT/AOT_stimuli/rescaled_final/0388_rv.mp4	0.0	270.49952602386475	
55	251.14864802360535	movie	1		244	53.0	2.5	/experiments/AOT/AOT_stimuli/rescaled_final/0388_rv.mp4	0.0	270.9159770011902	2.4995460510253906
55	252.33217310905457	pulse	1	t		53.0	2.5	/experiments/AOT/AOT_stimuli/rescaled_final/0388_rv.mp4	0.0	272.0995020866394	
55	253.64819407463074	fix_post	2		12	53.0	2.5	/experiments/AOT/AOT_stimuli/rescaled_final/0388_rv.mp4	0.0	273.4155230522156	0.10044193267822266
56	253.74863600730896	fix_pre	0		120	54.0	2.5	/experiments/AOT/AOT_stimuli/rescaled_final/1727_fw.mp4	0.0	273.5159649848938	0.9999599456787109
56	253.93204593658447	pulse	0	t		54.0	2.5	/experiments/AOT/AOT_stimuli/rescaled_final/1727_fw.mp4	0.0	273.6993749141693	
56	254.74859595298767	movie	1		244	54.0	2.5	/experiments/AOT/AOT_stimuli/rescaled_final/1727_fw.mp4	0.0	274.5159249305725	2.5000650882720947
56	255.53208208084106	pulse	1	t		54.0	2.5	/experiments/AOT/AOT_stimuli/rescaled_final/1727_fw.mp4	0.0	275.2994110584259	
56	257.1303389072418	pulse	1	t		54.0	2.5	/experiments/AOT/AOT_stimuli/rescaled_final/1727_fw.mp4	0.0	276.89766788482666	
56	257.24866104125977	fix_post	2		12	54.0	2.5	/experiments/AOT/AOT_stimuli/rescaled_final/1727_fw.mp4	0.0	277.0159900188446	0.09992384910583496
57	257.3485848903656	fix_pre	0		120	55.0	2.5	blank	1.0	277.11591386795044	0.9999830722808838
57	258.3485679626465	movie	1		300	55.0	2.5	blank	1.0	278.1158969402313	2.499998092651367
57	258.7320749759674	pulse	1	t		55.0	2.5	blank	1.0	278.49940395355225	
57	260.33207607269287	pulse	1	t		55.0	2.5	blank	1.0	280.0994050502777	
57	260.84856605529785	fix_post	2		12	55.0	2.5	blank	1.0	280.6158950328827	0.09997892379760742
58	260.94854497909546	fix_pre	0		119	56.0	2.5	/experiments/AOT/AOT_stimuli/rescaled_final/0142_rv.mp4	0.0	280.7158739566803	0.9917290210723877
58	261.93206810951233	pulse	0	t		56.0	2.5	/experiments/AOT/AOT_stimuli/rescaled_final/0142_rv.mp4	0.0	281.69939708709717	
58	261.94027400016785	movie	1		247	56.0	2.5	/experiments/AOT/AOT_stimuli/rescaled_final/0142_rv.mp4	0.0	281.7076029777527	2.5083019733428955
58	263.5316960811615	pulse	1	t		56.0	2.5	/experiments/AOT/AOT_stimuli/rescaled_final/0142_rv.mp4	0.0	283.29902505874634	
58	264.44857597351074	fix_post	2		12	56.0	2.5	/experiments/AOT/AOT_stimuli/rescaled_final/0142_rv.mp4	0.0	284.2159049510956	0.09990811347961426
59	264.54848408699036	fix_pre	0		120	57.0	2.5	/experiments/AOT/AOT_stimuli/rescaled_final/1408_rv.mp4	0.0	284.3158130645752	1.0000848770141602
59	265.1320378780365	pulse	0	t		57.0	2.5	/experiments/AOT/AOT_stimuli/rescaled_final/1408_rv.mp4	0.0	284.89936685562134	
59	265.5485689640045	movie	1		244	57.0	2.5	/experiments/AOT/AOT_stimuli/rescaled_final/1408_rv.mp4	0.0	285.31589794158936	2.4998879432678223
59	266.7320890426636	pulse	1	t		57.0	2.5	/experiments/AOT/AOT_stimuli/rescaled_final/1408_rv.mp4	0.0	286.4994180202484	
59	268.04845690727234	fix_post	2		12	57.0	2.5	/experiments/AOT/AOT_stimuli/rescaled_final/1408_rv.mp4	0.0	287.8157858848572	0.10007810592651367
60	268.14853501319885	fix_pre	0		120	58.0	2.5	/experiments/AOT/AOT_stimuli/rescaled_final/0802_fw.mp4	0.0	287.9158639907837	1.0000689029693604
60	268.3320860862732	pulse	0	t		58.0	2.5	/experiments/AOT/AOT_stimuli/rescaled_final/0802_fw.mp4	0.0	288.09941506385803	
60	269.1486039161682	movie	1		244	58.0	2.5	/experiments/AOT/AOT_stimuli/rescaled_final/0802_fw.mp4	0.0	288.91593289375305	2.4995181560516357
60	269.9320430755615	pulse	1	t		58.0	2.5	/experiments/AOT/AOT_stimuli/rescaled_final/0802_fw.mp4	0.0	289.69937205314636	
60	271.53067088127136	pulse	1	t		58.0	2.5	/experiments/AOT/AOT_stimuli/rescaled_final/0802_fw.mp4	0.0	291.2979998588562	
60	271.64812207221985	fix_post	2		12	58.0	2.5	/experiments/AOT/AOT_stimuli/rescaled_final/0802_fw.mp4	0.0	291.4154510498047	0.09995388984680176
61	271.74807596206665	fix_pre	0		120	59.0	2.5	/experiments/AOT/AOT_stimuli/rescaled_final/1336_fw.mp4	0.0	291.5154049396515	1.0004501342773438
61	272.748526096344	movie	1		244	59.0	2.5	/experiments/AOT/AOT_stimuli/rescaled_final/1336_fw.mp4	0.0	292.51585507392883	2.4999938011169434
61	273.1322329044342	pulse	1	t		59.0	2.5	/experiments/AOT/AOT_stimuli/rescaled_final/1336_fw.mp4	0.0	292.89956188201904	
61	274.73203802108765	pulse	1	t		59.0	2.5	/experiments/AOT/AOT_stimuli/rescaled_final/1336_fw.mp4	0.0	294.4993669986725	
61	275.24851989746094	fix_post	2		12	59.0	2.5	/experiments/AOT/AOT_stimuli/rescaled_final/1336_fw.mp4	0.0	295.0158488750458	0.09997105598449707
62	275.34849095344543	fix_pre	0		119	60.0	2.5	/experiments/AOT/AOT_stimuli/rescaled_final/1262_fw.mp4	0.0	295.1158199310303	0.9916839599609375
62	276.3318989276886	pulse	0	t		60.0	2.5	/experiments/AOT/AOT_stimuli/rescaled_final/1262_fw.mp4	0.0	296.09922790527344	
62	276.3401749134064	movie	1		245	60.0	2.5	/experiments/AOT/AOT_stimuli/rescaled_final/1262_fw.mp4	0.0	296.1075038909912	2.5083820819854736
62	277.93154096603394	pulse	1	t		60.0	2.5	/experiments/AOT/AOT_stimuli/rescaled_final/1262_fw.mp4	0.0	297.6988699436188	
62	278.84855699539185	fix_post	2		12	60.0	2.5	/experiments/AOT/AOT_stimuli/rescaled_final/1262_fw.mp4	0.0	298.6158859729767	0.09998488426208496
63	278.94854187965393	fix_pre	0		120	61.0	2.5	blank	1.0	298.71587085723877	1.0000131130218506
63	279.531996011734	pulse	0	t		61.0	2.5	blank	1.0	299.29932498931885	
63	279.9485549926758	movie	1		300	61.0	2.5	blank	1.0	299.7158839702606	2.4999380111694336
63	281.13214588165283	pulse	1	t		61.0	2.5	blank	1.0	300.89947485923767	
63	282.4484930038452	fix_post	2		12	61.0	2.5	blank	1.0	302.21582198143005	0.09995698928833008
64	282.54844999313354	fix_pre	0		120	62.0	2.5	/experiments/AOT/AOT_stimuli/rescaled_final/0443_fw.mp4	0.0	302.3157789707184	1.0000240802764893
64	282.73189401626587	pulse	0	t		62.0	2.5	/experiments/AOT/AOT_stimuli/rescaled_final/0443_fw.mp4	0.0	302.4992229938507	
64	283.54847407341003	movie	1		247	62.0	2.5	/experiments/AOT/AOT_stimuli/rescaled_final/0443_fw.mp4	0.0	303.3158030509949	2.50002384185791
64	284.33194398880005	pulse	1	t		62.0	2.5	/experiments/AOT/AOT_stimuli/rescaled_final/0443_fw.mp4	0.0	304.0992729663849	
64	285.93202805519104	pulse	1	t		62.0	2.5	/experiments/AOT/AOT_stimuli/rescaled_final/0443_fw.mp4	0.0	305.6993570327759	
64	286.04849791526794	fix_post	2		12	62.0	2.5	/experiments/AOT/AOT_stimuli/rescaled_final/0443_fw.mp4	0.0	305.8158268928528	0.09998703002929688
65	286.14848494529724	fix_pre	0		120	63.0	2.5	/experiments/AOT/AOT_stimuli/rescaled_final/1775_fw.mp4	0.0	305.9158139228821	1.0000040531158447
65	287.1484889984131	movie	1		244	63.0	2.5	/experiments/AOT/AOT_stimuli/rescaled_final/1775_fw.mp4	0.0	306.9158179759979	2.499969959259033
65	287.53207302093506	pulse	1	t		63.0	2.5	/experiments/AOT/AOT_stimuli/rescaled_final/1775_fw.mp4	0.0	307.2994019985199	
65	289.13188910484314	pulse	1	t		63.0	2.5	/experiments/AOT/AOT_stimuli/rescaled_final/1775_fw.mp4	0.0	308.899218082428	
65	289.6484589576721	fix_post	2		12	63.0	2.5	/experiments/AOT/AOT_stimuli/rescaled_final/1775_fw.mp4	0.0	309.41578793525696	0.10001301765441895
66	289.74847197532654	fix_pre	0		119	64.0	2.5	/experiments/AOT/AOT_stimuli/rescaled_final/0387_fw.mp4	0.0	309.5158009529114	0.9915590286254883
66	290.73197388648987	pulse	0	t		64.0	2.5	/experiments/AOT/AOT_stimuli/rescaled_final/0387_fw.mp4	0.0	310.4993028640747	
66	290.740031003952	movie	1		245	64.0	2.5	/experiments/AOT/AOT_stimuli/rescaled_final/0387_fw.mp4	0.0	310.50735998153687	2.508610963821411
66	292.3314309120178	pulse	1	t		64.0	2.5	/experiments/AOT/AOT_stimuli/rescaled_final/0387_fw.mp4	0.0	312.09875988960266	
66	293.24864196777344	fix_post	2		12	64.0	2.5	/experiments/AOT/AOT_stimuli/rescaled_final/0387_fw.mp4	0.0	313.0159709453583	0.09981298446655273
67	293.34845495224	fix_pre	0		120	65.0	2.5	/experiments/AOT/AOT_stimuli/rescaled_final/0903_fw.mp4	0.0	313.11578392982483	0.9999639987945557
67	293.93188190460205	pulse	0	t		65.0	2.5	/experiments/AOT/AOT_stimuli/rescaled_final/0903_fw.mp4	0.0	313.6992108821869	
67	294.34841895103455	movie	1		245	65.0	2.5	/experiments/AOT/AOT_stimuli/rescaled_final/0903_fw.mp4	0.0	314.1157479286194	2.4999470710754395
67	295.5319650173187	pulse	1	t		65.0	2.5	/experiments/AOT/AOT_stimuli/rescaled_final/0903_fw.mp4	0.0	315.29929399490356	
67	296.84836602211	fix_post	2		12	65.0	2.5	/experiments/AOT/AOT_stimuli/rescaled_final/0903_fw.mp4	0.0	316.6156949996948	0.1000669002532959
68	296.9484329223633	fix_pre	0		120	66.0	2.5	/experiments/AOT/AOT_stimuli/rescaled_final/1022_rv.mp4	0.0	316.7157618999481	0.9999690055847168
68	297.13189697265625	pulse	0	t		66.0	2.5	/experiments/AOT/AOT_stimuli/rescaled_final/1022_rv.mp4	0.0	316.8992259502411	
68	297.948401927948	movie	1		244	66.0	2.5	/experiments/AOT/AOT_stimuli/rescaled_final/1022_rv.mp4	0.0	317.71573090553284	2.5000340938568115
68	298.7318570613861	pulse	1	t		66.0	2.5	/experiments/AOT/AOT_stimuli/rescaled_final/1022_rv.mp4	0.0	318.49918603897095	
68	300.3304920196533	pulse	1	t		66.0	2.5	/experiments/AOT/AOT_stimuli/rescaled_final/1022_rv.mp4	0.0	320.09782099723816	
68	300.4484360218048	fix_post	2		12	66.0	2.5	/experiments/AOT/AOT_stimuli/rescaled_final/1022_rv.mp4	0.0	320.21576499938965	0.1000368595123291
69	300.54847288131714	fix_pre	0		120	67.0	2.5	/experiments/AOT/AOT_stimuli/rescaled_final/0416_rv.mp4	0.0	320.315801858902	1.0000381469726562
69	301.5485110282898	movie	1		246	67.0	2.5	/experiments/AOT/AOT_stimuli/rescaled_final/0416_rv.mp4	0.0	321.31584000587463	2.5000178813934326
69	301.9309470653534	pulse	1	t		67.0	2.5	/experiments/AOT/AOT_stimuli/rescaled_final/0416_rv.mp4	0.0	321.69827604293823	
69	303.532026052475	pulse	1	t		67.0	2.5	/experiments/AOT/AOT_stimuli/rescaled_final/0416_rv.mp4	0.0	323.2993550300598	
69	304.0485289096832	fix_post	2		12	67.0	2.5	/experiments/AOT/AOT_stimuli/rescaled_final/0416_rv.mp4	0.0	323.81585788726807	0.09962010383605957
70	304.1481490135193	fix_pre	0		119	68.0	2.5	blank	1.0	323.9154779911041	0.9919219017028809
70	305.13180208206177	pulse	0	t		68.0	2.5	blank	1.0	324.8991310596466	
70	305.14007091522217	movie	1		301	68.0	2.5	blank	1.0	324.907399892807	2.508368968963623
70	306.73188400268555	pulse	1	t		68.0	2.5	blank	1.0	326.4992129802704	
70	307.6484398841858	fix_post	2		12	68.0	2.5	blank	1.0	327.41576886177063	0.09992313385009766
71	307.7483630180359	fix_pre	0		120	69.0	2.5	/experiments/AOT/AOT_stimuli/rescaled_final/1065_rv.mp4	0.0	327.5156919956207	0.9999699592590332
71	308.3318409919739	pulse	0	t		69.0	2.5	/experiments/AOT/AOT_stimuli/rescaled_final/1065_rv.mp4	0.0	328.0991699695587	
71	308.7483329772949	movie	1		246	69.0	2.5	/experiments/AOT/AOT_stimuli/rescaled_final/1065_rv.mp4	0.0	328.51566195487976	2.499962091445923
71	309.9319050312042	pulse	1	t		69.0	2.5	/experiments/AOT/AOT_stimuli/rescaled_final/1065_rv.mp4	0.0	329.69923400878906	
71	311.24829506874084	fix_post	2		12	69.0	2.5	/experiments/AOT/AOT_stimuli/rescaled_final/1065_rv.mp4	0.0	331.0156240463257	0.09995198249816895
72	311.348247051239	fix_pre	0		120	70.0	2.5	/experiments/AOT/AOT_stimuli/rescaled_final/2030_fw.mp4	0.0	331.11557602882385	1.0000739097595215
72	311.5318269729614	pulse	0	t		70.0	2.5	/experiments/AOT/AOT_stimuli/rescaled_final/2030_fw.mp4	0.0	331.29915595054626	
72	312.34832096099854	movie	1		244	70.0	2.5	/experiments/AOT/AOT_stimuli/rescaled_final/2030_fw.mp4	0.0	332.1156499385834	2.4999239444732666
72	313.1317720413208	pulse	1	t		70.0	2.5	/experiments/AOT/AOT_stimuli/rescaled_final/2030_fw.mp4	0.0	332.89910101890564	
72	314.7302370071411	pulse	1	t		70.0	2.5	/experiments/AOT/AOT_stimuli/rescaled_final/2030_fw.mp4	0.0	334.49756598472595	
72	314.8482449054718	fix_post	2		12	70.0	2.5	/experiments/AOT/AOT_stimuli/rescaled_final/2030_fw.mp4	0.0	334.61557388305664	0.09999608993530273
73	314.9482409954071	fix_pre	0		120	71.0	2.5	/experiments/AOT/AOT_stimuli/rescaled_final/0686_rv.mp4	0.0	334.71556997299194	0.9999699592590332
73	315.94821095466614	movie	1		244	71.0	2.5	/experiments/AOT/AOT_stimuli/rescaled_final/0686_rv.mp4	0.0	335.715539932251	2.500098943710327
73	316.3322129249573	pulse	1	t		71.0	2.5	/experiments/AOT/AOT_stimuli/rescaled_final/0686_rv.mp4	0.0	336.0995419025421	
73	317.9317500591278	pulse	1	t		71.0	2.5	/experiments/AOT/AOT_stimuli/rescaled_final/0686_rv.mp4	0.0	337.69907903671265	
73	318.44830989837646	fix_post	2		12	71.0	2.5	/experiments/AOT/AOT_stimuli/rescaled_final/0686_rv.mp4	0.0	338.2156388759613	0.09998512268066406
74	318.54829502105713	fix_pre	0		119	72.0	2.5	/experiments/AOT/AOT_stimuli/rescaled_final/0343_fw.mp4	0.0	338.31562399864197	0.9916369915008545
74	319.53193402290344	pulse	0	t		72.0	2.5	/experiments/AOT/AOT_stimuli/rescaled_final/0343_fw.mp4	0.0	339.2992630004883	
74	319.539932012558	movie	1		244	72.0	2.5	/experiments/AOT/AOT_stimuli/rescaled_final/0343_fw.mp4	0.0	339.3072609901428	2.5079219341278076
74	321.1330599784851	pulse	1	t		72.0	2.5	/experiments/AOT/AOT_stimuli/rescaled_final/0343_fw.mp4	0.0	340.90038895606995	
74	322.0478539466858	fix_post	2		12	72.0	2.5	/experiments/AOT/AOT_stimuli/rescaled_final/0343_fw.mp4	0.0	341.81518292427063	0.10034394264221191
75	322.148197889328	fix_pre	0		120	73.0	2.5	/experiments/AOT/AOT_stimuli/rescaled_final/0396_fw.mp4	0.0	341.91552686691284	1.0000619888305664
75	322.7317988872528	pulse	0	t		73.0	2.5	/experiments/AOT/AOT_stimuli/rescaled_final/0396_fw.mp4	0.0	342.49912786483765	
75	323.14825987815857	movie	1		248	73.0	2.5	/experiments/AOT/AOT_stimuli/rescaled_final/0396_fw.mp4	0.0	342.9155888557434	2.4999639987945557
75	324.33175110816956	pulse	1	t		73.0	2.5	/experiments/AOT/AOT_stimuli/rescaled_final/0396_fw.mp4	0.0	344.0990800857544	
75	325.6482238769531	fix_post	2		12	73.0	2.5	/experiments/AOT/AOT_stimuli/rescaled_final/0396_fw.mp4	0.0	345.41555285453796	0.10000300407409668
76	325.7482268810272	fix_pre	0		120	74.0	2.5	/experiments/AOT/AOT_stimuli/rescaled_final/0329_rv.mp4	0.0	345.51555585861206	0.999953031539917
76	325.93176007270813	pulse	0	t		74.0	2.5	/experiments/AOT/AOT_stimuli/rescaled_final/0329_rv.mp4	0.0	345.69908905029297	
76	326.74817991256714	movie	1		244	74.0	2.5	/experiments/AOT/AOT_stimuli/rescaled_final/0329_rv.mp4	0.0	346.515508890152	2.5000381469726562
76	327.53170704841614	pulse	1	t		74.0	2.5	/experiments/AOT/AOT_stimuli/rescaled_final/0329_rv.mp4	0.0	347.299036026001	
76	329.13015508651733	pulse	1	t		74.0	2.5	/experiments/AOT/AOT_stimuli/rescaled_final/0329_rv.mp4	0.0	348.8974840641022	
76	329.2482180595398	fix_post	2		12	74.0	2.5	/experiments/AOT/AOT_stimuli/rescaled_final/0329_rv.mp4	0.0	349.01554703712463	0.09993696212768555
77	329.3481550216675	fix_pre	0		120	75.0	2.5	blank	1.0	349.1154839992523	1.0001089572906494
77	330.34826397895813	movie	1		300	75.0	2.5	blank	1.0	350.11559295654297	2.499959945678711
77	330.7317008972168	pulse	1	t		75.0	2.5	blank	1.0	350.49902987480164	
77	332.3318440914154	pulse	1	t		75.0	2.5	blank	1.0	352.09917306900024	
77	332.84822392463684	fix_post	2		12	75.0	2.5	blank	1.0	352.6155529022217	0.10002708435058594
78	332.9482510089874	fix_pre	0		119	76.0	2.5	/experiments/AOT/AOT_stimuli/rescaled_final/1262_fw.mp4	0.0	352.71557998657227	0.9915790557861328
78	333.93180108070374	pulse	0	t		76.0	2.5	/experiments/AOT/AOT_stimuli/rescaled_final/1262_fw.mp4	0.0	353.6991300582886	
78	333.93983006477356	movie	1		245	76.0	2.5	/experiments/AOT/AOT_stimuli/rescaled_final/1262_fw.mp4	0.0	353.7071590423584	2.508388042449951
78	335.53152990341187	pulse	1	t		76.0	2.5	/experiments/AOT/AOT_stimuli/rescaled_final/1262_fw.mp4	0.0	355.2988588809967	
78	336.4482181072235	fix_post	2		12	76.0	2.5	/experiments/AOT/AOT_stimuli/rescaled_final/1262_fw.mp4	0.0	356.21554708480835	0.09998488426208496
79	336.5482029914856	fix_pre	0		120	77.0	2.5	/experiments/AOT/AOT_stimuli/rescaled_final/1126_rv.mp4	0.0	356.31553196907043	1.0000240802764893
79	337.13176107406616	pulse	0	t		77.0	2.5	/experiments/AOT/AOT_stimuli/rescaled_final/1126_rv.mp4	0.0	356.899090051651	
79	337.5482270717621	movie	1		245	77.0	2.5	/experiments/AOT/AOT_stimuli/rescaled_final/1126_rv.mp4	0.0	357.3155560493469	2.50003981590271
79	338.7317490577698	pulse	1	t		77.0	2.5	/experiments/AOT/AOT_stimuli/rescaled_final/1126_rv.mp4	0.0	358.4990780353546	
79	340.0482668876648	fix_post	2		12	77.0	2.5	/experiments/AOT/AOT_stimuli/rescaled_final/1126_rv.mp4	0.0	359.81559586524963	0.09988117218017578
80	340.14814805984497	fix_pre	0		120	78.0	2.5	/experiments/AOT/AOT_stimuli/rescaled_final/1137_fw.mp4	0.0	359.9154770374298	1.0000560283660889
80	340.3316259384155	pulse	0	t		78.0	2.5	/experiments/AOT/AOT_stimuli/rescaled_final/1137_fw.mp4	0.0	360.09895491600037	
80	341.14820408821106	movie	1		244	78.0	2.5	/experiments/AOT/AOT_stimuli/rescaled_final/1137_fw.mp4	0.0	360.9155330657959	2.5
80	341.9316461086273	pulse	1	t		78.0	2.5	/experiments/AOT/AOT_stimuli/rescaled_final/1137_fw.mp4	0.0	361.69897508621216	
80	343.53010988235474	pulse	1	t		78.0	2.5	/experiments/AOT/AOT_stimuli/rescaled_final/1137_fw.mp4	0.0	363.2974388599396	
80	343.64820408821106	fix_post	2		12	78.0	2.5	/experiments/AOT/AOT_stimuli/rescaled_final/1137_fw.mp4	0.0	363.4155330657959	0.09998798370361328
81	343.7481920719147	fix_pre	0		120	79.0	2.5	/experiments/AOT/AOT_stimuli/rescaled_final/1343_fw.mp4	0.0	363.5155210494995	0.9995808601379395
81	344.7477729320526	movie	1		245	79.0	2.5	/experiments/AOT/AOT_stimuli/rescaled_final/1343_fw.mp4	0.0	364.51510190963745	2.5
81	345.1312909126282	pulse	1	t		79.0	2.5	/experiments/AOT/AOT_stimuli/rescaled_final/1343_fw.mp4	0.0	364.898619890213	
81	346.7316598892212	pulse	1	t		79.0	2.5	/experiments/AOT/AOT_stimuli/rescaled_final/1343_fw.mp4	0.0	366.49898886680603	
81	347.2477729320526	fix_post	2		12	79.0	2.5	/experiments/AOT/AOT_stimuli/rescaled_final/1343_fw.mp4	0.0	367.01510190963745	0.10036206245422363
82	347.34813499450684	fix_pre	0		119	80.0	2.5	/experiments/AOT/AOT_stimuli/rescaled_final/0329_fw.mp4	0.0	367.1154639720917	0.9916760921478271
82	348.33165287971497	pulse	0	t		80.0	2.5	/experiments/AOT/AOT_stimuli/rescaled_final/0329_fw.mp4	0.0	368.0989818572998	
82	348.33981108665466	movie	1		244	80.0	2.5	/experiments/AOT/AOT_stimuli/rescaled_final/0329_fw.mp4	0.0	368.1071400642395	2.5083818435668945
82	349.9326550960541	pulse	1	t		80.0	2.5	/experiments/AOT/AOT_stimuli/rescaled_final/0329_fw.mp4	0.0	369.6999840736389	
82	350.84819293022156	fix_post	2		12	80.0	2.5	/experiments/AOT/AOT_stimuli/rescaled_final/0329_fw.mp4	0.0	370.6155219078064	0.09992218017578125
83	350.94811511039734	fix_pre	0		120	81.0	2.5	/experiments/AOT/AOT_stimuli/rescaled_final/0301_rv.mp4	0.0	370.7154440879822	1.0000429153442383
83	351.5316250324249	pulse	0	t		81.0	2.5	/experiments/AOT/AOT_stimuli/rescaled_final/0301_rv.mp4	0.0	371.29895401000977	
83	351.9481580257416	movie	1		243	81.0	2.5	/experiments/AOT/AOT_stimuli/rescaled_final/0301_rv.mp4	0.0	371.7154870033264	2.499929904937744
83	353.1316180229187	pulse	1	t		81.0	2.5	/experiments/AOT/AOT_stimuli/rescaled_final/0301_rv.mp4	0.0	372.89894700050354	
83	354.4480879306793	fix_post	2		12	81.0	2.5	/experiments/AOT/AOT_stimuli/rescaled_final/0301_rv.mp4	0.0	374.21541690826416	0.10015106201171875
84	354.54823899269104	fix_pre	0		120	82.0	2.5	/experiments/AOT/AOT_stimuli/rescaled_final/0538_rv.mp4	0.0	374.3155679702759	0.9999101161956787
84	354.7316360473633	pulse	0	t		82.0	2.5	/experiments/AOT/AOT_stimuli/rescaled_final/0538_rv.mp4	0.0	374.4989650249481	
84	355.5481491088867	movie	1		247	82.0	2.5	/experiments/AOT/AOT_stimuli/rescaled_final/0538_rv.mp4	0.0	375.31547808647156	2.4995689392089844
84	356.33147287368774	pulse	1	t		82.0	2.5	/experiments/AOT/AOT_stimuli/rescaled_final/0538_rv.mp4	0.0	376.0988018512726	
84	357.9296040534973	pulse	1	t		82.0	2.5	/experiments/AOT/AOT_stimuli/rescaled_final/0538_rv.mp4	0.0	377.69693303108215	
84	358.0477180480957	fix_post	2		12	82.0	2.5	/experiments/AOT/AOT_stimuli/rescaled_final/0538_rv.mp4	0.0	377.81504702568054	0.10002994537353516
85	358.14774799346924	fix_pre	0		120	83.0	2.5	blank	1.0	377.9150769710541	1.000411033630371
85	359.1481590270996	movie	1		300	83.0	2.5	blank	1.0	378.91548800468445	2.4999730587005615
85	359.5316779613495	pulse	1	t		83.0	2.5	blank	1.0	379.2990069389343	
85	361.1314959526062	pulse	1	t		83.0	2.5	blank	1.0	380.89882493019104	
85	361.64813208580017	fix_post	2		12	83.0	2.5	blank	1.0	381.415461063385	0.09994387626647949
87	361.74807596206665	stim	0		1716					381.5154049396515	14.299998998641968
87	362.73159193992615	pulse	0	t						382.498920917511	
87	364.33152198791504	pulse	0	t						384.0988509654999	
87	365.93162393569946	pulse	0	t						385.6989529132843	
87	367.53158807754517	pulse	0	t						387.29891705513	
87	369.13152503967285	pulse	0	t						388.8988540172577	
87	370.73148703575134	pulse	0	t						390.4988160133362	
87	372.3315050601959	pulse	0	t						392.09883403778076	
87	373.93133902549744	pulse	0	t						393.6986680030823	
87	375.53140807151794	pulse	0	t						395.2987370491028	
