trial_nr	onset	event_type	phase	response	nr_frames	movie_index	movie_duration	movie_file	blank	onset_abs	duration
0	0.1413571834564209	stim	0		6					16.58764362335205	0.04988241195678711
0	0.18323254585266113	response	0	space						16.62951898574829	
1	0.191239595413208	stim	0		4715					16.637526035308838	39.30851984024048
1	39.49029302597046	pulse	0	t						55.93657946586609	
1	39.49975943565369	stim	1		1715					55.946045875549316	14.308029413223267
1	41.081053256988525	pulse	1	t						57.527339696884155	
1	42.68120884895325	pulse	1	t						59.12749528884888	
1	44.28140592575073	pulse	1	t						60.72769236564636	
1	45.881688594818115	pulse	1	t						62.327975034713745	
1	47.48194122314453	pulse	1	t						63.92822766304016	
1	49.08222055435181	pulse	1	t						65.52850699424744	
1	50.682432889938354	pulse	1	t						67.12871932983398	
1	52.28257703781128	pulse	1	t						68.72886347770691	
2	53.80778884887695	fix_pre	0		10	0.0	2.5	/experiments/Knapen_AOT/AOT_stimuli/rescaled_final/1237_fw.mp4	0.0	70.25407528877258	0.09996151924133301
2	53.882872104644775	pulse	0	t		0.0	2.5	/experiments/Knapen_AOT/AOT_stimuli/rescaled_final/1237_fw.mp4	0.0	70.3291585445404	
2	53.907750368118286	movie	1		280	0.0	2.5	/experiments/Knapen_AOT/AOT_stimuli/rescaled_final/1237_fw.mp4	0.0	70.35403680801392	2.4919514656066895
2	55.481706857681274	pulse	1	t		0.0	2.5	/experiments/Knapen_AOT/AOT_stimuli/rescaled_final/1237_fw.mp4	0.0	71.9279932975769	
2	56.399701833724976	fix_post	2		12	0.0	2.5	/experiments/Knapen_AOT/AOT_stimuli/rescaled_final/1237_fw.mp4	0.0	72.8459882736206	0.10001730918884277
3	56.49971914291382	fix_pre	0		120	1.0	2.5	/experiments/Knapen_AOT/AOT_stimuli/rescaled_final/0220_rv.mp4	0.0	72.94600558280945	1.0084953308105469
3	57.08338713645935	pulse	0	t		1.0	2.5	/experiments/Knapen_AOT/AOT_stimuli/rescaled_final/0220_rv.mp4	0.0	73.52967357635498	
3	57.508214473724365	movie	1		269	1.0	2.5	/experiments/Knapen_AOT/AOT_stimuli/rescaled_final/0220_rv.mp4	0.0	73.95450091362	2.4920594692230225
3	58.68155002593994	pulse	1	t		1.0	2.5	/experiments/Knapen_AOT/AOT_stimuli/rescaled_final/0220_rv.mp4	0.0	75.12783646583557	
3	60.00027394294739	fix_post	2		12	1.0	2.5	/experiments/Knapen_AOT/AOT_stimuli/rescaled_final/0220_rv.mp4	0.0	76.44656038284302	0.09998512268066406
4	60.10025906562805	fix_pre	0		120	2.0	2.5	/experiments/Knapen_AOT/AOT_stimuli/rescaled_final/2036_rv.mp4	0.0	76.54654550552368	1.0085978507995605
4	60.28398370742798	pulse	0	t		2.0	2.5	/experiments/Knapen_AOT/AOT_stimuli/rescaled_final/2036_rv.mp4	0.0	76.73027014732361	
4	61.10885691642761	movie	1		290	2.0	2.5	/experiments/Knapen_AOT/AOT_stimuli/rescaled_final/2036_rv.mp4	0.0	77.55514335632324	2.4919321537017822
4	61.88200068473816	pulse	1	t		2.0	2.5	/experiments/Knapen_AOT/AOT_stimuli/rescaled_final/2036_rv.mp4	0.0	78.32828712463379	
4	63.48240351676941	pulse	1	t		2.0	2.5	/experiments/Knapen_AOT/AOT_stimuli/rescaled_final/2036_rv.mp4	0.0	79.92868995666504	
4	63.600789070129395	fix_post	2		12	2.0	2.5	/experiments/Knapen_AOT/AOT_stimuli/rescaled_final/2036_rv.mp4	0.0	80.04707551002502	0.10005998611450195
5	63.7008490562439	fix_pre	0		120	3.0	2.5	/experiments/Knapen_AOT/AOT_stimuli/rescaled_final/1320_fw.mp4	0.0	80.14713549613953	1.0084474086761475
5	64.70929646492004	movie	1		287	3.0	2.5	/experiments/Knapen_AOT/AOT_stimuli/rescaled_final/1320_fw.mp4	0.0	81.15558290481567	2.4920337200164795
5	65.08278942108154	pulse	1	t		3.0	2.5	/experiments/Knapen_AOT/AOT_stimuli/rescaled_final/1320_fw.mp4	0.0	81.52907586097717	
5	66.68275594711304	pulse	1	t		3.0	2.5	/experiments/Knapen_AOT/AOT_stimuli/rescaled_final/1320_fw.mp4	0.0	83.12904238700867	
5	67.20133018493652	fix_post	2		12	3.0	2.5	/experiments/Knapen_AOT/AOT_stimuli/rescaled_final/1320_fw.mp4	0.0	83.64761662483215	0.1000058650970459
6	67.30133605003357	fix_pre	0		119	4.0	2.5	/experiments/Knapen_AOT/AOT_stimuli/rescaled_final/1142_rv.mp4	0.0	83.7476224899292	1.0002713203430176
6	68.28510308265686	pulse	0	t		4.0	2.5	/experiments/Knapen_AOT/AOT_stimuli/rescaled_final/1142_rv.mp4	0.0	84.73138952255249	
6	68.30160737037659	movie	1		275	4.0	2.5	/experiments/Knapen_AOT/AOT_stimuli/rescaled_final/1142_rv.mp4	0.0	84.74789381027222	2.5002639293670654
6	69.88426041603088	pulse	1	t		4.0	2.5	/experiments/Knapen_AOT/AOT_stimuli/rescaled_final/1142_rv.mp4	0.0	86.33054685592651	
6	70.80187129974365	fix_post	2		12	4.0	2.5	/experiments/Knapen_AOT/AOT_stimuli/rescaled_final/1142_rv.mp4	0.0	87.24815773963928	0.10001754760742188
7	70.90188884735107	fix_pre	0		120	5.0	2.5	blank	1.0	87.3481752872467	1.0001513957977295
7	71.48555612564087	pulse	0	t		5.0	2.5	blank	1.0	87.9318425655365	
7	71.9020402431488	movie	1		300	5.0	2.5	blank	1.0	88.34832668304443	2.500372886657715
7	73.08579206466675	pulse	1	t		5.0	2.5	blank	1.0	89.53207850456238	
7	74.40241312980652	fix_post	2		12	5.0	2.5	blank	1.0	90.84869956970215	0.10005307197570801
8	74.50246620178223	fix_pre	0		120	6.0	2.5	/experiments/Knapen_AOT/AOT_stimuli/rescaled_final/0703_fw.mp4	0.0	90.94875264167786	1.0084502696990967
8	74.68608570098877	pulse	0	t		6.0	2.5	/experiments/Knapen_AOT/AOT_stimuli/rescaled_final/0703_fw.mp4	0.0	91.1323721408844	
8	75.51091647148132	movie	1		295	6.0	2.5	/experiments/Knapen_AOT/AOT_stimuli/rescaled_final/0703_fw.mp4	0.0	91.95720291137695	2.492037057876587
8	76.28420519828796	pulse	1	t		6.0	2.5	/experiments/Knapen_AOT/AOT_stimuli/rescaled_final/0703_fw.mp4	0.0	92.7304916381836	
8	77.88446950912476	pulse	1	t		6.0	2.5	/experiments/Knapen_AOT/AOT_stimuli/rescaled_final/0703_fw.mp4	0.0	94.33075594902039	
8	78.00295352935791	fix_post	2		12	6.0	2.5	/experiments/Knapen_AOT/AOT_stimuli/rescaled_final/0703_fw.mp4	0.0	94.44923996925354	0.10007548332214355
9	78.10302901268005	fix_pre	0		120	7.0	2.5	/experiments/Knapen_AOT/AOT_stimuli/rescaled_final/1811_fw.mp4	0.0	94.54931545257568	1.0084211826324463
9	79.1114501953125	movie	1		280	7.0	2.5	/experiments/Knapen_AOT/AOT_stimuli/rescaled_final/1811_fw.mp4	0.0	95.55773663520813	2.4920449256896973
9	79.48693251609802	pulse	1	t		7.0	2.5	/experiments/Knapen_AOT/AOT_stimuli/rescaled_final/1811_fw.mp4	0.0	95.93321895599365	
9	81.08488178253174	pulse	1	t		7.0	2.5	/experiments/Knapen_AOT/AOT_stimuli/rescaled_final/1811_fw.mp4	0.0	97.53116822242737	
9	81.6034951210022	fix_post	2		12	7.0	2.5	/experiments/Knapen_AOT/AOT_stimuli/rescaled_final/1811_fw.mp4	0.0	98.04978156089783	0.10000729560852051
10	81.70350241661072	fix_pre	0		119	8.0	2.5	/experiments/Knapen_AOT/AOT_stimuli/rescaled_final/0795_rv.mp4	0.0	98.14978885650635	1.0001838207244873
10	82.67994546890259	pulse	0	t		8.0	2.5	/experiments/Knapen_AOT/AOT_stimuli/rescaled_final/0795_rv.mp4	0.0	99.12623190879822	
10	82.7036862373352	movie	1		275	8.0	2.5	/experiments/Knapen_AOT/AOT_stimuli/rescaled_final/0795_rv.mp4	0.0	99.14997267723083	2.500373125076294
10	84.28591084480286	pulse	1	t		8.0	2.5	/experiments/Knapen_AOT/AOT_stimuli/rescaled_final/0795_rv.mp4	0.0	100.73219728469849	
10	85.2040593624115	fix_post	2		12	8.0	2.5	/experiments/Knapen_AOT/AOT_stimuli/rescaled_final/0795_rv.mp4	0.0	101.65034580230713	0.10000276565551758
11	85.30406212806702	fix_pre	0		120	9.0	2.5	/experiments/Knapen_AOT/AOT_stimuli/rescaled_final/0305_fw.mp4	0.0	101.75034856796265	1.0084898471832275
11	85.87961483001709	pulse	0	t		9.0	2.5	/experiments/Knapen_AOT/AOT_stimuli/rescaled_final/0305_fw.mp4	0.0	102.32590126991272	
11	86.31255197525024	movie	1		280	9.0	2.5	/experiments/Knapen_AOT/AOT_stimuli/rescaled_final/0305_fw.mp4	0.0	102.75883841514587	2.492069721221924
11	87.47962665557861	pulse	1	t		9.0	2.5	/experiments/Knapen_AOT/AOT_stimuli/rescaled_final/0305_fw.mp4	0.0	103.92591309547424	
11	88.80462169647217	fix_post	2		12	9.0	2.5	/experiments/Knapen_AOT/AOT_stimuli/rescaled_final/0305_fw.mp4	0.0	105.2509081363678	0.1000359058380127
12	88.90465760231018	fix_pre	0		120	10.0	2.5	/experiments/Knapen_AOT/AOT_stimuli/rescaled_final/1335_fw.mp4	0.0	105.35094404220581	1.0084338188171387
12	89.07982587814331	pulse	0	t		10.0	2.5	/experiments/Knapen_AOT/AOT_stimuli/rescaled_final/1335_fw.mp4	0.0	105.52611231803894	
12	89.91309142112732	movie	1		275	10.0	2.5	/experiments/Knapen_AOT/AOT_stimuli/rescaled_final/1335_fw.mp4	0.0	106.35937786102295	2.4920244216918945
12	90.68008518218994	pulse	1	t		10.0	2.5	/experiments/Knapen_AOT/AOT_stimuli/rescaled_final/1335_fw.mp4	0.0	107.12637162208557	
12	92.28043675422668	pulse	1	t		10.0	2.5	/experiments/Knapen_AOT/AOT_stimuli/rescaled_final/1335_fw.mp4	0.0	108.72672319412231	
12	92.40511584281921	fix_post	2		12	10.0	2.5	/experiments/Knapen_AOT/AOT_stimuli/rescaled_final/1335_fw.mp4	0.0	108.85140228271484	0.10003280639648438
13	92.5051486492157	fix_pre	0		120	11.0	2.5	/experiments/Knapen_AOT/AOT_stimuli/rescaled_final/0048_fw.mp4	0.0	108.95143508911133	1.0084853172302246
13	93.51363396644592	movie	1		290	11.0	2.5	/experiments/Knapen_AOT/AOT_stimuli/rescaled_final/0048_fw.mp4	0.0	109.95992040634155	2.4920358657836914
13	93.88074970245361	pulse	1	t		11.0	2.5	/experiments/Knapen_AOT/AOT_stimuli/rescaled_final/0048_fw.mp4	0.0	110.32703614234924	
13	95.48087239265442	pulse	1	t		11.0	2.5	/experiments/Knapen_AOT/AOT_stimuli/rescaled_final/0048_fw.mp4	0.0	111.92715883255005	
13	96.00566983222961	fix_post	2		12	11.0	2.5	/experiments/Knapen_AOT/AOT_stimuli/rescaled_final/0048_fw.mp4	0.0	112.45195627212524	0.10000896453857422
14	96.10567879676819	fix_pre	0		118	12.0	2.5	blank	1.0	112.55196523666382	0.9834487438201904
14	97.08103084564209	pulse	0	t		12.0	2.5	blank	1.0	113.52731728553772	
14	97.08912754058838	movie	1		301	12.0	2.5	blank	1.0	113.53541398048401	2.5087335109710693
14	98.68127250671387	pulse	1	t		12.0	2.5	blank	1.0	115.1275589466095	
14	99.59786105155945	fix_post	2		12	12.0	2.5	blank	1.0	116.04414749145508	0.10002899169921875
15	99.69789004325867	fix_pre	0		120	13.0	2.5	/experiments/Knapen_AOT/AOT_stimuli/rescaled_final/0003_fw.mp4	0.0	116.1441764831543	1.0085055828094482
15	100.28161787986755	pulse	0	t		13.0	2.5	/experiments/Knapen_AOT/AOT_stimuli/rescaled_final/0003_fw.mp4	0.0	116.72790431976318	
15	100.70639562606812	movie	1		280	13.0	2.5	/experiments/Knapen_AOT/AOT_stimuli/rescaled_final/0003_fw.mp4	0.0	117.15268206596375	2.49200701713562
15	101.87996530532837	pulse	1	t		13.0	2.5	/experiments/Knapen_AOT/AOT_stimuli/rescaled_final/0003_fw.mp4	0.0	118.326251745224	
15	103.19840264320374	fix_post	2		12	13.0	2.5	/experiments/Knapen_AOT/AOT_stimuli/rescaled_final/0003_fw.mp4	0.0	119.64468908309937	0.10002732276916504
16	103.2984299659729	fix_pre	0		120	14.0	2.5	/experiments/Knapen_AOT/AOT_stimuli/rescaled_final/1574_rv.mp4	0.0	119.74471640586853	1.008491039276123
16	103.48196387290955	pulse	0	t		14.0	2.5	/experiments/Knapen_AOT/AOT_stimuli/rescaled_final/1574_rv.mp4	0.0	119.92825031280518	
16	104.30692100524902	movie	1		293	14.0	2.5	/experiments/Knapen_AOT/AOT_stimuli/rescaled_final/1574_rv.mp4	0.0	120.75320744514465	2.4920120239257812
16	105.08017039299011	pulse	1	t		14.0	2.5	/experiments/Knapen_AOT/AOT_stimuli/rescaled_final/1574_rv.mp4	0.0	121.52645683288574	
16	106.68236923217773	pulse	1	t		14.0	2.5	/experiments/Knapen_AOT/AOT_stimuli/rescaled_final/1574_rv.mp4	0.0	123.12865567207336	
16	106.7989330291748	fix_post	2		12	14.0	2.5	/experiments/Knapen_AOT/AOT_stimuli/rescaled_final/1574_rv.mp4	0.0	123.24521946907043	0.10000777244567871
17	106.89894080162048	fix_pre	0		120	15.0	2.5	/experiments/Knapen_AOT/AOT_stimuli/rescaled_final/0944_rv.mp4	0.0	123.34522724151611	1.0085008144378662
17	107.90744161605835	movie	1		293	15.0	2.5	/experiments/Knapen_AOT/AOT_stimuli/rescaled_final/0944_rv.mp4	0.0	124.35372805595398	2.492037296295166
17	108.28231549263	pulse	1	t		15.0	2.5	/experiments/Knapen_AOT/AOT_stimuli/rescaled_final/0944_rv.mp4	0.0	124.72860193252563	
17	109.88010263442993	pulse	1	t		15.0	2.5	/experiments/Knapen_AOT/AOT_stimuli/rescaled_final/0944_rv.mp4	0.0	126.32638907432556	
17	110.39947891235352	fix_post	2		12	15.0	2.5	/experiments/Knapen_AOT/AOT_stimuli/rescaled_final/0944_rv.mp4	0.0	126.84576535224915	0.10002398490905762
18	110.49950289726257	fix_pre	0		119	16.0	2.5	/experiments/Knapen_AOT/AOT_stimuli/rescaled_final/1818_fw.mp4	0.0	126.9457893371582	1.0002388954162598
18	111.48319482803345	pulse	0	t		16.0	2.5	/experiments/Knapen_AOT/AOT_stimuli/rescaled_final/1818_fw.mp4	0.0	127.92948126792908	
18	111.49974179267883	movie	1		294	16.0	2.5	/experiments/Knapen_AOT/AOT_stimuli/rescaled_final/1818_fw.mp4	0.0	127.94602823257446	2.500265598297119
18	113.08185625076294	pulse	1	t		16.0	2.5	/experiments/Knapen_AOT/AOT_stimuli/rescaled_final/1818_fw.mp4	0.0	129.52814269065857	
18	114.00000739097595	fix_post	2		12	16.0	2.5	/experiments/Knapen_AOT/AOT_stimuli/rescaled_final/1818_fw.mp4	0.0	130.44629383087158	0.10001158714294434
19	114.1000189781189	fix_pre	0		120	17.0	2.5	/experiments/Knapen_AOT/AOT_stimuli/rescaled_final/0003_rv.mp4	0.0	130.54630541801453	1.0085210800170898
19	114.68366622924805	pulse	0	t		17.0	2.5	/experiments/Knapen_AOT/AOT_stimuli/rescaled_final/0003_rv.mp4	0.0	131.12995266914368	
19	115.10854005813599	movie	1		295	17.0	2.5	/experiments/Knapen_AOT/AOT_stimuli/rescaled_final/0003_rv.mp4	0.0	131.55482649803162	2.49202299118042
19	116.27965211868286	pulse	1	t		17.0	2.5	/experiments/Knapen_AOT/AOT_stimuli/rescaled_final/0003_rv.mp4	0.0	132.7259385585785	
19	117.6005630493164	fix_post	2		12	17.0	2.5	/experiments/Knapen_AOT/AOT_stimuli/rescaled_final/0003_rv.mp4	0.0	134.04684948921204	0.1000359058380127
20	117.70059895515442	fix_pre	0		120	18.0	2.5	/experiments/Knapen_AOT/AOT_stimuli/rescaled_final/1032_rv.mp4	0.0	134.14688539505005	1.0084800720214844
20	117.8840582370758	pulse	0	t		18.0	2.5	/experiments/Knapen_AOT/AOT_stimuli/rescaled_final/1032_rv.mp4	0.0	134.33034467697144	
20	118.7090790271759	movie	1		294	18.0	2.5	/experiments/Knapen_AOT/AOT_stimuli/rescaled_final/1032_rv.mp4	0.0	135.15536546707153	2.492037296295166
20	119.47986221313477	pulse	1	t		18.0	2.5	/experiments/Knapen_AOT/AOT_stimuli/rescaled_final/1032_rv.mp4	0.0	135.9261486530304	
20	121.08188366889954	pulse	1	t		18.0	2.5	/experiments/Knapen_AOT/AOT_stimuli/rescaled_final/1032_rv.mp4	0.0	137.52817010879517	
20	121.20111632347107	fix_post	2		12	18.0	2.5	/experiments/Knapen_AOT/AOT_stimuli/rescaled_final/1032_rv.mp4	0.0	137.6474027633667	0.1000058650970459
21	121.30112218856812	fix_pre	0		120	19.0	2.5	/experiments/Knapen_AOT/AOT_stimuli/rescaled_final/0795_fw.mp4	0.0	137.74740862846375	1.0085253715515137
21	122.30964756011963	movie	1		283	19.0	2.5	/experiments/Knapen_AOT/AOT_stimuli/rescaled_final/0795_fw.mp4	0.0	138.75593400001526	2.49204683303833
21	122.68348956108093	pulse	1	t		19.0	2.5	/experiments/Knapen_AOT/AOT_stimuli/rescaled_final/0795_fw.mp4	0.0	139.12977600097656	
21	124.28289151191711	pulse	1	t		19.0	2.5	/experiments/Knapen_AOT/AOT_stimuli/rescaled_final/0795_fw.mp4	0.0	140.72917795181274	
21	124.80169439315796	fix_post	2		12	19.0	2.5	/experiments/Knapen_AOT/AOT_stimuli/rescaled_final/0795_fw.mp4	0.0	141.2479808330536	0.09996891021728516
22	124.90166330337524	fix_pre	0		119	20.0	2.5	/experiments/Knapen_AOT/AOT_stimuli/rescaled_final/1402_rv.mp4	0.0	141.34794974327087	1.0001695156097412
22	125.8853006362915	pulse	0	t		20.0	2.5	/experiments/Knapen_AOT/AOT_stimuli/rescaled_final/1402_rv.mp4	0.0	142.33158707618713	
22	125.90183281898499	movie	1		281	20.0	2.5	/experiments/Knapen_AOT/AOT_stimuli/rescaled_final/1402_rv.mp4	0.0	142.34811925888062	2.5087125301361084
22	127.48413276672363	pulse	1	t		20.0	2.5	/experiments/Knapen_AOT/AOT_stimuli/rescaled_final/1402_rv.mp4	0.0	143.93041920661926	
22	128.4105453491211	fix_post	2		11	20.0	2.5	/experiments/Knapen_AOT/AOT_stimuli/rescaled_final/1402_rv.mp4	0.0	144.85683178901672	0.09168577194213867
23	128.50223112106323	fix_pre	0		120	21.0	2.5	blank	1.0	144.94851756095886	1.0001287460327148
23	129.08620238304138	pulse	0	t		21.0	2.5	blank	1.0	145.532488822937	
23	129.50235986709595	movie	1		300	21.0	2.5	blank	1.0	145.94864630699158	2.5003859996795654
23	130.6860888004303	pulse	1	t		21.0	2.5	blank	1.0	147.13237524032593	
23	132.0027458667755	fix_post	2		12	21.0	2.5	blank	1.0	148.44903230667114	0.10002708435058594
24	132.1027729511261	fix_pre	0		120	22.0	2.5	/experiments/Knapen_AOT/AOT_stimuli/rescaled_final/0037_rv.mp4	0.0	148.54905939102173	1.0084939002990723
24	132.28632354736328	pulse	0	t		22.0	2.5	/experiments/Knapen_AOT/AOT_stimuli/rescaled_final/0037_rv.mp4	0.0	148.7326099872589	
24	133.11126685142517	movie	1		281	22.0	2.5	/experiments/Knapen_AOT/AOT_stimuli/rescaled_final/0037_rv.mp4	0.0	149.5575532913208	2.4920222759246826
24	133.88460159301758	pulse	1	t		22.0	2.5	/experiments/Knapen_AOT/AOT_stimuli/rescaled_final/0037_rv.mp4	0.0	150.3308880329132	
24	135.4849259853363	pulse	1	t		22.0	2.5	/experiments/Knapen_AOT/AOT_stimuli/rescaled_final/0037_rv.mp4	0.0	151.93121242523193	
24	135.60328912734985	fix_post	2		12	22.0	2.5	/experiments/Knapen_AOT/AOT_stimuli/rescaled_final/0037_rv.mp4	0.0	152.04957556724548	0.10002255439758301
25	135.70331168174744	fix_pre	0		120	23.0	2.5	/experiments/Knapen_AOT/AOT_stimuli/rescaled_final/1811_rv.mp4	0.0	152.14959812164307	1.0084645748138428
25	136.71177625656128	movie	1		293	23.0	2.5	/experiments/Knapen_AOT/AOT_stimuli/rescaled_final/1811_rv.mp4	0.0	153.1580626964569	2.4920566082000732
25	137.07921051979065	pulse	1	t		23.0	2.5	/experiments/Knapen_AOT/AOT_stimuli/rescaled_final/1811_rv.mp4	0.0	153.52549695968628	
25	138.67905521392822	pulse	1	t		23.0	2.5	/experiments/Knapen_AOT/AOT_stimuli/rescaled_final/1811_rv.mp4	0.0	155.12534165382385	
25	139.20383286476135	fix_post	2		12	23.0	2.5	/experiments/Knapen_AOT/AOT_stimuli/rescaled_final/1811_rv.mp4	0.0	155.65011930465698	0.10001468658447266
26	139.30384755134583	fix_pre	0		118	24.0	2.5	/experiments/Knapen_AOT/AOT_stimuli/rescaled_final/2133_fw.mp4	0.0	155.75013399124146	0.9918415546417236
26	140.27918410301208	pulse	0	t		24.0	2.5	/experiments/Knapen_AOT/AOT_stimuli/rescaled_final/2133_fw.mp4	0.0	156.72547054290771	
26	140.29568910598755	movie	1		283	24.0	2.5	/experiments/Knapen_AOT/AOT_stimuli/rescaled_final/2133_fw.mp4	0.0	156.74197554588318	2.5003514289855957
26	141.87951159477234	pulse	1	t		24.0	2.5	/experiments/Knapen_AOT/AOT_stimuli/rescaled_final/2133_fw.mp4	0.0	158.32579803466797	
26	142.79604053497314	fix_post	2		12	24.0	2.5	/experiments/Knapen_AOT/AOT_stimuli/rescaled_final/2133_fw.mp4	0.0	159.24232697486877	0.10003852844238281
27	142.89607906341553	fix_pre	0		120	25.0	2.5	/experiments/Knapen_AOT/AOT_stimuli/rescaled_final/1698_fw.mp4	0.0	159.34236550331116	1.008472204208374
27	143.4801106452942	pulse	0	t		25.0	2.5	/experiments/Knapen_AOT/AOT_stimuli/rescaled_final/1698_fw.mp4	0.0	159.92639708518982	
27	143.9045512676239	movie	1		277	25.0	2.5	/experiments/Knapen_AOT/AOT_stimuli/rescaled_final/1698_fw.mp4	0.0	160.35083770751953	2.492065906524658
27	145.0807535648346	pulse	1	t		25.0	2.5	/experiments/Knapen_AOT/AOT_stimuli/rescaled_final/1698_fw.mp4	0.0	161.52704000473022	
27	146.39661717414856	fix_post	2		12	25.0	2.5	/experiments/Knapen_AOT/AOT_stimuli/rescaled_final/1698_fw.mp4	0.0	162.8429036140442	0.10000133514404297
28	146.4966185092926	fix_pre	0		120	26.0	2.5	blank	1.0	162.94290494918823	1.0001602172851562
28	146.68022513389587	pulse	0	t		26.0	2.5	blank	1.0	163.1265115737915	
28	147.49677872657776	movie	1		300	26.0	2.5	blank	1.0	163.9430651664734	2.5003323554992676
28	148.28045010566711	pulse	1	t		26.0	2.5	blank	1.0	164.72673654556274	
28	149.88068270683289	pulse	1	t		26.0	2.5	blank	1.0	166.32696914672852	
28	149.99711108207703	fix_post	2		12	26.0	2.5	blank	1.0	166.44339752197266	0.10002779960632324
29	150.09713888168335	fix_pre	0		120	27.0	2.5	/experiments/Knapen_AOT/AOT_stimuli/rescaled_final/0574_rv.mp4	0.0	166.54342532157898	1.0085341930389404
29	151.1056730747223	movie	1		286	27.0	2.5	/experiments/Knapen_AOT/AOT_stimuli/rescaled_final/0574_rv.mp4	0.0	167.55195951461792	2.491987466812134
29	151.47962307929993	pulse	1	t		27.0	2.5	/experiments/Knapen_AOT/AOT_stimuli/rescaled_final/0574_rv.mp4	0.0	167.92590951919556	
29	153.07911944389343	pulse	1	t		27.0	2.5	/experiments/Knapen_AOT/AOT_stimuli/rescaled_final/0574_rv.mp4	0.0	169.52540588378906	
29	153.59766054153442	fix_post	2		12	27.0	2.5	/experiments/Knapen_AOT/AOT_stimuli/rescaled_final/0574_rv.mp4	0.0	170.04394698143005	0.10004687309265137
30	153.69770741462708	fix_pre	0		119	28.0	2.5	/experiments/Knapen_AOT/AOT_stimuli/rescaled_final/0583_rv.mp4	0.0	170.1439938545227	1.0001323223114014
30	154.68150091171265	pulse	0	t		28.0	2.5	/experiments/Knapen_AOT/AOT_stimuli/rescaled_final/0583_rv.mp4	0.0	171.12778735160828	
30	154.69783973693848	movie	1		288	28.0	2.5	/experiments/Knapen_AOT/AOT_stimuli/rescaled_final/0583_rv.mp4	0.0	171.1441261768341	2.500361442565918
30	156.2801549434662	pulse	1	t		28.0	2.5	/experiments/Knapen_AOT/AOT_stimuli/rescaled_final/0583_rv.mp4	0.0	172.72644138336182	
30	157.1982011795044	fix_post	2		12	28.0	2.5	/experiments/Knapen_AOT/AOT_stimuli/rescaled_final/0583_rv.mp4	0.0	173.64448761940002	0.10001921653747559
31	157.29822039604187	fix_pre	0		120	29.0	2.5	/experiments/Knapen_AOT/AOT_stimuli/rescaled_final/1938_fw.mp4	0.0	173.7445068359375	1.008498191833496
31	157.8818714618683	pulse	0	t		29.0	2.5	/experiments/Knapen_AOT/AOT_stimuli/rescaled_final/1938_fw.mp4	0.0	174.32815790176392	
31	158.30671858787537	movie	1		279	29.0	2.5	/experiments/Knapen_AOT/AOT_stimuli/rescaled_final/1938_fw.mp4	0.0	174.753005027771	2.4920146465301514
31	159.48013758659363	pulse	1	t		29.0	2.5	/experiments/Knapen_AOT/AOT_stimuli/rescaled_final/1938_fw.mp4	0.0	175.92642402648926	
31	160.79873323440552	fix_post	2		12	29.0	2.5	/experiments/Knapen_AOT/AOT_stimuli/rescaled_final/1938_fw.mp4	0.0	177.24501967430115	0.10003232955932617
32	160.89876556396484	fix_pre	0		120	30.0	2.5	/experiments/Knapen_AOT/AOT_stimuli/rescaled_final/0583_fw.mp4	0.0	177.34505200386047	1.0084757804870605
32	161.08240389823914	pulse	0	t		30.0	2.5	/experiments/Knapen_AOT/AOT_stimuli/rescaled_final/0583_fw.mp4	0.0	177.52869033813477	
32	161.9072413444519	movie	1		276	30.0	2.5	/experiments/Knapen_AOT/AOT_stimuli/rescaled_final/0583_fw.mp4	0.0	178.35352778434753	2.4920458793640137
32	162.6806058883667	pulse	1	t		30.0	2.5	/experiments/Knapen_AOT/AOT_stimuli/rescaled_final/0583_fw.mp4	0.0	179.12689232826233	
32	164.2808449268341	pulse	1	t		30.0	2.5	/experiments/Knapen_AOT/AOT_stimuli/rescaled_final/0583_fw.mp4	0.0	180.72713136672974	
32	164.39928722381592	fix_post	2		12	30.0	2.5	/experiments/Knapen_AOT/AOT_stimuli/rescaled_final/0583_fw.mp4	0.0	180.84557366371155	0.100128173828125
33	164.49941539764404	fix_pre	0		120	31.0	2.5	/experiments/Knapen_AOT/AOT_stimuli/rescaled_final/2060_fw.mp4	0.0	180.94570183753967	1.0083720684051514
33	165.5077874660492	movie	1		292	31.0	2.5	/experiments/Knapen_AOT/AOT_stimuli/rescaled_final/2060_fw.mp4	0.0	181.95407390594482	2.4920403957366943
33	165.88160729408264	pulse	1	t		31.0	2.5	/experiments/Knapen_AOT/AOT_stimuli/rescaled_final/2060_fw.mp4	0.0	182.32789373397827	
33	167.4814109802246	pulse	1	t		31.0	2.5	/experiments/Knapen_AOT/AOT_stimuli/rescaled_final/2060_fw.mp4	0.0	183.92769742012024	
33	167.9998278617859	fix_post	2		12	31.0	2.5	/experiments/Knapen_AOT/AOT_stimuli/rescaled_final/2060_fw.mp4	0.0	184.44611430168152	0.1000206470489502
34	168.09984850883484	fix_pre	0		119	32.0	2.5	/experiments/Knapen_AOT/AOT_stimuli/rescaled_final/1254_fw.mp4	0.0	184.54613494873047	1.000150203704834
34	169.08381628990173	pulse	0	t		32.0	2.5	/experiments/Knapen_AOT/AOT_stimuli/rescaled_final/1254_fw.mp4	0.0	185.53010272979736	
34	169.09999871253967	movie	1		280	32.0	2.5	/experiments/Knapen_AOT/AOT_stimuli/rescaled_final/1254_fw.mp4	0.0	185.5462851524353	2.500371217727661
34	170.68224334716797	pulse	1	t		32.0	2.5	/experiments/Knapen_AOT/AOT_stimuli/rescaled_final/1254_fw.mp4	0.0	187.1285297870636	
34	171.60036993026733	fix_post	2		12	32.0	2.5	/experiments/Knapen_AOT/AOT_stimuli/rescaled_final/1254_fw.mp4	0.0	188.04665637016296	0.10001802444458008
35	171.7003879547119	fix_pre	0		120	33.0	2.5	blank	1.0	188.14667439460754	1.0001466274261475
35	172.2841281890869	pulse	0	t		33.0	2.5	blank	1.0	188.73041462898254	
35	172.70053458213806	movie	1		300	33.0	2.5	blank	1.0	189.1468210220337	2.5003740787506104
35	173.88421726226807	pulse	1	t		33.0	2.5	blank	1.0	190.3305037021637	
35	175.20090866088867	fix_post	2		12	33.0	2.5	blank	1.0	191.6471951007843	0.10013103485107422
36	175.30103969573975	fix_pre	0		120	34.0	2.5	/experiments/Knapen_AOT/AOT_stimuli/rescaled_final/2139_rv.mp4	0.0	191.74732613563538	1.008375883102417
36	175.48470377922058	pulse	0	t		34.0	2.5	/experiments/Knapen_AOT/AOT_stimuli/rescaled_final/2139_rv.mp4	0.0	191.9309902191162	
36	176.30941557884216	movie	1		282	34.0	2.5	/experiments/Knapen_AOT/AOT_stimuli/rescaled_final/2139_rv.mp4	0.0	192.7557020187378	2.4920458793640137
36	177.08256649971008	pulse	1	t		34.0	2.5	/experiments/Knapen_AOT/AOT_stimuli/rescaled_final/2139_rv.mp4	0.0	193.5288529396057	
36	178.68289351463318	pulse	1	t		34.0	2.5	/experiments/Knapen_AOT/AOT_stimuli/rescaled_final/2139_rv.mp4	0.0	195.1291799545288	
36	178.80146145820618	fix_post	2		12	34.0	2.5	/experiments/Knapen_AOT/AOT_stimuli/rescaled_final/2139_rv.mp4	0.0	195.2477478981018	0.10005974769592285
37	178.9015212059021	fix_pre	0		120	35.0	2.5	/experiments/Knapen_AOT/AOT_stimuli/rescaled_final/1411_fw.mp4	0.0	195.34780764579773	1.0084190368652344
37	179.90994024276733	movie	1		275	35.0	2.5	/experiments/Knapen_AOT/AOT_stimuli/rescaled_final/1411_fw.mp4	0.0	196.35622668266296	2.4920494556427
37	180.28526902198792	pulse	1	t		35.0	2.5	/experiments/Knapen_AOT/AOT_stimuli/rescaled_final/1411_fw.mp4	0.0	196.73155546188354	
37	181.88344764709473	pulse	1	t		35.0	2.5	/experiments/Knapen_AOT/AOT_stimuli/rescaled_final/1411_fw.mp4	0.0	198.32973408699036	
37	182.40198969841003	fix_post	2		12	35.0	2.5	/experiments/Knapen_AOT/AOT_stimuli/rescaled_final/1411_fw.mp4	0.0	198.84827613830566	0.10001468658447266
38	182.5020043849945	fix_pre	0		119	36.0	2.5	/experiments/Knapen_AOT/AOT_stimuli/rescaled_final/0249_fw.mp4	0.0	198.94829082489014	1.000317096710205
38	183.48578667640686	pulse	0	t		36.0	2.5	/experiments/Knapen_AOT/AOT_stimuli/rescaled_final/0249_fw.mp4	0.0	199.9320731163025	
38	183.5023214817047	movie	1		285	36.0	2.5	/experiments/Knapen_AOT/AOT_stimuli/rescaled_final/0249_fw.mp4	0.0	199.94860792160034	2.5002429485321045
38	185.08467292785645	pulse	1	t		36.0	2.5	/experiments/Knapen_AOT/AOT_stimuli/rescaled_final/0249_fw.mp4	0.0	201.53095936775208	
38	186.00256443023682	fix_post	2		12	36.0	2.5	/experiments/Knapen_AOT/AOT_stimuli/rescaled_final/0249_fw.mp4	0.0	202.44885087013245	0.1000053882598877
39	186.1025698184967	fix_pre	0		120	37.0	2.5	/experiments/Knapen_AOT/AOT_stimuli/rescaled_final/1574_rv.mp4	0.0	202.54885625839233	1.0084819793701172
39	186.68622136116028	pulse	0	t		37.0	2.5	/experiments/Knapen_AOT/AOT_stimuli/rescaled_final/1574_rv.mp4	0.0	203.1325078010559	
39	187.11105179786682	movie	1		284	37.0	2.5	/experiments/Knapen_AOT/AOT_stimuli/rescaled_final/1574_rv.mp4	0.0	203.55733823776245	2.4920778274536133
39	188.28496050834656	pulse	1	t		37.0	2.5	/experiments/Knapen_AOT/AOT_stimuli/rescaled_final/1574_rv.mp4	0.0	204.7312469482422	
39	189.60312962532043	fix_post	2		12	37.0	2.5	/experiments/Knapen_AOT/AOT_stimuli/rescaled_final/1574_rv.mp4	0.0	206.04941606521606	0.0999603271484375
40	189.70308995246887	fix_pre	0		120	38.0	2.5	/experiments/Knapen_AOT/AOT_stimuli/rescaled_final/0922_rv.mp4	0.0	206.1493763923645	1.0087182521820068
40	189.87960624694824	pulse	0	t		38.0	2.5	/experiments/Knapen_AOT/AOT_stimuli/rescaled_final/0922_rv.mp4	0.0	206.32589268684387	
40	190.71180820465088	movie	1		286	38.0	2.5	/experiments/Knapen_AOT/AOT_stimuli/rescaled_final/0922_rv.mp4	0.0	207.1580946445465	2.491800308227539
40	191.48508763313293	pulse	1	t		38.0	2.5	/experiments/Knapen_AOT/AOT_stimuli/rescaled_final/0922_rv.mp4	0.0	207.93137407302856	
40	193.085529088974	pulse	1	t		38.0	2.5	/experiments/Knapen_AOT/AOT_stimuli/rescaled_final/0922_rv.mp4	0.0	209.53181552886963	
40	193.20360851287842	fix_post	2		12	38.0	2.5	/experiments/Knapen_AOT/AOT_stimuli/rescaled_final/0922_rv.mp4	0.0	209.64989495277405	0.10010504722595215
41	193.30371356010437	fix_pre	0		120	39.0	2.5	/experiments/Knapen_AOT/AOT_stimuli/rescaled_final/2039_rv.mp4	0.0	209.75	1.0084340572357178
41	194.3121476173401	movie	1		281	39.0	2.5	/experiments/Knapen_AOT/AOT_stimuli/rescaled_final/2039_rv.mp4	0.0	210.75843405723572	2.492039203643799
41	194.67940831184387	pulse	1	t		39.0	2.5	/experiments/Knapen_AOT/AOT_stimuli/rescaled_final/2039_rv.mp4	0.0	211.1256947517395	
41	196.2794439792633	pulse	1	t		39.0	2.5	/experiments/Knapen_AOT/AOT_stimuli/rescaled_final/2039_rv.mp4	0.0	212.72573041915894	
41	196.8041868209839	fix_post	2		12	39.0	2.5	/experiments/Knapen_AOT/AOT_stimuli/rescaled_final/2039_rv.mp4	0.0	213.25047326087952	0.10005998611450195
42	196.9042468070984	fix_pre	0		118	40.0	2.5	/experiments/Knapen_AOT/AOT_stimuli/rescaled_final/1320_fw.mp4	0.0	213.35053324699402	0.9917516708374023
42	197.87959027290344	pulse	0	t		40.0	2.5	/experiments/Knapen_AOT/AOT_stimuli/rescaled_final/1320_fw.mp4	0.0	214.32587671279907	
42	197.8959984779358	movie	1		283	40.0	2.5	/experiments/Knapen_AOT/AOT_stimuli/rescaled_final/1320_fw.mp4	0.0	214.34228491783142	2.50036358833313
42	199.47985410690308	pulse	1	t		40.0	2.5	/experiments/Knapen_AOT/AOT_stimuli/rescaled_final/1320_fw.mp4	0.0	215.9261405467987	
42	200.39636206626892	fix_post	2		12	40.0	2.5	/experiments/Knapen_AOT/AOT_stimuli/rescaled_final/1320_fw.mp4	0.0	216.84264850616455	0.10003376007080078
43	200.49639582633972	fix_pre	0		120	41.0	2.5	blank	1.0	216.94268226623535	1.000162124633789
43	201.08004093170166	pulse	0	t		41.0	2.5	blank	1.0	217.5263273715973	
43	201.4965579509735	movie	1		300	41.0	2.5	blank	1.0	217.94284439086914	2.5003483295440674
43	202.6803035736084	pulse	1	t		41.0	2.5	blank	1.0	219.12659001350403	
43	203.99690628051758	fix_post	2		12	41.0	2.5	blank	1.0	220.4431927204132	0.10003399848937988
44	204.09694027900696	fix_pre	0		120	42.0	2.5	/experiments/Knapen_AOT/AOT_stimuli/rescaled_final/0378_rv.mp4	0.0	220.5432267189026	1.0084869861602783
44	204.28053212165833	pulse	0	t		42.0	2.5	/experiments/Knapen_AOT/AOT_stimuli/rescaled_final/0378_rv.mp4	0.0	220.72681856155396	
44	205.10542726516724	movie	1		279	42.0	2.5	/experiments/Knapen_AOT/AOT_stimuli/rescaled_final/0378_rv.mp4	0.0	221.55171370506287	2.492036819458008
44	205.88078260421753	pulse	1	t		42.0	2.5	/experiments/Knapen_AOT/AOT_stimuli/rescaled_final/0378_rv.mp4	0.0	222.32706904411316	
44	207.48097610473633	pulse	1	t		42.0	2.5	/experiments/Knapen_AOT/AOT_stimuli/rescaled_final/0378_rv.mp4	0.0	223.92726254463196	
44	207.59746408462524	fix_post	2		12	42.0	2.5	/experiments/Knapen_AOT/AOT_stimuli/rescaled_final/0378_rv.mp4	0.0	224.04375052452087	0.10008811950683594
45	207.69755220413208	fix_pre	0		120	43.0	2.5	/experiments/Knapen_AOT/AOT_stimuli/rescaled_final/0261_fw.mp4	0.0	224.1438386440277	1.008420467376709
45	208.7059726715088	movie	1		278	43.0	2.5	/experiments/Knapen_AOT/AOT_stimuli/rescaled_final/0261_fw.mp4	0.0	225.15225911140442	2.492021083831787
45	209.08132028579712	pulse	1	t		43.0	2.5	/experiments/Knapen_AOT/AOT_stimuli/rescaled_final/0261_fw.mp4	0.0	225.52760672569275	
45	210.68143582344055	pulse	1	t		43.0	2.5	/experiments/Knapen_AOT/AOT_stimuli/rescaled_final/0261_fw.mp4	0.0	227.12772226333618	
45	211.19799375534058	fix_post	2		12	43.0	2.5	/experiments/Knapen_AOT/AOT_stimuli/rescaled_final/0261_fw.mp4	0.0	227.6442801952362	0.10003471374511719
46	211.2980284690857	fix_pre	0		119	44.0	2.5	/experiments/Knapen_AOT/AOT_stimuli/rescaled_final/1470_rv.mp4	0.0	227.74431490898132	1.0001637935638428
46	212.28191328048706	pulse	0	t		44.0	2.5	/experiments/Knapen_AOT/AOT_stimuli/rescaled_final/1470_rv.mp4	0.0	228.7281997203827	
46	212.29819226264954	movie	1		289	44.0	2.5	/experiments/Knapen_AOT/AOT_stimuli/rescaled_final/1470_rv.mp4	0.0	228.74447870254517	2.5004212856292725
46	213.88035011291504	pulse	1	t		44.0	2.5	/experiments/Knapen_AOT/AOT_stimuli/rescaled_final/1470_rv.mp4	0.0	230.32663655281067	
46	214.7986135482788	fix_post	2		12	44.0	2.5	/experiments/Knapen_AOT/AOT_stimuli/rescaled_final/1470_rv.mp4	0.0	231.24489998817444	0.09997820854187012
47	214.89859175682068	fix_pre	0		120	45.0	2.5	/experiments/Knapen_AOT/AOT_stimuli/rescaled_final/0048_rv.mp4	0.0	231.3448781967163	1.008481502532959
47	215.4824924468994	pulse	0	t		45.0	2.5	/experiments/Knapen_AOT/AOT_stimuli/rescaled_final/0048_rv.mp4	0.0	231.92877888679504	
47	215.90707325935364	movie	1		255	45.0	2.5	/experiments/Knapen_AOT/AOT_stimuli/rescaled_final/0048_rv.mp4	0.0	232.35335969924927	2.492006301879883
47	217.08034801483154	pulse	1	t		45.0	2.5	/experiments/Knapen_AOT/AOT_stimuli/rescaled_final/0048_rv.mp4	0.0	233.52663445472717	
47	218.39907956123352	fix_post	2		12	45.0	2.5	/experiments/Knapen_AOT/AOT_stimuli/rescaled_final/0048_rv.mp4	0.0	234.84536600112915	0.1000223159790039
48	218.49910187721252	fix_pre	0		120	46.0	2.5	/experiments/Knapen_AOT/AOT_stimuli/rescaled_final/0952_fw.mp4	0.0	234.94538831710815	1.0085175037384033
48	218.68276405334473	pulse	0	t		46.0	2.5	/experiments/Knapen_AOT/AOT_stimuli/rescaled_final/0952_fw.mp4	0.0	235.12905049324036	
48	219.50761938095093	movie	1		275	46.0	2.5	/experiments/Knapen_AOT/AOT_stimuli/rescaled_final/0952_fw.mp4	0.0	235.95390582084656	2.4920713901519775
48	220.2807126045227	pulse	1	t		46.0	2.5	/experiments/Knapen_AOT/AOT_stimuli/rescaled_final/0952_fw.mp4	0.0	236.72699904441833	
48	221.88133144378662	pulse	1	t		46.0	2.5	/experiments/Knapen_AOT/AOT_stimuli/rescaled_final/0952_fw.mp4	0.0	238.32761788368225	
48	221.9996907711029	fix_post	2		12	46.0	2.5	/experiments/Knapen_AOT/AOT_stimuli/rescaled_final/0952_fw.mp4	0.0	238.44597721099854	0.0999600887298584
49	222.09965085983276	fix_pre	0		120	47.0	2.5	blank	1.0	238.5459372997284	1.0001792907714844
49	223.09983015060425	movie	1		300	47.0	2.5	blank	1.0	239.54611659049988	2.500328540802002
49	223.48338890075684	pulse	1	t		47.0	2.5	blank	1.0	239.92967534065247	
49	225.08361339569092	pulse	1	t		47.0	2.5	blank	1.0	241.52989983558655	
49	225.60015869140625	fix_post	2		12	47.0	2.5	blank	1.0	242.04644513130188	0.1000206470489502
50	225.7001793384552	fix_pre	0		119	48.0	2.5	/experiments/Knapen_AOT/AOT_stimuli/rescaled_final/1470_fw.mp4	0.0	242.14646577835083	1.000154733657837
50	226.6840958595276	pulse	0	t		48.0	2.5	/experiments/Knapen_AOT/AOT_stimuli/rescaled_final/1470_fw.mp4	0.0	243.13038229942322	
50	226.70033407211304	movie	1		281	48.0	2.5	/experiments/Knapen_AOT/AOT_stimuli/rescaled_final/1470_fw.mp4	0.0	243.14662051200867	2.500385284423828
50	228.2825207710266	pulse	1	t		48.0	2.5	/experiments/Knapen_AOT/AOT_stimuli/rescaled_final/1470_fw.mp4	0.0	244.72880721092224	
50	229.20071935653687	fix_post	2		12	48.0	2.5	/experiments/Knapen_AOT/AOT_stimuli/rescaled_final/1470_fw.mp4	0.0	245.6470057964325	0.10001873970031738
51	229.30073809623718	fix_pre	0		120	49.0	2.5	/experiments/Knapen_AOT/AOT_stimuli/rescaled_final/1155_rv.mp4	0.0	245.7470245361328	1.008481740951538
51	229.88439655303955	pulse	0	t		49.0	2.5	/experiments/Knapen_AOT/AOT_stimuli/rescaled_final/1155_rv.mp4	0.0	246.33068299293518	
51	230.30921983718872	movie	1		279	49.0	2.5	/experiments/Knapen_AOT/AOT_stimuli/rescaled_final/1155_rv.mp4	0.0	246.75550627708435	2.4920310974121094
51	231.48303151130676	pulse	1	t		49.0	2.5	/experiments/Knapen_AOT/AOT_stimuli/rescaled_final/1155_rv.mp4	0.0	247.9293179512024	
51	232.80125093460083	fix_post	2		12	49.0	2.5	/experiments/Knapen_AOT/AOT_stimuli/rescaled_final/1155_rv.mp4	0.0	249.24753737449646	0.10000801086425781
52	232.9012589454651	fix_pre	0		120	50.0	2.5	/experiments/Knapen_AOT/AOT_stimuli/rescaled_final/1698_rv.mp4	0.0	249.34754538536072	1.0084714889526367
52	233.08482265472412	pulse	0	t		50.0	2.5	/experiments/Knapen_AOT/AOT_stimuli/rescaled_final/1698_rv.mp4	0.0	249.53110909461975	
52	233.90973043441772	movie	1		286	50.0	2.5	/experiments/Knapen_AOT/AOT_stimuli/rescaled_final/1698_rv.mp4	0.0	250.35601687431335	2.4920480251312256
52	234.68317365646362	pulse	1	t		50.0	2.5	/experiments/Knapen_AOT/AOT_stimuli/rescaled_final/1698_rv.mp4	0.0	251.12946009635925	
52	236.2832691669464	pulse	1	t		50.0	2.5	/experiments/Knapen_AOT/AOT_stimuli/rescaled_final/1698_rv.mp4	0.0	252.72955560684204	
52	236.40177845954895	fix_post	2		12	50.0	2.5	/experiments/Knapen_AOT/AOT_stimuli/rescaled_final/1698_rv.mp4	0.0	252.84806489944458	0.10007977485656738
53	236.50185823440552	fix_pre	0		120	51.0	2.5	/experiments/Knapen_AOT/AOT_stimuli/rescaled_final/1303_rv.mp4	0.0	252.94814467430115	1.0084478855133057
53	237.51030611991882	movie	1		268	51.0	2.5	/experiments/Knapen_AOT/AOT_stimuli/rescaled_final/1303_rv.mp4	0.0	253.95659255981445	2.4920241832733154
53	237.88427567481995	pulse	1	t		51.0	2.5	/experiments/Knapen_AOT/AOT_stimuli/rescaled_final/1303_rv.mp4	0.0	254.33056211471558	
53	239.48475575447083	pulse	1	t		51.0	2.5	/experiments/Knapen_AOT/AOT_stimuli/rescaled_final/1303_rv.mp4	0.0	255.93104219436646	
53	240.00233030319214	fix_post	2		12	51.0	2.5	/experiments/Knapen_AOT/AOT_stimuli/rescaled_final/1303_rv.mp4	0.0	256.44861674308777	0.10010552406311035
54	240.10243582725525	fix_pre	0		119	52.0	2.5	/experiments/Knapen_AOT/AOT_stimuli/rescaled_final/1457_fw.mp4	0.0	256.5487222671509	1.008472204208374
54	241.08624267578125	pulse	0	t		52.0	2.5	/experiments/Knapen_AOT/AOT_stimuli/rescaled_final/1457_fw.mp4	0.0	257.5325291156769	
54	241.11090803146362	movie	1		268	52.0	2.5	/experiments/Knapen_AOT/AOT_stimuli/rescaled_final/1457_fw.mp4	0.0	257.55719447135925	2.4919679164886475
54	242.68500995635986	pulse	1	t		52.0	2.5	/experiments/Knapen_AOT/AOT_stimuli/rescaled_final/1457_fw.mp4	0.0	259.1312963962555	
54	243.60287594795227	fix_post	2		12	52.0	2.5	/experiments/Knapen_AOT/AOT_stimuli/rescaled_final/1457_fw.mp4	0.0	260.0491623878479	0.10002374649047852
55	243.70289969444275	fix_pre	0		120	53.0	2.5	/experiments/Knapen_AOT/AOT_stimuli/rescaled_final/0603_fw.mp4	0.0	260.1491861343384	1.008488416671753
55	244.2865436077118	pulse	0	t		53.0	2.5	/experiments/Knapen_AOT/AOT_stimuli/rescaled_final/0603_fw.mp4	0.0	260.7328300476074	
55	244.7113881111145	movie	1		288	53.0	2.5	/experiments/Knapen_AOT/AOT_stimuli/rescaled_final/0603_fw.mp4	0.0	261.15767455101013	2.49202561378479
55	245.88501930236816	pulse	1	t		53.0	2.5	/experiments/Knapen_AOT/AOT_stimuli/rescaled_final/0603_fw.mp4	0.0	262.3313057422638	
55	247.2034137248993	fix_post	2		12	53.0	2.5	/experiments/Knapen_AOT/AOT_stimuli/rescaled_final/0603_fw.mp4	0.0	263.6497001647949	0.10001826286315918
56	247.30343198776245	fix_pre	0		120	54.0	2.5	/experiments/Knapen_AOT/AOT_stimuli/rescaled_final/1075_rv.mp4	0.0	263.7497184276581	1.008500099182129
56	247.48701572418213	pulse	0	t		54.0	2.5	/experiments/Knapen_AOT/AOT_stimuli/rescaled_final/1075_rv.mp4	0.0	263.93330216407776	
56	248.31193208694458	movie	1		286	54.0	2.5	/experiments/Knapen_AOT/AOT_stimuli/rescaled_final/1075_rv.mp4	0.0	264.7582185268402	2.492027997970581
56	249.0870349407196	pulse	1	t		54.0	2.5	/experiments/Knapen_AOT/AOT_stimuli/rescaled_final/1075_rv.mp4	0.0	265.53332138061523	
56	250.68569564819336	pulse	1	t		54.0	2.5	/experiments/Knapen_AOT/AOT_stimuli/rescaled_final/1075_rv.mp4	0.0	267.131982088089	
56	250.80396008491516	fix_post	2		12	54.0	2.5	/experiments/Knapen_AOT/AOT_stimuli/rescaled_final/1075_rv.mp4	0.0	267.2502465248108	0.10003066062927246
57	250.90399074554443	fix_pre	0		120	55.0	2.5	blank	1.0	267.35027718544006	1.0002081394195557
57	251.904198884964	movie	1		300	55.0	2.5	blank	1.0	268.3504853248596	2.500290632247925
57	252.27992391586304	pulse	1	t		55.0	2.5	blank	1.0	268.72621035575867	
57	253.8799705505371	pulse	1	t		55.0	2.5	blank	1.0	270.32625699043274	
57	254.4044895172119	fix_post	2		12	55.0	2.5	blank	1.0	270.85077595710754	0.10004711151123047
58	254.50453662872314	fix_pre	0		118	56.0	2.5	/experiments/Knapen_AOT/AOT_stimuli/rescaled_final/0298_fw.mp4	0.0	270.9508230686188	0.9917902946472168
58	255.47999143600464	pulse	0	t		56.0	2.5	/experiments/Knapen_AOT/AOT_stimuli/rescaled_final/0298_fw.mp4	0.0	271.92627787590027	
58	255.49632692337036	movie	1		289	56.0	2.5	/experiments/Knapen_AOT/AOT_stimuli/rescaled_final/0298_fw.mp4	0.0	271.942613363266	2.500405788421631
58	257.0803134441376	pulse	1	t		56.0	2.5	/experiments/Knapen_AOT/AOT_stimuli/rescaled_final/0298_fw.mp4	0.0	273.5265998840332	
58	257.996732711792	fix_post	2		12	56.0	2.5	/experiments/Knapen_AOT/AOT_stimuli/rescaled_final/0298_fw.mp4	0.0	274.4430191516876	0.09998750686645508
59	258.09672021865845	fix_pre	0		120	57.0	2.5	/experiments/Knapen_AOT/AOT_stimuli/rescaled_final/1235_fw.mp4	0.0	274.5430066585541	1.0085890293121338
59	258.680438041687	pulse	0	t		57.0	2.5	/experiments/Knapen_AOT/AOT_stimuli/rescaled_final/1235_fw.mp4	0.0	275.12672448158264	
59	259.1053092479706	movie	1		276	57.0	2.5	/experiments/Knapen_AOT/AOT_stimuli/rescaled_final/1235_fw.mp4	0.0	275.5515956878662	2.491971731185913
59	260.2807023525238	pulse	1	t		57.0	2.5	/experiments/Knapen_AOT/AOT_stimuli/rescaled_final/1235_fw.mp4	0.0	276.72698879241943	
59	261.5972809791565	fix_post	2		12	57.0	2.5	/experiments/Knapen_AOT/AOT_stimuli/rescaled_final/1235_fw.mp4	0.0	278.0435674190521	0.10001850128173828
60	261.69729948043823	fix_pre	0		120	58.0	2.5	/experiments/Knapen_AOT/AOT_stimuli/rescaled_final/0418_fw.mp4	0.0	278.14358592033386	1.008500576019287
60	261.8808569908142	pulse	0	t		58.0	2.5	/experiments/Knapen_AOT/AOT_stimuli/rescaled_final/0418_fw.mp4	0.0	278.32714343070984	
60	262.7058000564575	movie	1		270	58.0	2.5	/experiments/Knapen_AOT/AOT_stimuli/rescaled_final/0418_fw.mp4	0.0	279.15208649635315	2.4919893741607666
60	263.48105573654175	pulse	1	t		58.0	2.5	/experiments/Knapen_AOT/AOT_stimuli/rescaled_final/0418_fw.mp4	0.0	279.9273421764374	
60	265.0812964439392	pulse	1	t		58.0	2.5	/experiments/Knapen_AOT/AOT_stimuli/rescaled_final/0418_fw.mp4	0.0	281.52758288383484	
60	265.1977894306183	fix_post	2		12	58.0	2.5	/experiments/Knapen_AOT/AOT_stimuli/rescaled_final/0418_fw.mp4	0.0	281.6440758705139	0.10001373291015625
61	265.29780316352844	fix_pre	0		120	59.0	2.5	/experiments/Knapen_AOT/AOT_stimuli/rescaled_final/0571_rv.mp4	0.0	281.7440896034241	1.008608102798462
61	266.3064112663269	movie	1		278	59.0	2.5	/experiments/Knapen_AOT/AOT_stimuli/rescaled_final/0571_rv.mp4	0.0	282.75269770622253	2.491990566253662
61	266.68009543418884	pulse	1	t		59.0	2.5	/experiments/Knapen_AOT/AOT_stimuli/rescaled_final/0571_rv.mp4	0.0	283.1263818740845	
61	268.2805144786835	pulse	1	t		59.0	2.5	/experiments/Knapen_AOT/AOT_stimuli/rescaled_final/0571_rv.mp4	0.0	284.7268009185791	
61	268.79840183258057	fix_post	2		12	59.0	2.5	/experiments/Knapen_AOT/AOT_stimuli/rescaled_final/0571_rv.mp4	0.0	285.2446882724762	0.09998106956481934
62	268.8983829021454	fix_pre	0		119	60.0	2.5	/experiments/Knapen_AOT/AOT_stimuli/rescaled_final/2074_fw.mp4	0.0	285.344669342041	1.0001325607299805
62	269.88208746910095	pulse	0	t		60.0	2.5	/experiments/Knapen_AOT/AOT_stimuli/rescaled_final/2074_fw.mp4	0.0	286.3283739089966	
62	269.89851546287537	movie	1		283	60.0	2.5	/experiments/Knapen_AOT/AOT_stimuli/rescaled_final/2074_fw.mp4	0.0	286.344801902771	2.500361680984497
62	271.4805200099945	pulse	1	t		60.0	2.5	/experiments/Knapen_AOT/AOT_stimuli/rescaled_final/2074_fw.mp4	0.0	287.92680644989014	
62	272.39887714385986	fix_post	2		12	60.0	2.5	/experiments/Knapen_AOT/AOT_stimuli/rescaled_final/2074_fw.mp4	0.0	288.8451635837555	0.10001087188720703
63	272.49888801574707	fix_pre	0		120	61.0	2.5	/experiments/Knapen_AOT/AOT_stimuli/rescaled_final/0422_fw.mp4	0.0	288.9451744556427	1.0085906982421875
63	273.0825355052948	pulse	0	t		61.0	2.5	/experiments/Knapen_AOT/AOT_stimuli/rescaled_final/0422_fw.mp4	0.0	289.52882194519043	
63	273.50747871398926	movie	1		285	61.0	2.5	/experiments/Knapen_AOT/AOT_stimuli/rescaled_final/0422_fw.mp4	0.0	289.9537651538849	2.4919638633728027
63	274.68105483055115	pulse	1	t		61.0	2.5	/experiments/Knapen_AOT/AOT_stimuli/rescaled_final/0422_fw.mp4	0.0	291.1273412704468	
63	275.99944257736206	fix_post	2		12	61.0	2.5	/experiments/Knapen_AOT/AOT_stimuli/rescaled_final/0422_fw.mp4	0.0	292.4457290172577	0.10001039505004883
64	276.0994529724121	fix_pre	0		120	62.0	2.5	blank	1.0	292.54573941230774	1.0001566410064697
64	276.28297448158264	pulse	0	t		62.0	2.5	blank	1.0	292.72926092147827	
64	277.0996096134186	movie	1		300	62.0	2.5	blank	1.0	293.5458960533142	2.5003459453582764
64	277.8832116127014	pulse	1	t		62.0	2.5	blank	1.0	294.32949805259705	
64	279.4836871623993	pulse	1	t		62.0	2.5	blank	1.0	295.9299736022949	
64	279.59995555877686	fix_post	2		12	62.0	2.5	blank	1.0	296.0462419986725	0.10003900527954102
65	279.6999945640564	fix_pre	0		120	63.0	2.5	/experiments/Knapen_AOT/AOT_stimuli/rescaled_final/1551_rv.mp4	0.0	296.146281003952	1.008455753326416
65	280.7084503173828	movie	1		274	63.0	2.5	/experiments/Knapen_AOT/AOT_stimuli/rescaled_final/1551_rv.mp4	0.0	297.15473675727844	2.492105722427368
65	281.0825037956238	pulse	1	t		63.0	2.5	/experiments/Knapen_AOT/AOT_stimuli/rescaled_final/1551_rv.mp4	0.0	297.5287902355194	
65	282.6820785999298	pulse	1	t		63.0	2.5	/experiments/Knapen_AOT/AOT_stimuli/rescaled_final/1551_rv.mp4	0.0	299.12836503982544	
65	283.2005560398102	fix_post	2		12	63.0	2.5	/experiments/Knapen_AOT/AOT_stimuli/rescaled_final/1551_rv.mp4	0.0	299.6468424797058	0.09999752044677734
66	283.30055356025696	fix_pre	0		119	64.0	2.5	/experiments/Knapen_AOT/AOT_stimuli/rescaled_final/2051_fw.mp4	0.0	299.7468400001526	1.0001661777496338
66	284.2842786312103	pulse	0	t		64.0	2.5	/experiments/Knapen_AOT/AOT_stimuli/rescaled_final/2051_fw.mp4	0.0	300.73056507110596	
66	284.3007197380066	movie	1		272	64.0	2.5	/experiments/Knapen_AOT/AOT_stimuli/rescaled_final/2051_fw.mp4	0.0	300.7470061779022	2.500359058380127
66	285.8836259841919	pulse	1	t		64.0	2.5	/experiments/Knapen_AOT/AOT_stimuli/rescaled_final/2051_fw.mp4	0.0	302.3299124240875	
66	286.8010787963867	fix_post	2		12	64.0	2.5	/experiments/Knapen_AOT/AOT_stimuli/rescaled_final/2051_fw.mp4	0.0	303.24736523628235	0.09997868537902832
67	286.90105748176575	fix_pre	0		120	65.0	2.5	/experiments/Knapen_AOT/AOT_stimuli/rescaled_final/2105_fw.mp4	0.0	303.3473439216614	1.0086157321929932
67	287.48534989356995	pulse	0	t		65.0	2.5	/experiments/Knapen_AOT/AOT_stimuli/rescaled_final/2105_fw.mp4	0.0	303.9316363334656	
67	287.90967321395874	movie	1		284	65.0	2.5	/experiments/Knapen_AOT/AOT_stimuli/rescaled_final/2105_fw.mp4	0.0	304.35595965385437	2.49196457862854
67	289.0831825733185	pulse	1	t		65.0	2.5	/experiments/Knapen_AOT/AOT_stimuli/rescaled_final/2105_fw.mp4	0.0	305.5294690132141	
67	290.4016377925873	fix_post	2		12	65.0	2.5	/experiments/Knapen_AOT/AOT_stimuli/rescaled_final/2105_fw.mp4	0.0	306.8479242324829	0.09999728202819824
68	290.5016350746155	fix_pre	0		120	66.0	2.5	/experiments/Knapen_AOT/AOT_stimuli/rescaled_final/0952_fw.mp4	0.0	306.9479215145111	1.0084588527679443
68	290.6851918697357	pulse	0	t		66.0	2.5	/experiments/Knapen_AOT/AOT_stimuli/rescaled_final/0952_fw.mp4	0.0	307.13147830963135	
68	291.5100939273834	movie	1		276	66.0	2.5	/experiments/Knapen_AOT/AOT_stimuli/rescaled_final/0952_fw.mp4	0.0	307.95638036727905	2.4920361042022705
68	292.28364157676697	pulse	1	t		66.0	2.5	/experiments/Knapen_AOT/AOT_stimuli/rescaled_final/0952_fw.mp4	0.0	308.7299280166626	
68	293.88526701927185	pulse	1	t		66.0	2.5	/experiments/Knapen_AOT/AOT_stimuli/rescaled_final/0952_fw.mp4	0.0	310.3315534591675	
68	294.0021300315857	fix_post	2		12	66.0	2.5	/experiments/Knapen_AOT/AOT_stimuli/rescaled_final/0952_fw.mp4	0.0	310.4484164714813	0.1000220775604248
69	294.1021521091461	fix_pre	0		120	67.0	2.5	/experiments/Knapen_AOT/AOT_stimuli/rescaled_final/0878_fw.mp4	0.0	310.54843854904175	1.0085368156433105
69	295.11068892478943	movie	1		282	67.0	2.5	/experiments/Knapen_AOT/AOT_stimuli/rescaled_final/0878_fw.mp4	0.0	311.55697536468506	2.4920284748077393
69	295.4842584133148	pulse	1	t		67.0	2.5	/experiments/Knapen_AOT/AOT_stimuli/rescaled_final/0878_fw.mp4	0.0	311.93054485321045	
69	297.0841979980469	pulse	1	t		67.0	2.5	/experiments/Knapen_AOT/AOT_stimuli/rescaled_final/0878_fw.mp4	0.0	313.5304844379425	
69	297.60271739959717	fix_post	2		12	67.0	2.5	/experiments/Knapen_AOT/AOT_stimuli/rescaled_final/0878_fw.mp4	0.0	314.0490038394928	0.10003352165222168
70	297.7027509212494	fix_pre	0		119	68.0	2.5	/experiments/Knapen_AOT/AOT_stimuli/rescaled_final/1570_fw.mp4	0.0	314.149037361145	1.0001435279846191
70	298.6864149570465	pulse	0	t		68.0	2.5	/experiments/Knapen_AOT/AOT_stimuli/rescaled_final/1570_fw.mp4	0.0	315.13270139694214	
70	298.702894449234	movie	1		275	68.0	2.5	/experiments/Knapen_AOT/AOT_stimuli/rescaled_final/1570_fw.mp4	0.0	315.14918088912964	2.500312328338623
70	300.2851769924164	pulse	1	t		68.0	2.5	/experiments/Knapen_AOT/AOT_stimuli/rescaled_final/1570_fw.mp4	0.0	316.731463432312	
70	301.20320677757263	fix_post	2		12	68.0	2.5	/experiments/Knapen_AOT/AOT_stimuli/rescaled_final/1570_fw.mp4	0.0	317.64949321746826	0.10001897811889648
71	301.3032257556915	fix_pre	0		120	69.0	2.5	blank	1.0	317.74951219558716	1.000136375427246
71	301.8870677947998	pulse	0	t		69.0	2.5	blank	1.0	318.33335423469543	
71	302.3033621311188	movie	1		300	69.0	2.5	blank	1.0	318.7496485710144	2.500544548034668
71	303.4793789386749	pulse	1	t		69.0	2.5	blank	1.0	319.92566537857056	
71	304.80390667915344	fix_post	2		12	69.0	2.5	blank	1.0	321.2501931190491	0.09989023208618164
72	304.9037969112396	fix_pre	0		120	70.0	2.5	/experiments/Knapen_AOT/AOT_stimuli/rescaled_final/1938_fw.mp4	0.0	321.35008335113525	1.0084679126739502
72	305.0793545246124	pulse	0	t		70.0	2.5	/experiments/Knapen_AOT/AOT_stimuli/rescaled_final/1938_fw.mp4	0.0	321.52564096450806	
72	305.9122648239136	movie	1		286	70.0	2.5	/experiments/Knapen_AOT/AOT_stimuli/rescaled_final/1938_fw.mp4	0.0	322.3585512638092	2.4920365810394287
72	306.67943382263184	pulse	1	t		70.0	2.5	/experiments/Knapen_AOT/AOT_stimuli/rescaled_final/1938_fw.mp4	0.0	323.12572026252747	
72	308.2795054912567	pulse	1	t		70.0	2.5	/experiments/Knapen_AOT/AOT_stimuli/rescaled_final/1938_fw.mp4	0.0	324.72579193115234	
72	308.404301404953	fix_post	2		12	70.0	2.5	/experiments/Knapen_AOT/AOT_stimuli/rescaled_final/1938_fw.mp4	0.0	324.85058784484863	0.10000991821289062
73	308.5043113231659	fix_pre	0		120	71.0	2.5	/experiments/Knapen_AOT/AOT_stimuli/rescaled_final/2036_rv.mp4	0.0	324.9505977630615	1.0085537433624268
73	309.5128650665283	movie	1		284	71.0	2.5	/experiments/Knapen_AOT/AOT_stimuli/rescaled_final/2036_rv.mp4	0.0	325.95915150642395	2.4920382499694824
73	309.8797912597656	pulse	1	t		71.0	2.5	/experiments/Knapen_AOT/AOT_stimuli/rescaled_final/2036_rv.mp4	0.0	326.32607769966125	
73	311.48001623153687	pulse	1	t		71.0	2.5	/experiments/Knapen_AOT/AOT_stimuli/rescaled_final/2036_rv.mp4	0.0	327.9263026714325	
73	312.0049033164978	fix_post	2		12	71.0	2.5	/experiments/Knapen_AOT/AOT_stimuli/rescaled_final/2036_rv.mp4	0.0	328.45118975639343	0.10000443458557129
74	312.1049077510834	fix_pre	0		118	72.0	2.5	/experiments/Knapen_AOT/AOT_stimuli/rescaled_final/0984_fw.mp4	0.0	328.551194190979	0.991854190826416
74	313.0802192687988	pulse	0	t		72.0	2.5	/experiments/Knapen_AOT/AOT_stimuli/rescaled_final/0984_fw.mp4	0.0	329.52650570869446	
74	313.0967619419098	movie	1		280	72.0	2.5	/experiments/Knapen_AOT/AOT_stimuli/rescaled_final/0984_fw.mp4	0.0	329.5430483818054	2.500277280807495
74	314.6791157722473	pulse	1	t		72.0	2.5	/experiments/Knapen_AOT/AOT_stimuli/rescaled_final/0984_fw.mp4	0.0	331.12540221214294	
74	315.5970392227173	fix_post	2		12	72.0	2.5	/experiments/Knapen_AOT/AOT_stimuli/rescaled_final/0984_fw.mp4	0.0	332.0433256626129	0.10002946853637695
75	315.69706869125366	fix_pre	0		120	73.0	2.5	/experiments/Knapen_AOT/AOT_stimuli/rescaled_final/1687_rv.mp4	0.0	332.1433551311493	1.0085725784301758
75	316.28094124794006	pulse	0	t		73.0	2.5	/experiments/Knapen_AOT/AOT_stimuli/rescaled_final/1687_rv.mp4	0.0	332.7272276878357	
75	316.70564126968384	movie	1		278	73.0	2.5	/experiments/Knapen_AOT/AOT_stimuli/rescaled_final/1687_rv.mp4	0.0	333.15192770957947	2.4919321537017822
75	317.88096141815186	pulse	1	t		73.0	2.5	/experiments/Knapen_AOT/AOT_stimuli/rescaled_final/1687_rv.mp4	0.0	334.3272478580475	
75	319.1975734233856	fix_post	2		12	73.0	2.5	/experiments/Knapen_AOT/AOT_stimuli/rescaled_final/1687_rv.mp4	0.0	335.64385986328125	0.10004544258117676
76	319.2976188659668	fix_pre	0		120	74.0	2.5	/experiments/Knapen_AOT/AOT_stimuli/rescaled_final/0864_fw.mp4	0.0	335.7439053058624	1.0084798336029053
76	319.4811828136444	pulse	0	t		74.0	2.5	/experiments/Knapen_AOT/AOT_stimuli/rescaled_final/0864_fw.mp4	0.0	335.92746925354004	
76	320.3060986995697	movie	1		271	74.0	2.5	/experiments/Knapen_AOT/AOT_stimuli/rescaled_final/0864_fw.mp4	0.0	336.75238513946533	2.492029905319214
76	321.08143305778503	pulse	1	t		74.0	2.5	/experiments/Knapen_AOT/AOT_stimuli/rescaled_final/0864_fw.mp4	0.0	337.52771949768066	
76	322.6797215938568	pulse	1	t		74.0	2.5	/experiments/Knapen_AOT/AOT_stimuli/rescaled_final/0864_fw.mp4	0.0	339.12600803375244	
76	322.7981286048889	fix_post	2		12	74.0	2.5	/experiments/Knapen_AOT/AOT_stimuli/rescaled_final/0864_fw.mp4	0.0	339.24441504478455	0.10016083717346191
77	322.8982894420624	fix_pre	0		120	75.0	2.5	/experiments/Knapen_AOT/AOT_stimuli/rescaled_final/0256_rv.mp4	0.0	339.344575881958	1.0083703994750977
77	323.9066598415375	movie	1		272	75.0	2.5	/experiments/Knapen_AOT/AOT_stimuli/rescaled_final/0256_rv.mp4	0.0	340.3529462814331	2.4920413494110107
77	324.2813527584076	pulse	1	t		75.0	2.5	/experiments/Knapen_AOT/AOT_stimuli/rescaled_final/0256_rv.mp4	0.0	340.7276391983032	
77	325.8807604312897	pulse	1	t		75.0	2.5	/experiments/Knapen_AOT/AOT_stimuli/rescaled_final/0256_rv.mp4	0.0	342.3270468711853	
77	326.3987011909485	fix_post	2		12	75.0	2.5	/experiments/Knapen_AOT/AOT_stimuli/rescaled_final/0256_rv.mp4	0.0	342.8449876308441	0.09997820854187012
78	326.49867939949036	fix_pre	0		119	76.0	2.5	blank	1.0	342.944965839386	0.9918162822723389
78	327.48241806030273	pulse	0	t		76.0	2.5	blank	1.0	343.92870450019836	
78	327.4904956817627	movie	1		301	76.0	2.5	blank	1.0	343.9367821216583	2.5087051391601562
78	329.08256125450134	pulse	1	t		76.0	2.5	blank	1.0	345.528847694397	
78	329.99920082092285	fix_post	2		12	76.0	2.5	blank	1.0	346.4454872608185	0.10002493858337402
79	330.0992257595062	fix_pre	0		120	77.0	2.5	/experiments/Knapen_AOT/AOT_stimuli/rescaled_final/0058_rv.mp4	0.0	346.54551219940186	1.008469820022583
79	330.68290638923645	pulse	0	t		77.0	2.5	/experiments/Knapen_AOT/AOT_stimuli/rescaled_final/0058_rv.mp4	0.0	347.1291928291321	
79	331.1076955795288	movie	1		277	77.0	2.5	/experiments/Knapen_AOT/AOT_stimuli/rescaled_final/0058_rv.mp4	0.0	347.55398201942444	2.492089033126831
79	332.28126430511475	pulse	1	t		77.0	2.5	/experiments/Knapen_AOT/AOT_stimuli/rescaled_final/0058_rv.mp4	0.0	348.7275507450104	
79	333.59978461265564	fix_post	2		12	77.0	2.5	/experiments/Knapen_AOT/AOT_stimuli/rescaled_final/0058_rv.mp4	0.0	350.04607105255127	0.09999489784240723
80	333.69977951049805	fix_pre	0		120	78.0	2.5	/experiments/Knapen_AOT/AOT_stimuli/rescaled_final/0400_rv.mp4	0.0	350.1460659503937	1.0085744857788086
80	333.88343119621277	pulse	0	t		78.0	2.5	/experiments/Knapen_AOT/AOT_stimuli/rescaled_final/0400_rv.mp4	0.0	350.3297176361084	
80	334.70835399627686	movie	1		276	78.0	2.5	/experiments/Knapen_AOT/AOT_stimuli/rescaled_final/0400_rv.mp4	0.0	351.1546404361725	2.491927146911621
80	335.4815180301666	pulse	1	t		78.0	2.5	/experiments/Knapen_AOT/AOT_stimuli/rescaled_final/0400_rv.mp4	0.0	351.92780447006226	
80	337.08372473716736	pulse	1	t		78.0	2.5	/experiments/Knapen_AOT/AOT_stimuli/rescaled_final/0400_rv.mp4	0.0	353.530011177063	
80	337.2002811431885	fix_post	2		12	78.0	2.5	/experiments/Knapen_AOT/AOT_stimuli/rescaled_final/0400_rv.mp4	0.0	353.6465675830841	0.09999632835388184
81	337.30027747154236	fix_pre	0		120	79.0	2.5	/experiments/Knapen_AOT/AOT_stimuli/rescaled_final/0418_rv.mp4	0.0	353.746563911438	1.0086021423339844
81	338.30887961387634	movie	1		281	79.0	2.5	/experiments/Knapen_AOT/AOT_stimuli/rescaled_final/0418_rv.mp4	0.0	354.755166053772	2.4919586181640625
81	338.68258905410767	pulse	1	t		79.0	2.5	/experiments/Knapen_AOT/AOT_stimuli/rescaled_final/0418_rv.mp4	0.0	355.1288754940033	
81	340.2832291126251	pulse	1	t		79.0	2.5	/experiments/Knapen_AOT/AOT_stimuli/rescaled_final/0418_rv.mp4	0.0	356.72951555252075	
81	340.8008382320404	fix_post	2		12	79.0	2.5	/experiments/Knapen_AOT/AOT_stimuli/rescaled_final/0418_rv.mp4	0.0	357.24712467193604	0.10007429122924805
82	340.90091252326965	fix_pre	0		119	80.0	2.5	/experiments/Knapen_AOT/AOT_stimuli/rescaled_final/0553_fw.mp4	0.0	357.3471989631653	1.0000951290130615
82	341.884565114975	pulse	0	t		80.0	2.5	/experiments/Knapen_AOT/AOT_stimuli/rescaled_final/0553_fw.mp4	0.0	358.3308515548706	
82	341.9010076522827	movie	1		285	80.0	2.5	/experiments/Knapen_AOT/AOT_stimuli/rescaled_final/0553_fw.mp4	0.0	358.34729409217834	2.500368595123291
82	343.48335337638855	pulse	1	t		80.0	2.5	/experiments/Knapen_AOT/AOT_stimuli/rescaled_final/0553_fw.mp4	0.0	359.9296398162842	
82	344.401376247406	fix_post	2		12	80.0	2.5	/experiments/Knapen_AOT/AOT_stimuli/rescaled_final/0553_fw.mp4	0.0	360.84766268730164	0.10001611709594727
83	344.50139236450195	fix_pre	0		120	81.0	2.5	/experiments/Knapen_AOT/AOT_stimuli/rescaled_final/1010_rv.mp4	0.0	360.9476788043976	1.0085008144378662
83	345.0851774215698	pulse	0	t		81.0	2.5	/experiments/Knapen_AOT/AOT_stimuli/rescaled_final/1010_rv.mp4	0.0	361.53146386146545	
83	345.5098931789398	movie	1		256	81.0	2.5	/experiments/Knapen_AOT/AOT_stimuli/rescaled_final/1010_rv.mp4	0.0	361.95617961883545	2.492011070251465
83	346.6855728626251	pulse	1	t		81.0	2.5	/experiments/Knapen_AOT/AOT_stimuli/rescaled_final/1010_rv.mp4	0.0	363.13185930252075	
83	348.0019042491913	fix_post	2		12	81.0	2.5	/experiments/Knapen_AOT/AOT_stimuli/rescaled_final/1010_rv.mp4	0.0	364.4481906890869	0.10004210472106934
84	348.10194635391235	fix_pre	0		120	82.0	2.5	blank	1.0	364.548232793808	1.0001327991485596
84	348.285516500473	pulse	0	t		82.0	2.5	blank	1.0	364.73180294036865	
84	349.1020791530609	movie	1		300	82.0	2.5	blank	1.0	365.54836559295654	2.500365734100342
84	349.8859896659851	pulse	1	t		82.0	2.5	blank	1.0	366.33227610588074	
84	351.48596358299255	pulse	1	t		82.0	2.5	blank	1.0	367.9322500228882	
84	351.60244488716125	fix_post	2		12	82.0	2.5	blank	1.0	368.0487313270569	0.10007071495056152
85	351.7025156021118	fix_pre	0		120	83.0	2.5	/experiments/Knapen_AOT/AOT_stimuli/rescaled_final/0392_fw.mp4	0.0	368.14880204200745	1.008453369140625
85	352.71096897125244	movie	1		269	83.0	2.5	/experiments/Knapen_AOT/AOT_stimuli/rescaled_final/0392_fw.mp4	0.0	369.15725541114807	2.4920315742492676
85	353.0848915576935	pulse	1	t		83.0	2.5	/experiments/Knapen_AOT/AOT_stimuli/rescaled_final/0392_fw.mp4	0.0	369.5311779975891	
85	354.6859941482544	pulse	1	t		83.0	2.5	/experiments/Knapen_AOT/AOT_stimuli/rescaled_final/0392_fw.mp4	0.0	371.13228058815	
85	355.2030005455017	fix_post	2		12	83.0	2.5	/experiments/Knapen_AOT/AOT_stimuli/rescaled_final/0392_fw.mp4	0.0	371.64928698539734	0.1000361442565918
87	355.3030366897583	stim	0		1715					371.74932312965393	14.29379653930664
87	356.28706073760986	pulse	0	t						372.7333471775055	
87	357.8869881629944	pulse	0	t						374.33327460289	
87	359.48734307289124	pulse	0	t						375.93362951278687	
87	361.07980728149414	pulse	0	t						377.52609372138977	
87	362.6797308921814	pulse	0	t						379.126017332077	
87	364.27993965148926	pulse	0	t						380.7262260913849	
87	365.87991976737976	pulse	0	t						382.3262062072754	
87	367.4801285266876	pulse	0	t						383.92641496658325	
87	369.0803599357605	pulse	0	t						385.5266463756561	
