trial_nr	onset	event_type	phase	response	nr_frames	movie_index	movie_duration	movie_file	blank	onset_abs	duration
0	0.13332414627075195	stim	0		109					20.697619199752808	0.9082369804382324
0	1.033607006072998	response	0	space						21.597902059555054	
1	1.0415611267089844	stim	0		2647					21.60585618019104	22.058249950408936
1	23.093961000442505	pulse	0	t						43.65825605392456	
1	23.09981107711792	stim	1		1717					43.664106130599976	14.308372020721436
1	24.691651105880737	pulse	1	t						45.25594615936279	
1	26.291621923446655	pulse	1	t						46.85591697692871	
1	27.891567945480347	pulse	1	t						48.4558629989624	
1	29.491606950759888	pulse	1	t						50.05590200424194	
1	31.09163212776184	pulse	1	t						51.6559271812439	
1	32.69157004356384	pulse	1	t						53.2558650970459	
1	34.29160499572754	pulse	1	t						54.855900049209595	
1	35.891578912734985	pulse	1	t						56.45587396621704	
2	37.408183097839355	fix_pre	0		11	0.0	2.5	/experiments/AOT/AOT_stimuli/rescaled_final/0514_fw.mp4	0.0	57.97247815132141	0.09159183502197266
2	37.491578102111816	pulse	0	t		0.0	2.5	/experiments/AOT/AOT_stimuli/rescaled_final/0514_fw.mp4	0.0	58.05587315559387	
2	37.49977493286133	movie	1		244	0.0	2.5	/experiments/AOT/AOT_stimuli/rescaled_final/0514_fw.mp4	0.0	58.064069986343384	2.5083320140838623
2	39.092535972595215	pulse	1	t		0.0	2.5	/experiments/AOT/AOT_stimuli/rescaled_final/0514_fw.mp4	0.0	59.65683102607727	
2	40.00810694694519	fix_post	2		12	0.0	2.5	/experiments/AOT/AOT_stimuli/rescaled_final/0514_fw.mp4	0.0	60.572402000427246	0.09990501403808594
3	40.108011960983276	fix_pre	0		120	1.0	2.5	/experiments/AOT/AOT_stimuli/rescaled_final/2147_rv.mp4	0.0	60.67230701446533	1.0000290870666504
3	40.69151997566223	pulse	0	t		1.0	2.5	/experiments/AOT/AOT_stimuli/rescaled_final/2147_rv.mp4	0.0	61.25581502914429	
3	41.10804104804993	movie	1		244	1.0	2.5	/experiments/AOT/AOT_stimuli/rescaled_final/2147_rv.mp4	0.0	61.67233610153198	2.5000550746917725
3	42.29165697097778	pulse	1	t		1.0	2.5	/experiments/AOT/AOT_stimuli/rescaled_final/2147_rv.mp4	0.0	62.85595202445984	
3	43.6080961227417	fix_post	2		12	1.0	2.5	/experiments/AOT/AOT_stimuli/rescaled_final/2147_rv.mp4	0.0	64.17239117622375	0.09991598129272461
4	43.708012104034424	fix_pre	0		120	2.0	2.5	/experiments/AOT/AOT_stimuli/rescaled_final/0814_fw.mp4	0.0	64.27230715751648	0.9996428489685059
4	43.89164710044861	pulse	0	t		2.0	2.5	/experiments/AOT/AOT_stimuli/rescaled_final/0814_fw.mp4	0.0	64.45594215393066	
4	44.70765495300293	movie	1		244	2.0	2.5	/experiments/AOT/AOT_stimuli/rescaled_final/0814_fw.mp4	0.0	65.27195000648499	2.5004019737243652
4	45.49144792556763	pulse	1	t		2.0	2.5	/experiments/AOT/AOT_stimuli/rescaled_final/0814_fw.mp4	0.0	66.05574297904968	
4	47.09022092819214	pulse	1	t		2.0	2.5	/experiments/AOT/AOT_stimuli/rescaled_final/0814_fw.mp4	0.0	67.6545159816742	
4	47.208056926727295	fix_post	2		12	2.0	2.5	/experiments/AOT/AOT_stimuli/rescaled_final/0814_fw.mp4	0.0	67.77235198020935	0.09993219375610352
5	47.3079891204834	fix_pre	0		120	3.0	2.5	/experiments/AOT/AOT_stimuli/rescaled_final/1278_rv.mp4	0.0	67.87228417396545	1.0000410079956055
5	48.308030128479004	movie	1		244	3.0	2.5	/experiments/AOT/AOT_stimuli/rescaled_final/1278_rv.mp4	0.0	68.87232518196106	2.4999678134918213
5	48.69140911102295	pulse	1	t		3.0	2.5	/experiments/AOT/AOT_stimuli/rescaled_final/1278_rv.mp4	0.0	69.255704164505	
5	50.291603088378906	pulse	1	t		3.0	2.5	/experiments/AOT/AOT_stimuli/rescaled_final/1278_rv.mp4	0.0	70.85589814186096	
5	50.807997941970825	fix_post	2		12	3.0	2.5	/experiments/AOT/AOT_stimuli/rescaled_final/1278_rv.mp4	0.0	71.37229299545288	0.09958004951477051
6	50.907577991485596	fix_pre	0		119	4.0	2.5	/experiments/AOT/AOT_stimuli/rescaled_final/0184_rv.mp4	0.0	71.47187304496765	0.9921479225158691
6	51.89154005050659	pulse	0	t		4.0	2.5	/experiments/AOT/AOT_stimuli/rescaled_final/0184_rv.mp4	0.0	72.45583510398865	
6	51.899725914001465	movie	1		247	4.0	2.5	/experiments/AOT/AOT_stimuli/rescaled_final/0184_rv.mp4	0.0	72.46402096748352	2.50832200050354
6	53.49167799949646	pulse	1	t		4.0	2.5	/experiments/AOT/AOT_stimuli/rescaled_final/0184_rv.mp4	0.0	74.05597305297852	
6	54.408047914505005	fix_post	2		12	4.0	2.5	/experiments/AOT/AOT_stimuli/rescaled_final/0184_rv.mp4	0.0	74.97234296798706	0.09994721412658691
7	54.50799512863159	fix_pre	0		120	5.0	2.5	/experiments/AOT/AOT_stimuli/rescaled_final/0748_rv.mp4	0.0	75.07229018211365	1.0000858306884766
7	55.09157395362854	pulse	0	t		5.0	2.5	/experiments/AOT/AOT_stimuli/rescaled_final/0748_rv.mp4	0.0	75.6558690071106	
7	55.50808095932007	movie	1		247	5.0	2.5	/experiments/AOT/AOT_stimuli/rescaled_final/0748_rv.mp4	0.0	76.07237601280212	2.49991512298584
7	56.6915979385376	pulse	1	t		5.0	2.5	/experiments/AOT/AOT_stimuli/rescaled_final/0748_rv.mp4	0.0	77.25589299201965	
7	58.00799608230591	fix_post	2		12	5.0	2.5	/experiments/AOT/AOT_stimuli/rescaled_final/0748_rv.mp4	0.0	78.57229113578796	0.10006499290466309
8	58.10806107521057	fix_pre	0		120	6.0	2.5	blank	1.0	78.67235612869263	0.9999120235443115
8	58.29149103164673	pulse	0	t		6.0	2.5	blank	1.0	78.85578608512878	
8	59.10797309875488	movie	1		300	6.0	2.5	blank	1.0	79.67226815223694	2.500066041946411
8	59.89144992828369	pulse	1	t		6.0	2.5	blank	1.0	80.45574498176575	
8	61.49138808250427	pulse	1	t		6.0	2.5	blank	1.0	82.05568313598633	
8	61.608039140701294	fix_post	2		12	6.0	2.5	blank	1.0	82.17233419418335	0.09946298599243164
9	61.707502126693726	fix_pre	0		120	7.0	2.5	/experiments/AOT/AOT_stimuli/rescaled_final/1035_fw.mp4	0.0	82.27179718017578	1.0005009174346924
9	62.70800304412842	movie	1		244	7.0	2.5	/experiments/AOT/AOT_stimuli/rescaled_final/1035_fw.mp4	0.0	83.27229809761047	2.4999310970306396
9	63.091150999069214	pulse	1	t		7.0	2.5	/experiments/AOT/AOT_stimuli/rescaled_final/1035_fw.mp4	0.0	83.65544605255127	
9	64.6915180683136	pulse	1	t		7.0	2.5	/experiments/AOT/AOT_stimuli/rescaled_final/1035_fw.mp4	0.0	85.25581312179565	
9	65.20793414115906	fix_post	2		12	7.0	2.5	/experiments/AOT/AOT_stimuli/rescaled_final/1035_fw.mp4	0.0	85.77222919464111	0.09998583793640137
10	65.30791997909546	fix_pre	0		119	8.0	2.5	/experiments/AOT/AOT_stimuli/rescaled_final/2147_fw.mp4	0.0	85.87221503257751	0.9917011260986328
10	66.29148197174072	pulse	0	t		8.0	2.5	/experiments/AOT/AOT_stimuli/rescaled_final/2147_fw.mp4	0.0	86.85577702522278	
10	66.29962110519409	movie	1		245	8.0	2.5	/experiments/AOT/AOT_stimuli/rescaled_final/2147_fw.mp4	0.0	86.86391615867615	2.5083258152008057
10	67.89122200012207	pulse	1	t		8.0	2.5	/experiments/AOT/AOT_stimuli/rescaled_final/2147_fw.mp4	0.0	88.45551705360413	
10	68.8079469203949	fix_post	2		12	8.0	2.5	/experiments/AOT/AOT_stimuli/rescaled_final/2147_fw.mp4	0.0	89.37224197387695	0.10027003288269043
11	68.90821695327759	fix_pre	0		120	9.0	2.5	/experiments/AOT/AOT_stimuli/rescaled_final/0081_rv.mp4	0.0	89.47251200675964	0.9997401237487793
11	69.49139595031738	pulse	0	t		9.0	2.5	/experiments/AOT/AOT_stimuli/rescaled_final/0081_rv.mp4	0.0	90.05569100379944	
11	69.90795707702637	movie	1		243	9.0	2.5	/experiments/AOT/AOT_stimuli/rescaled_final/0081_rv.mp4	0.0	90.47225213050842	2.500192880630493
11	71.09143495559692	pulse	1	t		9.0	2.5	/experiments/AOT/AOT_stimuli/rescaled_final/0081_rv.mp4	0.0	91.65573000907898	
11	72.40814995765686	fix_post	2		12	9.0	2.5	/experiments/AOT/AOT_stimuli/rescaled_final/0081_rv.mp4	0.0	92.97244501113892	0.09989500045776367
12	72.50804495811462	fix_pre	0		120	10.0	2.5	/experiments/AOT/AOT_stimuli/rescaled_final/1308_rv.mp4	0.0	93.07234001159668	0.9999740123748779
12	72.69149398803711	pulse	0	t		10.0	2.5	/experiments/AOT/AOT_stimuli/rescaled_final/1308_rv.mp4	0.0	93.25578904151917	
12	73.5080189704895	movie	1		245	10.0	2.5	/experiments/AOT/AOT_stimuli/rescaled_final/1308_rv.mp4	0.0	94.07231402397156	2.4996869564056396
12	74.29098296165466	pulse	1	t		10.0	2.5	/experiments/AOT/AOT_stimuli/rescaled_final/1308_rv.mp4	0.0	94.85527801513672	
12	75.89015412330627	pulse	1	t		10.0	2.5	/experiments/AOT/AOT_stimuli/rescaled_final/1308_rv.mp4	0.0	96.45444917678833	
12	76.00770592689514	fix_post	2		12	10.0	2.5	/experiments/AOT/AOT_stimuli/rescaled_final/1308_rv.mp4	0.0	96.5720009803772	0.09999203681945801
13	76.1076979637146	fix_pre	0		120	11.0	2.5	/experiments/AOT/AOT_stimuli/rescaled_final/1922_rv.mp4	0.0	96.67199301719666	1.000157117843628
13	77.10785508155823	movie	1		244	11.0	2.5	/experiments/AOT/AOT_stimuli/rescaled_final/1922_rv.mp4	0.0	97.67215013504028	2.5001120567321777
13	77.49109292030334	pulse	1	t		11.0	2.5	/experiments/AOT/AOT_stimuli/rescaled_final/1922_rv.mp4	0.0	98.0553879737854	
13	79.09134602546692	pulse	1	t		11.0	2.5	/experiments/AOT/AOT_stimuli/rescaled_final/1922_rv.mp4	0.0	99.65564107894897	
13	79.6079671382904	fix_post	2		12	11.0	2.5	/experiments/AOT/AOT_stimuli/rescaled_final/1922_rv.mp4	0.0	100.17226219177246	0.09991598129272461
14	79.70788311958313	fix_pre	0		119	12.0	2.5	/experiments/AOT/AOT_stimuli/rescaled_final/1670_rv.mp4	0.0	100.27217817306519	0.9916620254516602
14	80.69143295288086	pulse	0	t		12.0	2.5	/experiments/AOT/AOT_stimuli/rescaled_final/1670_rv.mp4	0.0	101.25572800636292	
14	80.69954514503479	movie	1		246	12.0	2.5	/experiments/AOT/AOT_stimuli/rescaled_final/1670_rv.mp4	0.0	101.26384019851685	2.5083088874816895
14	82.2909939289093	pulse	1	t		12.0	2.5	/experiments/AOT/AOT_stimuli/rescaled_final/1670_rv.mp4	0.0	102.85528898239136	
14	83.20785403251648	fix_post	2		12	12.0	2.5	/experiments/AOT/AOT_stimuli/rescaled_final/1670_rv.mp4	0.0	103.77214908599854	0.10008001327514648
15	83.30793404579163	fix_pre	0		120	13.0	2.5	blank	1.0	103.87222909927368	0.9999170303344727
15	83.89145302772522	pulse	0	t		13.0	2.5	blank	1.0	104.45574808120728	
15	84.3078510761261	movie	1		300	13.0	2.5	blank	1.0	104.87214612960815	2.4999148845672607
15	85.49134111404419	pulse	1	t		13.0	2.5	blank	1.0	106.05563616752625	
15	86.80776596069336	fix_post	2		12	13.0	2.5	blank	1.0	107.37206101417542	0.10005998611450195
16	86.90782594680786	fix_pre	0		120	14.0	2.5	/experiments/AOT/AOT_stimuli/rescaled_final/0187_fw.mp4	0.0	107.47212100028992	1.000002145767212
16	87.09132313728333	pulse	0	t		14.0	2.5	/experiments/AOT/AOT_stimuli/rescaled_final/0187_fw.mp4	0.0	107.65561819076538	
16	87.90782809257507	movie	1		244	14.0	2.5	/experiments/AOT/AOT_stimuli/rescaled_final/0187_fw.mp4	0.0	108.47212314605713	2.4999959468841553
16	88.69128513336182	pulse	1	t		14.0	2.5	/experiments/AOT/AOT_stimuli/rescaled_final/0187_fw.mp4	0.0	109.25558018684387	
16	90.28980898857117	pulse	1	t		14.0	2.5	/experiments/AOT/AOT_stimuli/rescaled_final/0187_fw.mp4	0.0	110.85410404205322	
16	90.40782403945923	fix_post	2		12	14.0	2.5	/experiments/AOT/AOT_stimuli/rescaled_final/0187_fw.mp4	0.0	110.97211909294128	0.09997296333312988
17	90.50779700279236	fix_pre	0		120	15.0	2.5	/experiments/AOT/AOT_stimuli/rescaled_final/2097_rv.mp4	0.0	111.07209205627441	1.000011920928955
17	91.50780892372131	movie	1		243	15.0	2.5	/experiments/AOT/AOT_stimuli/rescaled_final/2097_rv.mp4	0.0	112.07210397720337	2.5000391006469727
17	91.89111804962158	pulse	1	t		15.0	2.5	/experiments/AOT/AOT_stimuli/rescaled_final/2097_rv.mp4	0.0	112.45541310310364	
17	93.49114894866943	pulse	1	t		15.0	2.5	/experiments/AOT/AOT_stimuli/rescaled_final/2097_rv.mp4	0.0	114.05544400215149	
17	94.00784802436829	fix_post	2		12	15.0	2.5	/experiments/AOT/AOT_stimuli/rescaled_final/2097_rv.mp4	0.0	114.57214307785034	0.09995198249816895
18	94.10780000686646	fix_pre	0		119	16.0	2.5	/experiments/AOT/AOT_stimuli/rescaled_final/1361_rv.mp4	0.0	114.67209506034851	0.9917221069335938
18	95.09136009216309	pulse	0	t		16.0	2.5	/experiments/AOT/AOT_stimuli/rescaled_final/1361_rv.mp4	0.0	115.65565514564514	
18	95.09952211380005	movie	1		246	16.0	2.5	/experiments/AOT/AOT_stimuli/rescaled_final/1361_rv.mp4	0.0	115.6638171672821	2.5079360008239746
18	96.69098591804504	pulse	1	t		16.0	2.5	/experiments/AOT/AOT_stimuli/rescaled_final/1361_rv.mp4	0.0	117.2552809715271	
18	97.60745811462402	fix_post	2		12	16.0	2.5	/experiments/AOT/AOT_stimuli/rescaled_final/1361_rv.mp4	0.0	118.17175316810608	0.10030794143676758
19	97.70776605606079	fix_pre	0		120	17.0	2.5	/experiments/AOT/AOT_stimuli/rescaled_final/1805_fw.mp4	0.0	118.27206110954285	1.0000388622283936
19	98.29128813743591	pulse	0	t		17.0	2.5	/experiments/AOT/AOT_stimuli/rescaled_final/1805_fw.mp4	0.0	118.85558319091797	
19	98.70780491828918	movie	1		246	17.0	2.5	/experiments/AOT/AOT_stimuli/rescaled_final/1805_fw.mp4	0.0	119.27209997177124	2.499998092651367
19	99.89136791229248	pulse	1	t		17.0	2.5	/experiments/AOT/AOT_stimuli/rescaled_final/1805_fw.mp4	0.0	120.45566296577454	
19	101.20780301094055	fix_post	2		12	17.0	2.5	/experiments/AOT/AOT_stimuli/rescaled_final/1805_fw.mp4	0.0	121.77209806442261	0.09999203681945801
20	101.30779504776001	fix_pre	0		120	18.0	2.5	/experiments/AOT/AOT_stimuli/rescaled_final/0321_fw.mp4	0.0	121.87209010124207	1.0000569820404053
20	101.49129605293274	pulse	0	t		18.0	2.5	/experiments/AOT/AOT_stimuli/rescaled_final/0321_fw.mp4	0.0	122.0555911064148	
20	102.30785202980042	movie	1		244	18.0	2.5	/experiments/AOT/AOT_stimuli/rescaled_final/0321_fw.mp4	0.0	122.87214708328247	2.4999349117279053
20	103.09124493598938	pulse	1	t		18.0	2.5	/experiments/AOT/AOT_stimuli/rescaled_final/0321_fw.mp4	0.0	123.65553998947144	
20	104.68953204154968	pulse	1	t		18.0	2.5	/experiments/AOT/AOT_stimuli/rescaled_final/0321_fw.mp4	0.0	125.25382709503174	
20	104.80778694152832	fix_post	2		12	18.0	2.5	/experiments/AOT/AOT_stimuli/rescaled_final/0321_fw.mp4	0.0	125.37208199501038	0.09993910789489746
21	104.90772604942322	fix_pre	0		120	19.0	2.5	/experiments/AOT/AOT_stimuli/rescaled_final/2163_fw.mp4	0.0	125.47202110290527	1.000053882598877
21	105.9077799320221	movie	1		246	19.0	2.5	/experiments/AOT/AOT_stimuli/rescaled_final/2163_fw.mp4	0.0	126.47207498550415	2.4999301433563232
21	106.29235196113586	pulse	1	t		19.0	2.5	/experiments/AOT/AOT_stimuli/rescaled_final/2163_fw.mp4	0.0	126.85664701461792	
21	107.89127206802368	pulse	1	t		19.0	2.5	/experiments/AOT/AOT_stimuli/rescaled_final/2163_fw.mp4	0.0	128.45556712150574	
21	108.40771007537842	fix_post	2		12	19.0	2.5	/experiments/AOT/AOT_stimuli/rescaled_final/2163_fw.mp4	0.0	128.97200512886047	0.10004186630249023
22	108.50775194168091	fix_pre	0		119	20.0	2.5	blank	1.0	129.07204699516296	0.9916579723358154
22	109.4911720752716	pulse	0	t		20.0	2.5	blank	1.0	130.05546712875366	
22	109.49940991401672	movie	1		301	20.0	2.5	blank	1.0	130.06370496749878	2.508277177810669
22	111.09128499031067	pulse	1	t		20.0	2.5	blank	1.0	131.65558004379272	
22	112.00768709182739	fix_post	2		12	20.0	2.5	blank	1.0	132.57198214530945	0.0999898910522461
23	112.10767698287964	fix_pre	0		120	21.0	2.5	/experiments/AOT/AOT_stimuli/rescaled_final/1874_rv.mp4	0.0	132.6719720363617	1.0000910758972168
23	112.6912190914154	pulse	0	t		21.0	2.5	/experiments/AOT/AOT_stimuli/rescaled_final/1874_rv.mp4	0.0	133.25551414489746	
23	113.10776805877686	movie	1		244	21.0	2.5	/experiments/AOT/AOT_stimuli/rescaled_final/1874_rv.mp4	0.0	133.6720631122589	2.4999258518218994
23	114.29136300086975	pulse	1	t		21.0	2.5	/experiments/AOT/AOT_stimuli/rescaled_final/1874_rv.mp4	0.0	134.8556580543518	
23	115.60769391059875	fix_post	2		12	21.0	2.5	/experiments/AOT/AOT_stimuli/rescaled_final/1874_rv.mp4	0.0	136.1719889640808	0.10001420974731445
24	115.70770812034607	fix_pre	0		120	22.0	2.5	/experiments/AOT/AOT_stimuli/rescaled_final/0793_rv.mp4	0.0	136.27200317382812	1.0000278949737549
24	115.89119791984558	pulse	0	t		22.0	2.5	/experiments/AOT/AOT_stimuli/rescaled_final/0793_rv.mp4	0.0	136.45549297332764	
24	116.70773601531982	movie	1		244	22.0	2.5	/experiments/AOT/AOT_stimuli/rescaled_final/0793_rv.mp4	0.0	137.27203106880188	2.499924898147583
24	117.49126601219177	pulse	1	t		22.0	2.5	/experiments/AOT/AOT_stimuli/rescaled_final/0793_rv.mp4	0.0	138.05556106567383	
24	119.08941602706909	pulse	1	t		22.0	2.5	/experiments/AOT/AOT_stimuli/rescaled_final/0793_rv.mp4	0.0	139.65371108055115	
24	119.20766091346741	fix_post	2		12	22.0	2.5	/experiments/AOT/AOT_stimuli/rescaled_final/0793_rv.mp4	0.0	139.77195596694946	0.1000370979309082
25	119.30769801139832	fix_pre	0		120	23.0	2.5	/experiments/AOT/AOT_stimuli/rescaled_final/0636_fw.mp4	0.0	139.87199306488037	0.999985933303833
25	120.30768394470215	movie	1		244	23.0	2.5	/experiments/AOT/AOT_stimuli/rescaled_final/0636_fw.mp4	0.0	140.8719789981842	2.5000669956207275
25	120.69062995910645	pulse	1	t		23.0	2.5	/experiments/AOT/AOT_stimuli/rescaled_final/0636_fw.mp4	0.0	141.2549250125885	
25	122.2912449836731	pulse	1	t		23.0	2.5	/experiments/AOT/AOT_stimuli/rescaled_final/0636_fw.mp4	0.0	142.85554003715515	
25	122.80775094032288	fix_post	2		12	23.0	2.5	/experiments/AOT/AOT_stimuli/rescaled_final/0636_fw.mp4	0.0	143.37204599380493	0.09988617897033691
26	122.90763711929321	fix_pre	0		119	24.0	2.5	/experiments/AOT/AOT_stimuli/rescaled_final/2086_fw.mp4	0.0	143.47193217277527	0.9916749000549316
26	123.89119601249695	pulse	0	t		24.0	2.5	/experiments/AOT/AOT_stimuli/rescaled_final/2086_fw.mp4	0.0	144.455491065979	
26	123.89931201934814	movie	1		245	24.0	2.5	/experiments/AOT/AOT_stimuli/rescaled_final/2086_fw.mp4	0.0	144.4636070728302	2.5082740783691406
26	125.4908881187439	pulse	1	t		24.0	2.5	/experiments/AOT/AOT_stimuli/rescaled_final/2086_fw.mp4	0.0	146.05518317222595	
26	126.40758609771729	fix_post	2		12	24.0	2.5	/experiments/AOT/AOT_stimuli/rescaled_final/2086_fw.mp4	0.0	146.97188115119934	0.10003900527954102
27	126.50762510299683	fix_pre	0		120	25.0	2.5	/experiments/AOT/AOT_stimuli/rescaled_final/0022_fw.mp4	0.0	147.07192015647888	1.000082015991211
27	127.09126091003418	pulse	0	t		25.0	2.5	/experiments/AOT/AOT_stimuli/rescaled_final/0022_fw.mp4	0.0	147.65555596351624	
27	127.50770711898804	movie	1		250	25.0	2.5	/experiments/AOT/AOT_stimuli/rescaled_final/0022_fw.mp4	0.0	148.0720021724701	2.4995529651641846
27	128.6911759376526	pulse	1	t		25.0	2.5	/experiments/AOT/AOT_stimuli/rescaled_final/0022_fw.mp4	0.0	149.25547099113464	
27	130.00726008415222	fix_post	2		12	25.0	2.5	/experiments/AOT/AOT_stimuli/rescaled_final/0022_fw.mp4	0.0	150.57155513763428	0.1000518798828125
28	130.10731196403503	fix_pre	0		120	26.0	2.5	/experiments/AOT/AOT_stimuli/rescaled_final/0843_rv.mp4	0.0	150.6716070175171	1.0000901222229004
28	130.29073095321655	pulse	0	t		26.0	2.5	/experiments/AOT/AOT_stimuli/rescaled_final/0843_rv.mp4	0.0	150.8550260066986	
28	131.10740208625793	movie	1		245	26.0	2.5	/experiments/AOT/AOT_stimuli/rescaled_final/0843_rv.mp4	0.0	151.67169713974	2.5002410411834717
28	131.89138293266296	pulse	1	t		26.0	2.5	/experiments/AOT/AOT_stimuli/rescaled_final/0843_rv.mp4	0.0	152.45567798614502	
28	133.4894940853119	pulse	1	t		26.0	2.5	/experiments/AOT/AOT_stimuli/rescaled_final/0843_rv.mp4	0.0	154.05378913879395	
28	133.6076431274414	fix_post	2		12	26.0	2.5	/experiments/AOT/AOT_stimuli/rescaled_final/0843_rv.mp4	0.0	154.17193818092346	0.10003399848937988
29	133.7076771259308	fix_pre	0		120	27.0	2.5	/experiments/AOT/AOT_stimuli/rescaled_final/1303_fw.mp4	0.0	154.27197217941284	0.999957799911499
29	134.70763492584229	movie	1		243	27.0	2.5	/experiments/AOT/AOT_stimuli/rescaled_final/1303_fw.mp4	0.0	155.27192997932434	2.500023126602173
29	135.09072995185852	pulse	1	t		27.0	2.5	/experiments/AOT/AOT_stimuli/rescaled_final/1303_fw.mp4	0.0	155.65502500534058	
29	136.69104504585266	pulse	1	t		27.0	2.5	/experiments/AOT/AOT_stimuli/rescaled_final/1303_fw.mp4	0.0	157.25534009933472	
29	137.20765805244446	fix_post	2		12	27.0	2.5	/experiments/AOT/AOT_stimuli/rescaled_final/1303_fw.mp4	0.0	157.7719531059265	0.09994006156921387
30	137.30759811401367	fix_pre	0		119	28.0	2.5	blank	1.0	157.87189316749573	0.9916338920593262
30	138.29098391532898	pulse	0	t		28.0	2.5	blank	1.0	158.85527896881104	
30	138.299232006073	movie	1		301	28.0	2.5	blank	1.0	158.86352705955505	2.5083320140838623
30	139.8911521434784	pulse	1	t		28.0	2.5	blank	1.0	160.45544719696045	
30	140.80756402015686	fix_post	2		12	28.0	2.5	blank	1.0	161.37185907363892	0.09999895095825195
31	140.9075629711151	fix_pre	0		120	29.0	2.5	/experiments/AOT/AOT_stimuli/rescaled_final/2029_rv.mp4	0.0	161.47185802459717	0.9997150897979736
31	141.4910979270935	pulse	0	t		29.0	2.5	/experiments/AOT/AOT_stimuli/rescaled_final/2029_rv.mp4	0.0	162.05539298057556	
31	141.9072780609131	movie	1		246	29.0	2.5	/experiments/AOT/AOT_stimuli/rescaled_final/2029_rv.mp4	0.0	162.47157311439514	2.5002329349517822
31	143.09116911888123	pulse	1	t		29.0	2.5	/experiments/AOT/AOT_stimuli/rescaled_final/2029_rv.mp4	0.0	163.65546417236328	
31	144.40751099586487	fix_post	2		12	29.0	2.5	/experiments/AOT/AOT_stimuli/rescaled_final/2029_rv.mp4	0.0	164.97180604934692	0.10008096694946289
32	144.50759196281433	fix_pre	0		120	30.0	2.5	/experiments/AOT/AOT_stimuli/rescaled_final/0564_rv.mp4	0.0	165.0718870162964	0.9999711513519287
32	144.69118809700012	pulse	0	t		30.0	2.5	/experiments/AOT/AOT_stimuli/rescaled_final/0564_rv.mp4	0.0	165.25548315048218	
32	145.50756311416626	movie	1		244	30.0	2.5	/experiments/AOT/AOT_stimuli/rescaled_final/0564_rv.mp4	0.0	166.07185816764832	2.4999938011169434
32	146.29095101356506	pulse	1	t		30.0	2.5	/experiments/AOT/AOT_stimuli/rescaled_final/0564_rv.mp4	0.0	166.85524606704712	
32	147.88938903808594	pulse	1	t		30.0	2.5	/experiments/AOT/AOT_stimuli/rescaled_final/0564_rv.mp4	0.0	168.453684091568	
32	148.0075569152832	fix_post	2		12	30.0	2.5	/experiments/AOT/AOT_stimuli/rescaled_final/0564_rv.mp4	0.0	168.57185196876526	0.09996819496154785
33	148.10752511024475	fix_pre	0		120	31.0	2.5	/experiments/AOT/AOT_stimuli/rescaled_final/0364_fw.mp4	0.0	168.6718201637268	1.0001049041748047
33	149.10763001441956	movie	1		247	31.0	2.5	/experiments/AOT/AOT_stimuli/rescaled_final/0364_fw.mp4	0.0	169.6719250679016	2.499437093734741
33	149.49078607559204	pulse	1	t		31.0	2.5	/experiments/AOT/AOT_stimuli/rescaled_final/0364_fw.mp4	0.0	170.0550811290741	
33	151.09108996391296	pulse	1	t		31.0	2.5	/experiments/AOT/AOT_stimuli/rescaled_final/0364_fw.mp4	0.0	171.65538501739502	
33	151.6070671081543	fix_post	2		12	31.0	2.5	/experiments/AOT/AOT_stimuli/rescaled_final/0364_fw.mp4	0.0	172.17136216163635	0.10056281089782715
34	151.70762991905212	fix_pre	0		119	32.0	2.5	/experiments/AOT/AOT_stimuli/rescaled_final/0675_rv.mp4	0.0	172.27192497253418	0.9915211200714111
34	152.69103407859802	pulse	0	t		32.0	2.5	/experiments/AOT/AOT_stimuli/rescaled_final/0675_rv.mp4	0.0	173.25532913208008	
34	152.69915103912354	movie	1		244	32.0	2.5	/experiments/AOT/AOT_stimuli/rescaled_final/0675_rv.mp4	0.0	173.2634460926056	2.5079410076141357
34	154.29072403907776	pulse	1	t		32.0	2.5	/experiments/AOT/AOT_stimuli/rescaled_final/0675_rv.mp4	0.0	174.85501909255981	
34	155.20709204673767	fix_post	2		12	32.0	2.5	/experiments/AOT/AOT_stimuli/rescaled_final/0675_rv.mp4	0.0	175.77138710021973	0.10036492347717285
35	155.30745697021484	fix_pre	0		120	33.0	2.5	/experiments/AOT/AOT_stimuli/rescaled_final/0734_rv.mp4	0.0	175.8717520236969	0.9996609687805176
35	155.89102792739868	pulse	0	t		33.0	2.5	/experiments/AOT/AOT_stimuli/rescaled_final/0734_rv.mp4	0.0	176.45532298088074	
35	156.30711793899536	movie	1		243	33.0	2.5	/experiments/AOT/AOT_stimuli/rescaled_final/0734_rv.mp4	0.0	176.87141299247742	2.5004231929779053
35	157.49114799499512	pulse	1	t		33.0	2.5	/experiments/AOT/AOT_stimuli/rescaled_final/0734_rv.mp4	0.0	178.05544304847717	
35	158.80754113197327	fix_post	2		12	33.0	2.5	/experiments/AOT/AOT_stimuli/rescaled_final/0734_rv.mp4	0.0	179.37183618545532	0.09996199607849121
36	158.90750312805176	fix_pre	0		120	34.0	2.5	/experiments/AOT/AOT_stimuli/rescaled_final/1805_rv.mp4	0.0	179.4717981815338	1.00003981590271
36	159.0910201072693	pulse	0	t		34.0	2.5	/experiments/AOT/AOT_stimuli/rescaled_final/1805_rv.mp4	0.0	179.65531516075134	
36	159.90754294395447	movie	1		243	34.0	2.5	/experiments/AOT/AOT_stimuli/rescaled_final/1805_rv.mp4	0.0	180.47183799743652	2.4995620250701904
36	160.69103503227234	pulse	1	t		34.0	2.5	/experiments/AOT/AOT_stimuli/rescaled_final/1805_rv.mp4	0.0	181.2553300857544	
36	162.28973293304443	pulse	1	t		34.0	2.5	/experiments/AOT/AOT_stimuli/rescaled_final/1805_rv.mp4	0.0	182.8540279865265	
36	162.40710496902466	fix_post	2		12	34.0	2.5	/experiments/AOT/AOT_stimuli/rescaled_final/1805_rv.mp4	0.0	182.9714000225067	0.10039305686950684
37	162.50749802589417	fix_pre	0		120	35.0	2.5	blank	1.0	183.07179307937622	1.000011920928955
37	163.50750994682312	movie	1		300	35.0	2.5	blank	1.0	184.07180500030518	2.499941110610962
37	163.89102292060852	pulse	1	t		35.0	2.5	blank	1.0	184.45531797409058	
37	165.49094796180725	pulse	1	t		35.0	2.5	blank	1.0	186.0552430152893	
37	166.00745105743408	fix_post	2		12	35.0	2.5	blank	1.0	186.57174611091614	0.09993600845336914
38	166.10738706588745	fix_pre	0		119	36.0	2.5	/experiments/AOT/AOT_stimuli/rescaled_final/0552_fw.mp4	0.0	186.6716821193695	0.9918649196624756
38	167.09100103378296	pulse	0	t		36.0	2.5	/experiments/AOT/AOT_stimuli/rescaled_final/0552_fw.mp4	0.0	187.65529608726501	
38	167.09925198554993	movie	1		247	36.0	2.5	/experiments/AOT/AOT_stimuli/rescaled_final/0552_fw.mp4	0.0	187.66354703903198	2.508388042449951
38	168.69051313400269	pulse	1	t		36.0	2.5	/experiments/AOT/AOT_stimuli/rescaled_final/0552_fw.mp4	0.0	189.25480818748474	
38	169.60764002799988	fix_post	2		12	36.0	2.5	/experiments/AOT/AOT_stimuli/rescaled_final/0552_fw.mp4	0.0	190.17193508148193	0.09975004196166992
39	169.70739006996155	fix_pre	0		120	37.0	2.5	/experiments/AOT/AOT_stimuli/rescaled_final/1901_rv.mp4	0.0	190.2716851234436	1.0000500679016113
39	170.2909450531006	pulse	0	t		37.0	2.5	/experiments/AOT/AOT_stimuli/rescaled_final/1901_rv.mp4	0.0	190.85524010658264	
39	170.70744013786316	movie	1		244	37.0	2.5	/experiments/AOT/AOT_stimuli/rescaled_final/1901_rv.mp4	0.0	191.27173519134521	2.5
39	171.89110493659973	pulse	1	t		37.0	2.5	/experiments/AOT/AOT_stimuli/rescaled_final/1901_rv.mp4	0.0	192.4553999900818	
39	173.20744013786316	fix_post	2		12	37.0	2.5	/experiments/AOT/AOT_stimuli/rescaled_final/1901_rv.mp4	0.0	193.77173519134521	0.09995198249816895
40	173.30739212036133	fix_pre	0		120	38.0	2.5	/experiments/AOT/AOT_stimuli/rescaled_final/1128_fw.mp4	0.0	193.87168717384338	1.0000708103179932
40	173.49096393585205	pulse	0	t		38.0	2.5	/experiments/AOT/AOT_stimuli/rescaled_final/1128_fw.mp4	0.0	194.0552589893341	
40	174.30746293067932	movie	1		245	38.0	2.5	/experiments/AOT/AOT_stimuli/rescaled_final/1128_fw.mp4	0.0	194.87175798416138	2.4995040893554688
40	175.09087300300598	pulse	1	t		38.0	2.5	/experiments/AOT/AOT_stimuli/rescaled_final/1128_fw.mp4	0.0	195.65516805648804	
40	176.68947410583496	pulse	1	t		38.0	2.5	/experiments/AOT/AOT_stimuli/rescaled_final/1128_fw.mp4	0.0	197.25376915931702	
40	176.8069670200348	fix_post	2		12	38.0	2.5	/experiments/AOT/AOT_stimuli/rescaled_final/1128_fw.mp4	0.0	197.37126207351685	0.10043096542358398
41	176.90739798545837	fix_pre	0		120	39.0	2.5	/experiments/AOT/AOT_stimuli/rescaled_final/1915_fw.mp4	0.0	197.47169303894043	0.9999809265136719
41	177.90737891197205	movie	1		243	39.0	2.5	/experiments/AOT/AOT_stimuli/rescaled_final/1915_fw.mp4	0.0	198.4716739654541	2.4996531009674072
41	178.29060792922974	pulse	1	t		39.0	2.5	/experiments/AOT/AOT_stimuli/rescaled_final/1915_fw.mp4	0.0	198.8549029827118	
41	179.89083099365234	pulse	1	t		39.0	2.5	/experiments/AOT/AOT_stimuli/rescaled_final/1915_fw.mp4	0.0	200.4551260471344	
41	180.40703201293945	fix_post	2		12	39.0	2.5	/experiments/AOT/AOT_stimuli/rescaled_final/1915_fw.mp4	0.0	200.9713270664215	0.10044598579406738
42	180.50747799873352	fix_pre	0		119	40.0	2.5	blank	1.0	201.07177305221558	0.9916360378265381
42	181.49094796180725	pulse	0	t		40.0	2.5	blank	1.0	202.0552430152893	
42	181.49911403656006	movie	1		301	40.0	2.5	blank	1.0	202.06340909004211	2.5083348751068115
42	183.09086108207703	pulse	1	t		40.0	2.5	blank	1.0	203.65515613555908	
42	184.00744891166687	fix_post	2		12	40.0	2.5	blank	1.0	204.57174396514893	0.09999918937683105
43	184.1074481010437	fix_pre	0		120	41.0	2.5	/experiments/AOT/AOT_stimuli/rescaled_final/0258_rv.mp4	0.0	204.67174315452576	1.000044822692871
43	184.69084405899048	pulse	0	t		41.0	2.5	/experiments/AOT/AOT_stimuli/rescaled_final/0258_rv.mp4	0.0	205.25513911247253	
43	185.10749292373657	movie	1		246	41.0	2.5	/experiments/AOT/AOT_stimuli/rescaled_final/0258_rv.mp4	0.0	205.67178797721863	2.4996421337127686
43	186.29046201705933	pulse	1	t		41.0	2.5	/experiments/AOT/AOT_stimuli/rescaled_final/0258_rv.mp4	0.0	206.85475707054138	
43	187.60713505744934	fix_post	2		12	41.0	2.5	/experiments/AOT/AOT_stimuli/rescaled_final/0258_rv.mp4	0.0	208.1714301109314	0.10010290145874023
44	187.70723795890808	fix_pre	0		120	42.0	2.5	/experiments/AOT/AOT_stimuli/rescaled_final/0028_fw.mp4	0.0	208.27153301239014	1.0000770092010498
44	187.8907880783081	pulse	0	t		42.0	2.5	/experiments/AOT/AOT_stimuli/rescaled_final/0028_fw.mp4	0.0	208.45508313179016	
44	188.70731496810913	movie	1		243	42.0	2.5	/experiments/AOT/AOT_stimuli/rescaled_final/0028_fw.mp4	0.0	209.2716100215912	2.499737024307251
44	189.4908709526062	pulse	1	t		42.0	2.5	/experiments/AOT/AOT_stimuli/rescaled_final/0028_fw.mp4	0.0	210.05516600608826	
44	191.08909511566162	pulse	1	t		42.0	2.5	/experiments/AOT/AOT_stimuli/rescaled_final/0028_fw.mp4	0.0	211.65339016914368	
44	191.20705199241638	fix_post	2		12	42.0	2.5	/experiments/AOT/AOT_stimuli/rescaled_final/0028_fw.mp4	0.0	211.77134704589844	0.10035109519958496
45	191.30740308761597	fix_pre	0		120	43.0	2.5	/experiments/AOT/AOT_stimuli/rescaled_final/1278_rv.mp4	0.0	211.87169814109802	0.9999518394470215
45	192.307354927063	movie	1		245	43.0	2.5	/experiments/AOT/AOT_stimuli/rescaled_final/1278_rv.mp4	0.0	212.87164998054504	2.499512195587158
45	192.69086909294128	pulse	1	t		43.0	2.5	/experiments/AOT/AOT_stimuli/rescaled_final/1278_rv.mp4	0.0	213.25516414642334	
45	194.29074907302856	pulse	1	t		43.0	2.5	/experiments/AOT/AOT_stimuli/rescaled_final/1278_rv.mp4	0.0	214.85504412651062	
45	194.80686712265015	fix_post	2		12	43.0	2.5	/experiments/AOT/AOT_stimuli/rescaled_final/1278_rv.mp4	0.0	215.3711621761322	0.10039496421813965
46	194.9072620868683	fix_pre	0		119	44.0	2.5	/experiments/AOT/AOT_stimuli/rescaled_final/2097_rv.mp4	0.0	215.47155714035034	0.9916479587554932
46	195.89075207710266	pulse	0	t		44.0	2.5	/experiments/AOT/AOT_stimuli/rescaled_final/2097_rv.mp4	0.0	216.45504713058472	
46	195.89891004562378	movie	1		246	44.0	2.5	/experiments/AOT/AOT_stimuli/rescaled_final/2097_rv.mp4	0.0	216.46320509910583	2.5083439350128174
46	197.4905149936676	pulse	1	t		44.0	2.5	/experiments/AOT/AOT_stimuli/rescaled_final/2097_rv.mp4	0.0	218.05481004714966	
46	198.4072539806366	fix_post	2		12	44.0	2.5	/experiments/AOT/AOT_stimuli/rescaled_final/2097_rv.mp4	0.0	218.97154903411865	0.1000680923461914
47	198.5073220729828	fix_pre	0		120	45.0	2.5	/experiments/AOT/AOT_stimuli/rescaled_final/1857_fw.mp4	0.0	219.07161712646484	0.9999699592590332
47	199.09079098701477	pulse	0	t		45.0	2.5	/experiments/AOT/AOT_stimuli/rescaled_final/1857_fw.mp4	0.0	219.65508604049683	
47	199.50729203224182	movie	1		243	45.0	2.5	/experiments/AOT/AOT_stimuli/rescaled_final/1857_fw.mp4	0.0	220.07158708572388	2.500091075897217
47	200.69084095954895	pulse	1	t		45.0	2.5	/experiments/AOT/AOT_stimuli/rescaled_final/1857_fw.mp4	0.0	221.255136013031	
47	202.00738310813904	fix_post	2		12	45.0	2.5	/experiments/AOT/AOT_stimuli/rescaled_final/1857_fw.mp4	0.0	222.5716781616211	0.09987592697143555
48	202.10725903511047	fix_pre	0		120	46.0	2.5	/experiments/AOT/AOT_stimuli/rescaled_final/0629_rv.mp4	0.0	222.67155408859253	1.0000948905944824
48	202.2907509803772	pulse	0	t		46.0	2.5	/experiments/AOT/AOT_stimuli/rescaled_final/0629_rv.mp4	0.0	222.85504603385925	
48	203.10735392570496	movie	1		244	46.0	2.5	/experiments/AOT/AOT_stimuli/rescaled_final/0629_rv.mp4	0.0	223.671648979187	2.4999802112579346
48	203.89069294929504	pulse	1	t		46.0	2.5	/experiments/AOT/AOT_stimuli/rescaled_final/0629_rv.mp4	0.0	224.4549880027771	
48	205.48940801620483	pulse	1	t		46.0	2.5	/experiments/AOT/AOT_stimuli/rescaled_final/0629_rv.mp4	0.0	226.0537030696869	
48	205.6073341369629	fix_post	2		12	46.0	2.5	/experiments/AOT/AOT_stimuli/rescaled_final/0629_rv.mp4	0.0	226.17162919044495	0.09992289543151855
49	205.7072570323944	fix_pre	0		120	47.0	2.5	/experiments/AOT/AOT_stimuli/rescaled_final/0217_rv.mp4	0.0	226.27155208587646	1.0000569820404053
49	206.70731401443481	movie	1		243	47.0	2.5	/experiments/AOT/AOT_stimuli/rescaled_final/0217_rv.mp4	0.0	227.27160906791687	2.4998929500579834
49	207.0906879901886	pulse	1	t		47.0	2.5	/experiments/AOT/AOT_stimuli/rescaled_final/0217_rv.mp4	0.0	227.65498304367065	
49	208.69071412086487	pulse	1	t		47.0	2.5	/experiments/AOT/AOT_stimuli/rescaled_final/0217_rv.mp4	0.0	229.25500917434692	
49	209.2072069644928	fix_post	2		12	47.0	2.5	/experiments/AOT/AOT_stimuli/rescaled_final/0217_rv.mp4	0.0	229.77150201797485	0.10003209114074707
50	209.30723905563354	fix_pre	0		119	48.0	2.5	/experiments/AOT/AOT_stimuli/rescaled_final/1142_fw.mp4	0.0	229.8715341091156	0.9916789531707764
50	210.2908320426941	pulse	0	t		48.0	2.5	/experiments/AOT/AOT_stimuli/rescaled_final/1142_fw.mp4	0.0	230.85512709617615	
50	210.29891800880432	movie	1		247	48.0	2.5	/experiments/AOT/AOT_stimuli/rescaled_final/1142_fw.mp4	0.0	230.86321306228638	2.5082790851593018
50	211.89025712013245	pulse	1	t		48.0	2.5	/experiments/AOT/AOT_stimuli/rescaled_final/1142_fw.mp4	0.0	232.4545521736145	
50	212.80719709396362	fix_post	2		12	48.0	2.5	/experiments/AOT/AOT_stimuli/rescaled_final/1142_fw.mp4	0.0	233.37149214744568	0.09999799728393555
51	212.90719509124756	fix_pre	0		120	49.0	2.5	blank	1.0	233.47149014472961	0.9999768733978271
51	213.49072194099426	pulse	0	t		49.0	2.5	blank	1.0	234.05501699447632	
51	213.90717196464539	movie	1		300	49.0	2.5	blank	1.0	234.47146701812744	2.4996330738067627
51	215.09071803092957	pulse	1	t		49.0	2.5	blank	1.0	235.65501308441162	
51	216.40680503845215	fix_post	2		12	49.0	2.5	blank	1.0	236.9711000919342	0.10044097900390625
52	216.50724601745605	fix_pre	0		120	50.0	2.5	/experiments/AOT/AOT_stimuli/rescaled_final/1420_rv.mp4	0.0	237.0715410709381	0.9999260902404785
52	216.69069695472717	pulse	0	t		50.0	2.5	/experiments/AOT/AOT_stimuli/rescaled_final/1420_rv.mp4	0.0	237.25499200820923	
52	217.50717210769653	movie	1		244	50.0	2.5	/experiments/AOT/AOT_stimuli/rescaled_final/1420_rv.mp4	0.0	238.0714671611786	2.5000929832458496
52	218.29069995880127	pulse	1	t		50.0	2.5	/experiments/AOT/AOT_stimuli/rescaled_final/1420_rv.mp4	0.0	238.85499501228333	
52	219.88954496383667	pulse	1	t		50.0	2.5	/experiments/AOT/AOT_stimuli/rescaled_final/1420_rv.mp4	0.0	240.45384001731873	
52	220.00726509094238	fix_post	2		12	50.0	2.5	/experiments/AOT/AOT_stimuli/rescaled_final/1420_rv.mp4	0.0	240.57156014442444	0.10001683235168457
53	220.10728192329407	fix_pre	0		120	51.0	2.5	/experiments/AOT/AOT_stimuli/rescaled_final/1281_rv.mp4	0.0	240.67157697677612	1.000002145767212
53	221.10728406906128	movie	1		245	51.0	2.5	/experiments/AOT/AOT_stimuli/rescaled_final/1281_rv.mp4	0.0	241.67157912254333	2.4998619556427
53	221.49079012870789	pulse	1	t		51.0	2.5	/experiments/AOT/AOT_stimuli/rescaled_final/1281_rv.mp4	0.0	242.05508518218994	
53	223.09071493148804	pulse	1	t		51.0	2.5	/experiments/AOT/AOT_stimuli/rescaled_final/1281_rv.mp4	0.0	243.6550099849701	
53	223.60714602470398	fix_post	2		12	51.0	2.5	/experiments/AOT/AOT_stimuli/rescaled_final/1281_rv.mp4	0.0	244.17144107818604	0.10002589225769043
54	223.70717191696167	fix_pre	0		119	52.0	2.5	/experiments/AOT/AOT_stimuli/rescaled_final/0334_fw.mp4	0.0	244.27146697044373	0.9917080402374268
54	224.69077610969543	pulse	0	t		52.0	2.5	/experiments/AOT/AOT_stimuli/rescaled_final/0334_fw.mp4	0.0	245.2550711631775	
54	224.6988799571991	movie	1		246	52.0	2.5	/experiments/AOT/AOT_stimuli/rescaled_final/0334_fw.mp4	0.0	245.26317501068115	2.5083720684051514
54	226.29051804542542	pulse	1	t		52.0	2.5	/experiments/AOT/AOT_stimuli/rescaled_final/0334_fw.mp4	0.0	246.85481309890747	
54	227.20725202560425	fix_post	2		12	52.0	2.5	/experiments/AOT/AOT_stimuli/rescaled_final/0334_fw.mp4	0.0	247.7715470790863	0.09990811347961426
55	227.30716013908386	fix_pre	0		120	53.0	2.5	/experiments/AOT/AOT_stimuli/rescaled_final/1927_rv.mp4	0.0	247.87145519256592	1.0000228881835938
55	227.89071202278137	pulse	0	t		53.0	2.5	/experiments/AOT/AOT_stimuli/rescaled_final/1927_rv.mp4	0.0	248.45500707626343	
55	228.30718302726746	movie	1		244	53.0	2.5	/experiments/AOT/AOT_stimuli/rescaled_final/1927_rv.mp4	0.0	248.8714780807495	2.4999959468841553
55	229.49077796936035	pulse	1	t		53.0	2.5	/experiments/AOT/AOT_stimuli/rescaled_final/1927_rv.mp4	0.0	250.0550730228424	
55	230.8071789741516	fix_post	2		12	53.0	2.5	/experiments/AOT/AOT_stimuli/rescaled_final/1927_rv.mp4	0.0	251.37147402763367	0.09993910789489746
56	230.9071180820465	fix_pre	0		120	54.0	2.5	/experiments/AOT/AOT_stimuli/rescaled_final/1420_fw.mp4	0.0	251.47141313552856	0.9999949932098389
56	231.09066700935364	pulse	0	t		54.0	2.5	/experiments/AOT/AOT_stimuli/rescaled_final/1420_fw.mp4	0.0	251.6549620628357	
56	231.90711307525635	movie	1		244	54.0	2.5	/experiments/AOT/AOT_stimuli/rescaled_final/1420_fw.mp4	0.0	252.4714081287384	2.5000429153442383
56	232.69066500663757	pulse	1	t		54.0	2.5	/experiments/AOT/AOT_stimuli/rescaled_final/1420_fw.mp4	0.0	253.25496006011963	
56	234.28910112380981	pulse	1	t		54.0	2.5	/experiments/AOT/AOT_stimuli/rescaled_final/1420_fw.mp4	0.0	254.85339617729187	
56	234.4071559906006	fix_post	2		12	54.0	2.5	/experiments/AOT/AOT_stimuli/rescaled_final/1420_fw.mp4	0.0	254.97145104408264	0.0995330810546875
57	234.50668907165527	fix_pre	0		120	55.0	2.5	/experiments/AOT/AOT_stimuli/rescaled_final/0355_rv.mp4	0.0	255.07098412513733	1.0004360675811768
57	235.50712513923645	movie	1		245	55.0	2.5	/experiments/AOT/AOT_stimuli/rescaled_final/0355_rv.mp4	0.0	256.0714201927185	2.499581813812256
57	235.89167308807373	pulse	1	t		55.0	2.5	/experiments/AOT/AOT_stimuli/rescaled_final/0355_rv.mp4	0.0	256.4559681415558	
57	237.49057698249817	pulse	1	t		55.0	2.5	/experiments/AOT/AOT_stimuli/rescaled_final/0355_rv.mp4	0.0	258.0548720359802	
57	238.0067069530487	fix_post	2		12	55.0	2.5	/experiments/AOT/AOT_stimuli/rescaled_final/0355_rv.mp4	0.0	258.57100200653076	0.10038399696350098
58	238.1070909500122	fix_pre	0		119	56.0	2.5	blank	1.0	258.67138600349426	0.9917430877685547
58	239.0906310081482	pulse	0	t		56.0	2.5	blank	1.0	259.65492606163025	
58	239.09883403778076	movie	1		301	56.0	2.5	blank	1.0	259.6631290912628	2.508301019668579
58	240.69064903259277	pulse	1	t		56.0	2.5	blank	1.0	261.25494408607483	
58	241.60713505744934	fix_post	2		12	56.0	2.5	blank	1.0	262.1714301109314	0.09954190254211426
59	241.70667695999146	fix_pre	0		120	57.0	2.5	/experiments/AOT/AOT_stimuli/rescaled_final/2012_fw.mp4	0.0	262.2709720134735	1.0005381107330322
59	242.29018092155457	pulse	0	t		57.0	2.5	/experiments/AOT/AOT_stimuli/rescaled_final/2012_fw.mp4	0.0	262.8544759750366	
59	242.7072150707245	movie	1		244	57.0	2.5	/experiments/AOT/AOT_stimuli/rescaled_final/2012_fw.mp4	0.0	263.27151012420654	2.4998419284820557
59	243.89045405387878	pulse	1	t		57.0	2.5	/experiments/AOT/AOT_stimuli/rescaled_final/2012_fw.mp4	0.0	264.45474910736084	
59	245.20705699920654	fix_post	2		12	57.0	2.5	/experiments/AOT/AOT_stimuli/rescaled_final/2012_fw.mp4	0.0	265.7713520526886	0.10005497932434082
60	245.30711197853088	fix_pre	0		120	58.0	2.5	/experiments/AOT/AOT_stimuli/rescaled_final/1585_fw.mp4	0.0	265.87140703201294	0.9999899864196777
60	245.4906930923462	pulse	0	t		58.0	2.5	/experiments/AOT/AOT_stimuli/rescaled_final/1585_fw.mp4	0.0	266.05498814582825	
60	246.30710196495056	movie	1		243	58.0	2.5	/experiments/AOT/AOT_stimuli/rescaled_final/1585_fw.mp4	0.0	266.8713970184326	2.500091075897217
60	247.09053301811218	pulse	1	t		58.0	2.5	/experiments/AOT/AOT_stimuli/rescaled_final/1585_fw.mp4	0.0	267.65482807159424	
60	248.68966794013977	pulse	1	t		58.0	2.5	/experiments/AOT/AOT_stimuli/rescaled_final/1585_fw.mp4	0.0	269.2539629936218	
60	248.80719304084778	fix_post	2		12	58.0	2.5	/experiments/AOT/AOT_stimuli/rescaled_final/1585_fw.mp4	0.0	269.37148809432983	0.09997200965881348
61	248.9071650505066	fix_pre	0		120	59.0	2.5	/experiments/AOT/AOT_stimuli/rescaled_final/1307_rv.mp4	0.0	269.47146010398865	0.9994890689849854
61	249.90665411949158	movie	1		243	59.0	2.5	/experiments/AOT/AOT_stimuli/rescaled_final/1307_rv.mp4	0.0	270.47094917297363	2.500037908554077
61	250.2900891304016	pulse	1	t		59.0	2.5	/experiments/AOT/AOT_stimuli/rescaled_final/1307_rv.mp4	0.0	270.85438418388367	
61	251.89051508903503	pulse	1	t		59.0	2.5	/experiments/AOT/AOT_stimuli/rescaled_final/1307_rv.mp4	0.0	272.4548101425171	
61	252.40669202804565	fix_post	2		12	59.0	2.5	/experiments/AOT/AOT_stimuli/rescaled_final/1307_rv.mp4	0.0	272.9709870815277	0.10034489631652832
62	252.50703692436218	fix_pre	0		119	60.0	2.5	/experiments/AOT/AOT_stimuli/rescaled_final/0022_fw.mp4	0.0	273.07133197784424	0.9916040897369385
62	253.49051713943481	pulse	0	t		60.0	2.5	/experiments/AOT/AOT_stimuli/rescaled_final/0022_fw.mp4	0.0	274.05481219291687	
62	253.49864101409912	movie	1		250	60.0	2.5	/experiments/AOT/AOT_stimuli/rescaled_final/0022_fw.mp4	0.0	274.0629360675812	2.5083279609680176
62	255.09076404571533	pulse	1	t		60.0	2.5	/experiments/AOT/AOT_stimuli/rescaled_final/0022_fw.mp4	0.0	275.6550590991974	
62	256.00696897506714	fix_post	2		12	60.0	2.5	/experiments/AOT/AOT_stimuli/rescaled_final/0022_fw.mp4	0.0	276.5712640285492	0.10001111030578613
63	256.1069800853729	fix_pre	0		120	61.0	2.5	/experiments/AOT/AOT_stimuli/rescaled_final/1308_fw.mp4	0.0	276.671275138855	0.9999940395355225
63	256.69049096107483	pulse	0	t		61.0	2.5	/experiments/AOT/AOT_stimuli/rescaled_final/1308_fw.mp4	0.0	277.2547860145569	
63	257.10697412490845	movie	1		246	61.0	2.5	/experiments/AOT/AOT_stimuli/rescaled_final/1308_fw.mp4	0.0	277.6712691783905	2.500070810317993
63	258.29056692123413	pulse	1	t		61.0	2.5	/experiments/AOT/AOT_stimuli/rescaled_final/1308_fw.mp4	0.0	278.8548619747162	
63	259.60704493522644	fix_post	2		12	61.0	2.5	/experiments/AOT/AOT_stimuli/rescaled_final/1308_fw.mp4	0.0	280.1713399887085	0.0999300479888916
64	259.70697498321533	fix_pre	0		120	62.0	2.5	blank	1.0	280.2712700366974	1.0001299381256104
64	259.89044713974	pulse	0	t		62.0	2.5	blank	1.0	280.45474219322205	
64	260.70710492134094	movie	1		300	62.0	2.5	blank	1.0	281.271399974823	2.4999101161956787
64	261.49050307273865	pulse	1	t		62.0	2.5	blank	1.0	282.0547981262207	
64	263.0904619693756	pulse	1	t		62.0	2.5	blank	1.0	283.65475702285767	
64	263.2070150375366	fix_post	2		12	62.0	2.5	blank	1.0	283.7713100910187	0.09991097450256348
65	263.3069260120392	fix_pre	0		120	63.0	2.5	/experiments/AOT/AOT_stimuli/rescaled_final/1641_rv.mp4	0.0	283.87122106552124	1.0001099109649658
65	264.30703592300415	movie	1		243	63.0	2.5	/experiments/AOT/AOT_stimuli/rescaled_final/1641_rv.mp4	0.0	284.8713309764862	2.5000011920928955
65	264.6899619102478	pulse	1	t		63.0	2.5	/experiments/AOT/AOT_stimuli/rescaled_final/1641_rv.mp4	0.0	285.25425696372986	
65	266.2904760837555	pulse	1	t		63.0	2.5	/experiments/AOT/AOT_stimuli/rescaled_final/1641_rv.mp4	0.0	286.85477113723755	
65	266.80703711509705	fix_post	2		12	63.0	2.5	/experiments/AOT/AOT_stimuli/rescaled_final/1641_rv.mp4	0.0	287.3713321685791	0.09990191459655762
66	266.9069390296936	fix_pre	0		119	64.0	2.5	/experiments/AOT/AOT_stimuli/rescaled_final/1441_fw.mp4	0.0	287.47123408317566	0.9916579723358154
66	267.8904390335083	pulse	0	t		64.0	2.5	/experiments/AOT/AOT_stimuli/rescaled_final/1441_fw.mp4	0.0	288.45473408699036	
66	267.8985970020294	movie	1		244	64.0	2.5	/experiments/AOT/AOT_stimuli/rescaled_final/1441_fw.mp4	0.0	288.4628920555115	2.5083260536193848
66	269.49082612991333	pulse	1	t		64.0	2.5	/experiments/AOT/AOT_stimuli/rescaled_final/1441_fw.mp4	0.0	290.0551211833954	
66	270.4069230556488	fix_post	2		12	64.0	2.5	/experiments/AOT/AOT_stimuli/rescaled_final/1441_fw.mp4	0.0	290.97121810913086	0.09997105598449707
67	270.5068941116333	fix_pre	0		120	65.0	2.5	/experiments/AOT/AOT_stimuli/rescaled_final/0654_rv.mp4	0.0	291.07118916511536	0.9996159076690674
67	271.09048295021057	pulse	0	t		65.0	2.5	/experiments/AOT/AOT_stimuli/rescaled_final/0654_rv.mp4	0.0	291.6547780036926	
67	271.50651001930237	movie	1		243	65.0	2.5	/experiments/AOT/AOT_stimuli/rescaled_final/0654_rv.mp4	0.0	292.0708050727844	2.500399112701416
67	272.6905310153961	pulse	1	t		65.0	2.5	/experiments/AOT/AOT_stimuli/rescaled_final/0654_rv.mp4	0.0	293.2548260688782	
67	274.0069091320038	fix_post	2		12	65.0	2.5	/experiments/AOT/AOT_stimuli/rescaled_final/0654_rv.mp4	0.0	294.57120418548584	0.0999908447265625
68	274.10689997673035	fix_pre	0		120	66.0	2.5	/experiments/AOT/AOT_stimuli/rescaled_final/0431_fw.mp4	0.0	294.6711950302124	1.0000660419464111
68	274.2904620170593	pulse	0	t		66.0	2.5	/experiments/AOT/AOT_stimuli/rescaled_final/0431_fw.mp4	0.0	294.8547570705414	
68	275.10696601867676	movie	1		244	66.0	2.5	/experiments/AOT/AOT_stimuli/rescaled_final/0431_fw.mp4	0.0	295.6712610721588	2.5000460147857666
68	275.8903441429138	pulse	1	t		66.0	2.5	/experiments/AOT/AOT_stimuli/rescaled_final/0431_fw.mp4	0.0	296.4546391963959	
68	277.4888939857483	pulse	1	t		66.0	2.5	/experiments/AOT/AOT_stimuli/rescaled_final/0431_fw.mp4	0.0	298.05318903923035	
68	277.6070120334625	fix_post	2		12	66.0	2.5	/experiments/AOT/AOT_stimuli/rescaled_final/0431_fw.mp4	0.0	298.1713070869446	0.09984898567199707
69	277.7068610191345	fix_pre	0		120	67.0	2.5	/experiments/AOT/AOT_stimuli/rescaled_final/0521_fw.mp4	0.0	298.2711560726166	1.000114917755127
69	278.70697593688965	movie	1		245	67.0	2.5	/experiments/AOT/AOT_stimuli/rescaled_final/0521_fw.mp4	0.0	299.2712709903717	2.4994490146636963
69	279.090115070343	pulse	1	t		67.0	2.5	/experiments/AOT/AOT_stimuli/rescaled_final/0521_fw.mp4	0.0	299.6544101238251	
69	280.6904001235962	pulse	1	t		67.0	2.5	/experiments/AOT/AOT_stimuli/rescaled_final/0521_fw.mp4	0.0	301.25469517707825	
69	281.20642495155334	fix_post	2		12	67.0	2.5	/experiments/AOT/AOT_stimuli/rescaled_final/0521_fw.mp4	0.0	301.7707200050354	0.10059905052185059
70	281.3070240020752	fix_pre	0		119	68.0	2.5	blank	1.0	301.87131905555725	0.9915409088134766
70	282.29039311408997	pulse	0	t		68.0	2.5	blank	1.0	302.854688167572	
70	282.2985649108887	movie	1		301	68.0	2.5	blank	1.0	302.8628599643707	2.508364200592041
70	283.8904070854187	pulse	1	t		68.0	2.5	blank	1.0	304.45470213890076	
70	284.8069291114807	fix_post	2		12	68.0	2.5	blank	1.0	305.37122416496277	0.10001492500305176
71	284.90694403648376	fix_pre	0		120	69.0	2.5	/experiments/AOT/AOT_stimuli/rescaled_final/2066_fw.mp4	0.0	305.4712390899658	0.9999608993530273
71	285.49039101600647	pulse	0	t		69.0	2.5	/experiments/AOT/AOT_stimuli/rescaled_final/2066_fw.mp4	0.0	306.0546860694885	
71	285.9069049358368	movie	1		244	69.0	2.5	/experiments/AOT/AOT_stimuli/rescaled_final/2066_fw.mp4	0.0	306.47119998931885	2.4995460510253906
71	287.0904440879822	pulse	1	t		69.0	2.5	/experiments/AOT/AOT_stimuli/rescaled_final/2066_fw.mp4	0.0	307.65473914146423	
71	288.4064509868622	fix_post	2		12	69.0	2.5	/experiments/AOT/AOT_stimuli/rescaled_final/2066_fw.mp4	0.0	308.97074604034424	0.10049700736999512
72	288.5069479942322	fix_pre	0		120	70.0	2.5	/experiments/AOT/AOT_stimuli/rescaled_final/1660_rv.mp4	0.0	309.07124304771423	0.9999339580535889
72	288.69039011001587	pulse	0	t		70.0	2.5	/experiments/AOT/AOT_stimuli/rescaled_final/1660_rv.mp4	0.0	309.2546851634979	
72	289.50688195228577	movie	1		243	70.0	2.5	/experiments/AOT/AOT_stimuli/rescaled_final/1660_rv.mp4	0.0	310.0711770057678	2.4998891353607178
72	290.29035902023315	pulse	1	t		70.0	2.5	/experiments/AOT/AOT_stimuli/rescaled_final/1660_rv.mp4	0.0	310.8546540737152	
72	291.89057993888855	pulse	1	t		70.0	2.5	/experiments/AOT/AOT_stimuli/rescaled_final/1660_rv.mp4	0.0	312.4548749923706	
72	292.0067710876465	fix_post	2		12	70.0	2.5	/experiments/AOT/AOT_stimuli/rescaled_final/1660_rv.mp4	0.0	312.57106614112854	0.10013890266418457
73	292.10690999031067	fix_pre	0		120	71.0	2.5	/experiments/AOT/AOT_stimuli/rescaled_final/0997_rv.mp4	0.0	312.6712050437927	0.9998819828033447
73	293.106791973114	movie	1		244	71.0	2.5	/experiments/AOT/AOT_stimuli/rescaled_final/0997_rv.mp4	0.0	313.67108702659607	2.500077962875366
73	293.4903860092163	pulse	1	t		71.0	2.5	/experiments/AOT/AOT_stimuli/rescaled_final/0997_rv.mp4	0.0	314.05468106269836	
73	295.09042406082153	pulse	1	t		71.0	2.5	/experiments/AOT/AOT_stimuli/rescaled_final/0997_rv.mp4	0.0	315.6547191143036	
73	295.6068699359894	fix_post	2		12	71.0	2.5	/experiments/AOT/AOT_stimuli/rescaled_final/0997_rv.mp4	0.0	316.17116498947144	0.1000051498413086
74	295.7068750858307	fix_pre	0		119	72.0	2.5	/experiments/AOT/AOT_stimuli/rescaled_final/0132_fw.mp4	0.0	316.27117013931274	0.9917058944702148
74	296.6903989315033	pulse	0	t		72.0	2.5	/experiments/AOT/AOT_stimuli/rescaled_final/0132_fw.mp4	0.0	317.25469398498535	
74	296.6985809803009	movie	1		246	72.0	2.5	/experiments/AOT/AOT_stimuli/rescaled_final/0132_fw.mp4	0.0	317.26287603378296	2.5085511207580566
74	298.29012513160706	pulse	1	t		72.0	2.5	/experiments/AOT/AOT_stimuli/rescaled_final/0132_fw.mp4	0.0	318.8544201850891	
74	299.20713210105896	fix_post	2		12	72.0	2.5	/experiments/AOT/AOT_stimuli/rescaled_final/0132_fw.mp4	0.0	319.771427154541	0.09945201873779297
75	299.30658411979675	fix_pre	0		120	73.0	2.5	/experiments/AOT/AOT_stimuli/rescaled_final/0172_rv.mp4	0.0	319.8708791732788	1.000546932220459
75	299.8906090259552	pulse	0	t		73.0	2.5	/experiments/AOT/AOT_stimuli/rescaled_final/0172_rv.mp4	0.0	320.45490407943726	
75	300.3071310520172	movie	1		246	73.0	2.5	/experiments/AOT/AOT_stimuli/rescaled_final/0172_rv.mp4	0.0	320.87142610549927	2.499675989151001
75	301.4904019832611	pulse	1	t		73.0	2.5	/experiments/AOT/AOT_stimuli/rescaled_final/0172_rv.mp4	0.0	322.05469703674316	
75	302.8068070411682	fix_post	2		12	73.0	2.5	/experiments/AOT/AOT_stimuli/rescaled_final/0172_rv.mp4	0.0	323.37110209465027	0.10000109672546387
76	302.9068081378937	fix_pre	0		120	74.0	2.5	/experiments/AOT/AOT_stimuli/rescaled_final/0391_rv.mp4	0.0	323.47110319137573	0.9999508857727051
76	303.09032797813416	pulse	0	t		74.0	2.5	/experiments/AOT/AOT_stimuli/rescaled_final/0391_rv.mp4	0.0	323.6546230316162	
76	303.9067590236664	movie	1		246	74.0	2.5	/experiments/AOT/AOT_stimuli/rescaled_final/0391_rv.mp4	0.0	324.47105407714844	2.4995648860931396
76	304.69039011001587	pulse	1	t		74.0	2.5	/experiments/AOT/AOT_stimuli/rescaled_final/0391_rv.mp4	0.0	325.2546851634979	
76	306.29868507385254	pulse	1	t		74.0	2.5	/experiments/AOT/AOT_stimuli/rescaled_final/0391_rv.mp4	0.0	326.8629801273346	
76	306.4063239097595	fix_post	2		12	74.0	2.5	/experiments/AOT/AOT_stimuli/rescaled_final/0391_rv.mp4	0.0	326.9706189632416	0.10039806365966797
77	306.5067219734192	fix_pre	0		120	75.0	2.5	/experiments/AOT/AOT_stimuli/rescaled_final/1142_rv.mp4	0.0	327.07101702690125	1.0000150203704834
77	307.5067369937897	movie	1		246	75.0	2.5	/experiments/AOT/AOT_stimuli/rescaled_final/1142_rv.mp4	0.0	328.07103204727173	2.4999849796295166
77	307.8913230895996	pulse	1	t		75.0	2.5	/experiments/AOT/AOT_stimuli/rescaled_final/1142_rv.mp4	0.0	328.45561814308167	
77	309.4903120994568	pulse	1	t		75.0	2.5	/experiments/AOT/AOT_stimuli/rescaled_final/1142_rv.mp4	0.0	330.05460715293884	
77	310.0067219734192	fix_post	2		12	75.0	2.5	/experiments/AOT/AOT_stimuli/rescaled_final/1142_rv.mp4	0.0	330.57101702690125	0.09997415542602539
78	310.1066961288452	fix_pre	0		119	76.0	2.5	blank	1.0	330.67099118232727	0.9918029308319092
78	311.0903389453888	pulse	0	t		76.0	2.5	blank	1.0	331.65463399887085	
78	311.0984990596771	movie	1		301	76.0	2.5	blank	1.0	331.6627941131592	2.5082669258117676
78	312.6902940273285	pulse	1	t		76.0	2.5	blank	1.0	333.25458908081055	
78	313.6067659854889	fix_post	2		12	76.0	2.5	blank	1.0	334.17106103897095	0.09995198249816895
79	313.70671796798706	fix_pre	0		120	77.0	2.5	/experiments/AOT/AOT_stimuli/rescaled_final/0806_rv.mp4	0.0	334.2710130214691	0.9999959468841553
79	314.29027009010315	pulse	0	t		77.0	2.5	/experiments/AOT/AOT_stimuli/rescaled_final/0806_rv.mp4	0.0	334.8545651435852	
79	314.7067139148712	movie	1		243	77.0	2.5	/experiments/AOT/AOT_stimuli/rescaled_final/0806_rv.mp4	0.0	335.27100896835327	2.5000240802764893
79	315.89036107063293	pulse	1	t		77.0	2.5	/experiments/AOT/AOT_stimuli/rescaled_final/0806_rv.mp4	0.0	336.454656124115	
79	317.2067379951477	fix_post	2		12	77.0	2.5	/experiments/AOT/AOT_stimuli/rescaled_final/0806_rv.mp4	0.0	337.77103304862976	0.10007596015930176
80	317.306813955307	fix_pre	0		120	78.0	2.5	/experiments/AOT/AOT_stimuli/rescaled_final/1670_fw.mp4	0.0	337.87110900878906	0.9998960494995117
80	317.4903531074524	pulse	0	t		78.0	2.5	/experiments/AOT/AOT_stimuli/rescaled_final/1670_fw.mp4	0.0	338.05464816093445	
80	318.3067100048065	movie	1		246	78.0	2.5	/experiments/AOT/AOT_stimuli/rescaled_final/1670_fw.mp4	0.0	338.8710050582886	2.499974012374878
80	319.0901689529419	pulse	1	t		78.0	2.5	/experiments/AOT/AOT_stimuli/rescaled_final/1670_fw.mp4	0.0	339.65446400642395	
80	320.6886079311371	pulse	1	t		78.0	2.5	/experiments/AOT/AOT_stimuli/rescaled_final/1670_fw.mp4	0.0	341.25290298461914	
80	320.8066840171814	fix_post	2		12	78.0	2.5	/experiments/AOT/AOT_stimuli/rescaled_final/1670_fw.mp4	0.0	341.37097907066345	0.10003995895385742
81	320.90672397613525	fix_pre	0		120	79.0	2.5	/experiments/AOT/AOT_stimuli/rescaled_final/1760_rv.mp4	0.0	341.4710190296173	0.99993896484375
81	321.906662940979	movie	1		246	79.0	2.5	/experiments/AOT/AOT_stimuli/rescaled_final/1760_rv.mp4	0.0	342.47095799446106	2.4995651245117188
81	322.2913730144501	pulse	1	t		79.0	2.5	/experiments/AOT/AOT_stimuli/rescaled_final/1760_rv.mp4	0.0	342.85566806793213	
81	323.89013600349426	pulse	1	t		79.0	2.5	/experiments/AOT/AOT_stimuli/rescaled_final/1760_rv.mp4	0.0	344.4544310569763	
81	324.4062280654907	fix_post	2		12	79.0	2.5	/experiments/AOT/AOT_stimuli/rescaled_final/1760_rv.mp4	0.0	344.9705231189728	0.10051202774047852
82	324.5067400932312	fix_pre	0		119	80.0	2.5	/experiments/AOT/AOT_stimuli/rescaled_final/1881_fw.mp4	0.0	345.07103514671326	0.9916489124298096
82	325.4900541305542	pulse	0	t		80.0	2.5	/experiments/AOT/AOT_stimuli/rescaled_final/1881_fw.mp4	0.0	346.05434918403625	
82	325.498389005661	movie	1		248	80.0	2.5	/experiments/AOT/AOT_stimuli/rescaled_final/1881_fw.mp4	0.0	346.06268405914307	2.5083260536193848
82	327.08989095687866	pulse	1	t		80.0	2.5	/experiments/AOT/AOT_stimuli/rescaled_final/1881_fw.mp4	0.0	347.6541860103607	
82	328.0067150592804	fix_post	2		12	80.0	2.5	/experiments/AOT/AOT_stimuli/rescaled_final/1881_fw.mp4	0.0	348.57101011276245	0.09999394416809082
83	328.1067090034485	fix_pre	0		120	81.0	2.5	/experiments/AOT/AOT_stimuli/rescaled_final/2069_fw.mp4	0.0	348.67100405693054	0.9999821186065674
83	328.6901090145111	pulse	0	t		81.0	2.5	/experiments/AOT/AOT_stimuli/rescaled_final/2069_fw.mp4	0.0	349.25440406799316	
83	329.10669112205505	movie	1		245	81.0	2.5	/experiments/AOT/AOT_stimuli/rescaled_final/2069_fw.mp4	0.0	349.6709861755371	2.499952793121338
83	330.2902190685272	pulse	1	t		81.0	2.5	/experiments/AOT/AOT_stimuli/rescaled_final/2069_fw.mp4	0.0	350.8545141220093	
83	331.6066439151764	fix_post	2		12	81.0	2.5	/experiments/AOT/AOT_stimuli/rescaled_final/2069_fw.mp4	0.0	352.17093896865845	0.10002708435058594
84	331.706670999527	fix_pre	0		120	82.0	2.5	/experiments/AOT/AOT_stimuli/rescaled_final/0734_rv.mp4	0.0	352.27096605300903	0.9999380111694336
84	331.8902380466461	pulse	0	t		82.0	2.5	/experiments/AOT/AOT_stimuli/rescaled_final/0734_rv.mp4	0.0	352.4545331001282	
84	332.7066090106964	movie	1		245	82.0	2.5	/experiments/AOT/AOT_stimuli/rescaled_final/0734_rv.mp4	0.0	353.27090406417847	2.500091075897217
84	333.4901030063629	pulse	1	t		82.0	2.5	/experiments/AOT/AOT_stimuli/rescaled_final/0734_rv.mp4	0.0	354.05439805984497	
84	335.088840007782	pulse	1	t		82.0	2.5	/experiments/AOT/AOT_stimuli/rescaled_final/0734_rv.mp4	0.0	355.65313506126404	
84	335.2067000865936	fix_post	2		12	82.0	2.5	/experiments/AOT/AOT_stimuli/rescaled_final/0734_rv.mp4	0.0	355.7709951400757	0.09994983673095703
85	335.3066499233246	fix_pre	0		120	83.0	2.5	blank	1.0	355.87094497680664	1.0000371932983398
85	336.3066871166229	movie	1		300	83.0	2.5	blank	1.0	356.870982170105	2.4999449253082275
85	336.690190076828	pulse	1	t		83.0	2.5	blank	1.0	357.25448513031006	
85	338.2900769710541	pulse	1	t		83.0	2.5	blank	1.0	358.85437202453613	
85	338.80663204193115	fix_post	2		12	83.0	2.5	blank	1.0	359.3709270954132	0.10000896453857422
87	338.9066410064697	stim	0		1716					359.4709360599518	14.29952597618103
87	339.89012002944946	pulse	0	t						360.4544150829315	
87	341.4901010990143	pulse	0	t						362.05439615249634	
87	343.0901219844818	pulse	0	t						363.65441703796387	
87	344.69018507003784	pulse	0	t						365.2544801235199	
87	346.29012298583984	pulse	0	t						366.8544180393219	
87	347.8900480270386	pulse	0	t						368.45434308052063	
87	349.49000310897827	pulse	0	t						370.0542981624603	
87	351.09005212783813	pulse	0	t						371.6543471813202	
87	352.6899950504303	pulse	0	t						373.25429010391235	
