trial_nr	onset	event_type	phase	response	nr_frames	movie_index	movie_duration	movie_file	blank	onset_abs	duration
0	0.1664416790008545	stim	0		4					28.377676725387573	0.033295392990112305
0	0.19164037704467773	response	0	space						28.402875423431396	
1	0.1997370719909668	stim	0		4651					28.410972118377686	38.77728033065796
1	38.961628913879395	pulse	0	t						67.17286396026611	
1	38.977017402648926	stim	1		1714					67.18825244903564	14.297238826751709
1	40.55619549751282	pulse	1	t						68.76743054389954	
1	42.15613031387329	pulse	1	t						70.36736536026001	
1	43.75636053085327	pulse	1	t						71.96759557723999	
1	45.35671091079712	pulse	1	t						73.56794595718384	
1	46.95686459541321	pulse	1	t						75.16809964179993	
1	48.55709671974182	pulse	1	t						76.76833176612854	
1	50.157508850097656	pulse	1	t						78.36874389648438	
1	51.75756597518921	pulse	1	t						79.96880102157593	
2	53.274256229400635	fix_pre	0		11	0.0	2.5	/experiments/Knapen_AOT/AOT_stimuli/rescaled_final/0265_rv.mp4	0.0	81.48549127578735	0.10837888717651367
2	53.35778474807739	pulse	0	t		0.0	2.5	/experiments/Knapen_AOT/AOT_stimuli/rescaled_final/0265_rv.mp4	0.0	81.56901979446411	
2	53.38263511657715	movie	1		280	0.0	2.5	/experiments/Knapen_AOT/AOT_stimuli/rescaled_final/0265_rv.mp4	0.0	81.59387016296387	2.492007255554199
2	54.95671319961548	pulse	1	t		0.0	2.5	/experiments/Knapen_AOT/AOT_stimuli/rescaled_final/0265_rv.mp4	0.0	83.1679482460022	
2	55.87464237213135	fix_post	2		12	0.0	2.5	/experiments/Knapen_AOT/AOT_stimuli/rescaled_final/0265_rv.mp4	0.0	84.08587741851807	0.10002875328063965
3	55.97467112541199	fix_pre	0		120	1.0	2.5	/experiments/Knapen_AOT/AOT_stimuli/rescaled_final/1033_fw.mp4	0.0	84.1859061717987	1.0085203647613525
3	56.5583701133728	pulse	0	t		1.0	2.5	/experiments/Knapen_AOT/AOT_stimuli/rescaled_final/1033_fw.mp4	0.0	84.76960515975952	
3	56.98319149017334	movie	1		282	1.0	2.5	/experiments/Knapen_AOT/AOT_stimuli/rescaled_final/1033_fw.mp4	0.0	85.19442653656006	2.4920272827148438
3	58.156681537628174	pulse	1	t		1.0	2.5	/experiments/Knapen_AOT/AOT_stimuli/rescaled_final/1033_fw.mp4	0.0	86.36791658401489	
3	59.475218772888184	fix_post	2		12	1.0	2.5	/experiments/Knapen_AOT/AOT_stimuli/rescaled_final/1033_fw.mp4	0.0	87.6864538192749	0.10002946853637695
4	59.57524824142456	fix_pre	0		120	2.0	2.5	/experiments/Knapen_AOT/AOT_stimuli/rescaled_final/0758_rv.mp4	0.0	87.78648328781128	1.0084919929504395
4	59.75928616523743	pulse	0	t		2.0	2.5	/experiments/Knapen_AOT/AOT_stimuli/rescaled_final/0758_rv.mp4	0.0	87.97052121162415	
4	60.583740234375	movie	1		286	2.0	2.5	/experiments/Knapen_AOT/AOT_stimuli/rescaled_final/0758_rv.mp4	0.0	88.79497528076172	2.4920079708099365
4	61.35693430900574	pulse	1	t		2.0	2.5	/experiments/Knapen_AOT/AOT_stimuli/rescaled_final/0758_rv.mp4	0.0	89.56816935539246	
4	62.957348108291626	pulse	1	t		2.0	2.5	/experiments/Knapen_AOT/AOT_stimuli/rescaled_final/0758_rv.mp4	0.0	91.16858315467834	
4	63.07574820518494	fix_post	2		12	2.0	2.5	/experiments/Knapen_AOT/AOT_stimuli/rescaled_final/0758_rv.mp4	0.0	91.28698325157166	0.09995651245117188
5	63.17570471763611	fix_pre	0		120	3.0	2.5	/experiments/Knapen_AOT/AOT_stimuli/rescaled_final/1944_rv.mp4	0.0	91.38693976402283	1.0086085796356201
5	64.18431329727173	movie	1		285	3.0	2.5	/experiments/Knapen_AOT/AOT_stimuli/rescaled_final/1944_rv.mp4	0.0	92.39554834365845	2.4920921325683594
5	64.5577290058136	pulse	1	t		3.0	2.5	/experiments/Knapen_AOT/AOT_stimuli/rescaled_final/1944_rv.mp4	0.0	92.76896405220032	
5	66.15761423110962	pulse	1	t		3.0	2.5	/experiments/Knapen_AOT/AOT_stimuli/rescaled_final/1944_rv.mp4	0.0	94.36884927749634	
5	66.67640542984009	fix_post	2		12	3.0	2.5	/experiments/Knapen_AOT/AOT_stimuli/rescaled_final/1944_rv.mp4	0.0	94.8876404762268	0.09997367858886719
6	66.77637910842896	fix_pre	0		119	4.0	2.5	/experiments/Knapen_AOT/AOT_stimuli/rescaled_final/0339_rv.mp4	0.0	94.98761415481567	1.000051498413086
6	67.75991582870483	pulse	0	t		4.0	2.5	/experiments/Knapen_AOT/AOT_stimuli/rescaled_final/0339_rv.mp4	0.0	95.97115087509155	
6	67.77643060684204	movie	1		291	4.0	2.5	/experiments/Knapen_AOT/AOT_stimuli/rescaled_final/0339_rv.mp4	0.0	95.98766565322876	2.5003936290740967
6	69.35856628417969	pulse	1	t		4.0	2.5	/experiments/Knapen_AOT/AOT_stimuli/rescaled_final/0339_rv.mp4	0.0	97.5698013305664	
6	70.27682423591614	fix_post	2		12	4.0	2.5	/experiments/Knapen_AOT/AOT_stimuli/rescaled_final/0339_rv.mp4	0.0	98.48805928230286	0.10003447532653809
7	70.37685871124268	fix_pre	0		120	5.0	2.5	/experiments/Knapen_AOT/AOT_stimuli/rescaled_final/0153_rv.mp4	0.0	98.5880937576294	1.008545160293579
7	70.96039319038391	pulse	0	t		5.0	2.5	/experiments/Knapen_AOT/AOT_stimuli/rescaled_final/0153_rv.mp4	0.0	99.17162823677063	
7	71.38540387153625	movie	1		269	5.0	2.5	/experiments/Knapen_AOT/AOT_stimuli/rescaled_final/0153_rv.mp4	0.0	99.59663891792297	2.4919793605804443
7	72.55896162986755	pulse	1	t		5.0	2.5	/experiments/Knapen_AOT/AOT_stimuli/rescaled_final/0153_rv.mp4	0.0	100.77019667625427	
7	73.8773832321167	fix_post	2		12	5.0	2.5	/experiments/Knapen_AOT/AOT_stimuli/rescaled_final/0153_rv.mp4	0.0	102.08861827850342	0.10000944137573242
8	73.97739267349243	fix_pre	0		120	6.0	2.5	blank	1.0	102.18862771987915	1.0002093315124512
8	74.1609377861023	pulse	0	t		6.0	2.5	blank	1.0	102.37217283248901	
8	74.97760200500488	movie	1		300	6.0	2.5	blank	1.0	103.1888370513916	2.500308036804199
8	75.76113963127136	pulse	1	t		6.0	2.5	blank	1.0	103.97237467765808	
8	77.361323595047	pulse	1	t		6.0	2.5	blank	1.0	105.57255864143372	
8	77.47791004180908	fix_post	2		12	6.0	2.5	blank	1.0	105.6891450881958	0.09999895095825195
9	77.57790899276733	fix_pre	0		120	7.0	2.5	/experiments/Knapen_AOT/AOT_stimuli/rescaled_final/1893_rv.mp4	0.0	105.78914403915405	1.008479356765747
9	78.58638834953308	movie	1		286	7.0	2.5	/experiments/Knapen_AOT/AOT_stimuli/rescaled_final/1893_rv.mp4	0.0	106.7976233959198	2.4920966625213623
9	78.95968246459961	pulse	1	t		7.0	2.5	/experiments/Knapen_AOT/AOT_stimuli/rescaled_final/1893_rv.mp4	0.0	107.17091751098633	
9	80.5610568523407	pulse	1	t		7.0	2.5	/experiments/Knapen_AOT/AOT_stimuli/rescaled_final/1893_rv.mp4	0.0	108.77229189872742	
9	81.07848501205444	fix_post	2		12	7.0	2.5	/experiments/Knapen_AOT/AOT_stimuli/rescaled_final/1893_rv.mp4	0.0	109.28972005844116	0.09999918937683105
10	81.17848420143127	fix_pre	0		119	8.0	2.5	/experiments/Knapen_AOT/AOT_stimuli/rescaled_final/1179_rv.mp4	0.0	109.389719247818	1.000216007232666
10	82.16210865974426	pulse	0	t		8.0	2.5	/experiments/Knapen_AOT/AOT_stimuli/rescaled_final/1179_rv.mp4	0.0	110.37334370613098	
10	82.17870020866394	movie	1		285	8.0	2.5	/experiments/Knapen_AOT/AOT_stimuli/rescaled_final/1179_rv.mp4	0.0	110.38993525505066	2.5002732276916504
10	83.7614951133728	pulse	1	t		8.0	2.5	/experiments/Knapen_AOT/AOT_stimuli/rescaled_final/1179_rv.mp4	0.0	111.97273015975952	
10	84.67897343635559	fix_post	2		12	8.0	2.5	/experiments/Knapen_AOT/AOT_stimuli/rescaled_final/1179_rv.mp4	0.0	112.89020848274231	0.10001730918884277
11	84.77899074554443	fix_pre	0		120	9.0	2.5	/experiments/Knapen_AOT/AOT_stimuli/rescaled_final/0974_rv.mp4	0.0	112.99022579193115	1.0085530281066895
11	85.36278676986694	pulse	0	t		9.0	2.5	/experiments/Knapen_AOT/AOT_stimuli/rescaled_final/0974_rv.mp4	0.0	113.57402181625366	
11	85.78754377365112	movie	1		284	9.0	2.5	/experiments/Knapen_AOT/AOT_stimuli/rescaled_final/0974_rv.mp4	0.0	113.99877882003784	2.5003316402435303
11	86.96119999885559	pulse	1	t		9.0	2.5	/experiments/Knapen_AOT/AOT_stimuli/rescaled_final/0974_rv.mp4	0.0	115.17243504524231	
11	88.28787541389465	fix_post	2		11	9.0	2.5	/experiments/Knapen_AOT/AOT_stimuli/rescaled_final/0974_rv.mp4	0.0	116.49911046028137	0.09169197082519531
12	88.37956738471985	fix_pre	0		120	10.0	2.5	/experiments/Knapen_AOT/AOT_stimuli/rescaled_final/1893_rv.mp4	0.0	116.59080243110657	1.0084898471832275
12	88.55547189712524	pulse	0	t		10.0	2.5	/experiments/Knapen_AOT/AOT_stimuli/rescaled_final/1893_rv.mp4	0.0	116.76670694351196	
12	89.38805723190308	movie	1		281	10.0	2.5	/experiments/Knapen_AOT/AOT_stimuli/rescaled_final/1893_rv.mp4	0.0	117.5992922782898	2.492133855819702
12	90.16266345977783	pulse	1	t		10.0	2.5	/experiments/Knapen_AOT/AOT_stimuli/rescaled_final/1893_rv.mp4	0.0	118.37389850616455	
12	91.7554292678833	pulse	1	t		10.0	2.5	/experiments/Knapen_AOT/AOT_stimuli/rescaled_final/1893_rv.mp4	0.0	119.96666431427002	
12	91.88019108772278	fix_post	2		12	10.0	2.5	/experiments/Knapen_AOT/AOT_stimuli/rescaled_final/1893_rv.mp4	0.0	120.0914261341095	0.09987807273864746
13	91.98006916046143	fix_pre	0		120	11.0	2.5	/experiments/Knapen_AOT/AOT_stimuli/rescaled_final/0600_fw.mp4	0.0	120.19130420684814	1.0086140632629395
13	92.98868322372437	movie	1		291	11.0	2.5	/experiments/Knapen_AOT/AOT_stimuli/rescaled_final/0600_fw.mp4	0.0	121.19991827011108	2.4920103549957275
13	93.35544300079346	pulse	1	t		11.0	2.5	/experiments/Knapen_AOT/AOT_stimuli/rescaled_final/0600_fw.mp4	0.0	121.56667804718018	
13	94.95572257041931	pulse	1	t		11.0	2.5	/experiments/Knapen_AOT/AOT_stimuli/rescaled_final/0600_fw.mp4	0.0	123.16695761680603	
13	95.48069357872009	fix_post	2		12	11.0	2.5	/experiments/Knapen_AOT/AOT_stimuli/rescaled_final/0600_fw.mp4	0.0	123.69192862510681	0.09999966621398926
14	95.58069324493408	fix_pre	0		118	12.0	2.5	/experiments/Knapen_AOT/AOT_stimuli/rescaled_final/0791_fw.mp4	0.0	123.7919282913208	0.9917430877685547
14	96.55594491958618	pulse	0	t		12.0	2.5	/experiments/Knapen_AOT/AOT_stimuli/rescaled_final/0791_fw.mp4	0.0	124.7671799659729	
14	96.57243633270264	movie	1		288	12.0	2.5	/experiments/Knapen_AOT/AOT_stimuli/rescaled_final/0791_fw.mp4	0.0	124.78367137908936	2.5003583431243896
14	98.15621948242188	pulse	1	t		12.0	2.5	/experiments/Knapen_AOT/AOT_stimuli/rescaled_final/0791_fw.mp4	0.0	126.3674545288086	
14	99.07279467582703	fix_post	2		12	12.0	2.5	/experiments/Knapen_AOT/AOT_stimuli/rescaled_final/0791_fw.mp4	0.0	127.28402972221375	0.10001802444458008
15	99.1728127002716	fix_pre	0		120	13.0	2.5	/experiments/Knapen_AOT/AOT_stimuli/rescaled_final/1412_rv.mp4	0.0	127.38404774665833	1.0087494850158691
15	99.7563865184784	pulse	0	t		13.0	2.5	/experiments/Knapen_AOT/AOT_stimuli/rescaled_final/1412_rv.mp4	0.0	127.96762156486511	
15	100.18156218528748	movie	1		279	13.0	2.5	/experiments/Knapen_AOT/AOT_stimuli/rescaled_final/1412_rv.mp4	0.0	128.3927972316742	2.491858959197998
15	101.35662317276001	pulse	1	t		13.0	2.5	/experiments/Knapen_AOT/AOT_stimuli/rescaled_final/1412_rv.mp4	0.0	129.56785821914673	
15	102.67342114448547	fix_post	2		12	13.0	2.5	/experiments/Knapen_AOT/AOT_stimuli/rescaled_final/1412_rv.mp4	0.0	130.8846561908722	0.099945068359375
16	102.77336621284485	fix_pre	0		120	14.0	2.5	blank	1.0	130.98460125923157	1.0001306533813477
16	102.95702481269836	pulse	0	t		14.0	2.5	blank	1.0	131.16825985908508	
16	103.7734968662262	movie	1		300	14.0	2.5	blank	1.0	131.98473191261292	2.5003750324249268
16	104.55715107917786	pulse	1	t		14.0	2.5	blank	1.0	132.76838612556458	
16	106.1573646068573	pulse	1	t		14.0	2.5	blank	1.0	134.36859965324402	
16	106.27387189865112	fix_post	2		12	14.0	2.5	blank	1.0	134.48510694503784	0.10007905960083008
17	106.37395095825195	fix_pre	0		120	15.0	2.5	/experiments/Knapen_AOT/AOT_stimuli/rescaled_final/0600_rv.mp4	0.0	134.58518600463867	1.0084655284881592
17	107.38241648674011	movie	1		269	15.0	2.5	/experiments/Knapen_AOT/AOT_stimuli/rescaled_final/0600_rv.mp4	0.0	135.59365153312683	2.492135524749756
17	107.75598788261414	pulse	1	t		15.0	2.5	/experiments/Knapen_AOT/AOT_stimuli/rescaled_final/0600_rv.mp4	0.0	135.96722292900085	
17	109.35575652122498	pulse	1	t		15.0	2.5	/experiments/Knapen_AOT/AOT_stimuli/rescaled_final/0600_rv.mp4	0.0	137.5669915676117	
17	109.87455201148987	fix_post	2		12	15.0	2.5	/experiments/Knapen_AOT/AOT_stimuli/rescaled_final/0600_rv.mp4	0.0	138.0857870578766	0.09987974166870117
18	109.97443175315857	fix_pre	0		119	16.0	2.5	/experiments/Knapen_AOT/AOT_stimuli/rescaled_final/1469_fw.mp4	0.0	138.1856667995453	1.000162124633789
18	110.958087682724	pulse	0	t		16.0	2.5	/experiments/Knapen_AOT/AOT_stimuli/rescaled_final/1469_fw.mp4	0.0	139.16932272911072	
18	110.97459387779236	movie	1		285	16.0	2.5	/experiments/Knapen_AOT/AOT_stimuli/rescaled_final/1469_fw.mp4	0.0	139.18582892417908	2.5003671646118164
18	112.55665326118469	pulse	1	t		16.0	2.5	/experiments/Knapen_AOT/AOT_stimuli/rescaled_final/1469_fw.mp4	0.0	140.7678883075714	
18	113.47496104240417	fix_post	2		12	16.0	2.5	/experiments/Knapen_AOT/AOT_stimuli/rescaled_final/1469_fw.mp4	0.0	141.6861960887909	0.1000220775604248
19	113.5749831199646	fix_pre	0		120	17.0	2.5	/experiments/Knapen_AOT/AOT_stimuli/rescaled_final/1412_fw.mp4	0.0	141.78621816635132	1.0085043907165527
19	114.15854740142822	pulse	0	t		17.0	2.5	/experiments/Knapen_AOT/AOT_stimuli/rescaled_final/1412_fw.mp4	0.0	142.36978244781494	
19	114.58348751068115	movie	1		277	17.0	2.5	/experiments/Knapen_AOT/AOT_stimuli/rescaled_final/1412_fw.mp4	0.0	142.79472255706787	2.49202299118042
19	115.75699758529663	pulse	1	t		17.0	2.5	/experiments/Knapen_AOT/AOT_stimuli/rescaled_final/1412_fw.mp4	0.0	143.96823263168335	
19	117.07551050186157	fix_post	2		12	17.0	2.5	/experiments/Knapen_AOT/AOT_stimuli/rescaled_final/1412_fw.mp4	0.0	145.2867455482483	0.10003542900085449
20	117.17554593086243	fix_pre	0		120	18.0	2.5	/experiments/Knapen_AOT/AOT_stimuli/rescaled_final/2061_fw.mp4	0.0	145.38678097724915	1.0084660053253174
20	117.35912680625916	pulse	0	t		18.0	2.5	/experiments/Knapen_AOT/AOT_stimuli/rescaled_final/2061_fw.mp4	0.0	145.57036185264587	
20	118.18401193618774	movie	1		279	18.0	2.5	/experiments/Knapen_AOT/AOT_stimuli/rescaled_final/2061_fw.mp4	0.0	146.39524698257446	2.492042064666748
20	118.95744919776917	pulse	1	t		18.0	2.5	/experiments/Knapen_AOT/AOT_stimuli/rescaled_final/2061_fw.mp4	0.0	147.16868424415588	
20	120.55757308006287	pulse	1	t		18.0	2.5	/experiments/Knapen_AOT/AOT_stimuli/rescaled_final/2061_fw.mp4	0.0	148.76880812644958	
20	120.67605400085449	fix_post	2		12	18.0	2.5	/experiments/Knapen_AOT/AOT_stimuli/rescaled_final/2061_fw.mp4	0.0	148.8872890472412	0.10001516342163086
21	120.77606916427612	fix_pre	0		120	19.0	2.5	blank	1.0	148.98730421066284	1.0001304149627686
21	121.77619957923889	movie	1		300	19.0	2.5	blank	1.0	149.9874346256256	2.5004031658172607
21	122.15975332260132	pulse	1	t		19.0	2.5	blank	1.0	150.37098836898804	
21	123.75997734069824	pulse	1	t		19.0	2.5	blank	1.0	151.97121238708496	
21	124.27660274505615	fix_post	2		12	19.0	2.5	blank	1.0	152.48783779144287	0.10000324249267578
22	124.37660598754883	fix_pre	0		119	20.0	2.5	/experiments/Knapen_AOT/AOT_stimuli/rescaled_final/1571_fw.mp4	0.0	152.58784103393555	1.000178337097168
22	125.36026453971863	pulse	0	t		20.0	2.5	/experiments/Knapen_AOT/AOT_stimuli/rescaled_final/1571_fw.mp4	0.0	153.57149958610535	
22	125.376784324646	movie	1		277	20.0	2.5	/experiments/Knapen_AOT/AOT_stimuli/rescaled_final/1571_fw.mp4	0.0	153.58801937103271	2.5004115104675293
22	126.95911931991577	pulse	1	t		20.0	2.5	/experiments/Knapen_AOT/AOT_stimuli/rescaled_final/1571_fw.mp4	0.0	155.1703543663025	
22	127.87719583511353	fix_post	2		12	20.0	2.5	/experiments/Knapen_AOT/AOT_stimuli/rescaled_final/1571_fw.mp4	0.0	156.08843088150024	0.09995317459106445
23	127.97714900970459	fix_pre	0		120	21.0	2.5	/experiments/Knapen_AOT/AOT_stimuli/rescaled_final/0689_fw.mp4	0.0	156.1883840560913	1.0085594654083252
23	128.56077671051025	pulse	0	t		21.0	2.5	/experiments/Knapen_AOT/AOT_stimuli/rescaled_final/0689_fw.mp4	0.0	156.77201175689697	
23	128.98570847511292	movie	1		284	21.0	2.5	/experiments/Knapen_AOT/AOT_stimuli/rescaled_final/0689_fw.mp4	0.0	157.19694352149963	2.4920194149017334
23	130.1589870452881	pulse	1	t		21.0	2.5	/experiments/Knapen_AOT/AOT_stimuli/rescaled_final/0689_fw.mp4	0.0	158.3702220916748	
23	131.47772789001465	fix_post	2		12	21.0	2.5	/experiments/Knapen_AOT/AOT_stimuli/rescaled_final/0689_fw.mp4	0.0	159.68896293640137	0.10007643699645996
24	131.5778043270111	fix_pre	0		120	22.0	2.5	/experiments/Knapen_AOT/AOT_stimuli/rescaled_final/1498_fw.mp4	0.0	159.78903937339783	1.0084035396575928
24	131.76129388809204	pulse	0	t		22.0	2.5	/experiments/Knapen_AOT/AOT_stimuli/rescaled_final/1498_fw.mp4	0.0	159.97252893447876	
24	132.5862078666687	movie	1		270	22.0	2.5	/experiments/Knapen_AOT/AOT_stimuli/rescaled_final/1498_fw.mp4	0.0	160.79744291305542	2.4920034408569336
24	133.35919523239136	pulse	1	t		22.0	2.5	/experiments/Knapen_AOT/AOT_stimuli/rescaled_final/1498_fw.mp4	0.0	161.57043027877808	
24	134.96001434326172	pulse	1	t		22.0	2.5	/experiments/Knapen_AOT/AOT_stimuli/rescaled_final/1498_fw.mp4	0.0	163.17124938964844	
24	135.07821130752563	fix_post	2		12	22.0	2.5	/experiments/Knapen_AOT/AOT_stimuli/rescaled_final/1498_fw.mp4	0.0	163.28944635391235	0.10005068778991699
25	135.17826199531555	fix_pre	0		120	23.0	2.5	/experiments/Knapen_AOT/AOT_stimuli/rescaled_final/0902_fw.mp4	0.0	163.38949704170227	1.0084898471832275
25	136.18675184249878	movie	1		282	23.0	2.5	/experiments/Knapen_AOT/AOT_stimuli/rescaled_final/0902_fw.mp4	0.0	164.3979868888855	2.4919981956481934
25	136.56205487251282	pulse	1	t		23.0	2.5	/experiments/Knapen_AOT/AOT_stimuli/rescaled_final/0902_fw.mp4	0.0	164.77328991889954	
25	138.16005063056946	pulse	1	t		23.0	2.5	/experiments/Knapen_AOT/AOT_stimuli/rescaled_final/0902_fw.mp4	0.0	166.37128567695618	
25	138.67875003814697	fix_post	2		12	23.0	2.5	/experiments/Knapen_AOT/AOT_stimuli/rescaled_final/0902_fw.mp4	0.0	166.8899850845337	0.10001850128173828
26	138.7787685394287	fix_pre	0		119	24.0	2.5	/experiments/Knapen_AOT/AOT_stimuli/rescaled_final/1244_rv.mp4	0.0	166.99000358581543	1.0001335144042969
26	139.76246047019958	pulse	0	t		24.0	2.5	/experiments/Knapen_AOT/AOT_stimuli/rescaled_final/1244_rv.mp4	0.0	167.9736955165863	
26	139.778902053833	movie	1		288	24.0	2.5	/experiments/Knapen_AOT/AOT_stimuli/rescaled_final/1244_rv.mp4	0.0	167.99013710021973	2.5004079341888428
26	141.36125373840332	pulse	1	t		24.0	2.5	/experiments/Knapen_AOT/AOT_stimuli/rescaled_final/1244_rv.mp4	0.0	169.57248878479004	
26	142.27930998802185	fix_post	2		12	24.0	2.5	/experiments/Knapen_AOT/AOT_stimuli/rescaled_final/1244_rv.mp4	0.0	170.49054503440857	0.10000371932983398
27	142.37931370735168	fix_pre	0		120	25.0	2.5	/experiments/Knapen_AOT/AOT_stimuli/rescaled_final/1943_rv.mp4	0.0	170.5905487537384	1.008552074432373
27	142.96289825439453	pulse	0	t		25.0	2.5	/experiments/Knapen_AOT/AOT_stimuli/rescaled_final/1943_rv.mp4	0.0	171.17413330078125	
27	143.38786578178406	movie	1		275	25.0	2.5	/experiments/Knapen_AOT/AOT_stimuli/rescaled_final/1943_rv.mp4	0.0	171.59910082817078	2.4919779300689697
27	144.55560326576233	pulse	1	t		25.0	2.5	/experiments/Knapen_AOT/AOT_stimuli/rescaled_final/1943_rv.mp4	0.0	172.76683831214905	
27	145.87984371185303	fix_post	2		12	25.0	2.5	/experiments/Knapen_AOT/AOT_stimuli/rescaled_final/1943_rv.mp4	0.0	174.09107875823975	0.10000896453857422
28	145.9798526763916	fix_pre	0		120	26.0	2.5	/experiments/Knapen_AOT/AOT_stimuli/rescaled_final/1244_fw.mp4	0.0	174.19108772277832	1.0085158348083496
28	146.16343784332275	pulse	0	t		26.0	2.5	/experiments/Knapen_AOT/AOT_stimuli/rescaled_final/1244_fw.mp4	0.0	174.37467288970947	
28	146.98836851119995	movie	1		288	26.0	2.5	/experiments/Knapen_AOT/AOT_stimuli/rescaled_final/1244_fw.mp4	0.0	175.19960355758667	2.49200177192688
28	147.7616159915924	pulse	1	t		26.0	2.5	/experiments/Knapen_AOT/AOT_stimuli/rescaled_final/1244_fw.mp4	0.0	175.97285103797913	
28	149.3557484149933	pulse	1	t		26.0	2.5	/experiments/Knapen_AOT/AOT_stimuli/rescaled_final/1244_fw.mp4	0.0	177.56698346138	
28	149.48037028312683	fix_post	2		12	26.0	2.5	/experiments/Knapen_AOT/AOT_stimuli/rescaled_final/1244_fw.mp4	0.0	177.69160532951355	0.10001945495605469
29	149.58038973808289	fix_pre	0		120	27.0	2.5	/experiments/Knapen_AOT/AOT_stimuli/rescaled_final/1571_rv.mp4	0.0	177.7916247844696	1.0084998607635498
29	150.58888959884644	movie	1		275	27.0	2.5	/experiments/Knapen_AOT/AOT_stimuli/rescaled_final/1571_rv.mp4	0.0	178.80012464523315	2.492027521133423
29	150.95614290237427	pulse	1	t		27.0	2.5	/experiments/Knapen_AOT/AOT_stimuli/rescaled_final/1571_rv.mp4	0.0	179.167377948761	
29	152.55600762367249	pulse	1	t		27.0	2.5	/experiments/Knapen_AOT/AOT_stimuli/rescaled_final/1571_rv.mp4	0.0	180.7672426700592	
29	153.08091711997986	fix_post	2		12	27.0	2.5	/experiments/Knapen_AOT/AOT_stimuli/rescaled_final/1571_rv.mp4	0.0	181.29215216636658	0.1000204086303711
30	153.18093752861023	fix_pre	0		118	28.0	2.5	blank	1.0	181.39217257499695	0.9834716320037842
30	154.15625762939453	pulse	0	t		28.0	2.5	blank	1.0	182.36749267578125	
30	154.164409160614	movie	1		301	28.0	2.5	blank	1.0	182.37564420700073	2.5087320804595947
30	155.7565369606018	pulse	1	t		28.0	2.5	blank	1.0	183.96777200698853	
30	156.6731412410736	fix_post	2		12	28.0	2.5	blank	1.0	184.88437628746033	0.10002303123474121
31	156.77316427230835	fix_pre	0		120	29.0	2.5	/experiments/Knapen_AOT/AOT_stimuli/rescaled_final/1056_rv.mp4	0.0	184.98439931869507	1.008481502532959
31	157.35670518875122	pulse	0	t		29.0	2.5	/experiments/Knapen_AOT/AOT_stimuli/rescaled_final/1056_rv.mp4	0.0	185.56794023513794	
31	157.7816457748413	movie	1		283	29.0	2.5	/experiments/Knapen_AOT/AOT_stimuli/rescaled_final/1056_rv.mp4	0.0	185.99288082122803	2.492011308670044
31	158.95713663101196	pulse	1	t		29.0	2.5	/experiments/Knapen_AOT/AOT_stimuli/rescaled_final/1056_rv.mp4	0.0	187.16837167739868	
31	160.27365708351135	fix_post	2		12	29.0	2.5	/experiments/Knapen_AOT/AOT_stimuli/rescaled_final/1056_rv.mp4	0.0	188.48489212989807	0.10016441345214844
32	160.3738214969635	fix_pre	0		120	30.0	2.5	/experiments/Knapen_AOT/AOT_stimuli/rescaled_final/0555_fw.mp4	0.0	188.58505654335022	1.00840163230896
32	160.5572988986969	pulse	0	t		30.0	2.5	/experiments/Knapen_AOT/AOT_stimuli/rescaled_final/0555_fw.mp4	0.0	188.76853394508362	
32	161.38222312927246	movie	1		288	30.0	2.5	/experiments/Knapen_AOT/AOT_stimuli/rescaled_final/0555_fw.mp4	0.0	189.59345817565918	2.491983413696289
32	162.15589022636414	pulse	1	t		30.0	2.5	/experiments/Knapen_AOT/AOT_stimuli/rescaled_final/0555_fw.mp4	0.0	190.36712527275085	
32	163.7576620578766	pulse	1	t		30.0	2.5	/experiments/Knapen_AOT/AOT_stimuli/rescaled_final/0555_fw.mp4	0.0	191.9688971042633	
32	163.87420654296875	fix_post	2		12	30.0	2.5	/experiments/Knapen_AOT/AOT_stimuli/rescaled_final/0555_fw.mp4	0.0	192.08544158935547	0.10001897811889648
33	163.97422552108765	fix_pre	0		120	31.0	2.5	/experiments/Knapen_AOT/AOT_stimuli/rescaled_final/0749_rv.mp4	0.0	192.18546056747437	1.0085258483886719
33	164.98275136947632	movie	1		281	31.0	2.5	/experiments/Knapen_AOT/AOT_stimuli/rescaled_final/0749_rv.mp4	0.0	193.19398641586304	2.492002487182617
33	165.35628843307495	pulse	1	t		31.0	2.5	/experiments/Knapen_AOT/AOT_stimuli/rescaled_final/0749_rv.mp4	0.0	193.56752347946167	
33	166.95759272575378	pulse	1	t		31.0	2.5	/experiments/Knapen_AOT/AOT_stimuli/rescaled_final/0749_rv.mp4	0.0	195.1688277721405	
33	167.47475385665894	fix_post	2		12	31.0	2.5	/experiments/Knapen_AOT/AOT_stimuli/rescaled_final/0749_rv.mp4	0.0	195.68598890304565	0.10003161430358887
34	167.57478547096252	fix_pre	0		119	32.0	2.5	/experiments/Knapen_AOT/AOT_stimuli/rescaled_final/1753_rv.mp4	0.0	195.78602051734924	1.0001318454742432
34	168.55844020843506	pulse	0	t		32.0	2.5	/experiments/Knapen_AOT/AOT_stimuli/rescaled_final/1753_rv.mp4	0.0	196.76967525482178	
34	168.57491731643677	movie	1		276	32.0	2.5	/experiments/Knapen_AOT/AOT_stimuli/rescaled_final/1753_rv.mp4	0.0	196.7861523628235	2.5003936290740967
34	170.15767216682434	pulse	1	t		32.0	2.5	/experiments/Knapen_AOT/AOT_stimuli/rescaled_final/1753_rv.mp4	0.0	198.36890721321106	
34	171.07531094551086	fix_post	2		12	32.0	2.5	/experiments/Knapen_AOT/AOT_stimuli/rescaled_final/1753_rv.mp4	0.0	199.28654599189758	0.10000753402709961
35	171.17531847953796	fix_pre	0		120	33.0	2.5	/experiments/Knapen_AOT/AOT_stimuli/rescaled_final/2167_fw.mp4	0.0	199.38655352592468	1.0084874629974365
35	171.75886940956116	pulse	0	t		33.0	2.5	/experiments/Knapen_AOT/AOT_stimuli/rescaled_final/2167_fw.mp4	0.0	199.97010445594788	
35	172.1838059425354	movie	1		276	33.0	2.5	/experiments/Knapen_AOT/AOT_stimuli/rescaled_final/2167_fw.mp4	0.0	200.39504098892212	2.4920547008514404
35	173.35952925682068	pulse	1	t		33.0	2.5	/experiments/Knapen_AOT/AOT_stimuli/rescaled_final/2167_fw.mp4	0.0	201.5707643032074	
35	174.67586064338684	fix_post	2		12	33.0	2.5	/experiments/Knapen_AOT/AOT_stimuli/rescaled_final/2167_fw.mp4	0.0	202.88709568977356	0.09999394416809082
36	174.77585458755493	fix_pre	0		120	34.0	2.5	blank	1.0	202.98708963394165	1.00014066696167
36	174.95938634872437	pulse	0	t		34.0	2.5	blank	1.0	203.17062139511108	
36	175.7759952545166	movie	1		300	34.0	2.5	blank	1.0	203.98723030090332	2.5003793239593506
36	176.55959582328796	pulse	1	t		34.0	2.5	blank	1.0	204.77083086967468	
36	178.1598048210144	pulse	1	t		34.0	2.5	blank	1.0	206.37103986740112	
36	178.27637457847595	fix_post	2		12	34.0	2.5	blank	1.0	206.48760962486267	0.1000218391418457
37	178.3763964176178	fix_pre	0		120	35.0	2.5	/experiments/Knapen_AOT/AOT_stimuli/rescaled_final/1089_fw.mp4	0.0	206.58763146400452	1.0085673332214355
37	179.38496375083923	movie	1		280	35.0	2.5	/experiments/Knapen_AOT/AOT_stimuli/rescaled_final/1089_fw.mp4	0.0	207.59619879722595	2.4919700622558594
37	179.75874638557434	pulse	1	t		35.0	2.5	/experiments/Knapen_AOT/AOT_stimuli/rescaled_final/1089_fw.mp4	0.0	207.96998143196106	
37	181.35857558250427	pulse	1	t		35.0	2.5	/experiments/Knapen_AOT/AOT_stimuli/rescaled_final/1089_fw.mp4	0.0	209.569810628891	
37	181.8769338130951	fix_post	2		12	35.0	2.5	/experiments/Knapen_AOT/AOT_stimuli/rescaled_final/1089_fw.mp4	0.0	210.0881688594818	0.09998917579650879
38	181.9769229888916	fix_pre	0		119	36.0	2.5	/experiments/Knapen_AOT/AOT_stimuli/rescaled_final/0834_fw.mp4	0.0	210.18815803527832	1.0001890659332275
38	182.9606363773346	pulse	0	t		36.0	2.5	/experiments/Knapen_AOT/AOT_stimuli/rescaled_final/0834_fw.mp4	0.0	211.1718714237213	
38	182.97711205482483	movie	1		280	36.0	2.5	/experiments/Knapen_AOT/AOT_stimuli/rescaled_final/0834_fw.mp4	0.0	211.18834710121155	2.5003538131713867
38	184.5593445301056	pulse	1	t		36.0	2.5	/experiments/Knapen_AOT/AOT_stimuli/rescaled_final/0834_fw.mp4	0.0	212.7705795764923	
38	185.47746586799622	fix_post	2		12	36.0	2.5	/experiments/Knapen_AOT/AOT_stimuli/rescaled_final/0834_fw.mp4	0.0	213.68870091438293	0.10000872611999512
39	185.5774745941162	fix_pre	0		120	37.0	2.5	/experiments/Knapen_AOT/AOT_stimuli/rescaled_final/1116_fw.mp4	0.0	213.78870964050293	1.00848388671875
39	186.1610505580902	pulse	0	t		37.0	2.5	/experiments/Knapen_AOT/AOT_stimuli/rescaled_final/1116_fw.mp4	0.0	214.37228560447693	
39	186.58595848083496	movie	1		274	37.0	2.5	/experiments/Knapen_AOT/AOT_stimuli/rescaled_final/1116_fw.mp4	0.0	214.79719352722168	2.4920706748962402
39	187.76090908050537	pulse	1	t		37.0	2.5	/experiments/Knapen_AOT/AOT_stimuli/rescaled_final/1116_fw.mp4	0.0	215.9721441268921	
39	189.0780291557312	fix_post	2		12	37.0	2.5	/experiments/Knapen_AOT/AOT_stimuli/rescaled_final/1116_fw.mp4	0.0	217.28926420211792	0.09999489784240723
40	189.1780240535736	fix_pre	0		120	38.0	2.5	/experiments/Knapen_AOT/AOT_stimuli/rescaled_final/2026_fw.mp4	0.0	217.38925909996033	1.0085222721099854
40	189.36149835586548	pulse	0	t		38.0	2.5	/experiments/Knapen_AOT/AOT_stimuli/rescaled_final/2026_fw.mp4	0.0	217.5727334022522	
40	190.1865463256836	movie	1		287	38.0	2.5	/experiments/Knapen_AOT/AOT_stimuli/rescaled_final/2026_fw.mp4	0.0	218.3977813720703	2.492025375366211
40	190.95995950698853	pulse	1	t		38.0	2.5	/experiments/Knapen_AOT/AOT_stimuli/rescaled_final/2026_fw.mp4	0.0	219.17119455337524	
40	192.56002736091614	pulse	1	t		38.0	2.5	/experiments/Knapen_AOT/AOT_stimuli/rescaled_final/2026_fw.mp4	0.0	220.77126240730286	
40	192.6785717010498	fix_post	2		12	38.0	2.5	/experiments/Knapen_AOT/AOT_stimuli/rescaled_final/2026_fw.mp4	0.0	220.88980674743652	0.1000051498413086
41	192.7785768508911	fix_pre	0		120	39.0	2.5	/experiments/Knapen_AOT/AOT_stimuli/rescaled_final/0907_rv.mp4	0.0	220.98981189727783	1.0085396766662598
41	193.78711652755737	movie	1		288	39.0	2.5	/experiments/Knapen_AOT/AOT_stimuli/rescaled_final/0907_rv.mp4	0.0	221.9983515739441	2.4919652938842773
41	194.16083145141602	pulse	1	t		39.0	2.5	/experiments/Knapen_AOT/AOT_stimuli/rescaled_final/0907_rv.mp4	0.0	222.37206649780273	
41	195.76059889793396	pulse	1	t		39.0	2.5	/experiments/Knapen_AOT/AOT_stimuli/rescaled_final/0907_rv.mp4	0.0	223.97183394432068	
41	196.27908182144165	fix_post	2		12	39.0	2.5	/experiments/Knapen_AOT/AOT_stimuli/rescaled_final/0907_rv.mp4	0.0	224.49031686782837	0.09999728202819824
42	196.37907910346985	fix_pre	0		119	40.0	2.5	/experiments/Knapen_AOT/AOT_stimuli/rescaled_final/0639_rv.mp4	0.0	224.59031414985657	1.0002226829528809
42	197.3628327846527	pulse	0	t		40.0	2.5	/experiments/Knapen_AOT/AOT_stimuli/rescaled_final/0639_rv.mp4	0.0	225.57406783103943	
42	197.37930178642273	movie	1		275	40.0	2.5	/experiments/Knapen_AOT/AOT_stimuli/rescaled_final/0639_rv.mp4	0.0	225.59053683280945	2.500312566757202
42	198.95664477348328	pulse	1	t		40.0	2.5	/experiments/Knapen_AOT/AOT_stimuli/rescaled_final/0639_rv.mp4	0.0	227.16787981987	
42	199.87961435317993	fix_post	2		12	40.0	2.5	/experiments/Knapen_AOT/AOT_stimuli/rescaled_final/0639_rv.mp4	0.0	228.09084939956665	0.10003328323364258
43	199.97964763641357	fix_pre	0		120	41.0	2.5	blank	1.0	228.1908826828003	1.0001895427703857
43	200.56353783607483	pulse	0	t		41.0	2.5	blank	1.0	228.77477288246155	
43	200.97983717918396	movie	1		300	41.0	2.5	blank	1.0	229.19107222557068	2.5003254413604736
43	202.16361236572266	pulse	1	t		41.0	2.5	blank	1.0	230.37484741210938	
43	203.48016262054443	fix_post	2		12	41.0	2.5	blank	1.0	231.69139766693115	0.10001969337463379
44	203.58018231391907	fix_pre	0		120	42.0	2.5	/experiments/Knapen_AOT/AOT_stimuli/rescaled_final/1337_fw.mp4	0.0	231.7914173603058	1.0084574222564697
44	203.7637095451355	pulse	0	t		42.0	2.5	/experiments/Knapen_AOT/AOT_stimuli/rescaled_final/1337_fw.mp4	0.0	231.97494459152222	
44	204.58863973617554	movie	1		282	42.0	2.5	/experiments/Knapen_AOT/AOT_stimuli/rescaled_final/1337_fw.mp4	0.0	232.79987478256226	2.4920599460601807
44	205.36211109161377	pulse	1	t		42.0	2.5	/experiments/Knapen_AOT/AOT_stimuli/rescaled_final/1337_fw.mp4	0.0	233.5733461380005	
44	206.9562861919403	pulse	1	t		42.0	2.5	/experiments/Knapen_AOT/AOT_stimuli/rescaled_final/1337_fw.mp4	0.0	235.16752123832703	
44	207.08069968223572	fix_post	2		12	42.0	2.5	/experiments/Knapen_AOT/AOT_stimuli/rescaled_final/1337_fw.mp4	0.0	235.29193472862244	0.10003161430358887
45	207.1807312965393	fix_pre	0		120	43.0	2.5	/experiments/Knapen_AOT/AOT_stimuli/rescaled_final/0171_rv.mp4	0.0	235.39196634292603	1.0085089206695557
45	208.18924021720886	movie	1		290	43.0	2.5	/experiments/Knapen_AOT/AOT_stimuli/rescaled_final/0171_rv.mp4	0.0	236.40047526359558	2.500516414642334
45	208.55635142326355	pulse	1	t		43.0	2.5	/experiments/Knapen_AOT/AOT_stimuli/rescaled_final/0171_rv.mp4	0.0	236.76758646965027	
45	210.156311750412	pulse	1	t		43.0	2.5	/experiments/Knapen_AOT/AOT_stimuli/rescaled_final/0171_rv.mp4	0.0	238.3675467967987	
45	210.6897566318512	fix_post	2		11	43.0	2.5	/experiments/Knapen_AOT/AOT_stimuli/rescaled_final/0171_rv.mp4	0.0	238.90099167823792	0.0915224552154541
46	210.78127908706665	fix_pre	0		118	44.0	2.5	/experiments/Knapen_AOT/AOT_stimuli/rescaled_final/0213_rv.mp4	0.0	238.99251413345337	0.9918117523193359
46	211.7566225528717	pulse	0	t		44.0	2.5	/experiments/Knapen_AOT/AOT_stimuli/rescaled_final/0213_rv.mp4	0.0	239.96785759925842	
46	211.773090839386	movie	1		287	44.0	2.5	/experiments/Knapen_AOT/AOT_stimuli/rescaled_final/0213_rv.mp4	0.0	239.9843258857727	2.5003502368927
46	213.3569459915161	pulse	1	t		44.0	2.5	/experiments/Knapen_AOT/AOT_stimuli/rescaled_final/0213_rv.mp4	0.0	241.56818103790283	
46	214.2734410762787	fix_post	2		12	44.0	2.5	/experiments/Knapen_AOT/AOT_stimuli/rescaled_final/0213_rv.mp4	0.0	242.4846761226654	0.1000528335571289
47	214.37349390983582	fix_pre	0		120	45.0	2.5	/experiments/Knapen_AOT/AOT_stimuli/rescaled_final/1796_rv.mp4	0.0	242.58472895622253	1.0085372924804688
47	214.9575116634369	pulse	0	t		45.0	2.5	/experiments/Knapen_AOT/AOT_stimuli/rescaled_final/1796_rv.mp4	0.0	243.1687467098236	
47	215.38203120231628	movie	1		279	45.0	2.5	/experiments/Knapen_AOT/AOT_stimuli/rescaled_final/1796_rv.mp4	0.0	243.593266248703	2.491964340209961
47	216.55740356445312	pulse	1	t		45.0	2.5	/experiments/Knapen_AOT/AOT_stimuli/rescaled_final/1796_rv.mp4	0.0	244.76863861083984	
47	217.87399554252625	fix_post	2		12	45.0	2.5	/experiments/Knapen_AOT/AOT_stimuli/rescaled_final/1796_rv.mp4	0.0	246.08523058891296	0.1000204086303711
48	217.97401595115662	fix_pre	0		120	46.0	2.5	/experiments/Knapen_AOT/AOT_stimuli/rescaled_final/0069_fw.mp4	0.0	246.18525099754333	1.0084896087646484
48	218.15759325027466	pulse	0	t		46.0	2.5	/experiments/Knapen_AOT/AOT_stimuli/rescaled_final/0069_fw.mp4	0.0	246.36882829666138	
48	218.98250555992126	movie	1		258	46.0	2.5	/experiments/Knapen_AOT/AOT_stimuli/rescaled_final/0069_fw.mp4	0.0	247.19374060630798	2.4920263290405273
48	219.75791358947754	pulse	1	t		46.0	2.5	/experiments/Knapen_AOT/AOT_stimuli/rescaled_final/0069_fw.mp4	0.0	247.96914863586426	
48	221.35813403129578	pulse	1	t		46.0	2.5	/experiments/Knapen_AOT/AOT_stimuli/rescaled_final/0069_fw.mp4	0.0	249.5693690776825	
48	221.4745318889618	fix_post	2		12	46.0	2.5	/experiments/Knapen_AOT/AOT_stimuli/rescaled_final/0069_fw.mp4	0.0	249.6857669353485	0.1000204086303711
49	221.57455229759216	fix_pre	0		120	47.0	2.5	blank	1.0	249.78578734397888	1.000176191329956
49	222.57472848892212	movie	1		300	47.0	2.5	blank	1.0	250.78596353530884	2.500383138656616
49	222.95834350585938	pulse	1	t		47.0	2.5	blank	1.0	251.1695785522461	
49	224.55862760543823	pulse	1	t		47.0	2.5	blank	1.0	252.76986265182495	
49	225.07511162757874	fix_post	2		12	47.0	2.5	blank	1.0	253.28634667396545	0.09996151924133301
50	225.17507314682007	fix_pre	0		119	48.0	2.5	/experiments/Knapen_AOT/AOT_stimuli/rescaled_final/1561_fw.mp4	0.0	253.3863081932068	1.000253438949585
50	226.15899968147278	pulse	0	t		48.0	2.5	/experiments/Knapen_AOT/AOT_stimuli/rescaled_final/1561_fw.mp4	0.0	254.3702347278595	
50	226.17532658576965	movie	1		272	48.0	2.5	/experiments/Knapen_AOT/AOT_stimuli/rescaled_final/1561_fw.mp4	0.0	254.38656163215637	2.5002963542938232
50	227.75761246681213	pulse	1	t		48.0	2.5	/experiments/Knapen_AOT/AOT_stimuli/rescaled_final/1561_fw.mp4	0.0	255.96884751319885	
50	228.67562294006348	fix_post	2		12	48.0	2.5	/experiments/Knapen_AOT/AOT_stimuli/rescaled_final/1561_fw.mp4	0.0	256.8868579864502	0.10018396377563477
51	228.7758069038391	fix_pre	0		120	49.0	2.5	/experiments/Knapen_AOT/AOT_stimuli/rescaled_final/0749_rv.mp4	0.0	256.98704195022583	1.0083343982696533
51	229.35936188697815	pulse	0	t		49.0	2.5	/experiments/Knapen_AOT/AOT_stimuli/rescaled_final/0749_rv.mp4	0.0	257.57059693336487	
51	229.78414130210876	movie	1		284	49.0	2.5	/experiments/Knapen_AOT/AOT_stimuli/rescaled_final/0749_rv.mp4	0.0	257.9953763484955	2.4920156002044678
51	230.95773673057556	pulse	1	t		49.0	2.5	/experiments/Knapen_AOT/AOT_stimuli/rescaled_final/0749_rv.mp4	0.0	259.1689717769623	
51	232.27615690231323	fix_post	2		11	49.0	2.5	/experiments/Knapen_AOT/AOT_stimuli/rescaled_final/0749_rv.mp4	0.0	260.48739194869995	0.1000375747680664
52	232.3761944770813	fix_pre	0		120	50.0	2.5	/experiments/Knapen_AOT/AOT_stimuli/rescaled_final/2069_rv.mp4	0.0	260.587429523468	1.0085749626159668
52	232.55972909927368	pulse	0	t		50.0	2.5	/experiments/Knapen_AOT/AOT_stimuli/rescaled_final/2069_rv.mp4	0.0	260.7709641456604	
52	233.38476943969727	movie	1		276	50.0	2.5	/experiments/Knapen_AOT/AOT_stimuli/rescaled_final/2069_rv.mp4	0.0	261.596004486084	2.492030382156372
52	234.15788173675537	pulse	1	t		50.0	2.5	/experiments/Knapen_AOT/AOT_stimuli/rescaled_final/2069_rv.mp4	0.0	262.3691167831421	
52	235.7584159374237	pulse	1	t		50.0	2.5	/experiments/Knapen_AOT/AOT_stimuli/rescaled_final/2069_rv.mp4	0.0	263.9696509838104	
52	235.87679982185364	fix_post	2		12	50.0	2.5	/experiments/Knapen_AOT/AOT_stimuli/rescaled_final/2069_rv.mp4	0.0	264.08803486824036	0.0999143123626709
53	235.9767141342163	fix_pre	0		120	51.0	2.5	/experiments/Knapen_AOT/AOT_stimuli/rescaled_final/0628_fw.mp4	0.0	264.187949180603	1.0086617469787598
53	236.98537588119507	movie	1		271	51.0	2.5	/experiments/Knapen_AOT/AOT_stimuli/rescaled_final/0628_fw.mp4	0.0	265.1966109275818	2.4918839931488037
53	237.35876607894897	pulse	1	t		51.0	2.5	/experiments/Knapen_AOT/AOT_stimuli/rescaled_final/0628_fw.mp4	0.0	265.5700011253357	
53	238.95873093605042	pulse	1	t		51.0	2.5	/experiments/Knapen_AOT/AOT_stimuli/rescaled_final/0628_fw.mp4	0.0	267.16996598243713	
53	239.47725987434387	fix_post	2		12	51.0	2.5	/experiments/Knapen_AOT/AOT_stimuli/rescaled_final/0628_fw.mp4	0.0	267.6884949207306	0.10001158714294434
54	239.57727146148682	fix_pre	0		119	52.0	2.5	/experiments/Knapen_AOT/AOT_stimuli/rescaled_final/0499_rv.mp4	0.0	267.78850650787354	1.0001685619354248
54	240.56101059913635	pulse	0	t		52.0	2.5	/experiments/Knapen_AOT/AOT_stimuli/rescaled_final/0499_rv.mp4	0.0	268.77224564552307	
54	240.57744002342224	movie	1		286	52.0	2.5	/experiments/Knapen_AOT/AOT_stimuli/rescaled_final/0499_rv.mp4	0.0	268.78867506980896	2.5003676414489746
54	242.16001272201538	pulse	1	t		52.0	2.5	/experiments/Knapen_AOT/AOT_stimuli/rescaled_final/0499_rv.mp4	0.0	270.3712477684021	
54	243.07780766487122	fix_post	2		12	52.0	2.5	/experiments/Knapen_AOT/AOT_stimuli/rescaled_final/0499_rv.mp4	0.0	271.28904271125793	0.09999680519104004
55	243.17780447006226	fix_pre	0		120	53.0	2.5	/experiments/Knapen_AOT/AOT_stimuli/rescaled_final/1045_rv.mp4	0.0	271.389039516449	1.008507490158081
55	243.76145386695862	pulse	0	t		53.0	2.5	/experiments/Knapen_AOT/AOT_stimuli/rescaled_final/1045_rv.mp4	0.0	271.97268891334534	
55	244.18631196022034	movie	1		272	53.0	2.5	/experiments/Knapen_AOT/AOT_stimuli/rescaled_final/1045_rv.mp4	0.0	272.39754700660706	2.492018938064575
55	245.35968494415283	pulse	1	t		53.0	2.5	/experiments/Knapen_AOT/AOT_stimuli/rescaled_final/1045_rv.mp4	0.0	273.57091999053955	
55	246.6783308982849	fix_post	2		12	53.0	2.5	/experiments/Knapen_AOT/AOT_stimuli/rescaled_final/1045_rv.mp4	0.0	274.88956594467163	0.10005474090576172
56	246.77838563919067	fix_pre	0		120	54.0	2.5	/experiments/Knapen_AOT/AOT_stimuli/rescaled_final/1800_fw.mp4	0.0	274.9896206855774	1.0084621906280518
56	246.96202850341797	pulse	0	t		54.0	2.5	/experiments/Knapen_AOT/AOT_stimuli/rescaled_final/1800_fw.mp4	0.0	275.1732635498047	
56	247.78684782981873	movie	1		279	54.0	2.5	/experiments/Knapen_AOT/AOT_stimuli/rescaled_final/1800_fw.mp4	0.0	275.99808287620544	2.492169141769409
56	248.56015610694885	pulse	1	t		54.0	2.5	/experiments/Knapen_AOT/AOT_stimuli/rescaled_final/1800_fw.mp4	0.0	276.77139115333557	
56	250.16080617904663	pulse	1	t		54.0	2.5	/experiments/Knapen_AOT/AOT_stimuli/rescaled_final/1800_fw.mp4	0.0	278.37204122543335	
56	250.27901697158813	fix_post	2		12	54.0	2.5	/experiments/Knapen_AOT/AOT_stimuli/rescaled_final/1800_fw.mp4	0.0	278.49025201797485	0.09987211227416992
57	250.3788890838623	fix_pre	0		120	55.0	2.5	blank	1.0	278.590124130249	1.0001652240753174
57	251.37905430793762	movie	1		300	55.0	2.5	blank	1.0	279.59028935432434	2.5003488063812256
57	251.76264238357544	pulse	1	t		55.0	2.5	blank	1.0	279.97387742996216	
57	253.36284708976746	pulse	1	t		55.0	2.5	blank	1.0	281.5740821361542	
57	253.87940311431885	fix_post	2		12	55.0	2.5	blank	1.0	282.09063816070557	0.10002303123474121
58	253.9794261455536	fix_pre	0		119	56.0	2.5	/experiments/Knapen_AOT/AOT_stimuli/rescaled_final/0852_rv.mp4	0.0	282.1906611919403	1.0085337162017822
58	254.96356558799744	pulse	0	t		56.0	2.5	/experiments/Knapen_AOT/AOT_stimuli/rescaled_final/0852_rv.mp4	0.0	283.17480063438416	
58	254.98795986175537	movie	1		269	56.0	2.5	/experiments/Knapen_AOT/AOT_stimuli/rescaled_final/0852_rv.mp4	0.0	283.1991949081421	2.492081642150879
58	256.56189584732056	pulse	1	t		56.0	2.5	/experiments/Knapen_AOT/AOT_stimuli/rescaled_final/0852_rv.mp4	0.0	284.7731308937073	
58	257.48004150390625	fix_post	2		12	56.0	2.5	/experiments/Knapen_AOT/AOT_stimuli/rescaled_final/0852_rv.mp4	0.0	285.69127655029297	0.10000014305114746
59	257.5800416469574	fix_pre	0		120	57.0	2.5	/experiments/Knapen_AOT/AOT_stimuli/rescaled_final/0420_rv.mp4	0.0	285.7912766933441	1.0084412097930908
59	258.15571689605713	pulse	0	t		57.0	2.5	/experiments/Knapen_AOT/AOT_stimuli/rescaled_final/0420_rv.mp4	0.0	286.36695194244385	
59	258.5884828567505	movie	1		287	57.0	2.5	/experiments/Knapen_AOT/AOT_stimuli/rescaled_final/0420_rv.mp4	0.0	286.7997179031372	2.4920103549957275
59	259.7558009624481	pulse	1	t		57.0	2.5	/experiments/Knapen_AOT/AOT_stimuli/rescaled_final/0420_rv.mp4	0.0	287.96703600883484	
59	261.0804932117462	fix_post	2		12	57.0	2.5	/experiments/Knapen_AOT/AOT_stimuli/rescaled_final/0420_rv.mp4	0.0	289.29172825813293	0.10002756118774414
60	261.18052077293396	fix_pre	0		120	58.0	2.5	/experiments/Knapen_AOT/AOT_stimuli/rescaled_final/0560_rv.mp4	0.0	289.3917558193207	1.0084855556488037
60	261.35595178604126	pulse	0	t		58.0	2.5	/experiments/Knapen_AOT/AOT_stimuli/rescaled_final/0560_rv.mp4	0.0	289.567186832428	
60	262.18900632858276	movie	1		283	58.0	2.5	/experiments/Knapen_AOT/AOT_stimuli/rescaled_final/0560_rv.mp4	0.0	290.4002413749695	2.4920661449432373
60	262.95598244667053	pulse	1	t		58.0	2.5	/experiments/Knapen_AOT/AOT_stimuli/rescaled_final/0560_rv.mp4	0.0	291.16721749305725	
60	264.5562789440155	pulse	1	t		58.0	2.5	/experiments/Knapen_AOT/AOT_stimuli/rescaled_final/0560_rv.mp4	0.0	292.7675139904022	
60	264.681072473526	fix_post	2		12	58.0	2.5	/experiments/Knapen_AOT/AOT_stimuli/rescaled_final/0560_rv.mp4	0.0	292.8923075199127	0.09997320175170898
61	264.7810456752777	fix_pre	0		120	59.0	2.5	/experiments/Knapen_AOT/AOT_stimuli/rescaled_final/0502_rv.mp4	0.0	292.99228072166443	1.0085060596466064
61	265.7895517349243	movie	1		275	59.0	2.5	/experiments/Knapen_AOT/AOT_stimuli/rescaled_final/0502_rv.mp4	0.0	294.00078678131104	2.4920413494110107
61	266.15656995773315	pulse	1	t		59.0	2.5	/experiments/Knapen_AOT/AOT_stimuli/rescaled_final/0502_rv.mp4	0.0	294.3678050041199	
61	267.7567095756531	pulse	1	t		59.0	2.5	/experiments/Knapen_AOT/AOT_stimuli/rescaled_final/0502_rv.mp4	0.0	295.9679446220398	
61	268.2815930843353	fix_post	2		12	59.0	2.5	/experiments/Knapen_AOT/AOT_stimuli/rescaled_final/0502_rv.mp4	0.0	296.49282813072205	0.1000218391418457
62	268.3816149234772	fix_pre	0		118	60.0	2.5	/experiments/Knapen_AOT/AOT_stimuli/rescaled_final/1538_fw.mp4	0.0	296.5928499698639	1.0003244876861572
62	269.3570580482483	pulse	0	t		60.0	2.5	/experiments/Knapen_AOT/AOT_stimuli/rescaled_final/1538_fw.mp4	0.0	297.568293094635	
62	269.38193941116333	movie	1		268	60.0	2.5	/experiments/Knapen_AOT/AOT_stimuli/rescaled_final/1538_fw.mp4	0.0	297.59317445755005	2.491856336593628
62	270.95739126205444	pulse	1	t		60.0	2.5	/experiments/Knapen_AOT/AOT_stimuli/rescaled_final/1538_fw.mp4	0.0	299.16862630844116	
62	271.87379574775696	fix_post	2		12	60.0	2.5	/experiments/Knapen_AOT/AOT_stimuli/rescaled_final/1538_fw.mp4	0.0	300.0850307941437	0.10001158714294434
63	271.9738073348999	fix_pre	0		120	61.0	2.5	blank	1.0	300.1850423812866	1.0001296997070312
63	272.55773305892944	pulse	0	t		61.0	2.5	blank	1.0	300.76896810531616	
63	272.97393703460693	movie	1		300	61.0	2.5	blank	1.0	301.18517208099365	2.5003814697265625
63	274.15768551826477	pulse	1	t		61.0	2.5	blank	1.0	302.3689205646515	
63	275.4743185043335	fix_post	2		12	61.0	2.5	blank	1.0	303.6855535507202	0.10005569458007812
64	275.5743741989136	fix_pre	0		120	62.0	2.5	/experiments/Knapen_AOT/AOT_stimuli/rescaled_final/0652_rv.mp4	0.0	303.7856092453003	1.0084593296051025
64	275.7579572200775	pulse	0	t		62.0	2.5	/experiments/Knapen_AOT/AOT_stimuli/rescaled_final/0652_rv.mp4	0.0	303.96919226646423	
64	276.5828335285187	movie	1		285	62.0	2.5	/experiments/Knapen_AOT/AOT_stimuli/rescaled_final/0652_rv.mp4	0.0	304.7940685749054	2.492011308670044
64	277.35659861564636	pulse	1	t		62.0	2.5	/experiments/Knapen_AOT/AOT_stimuli/rescaled_final/0652_rv.mp4	0.0	305.5678336620331	
64	278.9571237564087	pulse	1	t		62.0	2.5	/experiments/Knapen_AOT/AOT_stimuli/rescaled_final/0652_rv.mp4	0.0	307.1683588027954	
64	279.0748448371887	fix_post	2		12	62.0	2.5	/experiments/Knapen_AOT/AOT_stimuli/rescaled_final/0652_rv.mp4	0.0	307.28607988357544	0.10004186630249023
65	279.1748867034912	fix_pre	0		120	63.0	2.5	/experiments/Knapen_AOT/AOT_stimuli/rescaled_final/0122_rv.mp4	0.0	307.38612174987793	1.0085296630859375
65	280.18341636657715	movie	1		277	63.0	2.5	/experiments/Knapen_AOT/AOT_stimuli/rescaled_final/0122_rv.mp4	0.0	308.39465141296387	2.491992950439453
65	280.55687189102173	pulse	1	t		63.0	2.5	/experiments/Knapen_AOT/AOT_stimuli/rescaled_final/0122_rv.mp4	0.0	308.76810693740845	
65	282.1590006351471	pulse	1	t		63.0	2.5	/experiments/Knapen_AOT/AOT_stimuli/rescaled_final/0122_rv.mp4	0.0	310.3702356815338	
65	282.6754093170166	fix_post	2		12	63.0	2.5	/experiments/Knapen_AOT/AOT_stimuli/rescaled_final/0122_rv.mp4	0.0	310.8866443634033	0.09999275207519531
66	282.7754020690918	fix_pre	0		119	64.0	2.5	/experiments/Knapen_AOT/AOT_stimuli/rescaled_final/0741_rv.mp4	0.0	310.9866371154785	1.000239610671997
66	283.7590296268463	pulse	0	t		64.0	2.5	/experiments/Knapen_AOT/AOT_stimuli/rescaled_final/0741_rv.mp4	0.0	311.97026467323303	
66	283.7756416797638	movie	1		279	64.0	2.5	/experiments/Knapen_AOT/AOT_stimuli/rescaled_final/0741_rv.mp4	0.0	311.9868767261505	2.5003156661987305
66	285.3579182624817	pulse	1	t		64.0	2.5	/experiments/Knapen_AOT/AOT_stimuli/rescaled_final/0741_rv.mp4	0.0	313.5691533088684	
66	286.2759573459625	fix_post	2		12	64.0	2.5	/experiments/Knapen_AOT/AOT_stimuli/rescaled_final/0741_rv.mp4	0.0	314.48719239234924	0.10001802444458008
67	286.3759753704071	fix_pre	0		120	65.0	2.5	/experiments/Knapen_AOT/AOT_stimuli/rescaled_final/1620_rv.mp4	0.0	314.5872104167938	1.0085017681121826
67	286.95967173576355	pulse	0	t		65.0	2.5	/experiments/Knapen_AOT/AOT_stimuli/rescaled_final/1620_rv.mp4	0.0	315.17090678215027	
67	287.3844771385193	movie	1		277	65.0	2.5	/experiments/Knapen_AOT/AOT_stimuli/rescaled_final/1620_rv.mp4	0.0	315.595712184906	2.492016553878784
67	288.55803060531616	pulse	1	t		65.0	2.5	/experiments/Knapen_AOT/AOT_stimuli/rescaled_final/1620_rv.mp4	0.0	316.7692656517029	
67	289.87649369239807	fix_post	2		12	65.0	2.5	/experiments/Knapen_AOT/AOT_stimuli/rescaled_final/1620_rv.mp4	0.0	318.0877287387848	0.10000181198120117
68	289.9764955043793	fix_pre	0		120	66.0	2.5	/experiments/Knapen_AOT/AOT_stimuli/rescaled_final/1772_rv.mp4	0.0	318.187730550766	1.0085477828979492
68	290.160099029541	pulse	0	t		66.0	2.5	/experiments/Knapen_AOT/AOT_stimuli/rescaled_final/1772_rv.mp4	0.0	318.37133407592773	
68	290.9850432872772	movie	1		275	66.0	2.5	/experiments/Knapen_AOT/AOT_stimuli/rescaled_final/1772_rv.mp4	0.0	319.19627833366394	2.4919917583465576
68	291.75974893569946	pulse	1	t		66.0	2.5	/experiments/Knapen_AOT/AOT_stimuli/rescaled_final/1772_rv.mp4	0.0	319.9709839820862	
68	293.3585343360901	pulse	1	t		66.0	2.5	/experiments/Knapen_AOT/AOT_stimuli/rescaled_final/1772_rv.mp4	0.0	321.5697693824768	
68	293.4770350456238	fix_post	2		12	66.0	2.5	/experiments/Knapen_AOT/AOT_stimuli/rescaled_final/1772_rv.mp4	0.0	321.6882700920105	0.10000491142272949
69	293.5770399570465	fix_pre	0		120	67.0	2.5	/experiments/Knapen_AOT/AOT_stimuli/rescaled_final/1893_fw.mp4	0.0	321.7882750034332	1.008500576019287
69	294.5855405330658	movie	1		280	67.0	2.5	/experiments/Knapen_AOT/AOT_stimuli/rescaled_final/1893_fw.mp4	0.0	322.7967755794525	2.4920828342437744
69	294.960652589798	pulse	1	t		67.0	2.5	/experiments/Knapen_AOT/AOT_stimuli/rescaled_final/1893_fw.mp4	0.0	323.1718876361847	
69	296.5592677593231	pulse	1	t		67.0	2.5	/experiments/Knapen_AOT/AOT_stimuli/rescaled_final/1893_fw.mp4	0.0	324.77050280570984	
69	297.07762336730957	fix_post	2		11	67.0	2.5	/experiments/Knapen_AOT/AOT_stimuli/rescaled_final/1893_fw.mp4	0.0	325.2888584136963	0.09996652603149414
70	297.17758989334106	fix_pre	0		119	68.0	2.5	/experiments/Knapen_AOT/AOT_stimuli/rescaled_final/1111_rv.mp4	0.0	325.3888249397278	1.0001676082611084
70	298.16135573387146	pulse	0	t		68.0	2.5	/experiments/Knapen_AOT/AOT_stimuli/rescaled_final/1111_rv.mp4	0.0	326.3725907802582	
70	298.1777575016022	movie	1		284	68.0	2.5	/experiments/Knapen_AOT/AOT_stimuli/rescaled_final/1111_rv.mp4	0.0	326.3889925479889	2.500361919403076
70	299.76007604599	pulse	1	t		68.0	2.5	/experiments/Knapen_AOT/AOT_stimuli/rescaled_final/1111_rv.mp4	0.0	327.9713110923767	
70	300.67811942100525	fix_post	2		12	68.0	2.5	/experiments/Knapen_AOT/AOT_stimuli/rescaled_final/1111_rv.mp4	0.0	328.88935446739197	0.10003161430358887
71	300.77815103530884	fix_pre	0		120	69.0	2.5	/experiments/Knapen_AOT/AOT_stimuli/rescaled_final/0653_rv.mp4	0.0	328.98938608169556	1.0084643363952637
71	301.3619694709778	pulse	0	t		69.0	2.5	/experiments/Knapen_AOT/AOT_stimuli/rescaled_final/0653_rv.mp4	0.0	329.5732045173645	
71	301.7866153717041	movie	1		279	69.0	2.5	/experiments/Knapen_AOT/AOT_stimuli/rescaled_final/0653_rv.mp4	0.0	329.9978504180908	2.4920449256896973
71	302.9604151248932	pulse	1	t		69.0	2.5	/experiments/Knapen_AOT/AOT_stimuli/rescaled_final/0653_rv.mp4	0.0	331.1716501712799	
71	304.2786602973938	fix_post	2		12	69.0	2.5	/experiments/Knapen_AOT/AOT_stimuli/rescaled_final/0653_rv.mp4	0.0	332.4898953437805	0.10009884834289551
72	304.3787591457367	fix_pre	0		120	70.0	2.5	blank	1.0	332.5899941921234	1.0000965595245361
72	304.56241273880005	pulse	0	t		70.0	2.5	blank	1.0	332.77364778518677	
72	305.37885570526123	movie	1		300	70.0	2.5	blank	1.0	333.59009075164795	2.500333786010742
72	306.1625962257385	pulse	1	t		70.0	2.5	blank	1.0	334.37383127212524	
72	307.7628655433655	pulse	1	t		70.0	2.5	blank	1.0	335.9741005897522	
72	307.879189491272	fix_post	2		12	70.0	2.5	blank	1.0	336.0904245376587	0.10001802444458008
73	307.97920751571655	fix_pre	0		120	71.0	2.5	/experiments/Knapen_AOT/AOT_stimuli/rescaled_final/0452_fw.mp4	0.0	336.19044256210327	1.008528232574463
73	308.987735748291	movie	1		272	71.0	2.5	/experiments/Knapen_AOT/AOT_stimuli/rescaled_final/0452_fw.mp4	0.0	337.19897079467773	2.4920053482055664
73	309.3616659641266	pulse	1	t		71.0	2.5	/experiments/Knapen_AOT/AOT_stimuli/rescaled_final/0452_fw.mp4	0.0	337.5729010105133	
73	310.9611144065857	pulse	1	t		71.0	2.5	/experiments/Knapen_AOT/AOT_stimuli/rescaled_final/0452_fw.mp4	0.0	339.1723494529724	
73	311.4797410964966	fix_post	2		12	71.0	2.5	/experiments/Knapen_AOT/AOT_stimuli/rescaled_final/0452_fw.mp4	0.0	339.6909761428833	0.09998965263366699
74	311.57973074913025	fix_pre	0		119	72.0	2.5	/experiments/Knapen_AOT/AOT_stimuli/rescaled_final/1992_fw.mp4	0.0	339.79096579551697	1.000253438949585
74	312.5560314655304	pulse	0	t		72.0	2.5	/experiments/Knapen_AOT/AOT_stimuli/rescaled_final/1992_fw.mp4	0.0	340.7672665119171	
74	312.57998418807983	movie	1		277	72.0	2.5	/experiments/Knapen_AOT/AOT_stimuli/rescaled_final/1992_fw.mp4	0.0	340.79121923446655	2.5002965927124023
74	314.1635434627533	pulse	1	t		72.0	2.5	/experiments/Knapen_AOT/AOT_stimuli/rescaled_final/1992_fw.mp4	0.0	342.37477850914	
74	315.08028078079224	fix_post	2		12	72.0	2.5	/experiments/Knapen_AOT/AOT_stimuli/rescaled_final/1992_fw.mp4	0.0	343.29151582717896	0.10001826286315918
75	315.1802990436554	fix_pre	0		120	73.0	2.5	/experiments/Knapen_AOT/AOT_stimuli/rescaled_final/1450_fw.mp4	0.0	343.3915340900421	1.0085008144378662
75	315.75672340393066	pulse	0	t		73.0	2.5	/experiments/Knapen_AOT/AOT_stimuli/rescaled_final/1450_fw.mp4	0.0	343.9679584503174	
75	316.18879985809326	movie	1		272	73.0	2.5	/experiments/Knapen_AOT/AOT_stimuli/rescaled_final/1450_fw.mp4	0.0	344.40003490448	2.492030143737793
75	317.35607504844666	pulse	1	t		73.0	2.5	/experiments/Knapen_AOT/AOT_stimuli/rescaled_final/1450_fw.mp4	0.0	345.5673100948334	
75	318.68083000183105	fix_post	2		12	73.0	2.5	/experiments/Knapen_AOT/AOT_stimuli/rescaled_final/1450_fw.mp4	0.0	346.8920650482178	0.09997844696044922
76	318.7808084487915	fix_pre	0		120	74.0	2.5	/experiments/Knapen_AOT/AOT_stimuli/rescaled_final/1242_fw.mp4	0.0	346.9920434951782	1.008545160293579
76	318.9560332298279	pulse	0	t		74.0	2.5	/experiments/Knapen_AOT/AOT_stimuli/rescaled_final/1242_fw.mp4	0.0	347.1672682762146	
76	319.7893536090851	movie	1		274	74.0	2.5	/experiments/Knapen_AOT/AOT_stimuli/rescaled_final/1242_fw.mp4	0.0	348.0005886554718	2.4920108318328857
76	320.55660796165466	pulse	1	t		74.0	2.5	/experiments/Knapen_AOT/AOT_stimuli/rescaled_final/1242_fw.mp4	0.0	348.7678430080414	
76	322.15721702575684	pulse	1	t		74.0	2.5	/experiments/Knapen_AOT/AOT_stimuli/rescaled_final/1242_fw.mp4	0.0	350.36845207214355	
76	322.28136444091797	fix_post	2		12	74.0	2.5	/experiments/Knapen_AOT/AOT_stimuli/rescaled_final/1242_fw.mp4	0.0	350.4925994873047	0.10004091262817383
77	322.38140535354614	fix_pre	0		120	75.0	2.5	/experiments/Knapen_AOT/AOT_stimuli/rescaled_final/1938_rv.mp4	0.0	350.59264039993286	1.008479118347168
77	323.3898844718933	movie	1		266	75.0	2.5	/experiments/Knapen_AOT/AOT_stimuli/rescaled_final/1938_rv.mp4	0.0	351.60111951828003	2.492014169692993
77	323.75745010375977	pulse	1	t		75.0	2.5	/experiments/Knapen_AOT/AOT_stimuli/rescaled_final/1938_rv.mp4	0.0	351.9686851501465	
77	325.35714983940125	pulse	1	t		75.0	2.5	/experiments/Knapen_AOT/AOT_stimuli/rescaled_final/1938_rv.mp4	0.0	353.56838488578796	
77	325.8818986415863	fix_post	2		12	75.0	2.5	/experiments/Knapen_AOT/AOT_stimuli/rescaled_final/1938_rv.mp4	0.0	354.093133687973	0.10002517700195312
78	325.98192381858826	fix_pre	0		118	76.0	2.5	/experiments/Knapen_AOT/AOT_stimuli/rescaled_final/1538_fw.mp4	0.0	354.193158864975	0.9918248653411865
78	326.9573543071747	pulse	0	t		76.0	2.5	/experiments/Knapen_AOT/AOT_stimuli/rescaled_final/1538_fw.mp4	0.0	355.1685893535614	
78	326.97374868392944	movie	1		286	76.0	2.5	/experiments/Knapen_AOT/AOT_stimuli/rescaled_final/1538_fw.mp4	0.0	355.18498373031616	2.500359535217285
78	328.55759716033936	pulse	1	t		76.0	2.5	/experiments/Knapen_AOT/AOT_stimuli/rescaled_final/1538_fw.mp4	0.0	356.7688322067261	
78	329.47410821914673	fix_post	2		12	76.0	2.5	/experiments/Knapen_AOT/AOT_stimuli/rescaled_final/1538_fw.mp4	0.0	357.68534326553345	0.10003113746643066
79	329.57413935661316	fix_pre	0		120	77.0	2.5	blank	1.0	357.7853744029999	1.0001497268676758
79	330.1578061580658	pulse	0	t		77.0	2.5	blank	1.0	358.3690412044525	
79	330.57428908348083	movie	1		300	77.0	2.5	blank	1.0	358.78552412986755	2.500368595123291
79	331.7581045627594	pulse	1	t		77.0	2.5	blank	1.0	359.9693396091461	
79	333.0746576786041	fix_post	2		12	77.0	2.5	blank	1.0	361.28589272499084	0.10007405281066895
80	333.1747317314148	fix_pre	0		120	78.0	2.5	/experiments/Knapen_AOT/AOT_stimuli/rescaled_final/0652_rv.mp4	0.0	361.3859667778015	1.0084145069122314
80	333.3582570552826	pulse	0	t		78.0	2.5	/experiments/Knapen_AOT/AOT_stimuli/rescaled_final/0652_rv.mp4	0.0	361.5694921016693	
80	334.183146238327	movie	1		282	78.0	2.5	/experiments/Knapen_AOT/AOT_stimuli/rescaled_final/0652_rv.mp4	0.0	362.39438128471375	2.492025375366211
80	334.9564800262451	pulse	1	t		78.0	2.5	/experiments/Knapen_AOT/AOT_stimuli/rescaled_final/0652_rv.mp4	0.0	363.16771507263184	
80	336.5571656227112	pulse	1	t		78.0	2.5	/experiments/Knapen_AOT/AOT_stimuli/rescaled_final/0652_rv.mp4	0.0	364.7684006690979	
80	336.67517161369324	fix_post	2		12	78.0	2.5	/experiments/Knapen_AOT/AOT_stimuli/rescaled_final/0652_rv.mp4	0.0	364.88640666007996	0.10004138946533203
81	336.77521300315857	fix_pre	0		120	79.0	2.5	/experiments/Knapen_AOT/AOT_stimuli/rescaled_final/2026_rv.mp4	0.0	364.9864480495453	1.0084843635559082
81	337.7836973667145	movie	1		259	79.0	2.5	/experiments/Knapen_AOT/AOT_stimuli/rescaled_final/2026_rv.mp4	0.0	365.9949324131012	2.4920077323913574
81	338.15835881233215	pulse	1	t		79.0	2.5	/experiments/Knapen_AOT/AOT_stimuli/rescaled_final/2026_rv.mp4	0.0	366.3695938587189	
81	339.7594838142395	pulse	1	t		79.0	2.5	/experiments/Knapen_AOT/AOT_stimuli/rescaled_final/2026_rv.mp4	0.0	367.9707188606262	
81	340.27570509910583	fix_post	2		12	79.0	2.5	/experiments/Knapen_AOT/AOT_stimuli/rescaled_final/2026_rv.mp4	0.0	368.48694014549255	0.10004520416259766
82	340.37575030326843	fix_pre	0		119	80.0	2.5	/experiments/Knapen_AOT/AOT_stimuli/rescaled_final/0395_fw.mp4	0.0	368.58698534965515	1.008589506149292
82	341.35947132110596	pulse	0	t		80.0	2.5	/experiments/Knapen_AOT/AOT_stimuli/rescaled_final/0395_fw.mp4	0.0	369.5707063674927	
82	341.3843398094177	movie	1		278	80.0	2.5	/experiments/Knapen_AOT/AOT_stimuli/rescaled_final/0395_fw.mp4	0.0	369.59557485580444	2.491948366165161
82	342.958261013031	pulse	1	t		80.0	2.5	/experiments/Knapen_AOT/AOT_stimuli/rescaled_final/0395_fw.mp4	0.0	371.1694960594177	
82	343.8762881755829	fix_post	2		12	80.0	2.5	/experiments/Knapen_AOT/AOT_stimuli/rescaled_final/0395_fw.mp4	0.0	372.0875232219696	0.10000896453857422
83	343.97629714012146	fix_pre	0		120	81.0	2.5	/experiments/Knapen_AOT/AOT_stimuli/rescaled_final/0420_fw.mp4	0.0	372.1875321865082	1.0085155963897705
83	344.55993461608887	pulse	0	t		81.0	2.5	/experiments/Knapen_AOT/AOT_stimuli/rescaled_final/0420_fw.mp4	0.0	372.7711696624756	
83	344.98481273651123	movie	1		274	81.0	2.5	/experiments/Knapen_AOT/AOT_stimuli/rescaled_final/0420_fw.mp4	0.0	373.19604778289795	2.492082118988037
83	346.15862369537354	pulse	1	t		81.0	2.5	/experiments/Knapen_AOT/AOT_stimuli/rescaled_final/0420_fw.mp4	0.0	374.36985874176025	
83	347.47689485549927	fix_post	2		12	81.0	2.5	/experiments/Knapen_AOT/AOT_stimuli/rescaled_final/0420_fw.mp4	0.0	375.688129901886	0.0999898910522461
84	347.5768847465515	fix_pre	0		120	82.0	2.5	blank	1.0	375.78811979293823	1.0001094341278076
84	347.760390996933	pulse	0	t		82.0	2.5	blank	1.0	375.9716260433197	
84	348.5769941806793	movie	1		300	82.0	2.5	blank	1.0	376.78822922706604	2.5004165172576904
84	349.3608253002167	pulse	1	t		82.0	2.5	blank	1.0	377.5720603466034	
84	350.9609944820404	pulse	1	t		82.0	2.5	blank	1.0	379.1722295284271	
84	351.077410697937	fix_post	2		12	82.0	2.5	blank	1.0	379.28864574432373	0.10000085830688477
85	351.1774115562439	fix_pre	0		120	83.0	2.5	/experiments/Knapen_AOT/AOT_stimuli/rescaled_final/1388_rv.mp4	0.0	379.3886466026306	1.008441686630249
85	352.18585324287415	movie	1		278	83.0	2.5	/experiments/Knapen_AOT/AOT_stimuli/rescaled_final/1388_rv.mp4	0.0	380.39708828926086	2.492051362991333
85	352.55972385406494	pulse	1	t		83.0	2.5	/experiments/Knapen_AOT/AOT_stimuli/rescaled_final/1388_rv.mp4	0.0	380.77095890045166	
85	354.1605386734009	pulse	1	t		83.0	2.5	/experiments/Knapen_AOT/AOT_stimuli/rescaled_final/1388_rv.mp4	0.0	382.3717737197876	
85	354.6779046058655	fix_post	2		12	83.0	2.5	/experiments/Knapen_AOT/AOT_stimuli/rescaled_final/1388_rv.mp4	0.0	382.8891396522522	0.09999608993530273
87	354.7779006958008	stim	0		1715					382.9891357421875	14.29382061958313
87	355.76175928115845	pulse	0	t						383.97299432754517	
87	357.3618862628937	pulse	0	t						385.5731213092804	
87	358.9621286392212	pulse	0	t						387.1733636856079	
87	360.562374830246	pulse	0	t						388.7736098766327	
87	362.1625828742981	pulse	0	t						390.3738179206848	
87	363.76286125183105	pulse	0	t						391.9740962982178	
87	365.3630440235138	pulse	0	t						393.5742790699005	
87	366.96351313591003	pulse	0	t						395.17474818229675	
87	368.5636250972748	pulse	0	t						396.7748601436615	
