trial_nr	onset	event_type	phase	response	nr_frames	movie_index	movie_duration	movie_file	blank	onset_abs	duration
0	0.20844697952270508	stim	0		64					30.953643083572388	0.5333540439605713
0	0.7335529327392578	response	0	space						31.47874903678894	
1	0.7418010234832764	stim	0		4906					31.48699712753296	40.89927887916565
1	41.63134503364563	pulse	0	t						72.37654113769531	
1	41.641079902648926	stim	1		1716					72.38627600669861	14.300537109375
1	43.21578502655029	pulse	1	t						73.96098113059998	
1	44.815927028656006	pulse	1	t						75.56112313270569	
1	46.416220903396606	pulse	1	t						77.16141700744629	
1	48.01648998260498	pulse	1	t						78.76168608665466	
1	49.61652898788452	pulse	1	t						80.3617250919342	
1	51.21597409248352	pulse	1	t						81.9611701965332	
1	52.81635594367981	pulse	1	t						83.56155204772949	
1	54.41655993461609	pulse	1	t						85.16175603866577	
2	55.941617012023926	fix_pre	0		10	0.0	2.5	/experiments/knapen_AOT/AOT_stimuli/rescaled_final/1230_fw.mp4	0.0	86.68681311607361	0.08328986167907715
2	56.016793966293335	pulse	0	t		0.0	2.5	/experiments/knapen_AOT/AOT_stimuli/rescaled_final/1230_fw.mp4	0.0	86.76199007034302	
2	56.024906873703	movie	1		246	0.0	2.5	/experiments/knapen_AOT/AOT_stimuli/rescaled_final/1230_fw.mp4	0.0	86.77010297775269	2.508721113204956
2	57.61754608154297	pulse	1	t		0.0	2.5	/experiments/knapen_AOT/AOT_stimuli/rescaled_final/1230_fw.mp4	0.0	88.36274218559265	
2	58.53362798690796	fix_post	2		12	0.0	2.5	/experiments/knapen_AOT/AOT_stimuli/rescaled_final/1230_fw.mp4	0.0	89.27882409095764	0.10002708435058594
3	58.633655071258545	fix_pre	0		120	1.0	2.5	/experiments/knapen_AOT/AOT_stimuli/rescaled_final/1926_fw.mp4	0.0	89.37885117530823	1.0001640319824219
3	59.21730089187622	pulse	0	t		1.0	2.5	/experiments/knapen_AOT/AOT_stimuli/rescaled_final/1926_fw.mp4	0.0	89.9624969959259	
3	59.63381910324097	movie	1		247	1.0	2.5	/experiments/knapen_AOT/AOT_stimuli/rescaled_final/1926_fw.mp4	0.0	90.37901520729065	2.5003647804260254
3	60.81773400306702	pulse	1	t		1.0	2.5	/experiments/knapen_AOT/AOT_stimuli/rescaled_final/1926_fw.mp4	0.0	91.5629301071167	
3	62.13418388366699	fix_post	2		12	1.0	2.5	/experiments/knapen_AOT/AOT_stimuli/rescaled_final/1926_fw.mp4	0.0	92.87937998771667	0.0999610424041748
4	62.23414492607117	fix_pre	0		120	2.0	2.5	/experiments/knapen_AOT/AOT_stimuli/rescaled_final/0850_rv.mp4	0.0	92.97934103012085	1.0002200603485107
4	62.41778898239136	pulse	0	t		2.0	2.5	/experiments/knapen_AOT/AOT_stimuli/rescaled_final/0850_rv.mp4	0.0	93.16298508644104	
4	63.23436498641968	movie	1		245	2.0	2.5	/experiments/knapen_AOT/AOT_stimuli/rescaled_final/0850_rv.mp4	0.0	93.97956109046936	2.500333070755005
4	64.01798605918884	pulse	1	t		2.0	2.5	/experiments/knapen_AOT/AOT_stimuli/rescaled_final/0850_rv.mp4	0.0	94.76318216323853	
4	65.61575508117676	pulse	1	t		2.0	2.5	/experiments/knapen_AOT/AOT_stimuli/rescaled_final/0850_rv.mp4	0.0	96.36095118522644	
4	65.73469805717468	fix_post	2		12	2.0	2.5	/experiments/knapen_AOT/AOT_stimuli/rescaled_final/0850_rv.mp4	0.0	96.47989416122437	0.10004091262817383
5	65.83473896980286	fix_pre	0		120	3.0	2.5	/experiments/knapen_AOT/AOT_stimuli/rescaled_final/1783_rv.mp4	0.0	96.57993507385254	1.000157117843628
5	66.83489608764648	movie	1		243	3.0	2.5	/experiments/knapen_AOT/AOT_stimuli/rescaled_final/1783_rv.mp4	0.0	97.58009219169617	2.4921138286590576
5	67.21898198127747	pulse	1	t		3.0	2.5	/experiments/knapen_AOT/AOT_stimuli/rescaled_final/1783_rv.mp4	0.0	97.96417808532715	
5	68.81883001327515	pulse	1	t		3.0	2.5	/experiments/knapen_AOT/AOT_stimuli/rescaled_final/1783_rv.mp4	0.0	99.56402611732483	
5	69.32700991630554	fix_post	2		12	3.0	2.5	/experiments/knapen_AOT/AOT_stimuli/rescaled_final/1783_rv.mp4	0.0	100.07220602035522	0.09992218017578125
6	69.42693209648132	fix_pre	0		120	4.0	2.5	/experiments/knapen_AOT/AOT_stimuli/rescaled_final/0996_rv.mp4	0.0	100.172128200531	1.0001468658447266
6	70.41897988319397	pulse	0	t		4.0	2.5	/experiments/knapen_AOT/AOT_stimuli/rescaled_final/0996_rv.mp4	0.0	101.16417598724365	
6	70.42707896232605	movie	1		246	4.0	2.5	/experiments/knapen_AOT/AOT_stimuli/rescaled_final/0996_rv.mp4	0.0	101.17227506637573	2.508723020553589
6	72.02025699615479	pulse	1	t		4.0	2.5	/experiments/knapen_AOT/AOT_stimuli/rescaled_final/0996_rv.mp4	0.0	102.76545310020447	
6	72.93580198287964	fix_post	2		12	4.0	2.5	/experiments/knapen_AOT/AOT_stimuli/rescaled_final/0996_rv.mp4	0.0	103.68099808692932	0.10006189346313477
7	73.03586387634277	fix_pre	0		115	5.0	2.5	/experiments/knapen_AOT/AOT_stimuli/rescaled_final/2126_rv.mp4	0.0	103.78105998039246	1.000096082687378
7	73.61955404281616	pulse	0	t		5.0	2.5	/experiments/knapen_AOT/AOT_stimuli/rescaled_final/2126_rv.mp4	0.0	104.36475014686584	
7	74.03595995903015	movie	1		244	5.0	2.5	/experiments/knapen_AOT/AOT_stimuli/rescaled_final/2126_rv.mp4	0.0	104.78115606307983	2.500335931777954
7	75.21982407569885	pulse	1	t		5.0	2.5	/experiments/knapen_AOT/AOT_stimuli/rescaled_final/2126_rv.mp4	0.0	105.96502017974854	
7	76.5362958908081	fix_post	2		12	5.0	2.5	/experiments/knapen_AOT/AOT_stimuli/rescaled_final/2126_rv.mp4	0.0	107.28149199485779	0.10004305839538574
8	76.63633894920349	fix_pre	0		120	6.0	2.5	/experiments/knapen_AOT/AOT_stimuli/rescaled_final/0027_rv.mp4	0.0	107.38153505325317	1.0001840591430664
8	76.82003903388977	pulse	0	t		6.0	2.5	/experiments/knapen_AOT/AOT_stimuli/rescaled_final/0027_rv.mp4	0.0	107.56523513793945	
8	77.63652300834656	movie	1		244	6.0	2.5	/experiments/knapen_AOT/AOT_stimuli/rescaled_final/0027_rv.mp4	0.0	108.38171911239624	2.500330924987793
8	78.42007303237915	pulse	1	t		6.0	2.5	/experiments/knapen_AOT/AOT_stimuli/rescaled_final/0027_rv.mp4	0.0	109.16526913642883	
8	80.02362704277039	pulse	1	t		6.0	2.5	/experiments/knapen_AOT/AOT_stimuli/rescaled_final/0027_rv.mp4	0.0	110.76882314682007	
8	80.13685393333435	fix_post	2		12	6.0	2.5	/experiments/knapen_AOT/AOT_stimuli/rescaled_final/0027_rv.mp4	0.0	110.88205003738403	0.10002398490905762
9	80.23687791824341	fix_pre	0		119	7.0	2.5	blank	1.0	110.98207402229309	0.9918301105499268
9	81.22870802879333	movie	1		300	7.0	2.5	blank	1.0	111.97390413284302	2.5004079341888428
9	81.62070393562317	pulse	1	t		7.0	2.5	blank	1.0	112.36590003967285	
9	83.22096800804138	pulse	1	t		7.0	2.5	blank	1.0	113.96616411209106	
9	83.72911596298218	fix_post	2		12	7.0	2.5	blank	1.0	114.47431206703186	0.09995508193969727
10	83.82907104492188	fix_pre	0		120	8.0	2.5	/experiments/knapen_AOT/AOT_stimuli/rescaled_final/0842_rv.mp4	0.0	114.57426714897156	1.0001859664916992
10	84.82103300094604	pulse	0	t		8.0	2.5	/experiments/knapen_AOT/AOT_stimuli/rescaled_final/0842_rv.mp4	0.0	115.56622910499573	
10	84.82925701141357	movie	1		245	8.0	2.5	/experiments/knapen_AOT/AOT_stimuli/rescaled_final/0842_rv.mp4	0.0	115.57445311546326	2.5086679458618164
10	86.42166996002197	pulse	1	t		8.0	2.5	/experiments/knapen_AOT/AOT_stimuli/rescaled_final/0842_rv.mp4	0.0	117.16686606407166	
10	87.33792495727539	fix_post	2		12	8.0	2.5	/experiments/knapen_AOT/AOT_stimuli/rescaled_final/0842_rv.mp4	0.0	118.08312106132507	0.1000220775604248
11	87.43794703483582	fix_pre	0		120	9.0	2.5	/experiments/knapen_AOT/AOT_stimuli/rescaled_final/1926_fw.mp4	0.0	118.1831431388855	1.0001509189605713
11	88.02167010307312	pulse	0	t		9.0	2.5	/experiments/knapen_AOT/AOT_stimuli/rescaled_final/1926_fw.mp4	0.0	118.7668662071228	
11	88.43809795379639	movie	1		247	9.0	2.5	/experiments/knapen_AOT/AOT_stimuli/rescaled_final/1926_fw.mp4	0.0	119.18329405784607	2.5003819465637207
11	89.62202787399292	pulse	1	t		9.0	2.5	/experiments/knapen_AOT/AOT_stimuli/rescaled_final/1926_fw.mp4	0.0	120.3672239780426	
11	90.93847990036011	fix_post	2		12	9.0	2.5	/experiments/knapen_AOT/AOT_stimuli/rescaled_final/1926_fw.mp4	0.0	121.68367600440979	0.10002803802490234
12	91.03850793838501	fix_pre	0		120	10.0	2.5	/experiments/knapen_AOT/AOT_stimuli/rescaled_final/0763_rv.mp4	0.0	121.78370404243469	1.000236988067627
12	91.22204208374023	pulse	0	t		10.0	2.5	/experiments/knapen_AOT/AOT_stimuli/rescaled_final/0763_rv.mp4	0.0	121.96723818778992	
12	92.03874492645264	movie	1		246	10.0	2.5	/experiments/knapen_AOT/AOT_stimuli/rescaled_final/0763_rv.mp4	0.0	122.78394103050232	2.500256061553955
12	92.82229900360107	pulse	1	t		10.0	2.5	/experiments/knapen_AOT/AOT_stimuli/rescaled_final/0763_rv.mp4	0.0	123.56749510765076	
12	94.42263102531433	pulse	1	t		10.0	2.5	/experiments/knapen_AOT/AOT_stimuli/rescaled_final/0763_rv.mp4	0.0	125.16782712936401	
12	94.53900098800659	fix_post	2		12	10.0	2.5	/experiments/knapen_AOT/AOT_stimuli/rescaled_final/0763_rv.mp4	0.0	125.28419709205627	0.10000395774841309
13	94.639004945755	fix_pre	0		119	11.0	2.5	/experiments/knapen_AOT/AOT_stimuli/rescaled_final/1052_fw.mp4	0.0	125.38420104980469	0.9918479919433594
13	95.63085293769836	movie	1		245	11.0	2.5	/experiments/knapen_AOT/AOT_stimuli/rescaled_final/1052_fw.mp4	0.0	126.37604904174805	2.500354051589966
13	96.02287292480469	pulse	1	t		11.0	2.5	/experiments/knapen_AOT/AOT_stimuli/rescaled_final/1052_fw.mp4	0.0	126.76806902885437	
13	97.61562490463257	pulse	1	t		11.0	2.5	/experiments/knapen_AOT/AOT_stimuli/rescaled_final/1052_fw.mp4	0.0	128.36082100868225	
13	98.13120698928833	fix_post	2		12	11.0	2.5	/experiments/knapen_AOT/AOT_stimuli/rescaled_final/1052_fw.mp4	0.0	128.876403093338	0.1000220775604248
14	98.23122906684875	fix_pre	0		120	12.0	2.5	/experiments/knapen_AOT/AOT_stimuli/rescaled_final/1389_rv.mp4	0.0	128.97642517089844	1.0001628398895264
14	99.21587610244751	pulse	0	t		12.0	2.5	/experiments/knapen_AOT/AOT_stimuli/rescaled_final/1389_rv.mp4	0.0	129.9610722064972	
14	99.23139190673828	movie	1		245	12.0	2.5	/experiments/knapen_AOT/AOT_stimuli/rescaled_final/1389_rv.mp4	0.0	129.97658801078796	2.5086801052093506
14	100.82403206825256	pulse	1	t		12.0	2.5	/experiments/knapen_AOT/AOT_stimuli/rescaled_final/1389_rv.mp4	0.0	131.56922817230225	
14	101.74007201194763	fix_post	2		12	12.0	2.5	/experiments/knapen_AOT/AOT_stimuli/rescaled_final/1389_rv.mp4	0.0	132.48526811599731	0.10006904602050781
15	101.84014105796814	fix_pre	0		120	13.0	2.5	blank	1.0	132.58533716201782	1.0001099109649658
15	102.41626501083374	pulse	0	t		13.0	2.5	blank	1.0	133.16146111488342	
15	102.8402509689331	movie	1		300	13.0	2.5	blank	1.0	133.5854470729828	2.5004091262817383
15	104.01572608947754	pulse	1	t		13.0	2.5	blank	1.0	134.76092219352722	
15	105.34066009521484	fix_post	2		12	13.0	2.5	blank	1.0	136.08585619926453	0.09996581077575684
16	105.4406259059906	fix_pre	0		120	14.0	2.5	/experiments/knapen_AOT/AOT_stimuli/rescaled_final/1923_rv.mp4	0.0	136.18582201004028	1.0001611709594727
16	105.61582398414612	pulse	0	t		14.0	2.5	/experiments/knapen_AOT/AOT_stimuli/rescaled_final/1923_rv.mp4	0.0	136.3610200881958	
16	106.44078707695007	movie	1		246	14.0	2.5	/experiments/knapen_AOT/AOT_stimuli/rescaled_final/1923_rv.mp4	0.0	137.18598318099976	2.4919989109039307
16	107.21606707572937	pulse	1	t		14.0	2.5	/experiments/knapen_AOT/AOT_stimuli/rescaled_final/1923_rv.mp4	0.0	137.96126317977905	
16	108.81631803512573	pulse	1	t		14.0	2.5	/experiments/knapen_AOT/AOT_stimuli/rescaled_final/1923_rv.mp4	0.0	139.56151413917542	
16	108.932785987854	fix_post	2		12	14.0	2.5	/experiments/knapen_AOT/AOT_stimuli/rescaled_final/1923_rv.mp4	0.0	139.6779820919037	0.10004901885986328
17	109.03283500671387	fix_pre	0		120	15.0	2.5	/experiments/knapen_AOT/AOT_stimuli/rescaled_final/0540_fw.mp4	0.0	139.77803111076355	1.0001540184020996
17	110.03298902511597	movie	1		246	15.0	2.5	/experiments/knapen_AOT/AOT_stimuli/rescaled_final/0540_fw.mp4	0.0	140.77818512916565	2.50039005279541
17	110.41709589958191	pulse	1	t		15.0	2.5	/experiments/knapen_AOT/AOT_stimuli/rescaled_final/0540_fw.mp4	0.0	141.1622920036316	
17	112.01678705215454	pulse	1	t		15.0	2.5	/experiments/knapen_AOT/AOT_stimuli/rescaled_final/0540_fw.mp4	0.0	142.76198315620422	
17	112.53337907791138	fix_post	2		12	15.0	2.5	/experiments/knapen_AOT/AOT_stimuli/rescaled_final/0540_fw.mp4	0.0	143.27857518196106	0.09998202323913574
18	112.63336110115051	fix_pre	0		119	16.0	2.5	/experiments/knapen_AOT/AOT_stimuli/rescaled_final/0788_rv.mp4	0.0	143.3785572052002	0.9918308258056641
18	113.61704587936401	pulse	0	t		16.0	2.5	/experiments/knapen_AOT/AOT_stimuli/rescaled_final/0788_rv.mp4	0.0	144.3622419834137	
18	113.62519192695618	movie	1		245	16.0	2.5	/experiments/knapen_AOT/AOT_stimuli/rescaled_final/0788_rv.mp4	0.0	144.37038803100586	2.5087881088256836
18	115.2180449962616	pulse	1	t		16.0	2.5	/experiments/knapen_AOT/AOT_stimuli/rescaled_final/0788_rv.mp4	0.0	145.96324110031128	
18	116.13398003578186	fix_post	2		12	16.0	2.5	/experiments/knapen_AOT/AOT_stimuli/rescaled_final/0788_rv.mp4	0.0	146.87917613983154	0.09991097450256348
19	116.23389101028442	fix_pre	0		120	17.0	2.5	/experiments/knapen_AOT/AOT_stimuli/rescaled_final/0976_rv.mp4	0.0	146.9790871143341	1.000166893005371
19	116.8174979686737	pulse	0	t		17.0	2.5	/experiments/knapen_AOT/AOT_stimuli/rescaled_final/0976_rv.mp4	0.0	147.5626940727234	
19	117.2340579032898	movie	1		245	17.0	2.5	/experiments/knapen_AOT/AOT_stimuli/rescaled_final/0976_rv.mp4	0.0	147.97925400733948	2.500368118286133
19	118.41791009902954	pulse	1	t		17.0	2.5	/experiments/knapen_AOT/AOT_stimuli/rescaled_final/0976_rv.mp4	0.0	149.16310620307922	
19	119.73442602157593	fix_post	2		12	17.0	2.5	/experiments/knapen_AOT/AOT_stimuli/rescaled_final/0976_rv.mp4	0.0	150.4796221256256	0.10003805160522461
20	119.83446407318115	fix_pre	0		120	18.0	2.5	/experiments/knapen_AOT/AOT_stimuli/rescaled_final/1239_fw.mp4	0.0	150.57966017723083	1.000154972076416
20	120.01800799369812	pulse	0	t		18.0	2.5	/experiments/knapen_AOT/AOT_stimuli/rescaled_final/1239_fw.mp4	0.0	150.7632040977478	
20	120.83461904525757	movie	1		244	18.0	2.5	/experiments/knapen_AOT/AOT_stimuli/rescaled_final/1239_fw.mp4	0.0	151.57981514930725	2.5003910064697266
20	121.6182849407196	pulse	1	t		18.0	2.5	/experiments/knapen_AOT/AOT_stimuli/rescaled_final/1239_fw.mp4	0.0	152.3634810447693	
20	123.21590900421143	pulse	1	t		18.0	2.5	/experiments/knapen_AOT/AOT_stimuli/rescaled_final/1239_fw.mp4	0.0	153.9611051082611	
20	123.3350100517273	fix_post	2		12	18.0	2.5	/experiments/knapen_AOT/AOT_stimuli/rescaled_final/1239_fw.mp4	0.0	154.08020615577698	0.09997701644897461
21	123.43498706817627	fix_pre	0		120	19.0	2.5	/experiments/knapen_AOT/AOT_stimuli/rescaled_final/0540_rv.mp4	0.0	154.18018317222595	1.0001699924468994
21	124.43515706062317	movie	1		246	19.0	2.5	/experiments/knapen_AOT/AOT_stimuli/rescaled_final/0540_rv.mp4	0.0	155.18035316467285	2.4920098781585693
21	124.81951093673706	pulse	1	t		19.0	2.5	/experiments/knapen_AOT/AOT_stimuli/rescaled_final/0540_rv.mp4	0.0	155.56470704078674	
21	126.41899394989014	pulse	1	t		19.0	2.5	/experiments/knapen_AOT/AOT_stimuli/rescaled_final/0540_rv.mp4	0.0	157.16419005393982	
21	126.92716693878174	fix_post	2		12	19.0	2.5	/experiments/knapen_AOT/AOT_stimuli/rescaled_final/0540_rv.mp4	0.0	157.67236304283142	0.10004210472106934
22	127.02720904350281	fix_pre	0		120	20.0	2.5	blank	1.0	157.7724051475525	1.000128984451294
22	128.0191788673401	pulse	0	t		20.0	2.5	blank	1.0	158.76437497138977	
22	128.0273380279541	movie	1		301	20.0	2.5	blank	1.0	158.77253413200378	2.508704900741577
22	129.61951088905334	pulse	1	t		20.0	2.5	blank	1.0	160.36470699310303	
22	130.53604292869568	fix_post	2		12	20.0	2.5	blank	1.0	161.28123903274536	0.1000051498413086
23	130.636048078537	fix_pre	0		120	21.0	2.5	/experiments/knapen_AOT/AOT_stimuli/rescaled_final/0207_rv.mp4	0.0	161.38124418258667	1.0001578330993652
23	131.2196409702301	pulse	0	t		21.0	2.5	/experiments/knapen_AOT/AOT_stimuli/rescaled_final/0207_rv.mp4	0.0	161.96483707427979	
23	131.63620591163635	movie	1		245	21.0	2.5	/experiments/knapen_AOT/AOT_stimuli/rescaled_final/0207_rv.mp4	0.0	162.38140201568604	2.5003631114959717
23	132.8200569152832	pulse	1	t		21.0	2.5	/experiments/knapen_AOT/AOT_stimuli/rescaled_final/0207_rv.mp4	0.0	163.56525301933289	
23	134.13656902313232	fix_post	2		12	21.0	2.5	/experiments/knapen_AOT/AOT_stimuli/rescaled_final/0207_rv.mp4	0.0	164.881765127182	0.10003805160522461
24	134.23660707473755	fix_pre	0		118	22.0	2.5	/experiments/knapen_AOT/AOT_stimuli/rescaled_final/1345_rv.mp4	0.0	164.98180317878723	1.000147819519043
24	134.42013502120972	pulse	0	t		22.0	2.5	/experiments/knapen_AOT/AOT_stimuli/rescaled_final/1345_rv.mp4	0.0	165.1653311252594	
24	135.2367548942566	movie	1		245	22.0	2.5	/experiments/knapen_AOT/AOT_stimuli/rescaled_final/1345_rv.mp4	0.0	165.98195099830627	2.500368118286133
24	136.02052903175354	pulse	1	t		22.0	2.5	/experiments/knapen_AOT/AOT_stimuli/rescaled_final/1345_rv.mp4	0.0	166.76572513580322	
24	137.62080001831055	pulse	1	t		22.0	2.5	/experiments/knapen_AOT/AOT_stimuli/rescaled_final/1345_rv.mp4	0.0	168.36599612236023	
24	137.73712301254272	fix_post	2		12	22.0	2.5	/experiments/knapen_AOT/AOT_stimuli/rescaled_final/1345_rv.mp4	0.0	168.4823191165924	0.1000070571899414
25	137.83713006973267	fix_pre	0		120	23.0	2.5	/experiments/knapen_AOT/AOT_stimuli/rescaled_final/1249_fw.mp4	0.0	168.58232617378235	1.0001778602600098
25	138.83730792999268	movie	1		244	23.0	2.5	/experiments/knapen_AOT/AOT_stimuli/rescaled_final/1249_fw.mp4	0.0	169.58250403404236	2.4920401573181152
25	139.22230291366577	pulse	1	t		23.0	2.5	/experiments/knapen_AOT/AOT_stimuli/rescaled_final/1249_fw.mp4	0.0	169.96749901771545	
25	140.82114601135254	pulse	1	t		23.0	2.5	/experiments/knapen_AOT/AOT_stimuli/rescaled_final/1249_fw.mp4	0.0	171.56634211540222	
25	141.3293480873108	fix_post	2		12	23.0	2.5	/experiments/knapen_AOT/AOT_stimuli/rescaled_final/1249_fw.mp4	0.0	172.07454419136047	0.0999298095703125
26	141.4292778968811	fix_pre	0		120	24.0	2.5	/experiments/knapen_AOT/AOT_stimuli/rescaled_final/2057_rv.mp4	0.0	172.1744740009308	1.0002009868621826
26	142.42145609855652	pulse	0	t		24.0	2.5	/experiments/knapen_AOT/AOT_stimuli/rescaled_final/2057_rv.mp4	0.0	173.1666522026062	
26	142.4294788837433	movie	1		245	24.0	2.5	/experiments/knapen_AOT/AOT_stimuli/rescaled_final/2057_rv.mp4	0.0	173.17467498779297	2.5087080001831055
26	144.02315497398376	pulse	1	t		24.0	2.5	/experiments/knapen_AOT/AOT_stimuli/rescaled_final/2057_rv.mp4	0.0	174.76835107803345	
26	144.9381868839264	fix_post	2		12	24.0	2.5	/experiments/knapen_AOT/AOT_stimuli/rescaled_final/2057_rv.mp4	0.0	175.68338298797607	0.100006103515625
27	145.03819298744202	fix_pre	0		120	25.0	2.5	/experiments/knapen_AOT/AOT_stimuli/rescaled_final/0003_fw.mp4	0.0	175.7833890914917	1.0001459121704102
27	145.62176895141602	pulse	0	t		25.0	2.5	/experiments/knapen_AOT/AOT_stimuli/rescaled_final/0003_fw.mp4	0.0	176.3669650554657	
27	146.03833889961243	movie	1		245	25.0	2.5	/experiments/knapen_AOT/AOT_stimuli/rescaled_final/0003_fw.mp4	0.0	176.7835350036621	2.5003561973571777
27	147.222069978714	pulse	1	t		25.0	2.5	/experiments/knapen_AOT/AOT_stimuli/rescaled_final/0003_fw.mp4	0.0	177.96726608276367	
27	148.5386950969696	fix_post	2		12	25.0	2.5	/experiments/knapen_AOT/AOT_stimuli/rescaled_final/0003_fw.mp4	0.0	179.2838912010193	0.10003089904785156
28	148.63872599601746	fix_pre	0		120	26.0	2.5	/experiments/knapen_AOT/AOT_stimuli/rescaled_final/0448_rv.mp4	0.0	179.38392210006714	1.0001609325408936
28	148.8224000930786	pulse	0	t		26.0	2.5	/experiments/knapen_AOT/AOT_stimuli/rescaled_final/0448_rv.mp4	0.0	179.5675961971283	
28	149.63888692855835	movie	1		244	26.0	2.5	/experiments/knapen_AOT/AOT_stimuli/rescaled_final/0448_rv.mp4	0.0	180.38408303260803	2.50040602684021
28	150.4227020740509	pulse	1	t		26.0	2.5	/experiments/knapen_AOT/AOT_stimuli/rescaled_final/0448_rv.mp4	0.0	181.1678981781006	
28	152.02253007888794	pulse	1	t		26.0	2.5	/experiments/knapen_AOT/AOT_stimuli/rescaled_final/0448_rv.mp4	0.0	182.76772618293762	
28	152.13929295539856	fix_post	2		12	26.0	2.5	/experiments/knapen_AOT/AOT_stimuli/rescaled_final/0448_rv.mp4	0.0	182.88448905944824	0.09995698928833008
29	152.2392499446869	fix_pre	0		120	27.0	2.5	/experiments/knapen_AOT/AOT_stimuli/rescaled_final/0591_rv.mp4	0.0	182.98444604873657	1.0001840591430664
29	153.23943400382996	movie	1		243	27.0	2.5	/experiments/knapen_AOT/AOT_stimuli/rescaled_final/0591_rv.mp4	0.0	183.98463010787964	2.4920170307159424
29	153.6235830783844	pulse	1	t		27.0	2.5	/experiments/knapen_AOT/AOT_stimuli/rescaled_final/0591_rv.mp4	0.0	184.36877918243408	
29	155.2159628868103	pulse	1	t		27.0	2.5	/experiments/knapen_AOT/AOT_stimuli/rescaled_final/0591_rv.mp4	0.0	185.96115899085999	
29	155.7314510345459	fix_post	2		12	27.0	2.5	/experiments/knapen_AOT/AOT_stimuli/rescaled_final/0591_rv.mp4	0.0	186.47664713859558	0.10003995895385742
30	155.83149099349976	fix_pre	0		119	28.0	2.5	blank	1.0	186.57668709754944	0.9918110370635986
30	156.81523895263672	pulse	0	t		28.0	2.5	blank	1.0	187.5604350566864	
30	156.82330203056335	movie	1		301	28.0	2.5	blank	1.0	187.56849813461304	2.5087239742279053
30	158.4153470993042	pulse	1	t		28.0	2.5	blank	1.0	189.16054320335388	
30	159.33202600479126	fix_post	2		12	28.0	2.5	blank	1.0	190.07722210884094	0.10002899169921875
31	159.43205499649048	fix_pre	0		120	29.0	2.5	/experiments/knapen_AOT/AOT_stimuli/rescaled_final/2029_fw.mp4	0.0	190.17725110054016	1.0001170635223389
31	160.01565194129944	pulse	0	t		29.0	2.5	/experiments/knapen_AOT/AOT_stimuli/rescaled_final/2029_fw.mp4	0.0	190.76084804534912	
31	160.43217206001282	movie	1		245	29.0	2.5	/experiments/knapen_AOT/AOT_stimuli/rescaled_final/2029_fw.mp4	0.0	191.1773681640625	2.5004899501800537
31	161.61598992347717	pulse	1	t		29.0	2.5	/experiments/knapen_AOT/AOT_stimuli/rescaled_final/2029_fw.mp4	0.0	192.36118602752686	
31	162.93266201019287	fix_post	2		12	29.0	2.5	/experiments/knapen_AOT/AOT_stimuli/rescaled_final/2029_fw.mp4	0.0	193.67785811424255	0.09987807273864746
32	163.03254008293152	fix_pre	0		120	30.0	2.5	/experiments/knapen_AOT/AOT_stimuli/rescaled_final/1774_rv.mp4	0.0	193.7777361869812	1.0001838207244873
32	163.21606707572937	pulse	0	t		30.0	2.5	/experiments/knapen_AOT/AOT_stimuli/rescaled_final/1774_rv.mp4	0.0	193.96126317977905	
32	164.032723903656	movie	1		245	30.0	2.5	/experiments/knapen_AOT/AOT_stimuli/rescaled_final/1774_rv.mp4	0.0	194.7779200077057	2.5003600120544434
32	164.81648588180542	pulse	1	t		30.0	2.5	/experiments/knapen_AOT/AOT_stimuli/rescaled_final/1774_rv.mp4	0.0	195.5616819858551	
32	166.41660594940186	pulse	1	t		30.0	2.5	/experiments/knapen_AOT/AOT_stimuli/rescaled_final/1774_rv.mp4	0.0	197.16180205345154	
32	166.53308391571045	fix_post	2		12	30.0	2.5	/experiments/knapen_AOT/AOT_stimuli/rescaled_final/1774_rv.mp4	0.0	197.27828001976013	0.10001015663146973
33	166.63309407234192	fix_pre	0		120	31.0	2.5	/experiments/knapen_AOT/AOT_stimuli/rescaled_final/0643_fw.mp4	0.0	197.3782901763916	1.0001749992370605
33	167.63326907157898	movie	1		243	31.0	2.5	/experiments/knapen_AOT/AOT_stimuli/rescaled_final/0643_fw.mp4	0.0	198.37846517562866	2.492004871368408
33	168.0171148777008	pulse	1	t		31.0	2.5	/experiments/knapen_AOT/AOT_stimuli/rescaled_final/0643_fw.mp4	0.0	198.7623109817505	
33	169.6170289516449	pulse	1	t		31.0	2.5	/experiments/knapen_AOT/AOT_stimuli/rescaled_final/0643_fw.mp4	0.0	200.36222505569458	
33	170.1252739429474	fix_post	2		12	31.0	2.5	/experiments/knapen_AOT/AOT_stimuli/rescaled_final/0643_fw.mp4	0.0	200.87047004699707	0.10002303123474121
34	170.22529697418213	fix_pre	0		120	32.0	2.5	/experiments/knapen_AOT/AOT_stimuli/rescaled_final/0937_fw.mp4	0.0	200.9704930782318	1.0002050399780273
34	171.21736598014832	pulse	0	t		32.0	2.5	/experiments/knapen_AOT/AOT_stimuli/rescaled_final/0937_fw.mp4	0.0	201.962562084198	
34	171.22550201416016	movie	1		244	32.0	2.5	/experiments/knapen_AOT/AOT_stimuli/rescaled_final/0937_fw.mp4	0.0	201.97069811820984	2.508638858795166
34	172.8180170059204	pulse	1	t		32.0	2.5	/experiments/knapen_AOT/AOT_stimuli/rescaled_final/0937_fw.mp4	0.0	203.5632131099701	
34	173.73414087295532	fix_post	2		12	32.0	2.5	/experiments/knapen_AOT/AOT_stimuli/rescaled_final/0937_fw.mp4	0.0	204.479336977005	0.0999610424041748
35	173.8341019153595	fix_pre	0		120	33.0	2.5	/experiments/knapen_AOT/AOT_stimuli/rescaled_final/1544_rv.mp4	0.0	204.57929801940918	1.0002131462097168
35	174.41784286499023	pulse	0	t		33.0	2.5	/experiments/knapen_AOT/AOT_stimuli/rescaled_final/1544_rv.mp4	0.0	205.16303896903992	
35	174.8343150615692	movie	1		244	33.0	2.5	/experiments/knapen_AOT/AOT_stimuli/rescaled_final/1544_rv.mp4	0.0	205.5795111656189	2.5003368854522705
35	176.01808094978333	pulse	1	t		33.0	2.5	/experiments/knapen_AOT/AOT_stimuli/rescaled_final/1544_rv.mp4	0.0	206.763277053833	
35	177.33465194702148	fix_post	2		12	33.0	2.5	/experiments/knapen_AOT/AOT_stimuli/rescaled_final/1544_rv.mp4	0.0	208.07984805107117	0.10007810592651367
36	177.434730052948	fix_pre	0		120	34.0	2.5	/experiments/knapen_AOT/AOT_stimuli/rescaled_final/0645_rv.mp4	0.0	208.17992615699768	1.0001158714294434
36	177.61829805374146	pulse	0	t		34.0	2.5	/experiments/knapen_AOT/AOT_stimuli/rescaled_final/0645_rv.mp4	0.0	208.36349415779114	
36	178.43484592437744	movie	1		245	34.0	2.5	/experiments/knapen_AOT/AOT_stimuli/rescaled_final/0645_rv.mp4	0.0	209.18004202842712	2.5003600120544434
36	179.21862888336182	pulse	1	t		34.0	2.5	/experiments/knapen_AOT/AOT_stimuli/rescaled_final/0645_rv.mp4	0.0	209.9638249874115	
36	180.81618309020996	pulse	1	t		34.0	2.5	/experiments/knapen_AOT/AOT_stimuli/rescaled_final/0645_rv.mp4	0.0	211.56137919425964	
36	180.93520593643188	fix_post	2		12	34.0	2.5	/experiments/knapen_AOT/AOT_stimuli/rescaled_final/0645_rv.mp4	0.0	211.68040204048157	0.0999751091003418
37	181.03518104553223	fix_pre	0		120	35.0	2.5	blank	1.0	211.7803771495819	1.0002038478851318
37	182.03538489341736	movie	1		299	35.0	2.5	blank	1.0	212.78058099746704	2.4920411109924316
37	182.41902709007263	pulse	1	t		35.0	2.5	blank	1.0	213.16422319412231	
37	184.01916098594666	pulse	1	t		35.0	2.5	blank	1.0	214.76435708999634	
37	184.5274260044098	fix_post	2		12	35.0	2.5	blank	1.0	215.27262210845947	0.10001993179321289
38	184.627445936203	fix_pre	0		120	36.0	2.5	/experiments/knapen_AOT/AOT_stimuli/rescaled_final/0839_fw.mp4	0.0	215.37264204025269	1.0001540184020996
38	185.61955308914185	pulse	0	t		36.0	2.5	/experiments/knapen_AOT/AOT_stimuli/rescaled_final/0839_fw.mp4	0.0	216.36474919319153	
38	185.6275999546051	movie	1		248	36.0	2.5	/experiments/knapen_AOT/AOT_stimuli/rescaled_final/0839_fw.mp4	0.0	216.37279605865479	2.508726119995117
38	187.21994996070862	pulse	1	t		36.0	2.5	/experiments/knapen_AOT/AOT_stimuli/rescaled_final/0839_fw.mp4	0.0	217.9651460647583	
38	188.13632607460022	fix_post	2		12	36.0	2.5	/experiments/knapen_AOT/AOT_stimuli/rescaled_final/0839_fw.mp4	0.0	218.8815221786499	0.09999799728393555
39	188.23632407188416	fix_pre	0		120	37.0	2.5	/experiments/knapen_AOT/AOT_stimuli/rescaled_final/1035_rv.mp4	0.0	218.98152017593384	1.0001659393310547
39	188.82004189491272	pulse	0	t		37.0	2.5	/experiments/knapen_AOT/AOT_stimuli/rescaled_final/1035_rv.mp4	0.0	219.5652379989624	
39	189.2364900112152	movie	1		245	37.0	2.5	/experiments/knapen_AOT/AOT_stimuli/rescaled_final/1035_rv.mp4	0.0	219.9816861152649	2.500316858291626
39	190.42019701004028	pulse	1	t		37.0	2.5	/experiments/knapen_AOT/AOT_stimuli/rescaled_final/1035_rv.mp4	0.0	221.16539311408997	
39	191.73680686950684	fix_post	2		12	37.0	2.5	/experiments/knapen_AOT/AOT_stimuli/rescaled_final/1035_rv.mp4	0.0	222.48200297355652	0.1000370979309082
40	191.83684396743774	fix_pre	0		120	38.0	2.5	/experiments/knapen_AOT/AOT_stimuli/rescaled_final/0566_fw.mp4	0.0	222.58204007148743	1.000148057937622
40	192.02038097381592	pulse	0	t		38.0	2.5	/experiments/knapen_AOT/AOT_stimuli/rescaled_final/0566_fw.mp4	0.0	222.7655770778656	
40	192.83699202537537	movie	1		244	38.0	2.5	/experiments/knapen_AOT/AOT_stimuli/rescaled_final/0566_fw.mp4	0.0	223.58218812942505	2.5005059242248535
40	193.62079286575317	pulse	1	t		38.0	2.5	/experiments/knapen_AOT/AOT_stimuli/rescaled_final/0566_fw.mp4	0.0	224.36598896980286	
40	195.22111296653748	pulse	1	t		38.0	2.5	/experiments/knapen_AOT/AOT_stimuli/rescaled_final/0566_fw.mp4	0.0	225.96630907058716	
40	195.33749794960022	fix_post	2		10	38.0	2.5	/experiments/knapen_AOT/AOT_stimuli/rescaled_final/0566_fw.mp4	0.0	226.0826940536499	0.09991812705993652
41	195.43741607666016	fix_pre	0		120	39.0	2.5	/experiments/knapen_AOT/AOT_stimuli/rescaled_final/2057_fw.mp4	0.0	226.18261218070984	1.0001168251037598
41	196.43753290176392	movie	1		243	39.0	2.5	/experiments/knapen_AOT/AOT_stimuli/rescaled_final/2057_fw.mp4	0.0	227.1827290058136	2.492053985595703
41	196.82162189483643	pulse	1	t		39.0	2.5	/experiments/knapen_AOT/AOT_stimuli/rescaled_final/2057_fw.mp4	0.0	227.5668179988861	
41	198.42135500907898	pulse	1	t		39.0	2.5	/experiments/knapen_AOT/AOT_stimuli/rescaled_final/2057_fw.mp4	0.0	229.16655111312866	
41	198.92958688735962	fix_post	2		12	39.0	2.5	/experiments/knapen_AOT/AOT_stimuli/rescaled_final/2057_fw.mp4	0.0	229.6747829914093	0.1000070571899414
42	199.02959394454956	fix_pre	0		120	40.0	2.5	blank	1.0	229.77479004859924	1.0001649856567383
42	200.02170586585999	pulse	0	t		40.0	2.5	blank	1.0	230.76690196990967	
42	200.0297589302063	movie	1		301	40.0	2.5	blank	1.0	230.77495503425598	2.508697986602783
42	201.62192606925964	pulse	1	t		40.0	2.5	blank	1.0	232.36712217330933	
42	202.53845691680908	fix_post	2		12	40.0	2.5	blank	1.0	233.28365302085876	0.10005497932434082
43	202.63851189613342	fix_pre	0		120	41.0	2.5	/experiments/knapen_AOT/AOT_stimuli/rescaled_final/0269_rv.mp4	0.0	233.3837080001831	1.0001111030578613
43	203.22211003303528	pulse	0	t		41.0	2.5	/experiments/knapen_AOT/AOT_stimuli/rescaled_final/0269_rv.mp4	0.0	233.96730613708496	
43	203.63862299919128	movie	1		245	41.0	2.5	/experiments/knapen_AOT/AOT_stimuli/rescaled_final/0269_rv.mp4	0.0	234.38381910324097	2.500396966934204
43	204.82242703437805	pulse	1	t		41.0	2.5	/experiments/knapen_AOT/AOT_stimuli/rescaled_final/0269_rv.mp4	0.0	235.56762313842773	
43	206.1390199661255	fix_post	2		12	41.0	2.5	/experiments/knapen_AOT/AOT_stimuli/rescaled_final/0269_rv.mp4	0.0	236.88421607017517	0.09998703002929688
44	206.23900699615479	fix_pre	0		120	42.0	2.5	/experiments/knapen_AOT/AOT_stimuli/rescaled_final/1422_fw.mp4	0.0	236.98420310020447	1.0001649856567383
44	206.4225640296936	pulse	0	t		42.0	2.5	/experiments/knapen_AOT/AOT_stimuli/rescaled_final/1422_fw.mp4	0.0	237.1677601337433	
44	207.23917198181152	movie	1		246	42.0	2.5	/experiments/knapen_AOT/AOT_stimuli/rescaled_final/1422_fw.mp4	0.0	237.9843680858612	2.5003209114074707
44	208.02290201187134	pulse	1	t		42.0	2.5	/experiments/knapen_AOT/AOT_stimuli/rescaled_final/1422_fw.mp4	0.0	238.76809811592102	
44	209.62319493293762	pulse	1	t		42.0	2.5	/experiments/knapen_AOT/AOT_stimuli/rescaled_final/1422_fw.mp4	0.0	240.3683910369873	
44	209.739492893219	fix_post	2		12	42.0	2.5	/experiments/knapen_AOT/AOT_stimuli/rescaled_final/1422_fw.mp4	0.0	240.48468899726868	0.10004115104675293
45	209.83953404426575	fix_pre	0		120	43.0	2.5	/experiments/knapen_AOT/AOT_stimuli/rescaled_final/1098_fw.mp4	0.0	240.58473014831543	1.0001540184020996
45	210.83968806266785	movie	1		244	43.0	2.5	/experiments/knapen_AOT/AOT_stimuli/rescaled_final/1098_fw.mp4	0.0	241.58488416671753	2.4920120239257812
45	211.22378206253052	pulse	1	t		43.0	2.5	/experiments/knapen_AOT/AOT_stimuli/rescaled_final/1098_fw.mp4	0.0	241.9689781665802	
45	212.81632494926453	pulse	1	t		43.0	2.5	/experiments/knapen_AOT/AOT_stimuli/rescaled_final/1098_fw.mp4	0.0	243.5615210533142	
45	213.33170008659363	fix_post	2		12	43.0	2.5	/experiments/knapen_AOT/AOT_stimuli/rescaled_final/1098_fw.mp4	0.0	244.0768961906433	0.10003900527954102
46	213.43173909187317	fix_pre	0		120	44.0	2.5	/experiments/knapen_AOT/AOT_stimuli/rescaled_final/0625_rv.mp4	0.0	244.17693519592285	1.0001368522644043
46	214.41634702682495	pulse	0	t		44.0	2.5	/experiments/knapen_AOT/AOT_stimuli/rescaled_final/0625_rv.mp4	0.0	245.16154313087463	
46	214.43187594413757	movie	1		245	44.0	2.5	/experiments/knapen_AOT/AOT_stimuli/rescaled_final/0625_rv.mp4	0.0	245.17707204818726	2.5088839530944824
46	216.02443099021912	pulse	1	t		44.0	2.5	/experiments/knapen_AOT/AOT_stimuli/rescaled_final/0625_rv.mp4	0.0	246.7696270942688	
46	216.94075989723206	fix_post	2		12	44.0	2.5	/experiments/knapen_AOT/AOT_stimuli/rescaled_final/0625_rv.mp4	0.0	247.68595600128174	0.09985709190368652
47	217.04061698913574	fix_pre	0		120	45.0	2.5	/experiments/knapen_AOT/AOT_stimuli/rescaled_final/1929_fw.mp4	0.0	247.78581309318542	1.0001790523529053
47	217.61600804328918	pulse	0	t		45.0	2.5	/experiments/knapen_AOT/AOT_stimuli/rescaled_final/1929_fw.mp4	0.0	248.36120414733887	
47	218.04079604148865	movie	1		245	45.0	2.5	/experiments/knapen_AOT/AOT_stimuli/rescaled_final/1929_fw.mp4	0.0	248.78599214553833	2.5003418922424316
47	219.2168209552765	pulse	1	t		45.0	2.5	/experiments/knapen_AOT/AOT_stimuli/rescaled_final/1929_fw.mp4	0.0	249.96201705932617	
47	220.54113793373108	fix_post	2		12	45.0	2.5	/experiments/knapen_AOT/AOT_stimuli/rescaled_final/1929_fw.mp4	0.0	251.28633403778076	0.09996509552001953
48	220.6411030292511	fix_pre	0		120	46.0	2.5	/experiments/knapen_AOT/AOT_stimuli/rescaled_final/0785_fw.mp4	0.0	251.38629913330078	1.000195026397705
48	220.8163230419159	pulse	0	t		46.0	2.5	/experiments/knapen_AOT/AOT_stimuli/rescaled_final/0785_fw.mp4	0.0	251.56151914596558	
48	221.6412980556488	movie	1		246	46.0	2.5	/experiments/knapen_AOT/AOT_stimuli/rescaled_final/0785_fw.mp4	0.0	252.3864941596985	2.500356912612915
48	222.41659808158875	pulse	1	t		46.0	2.5	/experiments/knapen_AOT/AOT_stimuli/rescaled_final/0785_fw.mp4	0.0	253.16179418563843	
48	224.01695108413696	pulse	1	t		46.0	2.5	/experiments/knapen_AOT/AOT_stimuli/rescaled_final/0785_fw.mp4	0.0	254.76214718818665	
48	224.14165496826172	fix_post	2		11	46.0	2.5	/experiments/knapen_AOT/AOT_stimuli/rescaled_final/0785_fw.mp4	0.0	254.8868510723114	0.09171199798583984
49	224.23336696624756	fix_pre	0		120	47.0	2.5	/experiments/knapen_AOT/AOT_stimuli/rescaled_final/0027_rv.mp4	0.0	254.97856307029724	1.000128984451294
49	225.23349595069885	movie	1		244	47.0	2.5	/experiments/knapen_AOT/AOT_stimuli/rescaled_final/0027_rv.mp4	0.0	255.97869205474854	2.500380039215088
49	225.61745595932007	pulse	1	t		47.0	2.5	/experiments/knapen_AOT/AOT_stimuli/rescaled_final/0027_rv.mp4	0.0	256.36265206336975	
49	227.21735787391663	pulse	1	t		47.0	2.5	/experiments/knapen_AOT/AOT_stimuli/rescaled_final/0027_rv.mp4	0.0	257.9625539779663	
49	227.73387598991394	fix_post	2		12	47.0	2.5	/experiments/knapen_AOT/AOT_stimuli/rescaled_final/0027_rv.mp4	0.0	258.4790720939636	0.10000491142272949
50	227.83388090133667	fix_pre	0		119	48.0	2.5	/experiments/knapen_AOT/AOT_stimuli/rescaled_final/0209_fw.mp4	0.0	258.57907700538635	0.9918429851531982
50	228.81758308410645	pulse	0	t		48.0	2.5	/experiments/knapen_AOT/AOT_stimuli/rescaled_final/0209_fw.mp4	0.0	259.5627791881561	
50	228.82572388648987	movie	1		247	48.0	2.5	/experiments/knapen_AOT/AOT_stimuli/rescaled_final/0209_fw.mp4	0.0	259.57091999053955	2.5087740421295166
50	230.41828107833862	pulse	1	t		48.0	2.5	/experiments/knapen_AOT/AOT_stimuli/rescaled_final/0209_fw.mp4	0.0	261.1634771823883	
50	231.33449792861938	fix_post	2		12	48.0	2.5	/experiments/knapen_AOT/AOT_stimuli/rescaled_final/0209_fw.mp4	0.0	262.07969403266907	0.0999140739440918
51	231.43441200256348	fix_pre	0		120	49.0	2.5	blank	1.0	262.17960810661316	1.0001659393310547
51	232.01796889305115	pulse	0	t		49.0	2.5	blank	1.0	262.76316499710083	
51	232.43457794189453	movie	1		300	49.0	2.5	blank	1.0	263.1797740459442	2.5003669261932373
51	233.61829805374146	pulse	1	t		49.0	2.5	blank	1.0	264.36349415779114	
51	234.93494486808777	fix_post	2		12	49.0	2.5	blank	1.0	265.68014097213745	0.09999513626098633
52	235.03494000434875	fix_pre	0		120	50.0	2.5	/experiments/knapen_AOT/AOT_stimuli/rescaled_final/0835_rv.mp4	0.0	265.78013610839844	1.0001850128173828
52	235.2185230255127	pulse	0	t		50.0	2.5	/experiments/knapen_AOT/AOT_stimuli/rescaled_final/0835_rv.mp4	0.0	265.9637191295624	
52	236.03512501716614	movie	1		245	50.0	2.5	/experiments/knapen_AOT/AOT_stimuli/rescaled_final/0835_rv.mp4	0.0	266.7803211212158	2.500321865081787
52	236.8187448978424	pulse	1	t		50.0	2.5	/experiments/knapen_AOT/AOT_stimuli/rescaled_final/0835_rv.mp4	0.0	267.5639410018921	
52	238.41652989387512	pulse	1	t		50.0	2.5	/experiments/knapen_AOT/AOT_stimuli/rescaled_final/0835_rv.mp4	0.0	269.1617259979248	
52	238.53544688224792	fix_post	2		12	50.0	2.5	/experiments/knapen_AOT/AOT_stimuli/rescaled_final/0835_rv.mp4	0.0	269.2806429862976	0.10004019737243652
53	238.63548707962036	fix_pre	0		120	51.0	2.5	/experiments/knapen_AOT/AOT_stimuli/rescaled_final/0654_fw.mp4	0.0	269.38068318367004	1.0001649856567383
53	239.6356520652771	movie	1		243	51.0	2.5	/experiments/knapen_AOT/AOT_stimuli/rescaled_final/0654_fw.mp4	0.0	270.3808481693268	2.491997003555298
53	240.01976203918457	pulse	1	t		51.0	2.5	/experiments/knapen_AOT/AOT_stimuli/rescaled_final/0654_fw.mp4	0.0	270.76495814323425	
53	241.61956095695496	pulse	1	t		51.0	2.5	/experiments/knapen_AOT/AOT_stimuli/rescaled_final/0654_fw.mp4	0.0	272.36475706100464	
53	242.1276490688324	fix_post	2		12	51.0	2.5	/experiments/knapen_AOT/AOT_stimuli/rescaled_final/0654_fw.mp4	0.0	272.8728451728821	0.10005402565002441
54	242.22770309448242	fix_pre	0		120	52.0	2.5	/experiments/knapen_AOT/AOT_stimuli/rescaled_final/1123_rv.mp4	0.0	272.9728991985321	1.000140905380249
54	243.2198929786682	pulse	0	t		52.0	2.5	/experiments/knapen_AOT/AOT_stimuli/rescaled_final/1123_rv.mp4	0.0	273.9650890827179	
54	243.22784399986267	movie	1		246	52.0	2.5	/experiments/knapen_AOT/AOT_stimuli/rescaled_final/1123_rv.mp4	0.0	273.97304010391235	2.508671998977661
54	244.8205919265747	pulse	1	t		52.0	2.5	/experiments/knapen_AOT/AOT_stimuli/rescaled_final/1123_rv.mp4	0.0	275.5657880306244	
54	245.73651599884033	fix_post	2		12	52.0	2.5	/experiments/knapen_AOT/AOT_stimuli/rescaled_final/1123_rv.mp4	0.0	276.48171210289	0.10003805160522461
55	245.83655405044556	fix_pre	0		120	53.0	2.5	/experiments/knapen_AOT/AOT_stimuli/rescaled_final/0074_rv.mp4	0.0	276.58175015449524	1.0001728534698486
55	246.42022705078125	pulse	0	t		53.0	2.5	/experiments/knapen_AOT/AOT_stimuli/rescaled_final/0074_rv.mp4	0.0	277.16542315483093	
55	246.8367269039154	movie	1		247	53.0	2.5	/experiments/knapen_AOT/AOT_stimuli/rescaled_final/0074_rv.mp4	0.0	277.5819230079651	2.500411033630371
55	248.0206549167633	pulse	1	t		53.0	2.5	/experiments/knapen_AOT/AOT_stimuli/rescaled_final/0074_rv.mp4	0.0	278.765851020813	
55	249.33713793754578	fix_post	2		12	53.0	2.5	/experiments/knapen_AOT/AOT_stimuli/rescaled_final/0074_rv.mp4	0.0	280.08233404159546	0.09997415542602539
56	249.4371120929718	fix_pre	0		120	54.0	2.5	/experiments/knapen_AOT/AOT_stimuli/rescaled_final/1455_rv.mp4	0.0	280.1823081970215	1.0001778602600098
56	249.62080693244934	pulse	0	t		54.0	2.5	/experiments/knapen_AOT/AOT_stimuli/rescaled_final/1455_rv.mp4	0.0	280.366003036499	
56	250.4372899532318	movie	1		245	54.0	2.5	/experiments/knapen_AOT/AOT_stimuli/rescaled_final/1455_rv.mp4	0.0	281.1824860572815	2.50032901763916
56	251.2209210395813	pulse	1	t		54.0	2.5	/experiments/knapen_AOT/AOT_stimuli/rescaled_final/1455_rv.mp4	0.0	281.966117143631	
56	252.82107090950012	pulse	1	t		54.0	2.5	/experiments/knapen_AOT/AOT_stimuli/rescaled_final/1455_rv.mp4	0.0	283.5662670135498	
56	252.93761897087097	fix_post	2		12	54.0	2.5	/experiments/knapen_AOT/AOT_stimuli/rescaled_final/1455_rv.mp4	0.0	283.68281507492065	0.10005807876586914
57	253.03767704963684	fix_pre	0		117	55.0	2.5	/experiments/knapen_AOT/AOT_stimuli/rescaled_final/1709_fw.mp4	0.0	283.7828731536865	1.000114917755127
57	254.03779196739197	movie	1		243	55.0	2.5	/experiments/knapen_AOT/AOT_stimuli/rescaled_final/1709_fw.mp4	0.0	284.78298807144165	2.492027997970581
57	254.4219560623169	pulse	1	t		55.0	2.5	/experiments/knapen_AOT/AOT_stimuli/rescaled_final/1709_fw.mp4	0.0	285.1671521663666	
57	256.0216429233551	pulse	1	t		55.0	2.5	/experiments/knapen_AOT/AOT_stimuli/rescaled_final/1709_fw.mp4	0.0	286.7668390274048	
57	256.52981996536255	fix_post	2		12	55.0	2.5	/experiments/knapen_AOT/AOT_stimuli/rescaled_final/1709_fw.mp4	0.0	287.27501606941223	0.10002303123474121
58	256.6298429965973	fix_pre	0		120	56.0	2.5	blank	1.0	287.375039100647	1.0001349449157715
58	257.6219460964203	pulse	0	t		56.0	2.5	blank	1.0	288.36714220046997	
58	257.62997794151306	movie	1		301	56.0	2.5	blank	1.0	288.37517404556274	2.5087289810180664
58	259.222060918808	pulse	1	t		56.0	2.5	blank	1.0	289.96725702285767	
58	260.1387069225311	fix_post	2		12	56.0	2.5	blank	1.0	290.8839030265808	0.10000896453857422
59	260.2387158870697	fix_pre	0		120	57.0	2.5	/experiments/knapen_AOT/AOT_stimuli/rescaled_final/0060_rv.mp4	0.0	290.9839119911194	1.000162124633789
59	260.8223989009857	pulse	0	t		57.0	2.5	/experiments/knapen_AOT/AOT_stimuli/rescaled_final/0060_rv.mp4	0.0	291.5675950050354	
59	261.2388780117035	movie	1		245	57.0	2.5	/experiments/knapen_AOT/AOT_stimuli/rescaled_final/0060_rv.mp4	0.0	291.9840741157532	2.5003578662872314
59	262.4227969646454	pulse	1	t		57.0	2.5	/experiments/knapen_AOT/AOT_stimuli/rescaled_final/0060_rv.mp4	0.0	293.16799306869507	
59	263.7392358779907	fix_post	2		12	57.0	2.5	/experiments/knapen_AOT/AOT_stimuli/rescaled_final/0060_rv.mp4	0.0	294.4844319820404	0.10000205039978027
60	263.8392379283905	fix_pre	0		120	58.0	2.5	/experiments/knapen_AOT/AOT_stimuli/rescaled_final/1442_rv.mp4	0.0	294.5844340324402	1.0001721382141113
60	264.0228650569916	pulse	0	t		58.0	2.5	/experiments/knapen_AOT/AOT_stimuli/rescaled_final/1442_rv.mp4	0.0	294.76806116104126	
60	264.8394100666046	movie	1		244	58.0	2.5	/experiments/knapen_AOT/AOT_stimuli/rescaled_final/1442_rv.mp4	0.0	295.5846061706543	2.5003509521484375
60	265.61570405960083	pulse	1	t		58.0	2.5	/experiments/knapen_AOT/AOT_stimuli/rescaled_final/1442_rv.mp4	0.0	296.3609001636505	
60	267.22345089912415	pulse	1	t		58.0	2.5	/experiments/knapen_AOT/AOT_stimuli/rescaled_final/1442_rv.mp4	0.0	297.9686470031738	
60	267.33976101875305	fix_post	2		12	58.0	2.5	/experiments/knapen_AOT/AOT_stimuli/rescaled_final/1442_rv.mp4	0.0	298.08495712280273	0.1000518798828125
61	267.43981289863586	fix_pre	0		120	59.0	2.5	/experiments/knapen_AOT/AOT_stimuli/rescaled_final/0034_fw.mp4	0.0	298.18500900268555	1.0001189708709717
61	268.43993186950684	movie	1		243	59.0	2.5	/experiments/knapen_AOT/AOT_stimuli/rescaled_final/0034_fw.mp4	0.0	299.1851279735565	2.4920401573181152
61	268.82448387145996	pulse	1	t		59.0	2.5	/experiments/knapen_AOT/AOT_stimuli/rescaled_final/0034_fw.mp4	0.0	299.56967997550964	
61	270.41563391685486	pulse	1	t		59.0	2.5	/experiments/knapen_AOT/AOT_stimuli/rescaled_final/0034_fw.mp4	0.0	301.16083002090454	
61	270.93197202682495	fix_post	2		12	59.0	2.5	/experiments/knapen_AOT/AOT_stimuli/rescaled_final/0034_fw.mp4	0.0	301.67716813087463	0.09997200965881348
62	271.03194403648376	fix_pre	0		119	60.0	2.5	/experiments/knapen_AOT/AOT_stimuli/rescaled_final/1339_rv.mp4	0.0	301.77714014053345	0.9919040203094482
62	272.0156500339508	pulse	0	t		60.0	2.5	/experiments/knapen_AOT/AOT_stimuli/rescaled_final/1339_rv.mp4	0.0	302.7608461380005	
62	272.0238480567932	movie	1		246	60.0	2.5	/experiments/knapen_AOT/AOT_stimuli/rescaled_final/1339_rv.mp4	0.0	302.7690441608429	2.5086488723754883
62	273.6166570186615	pulse	1	t		60.0	2.5	/experiments/knapen_AOT/AOT_stimuli/rescaled_final/1339_rv.mp4	0.0	304.3618531227112	
62	274.5324969291687	fix_post	2		12	60.0	2.5	/experiments/knapen_AOT/AOT_stimuli/rescaled_final/1339_rv.mp4	0.0	305.2776930332184	0.0999901294708252
63	274.6324870586395	fix_pre	0		120	61.0	2.5	/experiments/knapen_AOT/AOT_stimuli/rescaled_final/1900_rv.mp4	0.0	305.3776831626892	1.0002238750457764
63	275.2160749435425	pulse	0	t		61.0	2.5	/experiments/knapen_AOT/AOT_stimuli/rescaled_final/1900_rv.mp4	0.0	305.96127104759216	
63	275.6327109336853	movie	1		245	61.0	2.5	/experiments/knapen_AOT/AOT_stimuli/rescaled_final/1900_rv.mp4	0.0	306.377907037735	2.500333070755005
63	276.8164758682251	pulse	1	t		61.0	2.5	/experiments/knapen_AOT/AOT_stimuli/rescaled_final/1900_rv.mp4	0.0	307.5616719722748	
63	278.1330440044403	fix_post	2		12	61.0	2.5	/experiments/knapen_AOT/AOT_stimuli/rescaled_final/1900_rv.mp4	0.0	308.87824010849	0.10000491142272949
64	278.23304891586304	fix_pre	0		120	62.0	2.5	/experiments/knapen_AOT/AOT_stimuli/rescaled_final/1052_rv.mp4	0.0	308.9782450199127	1.0001301765441895
64	278.41674399375916	pulse	0	t		62.0	2.5	/experiments/knapen_AOT/AOT_stimuli/rescaled_final/1052_rv.mp4	0.0	309.16194009780884	
64	279.2331790924072	movie	1		245	62.0	2.5	/experiments/knapen_AOT/AOT_stimuli/rescaled_final/1052_rv.mp4	0.0	309.9783751964569	2.5004079341888428
64	280.01693987846375	pulse	1	t		62.0	2.5	/experiments/knapen_AOT/AOT_stimuli/rescaled_final/1052_rv.mp4	0.0	310.7621359825134	
64	281.6170599460602	pulse	1	t		62.0	2.5	/experiments/knapen_AOT/AOT_stimuli/rescaled_final/1052_rv.mp4	0.0	312.36225605010986	
64	281.73358702659607	fix_post	2		12	62.0	2.5	/experiments/knapen_AOT/AOT_stimuli/rescaled_final/1052_rv.mp4	0.0	312.47878313064575	0.10001492500305176
65	281.8336019515991	fix_pre	0		120	63.0	2.5	blank	1.0	312.5787980556488	1.0001471042633057
65	282.8337490558624	movie	1		299	63.0	2.5	blank	1.0	313.5789451599121	2.492076873779297
65	283.2173020839691	pulse	1	t		63.0	2.5	blank	1.0	313.9624981880188	
65	284.81765699386597	pulse	1	t		63.0	2.5	blank	1.0	315.56285309791565	
65	285.3258259296417	fix_post	2		12	63.0	2.5	blank	1.0	316.0710220336914	0.09997701644897461
66	285.4258029460907	fix_pre	0		120	64.0	2.5	/experiments/knapen_AOT/AOT_stimuli/rescaled_final/1680_fw.mp4	0.0	316.1709990501404	1.000133991241455
66	286.417937040329	pulse	0	t		64.0	2.5	/experiments/knapen_AOT/AOT_stimuli/rescaled_final/1680_fw.mp4	0.0	317.16313314437866	
66	286.42593693733215	movie	1		246	64.0	2.5	/experiments/knapen_AOT/AOT_stimuli/rescaled_final/1680_fw.mp4	0.0	317.17113304138184	2.5087051391601562
66	288.01847195625305	pulse	1	t		64.0	2.5	/experiments/knapen_AOT/AOT_stimuli/rescaled_final/1680_fw.mp4	0.0	318.76366806030273	
66	288.9346420764923	fix_post	2		12	64.0	2.5	/experiments/knapen_AOT/AOT_stimuli/rescaled_final/1680_fw.mp4	0.0	319.679838180542	0.09999990463256836
67	289.0346419811249	fix_pre	0		120	65.0	2.5	/experiments/knapen_AOT/AOT_stimuli/rescaled_final/0847_rv.mp4	0.0	319.77983808517456	1.0001630783081055
67	289.6182658672333	pulse	0	t		65.0	2.5	/experiments/knapen_AOT/AOT_stimuli/rescaled_final/0847_rv.mp4	0.0	320.36346197128296	
67	290.034805059433	movie	1		245	65.0	2.5	/experiments/knapen_AOT/AOT_stimuli/rescaled_final/0847_rv.mp4	0.0	320.78000116348267	2.5005128383636475
67	291.21873903274536	pulse	1	t		65.0	2.5	/experiments/knapen_AOT/AOT_stimuli/rescaled_final/0847_rv.mp4	0.0	321.96393513679504	
67	292.53531789779663	fix_post	2		12	65.0	2.5	/experiments/knapen_AOT/AOT_stimuli/rescaled_final/0847_rv.mp4	0.0	323.2805140018463	0.09987497329711914
68	292.63519287109375	fix_pre	0		120	66.0	2.5	/experiments/knapen_AOT/AOT_stimuli/rescaled_final/1823_fw.mp4	0.0	323.38038897514343	1.0001590251922607
68	292.8187589645386	pulse	0	t		66.0	2.5	/experiments/knapen_AOT/AOT_stimuli/rescaled_final/1823_fw.mp4	0.0	323.56395506858826	
68	293.635351896286	movie	1		244	66.0	2.5	/experiments/knapen_AOT/AOT_stimuli/rescaled_final/1823_fw.mp4	0.0	324.3805480003357	2.5003600120544434
68	294.41899704933167	pulse	1	t		66.0	2.5	/experiments/knapen_AOT/AOT_stimuli/rescaled_final/1823_fw.mp4	0.0	325.16419315338135	
68	296.0169060230255	pulse	1	t		66.0	2.5	/experiments/knapen_AOT/AOT_stimuli/rescaled_final/1823_fw.mp4	0.0	326.7621021270752	
68	296.13571190834045	fix_post	2		12	66.0	2.5	/experiments/knapen_AOT/AOT_stimuli/rescaled_final/1823_fw.mp4	0.0	326.88090801239014	0.10002708435058594
69	296.23573899269104	fix_pre	0		120	67.0	2.5	/experiments/knapen_AOT/AOT_stimuli/rescaled_final/1163_fw.mp4	0.0	326.9809350967407	1.000154972076416
69	297.23589396476746	movie	1		244	67.0	2.5	/experiments/knapen_AOT/AOT_stimuli/rescaled_final/1163_fw.mp4	0.0	327.98109006881714	2.491995096206665
69	297.6199290752411	pulse	1	t		67.0	2.5	/experiments/knapen_AOT/AOT_stimuli/rescaled_final/1163_fw.mp4	0.0	328.36512517929077	
69	299.2198488712311	pulse	1	t		67.0	2.5	/experiments/knapen_AOT/AOT_stimuli/rescaled_final/1163_fw.mp4	0.0	329.96504497528076	
69	299.7278890609741	fix_post	2		12	67.0	2.5	/experiments/knapen_AOT/AOT_stimuli/rescaled_final/1163_fw.mp4	0.0	330.4730851650238	0.10005784034729004
70	299.8279469013214	fix_pre	0		120	68.0	2.5	/experiments/knapen_AOT/AOT_stimuli/rescaled_final/1926_rv.mp4	0.0	330.5731430053711	1.0001561641693115
70	300.82007098197937	pulse	0	t		68.0	2.5	/experiments/knapen_AOT/AOT_stimuli/rescaled_final/1926_rv.mp4	0.0	331.56526708602905	
70	300.8281030654907	movie	1		248	68.0	2.5	/experiments/knapen_AOT/AOT_stimuli/rescaled_final/1926_rv.mp4	0.0	331.5732991695404	2.5086870193481445
70	302.42164301872253	pulse	1	t		68.0	2.5	/experiments/knapen_AOT/AOT_stimuli/rescaled_final/1926_rv.mp4	0.0	333.1668391227722	
70	303.33679008483887	fix_post	2		12	68.0	2.5	/experiments/knapen_AOT/AOT_stimuli/rescaled_final/1926_rv.mp4	0.0	334.08198618888855	0.10000896453857422
71	303.43679904937744	fix_pre	0		120	69.0	2.5	/experiments/knapen_AOT/AOT_stimuli/rescaled_final/0207_fw.mp4	0.0	334.1819951534271	1.0001540184020996
71	304.0204429626465	pulse	0	t		69.0	2.5	/experiments/knapen_AOT/AOT_stimuli/rescaled_final/0207_fw.mp4	0.0	334.76563906669617	
71	304.43695306777954	movie	1		244	69.0	2.5	/experiments/knapen_AOT/AOT_stimuli/rescaled_final/0207_fw.mp4	0.0	335.1821491718292	2.500358819961548
71	305.6165370941162	pulse	1	t		69.0	2.5	/experiments/knapen_AOT/AOT_stimuli/rescaled_final/0207_fw.mp4	0.0	336.3617331981659	
71	306.9373118877411	fix_post	2		12	69.0	2.5	/experiments/knapen_AOT/AOT_stimuli/rescaled_final/0207_fw.mp4	0.0	337.68250799179077	0.1000511646270752
72	307.03736305236816	fix_pre	0		120	70.0	2.5	blank	1.0	337.78255915641785	1.000108003616333
72	307.2209610939026	pulse	0	t		70.0	2.5	blank	1.0	337.96615719795227	
72	308.0374710559845	movie	1		300	70.0	2.5	blank	1.0	338.7826671600342	2.500419855117798
72	308.8211510181427	pulse	1	t		70.0	2.5	blank	1.0	339.5663471221924	
72	310.4214999675751	pulse	1	t		70.0	2.5	blank	1.0	341.16669607162476	
72	310.5378909111023	fix_post	2		12	70.0	2.5	blank	1.0	341.283087015152	0.09998703002929688
73	310.6378779411316	fix_pre	0		120	71.0	2.5	/experiments/knapen_AOT/AOT_stimuli/rescaled_final/0117_rv.mp4	0.0	341.3830740451813	1.0001330375671387
73	311.63801097869873	movie	1		238	71.0	2.5	/experiments/knapen_AOT/AOT_stimuli/rescaled_final/0117_rv.mp4	0.0	342.3832070827484	2.4920639991760254
73	312.0225989818573	pulse	1	t		71.0	2.5	/experiments/knapen_AOT/AOT_stimuli/rescaled_final/0117_rv.mp4	0.0	342.767795085907	
73	313.62186193466187	pulse	1	t		71.0	2.5	/experiments/knapen_AOT/AOT_stimuli/rescaled_final/0117_rv.mp4	0.0	344.36705803871155	
73	314.13007497787476	fix_post	2		12	71.0	2.5	/experiments/knapen_AOT/AOT_stimuli/rescaled_final/0117_rv.mp4	0.0	344.87527108192444	0.10007095336914062
74	314.2301459312439	fix_pre	0		120	72.0	2.5	/experiments/knapen_AOT/AOT_stimuli/rescaled_final/1422_rv.mp4	0.0	344.9753420352936	1.0001411437988281
74	315.2221369743347	pulse	0	t		72.0	2.5	/experiments/knapen_AOT/AOT_stimuli/rescaled_final/1422_rv.mp4	0.0	345.9673330783844	
74	315.2302870750427	movie	1		247	72.0	2.5	/experiments/knapen_AOT/AOT_stimuli/rescaled_final/1422_rv.mp4	0.0	345.9754831790924	2.508638858795166
74	316.82300209999084	pulse	1	t		72.0	2.5	/experiments/knapen_AOT/AOT_stimuli/rescaled_final/1422_rv.mp4	0.0	347.5681982040405	
74	317.7389259338379	fix_post	2		12	72.0	2.5	/experiments/knapen_AOT/AOT_stimuli/rescaled_final/1422_rv.mp4	0.0	348.4841220378876	0.10002994537353516
75	317.8389558792114	fix_pre	0		120	73.0	2.5	/experiments/knapen_AOT/AOT_stimuli/rescaled_final/1312_rv.mp4	0.0	348.5841519832611	1.0001721382141113
75	318.42263007164	pulse	0	t		73.0	2.5	/experiments/knapen_AOT/AOT_stimuli/rescaled_final/1312_rv.mp4	0.0	349.1678261756897	
75	318.83912801742554	movie	1		245	73.0	2.5	/experiments/knapen_AOT/AOT_stimuli/rescaled_final/1312_rv.mp4	0.0	349.5843241214752	2.500347852706909
75	320.0228989124298	pulse	1	t		73.0	2.5	/experiments/knapen_AOT/AOT_stimuli/rescaled_final/1312_rv.mp4	0.0	350.7680950164795	
75	321.33947587013245	fix_post	2		12	73.0	2.5	/experiments/knapen_AOT/AOT_stimuli/rescaled_final/1312_rv.mp4	0.0	352.08467197418213	0.10000801086425781
76	321.4394838809967	fix_pre	0		120	74.0	2.5	/experiments/knapen_AOT/AOT_stimuli/rescaled_final/0654_fw.mp4	0.0	352.1846799850464	1.0001821517944336
76	321.623074054718	pulse	0	t		74.0	2.5	/experiments/knapen_AOT/AOT_stimuli/rescaled_final/0654_fw.mp4	0.0	352.3682701587677	
76	322.43966603279114	movie	1		244	74.0	2.5	/experiments/knapen_AOT/AOT_stimuli/rescaled_final/0654_fw.mp4	0.0	353.1848621368408	2.5003578662872314
76	323.2233729362488	pulse	1	t		74.0	2.5	/experiments/knapen_AOT/AOT_stimuli/rescaled_final/0654_fw.mp4	0.0	353.96856904029846	
76	324.8237450122833	pulse	1	t		74.0	2.5	/experiments/knapen_AOT/AOT_stimuli/rescaled_final/0654_fw.mp4	0.0	355.568941116333	
76	324.94002389907837	fix_post	2		12	74.0	2.5	/experiments/knapen_AOT/AOT_stimuli/rescaled_final/0654_fw.mp4	0.0	355.68522000312805	0.10000920295715332
77	325.0400331020355	fix_pre	0		120	75.0	2.5	/experiments/knapen_AOT/AOT_stimuli/rescaled_final/0260_rv.mp4	0.0	355.7852292060852	1.0001258850097656
77	326.0401589870453	movie	1		246	75.0	2.5	/experiments/knapen_AOT/AOT_stimuli/rescaled_final/0260_rv.mp4	0.0	356.78535509109497	2.492185115814209
77	326.42506289482117	pulse	1	t		75.0	2.5	/experiments/knapen_AOT/AOT_stimuli/rescaled_final/0260_rv.mp4	0.0	357.17025899887085	
77	328.0167889595032	pulse	1	t		75.0	2.5	/experiments/knapen_AOT/AOT_stimuli/rescaled_final/0260_rv.mp4	0.0	358.76198506355286	
77	328.5323441028595	fix_post	2		12	75.0	2.5	/experiments/knapen_AOT/AOT_stimuli/rescaled_final/0260_rv.mp4	0.0	359.2775402069092	0.09990191459655762
78	328.63224601745605	fix_pre	0		120	76.0	2.5	/experiments/knapen_AOT/AOT_stimuli/rescaled_final/1129_fw.mp4	0.0	359.37744212150574	1.0002059936523438
78	329.6169080734253	pulse	0	t		76.0	2.5	/experiments/knapen_AOT/AOT_stimuli/rescaled_final/1129_fw.mp4	0.0	360.362104177475	
78	329.6324520111084	movie	1		246	76.0	2.5	/experiments/knapen_AOT/AOT_stimuli/rescaled_final/1129_fw.mp4	0.0	360.3776481151581	2.50862193107605
78	331.22498989105225	pulse	1	t		76.0	2.5	/experiments/knapen_AOT/AOT_stimuli/rescaled_final/1129_fw.mp4	0.0	361.97018599510193	
78	332.14107394218445	fix_post	2		12	76.0	2.5	/experiments/knapen_AOT/AOT_stimuli/rescaled_final/1129_fw.mp4	0.0	362.88627004623413	0.09999608993530273
79	332.24107003211975	fix_pre	0		120	77.0	2.5	blank	1.0	362.98626613616943	1.000213861465454
79	332.8163950443268	pulse	0	t		77.0	2.5	blank	1.0	363.56159114837646	
79	333.2412838935852	movie	1		300	77.0	2.5	blank	1.0	363.9864799976349	2.5003600120544434
79	334.41665291786194	pulse	1	t		77.0	2.5	blank	1.0	365.1618490219116	
79	335.74164390563965	fix_post	2		12	77.0	2.5	blank	1.0	366.48684000968933	0.1000070571899414
80	335.8416509628296	fix_pre	0		120	78.0	2.5	/experiments/knapen_AOT/AOT_stimuli/rescaled_final/0099_fw.mp4	0.0	366.5868470668793	1.0001499652862549
80	336.0168719291687	pulse	0	t		78.0	2.5	/experiments/knapen_AOT/AOT_stimuli/rescaled_final/0099_fw.mp4	0.0	366.7620680332184	
80	336.84180092811584	movie	1		247	78.0	2.5	/experiments/knapen_AOT/AOT_stimuli/rescaled_final/0099_fw.mp4	0.0	367.5869970321655	2.5003390312194824
80	337.617084980011	pulse	1	t		78.0	2.5	/experiments/knapen_AOT/AOT_stimuli/rescaled_final/0099_fw.mp4	0.0	368.36228108406067	
80	339.21744298934937	pulse	1	t		78.0	2.5	/experiments/knapen_AOT/AOT_stimuli/rescaled_final/0099_fw.mp4	0.0	369.96263909339905	
80	339.3421399593353	fix_post	2		11	78.0	2.5	/experiments/knapen_AOT/AOT_stimuli/rescaled_final/0099_fw.mp4	0.0	370.087336063385	0.09171605110168457
81	339.433856010437	fix_pre	0		120	79.0	2.5	/experiments/knapen_AOT/AOT_stimuli/rescaled_final/1129_rv.mp4	0.0	370.1790521144867	1.000148057937622
81	340.43400406837463	movie	1		244	79.0	2.5	/experiments/knapen_AOT/AOT_stimuli/rescaled_final/1129_rv.mp4	0.0	371.1792001724243	2.5003468990325928
81	340.818078994751	pulse	1	t		79.0	2.5	/experiments/knapen_AOT/AOT_stimuli/rescaled_final/1129_rv.mp4	0.0	371.56327509880066	
81	342.41781187057495	pulse	1	t		79.0	2.5	/experiments/knapen_AOT/AOT_stimuli/rescaled_final/1129_rv.mp4	0.0	373.16300797462463	
81	342.9343509674072	fix_post	2		12	79.0	2.5	/experiments/knapen_AOT/AOT_stimuli/rescaled_final/1129_rv.mp4	0.0	373.6795470714569	0.10006499290466309
82	343.0344159603119	fix_pre	0		119	80.0	2.5	/experiments/knapen_AOT/AOT_stimuli/rescaled_final/1280_fw.mp4	0.0	373.7796120643616	0.9918451309204102
82	344.01800298690796	pulse	0	t		80.0	2.5	/experiments/knapen_AOT/AOT_stimuli/rescaled_final/1280_fw.mp4	0.0	374.76319909095764	
82	344.0262610912323	movie	1		247	80.0	2.5	/experiments/knapen_AOT/AOT_stimuli/rescaled_final/1280_fw.mp4	0.0	374.771457195282	2.508657932281494
82	345.618714094162	pulse	1	t		80.0	2.5	/experiments/knapen_AOT/AOT_stimuli/rescaled_final/1280_fw.mp4	0.0	376.36391019821167	
82	346.5349190235138	fix_post	2		12	80.0	2.5	/experiments/knapen_AOT/AOT_stimuli/rescaled_final/1280_fw.mp4	0.0	377.2801151275635	0.10000491142272949
83	346.6349239349365	fix_pre	0		120	81.0	2.5	/experiments/knapen_AOT/AOT_stimuli/rescaled_final/0609_rv.mp4	0.0	377.3801200389862	1.0001449584960938
83	347.21868109703064	pulse	0	t		81.0	2.5	/experiments/knapen_AOT/AOT_stimuli/rescaled_final/0609_rv.mp4	0.0	377.9638772010803	
83	347.6350688934326	movie	1		246	81.0	2.5	/experiments/knapen_AOT/AOT_stimuli/rescaled_final/0609_rv.mp4	0.0	378.3802649974823	2.5003881454467773
83	348.819060087204	pulse	1	t		81.0	2.5	/experiments/knapen_AOT/AOT_stimuli/rescaled_final/0609_rv.mp4	0.0	379.56425619125366	
83	350.1354570388794	fix_post	2		12	81.0	2.5	/experiments/knapen_AOT/AOT_stimuli/rescaled_final/0609_rv.mp4	0.0	380.8806531429291	0.10002899169921875
84	350.2354860305786	fix_pre	0		120	82.0	2.5	blank	1.0	380.9806821346283	1.0000739097595215
84	350.418998003006	pulse	0	t		82.0	2.5	blank	1.0	381.16419410705566	
84	351.23555994033813	movie	1		300	82.0	2.5	blank	1.0	381.9807560443878	2.5004520416259766
84	352.01923298835754	pulse	1	t		82.0	2.5	blank	1.0	382.7644290924072	
84	353.619549036026	pulse	1	t		82.0	2.5	blank	1.0	384.3647451400757	
84	353.7360119819641	fix_post	2		12	82.0	2.5	blank	1.0	384.4812080860138	0.09999203681945801
85	353.83600401878357	fix_pre	0		120	83.0	2.5	/experiments/knapen_AOT/AOT_stimuli/rescaled_final/2126_fw.mp4	0.0	384.58120012283325	1.000114917755127
85	354.8361189365387	movie	1		243	83.0	2.5	/experiments/knapen_AOT/AOT_stimuli/rescaled_final/2126_fw.mp4	0.0	385.5813150405884	2.4920549392700195
85	355.2208490371704	pulse	1	t		83.0	2.5	/experiments/knapen_AOT/AOT_stimuli/rescaled_final/2126_fw.mp4	0.0	385.9660451412201	
85	356.82004404067993	pulse	1	t		83.0	2.5	/experiments/knapen_AOT/AOT_stimuli/rescaled_final/2126_fw.mp4	0.0	387.5652401447296	
85	357.3281738758087	fix_post	2		12	83.0	2.5	/experiments/knapen_AOT/AOT_stimuli/rescaled_final/2126_fw.mp4	0.0	388.0733699798584	0.10003805160522461
87	357.42821192741394	stim	0		1716					388.1734080314636	14.302211999893188
87	358.4201810359955	pulse	0	t						389.16537714004517	
87	360.02046489715576	pulse	0	t						390.76566100120544	
87	361.62075901031494	pulse	0	t						392.3659551143646	
87	363.2209758758545	pulse	0	t						393.9661719799042	
87	364.8211109638214	pulse	0	t						395.5663070678711	
87	366.4214150905609	pulse	0	t						397.1666111946106	
87	368.0217139720917	pulse	0	t						398.76691007614136	
87	369.62195110321045	pulse	0	t						400.36714720726013	
87	371.22210597991943	pulse	0	t						401.9673020839691	
