trial_nr	onset	event_type	phase	response	nr_frames	movie_index	movie_duration	movie_file	blank	onset_abs	duration
0	0.15810680389404297	stim	0		1					16.76177978515625	0.008326530456542969
0	0.14124798774719238	response	0	space						16.7449209690094	
1	0.16643333435058594	stim	0		4799					16.770106315612793	40.010162353515625
1	40.16164684295654	pulse	0	t						56.76531982421875	
1	40.17659568786621	stim	1		1714					56.78026866912842	14.297985315322876
1	41.756298780441284	pulse	1	t						58.35997176170349	
1	43.35643172264099	pulse	1	t						59.9601047039032	
1	44.95670461654663	pulse	1	t						61.56037759780884	
1	46.556920528411865	pulse	1	t						63.16059350967407	
1	48.15712070465088	pulse	1	t						64.76079368591309	
1	49.757418632507324	pulse	1	t						66.36109161376953	
1	51.35763239860535	pulse	1	t						67.96130537986755	
1	52.95789098739624	pulse	1	t						69.56156396865845	
2	54.47458100318909	fix_pre	0		11	0.0	2.5	/experiments/knapen_AOT/AOT_stimuli/rescaled_final/2045_rv.mp4	0.0	71.0782539844513	0.10837936401367188
2	54.55807423591614	pulse	0	t		0.0	2.5	/experiments/knapen_AOT/AOT_stimuli/rescaled_final/2045_rv.mp4	0.0	71.16174721717834	
2	54.58296036720276	movie	1		280	0.0	2.5	/experiments/knapen_AOT/AOT_stimuli/rescaled_final/2045_rv.mp4	0.0	71.18663334846497	2.491973876953125
2	56.15841484069824	pulse	1	t		0.0	2.5	/experiments/knapen_AOT/AOT_stimuli/rescaled_final/2045_rv.mp4	0.0	72.76208782196045	
2	57.074934244155884	fix_post	2		12	0.0	2.5	/experiments/knapen_AOT/AOT_stimuli/rescaled_final/2045_rv.mp4	0.0	73.67860722541809	0.10001301765441895
3	57.1749472618103	fix_pre	0		120	1.0	2.5	/experiments/knapen_AOT/AOT_stimuli/rescaled_final/0827_rv.mp4	0.0	73.77862024307251	1.0085062980651855
3	57.75863790512085	pulse	0	t		1.0	2.5	/experiments/knapen_AOT/AOT_stimuli/rescaled_final/0827_rv.mp4	0.0	74.36231088638306	
3	58.18345355987549	movie	1		275	1.0	2.5	/experiments/knapen_AOT/AOT_stimuli/rescaled_final/0827_rv.mp4	0.0	74.7871265411377	2.4920296669006348
3	59.35681509971619	pulse	1	t		1.0	2.5	/experiments/knapen_AOT/AOT_stimuli/rescaled_final/0827_rv.mp4	0.0	75.9604880809784	
3	60.67548322677612	fix_post	2		12	1.0	2.5	/experiments/knapen_AOT/AOT_stimuli/rescaled_final/0827_rv.mp4	0.0	77.27915620803833	0.10006451606750488
4	60.77554774284363	fix_pre	0		120	2.0	2.5	/experiments/knapen_AOT/AOT_stimuli/rescaled_final/1151_fw.mp4	0.0	77.37922072410583	1.008446216583252
4	60.9590847492218	pulse	0	t		2.0	2.5	/experiments/knapen_AOT/AOT_stimuli/rescaled_final/1151_fw.mp4	0.0	77.56275773048401	
4	61.78399395942688	movie	1		274	2.0	2.5	/experiments/knapen_AOT/AOT_stimuli/rescaled_final/1151_fw.mp4	0.0	78.38766694068909	2.4920315742492676
4	62.558666706085205	pulse	1	t		2.0	2.5	/experiments/knapen_AOT/AOT_stimuli/rescaled_final/1151_fw.mp4	0.0	79.16233968734741	
4	64.15769815444946	pulse	1	t		2.0	2.5	/experiments/knapen_AOT/AOT_stimuli/rescaled_final/1151_fw.mp4	0.0	80.76137113571167	
4	64.27602553367615	fix_post	2		12	2.0	2.5	/experiments/knapen_AOT/AOT_stimuli/rescaled_final/1151_fw.mp4	0.0	80.87969851493835	0.10017752647399902
5	64.37620306015015	fix_pre	0		120	3.0	2.5	/experiments/knapen_AOT/AOT_stimuli/rescaled_final/0617_rv.mp4	0.0	80.97987604141235	1.008316993713379
5	65.38452005386353	movie	1		271	3.0	2.5	/experiments/knapen_AOT/AOT_stimuli/rescaled_final/0617_rv.mp4	0.0	81.98819303512573	2.4920403957366943
5	65.75884532928467	pulse	1	t		3.0	2.5	/experiments/knapen_AOT/AOT_stimuli/rescaled_final/0617_rv.mp4	0.0	82.36251831054688	
5	67.36011123657227	pulse	1	t		3.0	2.5	/experiments/knapen_AOT/AOT_stimuli/rescaled_final/0617_rv.mp4	0.0	83.96378421783447	
5	67.87656044960022	fix_post	2		12	3.0	2.5	/experiments/knapen_AOT/AOT_stimuli/rescaled_final/0617_rv.mp4	0.0	84.48023343086243	0.10003447532653809
6	67.97659492492676	fix_pre	0		119	4.0	2.5	/experiments/knapen_AOT/AOT_stimuli/rescaled_final/1150_rv.mp4	0.0	84.58026790618896	1.000150442123413
6	68.96025538444519	pulse	0	t		4.0	2.5	/experiments/knapen_AOT/AOT_stimuli/rescaled_final/1150_rv.mp4	0.0	85.5639283657074	
6	68.97674536705017	movie	1		274	4.0	2.5	/experiments/knapen_AOT/AOT_stimuli/rescaled_final/1150_rv.mp4	0.0	85.58041834831238	2.500354766845703
6	70.55889844894409	pulse	1	t		4.0	2.5	/experiments/knapen_AOT/AOT_stimuli/rescaled_final/1150_rv.mp4	0.0	87.1625714302063	
6	71.47710013389587	fix_post	2		12	4.0	2.5	/experiments/knapen_AOT/AOT_stimuli/rescaled_final/1150_rv.mp4	0.0	88.08077311515808	0.10003972053527832
7	71.57713985443115	fix_pre	0		120	5.0	2.5	/experiments/knapen_AOT/AOT_stimuli/rescaled_final/1240_fw.mp4	0.0	88.18081283569336	1.0084774494171143
7	72.16080522537231	pulse	0	t		5.0	2.5	/experiments/knapen_AOT/AOT_stimuli/rescaled_final/1240_fw.mp4	0.0	88.76447820663452	
7	72.58561730384827	movie	1		275	5.0	2.5	/experiments/knapen_AOT/AOT_stimuli/rescaled_final/1240_fw.mp4	0.0	89.18929028511047	2.492018461227417
7	73.75898671150208	pulse	1	t		5.0	2.5	/experiments/knapen_AOT/AOT_stimuli/rescaled_final/1240_fw.mp4	0.0	90.36265969276428	
7	75.07763576507568	fix_post	2		12	5.0	2.5	/experiments/knapen_AOT/AOT_stimuli/rescaled_final/1240_fw.mp4	0.0	91.68130874633789	0.10002923011779785
8	75.17766499519348	fix_pre	0		120	6.0	2.5	blank	1.0	91.78133797645569	1.0001463890075684
8	75.36133766174316	pulse	0	t		6.0	2.5	blank	1.0	91.96501064300537	
8	76.17781138420105	movie	1		300	6.0	2.5	blank	1.0	92.78148436546326	2.5003888607025146
8	76.96153426170349	pulse	1	t		6.0	2.5	blank	1.0	93.5652072429657	
8	78.56169748306274	pulse	1	t		6.0	2.5	blank	1.0	95.16537046432495	
8	78.67820024490356	fix_post	2		12	6.0	2.5	blank	1.0	95.28187322616577	0.10010719299316406
9	78.77830743789673	fix_pre	0		120	7.0	2.5	/experiments/knapen_AOT/AOT_stimuli/rescaled_final/1958_rv.mp4	0.0	95.38198041915894	1.0084185600280762
9	79.7867259979248	movie	1		277	7.0	2.5	/experiments/knapen_AOT/AOT_stimuli/rescaled_final/1958_rv.mp4	0.0	96.39039897918701	2.491985321044922
9	80.1618664264679	pulse	1	t		7.0	2.5	/experiments/knapen_AOT/AOT_stimuli/rescaled_final/1958_rv.mp4	0.0	96.7655394077301	
9	81.76009321212769	pulse	1	t		7.0	2.5	/experiments/knapen_AOT/AOT_stimuli/rescaled_final/1958_rv.mp4	0.0	98.36376619338989	
9	82.27871131896973	fix_post	2		12	7.0	2.5	/experiments/knapen_AOT/AOT_stimuli/rescaled_final/1958_rv.mp4	0.0	98.88238430023193	0.10003542900085449
10	82.37874674797058	fix_pre	0		119	8.0	2.5	/experiments/knapen_AOT/AOT_stimuli/rescaled_final/1114_rv.mp4	0.0	98.98241972923279	1.0001561641693115
10	83.36247968673706	pulse	0	t		8.0	2.5	/experiments/knapen_AOT/AOT_stimuli/rescaled_final/1114_rv.mp4	0.0	99.96615266799927	
10	83.37890291213989	movie	1		273	8.0	2.5	/experiments/knapen_AOT/AOT_stimuli/rescaled_final/1114_rv.mp4	0.0	99.9825758934021	2.50040340423584
10	84.96242499351501	pulse	1	t		8.0	2.5	/experiments/knapen_AOT/AOT_stimuli/rescaled_final/1114_rv.mp4	0.0	101.56609797477722	
10	85.87930631637573	fix_post	2		12	8.0	2.5	/experiments/knapen_AOT/AOT_stimuli/rescaled_final/1114_rv.mp4	0.0	102.48297929763794	0.10002875328063965
11	85.97933506965637	fix_pre	0		120	9.0	2.5	/experiments/knapen_AOT/AOT_stimuli/rescaled_final/0115_rv.mp4	0.0	102.58300805091858	1.0084500312805176
11	86.56304979324341	pulse	0	t		9.0	2.5	/experiments/knapen_AOT/AOT_stimuli/rescaled_final/0115_rv.mp4	0.0	103.16672277450562	
11	86.98778510093689	movie	1		265	9.0	2.5	/experiments/knapen_AOT/AOT_stimuli/rescaled_final/0115_rv.mp4	0.0	103.5914580821991	2.492016553878784
11	88.16219758987427	pulse	1	t		9.0	2.5	/experiments/knapen_AOT/AOT_stimuli/rescaled_final/0115_rv.mp4	0.0	104.76587057113647	
11	89.47980165481567	fix_post	2		12	9.0	2.5	/experiments/knapen_AOT/AOT_stimuli/rescaled_final/0115_rv.mp4	0.0	106.08347463607788	0.10001826286315918
12	89.57981991767883	fix_pre	0		120	10.0	2.5	/experiments/knapen_AOT/AOT_stimuli/rescaled_final/1846_fw.mp4	0.0	106.18349289894104	1.008636236190796
12	89.76345920562744	pulse	0	t		10.0	2.5	/experiments/knapen_AOT/AOT_stimuli/rescaled_final/1846_fw.mp4	0.0	106.36713218688965	
12	90.58845615386963	movie	1		281	10.0	2.5	/experiments/knapen_AOT/AOT_stimuli/rescaled_final/1846_fw.mp4	0.0	107.19212913513184	2.4918835163116455
12	91.3615128993988	pulse	1	t		10.0	2.5	/experiments/knapen_AOT/AOT_stimuli/rescaled_final/1846_fw.mp4	0.0	107.96518588066101	
12	92.961834192276	pulse	1	t		10.0	2.5	/experiments/knapen_AOT/AOT_stimuli/rescaled_final/1846_fw.mp4	0.0	109.56550717353821	
12	93.08033967018127	fix_post	2		12	10.0	2.5	/experiments/knapen_AOT/AOT_stimuli/rescaled_final/1846_fw.mp4	0.0	109.68401265144348	0.1000213623046875
13	93.18036103248596	fix_pre	0		120	11.0	2.5	/experiments/knapen_AOT/AOT_stimuli/rescaled_final/1559_rv.mp4	0.0	109.78403401374817	1.0085129737854004
13	94.18887400627136	movie	1		267	11.0	2.5	/experiments/knapen_AOT/AOT_stimuli/rescaled_final/1559_rv.mp4	0.0	110.79254698753357	2.492048978805542
13	94.56244206428528	pulse	1	t		11.0	2.5	/experiments/knapen_AOT/AOT_stimuli/rescaled_final/1559_rv.mp4	0.0	111.16611504554749	
13	96.1560890674591	pulse	1	t		11.0	2.5	/experiments/knapen_AOT/AOT_stimuli/rescaled_final/1559_rv.mp4	0.0	112.75976204872131	
13	96.6809229850769	fix_post	2		12	11.0	2.5	/experiments/knapen_AOT/AOT_stimuli/rescaled_final/1559_rv.mp4	0.0	113.28459596633911	0.09996366500854492
14	96.78088665008545	fix_pre	0		118	12.0	2.5	/experiments/knapen_AOT/AOT_stimuli/rescaled_final/1744_rv.mp4	0.0	113.38455963134766	0.9918370246887207
14	97.75628614425659	pulse	0	t		12.0	2.5	/experiments/knapen_AOT/AOT_stimuli/rescaled_final/1744_rv.mp4	0.0	114.3599591255188	
14	97.77272367477417	movie	1		275	12.0	2.5	/experiments/knapen_AOT/AOT_stimuli/rescaled_final/1744_rv.mp4	0.0	114.37639665603638	2.500375986099243
14	99.35668206214905	pulse	1	t		12.0	2.5	/experiments/knapen_AOT/AOT_stimuli/rescaled_final/1744_rv.mp4	0.0	115.96035504341125	
14	100.27309966087341	fix_post	2		12	12.0	2.5	/experiments/knapen_AOT/AOT_stimuli/rescaled_final/1744_rv.mp4	0.0	116.87677264213562	0.10004711151123047
15	100.37314677238464	fix_pre	0		120	13.0	2.5	blank	1.0	116.97681975364685	1.0001170635223389
15	100.95673394203186	pulse	0	t		13.0	2.5	blank	1.0	117.56040692329407	
15	101.37326383590698	movie	1		300	13.0	2.5	blank	1.0	117.97693681716919	2.500373125076294
15	102.55698037147522	pulse	1	t		13.0	2.5	blank	1.0	119.16065335273743	
15	103.87363696098328	fix_post	2		12	13.0	2.5	blank	1.0	120.47730994224548	0.10002970695495605
16	103.97366666793823	fix_pre	0		120	14.0	2.5	/experiments/knapen_AOT/AOT_stimuli/rescaled_final/1609_rv.mp4	0.0	120.57733964920044	1.008467197418213
16	104.15731072425842	pulse	0	t		14.0	2.5	/experiments/knapen_AOT/AOT_stimuli/rescaled_final/1609_rv.mp4	0.0	120.76098370552063	
16	104.98213386535645	movie	1		277	14.0	2.5	/experiments/knapen_AOT/AOT_stimuli/rescaled_final/1609_rv.mp4	0.0	121.58580684661865	2.492058038711548
16	105.75748753547668	pulse	1	t		14.0	2.5	/experiments/knapen_AOT/AOT_stimuli/rescaled_final/1609_rv.mp4	0.0	122.36116051673889	
16	107.35773730278015	pulse	1	t		14.0	2.5	/experiments/knapen_AOT/AOT_stimuli/rescaled_final/1609_rv.mp4	0.0	123.96141028404236	
16	107.474191904068	fix_post	2		12	14.0	2.5	/experiments/knapen_AOT/AOT_stimuli/rescaled_final/1609_rv.mp4	0.0	124.0778648853302	0.10001587867736816
17	107.57420778274536	fix_pre	0		120	15.0	2.5	/experiments/knapen_AOT/AOT_stimuli/rescaled_final/0117_rv.mp4	0.0	124.17788076400757	1.0084941387176514
17	108.58270192146301	movie	1		273	15.0	2.5	/experiments/knapen_AOT/AOT_stimuli/rescaled_final/0117_rv.mp4	0.0	125.18637490272522	2.4920084476470947
17	108.95604014396667	pulse	1	t		15.0	2.5	/experiments/knapen_AOT/AOT_stimuli/rescaled_final/0117_rv.mp4	0.0	125.55971312522888	
17	110.55727744102478	pulse	1	t		15.0	2.5	/experiments/knapen_AOT/AOT_stimuli/rescaled_final/0117_rv.mp4	0.0	127.16095042228699	
17	111.07471036911011	fix_post	2		12	15.0	2.5	/experiments/knapen_AOT/AOT_stimuli/rescaled_final/0117_rv.mp4	0.0	127.67838335037231	0.10004615783691406
18	111.17475652694702	fix_pre	0		119	16.0	2.5	/experiments/knapen_AOT/AOT_stimuli/rescaled_final/0847_rv.mp4	0.0	127.77842950820923	1.0001611709594727
18	112.15850973129272	pulse	0	t		16.0	2.5	/experiments/knapen_AOT/AOT_stimuli/rescaled_final/0847_rv.mp4	0.0	128.76218271255493	
18	112.1749176979065	movie	1		268	16.0	2.5	/experiments/knapen_AOT/AOT_stimuli/rescaled_final/0847_rv.mp4	0.0	128.7785906791687	2.5003466606140137
18	113.75682401657104	pulse	1	t		16.0	2.5	/experiments/knapen_AOT/AOT_stimuli/rescaled_final/0847_rv.mp4	0.0	130.36049699783325	
18	114.67526435852051	fix_post	2		12	16.0	2.5	/experiments/knapen_AOT/AOT_stimuli/rescaled_final/0847_rv.mp4	0.0	131.27893733978271	0.10004830360412598
19	114.77531266212463	fix_pre	0		120	17.0	2.5	/experiments/knapen_AOT/AOT_stimuli/rescaled_final/0177_rv.mp4	0.0	131.37898564338684	1.0084609985351562
19	115.35890865325928	pulse	0	t		17.0	2.5	/experiments/knapen_AOT/AOT_stimuli/rescaled_final/0177_rv.mp4	0.0	131.96258163452148	
19	115.78377366065979	movie	1		277	17.0	2.5	/experiments/knapen_AOT/AOT_stimuli/rescaled_final/0177_rv.mp4	0.0	132.387446641922	2.4920549392700195
19	116.95738935470581	pulse	1	t		17.0	2.5	/experiments/knapen_AOT/AOT_stimuli/rescaled_final/0177_rv.mp4	0.0	133.56106233596802	
19	118.27582859992981	fix_post	2		12	17.0	2.5	/experiments/knapen_AOT/AOT_stimuli/rescaled_final/0177_rv.mp4	0.0	134.87950158119202	0.09999895095825195
20	118.37582755088806	fix_pre	0		120	18.0	2.5	/experiments/knapen_AOT/AOT_stimuli/rescaled_final/2045_fw.mp4	0.0	134.97950053215027	1.0085361003875732
20	118.55946946144104	pulse	0	t		18.0	2.5	/experiments/knapen_AOT/AOT_stimuli/rescaled_final/2045_fw.mp4	0.0	135.16314244270325	
20	119.38436365127563	movie	1		283	18.0	2.5	/experiments/knapen_AOT/AOT_stimuli/rescaled_final/2045_fw.mp4	0.0	135.98803663253784	2.4919707775115967
20	120.15740633010864	pulse	1	t		18.0	2.5	/experiments/knapen_AOT/AOT_stimuli/rescaled_final/2045_fw.mp4	0.0	136.76107931137085	
20	121.75800085067749	pulse	1	t		18.0	2.5	/experiments/knapen_AOT/AOT_stimuli/rescaled_final/2045_fw.mp4	0.0	138.3616738319397	
20	121.87633442878723	fix_post	2		12	18.0	2.5	/experiments/knapen_AOT/AOT_stimuli/rescaled_final/2045_fw.mp4	0.0	138.48000741004944	0.10003042221069336
21	121.97636485099792	fix_pre	0		120	19.0	2.5	/experiments/knapen_AOT/AOT_stimuli/rescaled_final/1011_rv.mp4	0.0	138.58003783226013	1.0085020065307617
21	122.98486685752869	movie	1		266	19.0	2.5	/experiments/knapen_AOT/AOT_stimuli/rescaled_final/1011_rv.mp4	0.0	139.5885398387909	2.492128610610962
21	123.3601725101471	pulse	1	t		19.0	2.5	/experiments/knapen_AOT/AOT_stimuli/rescaled_final/1011_rv.mp4	0.0	139.9638454914093	
21	124.958251953125	pulse	1	t		19.0	2.5	/experiments/knapen_AOT/AOT_stimuli/rescaled_final/1011_rv.mp4	0.0	141.5619249343872	
21	125.47699546813965	fix_post	2		12	19.0	2.5	/experiments/knapen_AOT/AOT_stimuli/rescaled_final/1011_rv.mp4	0.0	142.08066844940186	0.09990048408508301
22	125.57689595222473	fix_pre	0		119	20.0	2.5	blank	1.0	142.18056893348694	0.9918215274810791
22	126.56060409545898	pulse	0	t		20.0	2.5	blank	1.0	143.1642770767212	
22	126.56871747970581	movie	1		301	20.0	2.5	blank	1.0	143.17239046096802	2.5086989402770996
22	128.16095232963562	pulse	1	t		20.0	2.5	blank	1.0	144.76462531089783	
22	129.0774164199829	fix_post	2		12	20.0	2.5	blank	1.0	145.68108940124512	0.1000213623046875
23	129.1774377822876	fix_pre	0		120	21.0	2.5	/experiments/knapen_AOT/AOT_stimuli/rescaled_final/2116_rv.mp4	0.0	145.7811107635498	1.0084953308105469
23	129.76104164123535	pulse	0	t		21.0	2.5	/experiments/knapen_AOT/AOT_stimuli/rescaled_final/2116_rv.mp4	0.0	146.36471462249756	
23	130.18593311309814	movie	1		272	21.0	2.5	/experiments/knapen_AOT/AOT_stimuli/rescaled_final/2116_rv.mp4	0.0	146.78960609436035	2.4920310974121094
23	131.36110544204712	pulse	1	t		21.0	2.5	/experiments/knapen_AOT/AOT_stimuli/rescaled_final/2116_rv.mp4	0.0	147.96477842330933	
23	132.67796421051025	fix_post	2		12	21.0	2.5	/experiments/knapen_AOT/AOT_stimuli/rescaled_final/2116_rv.mp4	0.0	149.28163719177246	0.10003781318664551
24	132.7780020236969	fix_pre	0		120	22.0	2.5	/experiments/knapen_AOT/AOT_stimuli/rescaled_final/0912_fw.mp4	0.0	149.3816750049591	1.00846529006958
24	132.96153569221497	pulse	0	t		22.0	2.5	/experiments/knapen_AOT/AOT_stimuli/rescaled_final/0912_fw.mp4	0.0	149.56520867347717	
24	133.78646731376648	movie	1		282	22.0	2.5	/experiments/knapen_AOT/AOT_stimuli/rescaled_final/0912_fw.mp4	0.0	150.3901402950287	2.492058277130127
24	134.55962681770325	pulse	1	t		22.0	2.5	/experiments/knapen_AOT/AOT_stimuli/rescaled_final/0912_fw.mp4	0.0	151.16329979896545	
24	136.160071849823	pulse	1	t		22.0	2.5	/experiments/knapen_AOT/AOT_stimuli/rescaled_final/0912_fw.mp4	0.0	152.7637448310852	
24	136.2785255908966	fix_post	2		12	22.0	2.5	/experiments/knapen_AOT/AOT_stimuli/rescaled_final/0912_fw.mp4	0.0	152.8821985721588	0.09999990463256836
25	136.37852549552917	fix_pre	0		120	23.0	2.5	/experiments/knapen_AOT/AOT_stimuli/rescaled_final/0488_rv.mp4	0.0	152.98219847679138	1.0085136890411377
25	137.3870391845703	movie	1		274	23.0	2.5	/experiments/knapen_AOT/AOT_stimuli/rescaled_final/0488_rv.mp4	0.0	153.99071216583252	2.492016315460205
25	137.76040482521057	pulse	1	t		23.0	2.5	/experiments/knapen_AOT/AOT_stimuli/rescaled_final/0488_rv.mp4	0.0	154.36407780647278	
25	139.3606560230255	pulse	1	t		23.0	2.5	/experiments/knapen_AOT/AOT_stimuli/rescaled_final/0488_rv.mp4	0.0	155.96432900428772	
25	139.87905550003052	fix_post	2		12	23.0	2.5	/experiments/knapen_AOT/AOT_stimuli/rescaled_final/0488_rv.mp4	0.0	156.48272848129272	0.10006570816040039
26	139.97912120819092	fix_pre	0		119	24.0	2.5	/experiments/knapen_AOT/AOT_stimuli/rescaled_final/2179_rv.mp4	0.0	156.58279418945312	1.0000965595245361
26	140.96281719207764	pulse	0	t		24.0	2.5	/experiments/knapen_AOT/AOT_stimuli/rescaled_final/2179_rv.mp4	0.0	157.56649017333984	
26	140.97921776771545	movie	1		283	24.0	2.5	/experiments/knapen_AOT/AOT_stimuli/rescaled_final/2179_rv.mp4	0.0	157.58289074897766	2.500394821166992
26	142.56148290634155	pulse	1	t		24.0	2.5	/experiments/knapen_AOT/AOT_stimuli/rescaled_final/2179_rv.mp4	0.0	159.16515588760376	
26	143.47961258888245	fix_post	2		12	24.0	2.5	/experiments/knapen_AOT/AOT_stimuli/rescaled_final/2179_rv.mp4	0.0	160.08328557014465	0.0999903678894043
27	143.57960295677185	fix_pre	0		120	25.0	2.5	/experiments/knapen_AOT/AOT_stimuli/rescaled_final/1324_fw.mp4	0.0	160.18327593803406	1.008514642715454
27	144.15602564811707	pulse	0	t		25.0	2.5	/experiments/knapen_AOT/AOT_stimuli/rescaled_final/1324_fw.mp4	0.0	160.75969862937927	
27	144.5881175994873	movie	1		259	25.0	2.5	/experiments/knapen_AOT/AOT_stimuli/rescaled_final/1324_fw.mp4	0.0	161.1917905807495	2.49200701713562
27	145.7555227279663	pulse	1	t		25.0	2.5	/experiments/knapen_AOT/AOT_stimuli/rescaled_final/1324_fw.mp4	0.0	162.35919570922852	
27	147.08012461662292	fix_post	2		12	25.0	2.5	/experiments/knapen_AOT/AOT_stimuli/rescaled_final/1324_fw.mp4	0.0	163.68379759788513	0.10008525848388672
28	147.1802098751068	fix_pre	0		120	26.0	2.5	/experiments/knapen_AOT/AOT_stimuli/rescaled_final/0987_rv.mp4	0.0	163.78388285636902	1.008453369140625
28	147.35545301437378	pulse	0	t		26.0	2.5	/experiments/knapen_AOT/AOT_stimuli/rescaled_final/0987_rv.mp4	0.0	163.959125995636	
28	148.18866324424744	movie	1		278	26.0	2.5	/experiments/knapen_AOT/AOT_stimuli/rescaled_final/0987_rv.mp4	0.0	164.79233622550964	2.4920263290405273
28	148.9555995464325	pulse	1	t		26.0	2.5	/experiments/knapen_AOT/AOT_stimuli/rescaled_final/0987_rv.mp4	0.0	165.5592725276947	
28	150.55584287643433	pulse	1	t		26.0	2.5	/experiments/knapen_AOT/AOT_stimuli/rescaled_final/0987_rv.mp4	0.0	167.15951585769653	
28	150.68068957328796	fix_post	2		12	26.0	2.5	/experiments/knapen_AOT/AOT_stimuli/rescaled_final/0987_rv.mp4	0.0	167.28436255455017	0.09999561309814453
29	150.7806851863861	fix_pre	0		120	27.0	2.5	blank	1.0	167.38435816764832	1.00014066696167
29	151.78082585334778	movie	1		300	27.0	2.5	blank	1.0	168.38449883460999	2.500387668609619
29	152.1561243534088	pulse	1	t		27.0	2.5	blank	1.0	168.75979733467102	
29	153.75639843940735	pulse	1	t		27.0	2.5	blank	1.0	170.36007142066956	
29	154.2812135219574	fix_post	2		12	27.0	2.5	blank	1.0	170.8848865032196	0.1000516414642334
30	154.38126516342163	fix_pre	0		118	28.0	2.5	/experiments/knapen_AOT/AOT_stimuli/rescaled_final/1443_rv.mp4	0.0	170.98493814468384	0.9917750358581543
30	155.35659623146057	pulse	0	t		28.0	2.5	/experiments/knapen_AOT/AOT_stimuli/rescaled_final/1443_rv.mp4	0.0	171.96026921272278	
30	155.37304019927979	movie	1		275	28.0	2.5	/experiments/knapen_AOT/AOT_stimuli/rescaled_final/1443_rv.mp4	0.0	171.976713180542	2.500368595123291
30	156.95675778388977	pulse	1	t		28.0	2.5	/experiments/knapen_AOT/AOT_stimuli/rescaled_final/1443_rv.mp4	0.0	173.56043076515198	
30	157.87340879440308	fix_post	2		12	28.0	2.5	/experiments/knapen_AOT/AOT_stimuli/rescaled_final/1443_rv.mp4	0.0	174.47708177566528	0.10012125968933105
31	157.9735300540924	fix_pre	0		120	29.0	2.5	/experiments/knapen_AOT/AOT_stimuli/rescaled_final/2179_rv.mp4	0.0	174.57720303535461	1.0084030628204346
31	158.55709099769592	pulse	0	t		29.0	2.5	/experiments/knapen_AOT/AOT_stimuli/rescaled_final/2179_rv.mp4	0.0	175.16076397895813	
31	158.98193311691284	movie	1		277	29.0	2.5	/experiments/knapen_AOT/AOT_stimuli/rescaled_final/2179_rv.mp4	0.0	175.58560609817505	2.4920153617858887
31	160.15732789039612	pulse	1	t		29.0	2.5	/experiments/knapen_AOT/AOT_stimuli/rescaled_final/2179_rv.mp4	0.0	176.76100087165833	
31	161.47394847869873	fix_post	2		12	29.0	2.5	/experiments/knapen_AOT/AOT_stimuli/rescaled_final/2179_rv.mp4	0.0	178.07762145996094	0.10002636909484863
32	161.57397484779358	fix_pre	0		120	30.0	2.5	/experiments/knapen_AOT/AOT_stimuli/rescaled_final/1362_fw.mp4	0.0	178.1776478290558	1.008575677871704
32	161.7575240135193	pulse	0	t		30.0	2.5	/experiments/knapen_AOT/AOT_stimuli/rescaled_final/1362_fw.mp4	0.0	178.3611969947815	
32	162.58255052566528	movie	1		277	30.0	2.5	/experiments/knapen_AOT/AOT_stimuli/rescaled_final/1362_fw.mp4	0.0	179.1862235069275	2.4919466972351074
32	163.35571479797363	pulse	1	t		30.0	2.5	/experiments/knapen_AOT/AOT_stimuli/rescaled_final/1362_fw.mp4	0.0	179.95938777923584	
32	164.9562475681305	pulse	1	t		30.0	2.5	/experiments/knapen_AOT/AOT_stimuli/rescaled_final/1362_fw.mp4	0.0	181.5599205493927	
32	165.0744972229004	fix_post	2		12	30.0	2.5	/experiments/knapen_AOT/AOT_stimuli/rescaled_final/1362_fw.mp4	0.0	181.6781702041626	0.1000361442565918
33	165.17453336715698	fix_pre	0		120	31.0	2.5	/experiments/knapen_AOT/AOT_stimuli/rescaled_final/0292_rv.mp4	0.0	181.7782063484192	1.0084457397460938
33	166.18297910690308	movie	1		271	31.0	2.5	/experiments/knapen_AOT/AOT_stimuli/rescaled_final/0292_rv.mp4	0.0	182.78665208816528	2.492043972015381
33	166.5562915802002	pulse	1	t		31.0	2.5	/experiments/knapen_AOT/AOT_stimuli/rescaled_final/0292_rv.mp4	0.0	183.1599645614624	
33	168.15632796287537	pulse	1	t		31.0	2.5	/experiments/knapen_AOT/AOT_stimuli/rescaled_final/0292_rv.mp4	0.0	184.76000094413757	
33	168.67502307891846	fix_post	2		12	31.0	2.5	/experiments/knapen_AOT/AOT_stimuli/rescaled_final/0292_rv.mp4	0.0	185.27869606018066	0.10002493858337402
34	168.77504801750183	fix_pre	0		119	32.0	2.5	/experiments/knapen_AOT/AOT_stimuli/rescaled_final/0860_rv.mp4	0.0	185.37872099876404	1.0001718997955322
34	169.75884699821472	pulse	0	t		32.0	2.5	/experiments/knapen_AOT/AOT_stimuli/rescaled_final/0860_rv.mp4	0.0	186.36251997947693	
34	169.77521991729736	movie	1		268	32.0	2.5	/experiments/knapen_AOT/AOT_stimuli/rescaled_final/0860_rv.mp4	0.0	186.37889289855957	2.5003929138183594
34	171.35851168632507	pulse	1	t		32.0	2.5	/experiments/knapen_AOT/AOT_stimuli/rescaled_final/0860_rv.mp4	0.0	187.96218466758728	
34	172.27561283111572	fix_post	2		12	32.0	2.5	/experiments/knapen_AOT/AOT_stimuli/rescaled_final/0860_rv.mp4	0.0	188.87928581237793	0.09998011589050293
35	172.37559294700623	fix_pre	0		120	33.0	2.5	/experiments/knapen_AOT/AOT_stimuli/rescaled_final/1243_fw.mp4	0.0	188.97926592826843	1.0084877014160156
35	172.95928263664246	pulse	0	t		33.0	2.5	/experiments/knapen_AOT/AOT_stimuli/rescaled_final/1243_fw.mp4	0.0	189.56295561790466	
35	173.38408064842224	movie	1		280	33.0	2.5	/experiments/knapen_AOT/AOT_stimuli/rescaled_final/1243_fw.mp4	0.0	189.98775362968445	2.4920237064361572
35	174.5574963092804	pulse	1	t		33.0	2.5	/experiments/knapen_AOT/AOT_stimuli/rescaled_final/1243_fw.mp4	0.0	191.1611692905426	
35	175.8761043548584	fix_post	2		12	33.0	2.5	/experiments/knapen_AOT/AOT_stimuli/rescaled_final/1243_fw.mp4	0.0	192.4797773361206	0.10003042221069336
36	175.9761347770691	fix_pre	0		120	34.0	2.5	blank	1.0	192.5798077583313	1.0001564025878906
36	176.15986466407776	pulse	0	t		34.0	2.5	blank	1.0	192.76353764533997	
36	176.97629117965698	movie	1		300	34.0	2.5	blank	1.0	193.5799641609192	2.5003550052642822
36	177.7600281238556	pulse	1	t		34.0	2.5	blank	1.0	194.3637011051178	
36	179.3601496219635	pulse	1	t		34.0	2.5	blank	1.0	195.9638226032257	
36	179.47664618492126	fix_post	2		12	34.0	2.5	blank	1.0	196.08031916618347	0.1000678539276123
37	179.57671403884888	fix_pre	0		120	35.0	2.5	/experiments/knapen_AOT/AOT_stimuli/rescaled_final/1041_fw.mp4	0.0	196.18038702011108	1.0085010528564453
37	180.58521509170532	movie	1		273	35.0	2.5	/experiments/knapen_AOT/AOT_stimuli/rescaled_final/1041_fw.mp4	0.0	197.18888807296753	2.4920167922973633
37	180.9589250087738	pulse	1	t		35.0	2.5	/experiments/knapen_AOT/AOT_stimuli/rescaled_final/1041_fw.mp4	0.0	197.562597990036	
37	182.55928230285645	pulse	1	t		35.0	2.5	/experiments/knapen_AOT/AOT_stimuli/rescaled_final/1041_fw.mp4	0.0	199.16295528411865	
37	183.07723188400269	fix_post	2		12	35.0	2.5	/experiments/knapen_AOT/AOT_stimuli/rescaled_final/1041_fw.mp4	0.0	199.6809048652649	0.10000085830688477
38	183.17723274230957	fix_pre	0		119	36.0	2.5	/experiments/knapen_AOT/AOT_stimuli/rescaled_final/1711_rv.mp4	0.0	199.78090572357178	1.0002906322479248
38	184.16086959838867	pulse	0	t		36.0	2.5	/experiments/knapen_AOT/AOT_stimuli/rescaled_final/1711_rv.mp4	0.0	200.76454257965088	
38	184.1775233745575	movie	1		279	36.0	2.5	/experiments/knapen_AOT/AOT_stimuli/rescaled_final/1711_rv.mp4	0.0	200.7811963558197	2.500199556350708
38	185.75942087173462	pulse	1	t		36.0	2.5	/experiments/knapen_AOT/AOT_stimuli/rescaled_final/1711_rv.mp4	0.0	202.36309385299683	
38	186.6777229309082	fix_post	2		12	36.0	2.5	/experiments/knapen_AOT/AOT_stimuli/rescaled_final/1711_rv.mp4	0.0	203.2813959121704	0.10002899169921875
39	186.77775192260742	fix_pre	0		120	37.0	2.5	/experiments/knapen_AOT/AOT_stimuli/rescaled_final/1202_fw.mp4	0.0	203.38142490386963	1.008568286895752
39	187.3616659641266	pulse	0	t		37.0	2.5	/experiments/knapen_AOT/AOT_stimuli/rescaled_final/1202_fw.mp4	0.0	203.9653389453888	
39	187.78632020950317	movie	1		275	37.0	2.5	/experiments/knapen_AOT/AOT_stimuli/rescaled_final/1202_fw.mp4	0.0	204.38999319076538	2.491973876953125
39	188.96071362495422	pulse	1	t		37.0	2.5	/experiments/knapen_AOT/AOT_stimuli/rescaled_final/1202_fw.mp4	0.0	205.56438660621643	
39	190.2782940864563	fix_post	2		12	37.0	2.5	/experiments/knapen_AOT/AOT_stimuli/rescaled_final/1202_fw.mp4	0.0	206.8819670677185	0.10000014305114746
40	190.37829422950745	fix_pre	0		120	38.0	2.5	/experiments/knapen_AOT/AOT_stimuli/rescaled_final/1453_rv.mp4	0.0	206.98196721076965	1.008518934249878
40	190.56201004981995	pulse	0	t		38.0	2.5	/experiments/knapen_AOT/AOT_stimuli/rescaled_final/1453_rv.mp4	0.0	207.16568303108215	
40	191.38681316375732	movie	1		278	38.0	2.5	/experiments/knapen_AOT/AOT_stimuli/rescaled_final/1453_rv.mp4	0.0	207.99048614501953	2.492006540298462
40	192.1600661277771	pulse	1	t		38.0	2.5	/experiments/knapen_AOT/AOT_stimuli/rescaled_final/1453_rv.mp4	0.0	208.7637391090393	
40	193.7605619430542	pulse	1	t		38.0	2.5	/experiments/knapen_AOT/AOT_stimuli/rescaled_final/1453_rv.mp4	0.0	210.3642349243164	
40	193.8788197040558	fix_post	2		12	38.0	2.5	/experiments/knapen_AOT/AOT_stimuli/rescaled_final/1453_rv.mp4	0.0	210.482492685318	0.10001087188720703
41	193.978830575943	fix_pre	0		120	39.0	2.5	/experiments/knapen_AOT/AOT_stimuli/rescaled_final/2121_rv.mp4	0.0	210.5825035572052	1.0085196495056152
41	194.9873502254486	movie	1		270	39.0	2.5	/experiments/knapen_AOT/AOT_stimuli/rescaled_final/2121_rv.mp4	0.0	211.59102320671082	2.4920167922973633
41	195.36100578308105	pulse	1	t		39.0	2.5	/experiments/knapen_AOT/AOT_stimuli/rescaled_final/2121_rv.mp4	0.0	211.96467876434326	
41	196.9605357646942	pulse	1	t		39.0	2.5	/experiments/knapen_AOT/AOT_stimuli/rescaled_final/2121_rv.mp4	0.0	213.56420874595642	
41	197.47936701774597	fix_post	2		12	39.0	2.5	/experiments/knapen_AOT/AOT_stimuli/rescaled_final/2121_rv.mp4	0.0	214.08303999900818	0.1000216007232666
42	197.57938861846924	fix_pre	0		119	40.0	2.5	blank	1.0	214.18306159973145	0.9919314384460449
42	198.56305718421936	pulse	0	t		40.0	2.5	blank	1.0	215.16673016548157	
42	198.57132005691528	movie	1		301	40.0	2.5	blank	1.0	215.1749930381775	2.5085649490356445
42	200.1563904285431	pulse	1	t		40.0	2.5	blank	1.0	216.7600634098053	
42	201.07988500595093	fix_post	2		12	40.0	2.5	blank	1.0	217.68355798721313	0.10002779960632324
43	201.17991280555725	fix_pre	0		120	41.0	2.5	/experiments/knapen_AOT/AOT_stimuli/rescaled_final/1099_fw.mp4	0.0	217.78358578681946	1.0085124969482422
43	201.75710558891296	pulse	0	t		41.0	2.5	/experiments/knapen_AOT/AOT_stimuli/rescaled_final/1099_fw.mp4	0.0	218.36077857017517	
43	202.1884253025055	movie	1		274	41.0	2.5	/experiments/knapen_AOT/AOT_stimuli/rescaled_final/1099_fw.mp4	0.0	218.7920982837677	2.4920217990875244
43	203.36263275146484	pulse	1	t		41.0	2.5	/experiments/knapen_AOT/AOT_stimuli/rescaled_final/1099_fw.mp4	0.0	219.96630573272705	
43	204.68044710159302	fix_post	2		12	41.0	2.5	/experiments/knapen_AOT/AOT_stimuli/rescaled_final/1099_fw.mp4	0.0	221.28412008285522	0.10002493858337402
44	204.7804720401764	fix_pre	0		120	42.0	2.5	/experiments/knapen_AOT/AOT_stimuli/rescaled_final/1391_rv.mp4	0.0	221.3841450214386	1.0084898471832275
44	204.95594763755798	pulse	0	t		42.0	2.5	/experiments/knapen_AOT/AOT_stimuli/rescaled_final/1391_rv.mp4	0.0	221.5596206188202	
44	205.78896188735962	movie	1		278	42.0	2.5	/experiments/knapen_AOT/AOT_stimuli/rescaled_final/1391_rv.mp4	0.0	222.39263486862183	2.4920248985290527
44	206.55594158172607	pulse	1	t		42.0	2.5	/experiments/knapen_AOT/AOT_stimuli/rescaled_final/1391_rv.mp4	0.0	223.15961456298828	
44	208.15622878074646	pulse	1	t		42.0	2.5	/experiments/knapen_AOT/AOT_stimuli/rescaled_final/1391_rv.mp4	0.0	224.75990176200867	
44	208.28098678588867	fix_post	2		12	42.0	2.5	/experiments/knapen_AOT/AOT_stimuli/rescaled_final/1391_rv.mp4	0.0	224.88465976715088	0.1000070571899414
45	208.3809938430786	fix_pre	0		120	43.0	2.5	/experiments/knapen_AOT/AOT_stimuli/rescaled_final/1362_rv.mp4	0.0	224.98466682434082	1.008512020111084
45	209.3895058631897	movie	1		276	43.0	2.5	/experiments/knapen_AOT/AOT_stimuli/rescaled_final/1362_rv.mp4	0.0	225.9931788444519	2.4920413494110107
45	209.75642442703247	pulse	1	t		43.0	2.5	/experiments/knapen_AOT/AOT_stimuli/rescaled_final/1362_rv.mp4	0.0	226.36009740829468	
45	211.35678577423096	pulse	1	t		43.0	2.5	/experiments/knapen_AOT/AOT_stimuli/rescaled_final/1362_rv.mp4	0.0	227.96045875549316	
45	211.8815472126007	fix_post	2		12	43.0	2.5	/experiments/knapen_AOT/AOT_stimuli/rescaled_final/1362_rv.mp4	0.0	228.48522019386292	0.09999871253967285
46	211.98154592514038	fix_pre	0		118	44.0	2.5	/experiments/knapen_AOT/AOT_stimuli/rescaled_final/0624_fw.mp4	0.0	228.5852189064026	0.9918792247772217
46	212.9568910598755	pulse	0	t		44.0	2.5	/experiments/knapen_AOT/AOT_stimuli/rescaled_final/0624_fw.mp4	0.0	229.5605640411377	
46	212.9734251499176	movie	1		265	44.0	2.5	/experiments/knapen_AOT/AOT_stimuli/rescaled_final/0624_fw.mp4	0.0	229.5770981311798	2.5003457069396973
46	214.55728244781494	pulse	1	t		44.0	2.5	/experiments/knapen_AOT/AOT_stimuli/rescaled_final/0624_fw.mp4	0.0	231.16095542907715	
46	215.4737708568573	fix_post	2		12	44.0	2.5	/experiments/knapen_AOT/AOT_stimuli/rescaled_final/0624_fw.mp4	0.0	232.0774438381195	0.09997200965881348
47	215.5737428665161	fix_pre	0		120	45.0	2.5	/experiments/knapen_AOT/AOT_stimuli/rescaled_final/1391_rv.mp4	0.0	232.17741584777832	1.008537769317627
47	216.15743279457092	pulse	0	t		45.0	2.5	/experiments/knapen_AOT/AOT_stimuli/rescaled_final/1391_rv.mp4	0.0	232.76110577583313	
47	216.58228063583374	movie	1		269	45.0	2.5	/experiments/knapen_AOT/AOT_stimuli/rescaled_final/1391_rv.mp4	0.0	233.18595361709595	2.4920334815979004
47	217.7565393447876	pulse	1	t		45.0	2.5	/experiments/knapen_AOT/AOT_stimuli/rescaled_final/1391_rv.mp4	0.0	234.3602123260498	
47	219.07431411743164	fix_post	2		12	45.0	2.5	/experiments/knapen_AOT/AOT_stimuli/rescaled_final/1391_rv.mp4	0.0	235.67798709869385	0.09998321533203125
48	219.17429733276367	fix_pre	0		120	46.0	2.5	/experiments/knapen_AOT/AOT_stimuli/rescaled_final/0643_rv.mp4	0.0	235.77797031402588	1.0086796283721924
48	219.35785508155823	pulse	0	t		46.0	2.5	/experiments/knapen_AOT/AOT_stimuli/rescaled_final/0643_rv.mp4	0.0	235.96152806282043	
48	220.18297696113586	movie	1		266	46.0	2.5	/experiments/knapen_AOT/AOT_stimuli/rescaled_final/0643_rv.mp4	0.0	236.78664994239807	2.4918313026428223
48	220.9583034515381	pulse	1	t		46.0	2.5	/experiments/knapen_AOT/AOT_stimuli/rescaled_final/0643_rv.mp4	0.0	237.5619764328003	
48	222.55664324760437	pulse	1	t		46.0	2.5	/experiments/knapen_AOT/AOT_stimuli/rescaled_final/0643_rv.mp4	0.0	239.16031622886658	
48	222.6748082637787	fix_post	2		12	46.0	2.5	/experiments/knapen_AOT/AOT_stimuli/rescaled_final/0643_rv.mp4	0.0	239.2784812450409	0.10005784034729004
49	222.77486610412598	fix_pre	0		120	47.0	2.5	/experiments/knapen_AOT/AOT_stimuli/rescaled_final/0595_fw.mp4	0.0	239.37853908538818	1.0084421634674072
49	223.78330826759338	movie	1		272	47.0	2.5	/experiments/knapen_AOT/AOT_stimuli/rescaled_final/0595_fw.mp4	0.0	240.3869812488556	2.4920475482940674
49	224.1570165157318	pulse	1	t		47.0	2.5	/experiments/knapen_AOT/AOT_stimuli/rescaled_final/0595_fw.mp4	0.0	240.76068949699402	
49	225.75676941871643	pulse	1	t		47.0	2.5	/experiments/knapen_AOT/AOT_stimuli/rescaled_final/0595_fw.mp4	0.0	242.36044239997864	
49	226.27535581588745	fix_post	2		12	47.0	2.5	/experiments/knapen_AOT/AOT_stimuli/rescaled_final/0595_fw.mp4	0.0	242.87902879714966	0.10004401206970215
50	226.37539982795715	fix_pre	0		119	48.0	2.5	/experiments/knapen_AOT/AOT_stimuli/rescaled_final/1279_fw.mp4	0.0	242.97907280921936	1.0001683235168457
50	227.35931491851807	pulse	0	t		48.0	2.5	/experiments/knapen_AOT/AOT_stimuli/rescaled_final/1279_fw.mp4	0.0	243.96298789978027	
50	227.375568151474	movie	1		277	48.0	2.5	/experiments/knapen_AOT/AOT_stimuli/rescaled_final/1279_fw.mp4	0.0	243.9792411327362	2.5003530979156494
50	228.9587378501892	pulse	1	t		48.0	2.5	/experiments/knapen_AOT/AOT_stimuli/rescaled_final/1279_fw.mp4	0.0	245.56241083145142	
50	229.87592124938965	fix_post	2		12	48.0	2.5	/experiments/knapen_AOT/AOT_stimuli/rescaled_final/1279_fw.mp4	0.0	246.47959423065186	0.10001254081726074
51	229.9759337902069	fix_pre	0		120	49.0	2.5	blank	1.0	246.57960677146912	1.0001215934753418
51	230.55952525138855	pulse	0	t		49.0	2.5	blank	1.0	247.16319823265076	
51	230.97605538368225	movie	1		300	49.0	2.5	blank	1.0	247.57972836494446	2.500364303588867
51	232.15980982780457	pulse	1	t		49.0	2.5	blank	1.0	248.76348280906677	
51	233.47641968727112	fix_post	2		12	49.0	2.5	blank	1.0	250.08009266853333	0.10003972053527832
52	233.5764594078064	fix_pre	0		120	50.0	2.5	/experiments/knapen_AOT/AOT_stimuli/rescaled_final/0832_rv.mp4	0.0	250.1801323890686	1.0084831714630127
52	233.7600440979004	pulse	0	t		50.0	2.5	/experiments/knapen_AOT/AOT_stimuli/rescaled_final/0832_rv.mp4	0.0	250.3637170791626	
52	234.5849425792694	movie	1		280	50.0	2.5	/experiments/knapen_AOT/AOT_stimuli/rescaled_final/0832_rv.mp4	0.0	251.18861556053162	2.4920432567596436
52	235.35813331604004	pulse	1	t		50.0	2.5	/experiments/knapen_AOT/AOT_stimuli/rescaled_final/0832_rv.mp4	0.0	251.96180629730225	
52	236.95835065841675	pulse	1	t		50.0	2.5	/experiments/knapen_AOT/AOT_stimuli/rescaled_final/0832_rv.mp4	0.0	253.56202363967896	
52	237.07698583602905	fix_post	2		12	50.0	2.5	/experiments/knapen_AOT/AOT_stimuli/rescaled_final/0832_rv.mp4	0.0	253.68065881729126	0.10001420974731445
53	237.17700004577637	fix_pre	0		120	51.0	2.5	/experiments/knapen_AOT/AOT_stimuli/rescaled_final/0045_fw.mp4	0.0	253.78067302703857	1.0084807872772217
53	238.1854808330536	movie	1		284	51.0	2.5	/experiments/knapen_AOT/AOT_stimuli/rescaled_final/0045_fw.mp4	0.0	254.7891538143158	2.4920263290405273
53	238.55937719345093	pulse	1	t		51.0	2.5	/experiments/knapen_AOT/AOT_stimuli/rescaled_final/0045_fw.mp4	0.0	255.16305017471313	
53	240.15893530845642	pulse	1	t		51.0	2.5	/experiments/knapen_AOT/AOT_stimuli/rescaled_final/0045_fw.mp4	0.0	256.7626082897186	
53	240.67750716209412	fix_post	2		12	51.0	2.5	/experiments/knapen_AOT/AOT_stimuli/rescaled_final/0045_fw.mp4	0.0	257.2811801433563	0.10003924369812012
54	240.77754640579224	fix_pre	0		119	52.0	2.5	/experiments/knapen_AOT/AOT_stimuli/rescaled_final/0234_rv.mp4	0.0	257.38121938705444	1.0001411437988281
54	241.76125192642212	pulse	0	t		52.0	2.5	/experiments/knapen_AOT/AOT_stimuli/rescaled_final/0234_rv.mp4	0.0	258.3649249076843	
54	241.77768754959106	movie	1		281	52.0	2.5	/experiments/knapen_AOT/AOT_stimuli/rescaled_final/0234_rv.mp4	0.0	258.38136053085327	2.500378370285034
54	243.35987639427185	pulse	1	t		52.0	2.5	/experiments/knapen_AOT/AOT_stimuli/rescaled_final/0234_rv.mp4	0.0	259.96354937553406	
54	244.2780659198761	fix_post	2		12	52.0	2.5	/experiments/knapen_AOT/AOT_stimuli/rescaled_final/0234_rv.mp4	0.0	260.8817389011383	0.09999585151672363
55	244.37806177139282	fix_pre	0		120	53.0	2.5	/experiments/knapen_AOT/AOT_stimuli/rescaled_final/0223_rv.mp4	0.0	260.98173475265503	1.0085082054138184
55	244.9616847038269	pulse	0	t		53.0	2.5	/experiments/knapen_AOT/AOT_stimuli/rescaled_final/0223_rv.mp4	0.0	261.5653576850891	
55	245.38656997680664	movie	1		271	53.0	2.5	/experiments/knapen_AOT/AOT_stimuli/rescaled_final/0223_rv.mp4	0.0	261.99024295806885	2.492027521133423
55	246.56126236915588	pulse	1	t		53.0	2.5	/experiments/knapen_AOT/AOT_stimuli/rescaled_final/0223_rv.mp4	0.0	263.1649353504181	
55	247.87859749794006	fix_post	2		12	53.0	2.5	/experiments/knapen_AOT/AOT_stimuli/rescaled_final/0223_rv.mp4	0.0	264.48227047920227	0.10001516342163086
56	247.9786126613617	fix_pre	0		120	54.0	2.5	/experiments/knapen_AOT/AOT_stimuli/rescaled_final/1443_fw.mp4	0.0	264.5822856426239	1.0084812641143799
56	248.16213870048523	pulse	0	t		54.0	2.5	/experiments/knapen_AOT/AOT_stimuli/rescaled_final/1443_fw.mp4	0.0	264.76581168174744	
56	248.98709392547607	movie	1		274	54.0	2.5	/experiments/knapen_AOT/AOT_stimuli/rescaled_final/1443_fw.mp4	0.0	265.5907669067383	2.4920215606689453
56	249.7622425556183	pulse	1	t		54.0	2.5	/experiments/knapen_AOT/AOT_stimuli/rescaled_final/1443_fw.mp4	0.0	266.3659155368805	
56	251.3605387210846	pulse	1	t		54.0	2.5	/experiments/knapen_AOT/AOT_stimuli/rescaled_final/1443_fw.mp4	0.0	267.9642117023468	
56	251.47911548614502	fix_post	2		12	54.0	2.5	/experiments/knapen_AOT/AOT_stimuli/rescaled_final/1443_fw.mp4	0.0	268.0827884674072	0.10005402565002441
57	251.57916951179504	fix_pre	0		120	55.0	2.5	/experiments/knapen_AOT/AOT_stimuli/rescaled_final/1207_rv.mp4	0.0	268.18284249305725	1.008500099182129
57	252.58766961097717	movie	1		273	55.0	2.5	/experiments/knapen_AOT/AOT_stimuli/rescaled_final/1207_rv.mp4	0.0	269.1913425922394	2.4919943809509277
57	252.96123886108398	pulse	1	t		55.0	2.5	/experiments/knapen_AOT/AOT_stimuli/rescaled_final/1207_rv.mp4	0.0	269.5649118423462	
57	254.56215977668762	pulse	1	t		55.0	2.5	/experiments/knapen_AOT/AOT_stimuli/rescaled_final/1207_rv.mp4	0.0	271.16583275794983	
57	255.0796639919281	fix_post	2		12	55.0	2.5	/experiments/knapen_AOT/AOT_stimuli/rescaled_final/1207_rv.mp4	0.0	271.6833369731903	0.10020971298217773
58	255.17987370491028	fix_pre	0		119	56.0	2.5	blank	1.0	271.7835466861725	0.9916732311248779
58	256.16342782974243	pulse	0	t		56.0	2.5	blank	1.0	272.76710081100464	
58	256.17154693603516	movie	1		301	56.0	2.5	blank	1.0	272.77521991729736	2.5086705684661865
58	257.76363134384155	pulse	1	t		56.0	2.5	blank	1.0	274.36730432510376	
58	258.68021750450134	fix_post	2		12	56.0	2.5	blank	1.0	275.28389048576355	0.10002756118774414
59	258.7802450656891	fix_pre	0		120	57.0	2.5	/experiments/knapen_AOT/AOT_stimuli/rescaled_final/2141_rv.mp4	0.0	275.3839180469513	1.0084924697875977
59	259.36392092704773	pulse	0	t		57.0	2.5	/experiments/knapen_AOT/AOT_stimuli/rescaled_final/2141_rv.mp4	0.0	275.96759390830994	
59	259.7887375354767	movie	1		292	57.0	2.5	/experiments/knapen_AOT/AOT_stimuli/rescaled_final/2141_rv.mp4	0.0	276.3924105167389	2.492004871368408
59	260.9625391960144	pulse	1	t		57.0	2.5	/experiments/knapen_AOT/AOT_stimuli/rescaled_final/2141_rv.mp4	0.0	277.5662121772766	
59	262.2807424068451	fix_post	2		12	57.0	2.5	/experiments/knapen_AOT/AOT_stimuli/rescaled_final/2141_rv.mp4	0.0	278.8844153881073	0.10002779960632324
60	262.3807702064514	fix_pre	0		120	58.0	2.5	/experiments/knapen_AOT/AOT_stimuli/rescaled_final/0791_fw.mp4	0.0	278.9844431877136	1.0085232257843018
60	262.5563027858734	pulse	0	t		58.0	2.5	/experiments/knapen_AOT/AOT_stimuli/rescaled_final/0791_fw.mp4	0.0	279.1599757671356	
60	263.3892934322357	movie	1		279	58.0	2.5	/experiments/knapen_AOT/AOT_stimuli/rescaled_final/0791_fw.mp4	0.0	279.9929664134979	2.492001533508301
60	264.15632033348083	pulse	1	t		58.0	2.5	/experiments/knapen_AOT/AOT_stimuli/rescaled_final/0791_fw.mp4	0.0	280.75999331474304	
60	265.7564823627472	pulse	1	t		58.0	2.5	/experiments/knapen_AOT/AOT_stimuli/rescaled_final/0791_fw.mp4	0.0	282.3601553440094	
60	265.881294965744	fix_post	2		12	58.0	2.5	/experiments/knapen_AOT/AOT_stimuli/rescaled_final/0791_fw.mp4	0.0	282.4849679470062	0.10004782676696777
61	265.981342792511	fix_pre	0		120	59.0	2.5	/experiments/knapen_AOT/AOT_stimuli/rescaled_final/0836_rv.mp4	0.0	282.5850157737732	1.0084898471832275
61	266.9898326396942	movie	1		276	59.0	2.5	/experiments/knapen_AOT/AOT_stimuli/rescaled_final/0836_rv.mp4	0.0	283.5935056209564	2.491999626159668
61	267.35684609413147	pulse	1	t		59.0	2.5	/experiments/knapen_AOT/AOT_stimuli/rescaled_final/0836_rv.mp4	0.0	283.9605190753937	
61	268.95697021484375	pulse	1	t		59.0	2.5	/experiments/knapen_AOT/AOT_stimuli/rescaled_final/0836_rv.mp4	0.0	285.56064319610596	
61	269.4818322658539	fix_post	2		12	59.0	2.5	/experiments/knapen_AOT/AOT_stimuli/rescaled_final/0836_rv.mp4	0.0	286.0855052471161	0.10001158714294434
62	269.5818438529968	fix_pre	0		118	60.0	2.5	/experiments/knapen_AOT/AOT_stimuli/rescaled_final/0313_fw.mp4	0.0	286.18551683425903	0.991844892501831
62	270.5573801994324	pulse	0	t		60.0	2.5	/experiments/knapen_AOT/AOT_stimuli/rescaled_final/0313_fw.mp4	0.0	287.1610531806946	
62	270.57368874549866	movie	1		276	60.0	2.5	/experiments/knapen_AOT/AOT_stimuli/rescaled_final/0313_fw.mp4	0.0	287.17736172676086	2.5005593299865723
62	272.1575086116791	pulse	1	t		60.0	2.5	/experiments/knapen_AOT/AOT_stimuli/rescaled_final/0313_fw.mp4	0.0	288.7611815929413	
62	273.07424807548523	fix_post	2		12	60.0	2.5	/experiments/knapen_AOT/AOT_stimuli/rescaled_final/0313_fw.mp4	0.0	289.67792105674744	0.09983992576599121
63	273.1740880012512	fix_pre	0		120	61.0	2.5	/experiments/knapen_AOT/AOT_stimuli/rescaled_final/1588_rv.mp4	0.0	289.7777609825134	1.0084307193756104
63	273.75774788856506	pulse	0	t		61.0	2.5	/experiments/knapen_AOT/AOT_stimuli/rescaled_final/1588_rv.mp4	0.0	290.36142086982727	
63	274.18251872062683	movie	1		285	61.0	2.5	/experiments/knapen_AOT/AOT_stimuli/rescaled_final/1588_rv.mp4	0.0	290.78619170188904	2.492062568664551
63	275.3581202030182	pulse	1	t		61.0	2.5	/experiments/knapen_AOT/AOT_stimuli/rescaled_final/1588_rv.mp4	0.0	291.9617931842804	
63	276.6745812892914	fix_post	2		12	61.0	2.5	/experiments/knapen_AOT/AOT_stimuli/rescaled_final/1588_rv.mp4	0.0	293.2782542705536	0.10021209716796875
64	276.77479338645935	fix_pre	0		120	62.0	2.5	/experiments/knapen_AOT/AOT_stimuli/rescaled_final/1019_fw.mp4	0.0	293.37846636772156	1.0083234310150146
64	276.9581961631775	pulse	0	t		62.0	2.5	/experiments/knapen_AOT/AOT_stimuli/rescaled_final/1019_fw.mp4	0.0	293.5618691444397	
64	277.78311681747437	movie	1		282	62.0	2.5	/experiments/knapen_AOT/AOT_stimuli/rescaled_final/1019_fw.mp4	0.0	294.3867897987366	2.4920730590820312
64	278.5564053058624	pulse	1	t		62.0	2.5	/experiments/knapen_AOT/AOT_stimuli/rescaled_final/1019_fw.mp4	0.0	295.16007828712463	
64	280.15660858154297	pulse	1	t		62.0	2.5	/experiments/knapen_AOT/AOT_stimuli/rescaled_final/1019_fw.mp4	0.0	296.7602815628052	
64	280.2751898765564	fix_post	2		12	62.0	2.5	/experiments/knapen_AOT/AOT_stimuli/rescaled_final/1019_fw.mp4	0.0	296.8788628578186	0.09995841979980469
65	280.3751482963562	fix_pre	0		120	63.0	2.5	blank	1.0	296.9788212776184	1.0001440048217773
65	281.375292301178	movie	1		300	63.0	2.5	blank	1.0	297.9789652824402	2.5003466606140137
65	281.7589030265808	pulse	1	t		63.0	2.5	blank	1.0	298.362576007843	
65	283.359112739563	pulse	1	t		63.0	2.5	blank	1.0	299.9627857208252	
65	283.875638961792	fix_post	2		12	63.0	2.5	blank	1.0	300.4793119430542	0.10006594657897949
66	283.975704908371	fix_pre	0		119	64.0	2.5	/experiments/knapen_AOT/AOT_stimuli/rescaled_final/1404_rv.mp4	0.0	300.5793778896332	1.0001094341278076
66	284.9593605995178	pulse	0	t		64.0	2.5	/experiments/knapen_AOT/AOT_stimuli/rescaled_final/1404_rv.mp4	0.0	301.56303358078003	
66	284.9758143424988	movie	1		288	64.0	2.5	/experiments/knapen_AOT/AOT_stimuli/rescaled_final/1404_rv.mp4	0.0	301.579487323761	2.500389337539673
66	286.55833315849304	pulse	1	t		64.0	2.5	/experiments/knapen_AOT/AOT_stimuli/rescaled_final/1404_rv.mp4	0.0	303.16200613975525	
66	287.47620368003845	fix_post	2		12	64.0	2.5	/experiments/knapen_AOT/AOT_stimuli/rescaled_final/1404_rv.mp4	0.0	304.07987666130066	0.10004448890686035
67	287.5762481689453	fix_pre	0		120	65.0	2.5	/experiments/knapen_AOT/AOT_stimuli/rescaled_final/0363_rv.mp4	0.0	304.1799211502075	1.008484125137329
67	288.15996289253235	pulse	0	t		65.0	2.5	/experiments/knapen_AOT/AOT_stimuli/rescaled_final/0363_rv.mp4	0.0	304.76363587379456	
67	288.58473229408264	movie	1		280	65.0	2.5	/experiments/knapen_AOT/AOT_stimuli/rescaled_final/0363_rv.mp4	0.0	305.18840527534485	2.492003917694092
67	289.75852727890015	pulse	1	t		65.0	2.5	/experiments/knapen_AOT/AOT_stimuli/rescaled_final/0363_rv.mp4	0.0	306.36220026016235	
67	291.07673621177673	fix_post	2		12	65.0	2.5	/experiments/knapen_AOT/AOT_stimuli/rescaled_final/0363_rv.mp4	0.0	307.68040919303894	0.10004234313964844
68	291.1767785549164	fix_pre	0		120	66.0	2.5	/experiments/knapen_AOT/AOT_stimuli/rescaled_final/0628_rv.mp4	0.0	307.7804515361786	1.0084774494171143
68	291.3603799343109	pulse	0	t		66.0	2.5	/experiments/knapen_AOT/AOT_stimuli/rescaled_final/0628_rv.mp4	0.0	307.9640529155731	
68	292.1852560043335	movie	1		280	66.0	2.5	/experiments/knapen_AOT/AOT_stimuli/rescaled_final/0628_rv.mp4	0.0	308.7889289855957	2.49204421043396
68	292.95872926712036	pulse	1	t		66.0	2.5	/experiments/knapen_AOT/AOT_stimuli/rescaled_final/0628_rv.mp4	0.0	309.56240224838257	
68	294.55891275405884	pulse	1	t		66.0	2.5	/experiments/knapen_AOT/AOT_stimuli/rescaled_final/0628_rv.mp4	0.0	311.16258573532104	
68	294.67730021476746	fix_post	2		12	66.0	2.5	/experiments/knapen_AOT/AOT_stimuli/rescaled_final/0628_rv.mp4	0.0	311.28097319602966	0.1000070571899414
69	294.7773072719574	fix_pre	0		120	67.0	2.5	/experiments/knapen_AOT/AOT_stimuli/rescaled_final/1958_fw.mp4	0.0	311.3809802532196	1.0085113048553467
69	295.78581857681274	movie	1		277	67.0	2.5	/experiments/knapen_AOT/AOT_stimuli/rescaled_final/1958_fw.mp4	0.0	312.38949155807495	2.4920201301574707
69	296.16081380844116	pulse	1	t		67.0	2.5	/experiments/knapen_AOT/AOT_stimuli/rescaled_final/1958_fw.mp4	0.0	312.76448678970337	
69	297.7593412399292	pulse	1	t		67.0	2.5	/experiments/knapen_AOT/AOT_stimuli/rescaled_final/1958_fw.mp4	0.0	314.3630142211914	
69	298.2778387069702	fix_post	2		12	67.0	2.5	/experiments/knapen_AOT/AOT_stimuli/rescaled_final/1958_fw.mp4	0.0	314.8815116882324	0.10000324249267578
70	298.3778419494629	fix_pre	0		119	68.0	2.5	/experiments/knapen_AOT/AOT_stimuli/rescaled_final/1690_rv.mp4	0.0	314.9815149307251	1.0001652240753174
70	299.3615708351135	pulse	0	t		68.0	2.5	/experiments/knapen_AOT/AOT_stimuli/rescaled_final/1690_rv.mp4	0.0	315.96524381637573	
70	299.3780071735382	movie	1		282	68.0	2.5	/experiments/knapen_AOT/AOT_stimuli/rescaled_final/1690_rv.mp4	0.0	315.9816801548004	2.5003750324249268
70	300.9604413509369	pulse	1	t		68.0	2.5	/experiments/knapen_AOT/AOT_stimuli/rescaled_final/1690_rv.mp4	0.0	317.5641143321991	
70	301.87838220596313	fix_post	2		12	68.0	2.5	/experiments/knapen_AOT/AOT_stimuli/rescaled_final/1690_rv.mp4	0.0	318.48205518722534	0.1000525951385498
71	301.9784348011017	fix_pre	0		120	69.0	2.5	/experiments/knapen_AOT/AOT_stimuli/rescaled_final/1546_rv.mp4	0.0	318.5821077823639	1.0084543228149414
71	302.56214022636414	pulse	0	t		69.0	2.5	/experiments/knapen_AOT/AOT_stimuli/rescaled_final/1546_rv.mp4	0.0	319.16581320762634	
71	302.9868891239166	movie	1		278	69.0	2.5	/experiments/knapen_AOT/AOT_stimuli/rescaled_final/1546_rv.mp4	0.0	319.59056210517883	2.4919991493225098
71	304.16172099113464	pulse	1	t		69.0	2.5	/experiments/knapen_AOT/AOT_stimuli/rescaled_final/1546_rv.mp4	0.0	320.76539397239685	
71	305.47888827323914	fix_post	2		12	69.0	2.5	/experiments/knapen_AOT/AOT_stimuli/rescaled_final/1546_rv.mp4	0.0	322.08256125450134	0.1000373363494873
72	305.5789256095886	fix_pre	0		120	70.0	2.5	blank	1.0	322.18259859085083	1.000192403793335
72	305.7625472545624	pulse	0	t		70.0	2.5	blank	1.0	322.3662202358246	
72	306.57911801338196	movie	1		300	70.0	2.5	blank	1.0	323.18279099464417	2.5003268718719482
72	307.3627784252167	pulse	1	t		70.0	2.5	blank	1.0	323.9664514064789	
72	308.96301555633545	pulse	1	t		70.0	2.5	blank	1.0	325.56668853759766	
72	309.0794448852539	fix_post	2		12	70.0	2.5	blank	1.0	325.6831178665161	0.10003304481506348
73	309.17947793006897	fix_pre	0		120	71.0	2.5	/experiments/knapen_AOT/AOT_stimuli/rescaled_final/1331_fw.mp4	0.0	325.7831509113312	1.008500099182129
73	310.1879780292511	movie	1		288	71.0	2.5	/experiments/knapen_AOT/AOT_stimuli/rescaled_final/1331_fw.mp4	0.0	326.7916510105133	2.492006540298462
73	310.5616159439087	pulse	1	t		71.0	2.5	/experiments/knapen_AOT/AOT_stimuli/rescaled_final/1331_fw.mp4	0.0	327.1652889251709	
73	312.1614899635315	pulse	1	t		71.0	2.5	/experiments/knapen_AOT/AOT_stimuli/rescaled_final/1331_fw.mp4	0.0	328.7651629447937	
73	312.67998456954956	fix_post	2		12	71.0	2.5	/experiments/knapen_AOT/AOT_stimuli/rescaled_final/1331_fw.mp4	0.0	329.28365755081177	0.10005807876586914
74	312.78004264831543	fix_pre	0		118	72.0	2.5	/experiments/knapen_AOT/AOT_stimuli/rescaled_final/1712_rv.mp4	0.0	329.38371562957764	0.9918050765991211
74	313.75594830513	pulse	0	t		72.0	2.5	/experiments/knapen_AOT/AOT_stimuli/rescaled_final/1712_rv.mp4	0.0	330.3596212863922	
74	313.77184772491455	movie	1		274	72.0	2.5	/experiments/knapen_AOT/AOT_stimuli/rescaled_final/1712_rv.mp4	0.0	330.37552070617676	2.5003774166107178
74	315.35576844215393	pulse	1	t		72.0	2.5	/experiments/knapen_AOT/AOT_stimuli/rescaled_final/1712_rv.mp4	0.0	331.95944142341614	
74	316.27222514152527	fix_post	2		12	72.0	2.5	/experiments/knapen_AOT/AOT_stimuli/rescaled_final/1712_rv.mp4	0.0	332.8758981227875	0.10000300407409668
75	316.37222814559937	fix_pre	0		120	73.0	2.5	/experiments/knapen_AOT/AOT_stimuli/rescaled_final/0750_fw.mp4	0.0	332.9759011268616	1.0085008144378662
75	316.95591282844543	pulse	0	t		73.0	2.5	/experiments/knapen_AOT/AOT_stimuli/rescaled_final/0750_fw.mp4	0.0	333.55958580970764	
75	317.38072896003723	movie	1		270	73.0	2.5	/experiments/knapen_AOT/AOT_stimuli/rescaled_final/0750_fw.mp4	0.0	333.98440194129944	2.4920339584350586
75	318.55606031417847	pulse	1	t		73.0	2.5	/experiments/knapen_AOT/AOT_stimuli/rescaled_final/0750_fw.mp4	0.0	335.1597332954407	
75	319.8727629184723	fix_post	2		12	73.0	2.5	/experiments/knapen_AOT/AOT_stimuli/rescaled_final/0750_fw.mp4	0.0	336.4764358997345	0.10016584396362305
76	319.9729287624359	fix_pre	0		120	74.0	2.5	/experiments/knapen_AOT/AOT_stimuli/rescaled_final/1879_rv.mp4	0.0	336.5766017436981	1.0083374977111816
76	320.156653881073	pulse	0	t		74.0	2.5	/experiments/knapen_AOT/AOT_stimuli/rescaled_final/1879_rv.mp4	0.0	336.7603268623352	
76	320.9812662601471	movie	1		277	74.0	2.5	/experiments/knapen_AOT/AOT_stimuli/rescaled_final/1879_rv.mp4	0.0	337.5849392414093	2.492021083831787
76	321.756795167923	pulse	1	t		74.0	2.5	/experiments/knapen_AOT/AOT_stimuli/rescaled_final/1879_rv.mp4	0.0	338.3604681491852	
76	323.3567841053009	pulse	1	t		74.0	2.5	/experiments/knapen_AOT/AOT_stimuli/rescaled_final/1879_rv.mp4	0.0	339.9604570865631	
76	323.4732873439789	fix_post	2		12	74.0	2.5	/experiments/knapen_AOT/AOT_stimuli/rescaled_final/1879_rv.mp4	0.0	340.0769603252411	0.10000181198120117
77	323.5732891559601	fix_pre	0		120	75.0	2.5	/experiments/knapen_AOT/AOT_stimuli/rescaled_final/1926_rv.mp4	0.0	340.1769621372223	1.00852370262146
77	324.58181285858154	movie	1		271	75.0	2.5	/experiments/knapen_AOT/AOT_stimuli/rescaled_final/1926_rv.mp4	0.0	341.18548583984375	2.492013454437256
77	324.9570746421814	pulse	1	t		75.0	2.5	/experiments/knapen_AOT/AOT_stimuli/rescaled_final/1926_rv.mp4	0.0	341.5607476234436	
77	326.55730414390564	pulse	1	t		75.0	2.5	/experiments/knapen_AOT/AOT_stimuli/rescaled_final/1926_rv.mp4	0.0	343.16097712516785	
77	327.0738263130188	fix_post	2		12	75.0	2.5	/experiments/knapen_AOT/AOT_stimuli/rescaled_final/1926_rv.mp4	0.0	343.677499294281	0.10007786750793457
78	327.17390418052673	fix_pre	0		119	76.0	2.5	blank	1.0	343.77757716178894	0.9917140007019043
78	328.15749740600586	pulse	0	t		76.0	2.5	blank	1.0	344.76117038726807	
78	328.16561818122864	movie	1		301	76.0	2.5	blank	1.0	344.76929116249084	2.508742570877075
78	329.7577118873596	pulse	1	t		76.0	2.5	blank	1.0	346.3613848686218	
78	330.6743607521057	fix_post	2		12	76.0	2.5	blank	1.0	347.2780337333679	0.10004353523254395
79	330.77440428733826	fix_pre	0		120	77.0	2.5	/experiments/knapen_AOT/AOT_stimuli/rescaled_final/1058_fw.mp4	0.0	347.37807726860046	1.0084788799285889
79	331.3580129146576	pulse	0	t		77.0	2.5	/experiments/knapen_AOT/AOT_stimuli/rescaled_final/1058_fw.mp4	0.0	347.9616858959198	
79	331.78288316726685	movie	1		280	77.0	2.5	/experiments/knapen_AOT/AOT_stimuli/rescaled_final/1058_fw.mp4	0.0	348.38655614852905	2.492006301879883
79	332.95795702934265	pulse	1	t		77.0	2.5	/experiments/knapen_AOT/AOT_stimuli/rescaled_final/1058_fw.mp4	0.0	349.56163001060486	
79	334.27488946914673	fix_post	2		12	77.0	2.5	/experiments/knapen_AOT/AOT_stimuli/rescaled_final/1058_fw.mp4	0.0	350.87856245040894	0.1000521183013916
80	334.3749415874481	fix_pre	0		120	78.0	2.5	/experiments/knapen_AOT/AOT_stimuli/rescaled_final/0339_rv.mp4	0.0	350.9786145687103	1.0084795951843262
80	334.55846977233887	pulse	0	t		78.0	2.5	/experiments/knapen_AOT/AOT_stimuli/rescaled_final/0339_rv.mp4	0.0	351.1621427536011	
80	335.38342118263245	movie	1		269	78.0	2.5	/experiments/knapen_AOT/AOT_stimuli/rescaled_final/0339_rv.mp4	0.0	351.98709416389465	2.4920637607574463
80	336.15762162208557	pulse	1	t		78.0	2.5	/experiments/knapen_AOT/AOT_stimuli/rescaled_final/0339_rv.mp4	0.0	352.7612946033478	
80	337.7570769786835	pulse	1	t		78.0	2.5	/experiments/knapen_AOT/AOT_stimuli/rescaled_final/0339_rv.mp4	0.0	354.3607499599457	
80	337.8754849433899	fix_post	2		12	78.0	2.5	/experiments/knapen_AOT/AOT_stimuli/rescaled_final/0339_rv.mp4	0.0	354.4791579246521	0.09999370574951172
81	337.9754786491394	fix_pre	0		120	79.0	2.5	/experiments/knapen_AOT/AOT_stimuli/rescaled_final/0327_rv.mp4	0.0	354.5791516304016	1.0085127353668213
81	338.9839913845062	movie	1		272	79.0	2.5	/experiments/knapen_AOT/AOT_stimuli/rescaled_final/0327_rv.mp4	0.0	355.58766436576843	2.4919803142547607
81	339.35930728912354	pulse	1	t		79.0	2.5	/experiments/knapen_AOT/AOT_stimuli/rescaled_final/0327_rv.mp4	0.0	355.96298027038574	
81	340.95738673210144	pulse	1	t		79.0	2.5	/experiments/knapen_AOT/AOT_stimuli/rescaled_final/0327_rv.mp4	0.0	357.56105971336365	
81	341.475971698761	fix_post	2		12	79.0	2.5	/experiments/knapen_AOT/AOT_stimuli/rescaled_final/0327_rv.mp4	0.0	358.0796446800232	0.10003900527954102
82	341.5760107040405	fix_pre	0		119	80.0	2.5	/experiments/knapen_AOT/AOT_stimuli/rescaled_final/0573_fw.mp4	0.0	358.17968368530273	1.0001752376556396
82	342.5602083206177	pulse	0	t		80.0	2.5	/experiments/knapen_AOT/AOT_stimuli/rescaled_final/0573_fw.mp4	0.0	359.1638813018799	
82	342.57618594169617	movie	1		282	80.0	2.5	/experiments/knapen_AOT/AOT_stimuli/rescaled_final/0573_fw.mp4	0.0	359.1798589229584	2.500440835952759
82	344.1606206893921	pulse	1	t		80.0	2.5	/experiments/knapen_AOT/AOT_stimuli/rescaled_final/0573_fw.mp4	0.0	360.7642936706543	
82	345.0766267776489	fix_post	2		12	80.0	2.5	/experiments/knapen_AOT/AOT_stimuli/rescaled_final/0573_fw.mp4	0.0	361.68029975891113	0.09993505477905273
83	345.176561832428	fix_pre	0		120	81.0	2.5	/experiments/knapen_AOT/AOT_stimuli/rescaled_final/2158_rv.mp4	0.0	361.7802348136902	1.0084829330444336
83	345.7601249217987	pulse	0	t		81.0	2.5	/experiments/knapen_AOT/AOT_stimuli/rescaled_final/2158_rv.mp4	0.0	362.3637979030609	
83	346.1850447654724	movie	1		272	81.0	2.5	/experiments/knapen_AOT/AOT_stimuli/rescaled_final/2158_rv.mp4	0.0	362.7887177467346	2.4921586513519287
83	347.35844373703003	pulse	1	t		81.0	2.5	/experiments/knapen_AOT/AOT_stimuli/rescaled_final/2158_rv.mp4	0.0	363.96211671829224	
83	348.67720341682434	fix_post	2		12	81.0	2.5	/experiments/knapen_AOT/AOT_stimuli/rescaled_final/2158_rv.mp4	0.0	365.28087639808655	0.09988975524902344
84	348.77709317207336	fix_pre	0		120	82.0	2.5	blank	1.0	365.38076615333557	1.0001368522644043
84	348.96063804626465	pulse	0	t		82.0	2.5	blank	1.0	365.56431102752686	
84	349.77723002433777	movie	1		300	82.0	2.5	blank	1.0	366.3809030056	2.5003533363342285
84	350.5609254837036	pulse	1	t		82.0	2.5	blank	1.0	367.1645984649658	
84	352.1611065864563	pulse	1	t		82.0	2.5	blank	1.0	368.7647795677185	
84	352.277583360672	fix_post	2		12	82.0	2.5	blank	1.0	368.8812563419342	0.10002660751342773
85	352.3776099681854	fix_pre	0		120	83.0	2.5	/experiments/knapen_AOT/AOT_stimuli/rescaled_final/1712_fw.mp4	0.0	368.98128294944763	1.0085062980651855
85	353.3861162662506	movie	1		273	83.0	2.5	/experiments/knapen_AOT/AOT_stimuli/rescaled_final/1712_fw.mp4	0.0	369.9897892475128	2.4920313358306885
85	353.75982117652893	pulse	1	t		83.0	2.5	/experiments/knapen_AOT/AOT_stimuli/rescaled_final/1712_fw.mp4	0.0	370.36349415779114	
85	355.35980129241943	pulse	1	t		83.0	2.5	/experiments/knapen_AOT/AOT_stimuli/rescaled_final/1712_fw.mp4	0.0	371.96347427368164	
85	355.8781476020813	fix_post	2		12	83.0	2.5	/experiments/knapen_AOT/AOT_stimuli/rescaled_final/1712_fw.mp4	0.0	372.4818205833435	0.10003280639648438
87	355.9781804084778	stim	0		1716					372.58185338974	14.302129983901978
87	356.9620063304901	pulse	0	t						373.5656793117523	
87	358.5622251033783	pulse	0	t						375.1658980846405	
87	360.1623501777649	pulse	0	t						376.7660231590271	
87	361.76264786720276	pulse	0	t						378.36632084846497	
87	363.362911939621	pulse	0	t						379.9665849208832	
87	364.96305418014526	pulse	0	t						381.56672716140747	
87	366.56342816352844	pulse	0	t						383.16710114479065	
87	368.16356921195984	pulse	0	t						384.76724219322205	
87	369.7559881210327	pulse	0	t						386.3596611022949	
