trial_nr	onset	event_type	phase	response	nr_frames	movie_index	movie_duration	movie_file	blank	onset_abs	duration
0	0.1583700180053711	stim	0		689					69.17586088180542	5.741285085678101
0	5.884629011154175	response	0	space						74.90211987495422	
1	5.899655103683472	stim	0		4183					74.91714596748352	34.858566999435425
1	40.75392198562622	pulse	0	t						109.77141284942627	
1	40.7582221031189	stim	1		1717					109.77571296691895	14.308223962783813
1	42.349982023239136	pulse	1	t						111.36747288703918	
1	43.949856996536255	pulse	1	t						112.9673478603363	
1	45.54986500740051	pulse	1	t						114.56735587120056	
1	47.14996695518494	pulse	1	t						116.16745781898499	
1	48.74997305870056	pulse	1	t						117.76746392250061	
1	50.34989404678345	pulse	1	t						119.3673849105835	
1	51.94989204406738	pulse	1	t						120.96738290786743	
1	53.54991912841797	pulse	1	t						122.56740999221802	
2	55.06644606590271	fix_pre	0		11	0.0	2.5	/experiments/aot/R_S_yt-fQgLKiz2tuM_14.mp4	0.0	124.08393692970276	0.09162688255310059
2	55.1499400138855	pulse	0	t		0.0	2.5	/experiments/aot/R_S_yt-fQgLKiz2tuM_14.mp4	0.0	124.16743087768555	
2	55.15807294845581	movie	1		298	0.0	2.5	/experiments/aot/R_S_yt-fQgLKiz2tuM_14.mp4	0.0	124.17556381225586	2.508380174636841
2	56.74571895599365	pulse	1	t		0.0	2.5	/experiments/aot/R_S_yt-fQgLKiz2tuM_14.mp4	0.0	125.7632098197937	
2	57.66645312309265	fix_post	2		12	0.0	2.5	/experiments/aot/R_S_yt-fQgLKiz2tuM_14.mp4	0.0	126.6839439868927	0.10001993179321289
3	57.766473054885864	fix_pre	0		120	1.0	2.5	/experiments/aot/S_PA_A004_C003_SDR_20190719_SDR_2K_AVC.mp4	0.0	126.78396391868591	0.9999260902404785
3	58.35000514984131	pulse	0	t		1.0	2.5	/experiments/aot/S_PA_A004_C003_SDR_20190719_SDR_2K_AVC.mp4	0.0	127.36749601364136	
3	58.76639914512634	movie	1		166	1.0	2.5	/experiments/aot/S_PA_A004_C003_SDR_20190719_SDR_2K_AVC.mp4	0.0	127.78389000892639	2.500138998031616
3	59.94946503639221	pulse	1	t		1.0	2.5	/experiments/aot/S_PA_A004_C003_SDR_20190719_SDR_2K_AVC.mp4	0.0	128.96695590019226	
3	61.26653814315796	fix_post	2		12	1.0	2.5	/experiments/aot/S_PA_A004_C003_SDR_20190719_SDR_2K_AVC.mp4	0.0	130.284029006958	0.09994888305664062
4	61.3664870262146	fix_pre	0		120	2.0	2.5	/experiments/aot/S_yt-sTBOjPxix5c_1072.mp4	0.0	130.38397789001465	0.9997439384460449
4	61.55006003379822	pulse	0	t		2.0	2.5	/experiments/aot/S_yt-sTBOjPxix5c_1072.mp4	0.0	130.56755089759827	
4	62.366230964660645	movie	1		299	2.0	2.5	/experiments/aot/S_yt-sTBOjPxix5c_1072.mp4	0.0	131.3837218284607	2.5001490116119385
4	63.149786949157715	pulse	1	t		2.0	2.5	/experiments/aot/S_yt-sTBOjPxix5c_1072.mp4	0.0	132.16727781295776	
4	64.7441201210022	pulse	1	t		2.0	2.5	/experiments/aot/S_yt-sTBOjPxix5c_1072.mp4	0.0	133.76161098480225	
4	64.86637997627258	fix_post	2		12	2.0	2.5	/experiments/aot/S_yt-sTBOjPxix5c_1072.mp4	0.0	133.88387084007263	0.1000070571899414
5	64.96638703346252	fix_pre	0		120	3.0	2.5	/experiments/aot/R_S_yt-kkbtZP78JxQ_96.mp4	0.0	133.98387789726257	0.9999620914459229
5	65.96634912490845	movie	1		300	3.0	2.5	/experiments/aot/R_S_yt-kkbtZP78JxQ_96.mp4	0.0	134.9838399887085	2.5000100135803223
5	66.34981298446655	pulse	1	t		3.0	2.5	/experiments/aot/R_S_yt-kkbtZP78JxQ_96.mp4	0.0	135.3673038482666	
5	67.94974708557129	pulse	1	t		3.0	2.5	/experiments/aot/R_S_yt-kkbtZP78JxQ_96.mp4	0.0	136.96723794937134	
5	68.46635913848877	fix_post	2		12	3.0	2.5	/experiments/aot/R_S_yt-kkbtZP78JxQ_96.mp4	0.0	137.48385000228882	0.09994888305664062
6	68.56630802154541	fix_pre	0		119	4.0	2.5	/experiments/aot/R_S_yt-hvuC_2YXsTQ_73.mp4	0.0	137.58379888534546	0.9916729927062988
6	69.54985213279724	pulse	0	t		4.0	2.5	/experiments/aot/R_S_yt-hvuC_2YXsTQ_73.mp4	0.0	138.5673429965973	
6	69.55798101425171	movie	1		301	4.0	2.5	/experiments/aot/R_S_yt-hvuC_2YXsTQ_73.mp4	0.0	138.57547187805176	2.5083260536193848
6	71.14625191688538	pulse	1	t		4.0	2.5	/experiments/aot/R_S_yt-hvuC_2YXsTQ_73.mp4	0.0	140.16374278068542	
6	72.0663070678711	fix_post	2		12	4.0	2.5	/experiments/aot/R_S_yt-hvuC_2YXsTQ_73.mp4	0.0	141.08379793167114	0.09997200965881348
7	72.16627907752991	fix_pre	0		120	5.0	2.5	/experiments/aot/S_yt-2V2tq9-O_Nc_1669.mp4	0.0	141.18376994132996	1.0000028610229492
7	72.74985814094543	pulse	0	t		5.0	2.5	/experiments/aot/S_yt-2V2tq9-O_Nc_1669.mp4	0.0	141.76734900474548	
7	73.16628193855286	movie	1		300	5.0	2.5	/experiments/aot/S_yt-2V2tq9-O_Nc_1669.mp4	0.0	142.1837728023529	2.5000410079956055
7	74.34977293014526	pulse	1	t		5.0	2.5	/experiments/aot/S_yt-2V2tq9-O_Nc_1669.mp4	0.0	143.3672637939453	
7	75.66632294654846	fix_post	2		12	5.0	2.5	/experiments/aot/S_yt-2V2tq9-O_Nc_1669.mp4	0.0	144.6838138103485	0.10001611709594727
8	75.76633906364441	fix_pre	0		120	6.0	2.5	blank	1.0	144.78382992744446	0.999971866607666
8	75.94986605644226	pulse	0	t		6.0	2.5	blank	1.0	144.9673569202423	
8	76.76631093025208	movie	1		300	6.0	2.5	blank	1.0	145.78380179405212	2.5000112056732178
8	77.54984998703003	pulse	1	t		6.0	2.5	blank	1.0	146.56734085083008	
8	79.14982008934021	pulse	1	t		6.0	2.5	blank	1.0	148.16731095314026	
8	79.2663221359253	fix_post	2		12	6.0	2.5	blank	1.0	148.28381299972534	0.09992289543151855
9	79.36624503135681	fix_pre	0		120	7.0	2.5	/experiments/aot/R_S_b3TCugtX0h0_108.mp4	0.0	148.38373589515686	1.0000340938568115
9	80.36627912521362	movie	1		300	7.0	2.5	/experiments/aot/R_S_b3TCugtX0h0_108.mp4	0.0	149.38376998901367	2.500088930130005
9	80.74982714653015	pulse	1	t		7.0	2.5	/experiments/aot/R_S_b3TCugtX0h0_108.mp4	0.0	149.7673180103302	
9	82.34974098205566	pulse	1	t		7.0	2.5	/experiments/aot/R_S_b3TCugtX0h0_108.mp4	0.0	151.3672318458557	
9	82.86636805534363	fix_post	2		12	7.0	2.5	/experiments/aot/R_S_b3TCugtX0h0_108.mp4	0.0	151.88385891914368	0.0998690128326416
10	82.96623706817627	fix_pre	0		119	8.0	2.5	/experiments/aot/S_yt-GjFQxAklviE_25.mp4	0.0	151.98372793197632	0.9916989803314209
10	83.94978094100952	pulse	0	t		8.0	2.5	/experiments/aot/S_yt-GjFQxAklviE_25.mp4	0.0	152.96727180480957	
10	83.95793604850769	movie	1		301	8.0	2.5	/experiments/aot/S_yt-GjFQxAklviE_25.mp4	0.0	152.97542691230774	2.508375883102417
10	85.54563808441162	pulse	1	t		8.0	2.5	/experiments/aot/S_yt-GjFQxAklviE_25.mp4	0.0	154.56312894821167	
10	86.46631193161011	fix_post	2		12	8.0	2.5	/experiments/aot/S_yt-GjFQxAklviE_25.mp4	0.0	155.48380279541016	0.0999441146850586
11	86.56625604629517	fix_pre	0		120	9.0	2.5	/experiments/aot/R_S_yt-G_eNNzNB-hU_1.mp4	0.0	155.58374691009521	1.000114917755127
11	87.14974594116211	pulse	0	t		9.0	2.5	/experiments/aot/R_S_yt-G_eNNzNB-hU_1.mp4	0.0	156.16723680496216	
11	87.5663709640503	movie	1		300	9.0	2.5	/experiments/aot/R_S_yt-G_eNNzNB-hU_1.mp4	0.0	156.58386182785034	2.4997851848602295
11	88.749764919281	pulse	1	t		9.0	2.5	/experiments/aot/R_S_yt-G_eNNzNB-hU_1.mp4	0.0	157.76725578308105	
11	90.06615614891052	fix_post	2		12	9.0	2.5	/experiments/aot/R_S_yt-G_eNNzNB-hU_1.mp4	0.0	159.08364701271057	0.10014581680297852
12	90.1663019657135	fix_pre	0		120	10.0	2.5	/experiments/aot/R_S_yt-r7brAHgxZSU_248.mp4	0.0	159.18379282951355	0.9999551773071289
12	90.34973812103271	pulse	0	t		10.0	2.5	/experiments/aot/R_S_yt-r7brAHgxZSU_248.mp4	0.0	159.36722898483276	
12	91.16625714302063	movie	1		300	10.0	2.5	/experiments/aot/R_S_yt-r7brAHgxZSU_248.mp4	0.0	160.18374800682068	2.5000429153442383
12	91.94973397254944	pulse	1	t		10.0	2.5	/experiments/aot/R_S_yt-r7brAHgxZSU_248.mp4	0.0	160.9672248363495	
12	93.54979395866394	pulse	1	t		10.0	2.5	/experiments/aot/R_S_yt-r7brAHgxZSU_248.mp4	0.0	162.567284822464	
12	93.66630005836487	fix_post	2		12	10.0	2.5	/experiments/aot/R_S_yt-r7brAHgxZSU_248.mp4	0.0	162.68379092216492	0.09990501403808594
13	93.76620507240295	fix_pre	0		120	11.0	2.5	/experiments/aot/S_ILSVRC2015_train_00762000.mp4	0.0	162.783695936203	1.0000238418579102
13	94.76622891426086	movie	1		299	11.0	2.5	/experiments/aot/S_ILSVRC2015_train_00762000.mp4	0.0	163.7837197780609	2.4999501705169678
13	95.14968204498291	pulse	1	t		11.0	2.5	/experiments/aot/S_ILSVRC2015_train_00762000.mp4	0.0	164.16717290878296	
13	96.74969291687012	pulse	1	t		11.0	2.5	/experiments/aot/S_ILSVRC2015_train_00762000.mp4	0.0	165.76718378067017	
13	97.26617908477783	fix_post	2		12	11.0	2.5	/experiments/aot/S_ILSVRC2015_train_00762000.mp4	0.0	166.28366994857788	0.10007286071777344
14	97.3662519454956	fix_pre	0		119	12.0	2.5	/experiments/aot/R_S_wc-ujHd_fPVcSlX_10.mp4	0.0	166.38374280929565	0.9916551113128662
14	98.3497109413147	pulse	0	t		12.0	2.5	/experiments/aot/R_S_wc-ujHd_fPVcSlX_10.mp4	0.0	167.36720180511475	
14	98.35790705680847	movie	1		162	12.0	2.5	/experiments/aot/R_S_wc-ujHd_fPVcSlX_10.mp4	0.0	167.37539792060852	2.5084609985351562
14	99.94978094100952	pulse	1	t		12.0	2.5	/experiments/aot/R_S_wc-ujHd_fPVcSlX_10.mp4	0.0	168.96727180480957	
14	100.86636805534363	fix_post	2		12	12.0	2.5	/experiments/aot/R_S_wc-ujHd_fPVcSlX_10.mp4	0.0	169.88385891914368	0.09990406036376953
15	100.9662721157074	fix_pre	0		120	13.0	2.5	blank	1.0	169.98376297950745	0.9999978542327881
15	101.54970812797546	pulse	0	t		13.0	2.5	blank	1.0	170.5671989917755	
15	101.96626996994019	movie	1		300	13.0	2.5	blank	1.0	170.98376083374023	2.5000481605529785
15	103.14986109733582	pulse	1	t		13.0	2.5	blank	1.0	172.16735196113586	
15	104.46631813049316	fix_post	2		12	13.0	2.5	blank	1.0	173.4838089942932	0.09982585906982422
16	104.56614398956299	fix_pre	0		120	14.0	2.5	/experiments/aot/S_video_inspire_texas_austin_oct2019_evening_00085.1080-h264.mp4	0.0	173.58363485336304	1.0001070499420166
16	104.74968099594116	pulse	0	t		14.0	2.5	/experiments/aot/S_video_inspire_texas_austin_oct2019_evening_00085.1080-h264.mp4	0.0	173.7671718597412	
16	105.566251039505	movie	1		165	14.0	2.5	/experiments/aot/S_video_inspire_texas_austin_oct2019_evening_00085.1080-h264.mp4	0.0	174.58374190330505	2.4999120235443115
16	106.34978199005127	pulse	1	t		14.0	2.5	/experiments/aot/S_video_inspire_texas_austin_oct2019_evening_00085.1080-h264.mp4	0.0	175.36727285385132	
16	107.94973492622375	pulse	1	t		14.0	2.5	/experiments/aot/S_video_inspire_texas_austin_oct2019_evening_00085.1080-h264.mp4	0.0	176.9672257900238	
16	108.06616306304932	fix_post	2		12	14.0	2.5	/experiments/aot/S_video_inspire_texas_austin_oct2019_evening_00085.1080-h264.mp4	0.0	177.08365392684937	0.09995603561401367
17	108.16611909866333	fix_pre	0		120	15.0	2.5	/experiments/aot/S_yt--I4Ggi6-QOE_23.mp4	0.0	177.18360996246338	1.0001230239868164
17	109.16624212265015	movie	1		300	15.0	2.5	/experiments/aot/S_yt--I4Ggi6-QOE_23.mp4	0.0	178.1837329864502	2.4999518394470215
17	109.54967403411865	pulse	1	t		15.0	2.5	/experiments/aot/S_yt--I4Ggi6-QOE_23.mp4	0.0	178.5671648979187	
17	111.14954710006714	pulse	1	t		15.0	2.5	/experiments/aot/S_yt--I4Ggi6-QOE_23.mp4	0.0	180.1670379638672	
17	111.66619396209717	fix_post	2		12	15.0	2.5	/experiments/aot/S_yt--I4Ggi6-QOE_23.mp4	0.0	180.68368482589722	0.09997105598449707
18	111.76616501808167	fix_pre	0		119	16.0	2.5	/experiments/aot/S_yt-hyZEDFkh49w_196.mp4	0.0	180.7836558818817	0.9916720390319824
18	112.7496919631958	pulse	0	t		16.0	2.5	/experiments/aot/S_yt-hyZEDFkh49w_196.mp4	0.0	181.76718282699585	
18	112.75783705711365	movie	1		301	16.0	2.5	/experiments/aot/S_yt-hyZEDFkh49w_196.mp4	0.0	181.7753279209137	2.508316993713379
18	114.34564208984375	pulse	1	t		16.0	2.5	/experiments/aot/S_yt-hyZEDFkh49w_196.mp4	0.0	183.3631329536438	
18	115.26615405082703	fix_post	2		12	16.0	2.5	/experiments/aot/S_yt-hyZEDFkh49w_196.mp4	0.0	184.28364491462708	0.10010099411010742
19	115.36625504493713	fix_pre	0		120	17.0	2.5	/experiments/aot/R_S_yt-06XMUn9DTKc_35.mp4	0.0	184.38374590873718	0.9994440078735352
19	115.9492621421814	pulse	0	t		17.0	2.5	/experiments/aot/R_S_yt-06XMUn9DTKc_35.mp4	0.0	184.96675300598145	
19	116.36569905281067	movie	1		300	17.0	2.5	/experiments/aot/R_S_yt-06XMUn9DTKc_35.mp4	0.0	185.38318991661072	2.5004608631134033
19	117.54937314987183	pulse	1	t		17.0	2.5	/experiments/aot/R_S_yt-06XMUn9DTKc_35.mp4	0.0	186.56686401367188	
19	118.86615991592407	fix_post	2		12	17.0	2.5	/experiments/aot/R_S_yt-06XMUn9DTKc_35.mp4	0.0	187.88365077972412	0.10001707077026367
20	118.96617698669434	fix_pre	0		120	18.0	2.5	/experiments/aot/S_yt-ycfVJyrFgB4_15.mp4	0.0	187.98366785049438	0.9999740123748779
20	119.14974808692932	pulse	0	t		18.0	2.5	/experiments/aot/S_yt-ycfVJyrFgB4_15.mp4	0.0	188.16723895072937	
20	119.96615099906921	movie	1		299	18.0	2.5	/experiments/aot/S_yt-ycfVJyrFgB4_15.mp4	0.0	188.98364186286926	2.499990940093994
20	120.74961614608765	pulse	1	t		18.0	2.5	/experiments/aot/S_yt-ycfVJyrFgB4_15.mp4	0.0	189.7671070098877	
20	122.34403109550476	pulse	1	t		18.0	2.5	/experiments/aot/S_yt-ycfVJyrFgB4_15.mp4	0.0	191.3615219593048	
20	122.46614193916321	fix_post	2		12	18.0	2.5	/experiments/aot/S_yt-ycfVJyrFgB4_15.mp4	0.0	191.48363280296326	0.09997010231018066
21	122.56611204147339	fix_pre	0		120	19.0	2.5	/experiments/aot/R_S_yt-4rwBpRuHg-c_1308.mp4	0.0	191.58360290527344	0.9999639987945557
21	123.56607604026794	movie	1		299	19.0	2.5	/experiments/aot/R_S_yt-4rwBpRuHg-c_1308.mp4	0.0	192.583566904068	2.500020980834961
21	123.9495279788971	pulse	1	t		19.0	2.5	/experiments/aot/R_S_yt-4rwBpRuHg-c_1308.mp4	0.0	192.96701884269714	
21	125.54959797859192	pulse	1	t		19.0	2.5	/experiments/aot/R_S_yt-4rwBpRuHg-c_1308.mp4	0.0	194.56708884239197	
21	126.0660970211029	fix_post	2		12	19.0	2.5	/experiments/aot/R_S_yt-4rwBpRuHg-c_1308.mp4	0.0	195.08358788490295	0.0999760627746582
22	126.16607308387756	fix_pre	0		119	20.0	2.5	blank	1.0	195.1835639476776	0.9916830062866211
22	127.14963603019714	pulse	0	t		20.0	2.5	blank	1.0	196.1671268939972	
22	127.15775609016418	movie	1		301	20.0	2.5	blank	1.0	196.17524695396423	2.5083980560302734
22	128.74956607818604	pulse	1	t		20.0	2.5	blank	1.0	197.76705694198608	
22	129.66615414619446	fix_post	2		12	20.0	2.5	blank	1.0	198.6836450099945	0.10011696815490723
23	129.76627111434937	fix_pre	0		120	21.0	2.5	/experiments/aot/S_yt-h8wy6x6oytA_25.mp4	0.0	198.7837619781494	0.9999058246612549
23	130.34962701797485	pulse	0	t		21.0	2.5	/experiments/aot/S_yt-h8wy6x6oytA_25.mp4	0.0	199.3671178817749	
23	130.76617693901062	movie	1		300	21.0	2.5	/experiments/aot/S_yt-h8wy6x6oytA_25.mp4	0.0	199.78366780281067	2.4999380111694336
23	131.94957399368286	pulse	1	t		21.0	2.5	/experiments/aot/S_yt-h8wy6x6oytA_25.mp4	0.0	200.9670648574829	
23	133.26611495018005	fix_post	2		12	21.0	2.5	/experiments/aot/S_yt-h8wy6x6oytA_25.mp4	0.0	202.2836058139801	0.09990501403808594
24	133.36601996421814	fix_pre	0		120	22.0	2.5	/experiments/aot/S_yt-6aqg1P9YqR8_38.mp4	0.0	202.3835108280182	1.0000619888305664
24	133.5495629310608	pulse	0	t		22.0	2.5	/experiments/aot/S_yt-6aqg1P9YqR8_38.mp4	0.0	202.56705379486084	
24	134.3660819530487	movie	1		300	22.0	2.5	/experiments/aot/S_yt-6aqg1P9YqR8_38.mp4	0.0	203.38357281684875	2.49991512298584
24	135.1496090888977	pulse	1	t		22.0	2.5	/experiments/aot/S_yt-6aqg1P9YqR8_38.mp4	0.0	204.16709995269775	
24	136.74954104423523	pulse	1	t		22.0	2.5	/experiments/aot/S_yt-6aqg1P9YqR8_38.mp4	0.0	205.76703190803528	
24	136.86599707603455	fix_post	2		12	22.0	2.5	/experiments/aot/S_yt-6aqg1P9YqR8_38.mp4	0.0	205.8834879398346	0.10003185272216797
25	136.9660289287567	fix_pre	0		120	23.0	2.5	/experiments/aot/R_S_pexels-diva-plavalaguna-6985395_1.mp4	0.0	205.98351979255676	1.0000522136688232
25	137.96608114242554	movie	1		163	23.0	2.5	/experiments/aot/R_S_pexels-diva-plavalaguna-6985395_1.mp4	0.0	206.9835720062256	2.5000548362731934
25	138.34962701797485	pulse	1	t		23.0	2.5	/experiments/aot/R_S_pexels-diva-plavalaguna-6985395_1.mp4	0.0	207.3671178817749	
25	139.94973611831665	pulse	1	t		23.0	2.5	/experiments/aot/R_S_pexels-diva-plavalaguna-6985395_1.mp4	0.0	208.9672269821167	
25	140.46613597869873	fix_post	2		12	23.0	2.5	/experiments/aot/R_S_pexels-diva-plavalaguna-6985395_1.mp4	0.0	209.48362684249878	0.09992098808288574
26	140.56605696678162	fix_pre	0		119	24.0	2.5	/experiments/aot/R_S_1y-EvnfGO9Y_70.mp4	0.0	209.58354783058167	0.9916660785675049
26	141.54956197738647	pulse	0	t		24.0	2.5	/experiments/aot/R_S_1y-EvnfGO9Y_70.mp4	0.0	210.56705284118652	
26	141.55772304534912	movie	1		301	24.0	2.5	/experiments/aot/R_S_1y-EvnfGO9Y_70.mp4	0.0	210.57521390914917	2.508291006088257
26	143.14624404907227	pulse	1	t		24.0	2.5	/experiments/aot/R_S_1y-EvnfGO9Y_70.mp4	0.0	212.16373491287231	
26	144.06601405143738	fix_post	2		12	24.0	2.5	/experiments/aot/R_S_1y-EvnfGO9Y_70.mp4	0.0	213.08350491523743	0.0999748706817627
27	144.16598892211914	fix_pre	0		120	25.0	2.5	/experiments/aot/R_S_video_inspire_california_big-sur_landscape_054.1080-h264.mp4	0.0	213.1834797859192	1.0000150203704834
27	144.74958896636963	pulse	0	t		25.0	2.5	/experiments/aot/R_S_video_inspire_california_big-sur_landscape_054.1080-h264.mp4	0.0	213.76707983016968	
27	145.16600394248962	movie	1		174	25.0	2.5	/experiments/aot/R_S_video_inspire_california_big-sur_landscape_054.1080-h264.mp4	0.0	214.18349480628967	2.5000929832458496
27	146.34961009025574	pulse	1	t		25.0	2.5	/experiments/aot/R_S_video_inspire_california_big-sur_landscape_054.1080-h264.mp4	0.0	215.3671009540558	
27	147.66609692573547	fix_post	2		12	25.0	2.5	/experiments/aot/R_S_video_inspire_california_big-sur_landscape_054.1080-h264.mp4	0.0	216.68358778953552	0.09987020492553711
28	147.765967130661	fix_pre	0		120	26.0	2.5	/experiments/aot/S_yt-hvuC_2YXsTQ_73.mp4	0.0	216.78345799446106	1.0000038146972656
28	147.94950413703918	pulse	0	t		26.0	2.5	/experiments/aot/S_yt-hvuC_2YXsTQ_73.mp4	0.0	216.96699500083923	
28	148.76597094535828	movie	1		300	26.0	2.5	/experiments/aot/S_yt-hvuC_2YXsTQ_73.mp4	0.0	217.78346180915833	2.500059127807617
28	149.54951310157776	pulse	1	t		26.0	2.5	/experiments/aot/S_yt-hvuC_2YXsTQ_73.mp4	0.0	218.5670039653778	
28	151.14948797225952	pulse	1	t		26.0	2.5	/experiments/aot/S_yt-hvuC_2YXsTQ_73.mp4	0.0	220.16697883605957	
28	151.2660300731659	fix_post	2		12	26.0	2.5	/experiments/aot/S_yt-hvuC_2YXsTQ_73.mp4	0.0	220.28352093696594	0.09992384910583496
29	151.36595392227173	fix_pre	0		120	27.0	2.5	/experiments/aot/S_yt-j3Sk8ZnAiEA_32.mp4	0.0	220.38344478607178	1.0000481605529785
29	152.3660020828247	movie	1		299	27.0	2.5	/experiments/aot/S_yt-j3Sk8ZnAiEA_32.mp4	0.0	221.38349294662476	2.500037908554077
29	152.74954295158386	pulse	1	t		27.0	2.5	/experiments/aot/S_yt-j3Sk8ZnAiEA_32.mp4	0.0	221.7670338153839	
29	154.34950494766235	pulse	1	t		27.0	2.5	/experiments/aot/S_yt-j3Sk8ZnAiEA_32.mp4	0.0	223.3669958114624	
29	154.86603999137878	fix_post	2		12	27.0	2.5	/experiments/aot/S_yt-j3Sk8ZnAiEA_32.mp4	0.0	223.88353085517883	0.1000051498413086
30	154.9660451412201	fix_pre	0		119	28.0	2.5	blank	1.0	223.98353600502014	0.9915318489074707
30	155.94953608512878	pulse	0	t		28.0	2.5	blank	1.0	224.96702694892883	
30	155.95757699012756	movie	1		301	28.0	2.5	blank	1.0	224.9750678539276	2.508513927459717
30	157.54961109161377	pulse	1	t		28.0	2.5	blank	1.0	226.56710195541382	
30	158.46609091758728	fix_post	2		12	28.0	2.5	blank	1.0	227.48358178138733	0.09989619255065918
31	158.56598711013794	fix_pre	0		120	29.0	2.5	/experiments/aot/R_S_yt-RO4mhuXBVrY_67.mp4	0.0	227.583477973938	1.0000879764556885
31	159.14949011802673	pulse	0	t		29.0	2.5	/experiments/aot/R_S_yt-RO4mhuXBVrY_67.mp4	0.0	228.16698098182678	
31	159.56607508659363	movie	1		300	29.0	2.5	/experiments/aot/R_S_yt-RO4mhuXBVrY_67.mp4	0.0	228.58356595039368	2.4999589920043945
31	160.74941611289978	pulse	1	t		29.0	2.5	/experiments/aot/R_S_yt-RO4mhuXBVrY_67.mp4	0.0	229.76690697669983	
31	162.06603407859802	fix_post	2		12	29.0	2.5	/experiments/aot/R_S_yt-RO4mhuXBVrY_67.mp4	0.0	231.08352494239807	0.09992003440856934
32	162.1659541130066	fix_pre	0		120	30.0	2.5	/experiments/aot/R_S_yt-_HuBzj8EPBc_62.mp4	0.0	231.18344497680664	1.0000250339508057
32	162.34951400756836	pulse	0	t		30.0	2.5	/experiments/aot/R_S_yt-_HuBzj8EPBc_62.mp4	0.0	231.3670048713684	
32	163.1659791469574	movie	1		300	30.0	2.5	/experiments/aot/R_S_yt-_HuBzj8EPBc_62.mp4	0.0	232.18347001075745	2.499943971633911
32	163.9493749141693	pulse	1	t		30.0	2.5	/experiments/aot/R_S_yt-_HuBzj8EPBc_62.mp4	0.0	232.96686577796936	
32	165.54942798614502	pulse	1	t		30.0	2.5	/experiments/aot/R_S_yt-_HuBzj8EPBc_62.mp4	0.0	234.56691884994507	
32	165.6659231185913	fix_post	2		12	30.0	2.5	/experiments/aot/R_S_yt-_HuBzj8EPBc_62.mp4	0.0	234.68341398239136	0.09999680519104004
33	165.76591992378235	fix_pre	0		120	31.0	2.5	/experiments/aot/R_S_ILnEDG_aP1A_35.mp4	0.0	234.7834107875824	0.999953031539917
33	166.76587295532227	movie	1		300	31.0	2.5	/experiments/aot/R_S_ILnEDG_aP1A_35.mp4	0.0	235.78336381912231	2.5001230239868164
33	167.14949893951416	pulse	1	t		31.0	2.5	/experiments/aot/R_S_ILnEDG_aP1A_35.mp4	0.0	236.1669898033142	
33	168.74956607818604	pulse	1	t		31.0	2.5	/experiments/aot/R_S_ILnEDG_aP1A_35.mp4	0.0	237.76705694198608	
33	169.26599597930908	fix_post	2		12	31.0	2.5	/experiments/aot/R_S_ILnEDG_aP1A_35.mp4	0.0	238.28348684310913	0.10003304481506348
34	169.36602902412415	fix_pre	0		119	32.0	2.5	/experiments/aot/R_S_yt-ThT8utBaywI_68.mp4	0.0	238.3835198879242	0.9916119575500488
34	170.34950804710388	pulse	0	t		32.0	2.5	/experiments/aot/R_S_yt-ThT8utBaywI_68.mp4	0.0	239.36699891090393	
34	170.3576409816742	movie	1		301	32.0	2.5	/experiments/aot/R_S_yt-ThT8utBaywI_68.mp4	0.0	239.37513184547424	2.508406162261963
34	171.9448139667511	pulse	1	t		32.0	2.5	/experiments/aot/R_S_yt-ThT8utBaywI_68.mp4	0.0	240.96230483055115	
34	172.86604714393616	fix_post	2		12	32.0	2.5	/experiments/aot/R_S_yt-ThT8utBaywI_68.mp4	0.0	241.8835380077362	0.09963393211364746
35	172.9656810760498	fix_pre	0		120	33.0	2.5	/experiments/aot/S_yt-F2x6e7e7cAE_70.mp4	0.0	241.98317193984985	1.0004990100860596
35	173.54958415031433	pulse	0	t		33.0	2.5	/experiments/aot/S_yt-F2x6e7e7cAE_70.mp4	0.0	242.56707501411438	
35	173.96618008613586	movie	1		299	33.0	2.5	/experiments/aot/S_yt-F2x6e7e7cAE_70.mp4	0.0	242.9836709499359	2.4997708797454834
35	175.14944195747375	pulse	1	t		33.0	2.5	/experiments/aot/S_yt-F2x6e7e7cAE_70.mp4	0.0	244.1669328212738	
35	176.46595096588135	fix_post	2		12	33.0	2.5	/experiments/aot/S_yt-F2x6e7e7cAE_70.mp4	0.0	245.4834418296814	0.09996294975280762
36	176.56591391563416	fix_pre	0		120	34.0	2.5	/experiments/aot/R_S_ILSVRC2015_train_00689000.mp4	0.0	245.5834047794342	1.0000522136688232
36	176.74941205978394	pulse	0	t		34.0	2.5	/experiments/aot/R_S_ILSVRC2015_train_00689000.mp4	0.0	245.76690292358398	
36	177.56596612930298	movie	1		299	34.0	2.5	/experiments/aot/R_S_ILSVRC2015_train_00689000.mp4	0.0	246.58345699310303	2.499905824661255
36	178.34943509101868	pulse	1	t		34.0	2.5	/experiments/aot/R_S_ILSVRC2015_train_00689000.mp4	0.0	247.36692595481873	
36	179.9495029449463	pulse	1	t		34.0	2.5	/experiments/aot/R_S_ILSVRC2015_train_00689000.mp4	0.0	248.96699380874634	
36	180.06587195396423	fix_post	2		12	34.0	2.5	/experiments/aot/R_S_ILSVRC2015_train_00689000.mp4	0.0	249.08336281776428	0.10001611709594727
37	180.16588807106018	fix_pre	0		120	35.0	2.5	blank	1.0	249.18337893486023	1.0000109672546387
37	181.16589903831482	movie	1		300	35.0	2.5	blank	1.0	250.18338990211487	2.4999399185180664
37	181.54939699172974	pulse	1	t		35.0	2.5	blank	1.0	250.56688785552979	
37	183.14941000938416	pulse	1	t		35.0	2.5	blank	1.0	252.1669008731842	
37	183.66583895683289	fix_post	2		12	35.0	2.5	blank	1.0	252.68332982063293	0.10002803802490234
38	183.7658669948578	fix_pre	0		119	36.0	2.5	/experiments/aot/S_PA_A004_C003_SDR_20190719_SDR_2K_AVC.mp4	0.0	252.78335785865784	0.9916560649871826
38	184.74935507774353	pulse	0	t		36.0	2.5	/experiments/aot/S_PA_A004_C003_SDR_20190719_SDR_2K_AVC.mp4	0.0	253.76684594154358	
38	184.75752305984497	movie	1		167	36.0	2.5	/experiments/aot/S_PA_A004_C003_SDR_20190719_SDR_2K_AVC.mp4	0.0	253.77501392364502	2.508380889892578
38	186.34980511665344	pulse	1	t		36.0	2.5	/experiments/aot/S_PA_A004_C003_SDR_20190719_SDR_2K_AVC.mp4	0.0	255.3672959804535	
38	187.26590394973755	fix_post	2		12	36.0	2.5	/experiments/aot/S_PA_A004_C003_SDR_20190719_SDR_2K_AVC.mp4	0.0	256.2833948135376	0.10000109672546387
39	187.365905046463	fix_pre	0		120	37.0	2.5	/experiments/aot/R_S_ILSVRC2015_train_00572001.mp4	0.0	256.38339591026306	1.000006914138794
39	187.94946599006653	pulse	0	t		37.0	2.5	/experiments/aot/R_S_ILSVRC2015_train_00572001.mp4	0.0	256.9669568538666	
39	188.3659119606018	movie	1		300	37.0	2.5	/experiments/aot/R_S_ILSVRC2015_train_00572001.mp4	0.0	257.38340282440186	2.4999899864196777
39	189.54928398132324	pulse	1	t		37.0	2.5	/experiments/aot/R_S_ILSVRC2015_train_00572001.mp4	0.0	258.5667748451233	
39	190.86590194702148	fix_post	2		11	37.0	2.5	/experiments/aot/R_S_ILSVRC2015_train_00572001.mp4	0.0	259.88339281082153	0.09996414184570312
40	190.9658660888672	fix_pre	0		120	38.0	2.5	/experiments/aot/S_yt-R9Iabv0XgOQ_80.mp4	0.0	259.98335695266724	0.9999659061431885
40	191.149405002594	pulse	0	t		38.0	2.5	/experiments/aot/S_yt-R9Iabv0XgOQ_80.mp4	0.0	260.16689586639404	
40	191.96583199501038	movie	1		300	38.0	2.5	/experiments/aot/S_yt-R9Iabv0XgOQ_80.mp4	0.0	260.9833228588104	2.500087022781372
40	192.74939608573914	pulse	1	t		38.0	2.5	/experiments/aot/S_yt-R9Iabv0XgOQ_80.mp4	0.0	261.7668869495392	
40	194.34937691688538	pulse	1	t		38.0	2.5	/experiments/aot/S_yt-R9Iabv0XgOQ_80.mp4	0.0	263.3668677806854	
40	194.46591901779175	fix_post	2		12	38.0	2.5	/experiments/aot/S_yt-R9Iabv0XgOQ_80.mp4	0.0	263.4834098815918	0.09994292259216309
41	194.5658619403839	fix_pre	0		120	39.0	2.5	/experiments/aot/S_ILSVRC2015_train_00425000.mp4	0.0	263.58335280418396	0.9999880790710449
41	195.56585001945496	movie	1		300	39.0	2.5	/experiments/aot/S_ILSVRC2015_train_00425000.mp4	0.0	264.583340883255	2.499994993209839
41	195.94933915138245	pulse	1	t		39.0	2.5	/experiments/aot/S_ILSVRC2015_train_00425000.mp4	0.0	264.9668300151825	
41	197.54933309555054	pulse	1	t		39.0	2.5	/experiments/aot/S_ILSVRC2015_train_00425000.mp4	0.0	266.5668239593506	
41	198.0658450126648	fix_post	2		12	39.0	2.5	/experiments/aot/S_ILSVRC2015_train_00425000.mp4	0.0	267.08333587646484	0.10000395774841309
42	198.1658489704132	fix_pre	0		119	40.0	2.5	/experiments/aot/S_yt-hyZEDFkh49w_196.mp4	0.0	267.18333983421326	0.9916410446166992
42	199.14939904212952	pulse	0	t		40.0	2.5	/experiments/aot/S_yt-hyZEDFkh49w_196.mp4	0.0	268.16688990592957	
42	199.1574900150299	movie	1		301	40.0	2.5	/experiments/aot/S_yt-hyZEDFkh49w_196.mp4	0.0	268.17498087882996	2.508384943008423
42	200.74547004699707	pulse	1	t		40.0	2.5	/experiments/aot/S_yt-hyZEDFkh49w_196.mp4	0.0	269.7629609107971	
42	201.66587495803833	fix_post	2		12	40.0	2.5	/experiments/aot/S_yt-hyZEDFkh49w_196.mp4	0.0	270.6833658218384	0.09989213943481445
43	201.76576709747314	fix_pre	0		120	41.0	2.5	/experiments/aot/R_S_yt-n_eO-7KedAE_21.mp4	0.0	270.7832579612732	1.0000419616699219
43	202.34940195083618	pulse	0	t		41.0	2.5	/experiments/aot/R_S_yt-n_eO-7KedAE_21.mp4	0.0	271.36689281463623	
43	202.76580905914307	movie	1		300	41.0	2.5	/experiments/aot/R_S_yt-n_eO-7KedAE_21.mp4	0.0	271.7832999229431	2.499962091445923
43	203.949294090271	pulse	1	t		41.0	2.5	/experiments/aot/R_S_yt-n_eO-7KedAE_21.mp4	0.0	272.96678495407104	
43	205.265771150589	fix_post	2		12	41.0	2.5	/experiments/aot/R_S_yt-n_eO-7KedAE_21.mp4	0.0	274.28326201438904	0.09999394416809082
44	205.36576509475708	fix_pre	0		120	42.0	2.5	blank	1.0	274.38325595855713	1.0001089572906494
44	205.54936695098877	pulse	0	t		42.0	2.5	blank	1.0	274.5668578147888	
44	206.36587405204773	movie	1		300	42.0	2.5	blank	1.0	275.3833649158478	2.4999520778656006
44	207.1493000984192	pulse	1	t		42.0	2.5	blank	1.0	276.16679096221924	
44	208.7493131160736	pulse	1	t		42.0	2.5	blank	1.0	277.76680397987366	
44	208.86582612991333	fix_post	2		12	42.0	2.5	blank	1.0	277.8833169937134	0.09993982315063477
45	208.96576595306396	fix_pre	0		120	43.0	2.5	/experiments/aot/S_pexels-diva-plavalaguna-6985395_1.mp4	0.0	277.983256816864	1.000040054321289
45	209.96580600738525	movie	1		165	43.0	2.5	/experiments/aot/S_pexels-diva-plavalaguna-6985395_1.mp4	0.0	278.9832968711853	2.4999959468841553
45	210.34930300712585	pulse	1	t		43.0	2.5	/experiments/aot/S_pexels-diva-plavalaguna-6985395_1.mp4	0.0	279.3667938709259	
45	211.94930410385132	pulse	1	t		43.0	2.5	/experiments/aot/S_pexels-diva-plavalaguna-6985395_1.mp4	0.0	280.96679496765137	
45	212.4658019542694	fix_post	2		12	43.0	2.5	/experiments/aot/S_pexels-diva-plavalaguna-6985395_1.mp4	0.0	281.48329281806946	0.09997916221618652
46	212.5657811164856	fix_pre	0		119	44.0	2.5	/experiments/aot/S_yt-fA0nOetbOJY_580.mp4	0.0	281.58327198028564	0.9916830062866211
46	213.54923701286316	pulse	0	t		44.0	2.5	/experiments/aot/S_yt-fA0nOetbOJY_580.mp4	0.0	282.5667278766632	
46	213.55746412277222	movie	1		301	44.0	2.5	/experiments/aot/S_yt-fA0nOetbOJY_580.mp4	0.0	282.57495498657227	2.5083489418029785
46	215.14538407325745	pulse	1	t		44.0	2.5	/experiments/aot/S_yt-fA0nOetbOJY_580.mp4	0.0	284.1628749370575	
46	216.0658130645752	fix_post	2		12	44.0	2.5	/experiments/aot/S_yt-fA0nOetbOJY_580.mp4	0.0	285.08330392837524	0.09993290901184082
47	216.16574597358704	fix_pre	0		120	45.0	2.5	/experiments/aot/R_S_flickr-claywakening-27928940166_2.mp4	0.0	285.1832368373871	1.000020980834961
47	216.74929904937744	pulse	0	t		45.0	2.5	/experiments/aot/R_S_flickr-claywakening-27928940166_2.mp4	0.0	285.7667899131775	
47	217.165766954422	movie	1		170	45.0	2.5	/experiments/aot/R_S_flickr-claywakening-27928940166_2.mp4	0.0	286.18325781822205	2.499986171722412
47	218.34929704666138	pulse	1	t		45.0	2.5	/experiments/aot/R_S_flickr-claywakening-27928940166_2.mp4	0.0	287.3667879104614	
47	219.6657531261444	fix_post	2		12	45.0	2.5	/experiments/aot/R_S_flickr-claywakening-27928940166_2.mp4	0.0	288.68324398994446	0.1000669002532959
48	219.7658200263977	fix_pre	0		120	46.0	2.5	/experiments/aot/S_yt-hZxbKZ1WCVg_24.mp4	0.0	288.78331089019775	0.9999411106109619
48	219.94919896125793	pulse	0	t		46.0	2.5	/experiments/aot/S_yt-hZxbKZ1WCVg_24.mp4	0.0	288.966689825058	
48	220.76576113700867	movie	1		300	46.0	2.5	/experiments/aot/S_yt-hZxbKZ1WCVg_24.mp4	0.0	289.7832520008087	2.500095844268799
48	221.54923605918884	pulse	1	t		46.0	2.5	/experiments/aot/S_yt-hZxbKZ1WCVg_24.mp4	0.0	290.5667269229889	
48	223.14924502372742	pulse	1	t		46.0	2.5	/experiments/aot/S_yt-hZxbKZ1WCVg_24.mp4	0.0	292.16673588752747	
48	223.26585698127747	fix_post	2		12	46.0	2.5	/experiments/aot/S_yt-hZxbKZ1WCVg_24.mp4	0.0	292.2833478450775	0.09993696212768555
49	223.36579394340515	fix_pre	0		120	47.0	2.5	/experiments/aot/R_S_Pexels_Videos_278654_1.mp4	0.0	292.3832848072052	0.9999501705169678
49	224.36574411392212	movie	1		164	47.0	2.5	/experiments/aot/R_S_Pexels_Videos_278654_1.mp4	0.0	293.38323497772217	2.5000758171081543
49	224.74924397468567	pulse	1	t		47.0	2.5	/experiments/aot/R_S_Pexels_Videos_278654_1.mp4	0.0	293.7667348384857	
49	226.34927010536194	pulse	1	t		47.0	2.5	/experiments/aot/R_S_Pexels_Videos_278654_1.mp4	0.0	295.366760969162	
49	226.86581993103027	fix_post	2		12	47.0	2.5	/experiments/aot/R_S_Pexels_Videos_278654_1.mp4	0.0	295.8833107948303	0.09995818138122559
50	226.9657781124115	fix_pre	0		119	48.0	2.5	/experiments/aot/S_yt-n_eO-7KedAE_21.mp4	0.0	295.98326897621155	0.9912538528442383
50	227.94877195358276	pulse	0	t		48.0	2.5	/experiments/aot/S_yt-n_eO-7KedAE_21.mp4	0.0	296.9662628173828	
50	227.95703196525574	movie	1		301	48.0	2.5	/experiments/aot/S_yt-n_eO-7KedAE_21.mp4	0.0	296.9745228290558	2.508664131164551
50	229.5452709197998	pulse	1	t		48.0	2.5	/experiments/aot/S_yt-n_eO-7KedAE_21.mp4	0.0	298.56276178359985	
50	230.4656960964203	fix_post	2		12	48.0	2.5	/experiments/aot/S_yt-n_eO-7KedAE_21.mp4	0.0	299.48318696022034	0.10004091262817383
51	230.56573700904846	fix_pre	0		120	49.0	2.5	blank	1.0	299.5832278728485	1.0000231266021729
51	231.14919114112854	pulse	0	t		49.0	2.5	blank	1.0	300.1666820049286	
51	231.56576013565063	movie	1		300	49.0	2.5	blank	1.0	300.5832509994507	2.4999449253082275
51	232.74918413162231	pulse	1	t		49.0	2.5	blank	1.0	301.76667499542236	
51	234.06570506095886	fix_post	2		12	49.0	2.5	blank	1.0	303.0831959247589	0.10001897811889648
52	234.16572403907776	fix_pre	0		120	50.0	2.5	/experiments/aot/S_yt-zgimmOcW5Mc_127.mp4	0.0	303.1832149028778	0.9999790191650391
52	234.34918403625488	pulse	0	t		50.0	2.5	/experiments/aot/S_yt-zgimmOcW5Mc_127.mp4	0.0	303.36667490005493	
52	235.1657030582428	movie	1		299	50.0	2.5	/experiments/aot/S_yt-zgimmOcW5Mc_127.mp4	0.0	304.18319392204285	2.500074863433838
52	235.94922995567322	pulse	1	t		50.0	2.5	/experiments/aot/S_yt-zgimmOcW5Mc_127.mp4	0.0	304.96672081947327	
52	237.54919695854187	pulse	1	t		50.0	2.5	/experiments/aot/S_yt-zgimmOcW5Mc_127.mp4	0.0	306.5666878223419	
52	237.66577792167664	fix_post	2		12	50.0	2.5	/experiments/aot/S_yt-zgimmOcW5Mc_127.mp4	0.0	306.6832687854767	0.09986114501953125
53	237.76563906669617	fix_pre	0		120	51.0	2.5	/experiments/aot/R_S_video-2_copy.mp4	0.0	306.7831299304962	1.000072956085205
53	238.76571202278137	movie	1		164	51.0	2.5	/experiments/aot/R_S_video-2_copy.mp4	0.0	307.7832028865814	2.4999239444732666
53	239.14927196502686	pulse	1	t		51.0	2.5	/experiments/aot/R_S_video-2_copy.mp4	0.0	308.1667628288269	
53	240.74935507774353	pulse	1	t		51.0	2.5	/experiments/aot/R_S_video-2_copy.mp4	0.0	309.7668459415436	
53	241.26563596725464	fix_post	2		12	51.0	2.5	/experiments/aot/R_S_video-2_copy.mp4	0.0	310.2831268310547	0.10006403923034668
54	241.36570000648499	fix_pre	0		119	52.0	2.5	/experiments/aot/S_comp_DB_D001_C001_PSNK_v06_SDR_PS_20180824_SDR_2K_AVC.mp4	0.0	310.38319087028503	0.9916000366210938
54	242.34915804862976	pulse	0	t		52.0	2.5	/experiments/aot/S_comp_DB_D001_C001_PSNK_v06_SDR_PS_20180824_SDR_2K_AVC.mp4	0.0	311.3666489124298	
54	242.35730004310608	movie	1		168	52.0	2.5	/experiments/aot/S_comp_DB_D001_C001_PSNK_v06_SDR_PS_20180824_SDR_2K_AVC.mp4	0.0	311.3747909069061	2.50832200050354
54	243.94883799552917	pulse	1	t		52.0	2.5	/experiments/aot/S_comp_DB_D001_C001_PSNK_v06_SDR_PS_20180824_SDR_2K_AVC.mp4	0.0	312.9663288593292	
54	244.86562204360962	fix_post	2		12	52.0	2.5	/experiments/aot/S_comp_DB_D001_C001_PSNK_v06_SDR_PS_20180824_SDR_2K_AVC.mp4	0.0	313.88311290740967	0.10009503364562988
55	244.96571707725525	fix_pre	0		120	53.0	2.5	/experiments/aot/S_yt-zh2yLr-o_8A_953.mp4	0.0	313.9832079410553	0.9999158382415771
55	245.5491919517517	pulse	0	t		53.0	2.5	/experiments/aot/S_yt-zh2yLr-o_8A_953.mp4	0.0	314.56668281555176	
55	245.96563291549683	movie	1		300	53.0	2.5	/experiments/aot/S_yt-zh2yLr-o_8A_953.mp4	0.0	314.9831237792969	2.4999821186065674
55	247.1491310596466	pulse	1	t		53.0	2.5	/experiments/aot/S_yt-zh2yLr-o_8A_953.mp4	0.0	316.16662192344666	
55	248.4656150341034	fix_post	2		12	53.0	2.5	/experiments/aot/S_yt-zh2yLr-o_8A_953.mp4	0.0	317.48310589790344	0.10006308555603027
56	248.56567811965942	fix_pre	0		120	54.0	2.5	/experiments/aot/S_ILSVRC2015_train_00369000.mp4	0.0	317.5831689834595	0.9999728202819824
56	248.7491750717163	pulse	0	t		54.0	2.5	/experiments/aot/S_ILSVRC2015_train_00369000.mp4	0.0	317.76666593551636	
56	249.5656509399414	movie	1		300	54.0	2.5	/experiments/aot/S_ILSVRC2015_train_00369000.mp4	0.0	318.58314180374146	2.5000150203704834
56	250.3490719795227	pulse	1	t		54.0	2.5	/experiments/aot/S_ILSVRC2015_train_00369000.mp4	0.0	319.36656284332275	
56	251.94910097122192	pulse	1	t		54.0	2.5	/experiments/aot/S_ILSVRC2015_train_00369000.mp4	0.0	320.966591835022	
56	252.0656659603119	fix_post	2		12	54.0	2.5	/experiments/aot/S_ILSVRC2015_train_00369000.mp4	0.0	321.08315682411194	0.09999418258666992
57	252.16566014289856	fix_pre	0		120	55.0	2.5	/experiments/aot/R_S_yt-3ohvpS42xug_184.mp4	0.0	321.1831510066986	0.9995408058166504
57	253.1652009487152	movie	1		300	55.0	2.5	/experiments/aot/R_S_yt-3ohvpS42xug_184.mp4	0.0	322.18269181251526	2.50039005279541
57	253.54912114143372	pulse	1	t		55.0	2.5	/experiments/aot/R_S_yt-3ohvpS42xug_184.mp4	0.0	322.56661200523376	
57	255.14903807640076	pulse	1	t		55.0	2.5	/experiments/aot/R_S_yt-3ohvpS42xug_184.mp4	0.0	324.1665289402008	
57	255.66559100151062	fix_post	2		12	55.0	2.5	/experiments/aot/R_S_yt-3ohvpS42xug_184.mp4	0.0	324.68308186531067	0.1001279354095459
58	255.76571893692017	fix_pre	0		119	56.0	2.5	blank	1.0	324.7832098007202	0.991523027420044
58	256.74916315078735	pulse	0	t		56.0	2.5	blank	1.0	325.7666540145874	
58	256.7572419643402	movie	1		301	56.0	2.5	blank	1.0	325.77473282814026	2.5083789825439453
58	258.3491220474243	pulse	1	t		56.0	2.5	blank	1.0	327.36661291122437	
58	259.26562094688416	fix_post	2		12	56.0	2.5	blank	1.0	328.2831118106842	0.100006103515625
59	259.3656270503998	fix_pre	0		120	57.0	2.5	/experiments/aot/S_yt-qurTr1BJMec_244.mp4	0.0	328.38311791419983	1.0000009536743164
59	259.949166059494	pulse	0	t		57.0	2.5	/experiments/aot/S_yt-qurTr1BJMec_244.mp4	0.0	328.96665692329407	
59	260.3656280040741	movie	1		300	57.0	2.5	/experiments/aot/S_yt-qurTr1BJMec_244.mp4	0.0	329.38311886787415	2.4995510578155518
59	261.5491199493408	pulse	1	t		57.0	2.5	/experiments/aot/S_yt-qurTr1BJMec_244.mp4	0.0	330.56661081314087	
59	262.86517906188965	fix_post	2		12	57.0	2.5	/experiments/aot/S_yt-qurTr1BJMec_244.mp4	0.0	331.8826699256897	0.10042285919189453
60	262.96560192108154	fix_pre	0		120	58.0	2.5	/experiments/aot/S_ILSVRC2015_train_00405000.mp4	0.0	331.9830927848816	0.9999861717224121
60	263.1491050720215	pulse	0	t		58.0	2.5	/experiments/aot/S_ILSVRC2015_train_00405000.mp4	0.0	332.16659593582153	
60	263.96558809280396	movie	1		300	58.0	2.5	/experiments/aot/S_ILSVRC2015_train_00405000.mp4	0.0	332.983078956604	2.500108003616333
60	264.7491159439087	pulse	1	t		58.0	2.5	/experiments/aot/S_ILSVRC2015_train_00405000.mp4	0.0	333.76660680770874	
60	266.34413409233093	pulse	1	t		58.0	2.5	/experiments/aot/S_ILSVRC2015_train_00405000.mp4	0.0	335.361624956131	
60	266.4656960964203	fix_post	2		12	58.0	2.5	/experiments/aot/S_ILSVRC2015_train_00405000.mp4	0.0	335.48318696022034	0.09980392456054688
61	266.56550002098083	fix_pre	0		120	59.0	2.5	/experiments/aot/S_yt-fQgLKiz2tuM_14.mp4	0.0	335.5829908847809	1.0001530647277832
61	267.5656530857086	movie	1		299	59.0	2.5	/experiments/aot/S_yt-fQgLKiz2tuM_14.mp4	0.0	336.58314394950867	2.5000319480895996
61	267.9490749835968	pulse	1	t		59.0	2.5	/experiments/aot/S_yt-fQgLKiz2tuM_14.mp4	0.0	336.96656584739685	
61	269.549143075943	pulse	1	t		59.0	2.5	/experiments/aot/S_yt-fQgLKiz2tuM_14.mp4	0.0	338.56663393974304	
61	270.0656850337982	fix_post	2		12	59.0	2.5	/experiments/aot/S_yt-fQgLKiz2tuM_14.mp4	0.0	339.08317589759827	0.09989595413208008
62	270.1655809879303	fix_pre	0		119	60.0	2.5	/experiments/aot/S_yt-O_4DgW-XKvA_35.mp4	0.0	339.18307185173035	0.9916541576385498
62	271.1489119529724	pulse	0	t		60.0	2.5	/experiments/aot/S_yt-O_4DgW-XKvA_35.mp4	0.0	340.16640281677246	
62	271.15723514556885	movie	1		301	60.0	2.5	/experiments/aot/S_yt-O_4DgW-XKvA_35.mp4	0.0	340.1747260093689	2.5079047679901123
62	272.7449929714203	pulse	1	t		60.0	2.5	/experiments/aot/S_yt-O_4DgW-XKvA_35.mp4	0.0	341.76248383522034	
62	273.66513991355896	fix_post	2		12	60.0	2.5	/experiments/aot/S_yt-O_4DgW-XKvA_35.mp4	0.0	342.682630777359	0.10034513473510742
63	273.76548504829407	fix_pre	0		120	61.0	2.5	/experiments/aot/R_S_flickr-claywakening-27928940166_2.mp4	0.0	342.7829759120941	1.000075101852417
63	274.3490779399872	pulse	0	t		61.0	2.5	/experiments/aot/R_S_flickr-claywakening-27928940166_2.mp4	0.0	343.36656880378723	
63	274.7655601501465	movie	1		169	61.0	2.5	/experiments/aot/R_S_flickr-claywakening-27928940166_2.mp4	0.0	343.78305101394653	2.500091791152954
63	275.94933700561523	pulse	1	t		61.0	2.5	/experiments/aot/R_S_flickr-claywakening-27928940166_2.mp4	0.0	344.9668278694153	
63	277.26565194129944	fix_post	2		12	61.0	2.5	/experiments/aot/R_S_flickr-claywakening-27928940166_2.mp4	0.0	346.2831428050995	0.09988212585449219
64	277.36553406715393	fix_pre	0		120	62.0	2.5	/experiments/aot/S_yt-6aqg1P9YqR8_38.mp4	0.0	346.383024930954	1.000074863433838
64	277.5490491390228	pulse	0	t		62.0	2.5	/experiments/aot/S_yt-6aqg1P9YqR8_38.mp4	0.0	346.5665400028229	
64	278.36560893058777	movie	1		300	62.0	2.5	/experiments/aot/S_yt-6aqg1P9YqR8_38.mp4	0.0	347.3830997943878	2.4998819828033447
64	279.14913511276245	pulse	1	t		62.0	2.5	/experiments/aot/S_yt-6aqg1P9YqR8_38.mp4	0.0	348.1666259765625	
64	280.74920201301575	pulse	1	t		62.0	2.5	/experiments/aot/S_yt-6aqg1P9YqR8_38.mp4	0.0	349.7666928768158	
64	280.8654909133911	fix_post	2		12	62.0	2.5	/experiments/aot/S_yt-6aqg1P9YqR8_38.mp4	0.0	349.88298177719116	0.10007119178771973
65	280.96556210517883	fix_pre	0		120	63.0	2.5	blank	1.0	349.9830529689789	0.9999840259552002
65	281.96554613113403	movie	1		300	63.0	2.5	blank	1.0	350.9830369949341	2.500011920928955
65	282.3489830493927	pulse	1	t		63.0	2.5	blank	1.0	351.36647391319275	
65	283.9489960670471	pulse	1	t		63.0	2.5	blank	1.0	352.96648693084717	
65	284.465558052063	fix_post	2		12	63.0	2.5	blank	1.0	353.48304891586304	0.10002303123474121
66	284.56558108329773	fix_pre	0		119	64.0	2.5	/experiments/aot/R_S_yt-F3hhts3bwWg_25.mp4	0.0	353.5830719470978	0.9918289184570312
66	285.54881405830383	pulse	0	t		64.0	2.5	/experiments/aot/R_S_yt-F3hhts3bwWg_25.mp4	0.0	354.5663049221039	
66	285.55741000175476	movie	1		301	64.0	2.5	/experiments/aot/R_S_yt-F3hhts3bwWg_25.mp4	0.0	354.5749008655548	2.508151054382324
66	287.14493799209595	pulse	1	t		64.0	2.5	/experiments/aot/R_S_yt-F3hhts3bwWg_25.mp4	0.0	356.162428855896	
66	288.0655610561371	fix_post	2		12	64.0	2.5	/experiments/aot/R_S_yt-F3hhts3bwWg_25.mp4	0.0	357.08305191993713	0.10002398490905762
67	288.16558504104614	fix_pre	0		120	65.0	2.5	/experiments/aot/R_S_yt-cokedWwwYYs_136.mp4	0.0	357.1830759048462	0.99993896484375
67	288.7490680217743	pulse	0	t		65.0	2.5	/experiments/aot/R_S_yt-cokedWwwYYs_136.mp4	0.0	357.76655888557434	
67	289.1655240058899	movie	1		300	65.0	2.5	/experiments/aot/R_S_yt-cokedWwwYYs_136.mp4	0.0	358.18301486968994	2.499959945678711
67	290.3488960266113	pulse	1	t		65.0	2.5	/experiments/aot/R_S_yt-cokedWwwYYs_136.mp4	0.0	359.3663868904114	
67	291.6654839515686	fix_post	2		12	65.0	2.5	/experiments/aot/R_S_yt-cokedWwwYYs_136.mp4	0.0	360.68297481536865	0.10002398490905762
68	291.76550793647766	fix_pre	0		120	66.0	2.5	/experiments/aot/R_S_yt-_7HJhRPVmHw_255.mp4	0.0	360.7829988002777	0.9999589920043945
68	291.9490089416504	pulse	0	t		66.0	2.5	/experiments/aot/R_S_yt-_7HJhRPVmHw_255.mp4	0.0	360.96649980545044	
68	292.76546692848206	movie	1		300	66.0	2.5	/experiments/aot/R_S_yt-_7HJhRPVmHw_255.mp4	0.0	361.7829577922821	2.5000832080841064
68	293.5489900112152	pulse	1	t		66.0	2.5	/experiments/aot/R_S_yt-_7HJhRPVmHw_255.mp4	0.0	362.56648087501526	
68	295.1485071182251	pulse	1	t		66.0	2.5	/experiments/aot/R_S_yt-_7HJhRPVmHw_255.mp4	0.0	364.16599798202515	
68	295.26555013656616	fix_post	2		12	66.0	2.5	/experiments/aot/R_S_yt-_7HJhRPVmHw_255.mp4	0.0	364.2830410003662	0.0998849868774414
69	295.3654351234436	fix_pre	0		120	67.0	2.5	/experiments/aot/S_yt-Pc1ZlCvsPpc_5.mp4	0.0	364.38292598724365	1.000032901763916
69	296.3654680252075	movie	1		300	67.0	2.5	/experiments/aot/S_yt-Pc1ZlCvsPpc_5.mp4	0.0	365.38295888900757	2.4999239444732666
69	296.74892497062683	pulse	1	t		67.0	2.5	/experiments/aot/S_yt-Pc1ZlCvsPpc_5.mp4	0.0	365.7664158344269	
69	298.3489680290222	pulse	1	t		67.0	2.5	/experiments/aot/S_yt-Pc1ZlCvsPpc_5.mp4	0.0	367.36645889282227	
69	298.8653919696808	fix_post	2		12	67.0	2.5	/experiments/aot/S_yt-Pc1ZlCvsPpc_5.mp4	0.0	367.88288283348083	0.10004210472106934
70	298.96543407440186	fix_pre	0		119	68.0	2.5	/experiments/aot/R_S_yt-dO0OuozAgt0_225.mp4	0.0	367.9829249382019	0.9917149543762207
70	299.9489779472351	pulse	0	t		68.0	2.5	/experiments/aot/R_S_yt-dO0OuozAgt0_225.mp4	0.0	368.96646881103516	
70	299.9571490287781	movie	1		301	68.0	2.5	/experiments/aot/R_S_yt-dO0OuozAgt0_225.mp4	0.0	368.9746398925781	2.5083858966827393
70	301.5459840297699	pulse	1	t		68.0	2.5	/experiments/aot/R_S_yt-dO0OuozAgt0_225.mp4	0.0	370.56347489356995	
70	302.4655349254608	fix_post	2		12	68.0	2.5	/experiments/aot/R_S_yt-dO0OuozAgt0_225.mp4	0.0	371.48302578926086	0.09989404678344727
71	302.56542897224426	fix_pre	0		120	69.0	2.5	/experiments/aot/S_yt-cjndulbUtRc_51.mp4	0.0	371.5829198360443	1.0000779628753662
71	303.14903807640076	pulse	0	t		69.0	2.5	/experiments/aot/S_yt-cjndulbUtRc_51.mp4	0.0	372.1665289402008	
71	303.56550693511963	movie	1		300	69.0	2.5	/experiments/aot/S_yt-cjndulbUtRc_51.mp4	0.0	372.5829977989197	2.499880075454712
71	304.74896597862244	pulse	1	t		69.0	2.5	/experiments/aot/S_yt-cjndulbUtRc_51.mp4	0.0	373.7664568424225	
71	306.06538701057434	fix_post	2		12	69.0	2.5	/experiments/aot/S_yt-cjndulbUtRc_51.mp4	0.0	375.0828778743744	0.1000521183013916
72	306.16543912887573	fix_pre	0		120	70.0	2.5	blank	1.0	375.1829299926758	0.9999818801879883
72	306.34896993637085	pulse	0	t		70.0	2.5	blank	1.0	375.3664608001709	
72	307.1654210090637	movie	1		300	70.0	2.5	blank	1.0	376.18291187286377	2.500056028366089
72	307.94892597198486	pulse	1	t		70.0	2.5	blank	1.0	376.9664168357849	
72	309.54888701438904	pulse	1	t		70.0	2.5	blank	1.0	378.5663778781891	
72	309.6654770374298	fix_post	2		12	70.0	2.5	blank	1.0	378.68296790122986	0.09992408752441406
73	309.7654011249542	fix_pre	0		120	71.0	2.5	/experiments/aot/R_S_yt-kkbtZP78JxQ_96.mp4	0.0	378.7828919887543	1.0000689029693604
73	310.7654700279236	movie	1		299	71.0	2.5	/experiments/aot/R_S_yt-kkbtZP78JxQ_96.mp4	0.0	379.78296089172363	2.500019073486328
73	311.1488471031189	pulse	1	t		71.0	2.5	/experiments/aot/R_S_yt-kkbtZP78JxQ_96.mp4	0.0	380.16633796691895	
73	312.74895215034485	pulse	1	t		71.0	2.5	/experiments/aot/R_S_yt-kkbtZP78JxQ_96.mp4	0.0	381.7664430141449	
73	313.2654891014099	fix_post	2		12	71.0	2.5	/experiments/aot/R_S_yt-kkbtZP78JxQ_96.mp4	0.0	382.28297996520996	0.09990382194519043
74	313.3653929233551	fix_pre	0		119	72.0	2.5	/experiments/aot/S_yt-BAQ3Xhm_PPE_23.mp4	0.0	382.38288378715515	0.99163818359375
74	314.3489079475403	pulse	0	t		72.0	2.5	/experiments/aot/S_yt-BAQ3Xhm_PPE_23.mp4	0.0	383.36639881134033	
74	314.35703110694885	movie	1		301	72.0	2.5	/experiments/aot/S_yt-BAQ3Xhm_PPE_23.mp4	0.0	383.3745219707489	2.508378028869629
74	315.94476795196533	pulse	1	t		72.0	2.5	/experiments/aot/S_yt-BAQ3Xhm_PPE_23.mp4	0.0	384.9622588157654	
74	316.8654091358185	fix_post	2		12	72.0	2.5	/experiments/aot/S_yt-BAQ3Xhm_PPE_23.mp4	0.0	385.88289999961853	0.10000801086425781
75	316.96541714668274	fix_pre	0		120	73.0	2.5	/experiments/aot/S_yt-7lULOC_rSE0_747.mp4	0.0	385.9829080104828	0.9999909400939941
75	317.5488679409027	pulse	0	t		73.0	2.5	/experiments/aot/S_yt-7lULOC_rSE0_747.mp4	0.0	386.56635880470276	
75	317.96540808677673	movie	1		300	73.0	2.5	/experiments/aot/S_yt-7lULOC_rSE0_747.mp4	0.0	386.9828989505768	2.4999489784240723
75	319.1488790512085	pulse	1	t		73.0	2.5	/experiments/aot/S_yt-7lULOC_rSE0_747.mp4	0.0	388.16636991500854	
75	320.4653570652008	fix_post	2		12	73.0	2.5	/experiments/aot/S_yt-7lULOC_rSE0_747.mp4	0.0	389.48284792900085	0.10004496574401855
76	320.5654020309448	fix_pre	0		120	74.0	2.5	/experiments/aot/R_S_yt-Jo6PxivsTOg_247.mp4	0.0	389.5828928947449	0.9999139308929443
76	320.74889302253723	pulse	0	t		74.0	2.5	/experiments/aot/R_S_yt-Jo6PxivsTOg_247.mp4	0.0	389.7663838863373	
76	321.56531596183777	movie	1		300	74.0	2.5	/experiments/aot/R_S_yt-Jo6PxivsTOg_247.mp4	0.0	390.5828068256378	2.5001060962677
76	322.348876953125	pulse	1	t		74.0	2.5	/experiments/aot/R_S_yt-Jo6PxivsTOg_247.mp4	0.0	391.36636781692505	
76	323.94840908050537	pulse	1	t		74.0	2.5	/experiments/aot/R_S_yt-Jo6PxivsTOg_247.mp4	0.0	392.9658999443054	
76	324.06542205810547	fix_post	2		12	74.0	2.5	/experiments/aot/R_S_yt-Jo6PxivsTOg_247.mp4	0.0	393.0829129219055	0.09995388984680176
77	324.16537594795227	fix_pre	0		120	75.0	2.5	/experiments/aot/R_S_IrGYVLkWeQs_9.mp4	0.0	393.1828668117523	0.9999790191650391
77	325.1653549671173	movie	1		299	75.0	2.5	/experiments/aot/R_S_IrGYVLkWeQs_9.mp4	0.0	394.18284583091736	2.5000009536743164
77	325.54888105392456	pulse	1	t		75.0	2.5	/experiments/aot/R_S_IrGYVLkWeQs_9.mp4	0.0	394.5663719177246	
77	327.1488559246063	pulse	1	t		75.0	2.5	/experiments/aot/R_S_IrGYVLkWeQs_9.mp4	0.0	396.1663467884064	
77	327.6653559207916	fix_post	2		12	75.0	2.5	/experiments/aot/R_S_IrGYVLkWeQs_9.mp4	0.0	396.6828467845917	0.09996318817138672
78	327.765319108963	fix_pre	0		119	76.0	2.5	blank	1.0	396.78280997276306	0.991675853729248
78	328.74875712394714	pulse	0	t		76.0	2.5	blank	1.0	397.7662479877472	
78	328.75699496269226	movie	1		301	76.0	2.5	blank	1.0	397.7744858264923	2.508371114730835
78	330.3488609790802	pulse	1	t		76.0	2.5	blank	1.0	399.36635184288025	
78	331.2653660774231	fix_post	2		12	76.0	2.5	blank	1.0	400.28285694122314	0.09993696212768555
79	331.3653030395508	fix_pre	0		120	77.0	2.5	/experiments/aot/S_ILSVRC2015_train_00418004.mp4	0.0	400.38279390335083	1.0000710487365723
79	331.948881149292	pulse	0	t		77.0	2.5	/experiments/aot/S_ILSVRC2015_train_00418004.mp4	0.0	400.96637201309204	
79	332.36537408828735	movie	1		300	77.0	2.5	/experiments/aot/S_ILSVRC2015_train_00418004.mp4	0.0	401.3828649520874	2.50002384185791
79	333.54901003837585	pulse	1	t		77.0	2.5	/experiments/aot/S_ILSVRC2015_train_00418004.mp4	0.0	402.5665009021759	
79	334.86539793014526	fix_post	2		12	77.0	2.5	/experiments/aot/S_ILSVRC2015_train_00418004.mp4	0.0	403.8828887939453	0.09990406036376953
80	334.96530199050903	fix_pre	0		120	78.0	2.5	/experiments/aot/R_S_yt-HMAa2QbfFPI_216.mp4	0.0	403.9827928543091	1.0000410079956055
80	335.14882612228394	pulse	0	t		78.0	2.5	/experiments/aot/R_S_yt-HMAa2QbfFPI_216.mp4	0.0	404.166316986084	
80	335.96534299850464	movie	1		300	78.0	2.5	/experiments/aot/R_S_yt-HMAa2QbfFPI_216.mp4	0.0	404.9828338623047	2.500030040740967
80	336.7487790584564	pulse	1	t		78.0	2.5	/experiments/aot/R_S_yt-HMAa2QbfFPI_216.mp4	0.0	405.76626992225647	
80	338.34841799736023	pulse	1	t		78.0	2.5	/experiments/aot/R_S_yt-HMAa2QbfFPI_216.mp4	0.0	407.3659088611603	
80	338.4653730392456	fix_post	2		12	78.0	2.5	/experiments/aot/R_S_yt-HMAa2QbfFPI_216.mp4	0.0	407.48286390304565	0.09994792938232422
81	338.56532096862793	fix_pre	0		120	79.0	2.5	/experiments/aot/S_SE_A016_C009_SDR_20190717_SDR_2K_AVC.mp4	0.0	407.582811832428	1.000035047531128
81	339.56535601615906	movie	1		163	79.0	2.5	/experiments/aot/S_SE_A016_C009_SDR_20190717_SDR_2K_AVC.mp4	0.0	408.5828468799591	2.5003371238708496
81	339.9484579563141	pulse	1	t		79.0	2.5	/experiments/aot/S_SE_A016_C009_SDR_20190717_SDR_2K_AVC.mp4	0.0	408.96594882011414	
81	341.54912304878235	pulse	1	t		79.0	2.5	/experiments/aot/S_SE_A016_C009_SDR_20190717_SDR_2K_AVC.mp4	0.0	410.5666139125824	
81	342.0656931400299	fix_post	2		12	79.0	2.5	/experiments/aot/S_SE_A016_C009_SDR_20190717_SDR_2K_AVC.mp4	0.0	411.08318400382996	0.09965395927429199
82	342.1653470993042	fix_pre	0		119	80.0	2.5	/experiments/aot/R_S_yt-Bx2kLEUuN0E_456.mp4	0.0	411.18283796310425	0.9917528629302979
82	343.14884901046753	pulse	0	t		80.0	2.5	/experiments/aot/R_S_yt-Bx2kLEUuN0E_456.mp4	0.0	412.1663398742676	
82	343.1570999622345	movie	1		301	80.0	2.5	/experiments/aot/R_S_yt-Bx2kLEUuN0E_456.mp4	0.0	412.17459082603455	2.508219003677368
82	344.7445981502533	pulse	1	t		80.0	2.5	/experiments/aot/R_S_yt-Bx2kLEUuN0E_456.mp4	0.0	413.76208901405334	
82	345.66531896591187	fix_post	2		12	80.0	2.5	/experiments/aot/R_S_yt-Bx2kLEUuN0E_456.mp4	0.0	414.6828098297119	0.09991312026977539
83	345.76523208618164	fix_pre	0		120	81.0	2.5	/experiments/aot/R_S_yt-7WYXuBHeorw_188.mp4	0.0	414.7827229499817	1.0000908374786377
83	346.34881591796875	pulse	0	t		81.0	2.5	/experiments/aot/R_S_yt-7WYXuBHeorw_188.mp4	0.0	415.3663067817688	
83	346.7653229236603	movie	1		300	81.0	2.5	/experiments/aot/R_S_yt-7WYXuBHeorw_188.mp4	0.0	415.7828137874603	2.499948024749756
83	347.948725938797	pulse	1	t		81.0	2.5	/experiments/aot/R_S_yt-7WYXuBHeorw_188.mp4	0.0	416.96621680259705	
83	349.26527094841003	fix_post	2		12	81.0	2.5	/experiments/aot/R_S_yt-7WYXuBHeorw_188.mp4	0.0	418.2827618122101	0.0999901294708252
84	349.36526107788086	fix_pre	0		120	82.0	2.5	/experiments/aot/R_S_8amznWxLS04_212.mp4	0.0	418.3827519416809	1.0000109672546387
84	349.5487780570984	pulse	0	t		82.0	2.5	/experiments/aot/R_S_8amznWxLS04_212.mp4	0.0	418.56626892089844	
84	350.3652720451355	movie	1		300	82.0	2.5	/experiments/aot/R_S_8amznWxLS04_212.mp4	0.0	419.38276290893555	2.499955892562866
84	351.1486620903015	pulse	1	t		82.0	2.5	/experiments/aot/R_S_8amznWxLS04_212.mp4	0.0	420.16615295410156	
84	352.74928998947144	pulse	1	t		82.0	2.5	/experiments/aot/R_S_8amznWxLS04_212.mp4	0.0	421.7667808532715	
84	352.86522793769836	fix_post	2		12	82.0	2.5	/experiments/aot/R_S_8amznWxLS04_212.mp4	0.0	421.8827188014984	0.10005402565002441
85	352.9652819633484	fix_pre	0		120	83.0	2.5	blank	1.0	421.98277282714844	0.99993896484375
85	353.96522092819214	movie	1		300	83.0	2.5	blank	1.0	422.9827117919922	2.500073194503784
85	354.3486919403076	pulse	1	t		83.0	2.5	blank	1.0	423.36618280410767	
85	355.9486770629883	pulse	1	t		83.0	2.5	blank	1.0	424.96616792678833	
85	356.4652941226959	fix_post	2		12	83.0	2.5	blank	1.0	425.482784986496	0.09996891021728516
87	356.5652630329132	stim	0		1716					425.58275389671326	14.300023078918457
87	357.54877495765686	pulse	0	t						426.5662658214569	
87	359.148649930954	pulse	0	t						428.166140794754	
87	360.7486650943756	pulse	0	t						429.76615595817566	
87	362.3487310409546	pulse	0	t						431.36622190475464	
87	363.94869208335876	pulse	0	t						432.9661829471588	
87	365.5486080646515	pulse	0	t						434.56609892845154	
87	367.14864706993103	pulse	0	t						436.1661379337311	
87	368.74874210357666	pulse	0	t						437.7662329673767	
87	370.3486831188202	pulse	0	t						439.36617398262024	
