trial_nr	onset	event_type	phase	response	nr_frames	movie_index	movie_duration	movie_file	blank	onset_abs	duration
0	0.1328740119934082	stim	0		32					73.27058100700378	0.2671189308166504
0	0.39200496673583984	response	0	space						73.52971196174622	
1	0.3999929428100586	stim	0		4884					73.53769993782043	40.69974493980408
1	41.095622062683105	pulse	0	t						114.23332905769348	
1	41.099737882614136	stim	1		1717					114.23744487762451	14.308241128921509
1	42.691529989242554	pulse	1	t						115.82923698425293	
1	44.291565895080566	pulse	1	t						117.42927289009094	
1	45.89155197143555	pulse	1	t						119.02925896644592	
1	47.49155807495117	pulse	1	t						120.62926506996155	
1	49.091476917266846	pulse	1	t						122.22918391227722	
1	50.69140005111694	pulse	1	t						123.82910704612732	
1	52.291435956954956	pulse	1	t						125.42914295196533	
1	53.89139795303345	pulse	1	t						127.02910494804382	
2	55.407979011535645	fix_pre	0		11	0.0	2.5	/experiments/AOT/AOT_stimuli/rescaled_final/1463_rv.mp4	0.0	128.54568600654602	0.09176492691040039
2	55.49147987365723	pulse	0	t		0.0	2.5	/experiments/AOT/AOT_stimuli/rescaled_final/1463_rv.mp4	0.0	128.6291868686676	
2	55.499743938446045	movie	1		245	0.0	2.5	/experiments/AOT/AOT_stimuli/rescaled_final/1463_rv.mp4	0.0	128.63745093345642	2.507823944091797
2	57.09110903739929	pulse	1	t		0.0	2.5	/experiments/AOT/AOT_stimuli/rescaled_final/1463_rv.mp4	0.0	130.22881603240967	
2	58.00756788253784	fix_post	2		12	0.0	2.5	/experiments/AOT/AOT_stimuli/rescaled_final/1463_rv.mp4	0.0	131.14527487754822	0.10036706924438477
3	58.10793495178223	fix_pre	0		120	1.0	2.5	/experiments/AOT/AOT_stimuli/rescaled_final/1874_rv.mp4	0.0	131.2456419467926	1.0001311302185059
3	58.69108700752258	pulse	0	t		1.0	2.5	/experiments/AOT/AOT_stimuli/rescaled_final/1874_rv.mp4	0.0	131.82879400253296	
3	59.10806608200073	movie	1		246	1.0	2.5	/experiments/AOT/AOT_stimuli/rescaled_final/1874_rv.mp4	0.0	132.2457730770111	2.4998648166656494
3	60.291274070739746	pulse	1	t		1.0	2.5	/experiments/AOT/AOT_stimuli/rescaled_final/1874_rv.mp4	0.0	133.42898106575012	
3	61.60793089866638	fix_post	2		12	1.0	2.5	/experiments/AOT/AOT_stimuli/rescaled_final/1874_rv.mp4	0.0	134.74563789367676	0.1000370979309082
4	61.70796799659729	fix_pre	0		120	2.0	2.5	/experiments/AOT/AOT_stimuli/rescaled_final/1788_fw.mp4	0.0	134.84567499160767	0.9999079704284668
4	61.891515016555786	pulse	0	t		2.0	2.5	/experiments/AOT/AOT_stimuli/rescaled_final/1788_fw.mp4	0.0	135.02922201156616	
4	62.70787596702576	movie	1		246	2.0	2.5	/experiments/AOT/AOT_stimuli/rescaled_final/1788_fw.mp4	0.0	135.84558296203613	2.500040054321289
4	63.49150991439819	pulse	1	t		2.0	2.5	/experiments/AOT/AOT_stimuli/rescaled_final/1788_fw.mp4	0.0	136.62921690940857	
4	65.09984493255615	pulse	1	t		2.0	2.5	/experiments/AOT/AOT_stimuli/rescaled_final/1788_fw.mp4	0.0	138.23755192756653	
4	65.20791602134705	fix_post	2		12	2.0	2.5	/experiments/AOT/AOT_stimuli/rescaled_final/1788_fw.mp4	0.0	138.34562301635742	0.09994196891784668
5	65.30785799026489	fix_pre	0		120	3.0	2.5	/experiments/AOT/AOT_stimuli/rescaled_final/1150_fw.mp4	0.0	138.44556498527527	1.0000391006469727
5	66.30789709091187	movie	1		243	3.0	2.5	/experiments/AOT/AOT_stimuli/rescaled_final/1150_fw.mp4	0.0	139.44560408592224	2.499642848968506
5	66.69085502624512	pulse	1	t		3.0	2.5	/experiments/AOT/AOT_stimuli/rescaled_final/1150_fw.mp4	0.0	139.8285620212555	
5	68.29127907752991	pulse	1	t		3.0	2.5	/experiments/AOT/AOT_stimuli/rescaled_final/1150_fw.mp4	0.0	141.42898607254028	
5	68.80753993988037	fix_post	2		12	3.0	2.5	/experiments/AOT/AOT_stimuli/rescaled_final/1150_fw.mp4	0.0	141.94524693489075	0.10042715072631836
6	68.90796709060669	fix_pre	0		119	4.0	2.5	/experiments/AOT/AOT_stimuli/rescaled_final/0749_rv.mp4	0.0	142.04567408561707	0.9916579723358154
6	69.8914098739624	pulse	0	t		4.0	2.5	/experiments/AOT/AOT_stimuli/rescaled_final/0749_rv.mp4	0.0	143.02911686897278	
6	69.8996250629425	movie	1		245	4.0	2.5	/experiments/AOT/AOT_stimuli/rescaled_final/0749_rv.mp4	0.0	143.03733205795288	2.50791597366333
6	71.49100995063782	pulse	1	t		4.0	2.5	/experiments/AOT/AOT_stimuli/rescaled_final/0749_rv.mp4	0.0	144.6287169456482	
6	72.40754103660583	fix_post	2		12	4.0	2.5	/experiments/AOT/AOT_stimuli/rescaled_final/0749_rv.mp4	0.0	145.5452480316162	0.10035300254821777
7	72.50789403915405	fix_pre	0		120	5.0	2.5	blank	1.0	145.64560103416443	0.9999489784240723
7	73.09135603904724	pulse	0	t		5.0	2.5	blank	1.0	146.22906303405762	
7	73.50784301757812	movie	1		300	5.0	2.5	blank	1.0	146.6455500125885	2.500102996826172
7	74.69137406349182	pulse	1	t		5.0	2.5	blank	1.0	147.8290810585022	
7	76.0079460144043	fix_post	2		12	5.0	2.5	blank	1.0	149.14565300941467	0.09994006156921387
8	76.10788607597351	fix_pre	0		120	6.0	2.5	/experiments/AOT/AOT_stimuli/rescaled_final/0359_fw.mp4	0.0	149.2455930709839	0.9995579719543457
8	76.29129004478455	pulse	0	t		6.0	2.5	/experiments/AOT/AOT_stimuli/rescaled_final/0359_fw.mp4	0.0	149.42899703979492	
8	77.10744404792786	movie	1		243	6.0	2.5	/experiments/AOT/AOT_stimuli/rescaled_final/0359_fw.mp4	0.0	150.24515104293823	2.500433921813965
8	77.89134097099304	pulse	1	t		6.0	2.5	/experiments/AOT/AOT_stimuli/rescaled_final/0359_fw.mp4	0.0	151.02904796600342	
8	79.49974703788757	pulse	1	t		6.0	2.5	/experiments/AOT/AOT_stimuli/rescaled_final/0359_fw.mp4	0.0	152.63745403289795	
8	79.60787796974182	fix_post	2		12	6.0	2.5	/experiments/AOT/AOT_stimuli/rescaled_final/0359_fw.mp4	0.0	152.7455849647522	0.09999608993530273
9	79.70787405967712	fix_pre	0		120	7.0	2.5	/experiments/AOT/AOT_stimuli/rescaled_final/0696_rv.mp4	0.0	152.8455810546875	0.9995269775390625
9	80.70740103721619	movie	1		243	7.0	2.5	/experiments/AOT/AOT_stimuli/rescaled_final/0696_rv.mp4	0.0	153.84510803222656	2.500398874282837
9	81.0916359424591	pulse	1	t		7.0	2.5	/experiments/AOT/AOT_stimuli/rescaled_final/0696_rv.mp4	0.0	154.22934293746948	
9	82.69130992889404	pulse	1	t		7.0	2.5	/experiments/AOT/AOT_stimuli/rescaled_final/0696_rv.mp4	0.0	155.82901692390442	
9	83.20779991149902	fix_post	2		12	7.0	2.5	/experiments/AOT/AOT_stimuli/rescaled_final/0696_rv.mp4	0.0	156.3455069065094	0.10006403923034668
10	83.30786395072937	fix_pre	0		119	8.0	2.5	/experiments/AOT/AOT_stimuli/rescaled_final/0710_rv.mp4	0.0	156.44557094573975	0.9916689395904541
10	84.29129099845886	pulse	0	t		8.0	2.5	/experiments/AOT/AOT_stimuli/rescaled_final/0710_rv.mp4	0.0	157.42899799346924	
10	84.29953289031982	movie	1		246	8.0	2.5	/experiments/AOT/AOT_stimuli/rescaled_final/0710_rv.mp4	0.0	157.4372398853302	2.507852077484131
10	85.89105892181396	pulse	1	t		8.0	2.5	/experiments/AOT/AOT_stimuli/rescaled_final/0710_rv.mp4	0.0	159.02876591682434	
10	86.80738496780396	fix_post	2		12	8.0	2.5	/experiments/AOT/AOT_stimuli/rescaled_final/0710_rv.mp4	0.0	159.94509196281433	0.10039806365966797
11	86.90778303146362	fix_pre	0		120	9.0	2.5	/experiments/AOT/AOT_stimuli/rescaled_final/0051_rv.mp4	0.0	160.045490026474	1.0000150203704834
11	87.4913079738617	pulse	0	t		9.0	2.5	/experiments/AOT/AOT_stimuli/rescaled_final/0051_rv.mp4	0.0	160.62901496887207	
11	87.9077980518341	movie	1		243	9.0	2.5	/experiments/AOT/AOT_stimuli/rescaled_final/0051_rv.mp4	0.0	161.04550504684448	2.4999749660491943
11	89.09138107299805	pulse	1	t		9.0	2.5	/experiments/AOT/AOT_stimuli/rescaled_final/0051_rv.mp4	0.0	162.22908806800842	
11	90.4077730178833	fix_post	2		12	9.0	2.5	/experiments/AOT/AOT_stimuli/rescaled_final/0051_rv.mp4	0.0	163.54548001289368	0.10005998611450195
12	90.5078330039978	fix_pre	0		120	10.0	2.5	/experiments/AOT/AOT_stimuli/rescaled_final/0983_fw.mp4	0.0	163.64553999900818	0.9999179840087891
12	90.69121789932251	pulse	0	t		10.0	2.5	/experiments/AOT/AOT_stimuli/rescaled_final/0983_fw.mp4	0.0	163.82892489433289	
12	91.50775098800659	movie	1		242	10.0	2.5	/experiments/AOT/AOT_stimuli/rescaled_final/0983_fw.mp4	0.0	164.64545798301697	2.499619960784912
12	92.29133200645447	pulse	1	t		10.0	2.5	/experiments/AOT/AOT_stimuli/rescaled_final/0983_fw.mp4	0.0	165.42903900146484	
12	93.89971208572388	pulse	1	t		10.0	2.5	/experiments/AOT/AOT_stimuli/rescaled_final/0983_fw.mp4	0.0	167.03741908073425	
12	94.0073709487915	fix_post	2		12	10.0	2.5	/experiments/AOT/AOT_stimuli/rescaled_final/0983_fw.mp4	0.0	167.14507794380188	0.1004629135131836
13	94.10783386230469	fix_pre	0		120	11.0	2.5	/experiments/AOT/AOT_stimuli/rescaled_final/0493_rv.mp4	0.0	167.24554085731506	0.999521017074585
13	95.10735487937927	movie	1		243	11.0	2.5	/experiments/AOT/AOT_stimuli/rescaled_final/0493_rv.mp4	0.0	168.24506187438965	2.500455141067505
13	95.49099397659302	pulse	1	t		11.0	2.5	/experiments/AOT/AOT_stimuli/rescaled_final/0493_rv.mp4	0.0	168.6287009716034	
13	97.09125089645386	pulse	1	t		11.0	2.5	/experiments/AOT/AOT_stimuli/rescaled_final/0493_rv.mp4	0.0	170.22895789146423	
13	97.60781002044678	fix_post	2		12	11.0	2.5	/experiments/AOT/AOT_stimuli/rescaled_final/0493_rv.mp4	0.0	170.74551701545715	0.09991598129272461
14	97.7077260017395	fix_pre	0		119	12.0	2.5	blank	1.0	170.84543299674988	0.991724967956543
14	98.69118905067444	pulse	0	t		12.0	2.5	blank	1.0	171.82889604568481	
14	98.69945096969604	movie	1		301	12.0	2.5	blank	1.0	171.83715796470642	2.5082778930664062
14	100.2912209033966	pulse	1	t		12.0	2.5	blank	1.0	173.42892789840698	
14	101.20772886276245	fix_post	2		12	12.0	2.5	blank	1.0	174.34543585777283	0.10007905960083008
15	101.30780792236328	fix_pre	0		120	13.0	2.5	/experiments/AOT/AOT_stimuli/rescaled_final/2162_fw.mp4	0.0	174.44551491737366	0.9995200634002686
15	101.89116597175598	pulse	0	t		13.0	2.5	/experiments/AOT/AOT_stimuli/rescaled_final/2162_fw.mp4	0.0	175.02887296676636	
15	102.30732798576355	movie	1		243	13.0	2.5	/experiments/AOT/AOT_stimuli/rescaled_final/2162_fw.mp4	0.0	175.44503498077393	2.5004160404205322
15	103.49134302139282	pulse	1	t		13.0	2.5	/experiments/AOT/AOT_stimuli/rescaled_final/2162_fw.mp4	0.0	176.6290500164032	
15	104.80774402618408	fix_post	2		12	13.0	2.5	/experiments/AOT/AOT_stimuli/rescaled_final/2162_fw.mp4	0.0	177.94545102119446	0.09997987747192383
16	104.907723903656	fix_pre	0		120	14.0	2.5	/experiments/AOT/AOT_stimuli/rescaled_final/1734_rv.mp4	0.0	178.04543089866638	1.0001070499420166
16	105.09121608734131	pulse	0	t		14.0	2.5	/experiments/AOT/AOT_stimuli/rescaled_final/1734_rv.mp4	0.0	178.22892308235168	
16	105.90783095359802	movie	1		243	14.0	2.5	/experiments/AOT/AOT_stimuli/rescaled_final/1734_rv.mp4	0.0	179.0455379486084	2.4994421005249023
16	106.69120192527771	pulse	1	t		14.0	2.5	/experiments/AOT/AOT_stimuli/rescaled_final/1734_rv.mp4	0.0	179.8289089202881	
16	108.29959988594055	pulse	1	t		14.0	2.5	/experiments/AOT/AOT_stimuli/rescaled_final/1734_rv.mp4	0.0	181.43730688095093	
16	108.40727305412292	fix_post	2		12	14.0	2.5	/experiments/AOT/AOT_stimuli/rescaled_final/1734_rv.mp4	0.0	181.5449800491333	0.10000491142272949
17	108.50727796554565	fix_pre	0		120	15.0	2.5	/experiments/AOT/AOT_stimuli/rescaled_final/0727_rv.mp4	0.0	181.64498496055603	1.0003859996795654
17	109.50766396522522	movie	1		246	15.0	2.5	/experiments/AOT/AOT_stimuli/rescaled_final/0727_rv.mp4	0.0	182.6453709602356	2.500124931335449
17	109.89967703819275	pulse	1	t		15.0	2.5	/experiments/AOT/AOT_stimuli/rescaled_final/0727_rv.mp4	0.0	183.03738403320312	
17	111.4912109375	pulse	1	t		15.0	2.5	/experiments/AOT/AOT_stimuli/rescaled_final/0727_rv.mp4	0.0	184.62891793251038	
17	112.00778889656067	fix_post	2		12	15.0	2.5	/experiments/AOT/AOT_stimuli/rescaled_final/0727_rv.mp4	0.0	185.14549589157104	0.09995508193969727
18	112.10774397850037	fix_pre	0		119	16.0	2.5	/experiments/AOT/AOT_stimuli/rescaled_final/0487_rv.mp4	0.0	185.24545097351074	0.9916939735412598
18	113.09125900268555	pulse	0	t		16.0	2.5	/experiments/AOT/AOT_stimuli/rescaled_final/0487_rv.mp4	0.0	186.22896599769592	
18	113.09943795204163	movie	1		248	16.0	2.5	/experiments/AOT/AOT_stimuli/rescaled_final/0487_rv.mp4	0.0	186.237144947052	2.5084691047668457
18	114.69109201431274	pulse	1	t		16.0	2.5	/experiments/AOT/AOT_stimuli/rescaled_final/0487_rv.mp4	0.0	187.82879900932312	
18	115.60790705680847	fix_post	2		12	16.0	2.5	/experiments/AOT/AOT_stimuli/rescaled_final/0487_rv.mp4	0.0	188.74561405181885	0.09969496726989746
19	115.70760202407837	fix_pre	0		120	17.0	2.5	/experiments/AOT/AOT_stimuli/rescaled_final/1605_rv.mp4	0.0	188.84530901908875	1.0000698566436768
19	116.2910680770874	pulse	0	t		17.0	2.5	/experiments/AOT/AOT_stimuli/rescaled_final/1605_rv.mp4	0.0	189.42877507209778	
19	116.70767188072205	movie	1		245	17.0	2.5	/experiments/AOT/AOT_stimuli/rescaled_final/1605_rv.mp4	0.0	189.84537887573242	2.499540090560913
19	117.89120888710022	pulse	1	t		17.0	2.5	/experiments/AOT/AOT_stimuli/rescaled_final/1605_rv.mp4	0.0	191.0289158821106	
19	119.20721197128296	fix_post	2		12	17.0	2.5	/experiments/AOT/AOT_stimuli/rescaled_final/1605_rv.mp4	0.0	192.34491896629333	0.10047793388366699
20	119.30768990516663	fix_pre	0		120	18.0	2.5	/experiments/AOT/AOT_stimuli/rescaled_final/1885_fw.mp4	0.0	192.445396900177	1.0000410079956055
20	119.49119687080383	pulse	0	t		18.0	2.5	/experiments/AOT/AOT_stimuli/rescaled_final/1885_fw.mp4	0.0	192.6289038658142	
20	120.30773091316223	movie	1		243	18.0	2.5	/experiments/AOT/AOT_stimuli/rescaled_final/1885_fw.mp4	0.0	193.4454379081726	2.4997661113739014
20	121.09107398986816	pulse	1	t		18.0	2.5	/experiments/AOT/AOT_stimuli/rescaled_final/1885_fw.mp4	0.0	194.22878098487854	
20	122.6996328830719	pulse	1	t		18.0	2.5	/experiments/AOT/AOT_stimuli/rescaled_final/1885_fw.mp4	0.0	195.83733987808228	
20	122.80749702453613	fix_post	2		12	18.0	2.5	/experiments/AOT/AOT_stimuli/rescaled_final/1885_fw.mp4	0.0	195.9452040195465	0.10012483596801758
21	122.90762186050415	fix_pre	0		120	19.0	2.5	/experiments/AOT/AOT_stimuli/rescaled_final/1758_fw.mp4	0.0	196.04532885551453	0.9999501705169678
21	123.90757203102112	movie	1		244	19.0	2.5	/experiments/AOT/AOT_stimuli/rescaled_final/1758_fw.mp4	0.0	197.0452790260315	2.5000710487365723
21	124.29075503349304	pulse	1	t		19.0	2.5	/experiments/AOT/AOT_stimuli/rescaled_final/1758_fw.mp4	0.0	197.42846202850342	
21	125.89106392860413	pulse	1	t		19.0	2.5	/experiments/AOT/AOT_stimuli/rescaled_final/1758_fw.mp4	0.0	199.0287709236145	
21	126.40764307975769	fix_post	2		12	19.0	2.5	/experiments/AOT/AOT_stimuli/rescaled_final/1758_fw.mp4	0.0	199.54535007476807	0.09992790222167969
22	126.50757098197937	fix_pre	0		119	20.0	2.5	/experiments/AOT/AOT_stimuli/rescaled_final/2074_fw.mp4	0.0	199.64527797698975	0.9916529655456543
22	127.49114608764648	pulse	0	t		20.0	2.5	/experiments/AOT/AOT_stimuli/rescaled_final/2074_fw.mp4	0.0	200.62885308265686	
22	127.49922394752502	movie	1		244	20.0	2.5	/experiments/AOT/AOT_stimuli/rescaled_final/2074_fw.mp4	0.0	200.6369309425354	2.5084969997406006
22	129.0908100605011	pulse	1	t		20.0	2.5	/experiments/AOT/AOT_stimuli/rescaled_final/2074_fw.mp4	0.0	202.22851705551147	
22	130.00772094726562	fix_post	2		12	20.0	2.5	/experiments/AOT/AOT_stimuli/rescaled_final/2074_fw.mp4	0.0	203.145427942276	0.09987306594848633
23	130.1075940132141	fix_pre	0		120	21.0	2.5	blank	1.0	203.2453010082245	0.9999749660491943
23	130.6911370754242	pulse	0	t		21.0	2.5	blank	1.0	203.82884407043457	
23	131.1075689792633	movie	1		300	21.0	2.5	blank	1.0	204.24527597427368	2.499962091445923
23	132.29122686386108	pulse	1	t		21.0	2.5	blank	1.0	205.42893385887146	
23	133.60753107070923	fix_post	2		12	21.0	2.5	blank	1.0	206.7452380657196	0.0999758243560791
24	133.7075068950653	fix_pre	0		120	22.0	2.5	/experiments/AOT/AOT_stimuli/rescaled_final/1083_fw.mp4	0.0	206.84521389007568	1.0000231266021729
24	133.8910529613495	pulse	0	t		22.0	2.5	/experiments/AOT/AOT_stimuli/rescaled_final/1083_fw.mp4	0.0	207.02875995635986	
24	134.70753002166748	movie	1		244	22.0	2.5	/experiments/AOT/AOT_stimuli/rescaled_final/1083_fw.mp4	0.0	207.84523701667786	2.500098943710327
24	135.49103689193726	pulse	1	t		22.0	2.5	/experiments/AOT/AOT_stimuli/rescaled_final/1083_fw.mp4	0.0	208.62874388694763	
24	137.09949493408203	pulse	1	t		22.0	2.5	/experiments/AOT/AOT_stimuli/rescaled_final/1083_fw.mp4	0.0	210.2372019290924	
24	137.2076289653778	fix_post	2		12	22.0	2.5	/experiments/AOT/AOT_stimuli/rescaled_final/1083_fw.mp4	0.0	210.34533596038818	0.09989309310913086
25	137.30752205848694	fix_pre	0		120	23.0	2.5	/experiments/AOT/AOT_stimuli/rescaled_final/0389_rv.mp4	0.0	210.44522905349731	1.0001089572906494
25	138.3076310157776	movie	1		245	23.0	2.5	/experiments/AOT/AOT_stimuli/rescaled_final/0389_rv.mp4	0.0	211.44533801078796	2.4999189376831055
25	138.6925609111786	pulse	1	t		23.0	2.5	/experiments/AOT/AOT_stimuli/rescaled_final/0389_rv.mp4	0.0	211.83026790618896	
25	140.29110407829285	pulse	1	t		23.0	2.5	/experiments/AOT/AOT_stimuli/rescaled_final/0389_rv.mp4	0.0	213.42881107330322	
25	140.8075499534607	fix_post	2		12	23.0	2.5	/experiments/AOT/AOT_stimuli/rescaled_final/0389_rv.mp4	0.0	213.94525694847107	0.10002994537353516
26	140.90757989883423	fix_pre	0		119	24.0	2.5	/experiments/AOT/AOT_stimuli/rescaled_final/1150_fw.mp4	0.0	214.0452868938446	0.9916939735412598
26	141.89108395576477	pulse	0	t		24.0	2.5	/experiments/AOT/AOT_stimuli/rescaled_final/1150_fw.mp4	0.0	215.02879095077515	
26	141.8992738723755	movie	1		244	24.0	2.5	/experiments/AOT/AOT_stimuli/rescaled_final/1150_fw.mp4	0.0	215.03698086738586	2.5082390308380127
26	143.49093294143677	pulse	1	t		24.0	2.5	/experiments/AOT/AOT_stimuli/rescaled_final/1150_fw.mp4	0.0	216.62863993644714	
26	144.4075129032135	fix_post	2		12	24.0	2.5	/experiments/AOT/AOT_stimuli/rescaled_final/1150_fw.mp4	0.0	217.54521989822388	0.09996509552001953
27	144.50747799873352	fix_pre	0		120	25.0	2.5	/experiments/AOT/AOT_stimuli/rescaled_final/0581_rv.mp4	0.0	217.6451849937439	1.0000388622283936
27	145.09093809127808	pulse	0	t		25.0	2.5	/experiments/AOT/AOT_stimuli/rescaled_final/0581_rv.mp4	0.0	218.22864508628845	
27	145.5075168609619	movie	1		245	25.0	2.5	/experiments/AOT/AOT_stimuli/rescaled_final/0581_rv.mp4	0.0	218.6452238559723	2.4997951984405518
27	146.69103407859802	pulse	1	t		25.0	2.5	/experiments/AOT/AOT_stimuli/rescaled_final/0581_rv.mp4	0.0	219.8287410736084	
27	148.00731205940247	fix_post	2		12	25.0	2.5	/experiments/AOT/AOT_stimuli/rescaled_final/0581_rv.mp4	0.0	221.14501905441284	0.10022401809692383
28	148.1075360774994	fix_pre	0		120	26.0	2.5	/experiments/AOT/AOT_stimuli/rescaled_final/1827_rv.mp4	0.0	221.24524307250977	0.9999527931213379
28	148.29102492332458	pulse	0	t		26.0	2.5	/experiments/AOT/AOT_stimuli/rescaled_final/1827_rv.mp4	0.0	221.42873191833496	
28	149.10748887062073	movie	1		244	26.0	2.5	/experiments/AOT/AOT_stimuli/rescaled_final/1827_rv.mp4	0.0	222.2451958656311	2.5000381469726562
28	149.8910050392151	pulse	1	t		26.0	2.5	/experiments/AOT/AOT_stimuli/rescaled_final/1827_rv.mp4	0.0	223.02871203422546	
28	151.4994330406189	pulse	1	t		26.0	2.5	/experiments/AOT/AOT_stimuli/rescaled_final/1827_rv.mp4	0.0	224.63714003562927	
28	151.60752701759338	fix_post	2		12	26.0	2.5	/experiments/AOT/AOT_stimuli/rescaled_final/1827_rv.mp4	0.0	224.74523401260376	0.09990501403808594
29	151.70743203163147	fix_pre	0		120	27.0	2.5	blank	1.0	224.84513902664185	0.9996509552001953
29	152.70708298683167	movie	1		300	27.0	2.5	blank	1.0	225.84478998184204	2.500446081161499
29	153.09102296829224	pulse	1	t		27.0	2.5	blank	1.0	226.2287299633026	
29	154.6909999847412	pulse	1	t		27.0	2.5	blank	1.0	227.8287069797516	
29	155.20752906799316	fix_post	2		12	27.0	2.5	blank	1.0	228.34523606300354	0.1000208854675293
30	155.3075499534607	fix_pre	0		119	28.0	2.5	/experiments/AOT/AOT_stimuli/rescaled_final/1959_fw.mp4	0.0	228.44525694847107	0.9916479587554932
30	156.29098796844482	pulse	0	t		28.0	2.5	/experiments/AOT/AOT_stimuli/rescaled_final/1959_fw.mp4	0.0	229.4286949634552	
30	156.2991979122162	movie	1		245	28.0	2.5	/experiments/AOT/AOT_stimuli/rescaled_final/1959_fw.mp4	0.0	229.43690490722656	2.5082480907440186
30	157.8920350074768	pulse	1	t		28.0	2.5	/experiments/AOT/AOT_stimuli/rescaled_final/1959_fw.mp4	0.0	231.02974200248718	
30	158.8074460029602	fix_post	2		12	28.0	2.5	/experiments/AOT/AOT_stimuli/rescaled_final/1959_fw.mp4	0.0	231.94515299797058	0.10003089904785156
31	158.90747690200806	fix_pre	0		120	29.0	2.5	/experiments/AOT/AOT_stimuli/rescaled_final/2064_fw.mp4	0.0	232.04518389701843	0.9999871253967285
31	159.49098801612854	pulse	0	t		29.0	2.5	/experiments/AOT/AOT_stimuli/rescaled_final/2064_fw.mp4	0.0	232.62869501113892	
31	159.90746402740479	movie	1		245	29.0	2.5	/experiments/AOT/AOT_stimuli/rescaled_final/2064_fw.mp4	0.0	233.04517102241516	2.500011920928955
31	161.0909788608551	pulse	1	t		29.0	2.5	/experiments/AOT/AOT_stimuli/rescaled_final/2064_fw.mp4	0.0	234.22868585586548	
31	162.40747594833374	fix_post	2		12	29.0	2.5	/experiments/AOT/AOT_stimuli/rescaled_final/2064_fw.mp4	0.0	235.54518294334412	0.10001397132873535
32	162.50748991966248	fix_pre	0		120	30.0	2.5	/experiments/AOT/AOT_stimuli/rescaled_final/1284_fw.mp4	0.0	235.64519691467285	0.9999721050262451
32	162.69097590446472	pulse	0	t		30.0	2.5	/experiments/AOT/AOT_stimuli/rescaled_final/1284_fw.mp4	0.0	235.8286828994751	
32	163.50746202468872	movie	1		243	30.0	2.5	/experiments/AOT/AOT_stimuli/rescaled_final/1284_fw.mp4	0.0	236.6451690196991	2.4995579719543457
32	164.29096102714539	pulse	1	t		30.0	2.5	/experiments/AOT/AOT_stimuli/rescaled_final/1284_fw.mp4	0.0	237.42866802215576	
32	165.89927697181702	pulse	1	t		30.0	2.5	/experiments/AOT/AOT_stimuli/rescaled_final/1284_fw.mp4	0.0	239.0369839668274	
32	166.00701999664307	fix_post	2		12	30.0	2.5	/experiments/AOT/AOT_stimuli/rescaled_final/1284_fw.mp4	0.0	239.14472699165344	0.10047101974487305
33	166.10749101638794	fix_pre	0		120	31.0	2.5	/experiments/AOT/AOT_stimuli/rescaled_final/1827_fw.mp4	0.0	239.24519801139832	0.9999148845672607
33	167.1074059009552	movie	1		245	31.0	2.5	/experiments/AOT/AOT_stimuli/rescaled_final/1827_fw.mp4	0.0	240.24511289596558	2.499699115753174
33	167.49067091941833	pulse	1	t		31.0	2.5	/experiments/AOT/AOT_stimuli/rescaled_final/1827_fw.mp4	0.0	240.6283779144287	
33	169.09089708328247	pulse	1	t		31.0	2.5	/experiments/AOT/AOT_stimuli/rescaled_final/1827_fw.mp4	0.0	242.22860407829285	
33	169.60710501670837	fix_post	2		12	31.0	2.5	/experiments/AOT/AOT_stimuli/rescaled_final/1827_fw.mp4	0.0	242.74481201171875	0.09996199607849121
34	169.70706701278687	fix_pre	0		119	32.0	2.5	/experiments/AOT/AOT_stimuli/rescaled_final/0173_fw.mp4	0.0	242.84477400779724	0.9921550750732422
34	170.690593957901	pulse	0	t		32.0	2.5	/experiments/AOT/AOT_stimuli/rescaled_final/0173_fw.mp4	0.0	243.82830095291138	
34	170.6992220878601	movie	1		245	32.0	2.5	/experiments/AOT/AOT_stimuli/rescaled_final/0173_fw.mp4	0.0	243.83692908287048	2.5083138942718506
34	172.29131388664246	pulse	1	t		32.0	2.5	/experiments/AOT/AOT_stimuli/rescaled_final/0173_fw.mp4	0.0	245.42902088165283	
34	173.20753598213196	fix_post	2		12	32.0	2.5	/experiments/AOT/AOT_stimuli/rescaled_final/0173_fw.mp4	0.0	246.34524297714233	0.09993410110473633
35	173.3074700832367	fix_pre	0		120	33.0	2.5	/experiments/AOT/AOT_stimuli/rescaled_final/1490_rv.mp4	0.0	246.44517707824707	0.9999868869781494
35	173.89177107810974	pulse	0	t		33.0	2.5	/experiments/AOT/AOT_stimuli/rescaled_final/1490_rv.mp4	0.0	247.02947807312012	
35	174.30745697021484	movie	1		244	33.0	2.5	/experiments/AOT/AOT_stimuli/rescaled_final/1490_rv.mp4	0.0	247.44516396522522	2.4999449253082275
35	175.49096298217773	pulse	1	t		33.0	2.5	/experiments/AOT/AOT_stimuli/rescaled_final/1490_rv.mp4	0.0	248.6286699771881	
35	176.80740189552307	fix_post	2		12	33.0	2.5	/experiments/AOT/AOT_stimuli/rescaled_final/1490_rv.mp4	0.0	249.94510889053345	0.10003304481506348
36	176.90743494033813	fix_pre	0		120	34.0	2.5	/experiments/AOT/AOT_stimuli/rescaled_final/1721_fw.mp4	0.0	250.0451419353485	0.9999110698699951
36	177.09090399742126	pulse	0	t		34.0	2.5	/experiments/AOT/AOT_stimuli/rescaled_final/1721_fw.mp4	0.0	250.22861099243164	
36	177.90734601020813	movie	1		245	34.0	2.5	/experiments/AOT/AOT_stimuli/rescaled_final/1721_fw.mp4	0.0	251.0450530052185	2.500066041946411
36	178.6908130645752	pulse	1	t		34.0	2.5	/experiments/AOT/AOT_stimuli/rescaled_final/1721_fw.mp4	0.0	251.82852005958557	
36	180.29081797599792	pulse	1	t		34.0	2.5	/experiments/AOT/AOT_stimuli/rescaled_final/1721_fw.mp4	0.0	253.4285249710083	
36	180.40741205215454	fix_post	2		12	34.0	2.5	/experiments/AOT/AOT_stimuli/rescaled_final/1721_fw.mp4	0.0	253.54511904716492	0.09990596771240234
37	180.50731801986694	fix_pre	0		120	35.0	2.5	blank	1.0	253.64502501487732	0.9999740123748779
37	181.50729203224182	movie	1		300	35.0	2.5	blank	1.0	254.6449990272522	2.5000619888305664
37	181.89084196090698	pulse	1	t		35.0	2.5	blank	1.0	255.02854895591736	
37	183.49083995819092	pulse	1	t		35.0	2.5	blank	1.0	256.6285469532013	
37	184.0073540210724	fix_post	2		12	35.0	2.5	blank	1.0	257.14506101608276	0.09991097450256348
38	184.10726499557495	fix_pre	0		119	36.0	2.5	/experiments/AOT/AOT_stimuli/rescaled_final/1819_rv.mp4	0.0	257.2449719905853	0.9917209148406982
38	185.09087204933167	pulse	0	t		36.0	2.5	/experiments/AOT/AOT_stimuli/rescaled_final/1819_rv.mp4	0.0	258.22857904434204	
38	185.09898591041565	movie	1		245	36.0	2.5	/experiments/AOT/AOT_stimuli/rescaled_final/1819_rv.mp4	0.0	258.236692905426	2.507981061935425
38	186.69223403930664	pulse	1	t		36.0	2.5	/experiments/AOT/AOT_stimuli/rescaled_final/1819_rv.mp4	0.0	259.829941034317	
38	187.60696697235107	fix_post	2		12	36.0	2.5	/experiments/AOT/AOT_stimuli/rescaled_final/1819_rv.mp4	0.0	260.74467396736145	0.10035204887390137
39	187.70731902122498	fix_pre	0		120	37.0	2.5	/experiments/AOT/AOT_stimuli/rescaled_final/1119_fw.mp4	0.0	260.84502601623535	1.0000669956207275
39	188.29086899757385	pulse	0	t		37.0	2.5	/experiments/AOT/AOT_stimuli/rescaled_final/1119_fw.mp4	0.0	261.42857599258423	
39	188.7073860168457	movie	1		244	37.0	2.5	/experiments/AOT/AOT_stimuli/rescaled_final/1119_fw.mp4	0.0	261.8450930118561	2.500062942504883
39	189.89177703857422	pulse	1	t		37.0	2.5	/experiments/AOT/AOT_stimuli/rescaled_final/1119_fw.mp4	0.0	263.0294840335846	
39	191.2074489593506	fix_post	2		12	37.0	2.5	/experiments/AOT/AOT_stimuli/rescaled_final/1119_fw.mp4	0.0	264.34515595436096	0.09940600395202637
40	191.3068549633026	fix_pre	0		120	38.0	2.5	/experiments/AOT/AOT_stimuli/rescaled_final/1294_fw.mp4	0.0	264.444561958313	1.0004770755767822
40	191.4915280342102	pulse	0	t		38.0	2.5	/experiments/AOT/AOT_stimuli/rescaled_final/1294_fw.mp4	0.0	264.6292350292206	
40	192.3073320388794	movie	1		243	38.0	2.5	/experiments/AOT/AOT_stimuli/rescaled_final/1294_fw.mp4	0.0	265.44503903388977	2.500058889389038
40	193.0908989906311	pulse	1	t		38.0	2.5	/experiments/AOT/AOT_stimuli/rescaled_final/1294_fw.mp4	0.0	266.2286059856415	
40	194.6991949081421	pulse	1	t		38.0	2.5	/experiments/AOT/AOT_stimuli/rescaled_final/1294_fw.mp4	0.0	267.83690190315247	
40	194.80739092826843	fix_post	2		12	38.0	2.5	/experiments/AOT/AOT_stimuli/rescaled_final/1294_fw.mp4	0.0	267.9450979232788	0.09996414184570312
41	194.90735507011414	fix_pre	0		120	39.0	2.5	/experiments/AOT/AOT_stimuli/rescaled_final/1113_fw.mp4	0.0	268.0450620651245	1.0000989437103271
41	195.90745401382446	movie	1		244	39.0	2.5	/experiments/AOT/AOT_stimuli/rescaled_final/1113_fw.mp4	0.0	269.04516100883484	2.4998018741607666
41	196.29069209098816	pulse	1	t		39.0	2.5	/experiments/AOT/AOT_stimuli/rescaled_final/1113_fw.mp4	0.0	269.42839908599854	
41	197.89072489738464	pulse	1	t		39.0	2.5	/experiments/AOT/AOT_stimuli/rescaled_final/1113_fw.mp4	0.0	271.028431892395	
41	198.40725588798523	fix_post	2		12	39.0	2.5	/experiments/AOT/AOT_stimuli/rescaled_final/1113_fw.mp4	0.0	271.5449628829956	0.10004901885986328
42	198.5073049068451	fix_pre	0		119	40.0	2.5	/experiments/AOT/AOT_stimuli/rescaled_final/0733_fw.mp4	0.0	271.64501190185547	0.9916870594024658
42	199.49081707000732	pulse	0	t		40.0	2.5	/experiments/AOT/AOT_stimuli/rescaled_final/0733_fw.mp4	0.0	272.6285240650177	
42	199.49899196624756	movie	1		248	40.0	2.5	/experiments/AOT/AOT_stimuli/rescaled_final/0733_fw.mp4	0.0	272.63669896125793	2.508291006088257
42	201.09089994430542	pulse	1	t		40.0	2.5	/experiments/AOT/AOT_stimuli/rescaled_final/0733_fw.mp4	0.0	274.2286069393158	
42	202.00728297233582	fix_post	2		12	40.0	2.5	/experiments/AOT/AOT_stimuli/rescaled_final/0733_fw.mp4	0.0	275.1449899673462	0.09991002082824707
43	202.10719299316406	fix_pre	0		120	41.0	2.5	blank	1.0	275.24489998817444	1.0000360012054443
43	202.69077587127686	pulse	0	t		41.0	2.5	blank	1.0	275.82848286628723	
43	203.1072289943695	movie	1		300	41.0	2.5	blank	1.0	276.2449359893799	2.4999990463256836
43	204.29077005386353	pulse	1	t		41.0	2.5	blank	1.0	277.4284770488739	
43	205.6072280406952	fix_post	2		12	41.0	2.5	blank	1.0	278.74493503570557	0.10010194778442383
44	205.70732998847961	fix_pre	0		120	42.0	2.5	/experiments/AOT/AOT_stimuli/rescaled_final/0078_rv.mp4	0.0	278.84503698349	0.9998359680175781
44	205.89155507087708	pulse	0	t		42.0	2.5	/experiments/AOT/AOT_stimuli/rescaled_final/0078_rv.mp4	0.0	279.02926206588745	
44	206.7071659564972	movie	1		244	42.0	2.5	/experiments/AOT/AOT_stimuli/rescaled_final/0078_rv.mp4	0.0	279.84487295150757	2.499613046646118
44	207.49164009094238	pulse	1	t		42.0	2.5	/experiments/AOT/AOT_stimuli/rescaled_final/0078_rv.mp4	0.0	280.62934708595276	
44	209.09909391403198	pulse	1	t		42.0	2.5	/experiments/AOT/AOT_stimuli/rescaled_final/0078_rv.mp4	0.0	282.23680090904236	
44	209.2067790031433	fix_post	2		12	42.0	2.5	/experiments/AOT/AOT_stimuli/rescaled_final/0078_rv.mp4	0.0	282.3444859981537	0.10047793388366699
45	209.30725693702698	fix_pre	0		120	43.0	2.5	/experiments/AOT/AOT_stimuli/rescaled_final/0078_fw.mp4	0.0	282.44496393203735	0.9999620914459229
45	210.3072190284729	movie	1		245	43.0	2.5	/experiments/AOT/AOT_stimuli/rescaled_final/0078_fw.mp4	0.0	283.4449260234833	2.5000739097595215
45	210.69909286499023	pulse	1	t		43.0	2.5	/experiments/AOT/AOT_stimuli/rescaled_final/0078_fw.mp4	0.0	283.8367998600006	
45	212.2907030582428	pulse	1	t		43.0	2.5	/experiments/AOT/AOT_stimuli/rescaled_final/0078_fw.mp4	0.0	285.4284100532532	
45	212.80729293823242	fix_post	2		12	43.0	2.5	/experiments/AOT/AOT_stimuli/rescaled_final/0078_fw.mp4	0.0	285.9449999332428	0.0995340347290039
46	212.90682697296143	fix_pre	0		119	44.0	2.5	/experiments/AOT/AOT_stimuli/rescaled_final/1811_rv.mp4	0.0	286.0445339679718	0.9920969009399414
46	213.89073705673218	pulse	0	t		44.0	2.5	/experiments/AOT/AOT_stimuli/rescaled_final/1811_rv.mp4	0.0	287.02844405174255	
46	213.89892387390137	movie	1		245	44.0	2.5	/experiments/AOT/AOT_stimuli/rescaled_final/1811_rv.mp4	0.0	287.03663086891174	2.5078179836273193
46	215.49910688400269	pulse	1	t		44.0	2.5	/experiments/AOT/AOT_stimuli/rescaled_final/1811_rv.mp4	0.0	288.63681387901306	
46	216.4067418575287	fix_post	2		12	44.0	2.5	/experiments/AOT/AOT_stimuli/rescaled_final/1811_rv.mp4	0.0	289.54444885253906	0.10048413276672363
47	216.5072259902954	fix_pre	0		120	45.0	2.5	/experiments/AOT/AOT_stimuli/rescaled_final/1786_rv.mp4	0.0	289.6449329853058	0.9998750686645508
47	217.09072709083557	pulse	0	t		45.0	2.5	/experiments/AOT/AOT_stimuli/rescaled_final/1786_rv.mp4	0.0	290.22843408584595	
47	217.50710105895996	movie	1		244	45.0	2.5	/experiments/AOT/AOT_stimuli/rescaled_final/1786_rv.mp4	0.0	290.64480805397034	2.500077962875366
47	218.69069695472717	pulse	1	t		45.0	2.5	/experiments/AOT/AOT_stimuli/rescaled_final/1786_rv.mp4	0.0	291.82840394973755	
47	220.00717902183533	fix_post	2		12	45.0	2.5	/experiments/AOT/AOT_stimuli/rescaled_final/1786_rv.mp4	0.0	293.1448860168457	0.1000070571899414
48	220.10718607902527	fix_pre	0		120	46.0	2.5	/experiments/AOT/AOT_stimuli/rescaled_final/1352_fw.mp4	0.0	293.24489307403564	0.9999728202819824
48	220.29067206382751	pulse	0	t		46.0	2.5	/experiments/AOT/AOT_stimuli/rescaled_final/1352_fw.mp4	0.0	293.4283790588379	
48	221.10715889930725	movie	1		243	46.0	2.5	/experiments/AOT/AOT_stimuli/rescaled_final/1352_fw.mp4	0.0	294.2448658943176	2.499936103820801
48	221.8916609287262	pulse	1	t		46.0	2.5	/experiments/AOT/AOT_stimuli/rescaled_final/1352_fw.mp4	0.0	295.0293679237366	
48	223.4991090297699	pulse	1	t		46.0	2.5	/experiments/AOT/AOT_stimuli/rescaled_final/1352_fw.mp4	0.0	296.6368160247803	
48	223.60709500312805	fix_post	2		12	46.0	2.5	/experiments/AOT/AOT_stimuli/rescaled_final/1352_fw.mp4	0.0	296.7448019981384	0.10010194778442383
49	223.70719695091248	fix_pre	0		120	47.0	2.5	/experiments/AOT/AOT_stimuli/rescaled_final/1513_fw.mp4	0.0	296.84490394592285	0.9995200634002686
49	224.70671701431274	movie	1		248	47.0	2.5	/experiments/AOT/AOT_stimuli/rescaled_final/1513_fw.mp4	0.0	297.8444240093231	2.500272035598755
49	225.09858894348145	pulse	1	t		47.0	2.5	/experiments/AOT/AOT_stimuli/rescaled_final/1513_fw.mp4	0.0	298.2362959384918	
49	226.69074892997742	pulse	1	t		47.0	2.5	/experiments/AOT/AOT_stimuli/rescaled_final/1513_fw.mp4	0.0	299.8284559249878	
49	227.2069890499115	fix_post	2		12	47.0	2.5	/experiments/AOT/AOT_stimuli/rescaled_final/1513_fw.mp4	0.0	300.3446960449219	0.10035085678100586
50	227.3073399066925	fix_pre	0		119	48.0	2.5	blank	1.0	300.4450469017029	0.9914171695709229
50	228.29062604904175	pulse	0	t		48.0	2.5	blank	1.0	301.4283330440521	
50	228.29875707626343	movie	1		301	48.0	2.5	blank	1.0	301.4364640712738	2.5083389282226562
50	229.89065194129944	pulse	1	t		48.0	2.5	blank	1.0	303.0283589363098	
50	230.80709600448608	fix_post	2		12	48.0	2.5	blank	1.0	303.94480299949646	0.10001802444458008
51	230.90711402893066	fix_pre	0		120	49.0	2.5	/experiments/AOT/AOT_stimuli/rescaled_final/1139_rv.mp4	0.0	304.04482102394104	1.0000460147857666
51	231.4913170337677	pulse	0	t		49.0	2.5	/experiments/AOT/AOT_stimuli/rescaled_final/1139_rv.mp4	0.0	304.6290240287781	
51	231.90716004371643	movie	1		243	49.0	2.5	/experiments/AOT/AOT_stimuli/rescaled_final/1139_rv.mp4	0.0	305.0448670387268	2.4995129108428955
51	233.09069204330444	pulse	1	t		49.0	2.5	/experiments/AOT/AOT_stimuli/rescaled_final/1139_rv.mp4	0.0	306.2283990383148	
51	234.40667295455933	fix_post	2		12	49.0	2.5	/experiments/AOT/AOT_stimuli/rescaled_final/1139_rv.mp4	0.0	307.5443799495697	0.10037899017333984
52	234.50705194473267	fix_pre	0		120	50.0	2.5	/experiments/AOT/AOT_stimuli/rescaled_final/0071_fw.mp4	0.0	307.64475893974304	1.0000231266021729
52	234.69051504135132	pulse	0	t		50.0	2.5	/experiments/AOT/AOT_stimuli/rescaled_final/0071_fw.mp4	0.0	307.8282220363617	
52	235.50707507133484	movie	1		247	50.0	2.5	/experiments/AOT/AOT_stimuli/rescaled_final/0071_fw.mp4	0.0	308.6447820663452	2.4999568462371826
52	236.29051303863525	pulse	1	t		50.0	2.5	/experiments/AOT/AOT_stimuli/rescaled_final/0071_fw.mp4	0.0	309.42822003364563	
52	237.89138102531433	pulse	1	t		50.0	2.5	/experiments/AOT/AOT_stimuli/rescaled_final/0071_fw.mp4	0.0	311.0290880203247	
52	238.00703191757202	fix_post	2		12	50.0	2.5	/experiments/AOT/AOT_stimuli/rescaled_final/0071_fw.mp4	0.0	311.1447389125824	0.09999895095825195
53	238.10703086853027	fix_pre	0		120	51.0	2.5	/experiments/AOT/AOT_stimuli/rescaled_final/1942_fw.mp4	0.0	311.24473786354065	0.999608039855957
53	239.10663890838623	movie	1		245	51.0	2.5	/experiments/AOT/AOT_stimuli/rescaled_final/1942_fw.mp4	0.0	312.2443459033966	2.5000200271606445
53	239.49892401695251	pulse	1	t		51.0	2.5	/experiments/AOT/AOT_stimuli/rescaled_final/1942_fw.mp4	0.0	312.6366310119629	
53	241.09142398834229	pulse	1	t		51.0	2.5	/experiments/AOT/AOT_stimuli/rescaled_final/1942_fw.mp4	0.0	314.22913098335266	
53	241.60665893554688	fix_post	2		12	51.0	2.5	/experiments/AOT/AOT_stimuli/rescaled_final/1942_fw.mp4	0.0	314.74436593055725	0.10037493705749512
54	241.70703387260437	fix_pre	0		120	52.0	2.5	/experiments/AOT/AOT_stimuli/rescaled_final/2168_rv.mp4	0.0	314.84474086761475	0.9999802112579346
54	242.69133591651917	pulse	0	t		52.0	2.5	/experiments/AOT/AOT_stimuli/rescaled_final/2168_rv.mp4	0.0	315.82904291152954	
54	242.7070140838623	movie	1		247	52.0	2.5	/experiments/AOT/AOT_stimuli/rescaled_final/2168_rv.mp4	0.0	315.8447210788727	2.5084099769592285
54	244.2984209060669	pulse	1	t		52.0	2.5	/experiments/AOT/AOT_stimuli/rescaled_final/2168_rv.mp4	0.0	317.43612790107727	
54	245.21542406082153	fix_post	2		12	52.0	2.5	/experiments/AOT/AOT_stimuli/rescaled_final/2168_rv.mp4	0.0	318.3531310558319	0.1000359058380127
55	245.31545996665955	fix_pre	0		120	53.0	2.5	/experiments/AOT/AOT_stimuli/rescaled_final/1354_fw.mp4	0.0	318.4531669616699	0.9999589920043945
55	245.8905758857727	pulse	0	t		53.0	2.5	/experiments/AOT/AOT_stimuli/rescaled_final/1354_fw.mp4	0.0	319.0282828807831	
55	246.31541895866394	movie	1		246	53.0	2.5	/experiments/AOT/AOT_stimuli/rescaled_final/1354_fw.mp4	0.0	319.4531259536743	2.499614953994751
55	247.49889993667603	pulse	1	t		53.0	2.5	/experiments/AOT/AOT_stimuli/rescaled_final/1354_fw.mp4	0.0	320.6366069316864	
55	248.8150339126587	fix_post	2		12	53.0	2.5	/experiments/AOT/AOT_stimuli/rescaled_final/1354_fw.mp4	0.0	321.95274090766907	0.10027408599853516
56	248.91530799865723	fix_pre	0		120	54.0	2.5	/experiments/AOT/AOT_stimuli/rescaled_final/1980_rv.mp4	0.0	322.0530149936676	0.999701976776123
56	249.0905020236969	pulse	0	t		54.0	2.5	/experiments/AOT/AOT_stimuli/rescaled_final/1980_rv.mp4	0.0	322.2282090187073	
56	249.91500997543335	movie	1		246	54.0	2.5	/experiments/AOT/AOT_stimuli/rescaled_final/1980_rv.mp4	0.0	323.0527169704437	2.500380039215088
56	250.69045495986938	pulse	1	t		54.0	2.5	/experiments/AOT/AOT_stimuli/rescaled_final/1980_rv.mp4	0.0	323.82816195487976	
56	252.2905559539795	pulse	1	t		54.0	2.5	/experiments/AOT/AOT_stimuli/rescaled_final/1980_rv.mp4	0.0	325.42826294898987	
56	252.41539001464844	fix_post	2		12	54.0	2.5	/experiments/AOT/AOT_stimuli/rescaled_final/1980_rv.mp4	0.0	325.5530970096588	0.09995007514953613
57	252.51534008979797	fix_pre	0		120	55.0	2.5	blank	1.0	325.65304708480835	0.9999809265136719
57	253.51532101631165	movie	1		300	55.0	2.5	blank	1.0	326.653028011322	2.499964952468872
57	253.8912708759308	pulse	1	t		55.0	2.5	blank	1.0	327.02897787094116	
57	255.4912269115448	pulse	1	t		55.0	2.5	blank	1.0	328.6289339065552	
57	256.0152859687805	fix_post	2		12	55.0	2.5	blank	1.0	329.1529929637909	0.10000395774841309
58	256.11528992652893	fix_pre	0		119	56.0	2.5	/experiments/AOT/AOT_stimuli/rescaled_final/1113_fw.mp4	0.0	329.2529969215393	0.9916770458221436
58	257.09139704704285	pulse	0	t		56.0	2.5	/experiments/AOT/AOT_stimuli/rescaled_final/1113_fw.mp4	0.0	330.2291040420532	
58	257.1069669723511	movie	1		244	56.0	2.5	/experiments/AOT/AOT_stimuli/rescaled_final/1113_fw.mp4	0.0	330.24467396736145	2.508241891860962
58	258.6983449459076	pulse	1	t		56.0	2.5	/experiments/AOT/AOT_stimuli/rescaled_final/1113_fw.mp4	0.0	331.83605194091797	
58	259.61520886421204	fix_post	2		12	56.0	2.5	/experiments/AOT/AOT_stimuli/rescaled_final/1113_fw.mp4	0.0	332.7529158592224	0.10007715225219727
59	259.71528601646423	fix_pre	0		120	57.0	2.5	/experiments/AOT/AOT_stimuli/rescaled_final/0359_fw.mp4	0.0	332.8529930114746	0.9999768733978271
59	260.2912359237671	pulse	0	t		57.0	2.5	/experiments/AOT/AOT_stimuli/rescaled_final/0359_fw.mp4	0.0	333.42894291877747	
59	260.71526288986206	movie	1		245	57.0	2.5	/experiments/AOT/AOT_stimuli/rescaled_final/0359_fw.mp4	0.0	333.85296988487244	2.500007152557373
59	261.89173102378845	pulse	1	t		57.0	2.5	/experiments/AOT/AOT_stimuli/rescaled_final/0359_fw.mp4	0.0	335.0294380187988	
59	263.21527004241943	fix_post	2		12	57.0	2.5	/experiments/AOT/AOT_stimuli/rescaled_final/0359_fw.mp4	0.0	336.3529770374298	0.10001492500305176
60	263.3152849674225	fix_pre	0		120	58.0	2.5	/experiments/AOT/AOT_stimuli/rescaled_final/1583_rv.mp4	0.0	336.45299196243286	0.9999558925628662
60	263.49050307273865	pulse	0	t		58.0	2.5	/experiments/AOT/AOT_stimuli/rescaled_final/1583_rv.mp4	0.0	336.628210067749	
60	264.31524085998535	movie	1		244	58.0	2.5	/experiments/AOT/AOT_stimuli/rescaled_final/1583_rv.mp4	0.0	337.4529478549957	2.5000011920928955
60	265.0904848575592	pulse	1	t		58.0	2.5	/experiments/AOT/AOT_stimuli/rescaled_final/1583_rv.mp4	0.0	338.2281918525696	
60	266.69042587280273	pulse	1	t		58.0	2.5	/experiments/AOT/AOT_stimuli/rescaled_final/1583_rv.mp4	0.0	339.8281328678131	
60	266.81524205207825	fix_post	2		12	58.0	2.5	/experiments/AOT/AOT_stimuli/rescaled_final/1583_rv.mp4	0.0	339.9529490470886	0.10001492500305176
61	266.9152569770813	fix_pre	0		120	59.0	2.5	/experiments/AOT/AOT_stimuli/rescaled_final/0556_rv.mp4	0.0	340.0529639720917	0.9996280670166016
61	267.9148850440979	movie	1		245	59.0	2.5	/experiments/AOT/AOT_stimuli/rescaled_final/0556_rv.mp4	0.0	341.0525920391083	2.5003108978271484
61	268.29039001464844	pulse	1	t		59.0	2.5	/experiments/AOT/AOT_stimuli/rescaled_final/0556_rv.mp4	0.0	341.4280970096588	
61	269.89138007164	pulse	1	t		59.0	2.5	/experiments/AOT/AOT_stimuli/rescaled_final/0556_rv.mp4	0.0	343.0290870666504	
61	270.41519594192505	fix_post	2		12	59.0	2.5	/experiments/AOT/AOT_stimuli/rescaled_final/0556_rv.mp4	0.0	343.5529029369354	0.09967899322509766
62	270.51487493515015	fix_pre	0		119	60.0	2.5	/experiments/AOT/AOT_stimuli/rescaled_final/1812_fw.mp4	0.0	343.6525819301605	0.9920389652252197
62	271.4911959171295	pulse	0	t		60.0	2.5	/experiments/AOT/AOT_stimuli/rescaled_final/1812_fw.mp4	0.0	344.6289029121399	
62	271.50691390037537	movie	1		246	60.0	2.5	/experiments/AOT/AOT_stimuli/rescaled_final/1812_fw.mp4	0.0	344.64462089538574	2.5083260536193848
62	273.09840202331543	pulse	1	t		60.0	2.5	/experiments/AOT/AOT_stimuli/rescaled_final/1812_fw.mp4	0.0	346.2361090183258	
62	274.01523995399475	fix_post	2		12	60.0	2.5	/experiments/AOT/AOT_stimuli/rescaled_final/1812_fw.mp4	0.0	347.1529469490051	0.09968805313110352
63	274.11492800712585	fix_pre	0		120	61.0	2.5	/experiments/AOT/AOT_stimuli/rescaled_final/1651_rv.mp4	0.0	347.25263500213623	1.0003089904785156
63	274.69125509262085	pulse	0	t		61.0	2.5	/experiments/AOT/AOT_stimuli/rescaled_final/1651_rv.mp4	0.0	347.8289620876312	
63	275.11523699760437	movie	1		244	61.0	2.5	/experiments/AOT/AOT_stimuli/rescaled_final/1651_rv.mp4	0.0	348.25294399261475	2.50006103515625
63	276.29878997802734	pulse	1	t		61.0	2.5	/experiments/AOT/AOT_stimuli/rescaled_final/1651_rv.mp4	0.0	349.4364969730377	
63	277.6152980327606	fix_post	2		12	61.0	2.5	/experiments/AOT/AOT_stimuli/rescaled_final/1651_rv.mp4	0.0	350.753005027771	0.10000085830688477
64	277.7152988910675	fix_pre	0		120	62.0	2.5	blank	1.0	350.8530058860779	0.9996120929718018
64	277.8912298679352	pulse	0	t		62.0	2.5	blank	1.0	351.02893686294556	
64	278.7149109840393	movie	1		300	62.0	2.5	blank	1.0	351.8526179790497	2.4999189376831055
64	279.4904320240021	pulse	1	t		62.0	2.5	blank	1.0	352.62813901901245	
64	281.0907599925995	pulse	1	t		62.0	2.5	blank	1.0	354.22846698760986	
64	281.2148299217224	fix_post	2		12	62.0	2.5	blank	1.0	354.3525369167328	0.10042405128479004
65	281.3152539730072	fix_pre	0		120	63.0	2.5	/experiments/AOT/AOT_stimuli/rescaled_final/1378_rv.mp4	0.0	354.4529609680176	0.9996359348297119
65	282.3148899078369	movie	1		246	63.0	2.5	/experiments/AOT/AOT_stimuli/rescaled_final/1378_rv.mp4	0.0	355.4525969028473	2.500326156616211
65	282.6904470920563	pulse	1	t		63.0	2.5	/experiments/AOT/AOT_stimuli/rescaled_final/1378_rv.mp4	0.0	355.82815408706665	
65	284.2903800010681	pulse	1	t		63.0	2.5	/experiments/AOT/AOT_stimuli/rescaled_final/1378_rv.mp4	0.0	357.4280869960785	
65	284.8152160644531	fix_post	2		12	63.0	2.5	/experiments/AOT/AOT_stimuli/rescaled_final/1378_rv.mp4	0.0	357.9529230594635	0.1000208854675293
66	284.91523694992065	fix_pre	0		119	64.0	2.5	/experiments/AOT/AOT_stimuli/rescaled_final/0886_fw.mp4	0.0	358.05294394493103	0.9915969371795654
66	285.8911728858948	pulse	0	t		64.0	2.5	/experiments/AOT/AOT_stimuli/rescaled_final/0886_fw.mp4	0.0	359.02887988090515	
66	285.9068338871002	movie	1		247	64.0	2.5	/experiments/AOT/AOT_stimuli/rescaled_final/0886_fw.mp4	0.0	359.0445408821106	2.5083460807800293
66	287.49824500083923	pulse	1	t		64.0	2.5	/experiments/AOT/AOT_stimuli/rescaled_final/0886_fw.mp4	0.0	360.6359519958496	
66	288.41517996788025	fix_post	2		12	64.0	2.5	/experiments/AOT/AOT_stimuli/rescaled_final/0886_fw.mp4	0.0	361.5528869628906	0.09958291053771973
67	288.51476287841797	fix_pre	0		120	65.0	2.5	/experiments/AOT/AOT_stimuli/rescaled_final/0746_fw.mp4	0.0	361.65246987342834	1.0003950595855713
67	289.09105801582336	pulse	0	t		65.0	2.5	/experiments/AOT/AOT_stimuli/rescaled_final/0746_fw.mp4	0.0	362.22876501083374	
67	289.51515793800354	movie	1		247	65.0	2.5	/experiments/AOT/AOT_stimuli/rescaled_final/0746_fw.mp4	0.0	362.6528649330139	2.4999611377716064
67	290.6988549232483	pulse	1	t		65.0	2.5	/experiments/AOT/AOT_stimuli/rescaled_final/0746_fw.mp4	0.0	363.83656191825867	
67	292.01511907577515	fix_post	2		12	65.0	2.5	/experiments/AOT/AOT_stimuli/rescaled_final/0746_fw.mp4	0.0	365.1528260707855	0.10002279281616211
68	292.1151418685913	fix_pre	0		120	66.0	2.5	/experiments/AOT/AOT_stimuli/rescaled_final/1838_fw.mp4	0.0	365.2528488636017	0.9996001720428467
68	292.29116797447205	pulse	0	t		66.0	2.5	/experiments/AOT/AOT_stimuli/rescaled_final/1838_fw.mp4	0.0	365.4288749694824	
68	293.11474204063416	movie	1		245	66.0	2.5	/experiments/AOT/AOT_stimuli/rescaled_final/1838_fw.mp4	0.0	366.25244903564453	2.4999589920043945
68	293.89120602607727	pulse	1	t		66.0	2.5	/experiments/AOT/AOT_stimuli/rescaled_final/1838_fw.mp4	0.0	367.02891302108765	
68	295.4967288970947	pulse	1	t		66.0	2.5	/experiments/AOT/AOT_stimuli/rescaled_final/1838_fw.mp4	0.0	368.6344358921051	
68	295.61470103263855	fix_post	2		12	66.0	2.5	/experiments/AOT/AOT_stimuli/rescaled_final/1838_fw.mp4	0.0	368.7524080276489	0.10045194625854492
69	295.7151529788971	fix_pre	0		120	67.0	2.5	/experiments/AOT/AOT_stimuli/rescaled_final/1997_fw.mp4	0.0	368.85285997390747	0.9999759197235107
69	296.7151288986206	movie	1		244	67.0	2.5	/experiments/AOT/AOT_stimuli/rescaled_final/1997_fw.mp4	0.0	369.852835893631	2.4999890327453613
69	297.0996398925781	pulse	1	t		67.0	2.5	/experiments/AOT/AOT_stimuli/rescaled_final/1997_fw.mp4	0.0	370.2373468875885	
69	298.6903419494629	pulse	1	t		67.0	2.5	/experiments/AOT/AOT_stimuli/rescaled_final/1997_fw.mp4	0.0	371.82804894447327	
69	299.21511793136597	fix_post	2		12	67.0	2.5	/experiments/AOT/AOT_stimuli/rescaled_final/1997_fw.mp4	0.0	372.35282492637634	0.09995794296264648
70	299.3150758743286	fix_pre	0		118	68.0	2.5	/experiments/AOT/AOT_stimuli/rescaled_final/0931_fw.mp4	0.0	372.452782869339	0.9833362102508545
70	300.2903718948364	pulse	0	t		68.0	2.5	/experiments/AOT/AOT_stimuli/rescaled_final/0931_fw.mp4	0.0	373.4280788898468	
70	300.29841208457947	movie	1		245	68.0	2.5	/experiments/AOT/AOT_stimuli/rescaled_final/0931_fw.mp4	0.0	373.43611907958984	2.5079808235168457
70	301.89170503616333	pulse	1	t		68.0	2.5	/experiments/AOT/AOT_stimuli/rescaled_final/0931_fw.mp4	0.0	375.0294120311737	
70	302.8063929080963	fix_post	2		12	68.0	2.5	/experiments/AOT/AOT_stimuli/rescaled_final/0931_fw.mp4	0.0	375.9440999031067	0.10039210319519043
71	302.9067850112915	fix_pre	0		120	69.0	2.5	/experiments/AOT/AOT_stimuli/rescaled_final/2013_fw.mp4	0.0	376.0444920063019	0.9995498657226562
71	303.4910650253296	pulse	0	t		69.0	2.5	/experiments/AOT/AOT_stimuli/rescaled_final/2013_fw.mp4	0.0	376.62877202033997	
71	303.90633487701416	movie	1		244	69.0	2.5	/experiments/AOT/AOT_stimuli/rescaled_final/2013_fw.mp4	0.0	377.04404187202454	2.5004401206970215
71	305.09138894081116	pulse	1	t		69.0	2.5	/experiments/AOT/AOT_stimuli/rescaled_final/2013_fw.mp4	0.0	378.22909593582153	
71	306.4067749977112	fix_post	2		12	69.0	2.5	/experiments/AOT/AOT_stimuli/rescaled_final/2013_fw.mp4	0.0	379.54448199272156	0.09995007514953613
72	306.5067250728607	fix_pre	0		120	70.0	2.5	blank	1.0	379.6444320678711	1.000065803527832
72	306.6910710334778	pulse	0	t		70.0	2.5	blank	1.0	379.82877802848816	
72	307.50679087638855	movie	1		300	70.0	2.5	blank	1.0	380.6444978713989	2.4999711513519287
72	308.29113388061523	pulse	1	t		70.0	2.5	blank	1.0	381.4288408756256	
72	309.8911440372467	pulse	1	t		70.0	2.5	blank	1.0	383.0288510322571	
72	310.0067620277405	fix_post	2		12	70.0	2.5	blank	1.0	383.14446902275085	0.09987497329711914
73	310.1066370010376	fix_pre	0		120	71.0	2.5	/experiments/AOT/AOT_stimuli/rescaled_final/0792_fw.mp4	0.0	383.244343996048	1.0000379085540771
73	311.1066749095917	movie	1		244	71.0	2.5	/experiments/AOT/AOT_stimuli/rescaled_final/0792_fw.mp4	0.0	384.24438190460205	2.4999630451202393
73	311.49862599372864	pulse	1	t		71.0	2.5	/experiments/AOT/AOT_stimuli/rescaled_final/0792_fw.mp4	0.0	384.636332988739	
73	313.09119606018066	pulse	1	t		71.0	2.5	/experiments/AOT/AOT_stimuli/rescaled_final/0792_fw.mp4	0.0	386.22890305519104	
73	313.6066379547119	fix_post	2		12	71.0	2.5	/experiments/AOT/AOT_stimuli/rescaled_final/0792_fw.mp4	0.0	386.7443449497223	0.1000831127166748
74	313.7067210674286	fix_pre	0		120	72.0	2.5	/experiments/AOT/AOT_stimuli/rescaled_final/0464_fw.mp4	0.0	386.84442806243896	0.9998939037322998
74	314.6910879611969	pulse	0	t		72.0	2.5	/experiments/AOT/AOT_stimuli/rescaled_final/0464_fw.mp4	0.0	387.8287949562073	
74	314.7066149711609	movie	1		246	72.0	2.5	/experiments/AOT/AOT_stimuli/rescaled_final/0464_fw.mp4	0.0	387.84432196617126	2.5079939365386963
74	316.2986090183258	pulse	1	t		72.0	2.5	/experiments/AOT/AOT_stimuli/rescaled_final/0464_fw.mp4	0.0	389.4363160133362	
74	317.2146089076996	fix_post	2		12	72.0	2.5	/experiments/AOT/AOT_stimuli/rescaled_final/0464_fw.mp4	0.0	390.35231590270996	0.10043215751647949
75	317.31504106521606	fix_pre	0		120	73.0	2.5	/experiments/AOT/AOT_stimuli/rescaled_final/0586_rv.mp4	0.0	390.45274806022644	0.9999518394470215
75	317.89113998413086	pulse	0	t		73.0	2.5	/experiments/AOT/AOT_stimuli/rescaled_final/0586_rv.mp4	0.0	391.02884697914124	
75	318.3149929046631	movie	1		243	73.0	2.5	/experiments/AOT/AOT_stimuli/rescaled_final/0586_rv.mp4	0.0	391.45269989967346	2.499965190887451
75	319.49857091903687	pulse	1	t		73.0	2.5	/experiments/AOT/AOT_stimuli/rescaled_final/0586_rv.mp4	0.0	392.63627791404724	
75	320.81495809555054	fix_post	2		12	73.0	2.5	/experiments/AOT/AOT_stimuli/rescaled_final/0586_rv.mp4	0.0	393.9526650905609	0.10007882118225098
76	320.9150369167328	fix_pre	0		120	74.0	2.5	/experiments/AOT/AOT_stimuli/rescaled_final/0877_fw.mp4	0.0	394.05274391174316	0.9999740123748779
76	321.090961933136	pulse	0	t		74.0	2.5	/experiments/AOT/AOT_stimuli/rescaled_final/0877_fw.mp4	0.0	394.22866892814636	
76	321.91501092910767	movie	1		244	74.0	2.5	/experiments/AOT/AOT_stimuli/rescaled_final/0877_fw.mp4	0.0	395.05271792411804	2.5000040531158447
76	322.69103598594666	pulse	1	t		74.0	2.5	/experiments/AOT/AOT_stimuli/rescaled_final/0877_fw.mp4	0.0	395.82874298095703	
76	324.2970640659332	pulse	1	t		74.0	2.5	/experiments/AOT/AOT_stimuli/rescaled_final/0877_fw.mp4	0.0	397.4347710609436	
76	324.4150149822235	fix_post	2		12	74.0	2.5	/experiments/AOT/AOT_stimuli/rescaled_final/0877_fw.mp4	0.0	397.5527219772339	0.09998607635498047
77	324.5150010585785	fix_pre	0		120	75.0	2.5	/experiments/AOT/AOT_stimuli/rescaled_final/0567_rv.mp4	0.0	397.65270805358887	1.000025987625122
77	325.5150270462036	movie	1		244	75.0	2.5	/experiments/AOT/AOT_stimuli/rescaled_final/0567_rv.mp4	0.0	398.652734041214	2.5000548362731934
77	325.8982050418854	pulse	1	t		75.0	2.5	/experiments/AOT/AOT_stimuli/rescaled_final/0567_rv.mp4	0.0	399.03591203689575	
77	327.4911720752716	pulse	1	t		75.0	2.5	/experiments/AOT/AOT_stimuli/rescaled_final/0567_rv.mp4	0.0	400.628879070282	
77	328.0150818824768	fix_post	2		12	75.0	2.5	/experiments/AOT/AOT_stimuli/rescaled_final/0567_rv.mp4	0.0	401.1527888774872	0.09995102882385254
78	328.11503291130066	fix_pre	0		119	76.0	2.5	blank	1.0	401.25273990631104	0.9916460514068604
78	329.09094405174255	pulse	0	t		76.0	2.5	blank	1.0	402.22865104675293	
78	329.1066789627075	movie	1		301	76.0	2.5	blank	1.0	402.2443859577179	2.508275032043457
78	330.691025018692	pulse	1	t		76.0	2.5	blank	1.0	403.8287320137024	
78	331.614953994751	fix_post	2		12	76.0	2.5	blank	1.0	404.75266098976135	0.10003900527954102
79	331.7149930000305	fix_pre	0		120	77.0	2.5	/experiments/AOT/AOT_stimuli/rescaled_final/0727_fw.mp4	0.0	404.8526999950409	0.9999480247497559
79	332.29089188575745	pulse	0	t		77.0	2.5	/experiments/AOT/AOT_stimuli/rescaled_final/0727_fw.mp4	0.0	405.4285988807678	
79	332.7149410247803	movie	1		246	77.0	2.5	/experiments/AOT/AOT_stimuli/rescaled_final/0727_fw.mp4	0.0	405.85264801979065	2.500001907348633
79	333.89852690696716	pulse	1	t		77.0	2.5	/experiments/AOT/AOT_stimuli/rescaled_final/0727_fw.mp4	0.0	407.03623390197754	
79	335.2149429321289	fix_post	2		12	77.0	2.5	/experiments/AOT/AOT_stimuli/rescaled_final/0727_fw.mp4	0.0	408.3526499271393	0.10007715225219727
80	335.3150200843811	fix_pre	0		120	78.0	2.5	/experiments/AOT/AOT_stimuli/rescaled_final/1119_fw.mp4	0.0	408.4527270793915	0.9995307922363281
80	335.49116706848145	pulse	0	t		78.0	2.5	/experiments/AOT/AOT_stimuli/rescaled_final/1119_fw.mp4	0.0	408.6288740634918	
80	336.31455087661743	movie	1		245	78.0	2.5	/experiments/AOT/AOT_stimuli/rescaled_final/1119_fw.mp4	0.0	409.4522578716278	2.500223159790039
80	337.0980339050293	pulse	1	t		78.0	2.5	/experiments/AOT/AOT_stimuli/rescaled_final/1119_fw.mp4	0.0	410.2357409000397	
80	338.69732189178467	pulse	1	t		78.0	2.5	/experiments/AOT/AOT_stimuli/rescaled_final/1119_fw.mp4	0.0	411.83502888679504	
80	338.81477403640747	fix_post	2		12	78.0	2.5	/experiments/AOT/AOT_stimuli/rescaled_final/1119_fw.mp4	0.0	411.95248103141785	0.09997892379760742
81	338.9147529602051	fix_pre	0		120	79.0	2.5	/experiments/AOT/AOT_stimuli/rescaled_final/1113_rv.mp4	0.0	412.05245995521545	1.0005419254302979
81	339.9152948856354	movie	1		245	79.0	2.5	/experiments/AOT/AOT_stimuli/rescaled_final/1113_rv.mp4	0.0	413.05300188064575	2.4996721744537354
81	340.29820489883423	pulse	1	t		79.0	2.5	/experiments/AOT/AOT_stimuli/rescaled_final/1113_rv.mp4	0.0	413.4359118938446	
81	341.8911769390106	pulse	1	t		79.0	2.5	/experiments/AOT/AOT_stimuli/rescaled_final/1113_rv.mp4	0.0	415.028883934021	
81	342.4149670600891	fix_post	2		12	79.0	2.5	/experiments/AOT/AOT_stimuli/rescaled_final/1113_rv.mp4	0.0	415.5526740550995	0.09961390495300293
82	342.5145809650421	fix_pre	0		119	80.0	2.5	/experiments/AOT/AOT_stimuli/rescaled_final/0723_rv.mp4	0.0	415.6522879600525	0.9920599460601807
82	343.49107909202576	pulse	0	t		80.0	2.5	/experiments/AOT/AOT_stimuli/rescaled_final/0723_rv.mp4	0.0	416.62878608703613	
82	343.5066409111023	movie	1		247	80.0	2.5	/experiments/AOT/AOT_stimuli/rescaled_final/0723_rv.mp4	0.0	416.64434790611267	2.5081939697265625
82	345.0979950428009	pulse	1	t		80.0	2.5	/experiments/AOT/AOT_stimuli/rescaled_final/0723_rv.mp4	0.0	418.2357020378113	
82	346.01483488082886	fix_post	2		12	80.0	2.5	/experiments/AOT/AOT_stimuli/rescaled_final/0723_rv.mp4	0.0	419.15254187583923	0.1000511646270752
83	346.11488604545593	fix_pre	0		120	81.0	2.5	/experiments/AOT/AOT_stimuli/rescaled_final/1811_fw.mp4	0.0	419.2525930404663	0.9999749660491943
83	346.691251039505	pulse	0	t		81.0	2.5	/experiments/AOT/AOT_stimuli/rescaled_final/1811_fw.mp4	0.0	419.8289580345154	
83	347.1148610115051	movie	1		245	81.0	2.5	/experiments/AOT/AOT_stimuli/rescaled_final/1811_fw.mp4	0.0	420.2525680065155	2.4996280670166016
83	348.29113507270813	pulse	1	t		81.0	2.5	/experiments/AOT/AOT_stimuli/rescaled_final/1811_fw.mp4	0.0	421.4288420677185	
83	349.61448907852173	fix_post	2		12	81.0	2.5	/experiments/AOT/AOT_stimuli/rescaled_final/1811_fw.mp4	0.0	422.7521960735321	0.10034680366516113
84	349.7148358821869	fix_pre	0		120	82.0	2.5	/experiments/AOT/AOT_stimuli/rescaled_final/0710_fw.mp4	0.0	422.85254287719727	1.0000131130218506
84	349.89834690093994	pulse	0	t		82.0	2.5	/experiments/AOT/AOT_stimuli/rescaled_final/0710_fw.mp4	0.0	423.0360538959503	
84	350.71484899520874	movie	1		244	82.0	2.5	/experiments/AOT/AOT_stimuli/rescaled_final/0710_fw.mp4	0.0	423.8525559902191	2.499959945678711
84	351.4983630180359	pulse	1	t		82.0	2.5	/experiments/AOT/AOT_stimuli/rescaled_final/0710_fw.mp4	0.0	424.63607001304626	
84	353.09693002700806	pulse	1	t		82.0	2.5	/experiments/AOT/AOT_stimuli/rescaled_final/0710_fw.mp4	0.0	426.23463702201843	
84	353.21480894088745	fix_post	2		12	82.0	2.5	/experiments/AOT/AOT_stimuli/rescaled_final/0710_fw.mp4	0.0	426.3525159358978	0.09999394416809082
85	353.31480288505554	fix_pre	0		120	83.0	2.5	blank	1.0	426.4525098800659	1.0000090599060059
85	354.31481194496155	movie	1		300	83.0	2.5	blank	1.0	427.4525189399719	2.4999470710754395
85	354.69838190078735	pulse	1	t		83.0	2.5	blank	1.0	427.83608889579773	
85	356.29079008102417	pulse	1	t		83.0	2.5	blank	1.0	429.42849707603455	
85	356.814759016037	fix_post	2		12	83.0	2.5	blank	1.0	429.95246601104736	0.10004401206970215
87	356.9148030281067	stim	0		1716					430.05251002311707	14.30004096031189
87	357.8909320831299	pulse	0	t						431.02863907814026	
87	359.4909019470215	pulse	0	t						432.62860894203186	
87	361.0909140110016	pulse	0	t						434.22862100601196	
87	362.69111609458923	pulse	0	t						435.8288230895996	
87	364.2910499572754	pulse	0	t						437.42875695228577	
87	365.89833092689514	pulse	0	t						439.0360379219055	
87	367.4982969760895	pulse	0	t						440.63600397109985	
87	369.0982439517975	pulse	0	t						442.23595094680786	
87	370.6908829212189	pulse	0	t						443.82858991622925	
