trial_nr	onset	event_type	phase	response	nr_frames	movie_index	movie_duration	movie_file	blank	onset_abs	duration
0	0.19987893104553223	stim	0		33					23.80188488960266	0.27506399154663086
0	0.466947078704834	response	0	space						24.068953037261963	
1	0.4749429225921631	stim	0		4347					24.076948881149292	36.241868019104004
1	36.70697903633118	pulse	0	t						60.308984994888306	
1	36.71681094169617	stim	1		1716					60.318816900253296	14.307323932647705
1	38.2975058555603	pulse	1	t						61.89951181411743	
1	39.897642850875854	pulse	1	t						63.49964880943298	
1	41.497941970825195	pulse	1	t						65.09994792938232	
1	43.09808588027954	pulse	1	t						66.70009183883667	
1	44.69842886924744	pulse	1	t						68.30043482780457	
1	46.29856085777283	pulse	1	t						69.90056681632996	
1	47.89880299568176	pulse	1	t						71.50080895423889	
1	49.49901604652405	pulse	1	t						73.10102200508118	
2	51.02413487434387	fix_pre	0		10	0.0	2.5	/experiments/knapen_AOT/AOT_stimuli/rescaled_final/0695_fw.mp4	0.0	74.626140832901	0.08327198028564453
2	51.09946584701538	pulse	0	t		0.0	2.5	/experiments/knapen_AOT/AOT_stimuli/rescaled_final/0695_fw.mp4	0.0	74.70147180557251	
2	51.10740685462952	movie	1		245	0.0	2.5	/experiments/knapen_AOT/AOT_stimuli/rescaled_final/0695_fw.mp4	0.0	74.70941281318665	2.508761167526245
2	52.70368790626526	pulse	1	t		0.0	2.5	/experiments/knapen_AOT/AOT_stimuli/rescaled_final/0695_fw.mp4	0.0	76.30569386482239	
2	53.61616802215576	fix_post	2		12	0.0	2.5	/experiments/knapen_AOT/AOT_stimuli/rescaled_final/0695_fw.mp4	0.0	77.21817398071289	0.1000509262084961
3	53.71621894836426	fix_pre	0		117	1.0	2.5	/experiments/knapen_AOT/AOT_stimuli/rescaled_final/0257_fw.mp4	0.0	77.31822490692139	1.000114917755127
3	54.29983186721802	pulse	0	t		1.0	2.5	/experiments/knapen_AOT/AOT_stimuli/rescaled_final/0257_fw.mp4	0.0	77.90183782577515	
3	54.716333866119385	movie	1		243	1.0	2.5	/experiments/knapen_AOT/AOT_stimuli/rescaled_final/0257_fw.mp4	0.0	78.31833982467651	2.5003881454467773
3	55.90013599395752	pulse	1	t		1.0	2.5	/experiments/knapen_AOT/AOT_stimuli/rescaled_final/0257_fw.mp4	0.0	79.50214195251465	
3	57.21672201156616	fix_post	2		12	1.0	2.5	/experiments/knapen_AOT/AOT_stimuli/rescaled_final/0257_fw.mp4	0.0	80.81872797012329	0.10000085830688477
4	57.31672286987305	fix_pre	0		120	2.0	2.5	/experiments/knapen_AOT/AOT_stimuli/rescaled_final/0024_fw.mp4	0.0	80.91872882843018	1.0001850128173828
4	57.50036907196045	pulse	0	t		2.0	2.5	/experiments/knapen_AOT/AOT_stimuli/rescaled_final/0024_fw.mp4	0.0	81.10237503051758	
4	58.31690788269043	movie	1		244	2.0	2.5	/experiments/knapen_AOT/AOT_stimuli/rescaled_final/0024_fw.mp4	0.0	81.91891384124756	2.500333070755005
4	59.100666999816895	pulse	1	t		2.0	2.5	/experiments/knapen_AOT/AOT_stimuli/rescaled_final/0024_fw.mp4	0.0	82.70267295837402	
4	60.69833207130432	pulse	1	t		2.0	2.5	/experiments/knapen_AOT/AOT_stimuli/rescaled_final/0024_fw.mp4	0.0	84.30033802986145	
4	60.817240953445435	fix_post	2		12	2.0	2.5	/experiments/knapen_AOT/AOT_stimuli/rescaled_final/0024_fw.mp4	0.0	84.41924691200256	0.1000359058380127
5	60.91727685928345	fix_pre	0		120	3.0	2.5	/experiments/knapen_AOT/AOT_stimuli/rescaled_final/0830_rv.mp4	0.0	84.51928281784058	1.000128984451294
5	61.91740584373474	movie	1		243	3.0	2.5	/experiments/knapen_AOT/AOT_stimuli/rescaled_final/0830_rv.mp4	0.0	85.51941180229187	2.4920260906219482
5	62.30148792266846	pulse	1	t		3.0	2.5	/experiments/knapen_AOT/AOT_stimuli/rescaled_final/0830_rv.mp4	0.0	85.90349388122559	
5	63.90124297142029	pulse	1	t		3.0	2.5	/experiments/knapen_AOT/AOT_stimuli/rescaled_final/0830_rv.mp4	0.0	87.50324892997742	
5	64.40943193435669	fix_post	2		12	3.0	2.5	/experiments/knapen_AOT/AOT_stimuli/rescaled_final/0830_rv.mp4	0.0	88.01143789291382	0.10001301765441895
6	64.50944495201111	fix_pre	0		120	4.0	2.5	/experiments/knapen_AOT/AOT_stimuli/rescaled_final/1105_fw.mp4	0.0	88.11145091056824	1.000169038772583
6	65.50156998634338	pulse	0	t		4.0	2.5	/experiments/knapen_AOT/AOT_stimuli/rescaled_final/1105_fw.mp4	0.0	89.10357594490051	
6	65.50961399078369	movie	1		244	4.0	2.5	/experiments/knapen_AOT/AOT_stimuli/rescaled_final/1105_fw.mp4	0.0	89.11161994934082	2.5086960792541504
6	67.10291790962219	pulse	1	t		4.0	2.5	/experiments/knapen_AOT/AOT_stimuli/rescaled_final/1105_fw.mp4	0.0	90.70492386817932	
6	68.01831007003784	fix_post	2		12	4.0	2.5	/experiments/knapen_AOT/AOT_stimuli/rescaled_final/1105_fw.mp4	0.0	91.62031602859497	0.10009193420410156
7	68.11840200424194	fix_pre	0		120	5.0	2.5	/experiments/knapen_AOT/AOT_stimuli/rescaled_final/0913_fw.mp4	0.0	91.72040796279907	1.000072956085205
7	68.70194792747498	pulse	0	t		5.0	2.5	/experiments/knapen_AOT/AOT_stimuli/rescaled_final/0913_fw.mp4	0.0	92.3039538860321	
7	69.11847496032715	movie	1		244	5.0	2.5	/experiments/knapen_AOT/AOT_stimuli/rescaled_final/0913_fw.mp4	0.0	92.72048091888428	2.5004100799560547
7	70.30225491523743	pulse	1	t		5.0	2.5	/experiments/knapen_AOT/AOT_stimuli/rescaled_final/0913_fw.mp4	0.0	93.90426087379456	
7	71.6188850402832	fix_post	2		12	5.0	2.5	/experiments/knapen_AOT/AOT_stimuli/rescaled_final/0913_fw.mp4	0.0	95.22089099884033	0.09997892379760742
8	71.71886396408081	fix_pre	0		120	6.0	2.5	blank	1.0	95.32086992263794	1.00018310546875
8	71.9024350643158	pulse	0	t		6.0	2.5	blank	1.0	95.50444102287292	
8	72.71904706954956	movie	1		300	6.0	2.5	blank	1.0	96.32105302810669	2.500330924987793
8	73.50270295143127	pulse	1	t		6.0	2.5	blank	1.0	97.1047089099884	
8	75.10287690162659	pulse	1	t		6.0	2.5	blank	1.0	98.70488286018372	
8	75.21937799453735	fix_post	2		12	6.0	2.5	blank	1.0	98.82138395309448	0.10007596015930176
9	75.31945395469666	fix_pre	0		120	7.0	2.5	/experiments/knapen_AOT/AOT_stimuli/rescaled_final/0895_rv.mp4	0.0	98.92145991325378	1.0001320838928223
9	76.31958603858948	movie	1		242	7.0	2.5	/experiments/knapen_AOT/AOT_stimuli/rescaled_final/0895_rv.mp4	0.0	99.9215919971466	2.492076873779297
9	76.70374488830566	pulse	1	t		7.0	2.5	/experiments/knapen_AOT/AOT_stimuli/rescaled_final/0895_rv.mp4	0.0	100.3057508468628	
9	78.30342984199524	pulse	1	t		7.0	2.5	/experiments/knapen_AOT/AOT_stimuli/rescaled_final/0895_rv.mp4	0.0	101.90543580055237	
9	78.81166291236877	fix_post	2		12	7.0	2.5	/experiments/knapen_AOT/AOT_stimuli/rescaled_final/0895_rv.mp4	0.0	102.4136688709259	0.09995412826538086
10	78.91161704063416	fix_pre	0		120	8.0	2.5	/experiments/knapen_AOT/AOT_stimuli/rescaled_final/1375_fw.mp4	0.0	102.51362299919128	1.0001378059387207
10	79.90376400947571	pulse	0	t		8.0	2.5	/experiments/knapen_AOT/AOT_stimuli/rescaled_final/1375_fw.mp4	0.0	103.50576996803284	
10	79.91175484657288	movie	1		244	8.0	2.5	/experiments/knapen_AOT/AOT_stimuli/rescaled_final/1375_fw.mp4	0.0	103.51376080513	2.508707046508789
10	81.50451397895813	pulse	1	t		8.0	2.5	/experiments/knapen_AOT/AOT_stimuli/rescaled_final/1375_fw.mp4	0.0	105.10651993751526	
10	82.42046189308167	fix_post	2		12	8.0	2.5	/experiments/knapen_AOT/AOT_stimuli/rescaled_final/1375_fw.mp4	0.0	106.0224678516388	0.10000300407409668
11	82.52046489715576	fix_pre	0		120	9.0	2.5	/experiments/knapen_AOT/AOT_stimuli/rescaled_final/1485_rv.mp4	0.0	106.12247085571289	1.000169038772583
11	83.09668207168579	pulse	0	t		9.0	2.5	/experiments/knapen_AOT/AOT_stimuli/rescaled_final/1485_rv.mp4	0.0	106.69868803024292	
11	83.52063393592834	movie	1		245	9.0	2.5	/experiments/knapen_AOT/AOT_stimuli/rescaled_final/1485_rv.mp4	0.0	107.12263989448547	2.5003609657287598
11	84.70448088645935	pulse	1	t		9.0	2.5	/experiments/knapen_AOT/AOT_stimuli/rescaled_final/1485_rv.mp4	0.0	108.30648684501648	
11	86.0209949016571	fix_post	2		12	9.0	2.5	/experiments/knapen_AOT/AOT_stimuli/rescaled_final/1485_rv.mp4	0.0	109.62300086021423	0.10004115104675293
12	86.12103605270386	fix_pre	0		120	10.0	2.5	/experiments/knapen_AOT/AOT_stimuli/rescaled_final/0202_rv.mp4	0.0	109.72304201126099	1.0001540184020996
12	86.29700088500977	pulse	0	t		10.0	2.5	/experiments/knapen_AOT/AOT_stimuli/rescaled_final/0202_rv.mp4	0.0	109.8990068435669	
12	87.12119007110596	movie	1		245	10.0	2.5	/experiments/knapen_AOT/AOT_stimuli/rescaled_final/0202_rv.mp4	0.0	110.72319602966309	2.500405788421631
12	87.8974449634552	pulse	1	t		10.0	2.5	/experiments/knapen_AOT/AOT_stimuli/rescaled_final/0202_rv.mp4	0.0	111.49945092201233	
12	89.50269985198975	pulse	1	t		10.0	2.5	/experiments/knapen_AOT/AOT_stimuli/rescaled_final/0202_rv.mp4	0.0	113.10470581054688	
12	89.62159585952759	fix_post	2		12	10.0	2.5	/experiments/knapen_AOT/AOT_stimuli/rescaled_final/0202_rv.mp4	0.0	113.22360181808472	0.09996604919433594
13	89.72156190872192	fix_pre	0		120	11.0	2.5	/experiments/knapen_AOT/AOT_stimuli/rescaled_final/0910_fw.mp4	0.0	113.32356786727905	1.0001449584960938
13	90.72170686721802	movie	1		242	11.0	2.5	/experiments/knapen_AOT/AOT_stimuli/rescaled_final/0910_fw.mp4	0.0	114.32371282577515	2.4920401573181152
13	91.09709906578064	pulse	1	t		11.0	2.5	/experiments/knapen_AOT/AOT_stimuli/rescaled_final/0910_fw.mp4	0.0	114.69910502433777	
13	92.69724106788635	pulse	1	t		11.0	2.5	/experiments/knapen_AOT/AOT_stimuli/rescaled_final/0910_fw.mp4	0.0	116.29924702644348	
13	93.21374702453613	fix_post	2		12	11.0	2.5	/experiments/knapen_AOT/AOT_stimuli/rescaled_final/0910_fw.mp4	0.0	116.81575298309326	0.10001802444458008
14	93.31376504898071	fix_pre	0		119	12.0	2.5	/experiments/knapen_AOT/AOT_stimuli/rescaled_final/0404_rv.mp4	0.0	116.91577100753784	0.9918508529663086
14	94.29741787910461	pulse	0	t		12.0	2.5	/experiments/knapen_AOT/AOT_stimuli/rescaled_final/0404_rv.mp4	0.0	117.89942383766174	
14	94.30561590194702	movie	1		245	12.0	2.5	/experiments/knapen_AOT/AOT_stimuli/rescaled_final/0404_rv.mp4	0.0	117.90762186050415	2.508625030517578
14	95.90144801139832	pulse	1	t		12.0	2.5	/experiments/knapen_AOT/AOT_stimuli/rescaled_final/0404_rv.mp4	0.0	119.50345396995544	
14	96.8142409324646	fix_post	2		12	12.0	2.5	/experiments/knapen_AOT/AOT_stimuli/rescaled_final/0404_rv.mp4	0.0	120.41624689102173	0.10003495216369629
15	96.9142758846283	fix_pre	0		120	13.0	2.5	blank	1.0	120.51628184318542	1.0001840591430664
15	97.49795889854431	pulse	0	t		13.0	2.5	blank	1.0	121.09996485710144	
15	97.91445994377136	movie	1		300	13.0	2.5	blank	1.0	121.51646590232849	2.500375986099243
15	99.09811305999756	pulse	1	t		13.0	2.5	blank	1.0	122.70011901855469	
15	100.4148359298706	fix_post	2		12	13.0	2.5	blank	1.0	124.01684188842773	0.09997892379760742
16	100.51481485366821	fix_pre	0		120	14.0	2.5	/experiments/knapen_AOT/AOT_stimuli/rescaled_final/0418_rv.mp4	0.0	124.11682081222534	1.0001461505889893
16	100.69838190078735	pulse	0	t		14.0	2.5	/experiments/knapen_AOT/AOT_stimuli/rescaled_final/0418_rv.mp4	0.0	124.30038785934448	
16	101.5149610042572	movie	1		244	14.0	2.5	/experiments/knapen_AOT/AOT_stimuli/rescaled_final/0418_rv.mp4	0.0	125.11696696281433	2.5003669261932373
16	102.29863595962524	pulse	1	t		14.0	2.5	/experiments/knapen_AOT/AOT_stimuli/rescaled_final/0418_rv.mp4	0.0	125.90064191818237	
16	103.8992178440094	pulse	1	t		14.0	2.5	/experiments/knapen_AOT/AOT_stimuli/rescaled_final/0418_rv.mp4	0.0	127.50122380256653	
16	104.01532793045044	fix_post	2		12	14.0	2.5	/experiments/knapen_AOT/AOT_stimuli/rescaled_final/0418_rv.mp4	0.0	127.61733388900757	0.1000521183013916
17	104.11538004875183	fix_pre	0		120	15.0	2.5	/experiments/knapen_AOT/AOT_stimuli/rescaled_final/1688_rv.mp4	0.0	127.71738600730896	1.000173807144165
17	105.115553855896	movie	1		243	15.0	2.5	/experiments/knapen_AOT/AOT_stimuli/rescaled_final/1688_rv.mp4	0.0	128.71755981445312	2.492098093032837
17	105.50003099441528	pulse	1	t		15.0	2.5	/experiments/knapen_AOT/AOT_stimuli/rescaled_final/1688_rv.mp4	0.0	129.1020369529724	
17	107.09931206703186	pulse	1	t		15.0	2.5	/experiments/knapen_AOT/AOT_stimuli/rescaled_final/1688_rv.mp4	0.0	130.701318025589	
17	107.60765194892883	fix_post	2		12	15.0	2.5	/experiments/knapen_AOT/AOT_stimuli/rescaled_final/1688_rv.mp4	0.0	131.20965790748596	0.09991908073425293
18	107.70757102966309	fix_pre	0		120	16.0	2.5	/experiments/knapen_AOT/AOT_stimuli/rescaled_final/1066_fw.mp4	0.0	131.30957698822021	1.0001559257507324
18	108.69953894615173	pulse	0	t		16.0	2.5	/experiments/knapen_AOT/AOT_stimuli/rescaled_final/1066_fw.mp4	0.0	132.30154490470886	
18	108.70772695541382	movie	1		245	16.0	2.5	/experiments/knapen_AOT/AOT_stimuli/rescaled_final/1066_fw.mp4	0.0	132.30973291397095	2.5087270736694336
18	110.30073189735413	pulse	1	t		16.0	2.5	/experiments/knapen_AOT/AOT_stimuli/rescaled_final/1066_fw.mp4	0.0	133.90273785591125	
18	111.21645402908325	fix_post	2		12	16.0	2.5	/experiments/knapen_AOT/AOT_stimuli/rescaled_final/1066_fw.mp4	0.0	134.81845998764038	0.10004281997680664
19	111.31649684906006	fix_pre	0		120	17.0	2.5	/experiments/knapen_AOT/AOT_stimuli/rescaled_final/0523_rv.mp4	0.0	134.9185028076172	1.0001270771026611
19	111.9000198841095	pulse	0	t		17.0	2.5	/experiments/knapen_AOT/AOT_stimuli/rescaled_final/0523_rv.mp4	0.0	135.50202584266663	
19	112.31662392616272	movie	1		244	17.0	2.5	/experiments/knapen_AOT/AOT_stimuli/rescaled_final/0523_rv.mp4	0.0	135.91862988471985	2.5003669261932373
19	113.50045204162598	pulse	1	t		17.0	2.5	/experiments/knapen_AOT/AOT_stimuli/rescaled_final/0523_rv.mp4	0.0	137.1024580001831	
19	114.81699085235596	fix_post	2		9	17.0	2.5	/experiments/knapen_AOT/AOT_stimuli/rescaled_final/0523_rv.mp4	0.0	138.4189968109131	0.10004210472106934
20	114.91703295707703	fix_pre	0		120	18.0	2.5	/experiments/knapen_AOT/AOT_stimuli/rescaled_final/2075_fw.mp4	0.0	138.51903891563416	1.0000929832458496
20	115.10050392150879	pulse	0	t		18.0	2.5	/experiments/knapen_AOT/AOT_stimuli/rescaled_final/2075_fw.mp4	0.0	138.70250988006592	
20	115.91712594032288	movie	1		244	18.0	2.5	/experiments/knapen_AOT/AOT_stimuli/rescaled_final/2075_fw.mp4	0.0	139.51913189888	2.5003960132598877
20	116.70086288452148	pulse	1	t		18.0	2.5	/experiments/knapen_AOT/AOT_stimuli/rescaled_final/2075_fw.mp4	0.0	140.3028688430786	
20	118.30112886428833	pulse	1	t		18.0	2.5	/experiments/knapen_AOT/AOT_stimuli/rescaled_final/2075_fw.mp4	0.0	141.90313482284546	
20	118.41752195358276	fix_post	2		12	18.0	2.5	/experiments/knapen_AOT/AOT_stimuli/rescaled_final/2075_fw.mp4	0.0	142.0195279121399	0.09998011589050293
21	118.51750206947327	fix_pre	0		120	19.0	2.5	blank	1.0	142.1195080280304	1.0002379417419434
21	119.51774001121521	movie	1		299	19.0	2.5	blank	1.0	143.11974596977234	2.491981029510498
21	119.90131688117981	pulse	1	t		19.0	2.5	blank	1.0	143.50332283973694	
21	121.5015139579773	pulse	1	t		19.0	2.5	blank	1.0	145.10351991653442	
21	122.00972104072571	fix_post	2		12	19.0	2.5	blank	1.0	145.61172699928284	0.10004401206970215
22	122.10976505279541	fix_pre	0		120	20.0	2.5	/experiments/knapen_AOT/AOT_stimuli/rescaled_final/0201_fw.mp4	0.0	145.71177101135254	1.0001029968261719
22	123.1017529964447	pulse	0	t		20.0	2.5	/experiments/knapen_AOT/AOT_stimuli/rescaled_final/0201_fw.mp4	0.0	146.70375895500183	
22	123.10986804962158	movie	1		245	20.0	2.5	/experiments/knapen_AOT/AOT_stimuli/rescaled_final/0201_fw.mp4	0.0	146.7118740081787	2.508683919906616
22	124.70341205596924	pulse	1	t		20.0	2.5	/experiments/knapen_AOT/AOT_stimuli/rescaled_final/0201_fw.mp4	0.0	148.30541801452637	
22	125.6185519695282	fix_post	2		12	20.0	2.5	/experiments/knapen_AOT/AOT_stimuli/rescaled_final/0201_fw.mp4	0.0	149.22055792808533	0.10002398490905762
23	125.71857595443726	fix_pre	0		120	21.0	2.5	/experiments/knapen_AOT/AOT_stimuli/rescaled_final/0923_fw.mp4	0.0	149.32058191299438	1.0001580715179443
23	126.3022449016571	pulse	0	t		21.0	2.5	/experiments/knapen_AOT/AOT_stimuli/rescaled_final/0923_fw.mp4	0.0	149.90425086021423	
23	126.7187340259552	movie	1		244	21.0	2.5	/experiments/knapen_AOT/AOT_stimuli/rescaled_final/0923_fw.mp4	0.0	150.32073998451233	2.5003859996795654
23	127.90248990058899	pulse	1	t		21.0	2.5	/experiments/knapen_AOT/AOT_stimuli/rescaled_final/0923_fw.mp4	0.0	151.50449585914612	
23	129.21912002563477	fix_post	2		12	21.0	2.5	/experiments/knapen_AOT/AOT_stimuli/rescaled_final/0923_fw.mp4	0.0	152.8211259841919	0.09999299049377441
24	129.31911301612854	fix_pre	0		120	22.0	2.5	/experiments/knapen_AOT/AOT_stimuli/rescaled_final/1730_rv.mp4	0.0	152.92111897468567	1.0001540184020996
24	129.50272488594055	pulse	0	t		22.0	2.5	/experiments/knapen_AOT/AOT_stimuli/rescaled_final/1730_rv.mp4	0.0	153.10473084449768	
24	130.31926703453064	movie	1		244	22.0	2.5	/experiments/knapen_AOT/AOT_stimuli/rescaled_final/1730_rv.mp4	0.0	153.92127299308777	2.500377893447876
24	131.10305905342102	pulse	1	t		22.0	2.5	/experiments/knapen_AOT/AOT_stimuli/rescaled_final/1730_rv.mp4	0.0	154.70506501197815	
24	132.7030098438263	pulse	1	t		22.0	2.5	/experiments/knapen_AOT/AOT_stimuli/rescaled_final/1730_rv.mp4	0.0	156.30501580238342	
24	132.81964492797852	fix_post	2		12	22.0	2.5	/experiments/knapen_AOT/AOT_stimuli/rescaled_final/1730_rv.mp4	0.0	156.42165088653564	0.10008597373962402
25	132.91973090171814	fix_pre	0		120	23.0	2.5	/experiments/knapen_AOT/AOT_stimuli/rescaled_final/1560_rv.mp4	0.0	156.52173686027527	1.0000691413879395
25	133.91980004310608	movie	1		244	23.0	2.5	/experiments/knapen_AOT/AOT_stimuli/rescaled_final/1560_rv.mp4	0.0	157.5218060016632	2.4920549392700195
25	134.30390286445618	pulse	1	t		23.0	2.5	/experiments/knapen_AOT/AOT_stimuli/rescaled_final/1560_rv.mp4	0.0	157.9059088230133	
25	135.903648853302	pulse	1	t		23.0	2.5	/experiments/knapen_AOT/AOT_stimuli/rescaled_final/1560_rv.mp4	0.0	159.50565481185913	
25	136.4118549823761	fix_post	2		12	23.0	2.5	/experiments/knapen_AOT/AOT_stimuli/rescaled_final/1560_rv.mp4	0.0	160.01386094093323	0.10001397132873535
26	136.51186895370483	fix_pre	0		120	24.0	2.5	/experiments/knapen_AOT/AOT_stimuli/rescaled_final/1922_fw.mp4	0.0	160.11387491226196	1.0001530647277832
26	137.50386095046997	pulse	0	t		24.0	2.5	/experiments/knapen_AOT/AOT_stimuli/rescaled_final/1922_fw.mp4	0.0	161.1058669090271	
26	137.51202201843262	movie	1		245	24.0	2.5	/experiments/knapen_AOT/AOT_stimuli/rescaled_final/1922_fw.mp4	0.0	161.11402797698975	2.5087249279022217
26	139.10524106025696	pulse	1	t		24.0	2.5	/experiments/knapen_AOT/AOT_stimuli/rescaled_final/1922_fw.mp4	0.0	162.7072470188141	
26	140.02074694633484	fix_post	2		12	24.0	2.5	/experiments/knapen_AOT/AOT_stimuli/rescaled_final/1922_fw.mp4	0.0	163.62275290489197	0.09998011589050293
27	140.12072706222534	fix_pre	0		120	25.0	2.5	/experiments/knapen_AOT/AOT_stimuli/rescaled_final/2052_fw.mp4	0.0	163.72273302078247	1.0001499652862549
27	140.6968288421631	pulse	0	t		25.0	2.5	/experiments/knapen_AOT/AOT_stimuli/rescaled_final/2052_fw.mp4	0.0	164.29883480072021	
27	141.1208770275116	movie	1		244	25.0	2.5	/experiments/knapen_AOT/AOT_stimuli/rescaled_final/2052_fw.mp4	0.0	164.72288298606873	2.5003960132598877
27	142.30085396766663	pulse	1	t		25.0	2.5	/experiments/knapen_AOT/AOT_stimuli/rescaled_final/2052_fw.mp4	0.0	165.90285992622375	
27	143.62127304077148	fix_post	2		12	25.0	2.5	/experiments/knapen_AOT/AOT_stimuli/rescaled_final/2052_fw.mp4	0.0	167.2232789993286	0.10005593299865723
28	143.72132897377014	fix_pre	0		120	26.0	2.5	/experiments/knapen_AOT/AOT_stimuli/rescaled_final/0425_fw.mp4	0.0	167.32333493232727	1.000087022781372
28	143.8972508907318	pulse	0	t		26.0	2.5	/experiments/knapen_AOT/AOT_stimuli/rescaled_final/0425_fw.mp4	0.0	167.49925684928894	
28	144.7214159965515	movie	1		245	26.0	2.5	/experiments/knapen_AOT/AOT_stimuli/rescaled_final/0425_fw.mp4	0.0	168.32342195510864	2.5004029273986816
28	145.49678587913513	pulse	1	t		26.0	2.5	/experiments/knapen_AOT/AOT_stimuli/rescaled_final/0425_fw.mp4	0.0	169.09879183769226	
28	147.09692406654358	pulse	1	t		26.0	2.5	/experiments/knapen_AOT/AOT_stimuli/rescaled_final/0425_fw.mp4	0.0	170.6989300251007	
28	147.2218189239502	fix_post	2		12	26.0	2.5	/experiments/knapen_AOT/AOT_stimuli/rescaled_final/0425_fw.mp4	0.0	170.82382488250732	0.09999299049377441
29	147.32181191444397	fix_pre	0		119	27.0	2.5	blank	1.0	170.9238178730011	0.9918291568756104
29	148.31364107131958	movie	1		300	27.0	2.5	blank	1.0	171.9156470298767	2.5003538131713867
29	148.6971950531006	pulse	1	t		27.0	2.5	blank	1.0	172.29920101165771	
29	150.29752898216248	pulse	1	t		27.0	2.5	blank	1.0	173.8995349407196	
29	150.81399488449097	fix_post	2		12	27.0	2.5	blank	1.0	174.4160008430481	0.10007596015930176
30	150.91407084465027	fix_pre	0		119	28.0	2.5	/experiments/knapen_AOT/AOT_stimuli/rescaled_final/1113_fw.mp4	0.0	174.5160768032074	0.991746187210083
30	151.89780497550964	pulse	0	t		28.0	2.5	/experiments/knapen_AOT/AOT_stimuli/rescaled_final/1113_fw.mp4	0.0	175.49981093406677	
30	151.90581703186035	movie	1		244	28.0	2.5	/experiments/knapen_AOT/AOT_stimuli/rescaled_final/1113_fw.mp4	0.0	175.50782299041748	2.5088069438934326
30	153.49854493141174	pulse	1	t		28.0	2.5	/experiments/knapen_AOT/AOT_stimuli/rescaled_final/1113_fw.mp4	0.0	177.10055088996887	
30	154.41462397575378	fix_post	2		12	28.0	2.5	/experiments/knapen_AOT/AOT_stimuli/rescaled_final/1113_fw.mp4	0.0	178.0166299343109	0.09992098808288574
31	154.51454496383667	fix_pre	0		120	29.0	2.5	/experiments/knapen_AOT/AOT_stimuli/rescaled_final/0940_rv.mp4	0.0	178.1165509223938	1.0001580715179443
31	155.09813284873962	pulse	0	t		29.0	2.5	/experiments/knapen_AOT/AOT_stimuli/rescaled_final/0940_rv.mp4	0.0	178.70013880729675	
31	155.51470303535461	movie	1		243	29.0	2.5	/experiments/knapen_AOT/AOT_stimuli/rescaled_final/0940_rv.mp4	0.0	179.11670899391174	2.500375986099243
31	156.69863891601562	pulse	1	t		29.0	2.5	/experiments/knapen_AOT/AOT_stimuli/rescaled_final/0940_rv.mp4	0.0	180.30064487457275	
31	158.01507902145386	fix_post	2		12	29.0	2.5	/experiments/knapen_AOT/AOT_stimuli/rescaled_final/0940_rv.mp4	0.0	181.617084980011	0.10004186630249023
32	158.11512088775635	fix_pre	0		120	30.0	2.5	/experiments/knapen_AOT/AOT_stimuli/rescaled_final/1185_fw.mp4	0.0	181.71712684631348	1.0001041889190674
32	158.29877305030823	pulse	0	t		30.0	2.5	/experiments/knapen_AOT/AOT_stimuli/rescaled_final/1185_fw.mp4	0.0	181.90077900886536	
32	159.11522507667542	movie	1		244	30.0	2.5	/experiments/knapen_AOT/AOT_stimuli/rescaled_final/1185_fw.mp4	0.0	182.71723103523254	2.5003697872161865
32	159.8989179134369	pulse	1	t		30.0	2.5	/experiments/knapen_AOT/AOT_stimuli/rescaled_final/1185_fw.mp4	0.0	183.50092387199402	
32	161.50265407562256	pulse	1	t		30.0	2.5	/experiments/knapen_AOT/AOT_stimuli/rescaled_final/1185_fw.mp4	0.0	185.1046600341797	
32	161.6155948638916	fix_post	2		12	30.0	2.5	/experiments/knapen_AOT/AOT_stimuli/rescaled_final/1185_fw.mp4	0.0	185.21760082244873	0.1000511646270752
33	161.71564602851868	fix_pre	0		120	31.0	2.5	/experiments/knapen_AOT/AOT_stimuli/rescaled_final/1689_fw.mp4	0.0	185.3176519870758	1.0001389980316162
33	162.7157850265503	movie	1		246	31.0	2.5	/experiments/knapen_AOT/AOT_stimuli/rescaled_final/1689_fw.mp4	0.0	186.31779098510742	2.4920108318328857
33	163.09984588623047	pulse	1	t		31.0	2.5	/experiments/knapen_AOT/AOT_stimuli/rescaled_final/1689_fw.mp4	0.0	186.7018518447876	
33	164.69969701766968	pulse	1	t		31.0	2.5	/experiments/knapen_AOT/AOT_stimuli/rescaled_final/1689_fw.mp4	0.0	188.3017029762268	
33	165.20779585838318	fix_post	2		12	31.0	2.5	/experiments/knapen_AOT/AOT_stimuli/rescaled_final/1689_fw.mp4	0.0	188.8098018169403	0.1000211238861084
34	165.3078169822693	fix_pre	0		120	32.0	2.5	/experiments/knapen_AOT/AOT_stimuli/rescaled_final/1885_rv.mp4	0.0	188.90982294082642	1.0001389980316162
34	166.29993200302124	pulse	0	t		32.0	2.5	/experiments/knapen_AOT/AOT_stimuli/rescaled_final/1885_rv.mp4	0.0	189.90193796157837	
34	166.3079559803009	movie	1		246	32.0	2.5	/experiments/knapen_AOT/AOT_stimuli/rescaled_final/1885_rv.mp4	0.0	189.90996193885803	2.5087718963623047
34	167.90066289901733	pulse	1	t		32.0	2.5	/experiments/knapen_AOT/AOT_stimuli/rescaled_final/1885_rv.mp4	0.0	191.50266885757446	
34	168.8167278766632	fix_post	2		12	32.0	2.5	/experiments/knapen_AOT/AOT_stimuli/rescaled_final/1885_rv.mp4	0.0	192.41873383522034	0.0999610424041748
35	168.91668891906738	fix_pre	0		120	33.0	2.5	/experiments/knapen_AOT/AOT_stimuli/rescaled_final/2114_rv.mp4	0.0	192.5186948776245	1.000162124633789
35	169.50040888786316	pulse	0	t		33.0	2.5	/experiments/knapen_AOT/AOT_stimuli/rescaled_final/2114_rv.mp4	0.0	193.1024148464203	
35	169.91685104370117	movie	1		247	33.0	2.5	/experiments/knapen_AOT/AOT_stimuli/rescaled_final/2114_rv.mp4	0.0	193.5188570022583	2.5003609657287598
35	171.10062503814697	pulse	1	t		33.0	2.5	/experiments/knapen_AOT/AOT_stimuli/rescaled_final/2114_rv.mp4	0.0	194.7026309967041	
35	172.41721200942993	fix_post	2		12	33.0	2.5	/experiments/knapen_AOT/AOT_stimuli/rescaled_final/2114_rv.mp4	0.0	196.01921796798706	0.10000395774841309
36	172.51721596717834	fix_pre	0		120	34.0	2.5	/experiments/knapen_AOT/AOT_stimuli/rescaled_final/1725_rv.mp4	0.0	196.11922192573547	1.0002410411834717
36	172.7009220123291	pulse	0	t		34.0	2.5	/experiments/knapen_AOT/AOT_stimuli/rescaled_final/1725_rv.mp4	0.0	196.30292797088623	
36	173.51745700836182	movie	1		239	34.0	2.5	/experiments/knapen_AOT/AOT_stimuli/rescaled_final/1725_rv.mp4	0.0	197.11946296691895	2.5002870559692383
36	174.30098700523376	pulse	1	t		34.0	2.5	/experiments/knapen_AOT/AOT_stimuli/rescaled_final/1725_rv.mp4	0.0	197.9029929637909	
36	175.9011209011078	pulse	1	t		34.0	2.5	/experiments/knapen_AOT/AOT_stimuli/rescaled_final/1725_rv.mp4	0.0	199.50312685966492	
36	176.01774406433105	fix_post	2		12	34.0	2.5	/experiments/knapen_AOT/AOT_stimuli/rescaled_final/1725_rv.mp4	0.0	199.61975002288818	0.10002493858337402
37	176.11776900291443	fix_pre	0		120	35.0	2.5	blank	1.0	199.71977496147156	1.000143051147461
37	177.1179120540619	movie	1		299	35.0	2.5	blank	1.0	200.71991801261902	2.492079019546509
37	177.5015799999237	pulse	1	t		35.0	2.5	blank	1.0	201.10358595848083	
37	179.10187602043152	pulse	1	t		35.0	2.5	blank	1.0	202.70388197898865	
37	179.6099910736084	fix_post	2		12	35.0	2.5	blank	1.0	203.21199703216553	0.09997296333312988
38	179.70996403694153	fix_pre	0		120	36.0	2.5	/experiments/knapen_AOT/AOT_stimuli/rescaled_final/1106_fw.mp4	0.0	203.31196999549866	1.000147819519043
38	180.70201802253723	pulse	0	t		36.0	2.5	/experiments/knapen_AOT/AOT_stimuli/rescaled_final/1106_fw.mp4	0.0	204.30402398109436	
38	180.71011185646057	movie	1		244	36.0	2.5	/experiments/knapen_AOT/AOT_stimuli/rescaled_final/1106_fw.mp4	0.0	204.3121178150177	2.5087101459503174
38	182.3028769493103	pulse	1	t		36.0	2.5	/experiments/knapen_AOT/AOT_stimuli/rescaled_final/1106_fw.mp4	0.0	205.90488290786743	
38	183.2188220024109	fix_post	2		12	36.0	2.5	/experiments/knapen_AOT/AOT_stimuli/rescaled_final/1106_fw.mp4	0.0	206.82082796096802	0.10005307197570801
39	183.3188750743866	fix_pre	0		120	37.0	2.5	/experiments/knapen_AOT/AOT_stimuli/rescaled_final/1686_rv.mp4	0.0	206.92088103294373	1.000119924545288
39	183.90254092216492	pulse	0	t		37.0	2.5	/experiments/knapen_AOT/AOT_stimuli/rescaled_final/1686_rv.mp4	0.0	207.50454688072205	
39	184.31899499893188	movie	1		244	37.0	2.5	/experiments/knapen_AOT/AOT_stimuli/rescaled_final/1686_rv.mp4	0.0	207.921000957489	2.5003819465637207
39	185.5028920173645	pulse	1	t		37.0	2.5	/experiments/knapen_AOT/AOT_stimuli/rescaled_final/1686_rv.mp4	0.0	209.10489797592163	
39	186.8193769454956	fix_post	2		12	37.0	2.5	/experiments/knapen_AOT/AOT_stimuli/rescaled_final/1686_rv.mp4	0.0	210.42138290405273	0.09999394416809082
40	186.9193708896637	fix_pre	0		120	38.0	2.5	/experiments/knapen_AOT/AOT_stimuli/rescaled_final/1765_rv.mp4	0.0	210.52137684822083	1.0002210140228271
40	187.10288286209106	pulse	0	t		38.0	2.5	/experiments/knapen_AOT/AOT_stimuli/rescaled_final/1765_rv.mp4	0.0	210.7048888206482	
40	187.91959190368652	movie	1		243	38.0	2.5	/experiments/knapen_AOT/AOT_stimuli/rescaled_final/1765_rv.mp4	0.0	211.52159786224365	2.500277042388916
40	188.70315098762512	pulse	1	t		38.0	2.5	/experiments/knapen_AOT/AOT_stimuli/rescaled_final/1765_rv.mp4	0.0	212.30515694618225	
40	190.30352997779846	pulse	1	t		38.0	2.5	/experiments/knapen_AOT/AOT_stimuli/rescaled_final/1765_rv.mp4	0.0	213.9055359363556	
40	190.41986894607544	fix_post	2		12	38.0	2.5	/experiments/knapen_AOT/AOT_stimuli/rescaled_final/1765_rv.mp4	0.0	214.02187490463257	0.10007500648498535
41	190.51994395256042	fix_pre	0		120	39.0	2.5	/experiments/knapen_AOT/AOT_stimuli/rescaled_final/0996_rv.mp4	0.0	214.12194991111755	1.000087022781372
41	191.5200309753418	movie	1		243	39.0	2.5	/experiments/knapen_AOT/AOT_stimuli/rescaled_final/0996_rv.mp4	0.0	215.12203693389893	2.4920639991760254
41	191.90417194366455	pulse	1	t		39.0	2.5	/experiments/knapen_AOT/AOT_stimuli/rescaled_final/0996_rv.mp4	0.0	215.50617790222168	
41	193.50400590896606	pulse	1	t		39.0	2.5	/experiments/knapen_AOT/AOT_stimuli/rescaled_final/0996_rv.mp4	0.0	217.1060118675232	
41	194.01209497451782	fix_post	2		12	39.0	2.5	/experiments/knapen_AOT/AOT_stimuli/rescaled_final/0996_rv.mp4	0.0	217.61410093307495	0.10007190704345703
42	194.11216688156128	fix_pre	0		120	40.0	2.5	blank	1.0	217.7141728401184	1.0001070499420166
42	195.1041078567505	pulse	0	t		40.0	2.5	blank	1.0	218.70611381530762	
42	195.1122739315033	movie	1		301	40.0	2.5	blank	1.0	218.71427989006042	2.5087339878082275
42	196.7043478488922	pulse	1	t		40.0	2.5	blank	1.0	220.30635380744934	
42	197.62100791931152	fix_post	2		12	40.0	2.5	blank	1.0	221.22301387786865	0.10010910034179688
43	197.72111701965332	fix_pre	0		120	41.0	2.5	/experiments/knapen_AOT/AOT_stimuli/rescaled_final/1472_rv.mp4	0.0	221.32312297821045	1.0000088214874268
43	198.29719305038452	pulse	0	t		41.0	2.5	/experiments/knapen_AOT/AOT_stimuli/rescaled_final/1472_rv.mp4	0.0	221.89919900894165	
43	198.72112584114075	movie	1		245	41.0	2.5	/experiments/knapen_AOT/AOT_stimuli/rescaled_final/1472_rv.mp4	0.0	222.32313179969788	2.5003721714019775
43	199.9050259590149	pulse	1	t		41.0	2.5	/experiments/knapen_AOT/AOT_stimuli/rescaled_final/1472_rv.mp4	0.0	223.50703191757202	
43	201.22149801254272	fix_post	2		12	41.0	2.5	/experiments/knapen_AOT/AOT_stimuli/rescaled_final/1472_rv.mp4	0.0	224.82350397109985	0.1000070571899414
44	201.32150506973267	fix_pre	0		120	42.0	2.5	/experiments/knapen_AOT/AOT_stimuli/rescaled_final/0024_rv.mp4	0.0	224.9235110282898	1.0001659393310547
44	201.4975769519806	pulse	0	t		42.0	2.5	/experiments/knapen_AOT/AOT_stimuli/rescaled_final/0024_rv.mp4	0.0	225.09958291053772	
44	202.32167100906372	movie	1		244	42.0	2.5	/experiments/knapen_AOT/AOT_stimuli/rescaled_final/0024_rv.mp4	0.0	225.92367696762085	2.5003888607025146
44	203.09783387184143	pulse	1	t		42.0	2.5	/experiments/knapen_AOT/AOT_stimuli/rescaled_final/0024_rv.mp4	0.0	226.69983983039856	
44	204.69735598564148	pulse	1	t		42.0	2.5	/experiments/knapen_AOT/AOT_stimuli/rescaled_final/0024_rv.mp4	0.0	228.2993619441986	
44	204.82205986976624	fix_post	2		12	42.0	2.5	/experiments/knapen_AOT/AOT_stimuli/rescaled_final/0024_rv.mp4	0.0	228.42406582832336	0.09998798370361328
45	204.92204785346985	fix_pre	0		120	43.0	2.5	/experiments/knapen_AOT/AOT_stimuli/rescaled_final/0625_rv.mp4	0.0	228.52405381202698	1.0001730918884277
45	205.92222094535828	movie	1		242	43.0	2.5	/experiments/knapen_AOT/AOT_stimuli/rescaled_final/0625_rv.mp4	0.0	229.5242269039154	2.492037057876587
45	206.29740285873413	pulse	1	t		43.0	2.5	/experiments/knapen_AOT/AOT_stimuli/rescaled_final/0625_rv.mp4	0.0	229.89940881729126	
45	207.89788699150085	pulse	1	t		43.0	2.5	/experiments/knapen_AOT/AOT_stimuli/rescaled_final/0625_rv.mp4	0.0	231.49989295005798	
45	208.41425800323486	fix_post	2		12	43.0	2.5	/experiments/knapen_AOT/AOT_stimuli/rescaled_final/0625_rv.mp4	0.0	232.016263961792	0.10000085830688477
46	208.51425886154175	fix_pre	0		119	44.0	2.5	/experiments/knapen_AOT/AOT_stimuli/rescaled_final/1169_rv.mp4	0.0	232.11626482009888	0.9918370246887207
46	209.49795699119568	pulse	0	t		44.0	2.5	/experiments/knapen_AOT/AOT_stimuli/rescaled_final/1169_rv.mp4	0.0	233.0999629497528	
46	209.50609588623047	movie	1		246	44.0	2.5	/experiments/knapen_AOT/AOT_stimuli/rescaled_final/1169_rv.mp4	0.0	233.1081018447876	2.508695125579834
46	211.09889006614685	pulse	1	t		44.0	2.5	/experiments/knapen_AOT/AOT_stimuli/rescaled_final/1169_rv.mp4	0.0	234.70089602470398	
46	212.0147910118103	fix_post	2		12	44.0	2.5	/experiments/knapen_AOT/AOT_stimuli/rescaled_final/1169_rv.mp4	0.0	235.61679697036743	0.10002589225769043
47	212.114816904068	fix_pre	0		120	45.0	2.5	/experiments/knapen_AOT/AOT_stimuli/rescaled_final/1707_rv.mp4	0.0	235.71682286262512	1.000169038772583
47	212.6985309123993	pulse	0	t		45.0	2.5	/experiments/knapen_AOT/AOT_stimuli/rescaled_final/1707_rv.mp4	0.0	236.30053687095642	
47	213.11498594284058	movie	1		244	45.0	2.5	/experiments/knapen_AOT/AOT_stimuli/rescaled_final/1707_rv.mp4	0.0	236.7169919013977	2.500339984893799
47	214.29872584342957	pulse	1	t		45.0	2.5	/experiments/knapen_AOT/AOT_stimuli/rescaled_final/1707_rv.mp4	0.0	237.9007318019867	
47	215.61532592773438	fix_post	2		12	45.0	2.5	/experiments/knapen_AOT/AOT_stimuli/rescaled_final/1707_rv.mp4	0.0	239.2173318862915	0.10001993179321289
48	215.7153458595276	fix_pre	0		120	46.0	2.5	/experiments/knapen_AOT/AOT_stimuli/rescaled_final/1723_fw.mp4	0.0	239.31735181808472	1.0001730918884277
48	215.89889407157898	pulse	0	t		46.0	2.5	/experiments/knapen_AOT/AOT_stimuli/rescaled_final/1723_fw.mp4	0.0	239.5009000301361	
48	216.71551895141602	movie	1		244	46.0	2.5	/experiments/knapen_AOT/AOT_stimuli/rescaled_final/1723_fw.mp4	0.0	240.31752490997314	2.500325918197632
48	217.49911904335022	pulse	1	t		46.0	2.5	/experiments/knapen_AOT/AOT_stimuli/rescaled_final/1723_fw.mp4	0.0	241.10112500190735	
48	219.09923005104065	pulse	1	t		46.0	2.5	/experiments/knapen_AOT/AOT_stimuli/rescaled_final/1723_fw.mp4	0.0	242.70123600959778	
48	219.21584486961365	fix_post	2		12	46.0	2.5	/experiments/knapen_AOT/AOT_stimuli/rescaled_final/1723_fw.mp4	0.0	242.81785082817078	0.10000920295715332
49	219.3158540725708	fix_pre	0		120	47.0	2.5	blank	1.0	242.91786003112793	1.0001819133758545
49	220.31603598594666	movie	1		299	47.0	2.5	blank	1.0	243.91804194450378	2.4920620918273926
49	220.69966292381287	pulse	1	t		47.0	2.5	blank	1.0	244.30166888237	
49	222.29982495307922	pulse	1	t		47.0	2.5	blank	1.0	245.90183091163635	
49	222.80809807777405	fix_post	2		12	47.0	2.5	blank	1.0	246.41010403633118	0.10003781318664551
50	222.9081358909607	fix_pre	0		120	48.0	2.5	/experiments/knapen_AOT/AOT_stimuli/rescaled_final/1958_fw.mp4	0.0	246.51014184951782	1.000136137008667
50	223.9000279903412	pulse	0	t		48.0	2.5	/experiments/knapen_AOT/AOT_stimuli/rescaled_final/1958_fw.mp4	0.0	247.50203394889832	
50	223.90827202796936	movie	1		244	48.0	2.5	/experiments/knapen_AOT/AOT_stimuli/rescaled_final/1958_fw.mp4	0.0	247.5102779865265	2.5086448192596436
50	225.50177001953125	pulse	1	t		48.0	2.5	/experiments/knapen_AOT/AOT_stimuli/rescaled_final/1958_fw.mp4	0.0	249.10377597808838	
50	226.416916847229	fix_post	2		12	48.0	2.5	/experiments/knapen_AOT/AOT_stimuli/rescaled_final/1958_fw.mp4	0.0	250.01892280578613	0.1000370979309082
51	226.5169539451599	fix_pre	0		120	49.0	2.5	/experiments/knapen_AOT/AOT_stimuli/rescaled_final/0535_fw.mp4	0.0	250.11895990371704	1.0002069473266602
51	227.10055994987488	pulse	0	t		49.0	2.5	/experiments/knapen_AOT/AOT_stimuli/rescaled_final/0535_fw.mp4	0.0	250.702565908432	
51	227.51716089248657	movie	1		244	49.0	2.5	/experiments/knapen_AOT/AOT_stimuli/rescaled_final/0535_fw.mp4	0.0	251.1191668510437	2.5003631114959717
51	228.70085787773132	pulse	1	t		49.0	2.5	/experiments/knapen_AOT/AOT_stimuli/rescaled_final/0535_fw.mp4	0.0	252.30286383628845	
51	230.01752400398254	fix_post	2		12	49.0	2.5	/experiments/knapen_AOT/AOT_stimuli/rescaled_final/0535_fw.mp4	0.0	253.61952996253967	0.0999610424041748
52	230.11748504638672	fix_pre	0		120	50.0	2.5	/experiments/knapen_AOT/AOT_stimuli/rescaled_final/1105_rv.mp4	0.0	253.71949100494385	1.0001599788665771
52	230.30101490020752	pulse	0	t		50.0	2.5	/experiments/knapen_AOT/AOT_stimuli/rescaled_final/1105_rv.mp4	0.0	253.90302085876465	
52	231.1176450252533	movie	1		243	50.0	2.5	/experiments/knapen_AOT/AOT_stimuli/rescaled_final/1105_rv.mp4	0.0	254.71965098381042	2.5003600120544434
52	231.90139198303223	pulse	1	t		50.0	2.5	/experiments/knapen_AOT/AOT_stimuli/rescaled_final/1105_rv.mp4	0.0	255.50339794158936	
52	233.5013129711151	pulse	1	t		50.0	2.5	/experiments/knapen_AOT/AOT_stimuli/rescaled_final/1105_rv.mp4	0.0	257.10331892967224	
52	233.61800503730774	fix_post	2		12	50.0	2.5	/experiments/knapen_AOT/AOT_stimuli/rescaled_final/1105_rv.mp4	0.0	257.22001099586487	0.1000068187713623
53	233.7180118560791	fix_pre	0		120	51.0	2.5	/experiments/knapen_AOT/AOT_stimuli/rescaled_final/0257_rv.mp4	0.0	257.32001781463623	1.0002140998840332
53	234.71822595596313	movie	1		237	51.0	2.5	/experiments/knapen_AOT/AOT_stimuli/rescaled_final/0257_rv.mp4	0.0	258.32023191452026	2.491986036300659
53	235.1030719280243	pulse	1	t		51.0	2.5	/experiments/knapen_AOT/AOT_stimuli/rescaled_final/0257_rv.mp4	0.0	258.7050778865814	
53	236.70192193984985	pulse	1	t		51.0	2.5	/experiments/knapen_AOT/AOT_stimuli/rescaled_final/0257_rv.mp4	0.0	260.303927898407	
53	237.2102119922638	fix_post	2		12	51.0	2.5	/experiments/knapen_AOT/AOT_stimuli/rescaled_final/0257_rv.mp4	0.0	260.8122179508209	0.10001707077026367
54	237.31022906303406	fix_pre	0		120	52.0	2.5	/experiments/knapen_AOT/AOT_stimuli/rescaled_final/1729_fw.mp4	0.0	260.9122350215912	1.0001678466796875
54	238.3021879196167	pulse	0	t		52.0	2.5	/experiments/knapen_AOT/AOT_stimuli/rescaled_final/1729_fw.mp4	0.0	261.9041938781738	
54	238.31039690971375	movie	1		245	52.0	2.5	/experiments/knapen_AOT/AOT_stimuli/rescaled_final/1729_fw.mp4	0.0	261.9124028682709	2.508700132369995
54	239.90320086479187	pulse	1	t		52.0	2.5	/experiments/knapen_AOT/AOT_stimuli/rescaled_final/1729_fw.mp4	0.0	263.505206823349	
54	240.81909704208374	fix_post	2		12	52.0	2.5	/experiments/knapen_AOT/AOT_stimuli/rescaled_final/1729_fw.mp4	0.0	264.42110300064087	0.10000300407409668
55	240.91910004615784	fix_pre	0		120	53.0	2.5	/experiments/knapen_AOT/AOT_stimuli/rescaled_final/0872_rv.mp4	0.0	264.52110600471497	1.0001378059387207
55	241.502788066864	pulse	0	t		53.0	2.5	/experiments/knapen_AOT/AOT_stimuli/rescaled_final/0872_rv.mp4	0.0	265.10479402542114	
55	241.91923785209656	movie	1		245	53.0	2.5	/experiments/knapen_AOT/AOT_stimuli/rescaled_final/0872_rv.mp4	0.0	265.5212438106537	2.5003821849823
55	243.10305190086365	pulse	1	t		53.0	2.5	/experiments/knapen_AOT/AOT_stimuli/rescaled_final/0872_rv.mp4	0.0	266.7050578594208	
55	244.41962003707886	fix_post	2		12	53.0	2.5	/experiments/knapen_AOT/AOT_stimuli/rescaled_final/0872_rv.mp4	0.0	268.021625995636	0.10001897811889648
56	244.51963901519775	fix_pre	0		120	54.0	2.5	/experiments/knapen_AOT/AOT_stimuli/rescaled_final/0916_rv.mp4	0.0	268.1216449737549	1.0001399517059326
56	244.70314288139343	pulse	0	t		54.0	2.5	/experiments/knapen_AOT/AOT_stimuli/rescaled_final/0916_rv.mp4	0.0	268.30514883995056	
56	245.5197789669037	movie	1		243	54.0	2.5	/experiments/knapen_AOT/AOT_stimuli/rescaled_final/0916_rv.mp4	0.0	269.1217849254608	2.5003910064697266
56	246.3035500049591	pulse	1	t		54.0	2.5	/experiments/knapen_AOT/AOT_stimuli/rescaled_final/0916_rv.mp4	0.0	269.90555596351624	
56	247.90369391441345	pulse	1	t		54.0	2.5	/experiments/knapen_AOT/AOT_stimuli/rescaled_final/0916_rv.mp4	0.0	271.5056998729706	
56	248.0201699733734	fix_post	2		12	54.0	2.5	/experiments/knapen_AOT/AOT_stimuli/rescaled_final/0916_rv.mp4	0.0	271.62217593193054	0.10003209114074707
57	248.12020206451416	fix_pre	0		120	55.0	2.5	/experiments/knapen_AOT/AOT_stimuli/rescaled_final/1095_fw.mp4	0.0	271.7222080230713	1.0001189708709717
57	249.12032103538513	movie	1		244	55.0	2.5	/experiments/knapen_AOT/AOT_stimuli/rescaled_final/1095_fw.mp4	0.0	272.72232699394226	2.492020845413208
57	249.5044538974762	pulse	1	t		55.0	2.5	/experiments/knapen_AOT/AOT_stimuli/rescaled_final/1095_fw.mp4	0.0	273.1064598560333	
57	251.09685587882996	pulse	1	t		55.0	2.5	/experiments/knapen_AOT/AOT_stimuli/rescaled_final/1095_fw.mp4	0.0	274.6988618373871	
57	251.61234188079834	fix_post	2		12	55.0	2.5	/experiments/knapen_AOT/AOT_stimuli/rescaled_final/1095_fw.mp4	0.0	275.21434783935547	0.10008001327514648
58	251.7124218940735	fix_pre	0		120	56.0	2.5	blank	1.0	275.3144278526306	1.0001001358032227
58	252.69684290885925	pulse	0	t		56.0	2.5	blank	1.0	276.2988488674164	
58	252.7125220298767	movie	1		301	56.0	2.5	blank	1.0	276.31452798843384	2.50872802734375
58	254.29726791381836	pulse	1	t		56.0	2.5	blank	1.0	277.8992738723755	
58	255.22125005722046	fix_post	2		12	56.0	2.5	blank	1.0	278.8232560157776	0.09996199607849121
59	255.32121205329895	fix_pre	0		120	57.0	2.5	/experiments/knapen_AOT/AOT_stimuli/rescaled_final/1544_rv.mp4	0.0	278.9232180118561	1.0002129077911377
59	255.89739298820496	pulse	0	t		57.0	2.5	/experiments/knapen_AOT/AOT_stimuli/rescaled_final/1544_rv.mp4	0.0	279.4993989467621	
59	256.3214249610901	movie	1		244	57.0	2.5	/experiments/knapen_AOT/AOT_stimuli/rescaled_final/1544_rv.mp4	0.0	279.9234309196472	2.5003058910369873
59	257.49734687805176	pulse	1	t		57.0	2.5	/experiments/knapen_AOT/AOT_stimuli/rescaled_final/1544_rv.mp4	0.0	281.0993528366089	
59	258.8217308521271	fix_post	2		12	57.0	2.5	/experiments/knapen_AOT/AOT_stimuli/rescaled_final/1544_rv.mp4	0.0	282.4237368106842	0.1000511646270752
60	258.92178201675415	fix_pre	0		120	58.0	2.5	/experiments/knapen_AOT/AOT_stimuli/rescaled_final/1922_rv.mp4	0.0	282.5237879753113	1.0001399517059326
60	259.09701895713806	pulse	0	t		58.0	2.5	/experiments/knapen_AOT/AOT_stimuli/rescaled_final/1922_rv.mp4	0.0	282.6990249156952	
60	259.9219219684601	movie	1		244	58.0	2.5	/experiments/knapen_AOT/AOT_stimuli/rescaled_final/1922_rv.mp4	0.0	283.5239279270172	2.5004119873046875
60	260.6971859931946	pulse	1	t		58.0	2.5	/experiments/knapen_AOT/AOT_stimuli/rescaled_final/1922_rv.mp4	0.0	284.2991919517517	
60	262.29742097854614	pulse	1	t		58.0	2.5	/experiments/knapen_AOT/AOT_stimuli/rescaled_final/1922_rv.mp4	0.0	285.89942693710327	
60	262.42233395576477	fix_post	2		12	58.0	2.5	/experiments/knapen_AOT/AOT_stimuli/rescaled_final/1922_rv.mp4	0.0	286.0243399143219	0.09999299049377441
61	262.52232694625854	fix_pre	0		120	59.0	2.5	/experiments/knapen_AOT/AOT_stimuli/rescaled_final/1838_rv.mp4	0.0	286.1243329048157	1.00018310546875
61	263.5225100517273	movie	1		242	59.0	2.5	/experiments/knapen_AOT/AOT_stimuli/rescaled_final/1838_rv.mp4	0.0	287.1245160102844	2.492076873779297
61	263.8978159427643	pulse	1	t		59.0	2.5	/experiments/knapen_AOT/AOT_stimuli/rescaled_final/1838_rv.mp4	0.0	287.4998219013214	
61	265.4980330467224	pulse	1	t		59.0	2.5	/experiments/knapen_AOT/AOT_stimuli/rescaled_final/1838_rv.mp4	0.0	289.10003900527954	
61	266.0145869255066	fix_post	2		12	59.0	2.5	/experiments/knapen_AOT/AOT_stimuli/rescaled_final/1838_rv.mp4	0.0	289.6165928840637	0.09992599487304688
62	266.11451292037964	fix_pre	0		119	60.0	2.5	/experiments/knapen_AOT/AOT_stimuli/rescaled_final/1700_fw.mp4	0.0	289.71651887893677	0.9918191432952881
62	267.0981390476227	pulse	0	t		60.0	2.5	/experiments/knapen_AOT/AOT_stimuli/rescaled_final/1700_fw.mp4	0.0	290.7001450061798	
62	267.1063320636749	movie	1		244	60.0	2.5	/experiments/knapen_AOT/AOT_stimuli/rescaled_final/1700_fw.mp4	0.0	290.70833802223206	2.508694887161255
62	268.6993260383606	pulse	1	t		60.0	2.5	/experiments/knapen_AOT/AOT_stimuli/rescaled_final/1700_fw.mp4	0.0	292.3013319969177	
62	269.6150269508362	fix_post	2		12	60.0	2.5	/experiments/knapen_AOT/AOT_stimuli/rescaled_final/1700_fw.mp4	0.0	293.2170329093933	0.10001111030578613
63	269.71503806114197	fix_pre	0		120	61.0	2.5	blank	1.0	293.3170440196991	1.000168800354004
63	270.2987689971924	pulse	0	t		61.0	2.5	blank	1.0	293.9007749557495	
63	270.715206861496	movie	1		300	61.0	2.5	blank	1.0	294.3172128200531	2.5004119873046875
63	271.8989369869232	pulse	1	t		61.0	2.5	blank	1.0	295.50094294548035	
63	273.21561884880066	fix_post	2		12	61.0	2.5	blank	1.0	296.8176248073578	0.1000051498413086
64	273.31562399864197	fix_pre	0		120	62.0	2.5	/experiments/knapen_AOT/AOT_stimuli/rescaled_final/0625_fw.mp4	0.0	296.9176299571991	1.0001239776611328
64	273.49913597106934	pulse	0	t		62.0	2.5	/experiments/knapen_AOT/AOT_stimuli/rescaled_final/0625_fw.mp4	0.0	297.10114192962646	
64	274.3157479763031	movie	1		243	62.0	2.5	/experiments/knapen_AOT/AOT_stimuli/rescaled_final/0625_fw.mp4	0.0	297.91775393486023	2.500356912612915
64	275.0994210243225	pulse	1	t		62.0	2.5	/experiments/knapen_AOT/AOT_stimuli/rescaled_final/0625_fw.mp4	0.0	298.70142698287964	
64	276.69963693618774	pulse	1	t		62.0	2.5	/experiments/knapen_AOT/AOT_stimuli/rescaled_final/0625_fw.mp4	0.0	300.3016428947449	
64	276.816104888916	fix_post	2		12	62.0	2.5	/experiments/knapen_AOT/AOT_stimuli/rescaled_final/0625_fw.mp4	0.0	300.41811084747314	0.10007905960083008
65	276.91618394851685	fix_pre	0		119	63.0	2.5	/experiments/knapen_AOT/AOT_stimuli/rescaled_final/0996_fw.mp4	0.0	300.518189907074	0.9918200969696045
65	277.90800404548645	movie	1		245	63.0	2.5	/experiments/knapen_AOT/AOT_stimuli/rescaled_final/0996_fw.mp4	0.0	301.5100100040436	2.5003128051757812
65	278.2999119758606	pulse	1	t		63.0	2.5	/experiments/knapen_AOT/AOT_stimuli/rescaled_final/0996_fw.mp4	0.0	301.9019179344177	
65	279.90007495880127	pulse	1	t		63.0	2.5	/experiments/knapen_AOT/AOT_stimuli/rescaled_final/0996_fw.mp4	0.0	303.5020809173584	
65	280.40831685066223	fix_post	2		12	63.0	2.5	/experiments/knapen_AOT/AOT_stimuli/rescaled_final/0996_fw.mp4	0.0	304.01032280921936	0.10004615783691406
66	280.50836300849915	fix_pre	0		120	64.0	2.5	/experiments/knapen_AOT/AOT_stimuli/rescaled_final/0207_rv.mp4	0.0	304.1103689670563	1.0001189708709717
66	281.5003249645233	pulse	0	t		64.0	2.5	/experiments/knapen_AOT/AOT_stimuli/rescaled_final/0207_rv.mp4	0.0	305.10233092308044	
66	281.5084819793701	movie	1		245	64.0	2.5	/experiments/knapen_AOT/AOT_stimuli/rescaled_final/0207_rv.mp4	0.0	305.11048793792725	2.5086960792541504
66	283.1012270450592	pulse	1	t		64.0	2.5	/experiments/knapen_AOT/AOT_stimuli/rescaled_final/0207_rv.mp4	0.0	306.70323300361633	
66	284.01717805862427	fix_post	2		12	64.0	2.5	/experiments/knapen_AOT/AOT_stimuli/rescaled_final/0207_rv.mp4	0.0	307.6191840171814	0.10006880760192871
67	284.1172468662262	fix_pre	0		120	65.0	2.5	/experiments/knapen_AOT/AOT_stimuli/rescaled_final/0910_rv.mp4	0.0	307.7192528247833	1.0001280307769775
67	284.70088505744934	pulse	0	t		65.0	2.5	/experiments/knapen_AOT/AOT_stimuli/rescaled_final/0910_rv.mp4	0.0	308.30289101600647	
67	285.1173748970032	movie	1		243	65.0	2.5	/experiments/knapen_AOT/AOT_stimuli/rescaled_final/0910_rv.mp4	0.0	308.7193808555603	2.500326156616211
67	286.3011200428009	pulse	1	t		65.0	2.5	/experiments/knapen_AOT/AOT_stimuli/rescaled_final/0910_rv.mp4	0.0	309.90312600135803	
67	287.6177010536194	fix_post	2		12	65.0	2.5	/experiments/knapen_AOT/AOT_stimuli/rescaled_final/0910_rv.mp4	0.0	311.2197070121765	0.10004687309265137
68	287.71774792671204	fix_pre	0		120	66.0	2.5	/experiments/knapen_AOT/AOT_stimuli/rescaled_final/0599_fw.mp4	0.0	311.31975388526917	1.0001330375671387
68	287.901291847229	pulse	0	t		66.0	2.5	/experiments/knapen_AOT/AOT_stimuli/rescaled_final/0599_fw.mp4	0.0	311.50329780578613	
68	288.7178809642792	movie	1		244	66.0	2.5	/experiments/knapen_AOT/AOT_stimuli/rescaled_final/0599_fw.mp4	0.0	312.3198869228363	2.5003600120544434
68	289.5015959739685	pulse	1	t		66.0	2.5	/experiments/knapen_AOT/AOT_stimuli/rescaled_final/0599_fw.mp4	0.0	313.10360193252563	
68	291.10189390182495	pulse	1	t		66.0	2.5	/experiments/knapen_AOT/AOT_stimuli/rescaled_final/0599_fw.mp4	0.0	314.7038998603821	
68	291.2182409763336	fix_post	2		12	66.0	2.5	/experiments/knapen_AOT/AOT_stimuli/rescaled_final/0599_fw.mp4	0.0	314.82024693489075	0.1000208854675293
69	291.31826186180115	fix_pre	0		120	67.0	2.5	/experiments/knapen_AOT/AOT_stimuli/rescaled_final/1686_fw.mp4	0.0	314.9202678203583	1.0001611709594727
69	292.3184230327606	movie	1		243	67.0	2.5	/experiments/knapen_AOT/AOT_stimuli/rescaled_final/1686_fw.mp4	0.0	315.92042899131775	2.4920148849487305
69	292.70347690582275	pulse	1	t		67.0	2.5	/experiments/knapen_AOT/AOT_stimuli/rescaled_final/1686_fw.mp4	0.0	316.3054828643799	
69	294.30228900909424	pulse	1	t		67.0	2.5	/experiments/knapen_AOT/AOT_stimuli/rescaled_final/1686_fw.mp4	0.0	317.90429496765137	
69	294.81043791770935	fix_post	2		12	67.0	2.5	/experiments/knapen_AOT/AOT_stimuli/rescaled_final/1686_fw.mp4	0.0	318.4124438762665	0.10003304481506348
70	294.9104709625244	fix_pre	0		120	68.0	2.5	/experiments/knapen_AOT/AOT_stimuli/rescaled_final/0905_fw.mp4	0.0	318.51247692108154	1.0002050399780273
70	295.90261602401733	pulse	0	t		68.0	2.5	/experiments/knapen_AOT/AOT_stimuli/rescaled_final/0905_fw.mp4	0.0	319.50462198257446	
70	295.91067600250244	movie	1		246	68.0	2.5	/experiments/knapen_AOT/AOT_stimuli/rescaled_final/0905_fw.mp4	0.0	319.51268196105957	2.508650064468384
70	297.5032739639282	pulse	1	t		68.0	2.5	/experiments/knapen_AOT/AOT_stimuli/rescaled_final/0905_fw.mp4	0.0	321.10527992248535	
70	298.4193260669708	fix_post	2		12	68.0	2.5	/experiments/knapen_AOT/AOT_stimuli/rescaled_final/0905_fw.mp4	0.0	322.02133202552795	0.0999917984008789
71	298.5193178653717	fix_pre	0		120	69.0	2.5	/experiments/knapen_AOT/AOT_stimuli/rescaled_final/0385_rv.mp4	0.0	322.12132382392883	1.000197172164917
71	299.10296392440796	pulse	0	t		69.0	2.5	/experiments/knapen_AOT/AOT_stimuli/rescaled_final/0385_rv.mp4	0.0	322.7049698829651	
71	299.5195150375366	movie	1		244	69.0	2.5	/experiments/knapen_AOT/AOT_stimuli/rescaled_final/0385_rv.mp4	0.0	323.12152099609375	2.5003550052642822
71	300.7033019065857	pulse	1	t		69.0	2.5	/experiments/knapen_AOT/AOT_stimuli/rescaled_final/0385_rv.mp4	0.0	324.3053078651428	
71	302.0198700428009	fix_post	2		12	69.0	2.5	/experiments/knapen_AOT/AOT_stimuli/rescaled_final/0385_rv.mp4	0.0	325.62187600135803	0.10002303123474121
72	302.11989307403564	fix_pre	0		120	70.0	2.5	blank	1.0	325.7218990325928	1.0001587867736816
72	302.3033790588379	pulse	0	t		70.0	2.5	blank	1.0	325.905385017395	
72	303.1200518608093	movie	1		300	70.0	2.5	blank	1.0	326.72205781936646	2.500371217727661
72	303.90370988845825	pulse	1	t		70.0	2.5	blank	1.0	327.5057158470154	
72	305.50393199920654	pulse	1	t		70.0	2.5	blank	1.0	329.1059379577637	
72	305.620423078537	fix_post	2		12	70.0	2.5	blank	1.0	329.2224290370941	0.09998178482055664
73	305.72040486335754	fix_pre	0		120	71.0	2.5	/experiments/knapen_AOT/AOT_stimuli/rescaled_final/1093_rv.mp4	0.0	329.3224108219147	1.0002000331878662
73	306.7206048965454	movie	1		244	71.0	2.5	/experiments/knapen_AOT/AOT_stimuli/rescaled_final/1093_rv.mp4	0.0	330.32261085510254	2.49200701713562
73	307.1048889160156	pulse	1	t		71.0	2.5	/experiments/knapen_AOT/AOT_stimuli/rescaled_final/1093_rv.mp4	0.0	330.70689487457275	
73	308.7045040130615	pulse	1	t		71.0	2.5	/experiments/knapen_AOT/AOT_stimuli/rescaled_final/1093_rv.mp4	0.0	332.30650997161865	
73	309.21261191368103	fix_post	2		12	71.0	2.5	/experiments/knapen_AOT/AOT_stimuli/rescaled_final/1093_rv.mp4	0.0	332.81461787223816	0.10003209114074707
74	309.3126440048218	fix_pre	0		120	72.0	2.5	/experiments/knapen_AOT/AOT_stimuli/rescaled_final/1009_fw.mp4	0.0	332.9146499633789	1.0001089572906494
74	310.30464601516724	pulse	0	t		72.0	2.5	/experiments/knapen_AOT/AOT_stimuli/rescaled_final/1009_fw.mp4	0.0	333.90665197372437	
74	310.3127529621124	movie	1		246	72.0	2.5	/experiments/knapen_AOT/AOT_stimuli/rescaled_final/1009_fw.mp4	0.0	333.91475892066956	2.508718967437744
74	311.9062919616699	pulse	1	t		72.0	2.5	/experiments/knapen_AOT/AOT_stimuli/rescaled_final/1009_fw.mp4	0.0	335.50829792022705	
74	312.82147192955017	fix_post	2		12	72.0	2.5	/experiments/knapen_AOT/AOT_stimuli/rescaled_final/1009_fw.mp4	0.0	336.4234778881073	0.10001301765441895
75	312.9214849472046	fix_pre	0		120	73.0	2.5	/experiments/knapen_AOT/AOT_stimuli/rescaled_final/1702_fw.mp4	0.0	336.5234909057617	1.0001718997955322
75	313.4976899623871	pulse	0	t		73.0	2.5	/experiments/knapen_AOT/AOT_stimuli/rescaled_final/1702_fw.mp4	0.0	337.0996959209442	
75	313.9216568470001	movie	1		243	73.0	2.5	/experiments/knapen_AOT/AOT_stimuli/rescaled_final/1702_fw.mp4	0.0	337.52366280555725	2.5003762245178223
75	315.09761786460876	pulse	1	t		73.0	2.5	/experiments/knapen_AOT/AOT_stimuli/rescaled_final/1702_fw.mp4	0.0	338.6996238231659	
75	316.42203307151794	fix_post	2		12	73.0	2.5	/experiments/knapen_AOT/AOT_stimuli/rescaled_final/1702_fw.mp4	0.0	340.0240390300751	0.09998893737792969
76	316.5220220088959	fix_pre	0		120	74.0	2.5	/experiments/knapen_AOT/AOT_stimuli/rescaled_final/1842_rv.mp4	0.0	340.124027967453	1.0001699924468994
76	316.69735407829285	pulse	0	t		74.0	2.5	/experiments/knapen_AOT/AOT_stimuli/rescaled_final/1842_rv.mp4	0.0	340.29936003685	
76	317.5221920013428	movie	1		243	74.0	2.5	/experiments/knapen_AOT/AOT_stimuli/rescaled_final/1842_rv.mp4	0.0	341.1241979598999	2.500385046005249
76	318.29755091667175	pulse	1	t		74.0	2.5	/experiments/knapen_AOT/AOT_stimuli/rescaled_final/1842_rv.mp4	0.0	341.8995568752289	
76	319.89776706695557	pulse	1	t		74.0	2.5	/experiments/knapen_AOT/AOT_stimuli/rescaled_final/1842_rv.mp4	0.0	343.4997730255127	
76	320.022577047348	fix_post	2		12	74.0	2.5	/experiments/knapen_AOT/AOT_stimuli/rescaled_final/1842_rv.mp4	0.0	343.62458300590515	0.09998202323913574
77	320.12255907058716	fix_pre	0		119	75.0	2.5	/experiments/knapen_AOT/AOT_stimuli/rescaled_final/1446_rv.mp4	0.0	343.7245650291443	0.9918220043182373
77	321.1143810749054	movie	1		244	75.0	2.5	/experiments/knapen_AOT/AOT_stimuli/rescaled_final/1446_rv.mp4	0.0	344.7163870334625	2.500363826751709
77	321.4988670349121	pulse	1	t		75.0	2.5	/experiments/knapen_AOT/AOT_stimuli/rescaled_final/1446_rv.mp4	0.0	345.10087299346924	
77	323.09824800491333	pulse	1	t		75.0	2.5	/experiments/knapen_AOT/AOT_stimuli/rescaled_final/1446_rv.mp4	0.0	346.70025396347046	
77	323.6147449016571	fix_post	2		12	75.0	2.5	/experiments/knapen_AOT/AOT_stimuli/rescaled_final/1446_rv.mp4	0.0	347.21675086021423	0.10000395774841309
78	323.7147488594055	fix_pre	0		119	76.0	2.5	/experiments/knapen_AOT/AOT_stimuli/rescaled_final/0887_fw.mp4	0.0	347.31675481796265	0.991840124130249
78	324.6985640525818	pulse	0	t		76.0	2.5	/experiments/knapen_AOT/AOT_stimuli/rescaled_final/0887_fw.mp4	0.0	348.3005700111389	
78	324.70658898353577	movie	1		245	76.0	2.5	/experiments/knapen_AOT/AOT_stimuli/rescaled_final/0887_fw.mp4	0.0	348.3085949420929	2.508715867996216
78	326.29944801330566	pulse	1	t		76.0	2.5	/experiments/knapen_AOT/AOT_stimuli/rescaled_final/0887_fw.mp4	0.0	349.9014539718628	
78	327.215304851532	fix_post	2		12	76.0	2.5	/experiments/knapen_AOT/AOT_stimuli/rescaled_final/0887_fw.mp4	0.0	350.8173108100891	0.1000680923461914
79	327.3153729438782	fix_pre	0		120	77.0	2.5	blank	1.0	350.9173789024353	1.000108003616333
79	327.89892387390137	pulse	0	t		77.0	2.5	blank	1.0	351.5009298324585	
79	328.3154809474945	movie	1		300	77.0	2.5	blank	1.0	351.91748690605164	2.5003440380096436
79	329.4992370605469	pulse	1	t		77.0	2.5	blank	1.0	353.101243019104	
79	330.81582498550415	fix_post	2		12	77.0	2.5	blank	1.0	354.4178309440613	0.10001492500305176
80	330.9158399105072	fix_pre	0		120	78.0	2.5	/experiments/knapen_AOT/AOT_stimuli/rescaled_final/1856_rv.mp4	0.0	354.51784586906433	1.000143051147461
80	331.0995018482208	pulse	0	t		78.0	2.5	/experiments/knapen_AOT/AOT_stimuli/rescaled_final/1856_rv.mp4	0.0	354.70150780677795	
80	331.91598296165466	movie	1		244	78.0	2.5	/experiments/knapen_AOT/AOT_stimuli/rescaled_final/1856_rv.mp4	0.0	355.5179889202118	2.500380039215088
80	332.6997380256653	pulse	1	t		78.0	2.5	/experiments/knapen_AOT/AOT_stimuli/rescaled_final/1856_rv.mp4	0.0	356.3017439842224	
80	334.3012418746948	pulse	1	t		78.0	2.5	/experiments/knapen_AOT/AOT_stimuli/rescaled_final/1856_rv.mp4	0.0	357.90324783325195	
80	334.41636300086975	fix_post	2		12	78.0	2.5	/experiments/knapen_AOT/AOT_stimuli/rescaled_final/1856_rv.mp4	0.0	358.0183689594269	0.10001492500305176
81	334.5163779258728	fix_pre	0		120	79.0	2.5	/experiments/knapen_AOT/AOT_stimuli/rescaled_final/1386_rv.mp4	0.0	358.11838388442993	1.00018310546875
81	335.51656103134155	movie	1		242	79.0	2.5	/experiments/knapen_AOT/AOT_stimuli/rescaled_final/1386_rv.mp4	0.0	359.1185669898987	2.4920148849487305
81	335.9006390571594	pulse	1	t		79.0	2.5	/experiments/knapen_AOT/AOT_stimuli/rescaled_final/1386_rv.mp4	0.0	359.50264501571655	
81	337.5004770755768	pulse	1	t		79.0	2.5	/experiments/knapen_AOT/AOT_stimuli/rescaled_final/1386_rv.mp4	0.0	361.1024830341339	
81	338.0085759162903	fix_post	2		12	79.0	2.5	/experiments/knapen_AOT/AOT_stimuli/rescaled_final/1386_rv.mp4	0.0	361.6105818748474	0.10004711151123047
82	338.1086230278015	fix_pre	0		120	80.0	2.5	/experiments/knapen_AOT/AOT_stimuli/rescaled_final/1564_fw.mp4	0.0	361.71062898635864	1.00010085105896
82	339.1006610393524	pulse	0	t		80.0	2.5	/experiments/knapen_AOT/AOT_stimuli/rescaled_final/1564_fw.mp4	0.0	362.70266699790955	
82	339.1087238788605	movie	1		245	80.0	2.5	/experiments/knapen_AOT/AOT_stimuli/rescaled_final/1564_fw.mp4	0.0	362.7107298374176	2.5087051391601562
82	340.7014169692993	pulse	1	t		80.0	2.5	/experiments/knapen_AOT/AOT_stimuli/rescaled_final/1564_fw.mp4	0.0	364.30342292785645	
82	341.61742901802063	fix_post	2		12	80.0	2.5	/experiments/knapen_AOT/AOT_stimuli/rescaled_final/1564_fw.mp4	0.0	365.21943497657776	0.10003805160522461
83	341.71746706962585	fix_pre	0		120	81.0	2.5	/experiments/knapen_AOT/AOT_stimuli/rescaled_final/0986_rv.mp4	0.0	365.319473028183	1.000216007232666
83	342.3010108470917	pulse	0	t		81.0	2.5	/experiments/knapen_AOT/AOT_stimuli/rescaled_final/0986_rv.mp4	0.0	365.9030168056488	
83	342.7176830768585	movie	1		244	81.0	2.5	/experiments/knapen_AOT/AOT_stimuli/rescaled_final/0986_rv.mp4	0.0	366.31968903541565	2.5002808570861816
83	343.901419878006	pulse	1	t		81.0	2.5	/experiments/knapen_AOT/AOT_stimuli/rescaled_final/0986_rv.mp4	0.0	367.5034258365631	
83	345.2179639339447	fix_post	2		12	81.0	2.5	/experiments/knapen_AOT/AOT_stimuli/rescaled_final/0986_rv.mp4	0.0	368.81996989250183	0.10000014305114746
84	345.31796407699585	fix_pre	0		120	82.0	2.5	blank	1.0	368.919970035553	1.0001718997955322
84	345.50161600112915	pulse	0	t		82.0	2.5	blank	1.0	369.1036219596863	
84	346.3181359767914	movie	1		300	82.0	2.5	blank	1.0	369.9201419353485	2.5003468990325928
84	347.1017699241638	pulse	1	t		82.0	2.5	blank	1.0	370.70377588272095	
84	348.70195293426514	pulse	1	t		82.0	2.5	blank	1.0	372.30395889282227	
84	348.818482875824	fix_post	2		12	82.0	2.5	blank	1.0	372.4204888343811	0.10001802444458008
85	348.91850090026855	fix_pre	0		120	83.0	2.5	/experiments/knapen_AOT/AOT_stimuli/rescaled_final/0622_rv.mp4	0.0	372.5205068588257	1.0002450942993164
85	349.91874599456787	movie	1		243	83.0	2.5	/experiments/knapen_AOT/AOT_stimuli/rescaled_final/0622_rv.mp4	0.0	373.520751953125	2.491968870162964
85	350.30292201042175	pulse	1	t		83.0	2.5	/experiments/knapen_AOT/AOT_stimuli/rescaled_final/0622_rv.mp4	0.0	373.9049279689789	
85	351.9024980068207	pulse	1	t		83.0	2.5	/experiments/knapen_AOT/AOT_stimuli/rescaled_final/0622_rv.mp4	0.0	375.5045039653778	
85	352.41071486473083	fix_post	2		12	83.0	2.5	/experiments/knapen_AOT/AOT_stimuli/rescaled_final/0622_rv.mp4	0.0	376.01272082328796	0.10007119178771973
87	352.51078605651855	stim	0		1716					376.1127920150757	14.302105903625488
87	353.502769947052	pulse	0	t						377.10477590560913	
87	355.10296988487244	pulse	0	t						378.70497584342957	
87	356.703106880188	pulse	0	t						380.3051128387451	
87	358.3034839630127	pulse	0	t						381.9054899215698	
87	359.90367794036865	pulse	0	t						383.5056838989258	
87	361.5039780139923	pulse	0	t						385.10598397254944	
87	363.1040530204773	pulse	0	t						386.7060589790344	
87	364.696918964386	pulse	0	t						388.2989249229431	
87	366.2972209453583	pulse	0	t						389.8992269039154	
