trial_nr	onset	event_type	phase	response	nr_frames	movie_index	movie_duration	movie_file	blank	onset_abs	duration
0	0.15868401527404785	stim	0		833					26.966904878616333	6.941721200942993
0	7.092361211776733	response	0	space						33.90058207511902	
1	7.100405216217041	stim	0		40191					33.908626079559326	334.9232978820801
1	342.0125501155853	pulse	0	t						368.8207709789276	
1	342.0237030982971	stim	1		1717					368.8319239616394	14.308198928833008
1	343.6071650981903	pulse	1	t						370.4153859615326	
1	345.2071750164032	pulse	1	t						372.0153958797455	
1	346.80711698532104	pulse	1	t						373.61533784866333	
1	348.4071800708771	pulse	1	t						375.21540093421936	
1	350.0070950984955	pulse	1	t						376.81531596183777	
1	351.607045173645	pulse	1	t						378.4152660369873	
1	353.2070631980896	pulse	1	t						380.0152840614319	
1	354.80710005760193	pulse	1	t						381.6153209209442	
2	356.3319020271301	fix_pre	0		11	0.0	2.5	/experiments/AOT/AOT_stimuli/rescaled_final/1269_rv.mp4	0.0	383.1401228904724	0.09166502952575684
2	356.4083950519562	pulse	0	t		0.0	2.5	/experiments/AOT/AOT_stimuli/rescaled_final/1269_rv.mp4	0.0	383.21661591529846	
2	356.4235670566559	movie	1		242	0.0	2.5	/experiments/AOT/AOT_stimuli/rescaled_final/1269_rv.mp4	0.0	383.23178791999817	2.5083229541778564
2	358.0158340930939	pulse	1	t		0.0	2.5	/experiments/AOT/AOT_stimuli/rescaled_final/1269_rv.mp4	0.0	384.82405495643616	
2	358.93189001083374	fix_post	2		12	0.0	2.5	/experiments/AOT/AOT_stimuli/rescaled_final/1269_rv.mp4	0.0	385.740110874176	0.10011100769042969
3	359.03200101852417	fix_pre	0		120	1.0	2.5	/experiments/AOT/AOT_stimuli/rescaled_final/1371_fw.mp4	0.0	385.84022188186646	0.9999630451202393
3	359.60724902153015	pulse	0	t		1.0	2.5	/experiments/AOT/AOT_stimuli/rescaled_final/1371_fw.mp4	0.0	386.41546988487244	
3	360.0319640636444	movie	1		244	1.0	2.5	/experiments/AOT/AOT_stimuli/rescaled_final/1371_fw.mp4	0.0	386.8401849269867	2.499709129333496
3	361.2149829864502	pulse	1	t		1.0	2.5	/experiments/AOT/AOT_stimuli/rescaled_final/1371_fw.mp4	0.0	388.0232038497925	
3	362.5316731929779	fix_post	2		12	1.0	2.5	/experiments/AOT/AOT_stimuli/rescaled_final/1371_fw.mp4	0.0	389.3398940563202	0.10040402412414551
4	362.63207721710205	fix_pre	0		120	2.0	2.5	/experiments/AOT/AOT_stimuli/rescaled_final/1200_rv.mp4	0.0	389.44029808044434	0.9997539520263672
4	362.8072609901428	pulse	0	t		2.0	2.5	/experiments/AOT/AOT_stimuli/rescaled_final/1200_rv.mp4	0.0	389.6154818534851	
4	363.6318311691284	movie	1		243	2.0	2.5	/experiments/AOT/AOT_stimuli/rescaled_final/1200_rv.mp4	0.0	390.4400520324707	2.4996519088745117
4	364.4070620536804	pulse	1	t		2.0	2.5	/experiments/AOT/AOT_stimuli/rescaled_final/1200_rv.mp4	0.0	391.2152829170227	
4	366.0070381164551	pulse	1	t		2.0	2.5	/experiments/AOT/AOT_stimuli/rescaled_final/1200_rv.mp4	0.0	392.81525897979736	
4	366.13148307800293	fix_post	2		12	2.0	2.5	/experiments/AOT/AOT_stimuli/rescaled_final/1200_rv.mp4	0.0	392.9397039413452	0.10037803649902344
5	366.23186111450195	fix_pre	0		120	3.0	2.5	/experiments/AOT/AOT_stimuli/rescaled_final/0246_rv.mp4	0.0	393.04008197784424	1.0001299381256104
5	367.23199105262756	movie	1		246	3.0	2.5	/experiments/AOT/AOT_stimuli/rescaled_final/0246_rv.mp4	0.0	394.04021191596985	2.499859094619751
5	367.6070601940155	pulse	1	t		3.0	2.5	/experiments/AOT/AOT_stimuli/rescaled_final/0246_rv.mp4	0.0	394.4152810573578	
5	369.20706605911255	pulse	1	t		3.0	2.5	/experiments/AOT/AOT_stimuli/rescaled_final/0246_rv.mp4	0.0	396.01528692245483	
5	369.7318501472473	fix_post	2		12	3.0	2.5	/experiments/AOT/AOT_stimuli/rescaled_final/0246_rv.mp4	0.0	396.5400710105896	0.10008597373962402
6	369.83193612098694	fix_pre	0		118	4.0	2.5	/experiments/AOT/AOT_stimuli/rescaled_final/1952_rv.mp4	0.0	396.6401569843292	0.983238935470581
6	370.80702018737793	pulse	0	t		4.0	2.5	/experiments/AOT/AOT_stimuli/rescaled_final/1952_rv.mp4	0.0	397.6152410507202	
6	370.8151750564575	movie	1		246	4.0	2.5	/experiments/AOT/AOT_stimuli/rescaled_final/1952_rv.mp4	0.0	397.6233959197998	2.5082881450653076
6	372.4067029953003	pulse	1	t		4.0	2.5	/experiments/AOT/AOT_stimuli/rescaled_final/1952_rv.mp4	0.0	399.2149238586426	
6	373.3234632015228	fix_post	2		12	4.0	2.5	/experiments/AOT/AOT_stimuli/rescaled_final/1952_rv.mp4	0.0	400.1316840648651	0.09999895095825195
7	373.4234621524811	fix_pre	0		120	5.0	2.5	/experiments/AOT/AOT_stimuli/rescaled_final/1001_fw.mp4	0.0	400.23168301582336	0.9999799728393555
7	374.0079290866852	pulse	0	t		5.0	2.5	/experiments/AOT/AOT_stimuli/rescaled_final/1001_fw.mp4	0.0	400.81614995002747	
7	374.42344212532043	movie	1		244	5.0	2.5	/experiments/AOT/AOT_stimuli/rescaled_final/1001_fw.mp4	0.0	401.2316629886627	2.500077962875366
7	375.60823011398315	pulse	1	t		5.0	2.5	/experiments/AOT/AOT_stimuli/rescaled_final/1001_fw.mp4	0.0	402.41645097732544	
7	376.9235200881958	fix_post	2		12	5.0	2.5	/experiments/AOT/AOT_stimuli/rescaled_final/1001_fw.mp4	0.0	403.7317409515381	0.099945068359375
8	377.0234651565552	fix_pre	0		120	6.0	2.5	/experiments/AOT/AOT_stimuli/rescaled_final/0343_fw.mp4	0.0	403.83168601989746	1.0000379085540771
8	377.2078101634979	pulse	0	t		6.0	2.5	/experiments/AOT/AOT_stimuli/rescaled_final/0343_fw.mp4	0.0	404.0160310268402	
8	378.02350306510925	movie	1		243	6.0	2.5	/experiments/AOT/AOT_stimuli/rescaled_final/0343_fw.mp4	0.0	404.83172392845154	2.49993896484375
8	378.8070261478424	pulse	1	t		6.0	2.5	/experiments/AOT/AOT_stimuli/rescaled_final/0343_fw.mp4	0.0	405.6152470111847	
8	380.41537618637085	pulse	1	t		6.0	2.5	/experiments/AOT/AOT_stimuli/rescaled_final/0343_fw.mp4	0.0	407.22359704971313	
8	380.523442029953	fix_post	2		12	6.0	2.5	/experiments/AOT/AOT_stimuli/rescaled_final/0343_fw.mp4	0.0	407.3316628932953	0.10004305839538574
9	380.6234850883484	fix_pre	0		120	7.0	2.5	blank	1.0	407.4317059516907	1.0000619888305664
9	381.62354707717896	movie	1		300	7.0	2.5	blank	1.0	408.43176794052124	2.4998629093170166
9	382.0069670677185	pulse	1	t		7.0	2.5	blank	1.0	408.8151879310608	
9	383.6069121360779	pulse	1	t		7.0	2.5	blank	1.0	410.41513299942017	
9	384.123409986496	fix_post	2		12	7.0	2.5	blank	1.0	410.93163084983826	0.10002303123474121
10	384.2234330177307	fix_pre	0		119	8.0	2.5	/experiments/AOT/AOT_stimuli/rescaled_final/1203_fw.mp4	0.0	411.031653881073	0.9916830062866211
10	385.20701599121094	pulse	0	t		8.0	2.5	/experiments/AOT/AOT_stimuli/rescaled_final/1203_fw.mp4	0.0	412.0152368545532	
10	385.21511602401733	movie	1		245	8.0	2.5	/experiments/AOT/AOT_stimuli/rescaled_final/1203_fw.mp4	0.0	412.0233368873596	2.5084140300750732
10	386.8153700828552	pulse	1	t		8.0	2.5	/experiments/AOT/AOT_stimuli/rescaled_final/1203_fw.mp4	0.0	413.6235909461975	
10	387.7235300540924	fix_post	2		12	8.0	2.5	/experiments/AOT/AOT_stimuli/rescaled_final/1203_fw.mp4	0.0	414.5317509174347	0.09989714622497559
11	387.8234272003174	fix_pre	0		120	9.0	2.5	/experiments/AOT/AOT_stimuli/rescaled_final/0869_fw.mp4	0.0	414.63164806365967	1.0000739097595215
11	388.4070119857788	pulse	0	t		9.0	2.5	/experiments/AOT/AOT_stimuli/rescaled_final/0869_fw.mp4	0.0	415.2152328491211	
11	388.8235011100769	movie	1		245	9.0	2.5	/experiments/AOT/AOT_stimuli/rescaled_final/0869_fw.mp4	0.0	415.6317219734192	2.4999470710754395
11	390.00792503356934	pulse	1	t		9.0	2.5	/experiments/AOT/AOT_stimuli/rescaled_final/0869_fw.mp4	0.0	416.8161458969116	
11	391.32344818115234	fix_post	2		12	9.0	2.5	/experiments/AOT/AOT_stimuli/rescaled_final/0869_fw.mp4	0.0	418.13166904449463	0.10001301765441895
12	391.42346119880676	fix_pre	0		120	10.0	2.5	/experiments/AOT/AOT_stimuli/rescaled_final/1526_rv.mp4	0.0	418.23168206214905	0.9999299049377441
12	391.6077721118927	pulse	0	t		10.0	2.5	/experiments/AOT/AOT_stimuli/rescaled_final/1526_rv.mp4	0.0	418.415992975235	
12	392.4233911037445	movie	1		247	10.0	2.5	/experiments/AOT/AOT_stimuli/rescaled_final/1526_rv.mp4	0.0	419.2316119670868	2.50008487701416
12	393.2078540325165	pulse	1	t		10.0	2.5	/experiments/AOT/AOT_stimuli/rescaled_final/1526_rv.mp4	0.0	420.01607489585876	
12	394.8113431930542	pulse	1	t		10.0	2.5	/experiments/AOT/AOT_stimuli/rescaled_final/1526_rv.mp4	0.0	421.6195640563965	
12	394.92347598075867	fix_post	2		12	10.0	2.5	/experiments/AOT/AOT_stimuli/rescaled_final/1526_rv.mp4	0.0	421.73169684410095	0.10000801086425781
13	395.0234839916229	fix_pre	0		120	11.0	2.5	/experiments/AOT/AOT_stimuli/rescaled_final/0046_fw.mp4	0.0	421.8317048549652	0.9999361038208008
13	396.0234200954437	movie	1		246	11.0	2.5	/experiments/AOT/AOT_stimuli/rescaled_final/0046_fw.mp4	0.0	422.831640958786	2.500030040740967
13	396.4154009819031	pulse	1	t		11.0	2.5	/experiments/AOT/AOT_stimuli/rescaled_final/0046_fw.mp4	0.0	423.22362184524536	
13	398.0071601867676	pulse	1	t		11.0	2.5	/experiments/AOT/AOT_stimuli/rescaled_final/0046_fw.mp4	0.0	424.81538105010986	
13	398.5234501361847	fix_post	2		12	11.0	2.5	/experiments/AOT/AOT_stimuli/rescaled_final/0046_fw.mp4	0.0	425.331670999527	0.09993290901184082
14	398.62338304519653	fix_pre	0		119	12.0	2.5	/experiments/AOT/AOT_stimuli/rescaled_final/1055_fw.mp4	0.0	425.4316039085388	0.99167799949646
14	399.60682821273804	pulse	0	t		12.0	2.5	/experiments/AOT/AOT_stimuli/rescaled_final/1055_fw.mp4	0.0	426.4150490760803	
14	399.615061044693	movie	1		246	12.0	2.5	/experiments/AOT/AOT_stimuli/rescaled_final/1055_fw.mp4	0.0	426.4232819080353	2.5083770751953125
14	401.2152590751648	pulse	1	t		12.0	2.5	/experiments/AOT/AOT_stimuli/rescaled_final/1055_fw.mp4	0.0	428.0234799385071	
14	402.1234381198883	fix_post	2		12	12.0	2.5	/experiments/AOT/AOT_stimuli/rescaled_final/1055_fw.mp4	0.0	428.9316589832306	0.09995603561401367
15	402.2233941555023	fix_pre	0		120	13.0	2.5	blank	1.0	429.0316150188446	1.0000388622283936
15	402.8069021701813	pulse	0	t		13.0	2.5	blank	1.0	429.61512303352356	
15	403.2234330177307	movie	1		300	13.0	2.5	blank	1.0	430.031653881073	2.500035047531128
15	404.4069151878357	pulse	1	t		13.0	2.5	blank	1.0	431.215136051178	
15	405.72346806526184	fix_post	2		12	13.0	2.5	blank	1.0	432.5316889286041	0.09996414184570312
16	405.82343220710754	fix_pre	0		120	14.0	2.5	/experiments/AOT/AOT_stimuli/rescaled_final/2062_fw.mp4	0.0	432.63165307044983	0.9999358654022217
16	406.0077111721039	pulse	0	t		14.0	2.5	/experiments/AOT/AOT_stimuli/rescaled_final/2062_fw.mp4	0.0	432.81593203544617	
16	406.82336807250977	movie	1		244	14.0	2.5	/experiments/AOT/AOT_stimuli/rescaled_final/2062_fw.mp4	0.0	433.63158893585205	2.499953031539917
16	407.60774207115173	pulse	1	t		14.0	2.5	/experiments/AOT/AOT_stimuli/rescaled_final/2062_fw.mp4	0.0	434.415962934494	
16	409.2152671813965	pulse	1	t		14.0	2.5	/experiments/AOT/AOT_stimuli/rescaled_final/2062_fw.mp4	0.0	436.02348804473877	
16	409.3233211040497	fix_post	2		12	14.0	2.5	/experiments/AOT/AOT_stimuli/rescaled_final/2062_fw.mp4	0.0	436.13154196739197	0.10003209114074707
17	409.42335319519043	fix_pre	0		120	15.0	2.5	/experiments/AOT/AOT_stimuli/rescaled_final/1829_rv.mp4	0.0	436.2315740585327	1.0000178813934326
17	410.42337107658386	movie	1		244	15.0	2.5	/experiments/AOT/AOT_stimuli/rescaled_final/1829_rv.mp4	0.0	437.23159193992615	2.5000429153442383
17	410.81525802612305	pulse	1	t		15.0	2.5	/experiments/AOT/AOT_stimuli/rescaled_final/1829_rv.mp4	0.0	437.62347888946533	
17	412.40768218040466	pulse	1	t		15.0	2.5	/experiments/AOT/AOT_stimuli/rescaled_final/1829_rv.mp4	0.0	439.21590304374695	
17	412.9234139919281	fix_post	2		12	15.0	2.5	/experiments/AOT/AOT_stimuli/rescaled_final/1829_rv.mp4	0.0	439.7316348552704	0.09987306594848633
18	413.0232870578766	fix_pre	0		119	16.0	2.5	/experiments/AOT/AOT_stimuli/rescaled_final/0038_fw.mp4	0.0	439.8315079212189	0.9917881488800049
18	414.00688219070435	pulse	0	t		16.0	2.5	/experiments/AOT/AOT_stimuli/rescaled_final/0038_fw.mp4	0.0	440.81510305404663	
18	414.0150752067566	movie	1		245	16.0	2.5	/experiments/AOT/AOT_stimuli/rescaled_final/0038_fw.mp4	0.0	440.8232960700989	2.5078279972076416
18	415.6152231693268	pulse	1	t		16.0	2.5	/experiments/AOT/AOT_stimuli/rescaled_final/0038_fw.mp4	0.0	442.42344403266907	
18	416.52290320396423	fix_post	2		12	16.0	2.5	/experiments/AOT/AOT_stimuli/rescaled_final/0038_fw.mp4	0.0	443.3311240673065	0.10048580169677734
19	416.623389005661	fix_pre	0		120	17.0	2.5	/experiments/AOT/AOT_stimuli/rescaled_final/1371_rv.mp4	0.0	443.4316098690033	0.9996001720428467
19	417.20720505714417	pulse	0	t		17.0	2.5	/experiments/AOT/AOT_stimuli/rescaled_final/1371_rv.mp4	0.0	444.01542592048645	
19	417.62298917770386	movie	1		245	17.0	2.5	/experiments/AOT/AOT_stimuli/rescaled_final/1371_rv.mp4	0.0	444.43121004104614	2.500372886657715
19	418.80662512779236	pulse	1	t		17.0	2.5	/experiments/AOT/AOT_stimuli/rescaled_final/1371_rv.mp4	0.0	445.61484599113464	
19	420.1233620643616	fix_post	2		12	17.0	2.5	/experiments/AOT/AOT_stimuli/rescaled_final/1371_rv.mp4	0.0	446.93158292770386	0.09995102882385254
20	420.2233130931854	fix_pre	0		120	18.0	2.5	/experiments/AOT/AOT_stimuli/rescaled_final/1595_rv.mp4	0.0	447.0315339565277	1.0000689029693604
20	420.4068400859833	pulse	0	t		18.0	2.5	/experiments/AOT/AOT_stimuli/rescaled_final/1595_rv.mp4	0.0	447.21506094932556	
20	421.2233819961548	movie	1		245	18.0	2.5	/experiments/AOT/AOT_stimuli/rescaled_final/1595_rv.mp4	0.0	448.03160285949707	2.4999330043792725
20	422.0150752067566	pulse	1	t		18.0	2.5	/experiments/AOT/AOT_stimuli/rescaled_final/1595_rv.mp4	0.0	448.8232960700989	
20	423.6152150630951	pulse	1	t		18.0	2.5	/experiments/AOT/AOT_stimuli/rescaled_final/1595_rv.mp4	0.0	450.4234359264374	
20	423.72331500053406	fix_post	2		12	18.0	2.5	/experiments/AOT/AOT_stimuli/rescaled_final/1595_rv.mp4	0.0	450.53153586387634	0.10006904602050781
21	423.82338404655457	fix_pre	0		120	19.0	2.5	blank	1.0	450.63160490989685	0.9998631477355957
21	424.82324719429016	movie	1		300	19.0	2.5	blank	1.0	451.63146805763245	2.500006914138794
21	425.2075011730194	pulse	1	t		19.0	2.5	blank	1.0	452.0157220363617	
21	426.8074760437012	pulse	1	t		19.0	2.5	blank	1.0	453.61569690704346	
21	427.32325410842896	fix_post	2		12	19.0	2.5	blank	1.0	454.13147497177124	0.09998202323913574
22	427.4232361316681	fix_pre	0		120	20.0	2.5	/experiments/AOT/AOT_stimuli/rescaled_final/1257_fw.mp4	0.0	454.2314569950104	0.9999499320983887
22	428.4075400829315	pulse	0	t		20.0	2.5	/experiments/AOT/AOT_stimuli/rescaled_final/1257_fw.mp4	0.0	455.2157609462738	
22	428.4231860637665	movie	1		246	20.0	2.5	/experiments/AOT/AOT_stimuli/rescaled_final/1257_fw.mp4	0.0	455.23140692710876	2.5083889961242676
22	430.0145070552826	pulse	1	t		20.0	2.5	/experiments/AOT/AOT_stimuli/rescaled_final/1257_fw.mp4	0.0	456.8227279186249	
22	430.93157505989075	fix_post	2		12	20.0	2.5	/experiments/AOT/AOT_stimuli/rescaled_final/1257_fw.mp4	0.0	457.73979592323303	0.09999799728393555
23	431.0315730571747	fix_pre	0		120	21.0	2.5	/experiments/AOT/AOT_stimuli/rescaled_final/0062_rv.mp4	0.0	457.83979392051697	1.0000100135803223
23	431.6076099872589	pulse	0	t		21.0	2.5	/experiments/AOT/AOT_stimuli/rescaled_final/0062_rv.mp4	0.0	458.4158308506012	
23	432.031583070755	movie	1		244	21.0	2.5	/experiments/AOT/AOT_stimuli/rescaled_final/0062_rv.mp4	0.0	458.8398039340973	2.499980926513672
23	433.20691108703613	pulse	1	t		21.0	2.5	/experiments/AOT/AOT_stimuli/rescaled_final/0062_rv.mp4	0.0	460.0151319503784	
23	434.5315639972687	fix_post	2		12	21.0	2.5	/experiments/AOT/AOT_stimuli/rescaled_final/0062_rv.mp4	0.0	461.33978486061096	0.10002899169921875
24	434.6315929889679	fix_pre	0		120	22.0	2.5	/experiments/AOT/AOT_stimuli/rescaled_final/2167_rv.mp4	0.0	461.4398138523102	1.0000340938568115
24	434.8067500591278	pulse	0	t		22.0	2.5	/experiments/AOT/AOT_stimuli/rescaled_final/2167_rv.mp4	0.0	461.6149709224701	
24	435.6316270828247	movie	1		244	22.0	2.5	/experiments/AOT/AOT_stimuli/rescaled_final/2167_rv.mp4	0.0	462.439847946167	2.499932050704956
24	436.4075801372528	pulse	1	t		22.0	2.5	/experiments/AOT/AOT_stimuli/rescaled_final/2167_rv.mp4	0.0	463.2158010005951	
24	438.01334619522095	pulse	1	t		22.0	2.5	/experiments/AOT/AOT_stimuli/rescaled_final/2167_rv.mp4	0.0	464.82156705856323	
24	438.13155913352966	fix_post	2		12	22.0	2.5	/experiments/AOT/AOT_stimuli/rescaled_final/2167_rv.mp4	0.0	464.93977999687195	0.09999895095825195
25	438.2315580844879	fix_pre	0		120	23.0	2.5	/experiments/AOT/AOT_stimuli/rescaled_final/1908_rv.mp4	0.0	465.0397789478302	1.0000629425048828
25	439.2316210269928	movie	1		245	23.0	2.5	/experiments/AOT/AOT_stimuli/rescaled_final/1908_rv.mp4	0.0	466.0398418903351	2.4999279975891113
25	439.6147060394287	pulse	1	t		23.0	2.5	/experiments/AOT/AOT_stimuli/rescaled_final/1908_rv.mp4	0.0	466.422926902771	
25	441.20757699012756	pulse	1	t		23.0	2.5	/experiments/AOT/AOT_stimuli/rescaled_final/1908_rv.mp4	0.0	468.01579785346985	
25	441.7315490245819	fix_post	2		12	23.0	2.5	/experiments/AOT/AOT_stimuli/rescaled_final/1908_rv.mp4	0.0	468.5397698879242	0.09997010231018066
26	441.8315191268921	fix_pre	0		119	24.0	2.5	/experiments/AOT/AOT_stimuli/rescaled_final/1021_fw.mp4	0.0	468.6397399902344	0.9916079044342041
26	442.8075430393219	pulse	0	t		24.0	2.5	/experiments/AOT/AOT_stimuli/rescaled_final/1021_fw.mp4	0.0	469.6157639026642	
26	442.8231270313263	movie	1		247	24.0	2.5	/experiments/AOT/AOT_stimuli/rescaled_final/1021_fw.mp4	0.0	469.6313478946686	2.508355140686035
26	444.415913105011	pulse	1	t		24.0	2.5	/experiments/AOT/AOT_stimuli/rescaled_final/1021_fw.mp4	0.0	471.22413396835327	
26	445.33148217201233	fix_post	2		12	24.0	2.5	/experiments/AOT/AOT_stimuli/rescaled_final/1021_fw.mp4	0.0	472.1397030353546	0.09993886947631836
27	445.43142104148865	fix_pre	0		120	25.0	2.5	/experiments/AOT/AOT_stimuli/rescaled_final/1286_fw.mp4	0.0	472.23964190483093	1.000054121017456
27	446.00756216049194	pulse	0	t		25.0	2.5	/experiments/AOT/AOT_stimuli/rescaled_final/1286_fw.mp4	0.0	472.81578302383423	
27	446.4314751625061	movie	1		243	25.0	2.5	/experiments/AOT/AOT_stimuli/rescaled_final/1286_fw.mp4	0.0	473.2396960258484	2.499943971633911
27	447.61504316329956	pulse	1	t		25.0	2.5	/experiments/AOT/AOT_stimuli/rescaled_final/1286_fw.mp4	0.0	474.42326402664185	
27	448.93141913414	fix_post	2		12	25.0	2.5	/experiments/AOT/AOT_stimuli/rescaled_final/1286_fw.mp4	0.0	475.7396399974823	0.10015392303466797
28	449.0315730571747	fix_pre	0		120	26.0	2.5	blank	1.0	475.83979392051697	0.9999871253967285
28	449.206698179245	pulse	0	t		26.0	2.5	blank	1.0	476.0149190425873	
28	450.0315601825714	movie	1		300	26.0	2.5	blank	1.0	476.8397810459137	2.499945878982544
28	450.8066761493683	pulse	1	t		26.0	2.5	blank	1.0	477.61489701271057	
28	452.41492199897766	pulse	1	t		26.0	2.5	blank	1.0	479.22314286231995	
28	452.53150606155396	fix_post	2		12	26.0	2.5	blank	1.0	479.33972692489624	0.09999299049377441
29	452.63149905204773	fix_pre	0		120	27.0	2.5	/experiments/AOT/AOT_stimuli/rescaled_final/1711_fw.mp4	0.0	479.43971991539	0.99993896484375
29	453.6314380168915	movie	1		244	27.0	2.5	/experiments/AOT/AOT_stimuli/rescaled_final/1711_fw.mp4	0.0	480.43965888023376	2.499988079071045
29	454.01461911201477	pulse	1	t		27.0	2.5	/experiments/AOT/AOT_stimuli/rescaled_final/1711_fw.mp4	0.0	480.82283997535706	
29	455.6075689792633	pulse	1	t		27.0	2.5	/experiments/AOT/AOT_stimuli/rescaled_final/1711_fw.mp4	0.0	482.4157898426056	
29	456.1314260959625	fix_post	2		12	27.0	2.5	/experiments/AOT/AOT_stimuli/rescaled_final/1711_fw.mp4	0.0	482.9396469593048	0.10010409355163574
30	456.23153018951416	fix_pre	0		119	28.0	2.5	/experiments/AOT/AOT_stimuli/rescaled_final/1293_rv.mp4	0.0	483.03975105285645	0.9916009902954102
30	457.20746397972107	pulse	0	t		28.0	2.5	/experiments/AOT/AOT_stimuli/rescaled_final/1293_rv.mp4	0.0	484.01568484306335	
30	457.22313117980957	movie	1		245	28.0	2.5	/experiments/AOT/AOT_stimuli/rescaled_final/1293_rv.mp4	0.0	484.03135204315186	2.508241891860962
30	458.8145430088043	pulse	1	t		28.0	2.5	/experiments/AOT/AOT_stimuli/rescaled_final/1293_rv.mp4	0.0	485.6227638721466	
30	459.73137307167053	fix_post	2		12	28.0	2.5	/experiments/AOT/AOT_stimuli/rescaled_final/1293_rv.mp4	0.0	486.5395939350128	0.10000300407409668
31	459.83137607574463	fix_pre	0		120	29.0	2.5	/experiments/AOT/AOT_stimuli/rescaled_final/1822_rv.mp4	0.0	486.6395969390869	1.0001349449157715
31	460.40743112564087	pulse	0	t		29.0	2.5	/experiments/AOT/AOT_stimuli/rescaled_final/1822_rv.mp4	0.0	487.21565198898315	
31	460.8315110206604	movie	1		244	29.0	2.5	/experiments/AOT/AOT_stimuli/rescaled_final/1822_rv.mp4	0.0	487.6397318840027	2.4999051094055176
31	462.0152270793915	pulse	1	t		29.0	2.5	/experiments/AOT/AOT_stimuli/rescaled_final/1822_rv.mp4	0.0	488.82344794273376	
31	463.3314161300659	fix_post	2		12	29.0	2.5	/experiments/AOT/AOT_stimuli/rescaled_final/1822_rv.mp4	0.0	490.1396369934082	0.09994006156921387
32	463.43135619163513	fix_pre	0		120	30.0	2.5	/experiments/AOT/AOT_stimuli/rescaled_final/0839_fw.mp4	0.0	490.2395770549774	1.0000338554382324
32	463.6073260307312	pulse	0	t		30.0	2.5	/experiments/AOT/AOT_stimuli/rescaled_final/0839_fw.mp4	0.0	490.4155468940735	
32	464.43139004707336	movie	1		244	30.0	2.5	/experiments/AOT/AOT_stimuli/rescaled_final/0839_fw.mp4	0.0	491.23961091041565	2.5000970363616943
32	465.20751905441284	pulse	1	t		30.0	2.5	/experiments/AOT/AOT_stimuli/rescaled_final/0839_fw.mp4	0.0	492.0157399177551	
32	466.8133862018585	pulse	1	t		30.0	2.5	/experiments/AOT/AOT_stimuli/rescaled_final/0839_fw.mp4	0.0	493.6216070652008	
32	466.93148708343506	fix_post	2		12	30.0	2.5	/experiments/AOT/AOT_stimuli/rescaled_final/0839_fw.mp4	0.0	493.73970794677734	0.09991908073425293
33	467.0314061641693	fix_pre	0		120	31.0	2.5	/experiments/AOT/AOT_stimuli/rescaled_final/0211_fw.mp4	0.0	493.8396270275116	0.9999539852142334
33	468.03136014938354	movie	1		242	31.0	2.5	/experiments/AOT/AOT_stimuli/rescaled_final/0211_fw.mp4	0.0	494.83958101272583	2.499692916870117
33	468.40652418136597	pulse	1	t		31.0	2.5	/experiments/AOT/AOT_stimuli/rescaled_final/0211_fw.mp4	0.0	495.21474504470825	
33	470.0075900554657	pulse	1	t		31.0	2.5	/experiments/AOT/AOT_stimuli/rescaled_final/0211_fw.mp4	0.0	496.815810918808	
33	470.53105306625366	fix_post	2		12	31.0	2.5	/experiments/AOT/AOT_stimuli/rescaled_final/0211_fw.mp4	0.0	497.33927392959595	0.10033392906188965
34	470.63138699531555	fix_pre	0		119	32.0	2.5	/experiments/AOT/AOT_stimuli/rescaled_final/2045_fw.mp4	0.0	497.43960785865784	0.9917490482330322
34	471.6073582172394	pulse	0	t		32.0	2.5	/experiments/AOT/AOT_stimuli/rescaled_final/2045_fw.mp4	0.0	498.41557908058167	
34	471.6231360435486	movie	1		244	32.0	2.5	/experiments/AOT/AOT_stimuli/rescaled_final/2045_fw.mp4	0.0	498.43135690689087	2.5079641342163086
34	473.2140951156616	pulse	1	t		32.0	2.5	/experiments/AOT/AOT_stimuli/rescaled_final/2045_fw.mp4	0.0	500.0223159790039	
34	474.1311001777649	fix_post	2		12	32.0	2.5	/experiments/AOT/AOT_stimuli/rescaled_final/2045_fw.mp4	0.0	500.9393210411072	0.10004687309265137
35	474.23114705085754	fix_pre	0		120	33.0	2.5	blank	1.0	501.03936791419983	1.0001790523529053
35	474.8071780204773	pulse	0	t		33.0	2.5	blank	1.0	501.6153988838196	
35	475.23132610321045	movie	1		300	33.0	2.5	blank	1.0	502.03954696655273	2.500049114227295
35	476.40733218193054	pulse	1	t		33.0	2.5	blank	1.0	503.2155530452728	
35	477.73137521743774	fix_post	2		12	33.0	2.5	blank	1.0	504.53959608078003	0.10000085830688477
36	477.83137607574463	fix_pre	0		120	34.0	2.5	/experiments/AOT/AOT_stimuli/rescaled_final/2167_fw.mp4	0.0	504.6395969390869	0.9999871253967285
36	478.00740814208984	pulse	0	t		34.0	2.5	/experiments/AOT/AOT_stimuli/rescaled_final/2167_fw.mp4	0.0	504.81562900543213	
36	478.83136320114136	movie	1		244	34.0	2.5	/experiments/AOT/AOT_stimuli/rescaled_final/2167_fw.mp4	0.0	505.63958406448364	2.499969005584717
36	479.607342004776	pulse	1	t		34.0	2.5	/experiments/AOT/AOT_stimuli/rescaled_final/2167_fw.mp4	0.0	506.4155628681183	
36	481.21311020851135	pulse	1	t		34.0	2.5	/experiments/AOT/AOT_stimuli/rescaled_final/2167_fw.mp4	0.0	508.02133107185364	
36	481.3313322067261	fix_post	2		12	34.0	2.5	/experiments/AOT/AOT_stimuli/rescaled_final/2167_fw.mp4	0.0	508.13955307006836	0.09998393058776855
37	481.43131613731384	fix_pre	0		120	35.0	2.5	/experiments/AOT/AOT_stimuli/rescaled_final/1048_fw.mp4	0.0	508.2395370006561	1.0000109672546387
37	482.4313271045685	movie	1		245	35.0	2.5	/experiments/AOT/AOT_stimuli/rescaled_final/1048_fw.mp4	0.0	509.23954796791077	2.499936103820801
37	482.8143870830536	pulse	1	t		35.0	2.5	/experiments/AOT/AOT_stimuli/rescaled_final/1048_fw.mp4	0.0	509.6226079463959	
37	484.4147641658783	pulse	1	t		35.0	2.5	/experiments/AOT/AOT_stimuli/rescaled_final/1048_fw.mp4	0.0	511.2229850292206	
37	484.9312632083893	fix_post	2		12	35.0	2.5	/experiments/AOT/AOT_stimuli/rescaled_final/1048_fw.mp4	0.0	511.73948407173157	0.10004782676696777
38	485.03131103515625	fix_pre	0		119	36.0	2.5	/experiments/AOT/AOT_stimuli/rescaled_final/0479_fw.mp4	0.0	511.83953189849854	0.9917759895324707
38	486.01475715637207	pulse	0	t		36.0	2.5	/experiments/AOT/AOT_stimuli/rescaled_final/0479_fw.mp4	0.0	512.8229780197144	
38	486.0230870246887	movie	1		246	36.0	2.5	/experiments/AOT/AOT_stimuli/rescaled_final/0479_fw.mp4	0.0	512.831307888031	2.508263111114502
38	487.61431312561035	pulse	1	t		36.0	2.5	/experiments/AOT/AOT_stimuli/rescaled_final/0479_fw.mp4	0.0	514.4225339889526	
38	488.5313501358032	fix_post	2		12	36.0	2.5	/experiments/AOT/AOT_stimuli/rescaled_final/0479_fw.mp4	0.0	515.3395709991455	0.09995388984680176
39	488.63130402565	fix_pre	0		120	37.0	2.5	/experiments/AOT/AOT_stimuli/rescaled_final/1037_fw.mp4	0.0	515.4395248889923	1.0000791549682617
39	489.2072741985321	pulse	0	t		37.0	2.5	/experiments/AOT/AOT_stimuli/rescaled_final/1037_fw.mp4	0.0	516.0154950618744	
39	489.6313831806183	movie	1		244	37.0	2.5	/experiments/AOT/AOT_stimuli/rescaled_final/1037_fw.mp4	0.0	516.4396040439606	2.499924898147583
39	490.81487107276917	pulse	1	t		37.0	2.5	/experiments/AOT/AOT_stimuli/rescaled_final/1037_fw.mp4	0.0	517.6230919361115	
39	492.13130807876587	fix_post	2		12	37.0	2.5	/experiments/AOT/AOT_stimuli/rescaled_final/1037_fw.mp4	0.0	518.9395289421082	0.09995698928833008
40	492.2312650680542	fix_pre	0		120	38.0	2.5	/experiments/AOT/AOT_stimuli/rescaled_final/0590_fw.mp4	0.0	519.0394859313965	1.0000169277191162
40	492.4071350097656	pulse	0	t		38.0	2.5	/experiments/AOT/AOT_stimuli/rescaled_final/0590_fw.mp4	0.0	519.2153558731079	
40	493.2312819957733	movie	1		243	38.0	2.5	/experiments/AOT/AOT_stimuli/rescaled_final/0590_fw.mp4	0.0	520.0395028591156	2.4999711513519287
40	494.0073540210724	pulse	1	t		38.0	2.5	/experiments/AOT/AOT_stimuli/rescaled_final/0590_fw.mp4	0.0	520.8155748844147	
40	495.61343717575073	pulse	1	t		38.0	2.5	/experiments/AOT/AOT_stimuli/rescaled_final/0590_fw.mp4	0.0	522.421658039093	
40	495.73125314712524	fix_post	2		12	38.0	2.5	/experiments/AOT/AOT_stimuli/rescaled_final/0590_fw.mp4	0.0	522.5394740104675	0.09992504119873047
41	495.831178188324	fix_pre	0		120	39.0	2.5	/experiments/AOT/AOT_stimuli/rescaled_final/1662_rv.mp4	0.0	522.6393990516663	1.0001029968261719
41	496.83128118515015	movie	1		242	39.0	2.5	/experiments/AOT/AOT_stimuli/rescaled_final/1662_rv.mp4	0.0	523.6395020484924	2.4999217987060547
41	497.21509408950806	pulse	1	t		39.0	2.5	/experiments/AOT/AOT_stimuli/rescaled_final/1662_rv.mp4	0.0	524.0233149528503	
41	498.8073580265045	pulse	1	t		39.0	2.5	/experiments/AOT/AOT_stimuli/rescaled_final/1662_rv.mp4	0.0	525.6155788898468	
41	499.3312029838562	fix_post	2		12	39.0	2.5	/experiments/AOT/AOT_stimuli/rescaled_final/1662_rv.mp4	0.0	526.1394238471985	0.09998822212219238
42	499.4311912059784	fix_pre	0		119	40.0	2.5	/experiments/AOT/AOT_stimuli/rescaled_final/1424_rv.mp4	0.0	526.2394120693207	0.9917068481445312
42	500.4147801399231	pulse	0	t		40.0	2.5	/experiments/AOT/AOT_stimuli/rescaled_final/1424_rv.mp4	0.0	527.2230010032654	
42	500.4228980541229	movie	1		245	40.0	2.5	/experiments/AOT/AOT_stimuli/rescaled_final/1424_rv.mp4	0.0	527.2311189174652	2.5082969665527344
42	502.01427817344666	pulse	1	t		40.0	2.5	/experiments/AOT/AOT_stimuli/rescaled_final/1424_rv.mp4	0.0	528.8224990367889	
42	502.93119502067566	fix_post	2		12	40.0	2.5	/experiments/AOT/AOT_stimuli/rescaled_final/1424_rv.mp4	0.0	529.739415884018	0.10000801086425781
43	503.0312030315399	fix_pre	0		120	41.0	2.5	/experiments/AOT/AOT_stimuli/rescaled_final/0593_rv.mp4	0.0	529.8394238948822	1.000101089477539
43	503.6147201061249	pulse	0	t		41.0	2.5	/experiments/AOT/AOT_stimuli/rescaled_final/0593_rv.mp4	0.0	530.4229409694672	
43	504.03130412101746	movie	1		244	41.0	2.5	/experiments/AOT/AOT_stimuli/rescaled_final/0593_rv.mp4	0.0	530.8395249843597	2.4998910427093506
43	505.21473503112793	pulse	1	t		41.0	2.5	/experiments/AOT/AOT_stimuli/rescaled_final/0593_rv.mp4	0.0	532.0229558944702	
43	506.5311951637268	fix_post	2		12	41.0	2.5	/experiments/AOT/AOT_stimuli/rescaled_final/0593_rv.mp4	0.0	533.3394160270691	0.10000896453857422
44	506.6312041282654	fix_pre	0		120	42.0	2.5	blank	1.0	533.4394249916077	0.9999170303344727
44	506.81471705436707	pulse	0	t		42.0	2.5	blank	1.0	533.6229379177094	
44	507.63112115859985	movie	1		300	42.0	2.5	blank	1.0	534.4393420219421	2.5000548362731934
44	508.40717101097107	pulse	1	t		42.0	2.5	blank	1.0	535.2153918743134	
44	510.0071771144867	pulse	1	t		42.0	2.5	blank	1.0	536.815397977829	
44	510.13117599487305	fix_post	2		12	42.0	2.5	blank	1.0	536.9393968582153	0.09999799728393555
45	510.231173992157	fix_pre	0		120	43.0	2.5	/experiments/AOT/AOT_stimuli/rescaled_final/0374_rv.mp4	0.0	537.0393948554993	1.0000331401824951
45	511.2312071323395	movie	1		244	43.0	2.5	/experiments/AOT/AOT_stimuli/rescaled_final/0374_rv.mp4	0.0	538.0394279956818	2.500092029571533
45	511.6144700050354	pulse	1	t		43.0	2.5	/experiments/AOT/AOT_stimuli/rescaled_final/0374_rv.mp4	0.0	538.4226908683777	
45	513.2072651386261	pulse	1	t		43.0	2.5	/experiments/AOT/AOT_stimuli/rescaled_final/0374_rv.mp4	0.0	540.0154860019684	
45	513.731299161911	fix_post	2		12	43.0	2.5	/experiments/AOT/AOT_stimuli/rescaled_final/0374_rv.mp4	0.0	540.5395200252533	0.09991693496704102
46	513.831216096878	fix_pre	0		119	44.0	2.5	/experiments/AOT/AOT_stimuli/rescaled_final/2017_fw.mp4	0.0	540.6394369602203	0.9915969371795654
46	514.8071432113647	pulse	0	t		44.0	2.5	/experiments/AOT/AOT_stimuli/rescaled_final/2017_fw.mp4	0.0	541.615364074707	
46	514.8228130340576	movie	1		245	44.0	2.5	/experiments/AOT/AOT_stimuli/rescaled_final/2017_fw.mp4	0.0	541.6310338973999	2.508366107940674
46	516.4149391651154	pulse	1	t		44.0	2.5	/experiments/AOT/AOT_stimuli/rescaled_final/2017_fw.mp4	0.0	543.2231600284576	
46	517.3311791419983	fix_post	2		12	44.0	2.5	/experiments/AOT/AOT_stimuli/rescaled_final/2017_fw.mp4	0.0	544.1394000053406	0.09993386268615723
47	517.4311130046844	fix_pre	0		120	45.0	2.5	/experiments/AOT/AOT_stimuli/rescaled_final/0270_fw.mp4	0.0	544.2393338680267	1.0000381469726562
47	518.014662027359	pulse	0	t		45.0	2.5	/experiments/AOT/AOT_stimuli/rescaled_final/0270_fw.mp4	0.0	544.8228828907013	
47	518.4311511516571	movie	1		243	45.0	2.5	/experiments/AOT/AOT_stimuli/rescaled_final/0270_fw.mp4	0.0	545.2393720149994	2.5000429153442383
47	519.6146991252899	pulse	1	t		45.0	2.5	/experiments/AOT/AOT_stimuli/rescaled_final/0270_fw.mp4	0.0	546.4229199886322	
47	520.9311940670013	fix_post	2		12	45.0	2.5	/experiments/AOT/AOT_stimuli/rescaled_final/0270_fw.mp4	0.0	547.7394149303436	0.09998297691345215
48	521.0311770439148	fix_pre	0		120	46.0	2.5	/experiments/AOT/AOT_stimuli/rescaled_final/1001_rv.mp4	0.0	547.8393979072571	1.0000569820404053
48	521.2146441936493	pulse	0	t		46.0	2.5	/experiments/AOT/AOT_stimuli/rescaled_final/1001_rv.mp4	0.0	548.0228650569916	
48	522.0312340259552	movie	1		242	46.0	2.5	/experiments/AOT/AOT_stimuli/rescaled_final/1001_rv.mp4	0.0	548.8394548892975	2.49943208694458
48	522.8146522045135	pulse	1	t		46.0	2.5	/experiments/AOT/AOT_stimuli/rescaled_final/1001_rv.mp4	0.0	549.6228730678558	
48	524.413134098053	pulse	1	t		46.0	2.5	/experiments/AOT/AOT_stimuli/rescaled_final/1001_rv.mp4	0.0	551.2213549613953	
48	524.5306661128998	fix_post	2		12	46.0	2.5	/experiments/AOT/AOT_stimuli/rescaled_final/1001_rv.mp4	0.0	551.3388869762421	0.10051393508911133
49	524.6311800479889	fix_pre	0		120	47.0	2.5	blank	1.0	551.4394009113312	0.9999430179595947
49	525.6311230659485	movie	1		300	47.0	2.5	blank	1.0	552.4393439292908	2.500124931335449
49	526.0073101520538	pulse	1	t		47.0	2.5	blank	1.0	552.8155310153961	
49	527.614734172821	pulse	1	t		47.0	2.5	blank	1.0	554.4229550361633	
49	528.1312479972839	fix_post	2		12	47.0	2.5	blank	1.0	554.9394688606262	0.09943318367004395
50	528.230681180954	fix_pre	0		119	48.0	2.5	/experiments/AOT/AOT_stimuli/rescaled_final/1156_fw.mp4	0.0	555.0389020442963	0.9921619892120361
50	529.2142381668091	pulse	0	t		48.0	2.5	/experiments/AOT/AOT_stimuli/rescaled_final/1156_fw.mp4	0.0	556.0224590301514	
50	529.222843170166	movie	1		247	48.0	2.5	/experiments/AOT/AOT_stimuli/rescaled_final/1156_fw.mp4	0.0	556.0310640335083	2.508201837539673
50	530.8140070438385	pulse	1	t		48.0	2.5	/experiments/AOT/AOT_stimuli/rescaled_final/1156_fw.mp4	0.0	557.6222279071808	
50	531.7310450077057	fix_post	2		12	48.0	2.5	/experiments/AOT/AOT_stimuli/rescaled_final/1156_fw.mp4	0.0	558.539265871048	0.1000981330871582
51	531.8311431407928	fix_pre	0		120	49.0	2.5	/experiments/AOT/AOT_stimuli/rescaled_final/0949_fw.mp4	0.0	558.6393640041351	0.9999580383300781
51	532.4145481586456	pulse	0	t		49.0	2.5	/experiments/AOT/AOT_stimuli/rescaled_final/0949_fw.mp4	0.0	559.2227690219879	
51	532.8311011791229	movie	1		246	49.0	2.5	/experiments/AOT/AOT_stimuli/rescaled_final/0949_fw.mp4	0.0	559.6393220424652	2.4995648860931396
51	534.0146269798279	pulse	1	t		49.0	2.5	/experiments/AOT/AOT_stimuli/rescaled_final/0949_fw.mp4	0.0	560.8228478431702	
51	535.3306660652161	fix_post	2		12	49.0	2.5	/experiments/AOT/AOT_stimuli/rescaled_final/0949_fw.mp4	0.0	562.1388869285583	0.10039305686950684
52	535.4310591220856	fix_pre	0		120	50.0	2.5	/experiments/AOT/AOT_stimuli/rescaled_final/2111_rv.mp4	0.0	562.2392799854279	0.9999439716339111
52	535.6146202087402	pulse	0	t		50.0	2.5	/experiments/AOT/AOT_stimuli/rescaled_final/2111_rv.mp4	0.0	562.4228410720825	
52	536.4310030937195	movie	1		244	50.0	2.5	/experiments/AOT/AOT_stimuli/rescaled_final/2111_rv.mp4	0.0	563.2392239570618	2.5000600814819336
52	537.214476108551	pulse	1	t		50.0	2.5	/experiments/AOT/AOT_stimuli/rescaled_final/2111_rv.mp4	0.0	564.0226969718933	
52	538.8129501342773	pulse	1	t		50.0	2.5	/experiments/AOT/AOT_stimuli/rescaled_final/2111_rv.mp4	0.0	565.6211709976196	
52	538.9310631752014	fix_post	2		12	50.0	2.5	/experiments/AOT/AOT_stimuli/rescaled_final/2111_rv.mp4	0.0	565.7392840385437	0.09999990463256836
53	539.031063079834	fix_pre	0		120	51.0	2.5	/experiments/AOT/AOT_stimuli/rescaled_final/0932_fw.mp4	0.0	565.8392839431763	0.9999749660491943
53	540.0310380458832	movie	1		243	51.0	2.5	/experiments/AOT/AOT_stimuli/rescaled_final/0932_fw.mp4	0.0	566.8392589092255	2.5000181198120117
53	540.4147601127625	pulse	1	t		51.0	2.5	/experiments/AOT/AOT_stimuli/rescaled_final/0932_fw.mp4	0.0	567.2229809761047	
53	542.0072650909424	pulse	1	t		51.0	2.5	/experiments/AOT/AOT_stimuli/rescaled_final/0932_fw.mp4	0.0	568.8154859542847	
53	542.5310561656952	fix_post	2		12	51.0	2.5	/experiments/AOT/AOT_stimuli/rescaled_final/0932_fw.mp4	0.0	569.3392770290375	0.09996795654296875
54	542.6310241222382	fix_pre	0		119	52.0	2.5	/experiments/AOT/AOT_stimuli/rescaled_final/1156_rv.mp4	0.0	569.4392449855804	0.991602897644043
54	543.6069321632385	pulse	0	t		52.0	2.5	/experiments/AOT/AOT_stimuli/rescaled_final/1156_rv.mp4	0.0	570.4151530265808	
54	543.6226270198822	movie	1		244	52.0	2.5	/experiments/AOT/AOT_stimuli/rescaled_final/1156_rv.mp4	0.0	570.4308478832245	2.5084140300750732
54	545.2154631614685	pulse	1	t		52.0	2.5	/experiments/AOT/AOT_stimuli/rescaled_final/1156_rv.mp4	0.0	572.0236840248108	
54	546.1310410499573	fix_post	2		12	52.0	2.5	/experiments/AOT/AOT_stimuli/rescaled_final/1156_rv.mp4	0.0	572.9392619132996	0.09992098808288574
55	546.2309620380402	fix_pre	0		120	53.0	2.5	/experiments/AOT/AOT_stimuli/rescaled_final/1767_fw.mp4	0.0	573.0391829013824	1.000087022781372
55	546.8070080280304	pulse	0	t		53.0	2.5	/experiments/AOT/AOT_stimuli/rescaled_final/1767_fw.mp4	0.0	573.6152288913727	
55	547.2310490608215	movie	1		244	53.0	2.5	/experiments/AOT/AOT_stimuli/rescaled_final/1767_fw.mp4	0.0	574.0392699241638	2.499912977218628
55	548.4145741462708	pulse	1	t		53.0	2.5	/experiments/AOT/AOT_stimuli/rescaled_final/1767_fw.mp4	0.0	575.222795009613	
55	549.7309620380402	fix_post	2		12	53.0	2.5	/experiments/AOT/AOT_stimuli/rescaled_final/1767_fw.mp4	0.0	576.5391829013824	0.0999600887298584
56	549.83092212677	fix_pre	0		120	54.0	2.5	/experiments/AOT/AOT_stimuli/rescaled_final/0220_fw.mp4	0.0	576.6391429901123	0.9999990463256836
56	550.0145180225372	pulse	0	t		54.0	2.5	/experiments/AOT/AOT_stimuli/rescaled_final/0220_fw.mp4	0.0	576.8227388858795	
56	550.8309211730957	movie	1		244	54.0	2.5	/experiments/AOT/AOT_stimuli/rescaled_final/0220_fw.mp4	0.0	577.639142036438	2.5000689029693604
56	551.6146230697632	pulse	1	t		54.0	2.5	/experiments/AOT/AOT_stimuli/rescaled_final/0220_fw.mp4	0.0	578.4228439331055	
56	553.2131540775299	pulse	1	t		54.0	2.5	/experiments/AOT/AOT_stimuli/rescaled_final/0220_fw.mp4	0.0	580.0213749408722	
56	553.3309900760651	fix_post	2		12	54.0	2.5	/experiments/AOT/AOT_stimuli/rescaled_final/0220_fw.mp4	0.0	580.1392109394073	0.10007095336914062
57	553.4310610294342	fix_pre	0		120	55.0	2.5	blank	1.0	580.2392818927765	1.0000081062316895
57	554.4310691356659	movie	1		300	55.0	2.5	blank	1.0	581.2392899990082	2.4999239444732666
57	554.8144710063934	pulse	1	t		55.0	2.5	blank	1.0	581.6226918697357	
57	556.4144170284271	pulse	1	t		55.0	2.5	blank	1.0	583.2226378917694	
57	556.9309930801392	fix_post	2		12	55.0	2.5	blank	1.0	583.7392139434814	0.10002899169921875
58	557.0310220718384	fix_pre	0		119	56.0	2.5	/experiments/AOT/AOT_stimuli/rescaled_final/1775_rv.mp4	0.0	583.8392429351807	0.9916400909423828
58	558.0144290924072	pulse	0	t		56.0	2.5	/experiments/AOT/AOT_stimuli/rescaled_final/1775_rv.mp4	0.0	584.8226499557495	
58	558.0226621627808	movie	1		245	56.0	2.5	/experiments/AOT/AOT_stimuli/rescaled_final/1775_rv.mp4	0.0	584.830883026123	2.5083389282226562
58	559.6138560771942	pulse	1	t		56.0	2.5	/experiments/AOT/AOT_stimuli/rescaled_final/1775_rv.mp4	0.0	586.4220769405365	
58	560.5310010910034	fix_post	2		12	56.0	2.5	/experiments/AOT/AOT_stimuli/rescaled_final/1775_rv.mp4	0.0	587.3392219543457	0.09999990463256836
59	560.631000995636	fix_pre	0		120	57.0	2.5	/experiments/AOT/AOT_stimuli/rescaled_final/0381_fw.mp4	0.0	587.4392218589783	1.0000061988830566
59	561.2144131660461	pulse	0	t		57.0	2.5	/experiments/AOT/AOT_stimuli/rescaled_final/0381_fw.mp4	0.0	588.0226340293884	
59	561.631007194519	movie	1		246	57.0	2.5	/experiments/AOT/AOT_stimuli/rescaled_final/0381_fw.mp4	0.0	588.4392280578613	2.4999098777770996
59	562.8144462108612	pulse	1	t		57.0	2.5	/experiments/AOT/AOT_stimuli/rescaled_final/0381_fw.mp4	0.0	589.6226670742035	
59	564.1309170722961	fix_post	2		12	57.0	2.5	/experiments/AOT/AOT_stimuli/rescaled_final/0381_fw.mp4	0.0	590.9391379356384	0.09999394416809082
60	564.2309110164642	fix_pre	0		120	58.0	2.5	/experiments/AOT/AOT_stimuli/rescaled_final/0359_rv.mp4	0.0	591.0391318798065	1.0000441074371338
60	564.4144032001495	pulse	0	t		58.0	2.5	/experiments/AOT/AOT_stimuli/rescaled_final/0359_rv.mp4	0.0	591.2226240634918	
60	565.2309551239014	movie	1		244	58.0	2.5	/experiments/AOT/AOT_stimuli/rescaled_final/0359_rv.mp4	0.0	592.0391759872437	2.4999489784240723
60	566.0144150257111	pulse	1	t		58.0	2.5	/experiments/AOT/AOT_stimuli/rescaled_final/0359_rv.mp4	0.0	592.8226358890533	
60	567.6130430698395	pulse	1	t		58.0	2.5	/experiments/AOT/AOT_stimuli/rescaled_final/0359_rv.mp4	0.0	594.4212639331818	
60	567.7309041023254	fix_post	2		12	58.0	2.5	/experiments/AOT/AOT_stimuli/rescaled_final/0359_rv.mp4	0.0	594.5391249656677	0.09998798370361328
61	567.830892086029	fix_pre	0		120	59.0	2.5	/experiments/AOT/AOT_stimuli/rescaled_final/1526_rv.mp4	0.0	594.6391129493713	1.000040054321289
61	568.8309321403503	movie	1		245	59.0	2.5	/experiments/AOT/AOT_stimuli/rescaled_final/1526_rv.mp4	0.0	595.6391530036926	2.5000288486480713
61	569.21395611763	pulse	1	t		59.0	2.5	/experiments/AOT/AOT_stimuli/rescaled_final/1526_rv.mp4	0.0	596.0221769809723	
61	570.8143801689148	pulse	1	t		59.0	2.5	/experiments/AOT/AOT_stimuli/rescaled_final/1526_rv.mp4	0.0	597.6226010322571	
61	571.3309609889984	fix_post	2		12	59.0	2.5	/experiments/AOT/AOT_stimuli/rescaled_final/1526_rv.mp4	0.0	598.1391818523407	0.10000300407409668
62	571.4309639930725	fix_pre	0		119	60.0	2.5	/experiments/AOT/AOT_stimuli/rescaled_final/0046_rv.mp4	0.0	598.2391848564148	0.9916341304779053
62	572.4143760204315	pulse	0	t		60.0	2.5	/experiments/AOT/AOT_stimuli/rescaled_final/0046_rv.mp4	0.0	599.2225968837738	
62	572.4225981235504	movie	1		244	60.0	2.5	/experiments/AOT/AOT_stimuli/rescaled_final/0046_rv.mp4	0.0	599.2308189868927	2.5084340572357178
62	574.0138931274414	pulse	1	t		60.0	2.5	/experiments/AOT/AOT_stimuli/rescaled_final/0046_rv.mp4	0.0	600.8221139907837	
62	574.9310321807861	fix_post	2		12	60.0	2.5	/experiments/AOT/AOT_stimuli/rescaled_final/0046_rv.mp4	0.0	601.7392530441284	0.09984302520751953
63	575.0308752059937	fix_pre	0		120	61.0	2.5	/experiments/AOT/AOT_stimuli/rescaled_final/0359_rv.mp4	0.0	601.8390960693359	1.0000038146972656
63	575.6143760681152	pulse	0	t		61.0	2.5	/experiments/AOT/AOT_stimuli/rescaled_final/0359_rv.mp4	0.0	602.4225969314575	
63	576.0308790206909	movie	1		243	61.0	2.5	/experiments/AOT/AOT_stimuli/rescaled_final/0359_rv.mp4	0.0	602.8390998840332	2.5000240802764893
63	577.2144501209259	pulse	1	t		61.0	2.5	/experiments/AOT/AOT_stimuli/rescaled_final/0359_rv.mp4	0.0	604.0226709842682	
63	578.5309031009674	fix_post	2		12	61.0	2.5	/experiments/AOT/AOT_stimuli/rescaled_final/0359_rv.mp4	0.0	605.3391239643097	0.09998202323913574
64	578.6308851242065	fix_pre	0		120	62.0	2.5	/experiments/AOT/AOT_stimuli/rescaled_final/0754_rv.mp4	0.0	605.4391059875488	1.0000028610229492
64	578.8067359924316	pulse	0	t		62.0	2.5	/experiments/AOT/AOT_stimuli/rescaled_final/0754_rv.mp4	0.0	605.6149568557739	
64	579.6308879852295	movie	1		244	62.0	2.5	/experiments/AOT/AOT_stimuli/rescaled_final/0754_rv.mp4	0.0	606.4391088485718	2.500152111053467
64	580.4143860340118	pulse	1	t		62.0	2.5	/experiments/AOT/AOT_stimuli/rescaled_final/0754_rv.mp4	0.0	607.2226068973541	
64	582.0104341506958	pulse	1	t		62.0	2.5	/experiments/AOT/AOT_stimuli/rescaled_final/0754_rv.mp4	0.0	608.8186550140381	
64	582.131040096283	fix_post	2		12	62.0	2.5	/experiments/AOT/AOT_stimuli/rescaled_final/0754_rv.mp4	0.0	608.9392609596252	0.09977602958679199
65	582.2308161258698	fix_pre	0		120	63.0	2.5	blank	1.0	609.039036989212	1.0001978874206543
65	583.2310140132904	movie	1		300	63.0	2.5	blank	1.0	610.0392348766327	2.499530076980591
65	583.6144120693207	pulse	1	t		63.0	2.5	blank	1.0	610.422632932663	
65	585.2139520645142	pulse	1	t		63.0	2.5	blank	1.0	612.0221729278564	
65	585.730544090271	fix_post	2		12	63.0	2.5	blank	1.0	612.5387649536133	0.09999394416809082
66	585.8305380344391	fix_pre	0		117	64.0	2.5	/experiments/AOT/AOT_stimuli/rescaled_final/1021_fw.mp4	0.0	612.6387588977814	0.9923501014709473
66	586.8146262168884	pulse	0	t		64.0	2.5	/experiments/AOT/AOT_stimuli/rescaled_final/1021_fw.mp4	0.0	613.6228470802307	
66	586.82288813591	movie	1		244	64.0	2.5	/experiments/AOT/AOT_stimuli/rescaled_final/1021_fw.mp4	0.0	613.6311089992523	2.5080020427703857
66	588.4145331382751	pulse	1	t		64.0	2.5	/experiments/AOT/AOT_stimuli/rescaled_final/1021_fw.mp4	0.0	615.2227540016174	
66	589.3308901786804	fix_post	2		12	64.0	2.5	/experiments/AOT/AOT_stimuli/rescaled_final/1021_fw.mp4	0.0	616.1391110420227	0.09989094734191895
67	589.4307811260223	fix_pre	0		120	65.0	2.5	/experiments/AOT/AOT_stimuli/rescaled_final/1694_rv.mp4	0.0	616.2390019893646	1.0000650882720947
67	590.0143060684204	pulse	0	t		65.0	2.5	/experiments/AOT/AOT_stimuli/rescaled_final/1694_rv.mp4	0.0	616.8225269317627	
67	590.4308462142944	movie	1		242	65.0	2.5	/experiments/AOT/AOT_stimuli/rescaled_final/1694_rv.mp4	0.0	617.2390670776367	2.499908924102783
67	591.60742020607	pulse	1	t		65.0	2.5	/experiments/AOT/AOT_stimuli/rescaled_final/1694_rv.mp4	0.0	618.4156410694122	
67	592.9307551383972	fix_post	2		12	65.0	2.5	/experiments/AOT/AOT_stimuli/rescaled_final/1694_rv.mp4	0.0	619.7389760017395	0.10005688667297363
68	593.0308120250702	fix_pre	0		120	66.0	2.5	/experiments/AOT/AOT_stimuli/rescaled_final/0682_rv.mp4	0.0	619.8390328884125	0.9999780654907227
68	593.214282989502	pulse	0	t		66.0	2.5	/experiments/AOT/AOT_stimuli/rescaled_final/0682_rv.mp4	0.0	620.0225038528442	
68	594.0307900905609	movie	1		243	66.0	2.5	/experiments/AOT/AOT_stimuli/rescaled_final/0682_rv.mp4	0.0	620.8390109539032	2.4998509883880615
68	594.8142070770264	pulse	1	t		66.0	2.5	/experiments/AOT/AOT_stimuli/rescaled_final/0682_rv.mp4	0.0	621.6224279403687	
68	596.4125370979309	pulse	1	t		66.0	2.5	/experiments/AOT/AOT_stimuli/rescaled_final/0682_rv.mp4	0.0	623.2207579612732	
68	596.530641078949	fix_post	2		12	66.0	2.5	/experiments/AOT/AOT_stimuli/rescaled_final/0682_rv.mp4	0.0	623.3388619422913	0.10003805160522461
69	596.6306791305542	fix_pre	0		120	67.0	2.5	/experiments/AOT/AOT_stimuli/rescaled_final/1595_fw.mp4	0.0	623.4388999938965	1.0
69	597.6306791305542	movie	1		245	67.0	2.5	/experiments/AOT/AOT_stimuli/rescaled_final/1595_fw.mp4	0.0	624.4388999938965	2.5000269412994385
69	598.0138700008392	pulse	1	t		67.0	2.5	/experiments/AOT/AOT_stimuli/rescaled_final/1595_fw.mp4	0.0	624.8220908641815	
69	599.6141800880432	pulse	1	t		67.0	2.5	/experiments/AOT/AOT_stimuli/rescaled_final/1595_fw.mp4	0.0	626.4224009513855	
69	600.1307060718536	fix_post	2		12	67.0	2.5	/experiments/AOT/AOT_stimuli/rescaled_final/1595_fw.mp4	0.0	626.9389269351959	0.09994912147521973
70	600.2306551933289	fix_pre	0		119	68.0	2.5	/experiments/AOT/AOT_stimuli/rescaled_final/1048_rv.mp4	0.0	627.0388760566711	0.9917609691619873
70	601.2142791748047	pulse	0	t		68.0	2.5	/experiments/AOT/AOT_stimuli/rescaled_final/1048_rv.mp4	0.0	628.022500038147	
70	601.2224161624908	movie	1		244	68.0	2.5	/experiments/AOT/AOT_stimuli/rescaled_final/1048_rv.mp4	0.0	628.0306370258331	2.5082650184631348
70	602.8137640953064	pulse	1	t		68.0	2.5	/experiments/AOT/AOT_stimuli/rescaled_final/1048_rv.mp4	0.0	629.6219849586487	
70	603.730681180954	fix_post	2		12	68.0	2.5	/experiments/AOT/AOT_stimuli/rescaled_final/1048_rv.mp4	0.0	630.5389020442963	0.10005497932434082
71	603.8307361602783	fix_pre	0		120	69.0	2.5	/experiments/AOT/AOT_stimuli/rescaled_final/1630_rv.mp4	0.0	630.6389570236206	0.9999480247497559
71	604.4142501354218	pulse	0	t		69.0	2.5	/experiments/AOT/AOT_stimuli/rescaled_final/1630_rv.mp4	0.0	631.222470998764	
71	604.8306841850281	movie	1		243	69.0	2.5	/experiments/AOT/AOT_stimuli/rescaled_final/1630_rv.mp4	0.0	631.6389050483704	2.5000288486480713
71	606.0143392086029	pulse	1	t		69.0	2.5	/experiments/AOT/AOT_stimuli/rescaled_final/1630_rv.mp4	0.0	632.8225600719452	
71	607.3307130336761	fix_post	2		12	69.0	2.5	/experiments/AOT/AOT_stimuli/rescaled_final/1630_rv.mp4	0.0	634.1389338970184	0.09995102882385254
72	607.4306640625	fix_pre	0		120	70.0	2.5	blank	1.0	634.2388849258423	1.0000641345977783
72	607.6142480373383	pulse	0	t		70.0	2.5	blank	1.0	634.4224689006805	
72	608.4307281970978	movie	1		300	70.0	2.5	blank	1.0	635.2389490604401	2.499952793121338
72	609.2142059803009	pulse	1	t		70.0	2.5	blank	1.0	636.0224268436432	
72	610.8141829967499	pulse	1	t		70.0	2.5	blank	1.0	637.6224038600922	
72	610.9306809902191	fix_post	2		12	70.0	2.5	blank	1.0	637.7389018535614	0.1000070571899414
73	611.0306880474091	fix_pre	0		120	71.0	2.5	/experiments/AOT/AOT_stimuli/rescaled_final/1138_rv.mp4	0.0	637.8389089107513	0.9999799728393555
73	612.0306680202484	movie	1		242	71.0	2.5	/experiments/AOT/AOT_stimuli/rescaled_final/1138_rv.mp4	0.0	638.8388888835907	2.5000250339508057
73	612.4156930446625	pulse	1	t		71.0	2.5	/experiments/AOT/AOT_stimuli/rescaled_final/1138_rv.mp4	0.0	639.2239139080048	
73	614.0141739845276	pulse	1	t		71.0	2.5	/experiments/AOT/AOT_stimuli/rescaled_final/1138_rv.mp4	0.0	640.8223948478699	
73	614.5306930541992	fix_post	2		12	71.0	2.5	/experiments/AOT/AOT_stimuli/rescaled_final/1138_rv.mp4	0.0	641.3389139175415	0.09993505477905273
74	614.6306281089783	fix_pre	0		119	72.0	2.5	/experiments/AOT/AOT_stimuli/rescaled_final/1156_fw.mp4	0.0	641.4388489723206	0.991671085357666
74	615.6142120361328	pulse	0	t		72.0	2.5	/experiments/AOT/AOT_stimuli/rescaled_final/1156_fw.mp4	0.0	642.4224328994751	
74	615.6222991943359	movie	1		244	72.0	2.5	/experiments/AOT/AOT_stimuli/rescaled_final/1156_fw.mp4	0.0	642.4305200576782	2.508340835571289
74	617.2139120101929	pulse	1	t		72.0	2.5	/experiments/AOT/AOT_stimuli/rescaled_final/1156_fw.mp4	0.0	644.0221328735352	
74	618.1306400299072	fix_post	2		12	72.0	2.5	/experiments/AOT/AOT_stimuli/rescaled_final/1156_fw.mp4	0.0	644.9388608932495	0.10003018379211426
75	618.2306702136993	fix_pre	0		120	73.0	2.5	/experiments/AOT/AOT_stimuli/rescaled_final/0878_rv.mp4	0.0	645.0388910770416	0.9999549388885498
75	618.8141951560974	pulse	0	t		73.0	2.5	/experiments/AOT/AOT_stimuli/rescaled_final/0878_rv.mp4	0.0	645.6224160194397	
75	619.2306251525879	movie	1		243	73.0	2.5	/experiments/AOT/AOT_stimuli/rescaled_final/0878_rv.mp4	0.0	646.0388460159302	2.499595880508423
75	620.414192199707	pulse	1	t		73.0	2.5	/experiments/AOT/AOT_stimuli/rescaled_final/0878_rv.mp4	0.0	647.2224130630493	
75	621.7302210330963	fix_post	2		12	73.0	2.5	/experiments/AOT/AOT_stimuli/rescaled_final/0878_rv.mp4	0.0	648.5384418964386	0.10047197341918945
76	621.8306930065155	fix_pre	0		120	74.0	2.5	/experiments/AOT/AOT_stimuli/rescaled_final/0501_fw.mp4	0.0	648.6389138698578	0.9999551773071289
76	622.0142900943756	pulse	0	t		74.0	2.5	/experiments/AOT/AOT_stimuli/rescaled_final/0501_fw.mp4	0.0	648.8225109577179	
76	622.8306481838226	movie	1		242	74.0	2.5	/experiments/AOT/AOT_stimuli/rescaled_final/0501_fw.mp4	0.0	649.6388690471649	2.500025987625122
76	623.6141571998596	pulse	1	t		74.0	2.5	/experiments/AOT/AOT_stimuli/rescaled_final/0501_fw.mp4	0.0	650.4223780632019	
76	625.2125639915466	pulse	1	t		74.0	2.5	/experiments/AOT/AOT_stimuli/rescaled_final/0501_fw.mp4	0.0	652.0207848548889	
76	625.3306741714478	fix_post	2		12	74.0	2.5	/experiments/AOT/AOT_stimuli/rescaled_final/0501_fw.mp4	0.0	652.13889503479	0.09996700286865234
77	625.4306411743164	fix_pre	0		120	75.0	2.5	/experiments/AOT/AOT_stimuli/rescaled_final/1486_fw.mp4	0.0	652.2388620376587	1.0000219345092773
77	626.4306631088257	movie	1		244	75.0	2.5	/experiments/AOT/AOT_stimuli/rescaled_final/1486_fw.mp4	0.0	653.238883972168	2.5000391006469727
77	626.8148491382599	pulse	1	t		75.0	2.5	/experiments/AOT/AOT_stimuli/rescaled_final/1486_fw.mp4	0.0	653.6230700016022	
77	628.4141550064087	pulse	1	t		75.0	2.5	/experiments/AOT/AOT_stimuli/rescaled_final/1486_fw.mp4	0.0	655.222375869751	
77	628.9307022094727	fix_post	2		12	75.0	2.5	/experiments/AOT/AOT_stimuli/rescaled_final/1486_fw.mp4	0.0	655.7389230728149	0.09988188743591309
78	629.0305840969086	fix_pre	0		119	76.0	2.5	/experiments/AOT/AOT_stimuli/rescaled_final/0678_fw.mp4	0.0	655.8388049602509	0.9917459487915039
78	630.0141019821167	pulse	0	t		76.0	2.5	/experiments/AOT/AOT_stimuli/rescaled_final/0678_fw.mp4	0.0	656.822322845459	
78	630.0223300457001	movie	1		244	76.0	2.5	/experiments/AOT/AOT_stimuli/rescaled_final/0678_fw.mp4	0.0	656.8305509090424	2.508204936981201
78	631.6138701438904	pulse	1	t		76.0	2.5	/experiments/AOT/AOT_stimuli/rescaled_final/0678_fw.mp4	0.0	658.4220910072327	
78	632.5305349826813	fix_post	2		12	76.0	2.5	/experiments/AOT/AOT_stimuli/rescaled_final/0678_fw.mp4	0.0	659.3387558460236	0.10003113746643066
79	632.6305661201477	fix_pre	0		120	77.0	2.5	blank	1.0	659.43878698349	0.999971866607666
79	633.2141010761261	pulse	0	t		77.0	2.5	blank	1.0	660.0223219394684	
79	633.6305379867554	movie	1		300	77.0	2.5	blank	1.0	660.4387588500977	2.499981164932251
79	634.8140680789948	pulse	1	t		77.0	2.5	blank	1.0	661.622288942337	
79	636.1305191516876	fix_post	2		12	77.0	2.5	blank	1.0	662.9387400150299	0.10003089904785156
80	636.2305500507355	fix_pre	0		120	78.0	2.5	/experiments/AOT/AOT_stimuli/rescaled_final/2111_fw.mp4	0.0	663.0387709140778	0.9999699592590332
80	636.4140560626984	pulse	0	t		78.0	2.5	/experiments/AOT/AOT_stimuli/rescaled_final/2111_fw.mp4	0.0	663.2222769260406	
80	637.2305200099945	movie	1		243	78.0	2.5	/experiments/AOT/AOT_stimuli/rescaled_final/2111_fw.mp4	0.0	664.0387408733368	2.5000991821289062
80	638.0140590667725	pulse	1	t		78.0	2.5	/experiments/AOT/AOT_stimuli/rescaled_final/2111_fw.mp4	0.0	664.8222799301147	
80	639.6102120876312	pulse	1	t		78.0	2.5	/experiments/AOT/AOT_stimuli/rescaled_final/2111_fw.mp4	0.0	666.4184329509735	
80	639.7306191921234	fix_post	2		12	78.0	2.5	/experiments/AOT/AOT_stimuli/rescaled_final/2111_fw.mp4	0.0	666.5388400554657	0.10005784034729004
81	639.8306770324707	fix_pre	0		120	79.0	2.5	/experiments/AOT/AOT_stimuli/rescaled_final/0680_fw.mp4	0.0	666.638897895813	0.9995729923248291
81	640.8302500247955	movie	1		244	79.0	2.5	/experiments/AOT/AOT_stimuli/rescaled_final/0680_fw.mp4	0.0	667.6384708881378	2.5003700256347656
81	641.2133870124817	pulse	1	t		79.0	2.5	/experiments/AOT/AOT_stimuli/rescaled_final/0680_fw.mp4	0.0	668.021607875824	
81	642.8069341182709	pulse	1	t		79.0	2.5	/experiments/AOT/AOT_stimuli/rescaled_final/0680_fw.mp4	0.0	669.6151549816132	
81	643.3306200504303	fix_post	2		12	79.0	2.5	/experiments/AOT/AOT_stimuli/rescaled_final/0680_fw.mp4	0.0	670.1388409137726	0.09998297691345215
82	643.4306030273438	fix_pre	0		119	80.0	2.5	/experiments/AOT/AOT_stimuli/rescaled_final/1481_fw.mp4	0.0	670.238823890686	0.99163818359375
82	644.4140272140503	pulse	0	t		80.0	2.5	/experiments/AOT/AOT_stimuli/rescaled_final/1481_fw.mp4	0.0	671.2222480773926	
82	644.4222412109375	movie	1		244	80.0	2.5	/experiments/AOT/AOT_stimuli/rescaled_final/1481_fw.mp4	0.0	671.2304620742798	2.508307933807373
82	646.0135180950165	pulse	1	t		80.0	2.5	/experiments/AOT/AOT_stimuli/rescaled_final/1481_fw.mp4	0.0	672.8217389583588	
82	646.9305491447449	fix_post	2		12	80.0	2.5	/experiments/AOT/AOT_stimuli/rescaled_final/1481_fw.mp4	0.0	673.7387700080872	0.10002803802490234
83	647.0305771827698	fix_pre	0		120	81.0	2.5	/experiments/AOT/AOT_stimuli/rescaled_final/0970_rv.mp4	0.0	673.8387980461121	0.999957799911499
83	647.614009141922	pulse	0	t		81.0	2.5	/experiments/AOT/AOT_stimuli/rescaled_final/0970_rv.mp4	0.0	674.4222300052643	
83	648.0305349826813	movie	1		245	81.0	2.5	/experiments/AOT/AOT_stimuli/rescaled_final/0970_rv.mp4	0.0	674.8387558460236	2.4999561309814453
83	649.2140481472015	pulse	1	t		81.0	2.5	/experiments/AOT/AOT_stimuli/rescaled_final/0970_rv.mp4	0.0	676.0222690105438	
83	650.5304911136627	fix_post	2		12	81.0	2.5	/experiments/AOT/AOT_stimuli/rescaled_final/0970_rv.mp4	0.0	677.338711977005	0.09998607635498047
84	650.6304771900177	fix_pre	0		120	82.0	2.5	blank	1.0	677.43869805336	0.9999539852142334
84	650.8139741420746	pulse	0	t		82.0	2.5	blank	1.0	677.6221950054169	
84	651.6304311752319	movie	1		300	82.0	2.5	blank	1.0	678.4386520385742	2.50006103515625
84	652.4138979911804	pulse	1	t		82.0	2.5	blank	1.0	679.2221188545227	
84	654.013946056366	pulse	1	t		82.0	2.5	blank	1.0	680.8221669197083	
84	654.1304922103882	fix_post	2		12	82.0	2.5	blank	1.0	680.9387130737305	0.09989094734191895
85	654.2303831577301	fix_pre	0		120	83.0	2.5	/experiments/AOT/AOT_stimuli/rescaled_final/0010_fw.mp4	0.0	681.0386040210724	1.000093936920166
85	655.2304770946503	movie	1		243	83.0	2.5	/experiments/AOT/AOT_stimuli/rescaled_final/0010_fw.mp4	0.0	682.0386979579926	2.499908924102783
85	655.6135292053223	pulse	1	t		83.0	2.5	/experiments/AOT/AOT_stimuli/rescaled_final/0010_fw.mp4	0.0	682.4217500686646	
85	657.2138969898224	pulse	1	t		83.0	2.5	/experiments/AOT/AOT_stimuli/rescaled_final/0010_fw.mp4	0.0	684.0221178531647	
85	657.730386018753	fix_post	2		12	83.0	2.5	/experiments/AOT/AOT_stimuli/rescaled_final/0010_fw.mp4	0.0	684.5386068820953	0.10017919540405273
87	657.8305652141571	stim	0		1716					684.6387860774994	14.299834966659546
87	658.8139111995697	pulse	0	t						685.622132062912	
87	660.4139161109924	pulse	0	t						687.2221369743347	
87	662.0139260292053	pulse	0	t						688.8221468925476	
87	663.6139440536499	pulse	0	t						690.4221649169922	
87	665.2138960361481	pulse	0	t						692.0221168994904	
87	666.813873052597	pulse	0	t						693.6220939159393	
87	668.4138560295105	pulse	0	t						695.2220768928528	
87	670.0138812065125	pulse	0	t						696.8221020698547	
87	671.6138951778412	pulse	0	t						698.4221160411835	
