trial_nr	onset	event_type	phase	response	nr_frames	movie_index	movie_duration	movie_file	blank	onset_abs	duration
0	0.18341398239135742	stim	0		12					23.737820148468018	0.09992504119873047
0	0.2753109931945801	response	0	space						23.82971715927124	
1	0.2833390235900879	stim	0		4865					23.837745189666748	40.55783796310425
1	40.83127498626709	pulse	0	t						64.38568115234375	
1	40.841176986694336	stim	1		1715					64.395583152771	14.30032992362976
1	42.42313194274902	pulse	1	t						65.97753810882568	
1	44.023340940475464	pulse	1	t						67.57774710655212	
1	45.623610973358154	pulse	1	t						69.17801713943481	
1	47.223811864852905	pulse	1	t						70.77821803092957	
1	48.824142932891846	pulse	1	t						72.3785490989685	
1	50.42424988746643	pulse	1	t						73.97865605354309	
1	52.02458691596985	pulse	1	t						75.57899308204651	
1	53.624812841415405	pulse	1	t						77.17921900749207	
2	55.1415069103241	fix_pre	0		11	0.0	2.5	/experiments/knapen_AOT/AOT_stimuli/rescaled_final/1475_fw.mp4	0.0	78.69591307640076	0.10020589828491211
2	55.22508883476257	pulse	0	t		0.0	2.5	/experiments/knapen_AOT/AOT_stimuli/rescaled_final/1475_fw.mp4	0.0	78.77949500083923	
2	55.24171280860901	movie	1		244	0.0	2.5	/experiments/knapen_AOT/AOT_stimuli/rescaled_final/1475_fw.mp4	0.0	78.79611897468567	2.500166177749634
2	56.826093912124634	pulse	1	t		0.0	2.5	/experiments/knapen_AOT/AOT_stimuli/rescaled_final/1475_fw.mp4	0.0	80.3805000782013	
2	57.74187898635864	fix_post	2		12	0.0	2.5	/experiments/knapen_AOT/AOT_stimuli/rescaled_final/1475_fw.mp4	0.0	81.2962851524353	0.10003781318664551
3	57.84191679954529	fix_pre	0		120	1.0	2.5	/experiments/knapen_AOT/AOT_stimuli/rescaled_final/1062_rv.mp4	0.0	81.39632296562195	1.0000951290130615
3	58.42556691169739	pulse	0	t		1.0	2.5	/experiments/knapen_AOT/AOT_stimuli/rescaled_final/1062_rv.mp4	0.0	81.97997307777405	
3	58.84201192855835	movie	1		244	1.0	2.5	/experiments/knapen_AOT/AOT_stimuli/rescaled_final/1062_rv.mp4	0.0	82.39641809463501	2.5004160404205322
3	60.02587080001831	pulse	1	t		1.0	2.5	/experiments/knapen_AOT/AOT_stimuli/rescaled_final/1062_rv.mp4	0.0	83.58027696609497	
3	61.34242796897888	fix_post	2		12	1.0	2.5	/experiments/knapen_AOT/AOT_stimuli/rescaled_final/1062_rv.mp4	0.0	84.89683413505554	0.09996604919433594
4	61.44239401817322	fix_pre	0		120	2.0	2.5	/experiments/knapen_AOT/AOT_stimuli/rescaled_final/1384_fw.mp4	0.0	84.99680018424988	1.0001978874206543
4	61.625996828079224	pulse	0	t		2.0	2.5	/experiments/knapen_AOT/AOT_stimuli/rescaled_final/1384_fw.mp4	0.0	85.18040299415588	
4	62.44259190559387	movie	1		243	2.0	2.5	/experiments/knapen_AOT/AOT_stimuli/rescaled_final/1384_fw.mp4	0.0	85.99699807167053	2.5003790855407715
4	63.226266860961914	pulse	1	t		2.0	2.5	/experiments/knapen_AOT/AOT_stimuli/rescaled_final/1384_fw.mp4	0.0	86.78067302703857	
4	64.8263909816742	pulse	1	t		2.0	2.5	/experiments/knapen_AOT/AOT_stimuli/rescaled_final/1384_fw.mp4	0.0	88.38079714775085	
4	64.94297099113464	fix_post	2		12	2.0	2.5	/experiments/knapen_AOT/AOT_stimuli/rescaled_final/1384_fw.mp4	0.0	88.4973771572113	0.0999758243560791
5	65.04294681549072	fix_pre	0		120	3.0	2.5	/experiments/knapen_AOT/AOT_stimuli/rescaled_final/1960_rv.mp4	0.0	88.59735298156738	1.0001301765441895
5	66.04307699203491	movie	1		243	3.0	2.5	/experiments/knapen_AOT/AOT_stimuli/rescaled_final/1960_rv.mp4	0.0	89.59748315811157	2.492079973220825
5	66.42730402946472	pulse	1	t		3.0	2.5	/experiments/knapen_AOT/AOT_stimuli/rescaled_final/1960_rv.mp4	0.0	89.98171019554138	
5	68.026939868927	pulse	1	t		3.0	2.5	/experiments/knapen_AOT/AOT_stimuli/rescaled_final/1960_rv.mp4	0.0	91.58134603500366	
5	68.53515696525574	fix_post	2		12	3.0	2.5	/experiments/knapen_AOT/AOT_stimuli/rescaled_final/1960_rv.mp4	0.0	92.0895631313324	0.09998583793640137
6	68.63514280319214	fix_pre	0		120	4.0	2.5	/experiments/knapen_AOT/AOT_stimuli/rescaled_final/1453_rv.mp4	0.0	92.1895489692688	1.0001671314239502
6	69.62710499763489	pulse	0	t		4.0	2.5	/experiments/knapen_AOT/AOT_stimuli/rescaled_final/1453_rv.mp4	0.0	93.18151116371155	
6	69.63530993461609	movie	1		245	4.0	2.5	/experiments/knapen_AOT/AOT_stimuli/rescaled_final/1453_rv.mp4	0.0	93.18971610069275	2.508660078048706
6	71.22848796844482	pulse	1	t		4.0	2.5	/experiments/knapen_AOT/AOT_stimuli/rescaled_final/1453_rv.mp4	0.0	94.78289413452148	
6	72.1439700126648	fix_post	2		12	4.0	2.5	/experiments/knapen_AOT/AOT_stimuli/rescaled_final/1453_rv.mp4	0.0	95.69837617874146	0.10007596015930176
7	72.2440459728241	fix_pre	0		120	5.0	2.5	blank	1.0	95.79845213890076	1.0002329349517822
7	72.82772588729858	pulse	0	t		5.0	2.5	blank	1.0	96.38213205337524	
7	73.24427890777588	movie	1		300	5.0	2.5	blank	1.0	96.79868507385254	2.50028395652771
7	74.42037892341614	pulse	1	t		5.0	2.5	blank	1.0	97.9747850894928	
7	75.74456286430359	fix_post	2		12	5.0	2.5	blank	1.0	99.29896903038025	0.09998202323913574
8	75.84454488754272	fix_pre	0		120	6.0	2.5	/experiments/knapen_AOT/AOT_stimuli/rescaled_final/0103_fw.mp4	0.0	99.39895105361938	1.0001790523529053
8	76.02066898345947	pulse	0	t		6.0	2.5	/experiments/knapen_AOT/AOT_stimuli/rescaled_final/0103_fw.mp4	0.0	99.57507514953613	
8	76.84472393989563	movie	1		244	6.0	2.5	/experiments/knapen_AOT/AOT_stimuli/rescaled_final/0103_fw.mp4	0.0	100.39913010597229	2.5003280639648438
8	77.62094783782959	pulse	1	t		6.0	2.5	/experiments/knapen_AOT/AOT_stimuli/rescaled_final/0103_fw.mp4	0.0	101.17535400390625	
8	79.22041583061218	pulse	1	t		6.0	2.5	/experiments/knapen_AOT/AOT_stimuli/rescaled_final/0103_fw.mp4	0.0	102.77482199668884	
8	79.34505200386047	fix_post	2		12	6.0	2.5	/experiments/knapen_AOT/AOT_stimuli/rescaled_final/0103_fw.mp4	0.0	102.89945816993713	0.10005402565002441
9	79.4451060295105	fix_pre	0		119	7.0	2.5	/experiments/knapen_AOT/AOT_stimuli/rescaled_final/0363_fw.mp4	0.0	102.99951219558716	0.9918229579925537
9	80.43692898750305	movie	1		244	7.0	2.5	/experiments/knapen_AOT/AOT_stimuli/rescaled_final/0363_fw.mp4	0.0	103.99133515357971	2.5003409385681152
9	80.82177186012268	pulse	1	t		7.0	2.5	/experiments/knapen_AOT/AOT_stimuli/rescaled_final/0363_fw.mp4	0.0	104.37617802619934	
9	82.42082691192627	pulse	1	t		7.0	2.5	/experiments/knapen_AOT/AOT_stimuli/rescaled_final/0363_fw.mp4	0.0	105.97523307800293	
9	82.93726992607117	fix_post	2		12	7.0	2.5	/experiments/knapen_AOT/AOT_stimuli/rescaled_final/0363_fw.mp4	0.0	106.49167609214783	0.10002589225769043
10	83.03729581832886	fix_pre	0		119	8.0	2.5	/experiments/knapen_AOT/AOT_stimuli/rescaled_final/1306_fw.mp4	0.0	106.59170198440552	0.9918210506439209
10	84.02108502388	pulse	0	t		8.0	2.5	/experiments/knapen_AOT/AOT_stimuli/rescaled_final/1306_fw.mp4	0.0	107.57549118995667	
10	84.02911686897278	movie	1		245	8.0	2.5	/experiments/knapen_AOT/AOT_stimuli/rescaled_final/1306_fw.mp4	0.0	107.58352303504944	2.5086851119995117
10	85.6219367980957	pulse	1	t		8.0	2.5	/experiments/knapen_AOT/AOT_stimuli/rescaled_final/1306_fw.mp4	0.0	109.17634296417236	
10	86.53780198097229	fix_post	2		12	8.0	2.5	/experiments/knapen_AOT/AOT_stimuli/rescaled_final/1306_fw.mp4	0.0	110.09220814704895	0.10003304481506348
11	86.63783502578735	fix_pre	0		120	9.0	2.5	/experiments/knapen_AOT/AOT_stimuli/rescaled_final/1605_fw.mp4	0.0	110.19224119186401	1.000147819519043
11	87.22154998779297	pulse	0	t		9.0	2.5	/experiments/knapen_AOT/AOT_stimuli/rescaled_final/1605_fw.mp4	0.0	110.77595615386963	
11	87.6379828453064	movie	1		244	9.0	2.5	/experiments/knapen_AOT/AOT_stimuli/rescaled_final/1605_fw.mp4	0.0	111.19238901138306	2.500378131866455
11	88.82180881500244	pulse	1	t		9.0	2.5	/experiments/knapen_AOT/AOT_stimuli/rescaled_final/1605_fw.mp4	0.0	112.3762149810791	
11	90.13836097717285	fix_post	2		12	9.0	2.5	/experiments/knapen_AOT/AOT_stimuli/rescaled_final/1605_fw.mp4	0.0	113.69276714324951	0.1000068187713623
12	90.23836779594421	fix_pre	0		120	10.0	2.5	/experiments/knapen_AOT/AOT_stimuli/rescaled_final/0097_fw.mp4	0.0	113.79277396202087	1.0001652240753174
12	90.42198991775513	pulse	0	t		10.0	2.5	/experiments/knapen_AOT/AOT_stimuli/rescaled_final/0097_fw.mp4	0.0	113.97639608383179	
12	91.23853302001953	movie	1		248	10.0	2.5	/experiments/knapen_AOT/AOT_stimuli/rescaled_final/0097_fw.mp4	0.0	114.79293918609619	2.5004429817199707
12	92.02215600013733	pulse	1	t		10.0	2.5	/experiments/knapen_AOT/AOT_stimuli/rescaled_final/0097_fw.mp4	0.0	115.57656216621399	
12	93.62235999107361	pulse	1	t		10.0	2.5	/experiments/knapen_AOT/AOT_stimuli/rescaled_final/0097_fw.mp4	0.0	117.17676615715027	
12	93.7389760017395	fix_post	2		10	10.0	2.5	/experiments/knapen_AOT/AOT_stimuli/rescaled_final/0097_fw.mp4	0.0	117.29338216781616	0.09994387626647949
13	93.83891987800598	fix_pre	0		120	11.0	2.5	/experiments/knapen_AOT/AOT_stimuli/rescaled_final/0568_fw.mp4	0.0	117.39332604408264	1.000133991241455
13	94.83905386924744	movie	1		242	11.0	2.5	/experiments/knapen_AOT/AOT_stimuli/rescaled_final/0568_fw.mp4	0.0	118.3934600353241	2.4920520782470703
13	95.22313594818115	pulse	1	t		11.0	2.5	/experiments/knapen_AOT/AOT_stimuli/rescaled_final/0568_fw.mp4	0.0	118.77754211425781	
13	96.8228988647461	pulse	1	t		11.0	2.5	/experiments/knapen_AOT/AOT_stimuli/rescaled_final/0568_fw.mp4	0.0	120.37730503082275	
13	97.3311059474945	fix_post	2		12	11.0	2.5	/experiments/knapen_AOT/AOT_stimuli/rescaled_final/0568_fw.mp4	0.0	120.88551211357117	0.09999203681945801
14	97.43109798431396	fix_pre	0		120	12.0	2.5	/experiments/knapen_AOT/AOT_stimuli/rescaled_final/0850_fw.mp4	0.0	120.98550415039062	1.0002038478851318
14	98.42317199707031	pulse	0	t		12.0	2.5	/experiments/knapen_AOT/AOT_stimuli/rescaled_final/0850_fw.mp4	0.0	121.97757816314697	
14	98.4313018321991	movie	1		246	12.0	2.5	/experiments/knapen_AOT/AOT_stimuli/rescaled_final/0850_fw.mp4	0.0	121.98570799827576	2.5086441040039062
14	100.02478289604187	pulse	1	t		12.0	2.5	/experiments/knapen_AOT/AOT_stimuli/rescaled_final/0850_fw.mp4	0.0	123.57918906211853	
14	100.939945936203	fix_post	2		12	12.0	2.5	/experiments/knapen_AOT/AOT_stimuli/rescaled_final/0850_fw.mp4	0.0	124.49435210227966	0.10005402565002441
15	101.03999996185303	fix_pre	0		120	13.0	2.5	/experiments/knapen_AOT/AOT_stimuli/rescaled_final/1422_fw.mp4	0.0	124.59440612792969	1.0001659393310547
15	101.62373685836792	pulse	0	t		13.0	2.5	/experiments/knapen_AOT/AOT_stimuli/rescaled_final/1422_fw.mp4	0.0	125.17814302444458	
15	102.04016590118408	movie	1		246	13.0	2.5	/experiments/knapen_AOT/AOT_stimuli/rescaled_final/1422_fw.mp4	0.0	125.59457206726074	2.5003769397735596
15	103.22404789924622	pulse	1	t		13.0	2.5	/experiments/knapen_AOT/AOT_stimuli/rescaled_final/1422_fw.mp4	0.0	126.77845406532288	
15	104.54054284095764	fix_post	2		12	13.0	2.5	/experiments/knapen_AOT/AOT_stimuli/rescaled_final/1422_fw.mp4	0.0	128.0949490070343	0.10005402565002441
16	104.64059686660767	fix_pre	0		120	14.0	2.5	blank	1.0	128.19500303268433	1.000046968460083
16	104.82412600517273	pulse	0	t		14.0	2.5	blank	1.0	128.3785321712494	
16	105.64064383506775	movie	1		300	14.0	2.5	blank	1.0	129.1950500011444	2.500413179397583
16	106.42434692382812	pulse	1	t		14.0	2.5	blank	1.0	129.97875308990479	
16	108.02459788322449	pulse	1	t		14.0	2.5	blank	1.0	131.57900404930115	
16	108.14105701446533	fix_post	2		12	14.0	2.5	blank	1.0	131.695463180542	0.0999917984008789
17	108.24104881286621	fix_pre	0		120	15.0	2.5	/experiments/knapen_AOT/AOT_stimuli/rescaled_final/0508_fw.mp4	0.0	131.79545497894287	1.000195026397705
17	109.24124383926392	movie	1		245	15.0	2.5	/experiments/knapen_AOT/AOT_stimuli/rescaled_final/0508_fw.mp4	0.0	132.79565000534058	2.4920191764831543
17	109.62607002258301	pulse	1	t		15.0	2.5	/experiments/knapen_AOT/AOT_stimuli/rescaled_final/0508_fw.mp4	0.0	133.18047618865967	
17	111.22501993179321	pulse	1	t		15.0	2.5	/experiments/knapen_AOT/AOT_stimuli/rescaled_final/0508_fw.mp4	0.0	134.77942609786987	
17	111.73326301574707	fix_post	2		12	15.0	2.5	/experiments/knapen_AOT/AOT_stimuli/rescaled_final/0508_fw.mp4	0.0	135.28766918182373	0.09996485710144043
18	111.83322787284851	fix_pre	0		120	16.0	2.5	/experiments/knapen_AOT/AOT_stimuli/rescaled_final/1559_rv.mp4	0.0	135.38763403892517	1.000201940536499
18	112.82526588439941	pulse	0	t		16.0	2.5	/experiments/knapen_AOT/AOT_stimuli/rescaled_final/1559_rv.mp4	0.0	136.37967205047607	
18	112.83342981338501	movie	1		246	16.0	2.5	/experiments/knapen_AOT/AOT_stimuli/rescaled_final/1559_rv.mp4	0.0	136.38783597946167	2.5086472034454346
18	114.42631983757019	pulse	1	t		16.0	2.5	/experiments/knapen_AOT/AOT_stimuli/rescaled_final/1559_rv.mp4	0.0	137.98072600364685	
18	115.34207701683044	fix_post	2		12	16.0	2.5	/experiments/knapen_AOT/AOT_stimuli/rescaled_final/1559_rv.mp4	0.0	138.8964831829071	0.10005688667297363
19	115.44213390350342	fix_pre	0		120	17.0	2.5	/experiments/knapen_AOT/AOT_stimuli/rescaled_final/1510_rv.mp4	0.0	138.99654006958008	1.0002059936523438
19	116.02579283714294	pulse	0	t		17.0	2.5	/experiments/knapen_AOT/AOT_stimuli/rescaled_final/1510_rv.mp4	0.0	139.5801990032196	
19	116.44233989715576	movie	1		243	17.0	2.5	/experiments/knapen_AOT/AOT_stimuli/rescaled_final/1510_rv.mp4	0.0	139.99674606323242	2.500380039215088
19	117.62616395950317	pulse	1	t		17.0	2.5	/experiments/knapen_AOT/AOT_stimuli/rescaled_final/1510_rv.mp4	0.0	141.18057012557983	
19	118.94271993637085	fix_post	2		12	17.0	2.5	/experiments/knapen_AOT/AOT_stimuli/rescaled_final/1510_rv.mp4	0.0	142.4971261024475	0.09996485710144043
20	119.04268479347229	fix_pre	0		120	18.0	2.5	/experiments/knapen_AOT/AOT_stimuli/rescaled_final/0586_fw.mp4	0.0	142.59709095954895	1.0001780986785889
20	119.22630190849304	pulse	0	t		18.0	2.5	/experiments/knapen_AOT/AOT_stimuli/rescaled_final/0586_fw.mp4	0.0	142.7807080745697	
20	120.04286289215088	movie	1		243	18.0	2.5	/experiments/knapen_AOT/AOT_stimuli/rescaled_final/0586_fw.mp4	0.0	143.59726905822754	2.500347137451172
20	120.82649493217468	pulse	1	t		18.0	2.5	/experiments/knapen_AOT/AOT_stimuli/rescaled_final/0586_fw.mp4	0.0	144.38090109825134	
20	122.42650985717773	pulse	1	t		18.0	2.5	/experiments/knapen_AOT/AOT_stimuli/rescaled_final/0586_fw.mp4	0.0	145.9809160232544	
20	122.54321002960205	fix_post	2		12	18.0	2.5	/experiments/knapen_AOT/AOT_stimuli/rescaled_final/0586_fw.mp4	0.0	146.0976161956787	0.09999489784240723
21	122.64320492744446	fix_pre	0		120	19.0	2.5	blank	1.0	146.19761109352112	1.0001440048217773
21	123.64334893226624	movie	1		299	19.0	2.5	blank	1.0	147.1977550983429	2.492039918899536
21	124.02706694602966	pulse	1	t		19.0	2.5	blank	1.0	147.58147311210632	
21	125.62713599205017	pulse	1	t		19.0	2.5	blank	1.0	149.18154215812683	
21	126.13538885116577	fix_post	2		12	19.0	2.5	blank	1.0	149.68979501724243	0.10003900527954102
22	126.23542785644531	fix_pre	0		120	20.0	2.5	/experiments/knapen_AOT/AOT_stimuli/rescaled_final/0051_fw.mp4	0.0	149.78983402252197	1.0001461505889893
22	127.22741198539734	pulse	0	t		20.0	2.5	/experiments/knapen_AOT/AOT_stimuli/rescaled_final/0051_fw.mp4	0.0	150.781818151474	
22	127.2355740070343	movie	1		245	20.0	2.5	/experiments/knapen_AOT/AOT_stimuli/rescaled_final/0051_fw.mp4	0.0	150.78998017311096	2.5086917877197266
22	128.82842588424683	pulse	1	t		20.0	2.5	/experiments/knapen_AOT/AOT_stimuli/rescaled_final/0051_fw.mp4	0.0	152.3828320503235	
22	129.74426579475403	fix_post	2		12	20.0	2.5	/experiments/knapen_AOT/AOT_stimuli/rescaled_final/0051_fw.mp4	0.0	153.2986719608307	0.09998321533203125
23	129.84424901008606	fix_pre	0		120	21.0	2.5	/experiments/knapen_AOT/AOT_stimuli/rescaled_final/0468_fw.mp4	0.0	153.39865517616272	1.000208854675293
23	130.42786979675293	pulse	0	t		21.0	2.5	/experiments/knapen_AOT/AOT_stimuli/rescaled_final/0468_fw.mp4	0.0	153.9822759628296	
23	130.84445786476135	movie	1		244	21.0	2.5	/experiments/knapen_AOT/AOT_stimuli/rescaled_final/0468_fw.mp4	0.0	154.398864030838	2.500368118286133
23	132.0211238861084	pulse	1	t		21.0	2.5	/experiments/knapen_AOT/AOT_stimuli/rescaled_final/0468_fw.mp4	0.0	155.57553005218506	
23	133.34482598304749	fix_post	2		12	21.0	2.5	/experiments/knapen_AOT/AOT_stimuli/rescaled_final/0468_fw.mp4	0.0	156.89923214912415	0.10006499290466309
24	133.44489097595215	fix_pre	0		120	22.0	2.5	/experiments/knapen_AOT/AOT_stimuli/rescaled_final/0273_rv.mp4	0.0	156.9992971420288	1.0000560283660889
24	133.62084984779358	pulse	0	t		22.0	2.5	/experiments/knapen_AOT/AOT_stimuli/rescaled_final/0273_rv.mp4	0.0	157.17525601387024	
24	134.44494700431824	movie	1		244	22.0	2.5	/experiments/knapen_AOT/AOT_stimuli/rescaled_final/0273_rv.mp4	0.0	157.9993531703949	2.5004079341888428
24	135.2213180065155	pulse	1	t		22.0	2.5	/experiments/knapen_AOT/AOT_stimuli/rescaled_final/0273_rv.mp4	0.0	158.77572417259216	
24	136.82911491394043	pulse	1	t		22.0	2.5	/experiments/knapen_AOT/AOT_stimuli/rescaled_final/0273_rv.mp4	0.0	160.3835210800171	
24	136.94535493850708	fix_post	2		12	22.0	2.5	/experiments/knapen_AOT/AOT_stimuli/rescaled_final/0273_rv.mp4	0.0	160.49976110458374	0.10002994537353516
25	137.04538488388062	fix_pre	0		120	23.0	2.5	/experiments/knapen_AOT/AOT_stimuli/rescaled_final/1827_rv.mp4	0.0	160.59979104995728	1.0002291202545166
25	138.04561400413513	movie	1		244	23.0	2.5	/experiments/knapen_AOT/AOT_stimuli/rescaled_final/1827_rv.mp4	0.0	161.6000201702118	2.491964817047119
25	138.42954182624817	pulse	1	t		23.0	2.5	/experiments/knapen_AOT/AOT_stimuli/rescaled_final/1827_rv.mp4	0.0	161.98394799232483	
25	140.0211718082428	pulse	1	t		23.0	2.5	/experiments/knapen_AOT/AOT_stimuli/rescaled_final/1827_rv.mp4	0.0	163.57557797431946	
25	140.53757882118225	fix_post	2		12	23.0	2.5	/experiments/knapen_AOT/AOT_stimuli/rescaled_final/1827_rv.mp4	0.0	164.0919849872589	0.09995913505554199
26	140.6375379562378	fix_pre	0		119	24.0	2.5	/experiments/knapen_AOT/AOT_stimuli/rescaled_final/1149_rv.mp4	0.0	164.19194412231445	0.9918498992919922
26	141.62116193771362	pulse	0	t		24.0	2.5	/experiments/knapen_AOT/AOT_stimuli/rescaled_final/1149_rv.mp4	0.0	165.17556810379028	
26	141.62938785552979	movie	1		245	24.0	2.5	/experiments/knapen_AOT/AOT_stimuli/rescaled_final/1149_rv.mp4	0.0	165.18379402160645	2.5087151527404785
26	143.22216892242432	pulse	1	t		24.0	2.5	/experiments/knapen_AOT/AOT_stimuli/rescaled_final/1149_rv.mp4	0.0	166.77657508850098	
26	144.13810300827026	fix_post	2		12	24.0	2.5	/experiments/knapen_AOT/AOT_stimuli/rescaled_final/1149_rv.mp4	0.0	167.69250917434692	0.10000085830688477
27	144.23810386657715	fix_pre	0		120	25.0	2.5	/experiments/knapen_AOT/AOT_stimuli/rescaled_final/0097_fw.mp4	0.0	167.7925100326538	1.0001070499420166
27	144.82177090644836	pulse	0	t		25.0	2.5	/experiments/knapen_AOT/AOT_stimuli/rescaled_final/0097_fw.mp4	0.0	168.37617707252502	
27	145.23821091651917	movie	1		247	25.0	2.5	/experiments/knapen_AOT/AOT_stimuli/rescaled_final/0097_fw.mp4	0.0	168.79261708259583	2.500433921813965
27	146.42205786705017	pulse	1	t		25.0	2.5	/experiments/knapen_AOT/AOT_stimuli/rescaled_final/0097_fw.mp4	0.0	169.97646403312683	
27	147.73864483833313	fix_post	2		12	25.0	2.5	/experiments/knapen_AOT/AOT_stimuli/rescaled_final/0097_fw.mp4	0.0	171.2930510044098	0.09996700286865234
28	147.83861184120178	fix_pre	0		120	26.0	2.5	/experiments/knapen_AOT/AOT_stimuli/rescaled_final/1414_rv.mp4	0.0	171.39301800727844	1.000230073928833
28	148.0221710205078	pulse	0	t		26.0	2.5	/experiments/knapen_AOT/AOT_stimuli/rescaled_final/1414_rv.mp4	0.0	171.57657718658447	
28	148.83884191513062	movie	1		244	26.0	2.5	/experiments/knapen_AOT/AOT_stimuli/rescaled_final/1414_rv.mp4	0.0	172.39324808120728	2.5002779960632324
28	149.6224548816681	pulse	1	t		26.0	2.5	/experiments/knapen_AOT/AOT_stimuli/rescaled_final/1414_rv.mp4	0.0	173.17686104774475	
28	151.22259902954102	pulse	1	t		26.0	2.5	/experiments/knapen_AOT/AOT_stimuli/rescaled_final/1414_rv.mp4	0.0	174.77700519561768	
28	151.33911991119385	fix_post	2		12	26.0	2.5	/experiments/knapen_AOT/AOT_stimuli/rescaled_final/1414_rv.mp4	0.0	174.8935260772705	0.10004806518554688
29	151.4391679763794	fix_pre	0		120	27.0	2.5	blank	1.0	174.99357414245605	1.0002219676971436
29	152.43938994407654	movie	1		299	27.0	2.5	blank	1.0	175.9937961101532	2.491971015930176
29	152.82291102409363	pulse	1	t		27.0	2.5	blank	1.0	176.3773171901703	
29	154.42311000823975	pulse	1	t		27.0	2.5	blank	1.0	177.9775161743164	
29	154.9313609600067	fix_post	2		9	27.0	2.5	blank	1.0	178.48576712608337	0.10000896453857422
30	155.0313699245453	fix_pre	0		120	28.0	2.5	/experiments/knapen_AOT/AOT_stimuli/rescaled_final/1669_rv.mp4	0.0	178.58577609062195	1.0001718997955322
30	156.0233860015869	pulse	0	t		28.0	2.5	/experiments/knapen_AOT/AOT_stimuli/rescaled_final/1669_rv.mp4	0.0	179.57779216766357	
30	156.03154182434082	movie	1		246	28.0	2.5	/experiments/knapen_AOT/AOT_stimuli/rescaled_final/1669_rv.mp4	0.0	179.58594799041748	2.5087201595306396
30	157.6242458820343	pulse	1	t		28.0	2.5	/experiments/knapen_AOT/AOT_stimuli/rescaled_final/1669_rv.mp4	0.0	181.17865204811096	
30	158.54026198387146	fix_post	2		12	28.0	2.5	/experiments/knapen_AOT/AOT_stimuli/rescaled_final/1669_rv.mp4	0.0	182.09466814994812	0.09997296333312988
31	158.6402349472046	fix_pre	0		120	29.0	2.5	/experiments/knapen_AOT/AOT_stimuli/rescaled_final/0654_fw.mp4	0.0	182.19464111328125	1.0001349449157715
31	159.22396302223206	pulse	0	t		29.0	2.5	/experiments/knapen_AOT/AOT_stimuli/rescaled_final/0654_fw.mp4	0.0	182.77836918830872	
31	159.64036989212036	movie	1		243	29.0	2.5	/experiments/knapen_AOT/AOT_stimuli/rescaled_final/0654_fw.mp4	0.0	183.19477605819702	2.500576972961426
31	160.82417583465576	pulse	1	t		29.0	2.5	/experiments/knapen_AOT/AOT_stimuli/rescaled_final/0654_fw.mp4	0.0	184.37858200073242	
31	162.1409468650818	fix_post	2		12	29.0	2.5	/experiments/knapen_AOT/AOT_stimuli/rescaled_final/0654_fw.mp4	0.0	185.69535303115845	0.09988713264465332
32	162.24083399772644	fix_pre	0		120	30.0	2.5	/experiments/knapen_AOT/AOT_stimuli/rescaled_final/0253_fw.mp4	0.0	185.7952401638031	1.0001068115234375
32	162.4243369102478	pulse	0	t		30.0	2.5	/experiments/knapen_AOT/AOT_stimuli/rescaled_final/0253_fw.mp4	0.0	185.97874307632446	
32	163.24094080924988	movie	1		246	30.0	2.5	/experiments/knapen_AOT/AOT_stimuli/rescaled_final/0253_fw.mp4	0.0	186.79534697532654	2.500375986099243
32	164.02465081214905	pulse	1	t		30.0	2.5	/experiments/knapen_AOT/AOT_stimuli/rescaled_final/0253_fw.mp4	0.0	187.5790569782257	
32	165.62505102157593	pulse	1	t		30.0	2.5	/experiments/knapen_AOT/AOT_stimuli/rescaled_final/0253_fw.mp4	0.0	189.1794571876526	
32	165.74131679534912	fix_post	2		12	30.0	2.5	/experiments/knapen_AOT/AOT_stimuli/rescaled_final/0253_fw.mp4	0.0	189.29572296142578	0.09997916221618652
33	165.8412959575653	fix_pre	0		119	31.0	2.5	/experiments/knapen_AOT/AOT_stimuli/rescaled_final/0242_rv.mp4	0.0	189.39570212364197	0.9918649196624756
33	166.83316087722778	movie	1		245	31.0	2.5	/experiments/knapen_AOT/AOT_stimuli/rescaled_final/0242_rv.mp4	0.0	190.38756704330444	2.5003740787506104
33	167.2218677997589	pulse	1	t		31.0	2.5	/experiments/knapen_AOT/AOT_stimuli/rescaled_final/0242_rv.mp4	0.0	190.77627396583557	
33	168.82527589797974	pulse	1	t		31.0	2.5	/experiments/knapen_AOT/AOT_stimuli/rescaled_final/0242_rv.mp4	0.0	192.3796820640564	
33	169.3335349559784	fix_post	2		12	31.0	2.5	/experiments/knapen_AOT/AOT_stimuli/rescaled_final/0242_rv.mp4	0.0	192.88794112205505	0.099945068359375
34	169.43348002433777	fix_pre	0		120	32.0	2.5	/experiments/knapen_AOT/AOT_stimuli/rescaled_final/0032_rv.mp4	0.0	192.98788619041443	1.0001838207244873
34	170.42563390731812	pulse	0	t		32.0	2.5	/experiments/knapen_AOT/AOT_stimuli/rescaled_final/0032_rv.mp4	0.0	193.98004007339478	
34	170.43366384506226	movie	1		246	32.0	2.5	/experiments/knapen_AOT/AOT_stimuli/rescaled_final/0032_rv.mp4	0.0	193.98807001113892	2.508739948272705
34	172.02632999420166	pulse	1	t		32.0	2.5	/experiments/knapen_AOT/AOT_stimuli/rescaled_final/0032_rv.mp4	0.0	195.58073616027832	
34	172.94240379333496	fix_post	2		12	32.0	2.5	/experiments/knapen_AOT/AOT_stimuli/rescaled_final/0032_rv.mp4	0.0	196.49680995941162	0.09997105598449707
35	173.04237484931946	fix_pre	0		120	33.0	2.5	/experiments/knapen_AOT/AOT_stimuli/rescaled_final/1811_fw.mp4	0.0	196.59678101539612	1.0001530647277832
35	173.62610793113708	pulse	0	t		33.0	2.5	/experiments/knapen_AOT/AOT_stimuli/rescaled_final/1811_fw.mp4	0.0	197.18051409721375	
35	174.04252791404724	movie	1		245	33.0	2.5	/experiments/knapen_AOT/AOT_stimuli/rescaled_final/1811_fw.mp4	0.0	197.5969340801239	2.500365972518921
35	175.2262840270996	pulse	1	t		33.0	2.5	/experiments/knapen_AOT/AOT_stimuli/rescaled_final/1811_fw.mp4	0.0	198.78069019317627	
35	176.54289388656616	fix_post	2		12	33.0	2.5	/experiments/knapen_AOT/AOT_stimuli/rescaled_final/1811_fw.mp4	0.0	200.09730005264282	0.10002899169921875
36	176.64292287826538	fix_pre	0		120	34.0	2.5	blank	1.0	200.19732904434204	1.0001580715179443
36	176.8265209197998	pulse	0	t		34.0	2.5	blank	1.0	200.38092708587646	
36	177.64308094978333	movie	1		300	34.0	2.5	blank	1.0	201.19748711585999	2.5003340244293213
36	178.42671990394592	pulse	1	t		34.0	2.5	blank	1.0	201.98112607002258	
36	180.02707600593567	pulse	1	t		34.0	2.5	blank	1.0	203.58148217201233	
36	180.14341497421265	fix_post	2		12	34.0	2.5	blank	1.0	203.6978211402893	0.10002803802490234
37	180.24344301223755	fix_pre	0		120	35.0	2.5	/experiments/knapen_AOT/AOT_stimuli/rescaled_final/0347_fw.mp4	0.0	203.7978491783142	1.000199794769287
37	181.24364280700684	movie	1		242	35.0	2.5	/experiments/knapen_AOT/AOT_stimuli/rescaled_final/0347_fw.mp4	0.0	204.7980489730835	2.492021083831787
37	181.62782382965088	pulse	1	t		35.0	2.5	/experiments/knapen_AOT/AOT_stimuli/rescaled_final/0347_fw.mp4	0.0	205.18222999572754	
37	183.22745299339294	pulse	1	t		35.0	2.5	/experiments/knapen_AOT/AOT_stimuli/rescaled_final/0347_fw.mp4	0.0	206.7818591594696	
37	183.73566389083862	fix_post	2		12	35.0	2.5	/experiments/knapen_AOT/AOT_stimuli/rescaled_final/0347_fw.mp4	0.0	207.29007005691528	0.09996795654296875
38	183.8356318473816	fix_pre	0		120	36.0	2.5	/experiments/knapen_AOT/AOT_stimuli/rescaled_final/1261_rv.mp4	0.0	207.39003801345825	1.0002281665802002
38	184.82778596878052	pulse	0	t		36.0	2.5	/experiments/knapen_AOT/AOT_stimuli/rescaled_final/1261_rv.mp4	0.0	208.38219213485718	
38	184.8358600139618	movie	1		245	36.0	2.5	/experiments/knapen_AOT/AOT_stimuli/rescaled_final/1261_rv.mp4	0.0	208.39026618003845	2.5086607933044434
38	186.42839980125427	pulse	1	t		36.0	2.5	/experiments/knapen_AOT/AOT_stimuli/rescaled_final/1261_rv.mp4	0.0	209.98280596733093	
38	187.34452080726624	fix_post	2		12	36.0	2.5	/experiments/knapen_AOT/AOT_stimuli/rescaled_final/1261_rv.mp4	0.0	210.8989269733429	0.10000300407409668
39	187.44452381134033	fix_pre	0		120	37.0	2.5	/experiments/knapen_AOT/AOT_stimuli/rescaled_final/1349_rv.mp4	0.0	210.998929977417	1.0001552104949951
39	188.02071285247803	pulse	0	t		37.0	2.5	/experiments/knapen_AOT/AOT_stimuli/rescaled_final/1349_rv.mp4	0.0	211.5751190185547	
39	188.44467902183533	movie	1		245	37.0	2.5	/experiments/knapen_AOT/AOT_stimuli/rescaled_final/1349_rv.mp4	0.0	211.999085187912	2.5003387928009033
39	189.62462091445923	pulse	1	t		37.0	2.5	/experiments/knapen_AOT/AOT_stimuli/rescaled_final/1349_rv.mp4	0.0	213.1790270805359	
39	190.94501781463623	fix_post	2		12	37.0	2.5	/experiments/knapen_AOT/AOT_stimuli/rescaled_final/1349_rv.mp4	0.0	214.4994239807129	0.10003900527954102
40	191.04505681991577	fix_pre	0		120	38.0	2.5	/experiments/knapen_AOT/AOT_stimuli/rescaled_final/1215_fw.mp4	0.0	214.59946298599243	1.0001921653747559
40	191.2212278842926	pulse	0	t		38.0	2.5	/experiments/knapen_AOT/AOT_stimuli/rescaled_final/1215_fw.mp4	0.0	214.77563405036926	
40	192.04524898529053	movie	1		245	38.0	2.5	/experiments/knapen_AOT/AOT_stimuli/rescaled_final/1215_fw.mp4	0.0	215.5996551513672	2.50034499168396
40	192.82066893577576	pulse	1	t		38.0	2.5	/experiments/knapen_AOT/AOT_stimuli/rescaled_final/1215_fw.mp4	0.0	216.37507510185242	
40	194.42089581489563	pulse	1	t		38.0	2.5	/experiments/knapen_AOT/AOT_stimuli/rescaled_final/1215_fw.mp4	0.0	217.9753019809723	
40	194.5455939769745	fix_post	2		12	38.0	2.5	/experiments/knapen_AOT/AOT_stimuli/rescaled_final/1215_fw.mp4	0.0	218.10000014305115	0.10002398490905762
41	194.64561796188354	fix_pre	0		120	39.0	2.5	/experiments/knapen_AOT/AOT_stimuli/rescaled_final/0800_rv.mp4	0.0	218.2000241279602	1.0002188682556152
41	195.64583683013916	movie	1		244	39.0	2.5	/experiments/knapen_AOT/AOT_stimuli/rescaled_final/0800_rv.mp4	0.0	219.20024299621582	2.491995096206665
41	196.02096796035767	pulse	1	t		39.0	2.5	/experiments/knapen_AOT/AOT_stimuli/rescaled_final/0800_rv.mp4	0.0	219.57537412643433	
41	197.62127685546875	pulse	1	t		39.0	2.5	/experiments/knapen_AOT/AOT_stimuli/rescaled_final/0800_rv.mp4	0.0	221.1756830215454	
41	198.13783192634583	fix_post	2		12	39.0	2.5	/experiments/knapen_AOT/AOT_stimuli/rescaled_final/0800_rv.mp4	0.0	221.69223809242249	0.09995293617248535
42	198.2377848625183	fix_pre	0		119	40.0	2.5	blank	1.0	221.79219102859497	0.9918429851531982
42	199.22142696380615	pulse	0	t		40.0	2.5	blank	1.0	222.7758331298828	
42	199.2296278476715	movie	1		301	40.0	2.5	blank	1.0	222.78403401374817	2.5087289810180664
42	200.82176089286804	pulse	1	t		40.0	2.5	blank	1.0	224.3761670589447	
42	201.73835682868958	fix_post	2		12	40.0	2.5	blank	1.0	225.29276299476624	0.09996914863586426
43	201.83832597732544	fix_pre	0		120	41.0	2.5	/experiments/knapen_AOT/AOT_stimuli/rescaled_final/0508_rv.mp4	0.0	225.3927321434021	1.0001728534698486
43	202.42199897766113	pulse	0	t		41.0	2.5	/experiments/knapen_AOT/AOT_stimuli/rescaled_final/0508_rv.mp4	0.0	225.9764051437378	
43	202.8384988307953	movie	1		246	41.0	2.5	/experiments/knapen_AOT/AOT_stimuli/rescaled_final/0508_rv.mp4	0.0	226.39290499687195	2.5003890991210938
43	204.0222828388214	pulse	1	t		41.0	2.5	/experiments/knapen_AOT/AOT_stimuli/rescaled_final/0508_rv.mp4	0.0	227.57668900489807	
43	205.33888792991638	fix_post	2		12	41.0	2.5	/experiments/knapen_AOT/AOT_stimuli/rescaled_final/0508_rv.mp4	0.0	228.89329409599304	0.10000801086425781
44	205.43889594078064	fix_pre	0		120	42.0	2.5	/experiments/knapen_AOT/AOT_stimuli/rescaled_final/1180_rv.mp4	0.0	228.9933021068573	1.0001330375671387
44	205.62249994277954	pulse	0	t		42.0	2.5	/experiments/knapen_AOT/AOT_stimuli/rescaled_final/1180_rv.mp4	0.0	229.1769061088562	
44	206.43902897834778	movie	1		244	42.0	2.5	/experiments/knapen_AOT/AOT_stimuli/rescaled_final/1180_rv.mp4	0.0	229.99343514442444	2.500377893447876
44	207.22281289100647	pulse	1	t		42.0	2.5	/experiments/knapen_AOT/AOT_stimuli/rescaled_final/1180_rv.mp4	0.0	230.77721905708313	
44	208.82288193702698	pulse	1	t		42.0	2.5	/experiments/knapen_AOT/AOT_stimuli/rescaled_final/1180_rv.mp4	0.0	232.37728810310364	
44	208.93940687179565	fix_post	2		12	42.0	2.5	/experiments/knapen_AOT/AOT_stimuli/rescaled_final/1180_rv.mp4	0.0	232.49381303787231	0.09999704360961914
45	209.03940391540527	fix_pre	0		119	43.0	2.5	/experiments/knapen_AOT/AOT_stimuli/rescaled_final/0401_fw.mp4	0.0	232.59381008148193	0.9918060302734375
45	210.0312099456787	movie	1		244	43.0	2.5	/experiments/knapen_AOT/AOT_stimuli/rescaled_final/0401_fw.mp4	0.0	233.58561611175537	2.500446081161499
45	210.4232838153839	pulse	1	t		43.0	2.5	/experiments/knapen_AOT/AOT_stimuli/rescaled_final/0401_fw.mp4	0.0	233.97768998146057	
45	212.02340698242188	pulse	1	t		43.0	2.5	/experiments/knapen_AOT/AOT_stimuli/rescaled_final/0401_fw.mp4	0.0	235.57781314849854	
45	212.5316560268402	fix_post	2		12	43.0	2.5	/experiments/knapen_AOT/AOT_stimuli/rescaled_final/0401_fw.mp4	0.0	236.08606219291687	0.09997177124023438
46	212.63162779808044	fix_pre	0		120	44.0	2.5	/experiments/knapen_AOT/AOT_stimuli/rescaled_final/1228_rv.mp4	0.0	236.1860339641571	1.0001552104949951
46	213.62363481521606	pulse	0	t		44.0	2.5	/experiments/knapen_AOT/AOT_stimuli/rescaled_final/1228_rv.mp4	0.0	237.17804098129272	
46	213.63178300857544	movie	1		243	44.0	2.5	/experiments/knapen_AOT/AOT_stimuli/rescaled_final/1228_rv.mp4	0.0	237.1861891746521	2.508769989013672
46	215.22544193267822	pulse	1	t		44.0	2.5	/experiments/knapen_AOT/AOT_stimuli/rescaled_final/1228_rv.mp4	0.0	238.77984809875488	
46	216.1405529975891	fix_post	2		12	44.0	2.5	/experiments/knapen_AOT/AOT_stimuli/rescaled_final/1228_rv.mp4	0.0	239.69495916366577	0.09998393058776855
47	216.24053692817688	fix_pre	0		120	45.0	2.5	/experiments/knapen_AOT/AOT_stimuli/rescaled_final/2145_rv.mp4	0.0	239.79494309425354	1.0001769065856934
47	216.82417392730713	pulse	0	t		45.0	2.5	/experiments/knapen_AOT/AOT_stimuli/rescaled_final/2145_rv.mp4	0.0	240.3785800933838	
47	217.24071383476257	movie	1		244	45.0	2.5	/experiments/knapen_AOT/AOT_stimuli/rescaled_final/2145_rv.mp4	0.0	240.79512000083923	2.500303030014038
47	218.42448687553406	pulse	1	t		45.0	2.5	/experiments/knapen_AOT/AOT_stimuli/rescaled_final/2145_rv.mp4	0.0	241.97889304161072	
47	219.7410168647766	fix_post	2		12	45.0	2.5	/experiments/knapen_AOT/AOT_stimuli/rescaled_final/2145_rv.mp4	0.0	243.29542303085327	0.09999608993530273
48	219.8410129547119	fix_pre	0		120	46.0	2.5	/experiments/knapen_AOT/AOT_stimuli/rescaled_final/1364_rv.mp4	0.0	243.39541912078857	1.0002050399780273
48	220.02463793754578	pulse	0	t		46.0	2.5	/experiments/knapen_AOT/AOT_stimuli/rescaled_final/1364_rv.mp4	0.0	243.57904410362244	
48	220.84121799468994	movie	1		245	46.0	2.5	/experiments/knapen_AOT/AOT_stimuli/rescaled_final/1364_rv.mp4	0.0	244.3956241607666	2.5003459453582764
48	221.62480998039246	pulse	1	t		46.0	2.5	/experiments/knapen_AOT/AOT_stimuli/rescaled_final/1364_rv.mp4	0.0	245.17921614646912	
48	223.2227280139923	pulse	1	t		46.0	2.5	/experiments/knapen_AOT/AOT_stimuli/rescaled_final/1364_rv.mp4	0.0	246.77713418006897	
48	223.34156394004822	fix_post	2		12	46.0	2.5	/experiments/knapen_AOT/AOT_stimuli/rescaled_final/1364_rv.mp4	0.0	246.89597010612488	0.09997892379760742
49	223.44154286384583	fix_pre	0		120	47.0	2.5	blank	1.0	246.99594902992249	1.0001590251922607
49	224.4417018890381	movie	1		299	47.0	2.5	blank	1.0	247.99610805511475	2.4920589923858643
49	224.8252568244934	pulse	1	t		47.0	2.5	blank	1.0	248.37966299057007	
49	226.4256420135498	pulse	1	t		47.0	2.5	blank	1.0	249.98004817962646	
49	226.93376088142395	fix_post	2		12	47.0	2.5	blank	1.0	250.4881670475006	0.09998393058776855
50	227.03374481201172	fix_pre	0		120	48.0	2.5	/experiments/knapen_AOT/AOT_stimuli/rescaled_final/1334_rv.mp4	0.0	250.58815097808838	1.0002071857452393
50	228.0257818698883	pulse	0	t		48.0	2.5	/experiments/knapen_AOT/AOT_stimuli/rescaled_final/1334_rv.mp4	0.0	251.58018803596497	
50	228.03395199775696	movie	1		245	48.0	2.5	/experiments/knapen_AOT/AOT_stimuli/rescaled_final/1334_rv.mp4	0.0	251.58835816383362	2.508638858795166
50	229.62686395645142	pulse	1	t		48.0	2.5	/experiments/knapen_AOT/AOT_stimuli/rescaled_final/1334_rv.mp4	0.0	253.18127012252808	
50	230.54259085655212	fix_post	2		12	48.0	2.5	/experiments/knapen_AOT/AOT_stimuli/rescaled_final/1334_rv.mp4	0.0	254.09699702262878	0.10004615783691406
51	230.64263701438904	fix_pre	0		120	49.0	2.5	/experiments/knapen_AOT/AOT_stimuli/rescaled_final/1669_fw.mp4	0.0	254.1970431804657	1.0001559257507324
51	231.2262020111084	pulse	0	t		49.0	2.5	/experiments/knapen_AOT/AOT_stimuli/rescaled_final/1669_fw.mp4	0.0	254.78060817718506	
51	231.64279294013977	movie	1		245	49.0	2.5	/experiments/knapen_AOT/AOT_stimuli/rescaled_final/1669_fw.mp4	0.0	255.19719910621643	2.5003268718719482
51	232.82672882080078	pulse	1	t		49.0	2.5	/experiments/knapen_AOT/AOT_stimuli/rescaled_final/1669_fw.mp4	0.0	256.38113498687744	
51	234.14311981201172	fix_post	2		12	49.0	2.5	/experiments/knapen_AOT/AOT_stimuli/rescaled_final/1669_fw.mp4	0.0	257.6975259780884	0.1000211238861084
52	234.24314093589783	fix_pre	0		120	50.0	2.5	/experiments/knapen_AOT/AOT_stimuli/rescaled_final/0675_fw.mp4	0.0	257.7975471019745	1.0001890659332275
52	234.42678093910217	pulse	0	t		50.0	2.5	/experiments/knapen_AOT/AOT_stimuli/rescaled_final/0675_fw.mp4	0.0	257.98118710517883	
52	235.24333000183105	movie	1		243	50.0	2.5	/experiments/knapen_AOT/AOT_stimuli/rescaled_final/0675_fw.mp4	0.0	258.7977361679077	2.500382900238037
52	236.02696585655212	pulse	1	t		50.0	2.5	/experiments/knapen_AOT/AOT_stimuli/rescaled_final/0675_fw.mp4	0.0	259.5813720226288	
52	237.62739181518555	pulse	1	t		50.0	2.5	/experiments/knapen_AOT/AOT_stimuli/rescaled_final/0675_fw.mp4	0.0	261.1817979812622	
52	237.7437129020691	fix_post	2		12	50.0	2.5	/experiments/knapen_AOT/AOT_stimuli/rescaled_final/0675_fw.mp4	0.0	261.29811906814575	0.09999799728393555
53	237.84371089935303	fix_pre	0		120	51.0	2.5	/experiments/knapen_AOT/AOT_stimuli/rescaled_final/1261_rv.mp4	0.0	261.3981170654297	1.0001559257507324
53	238.84386682510376	movie	1		242	51.0	2.5	/experiments/knapen_AOT/AOT_stimuli/rescaled_final/1261_rv.mp4	0.0	262.3982729911804	2.4920730590820312
53	239.2281038761139	pulse	1	t		51.0	2.5	/experiments/knapen_AOT/AOT_stimuli/rescaled_final/1261_rv.mp4	0.0	262.78251004219055	
53	240.82779383659363	pulse	1	t		51.0	2.5	/experiments/knapen_AOT/AOT_stimuli/rescaled_final/1261_rv.mp4	0.0	264.3822000026703	
53	241.3359398841858	fix_post	2		12	51.0	2.5	/experiments/knapen_AOT/AOT_stimuli/rescaled_final/1261_rv.mp4	0.0	264.89034605026245	0.09997200965881348
54	241.4359118938446	fix_pre	0		120	52.0	2.5	/experiments/knapen_AOT/AOT_stimuli/rescaled_final/0075_fw.mp4	0.0	264.99031805992126	1.0001659393310547
54	242.42795085906982	pulse	0	t		52.0	2.5	/experiments/knapen_AOT/AOT_stimuli/rescaled_final/0075_fw.mp4	0.0	265.9823570251465	
54	242.43607783317566	movie	1		247	52.0	2.5	/experiments/knapen_AOT/AOT_stimuli/rescaled_final/0075_fw.mp4	0.0	265.9904839992523	2.5086710453033447
54	244.02881288528442	pulse	1	t		52.0	2.5	/experiments/knapen_AOT/AOT_stimuli/rescaled_final/0075_fw.mp4	0.0	267.5832190513611	
54	244.944748878479	fix_post	2		12	52.0	2.5	/experiments/knapen_AOT/AOT_stimuli/rescaled_final/0075_fw.mp4	0.0	268.49915504455566	0.10000801086425781
55	245.04475688934326	fix_pre	0		120	53.0	2.5	/experiments/knapen_AOT/AOT_stimuli/rescaled_final/0094_rv.mp4	0.0	268.5991630554199	1.0001909732818604
55	245.62089586257935	pulse	0	t		53.0	2.5	/experiments/knapen_AOT/AOT_stimuli/rescaled_final/0094_rv.mp4	0.0	269.175302028656	
55	246.04494786262512	movie	1		244	53.0	2.5	/experiments/knapen_AOT/AOT_stimuli/rescaled_final/0094_rv.mp4	0.0	269.5993540287018	2.5003650188446045
55	247.221608877182	pulse	1	t		53.0	2.5	/experiments/knapen_AOT/AOT_stimuli/rescaled_final/0094_rv.mp4	0.0	270.77601504325867	
55	248.54531288146973	fix_post	2		12	53.0	2.5	/experiments/knapen_AOT/AOT_stimuli/rescaled_final/0094_rv.mp4	0.0	272.0997190475464	0.10004806518554688
56	248.64536094665527	fix_pre	0		120	54.0	2.5	/experiments/knapen_AOT/AOT_stimuli/rescaled_final/1784_fw.mp4	0.0	272.19976711273193	1.000148057937622
56	248.8205008506775	pulse	0	t		54.0	2.5	/experiments/knapen_AOT/AOT_stimuli/rescaled_final/1784_fw.mp4	0.0	272.37490701675415	
56	249.6455090045929	movie	1		244	54.0	2.5	/experiments/knapen_AOT/AOT_stimuli/rescaled_final/1784_fw.mp4	0.0	273.19991517066956	2.5003788471221924
56	250.42081594467163	pulse	1	t		54.0	2.5	/experiments/knapen_AOT/AOT_stimuli/rescaled_final/1784_fw.mp4	0.0	273.9752221107483	
56	252.02101492881775	pulse	1	t		54.0	2.5	/experiments/knapen_AOT/AOT_stimuli/rescaled_final/1784_fw.mp4	0.0	275.5754210948944	
56	252.1458878517151	fix_post	2		12	54.0	2.5	/experiments/knapen_AOT/AOT_stimuli/rescaled_final/1784_fw.mp4	0.0	275.70029401779175	0.10000801086425781
57	252.24589586257935	fix_pre	0		120	55.0	2.5	blank	1.0	275.800302028656	1.0001089572906494
57	253.24600481987	movie	1		299	55.0	2.5	blank	1.0	276.80041098594666	2.492119073867798
57	253.6212019920349	pulse	1	t		55.0	2.5	blank	1.0	277.1756081581116	
57	255.2214708328247	pulse	1	t		55.0	2.5	blank	1.0	278.77587699890137	
57	255.7381238937378	fix_post	2		12	55.0	2.5	blank	1.0	279.29253005981445	0.09992599487304688
58	255.83804988861084	fix_pre	0		119	56.0	2.5	/experiments/knapen_AOT/AOT_stimuli/rescaled_final/0242_rv.mp4	0.0	279.3924560546875	0.9918351173400879
58	256.82178497314453	pulse	0	t		56.0	2.5	/experiments/knapen_AOT/AOT_stimuli/rescaled_final/0242_rv.mp4	0.0	280.3761911392212	
58	256.8298850059509	movie	1		246	56.0	2.5	/experiments/knapen_AOT/AOT_stimuli/rescaled_final/0242_rv.mp4	0.0	280.3842911720276	2.508704900741577
58	258.42234992980957	pulse	1	t		56.0	2.5	/experiments/knapen_AOT/AOT_stimuli/rescaled_final/0242_rv.mp4	0.0	281.97675609588623	
58	259.3385899066925	fix_post	2		12	56.0	2.5	/experiments/knapen_AOT/AOT_stimuli/rescaled_final/0242_rv.mp4	0.0	282.89299607276917	0.100006103515625
59	259.43859601020813	fix_pre	0		120	57.0	2.5	/experiments/knapen_AOT/AOT_stimuli/rescaled_final/0332_rv.mp4	0.0	282.9930021762848	1.0002319812774658
59	260.022176027298	pulse	0	t		57.0	2.5	/experiments/knapen_AOT/AOT_stimuli/rescaled_final/0332_rv.mp4	0.0	283.57658219337463	
59	260.4388279914856	movie	1		250	57.0	2.5	/experiments/knapen_AOT/AOT_stimuli/rescaled_final/0332_rv.mp4	0.0	283.99323415756226	2.500253915786743
59	261.62256503105164	pulse	1	t		57.0	2.5	/experiments/knapen_AOT/AOT_stimuli/rescaled_final/0332_rv.mp4	0.0	285.1769711971283	
59	262.93908190727234	fix_post	2		12	57.0	2.5	/experiments/knapen_AOT/AOT_stimuli/rescaled_final/0332_rv.mp4	0.0	286.493488073349	0.10004091262817383
60	263.0391228199005	fix_pre	0		120	58.0	2.5	/experiments/knapen_AOT/AOT_stimuli/rescaled_final/1494_rv.mp4	0.0	286.5935289859772	1.0001661777496338
60	263.22274899482727	pulse	0	t		58.0	2.5	/experiments/knapen_AOT/AOT_stimuli/rescaled_final/1494_rv.mp4	0.0	286.77715516090393	
60	264.03928899765015	movie	1		245	58.0	2.5	/experiments/knapen_AOT/AOT_stimuli/rescaled_final/1494_rv.mp4	0.0	287.5936951637268	2.5003769397735596
60	264.82295393943787	pulse	1	t		58.0	2.5	/experiments/knapen_AOT/AOT_stimuli/rescaled_final/1494_rv.mp4	0.0	288.3773601055145	
60	266.4209887981415	pulse	1	t		58.0	2.5	/experiments/knapen_AOT/AOT_stimuli/rescaled_final/1494_rv.mp4	0.0	289.97539496421814	
60	266.5396659374237	fix_post	2		12	58.0	2.5	/experiments/knapen_AOT/AOT_stimuli/rescaled_final/1494_rv.mp4	0.0	290.09407210350037	0.09999489784240723
61	266.6396608352661	fix_pre	0		120	59.0	2.5	/experiments/knapen_AOT/AOT_stimuli/rescaled_final/1811_rv.mp4	0.0	290.1940670013428	1.0001699924468994
61	267.639830827713	movie	1		244	59.0	2.5	/experiments/knapen_AOT/AOT_stimuli/rescaled_final/1811_rv.mp4	0.0	291.1942369937897	2.492063045501709
61	268.02396988868713	pulse	1	t		59.0	2.5	/experiments/knapen_AOT/AOT_stimuli/rescaled_final/1811_rv.mp4	0.0	291.5783760547638	
61	269.6237678527832	pulse	1	t		59.0	2.5	/experiments/knapen_AOT/AOT_stimuli/rescaled_final/1811_rv.mp4	0.0	293.17817401885986	
61	270.1318938732147	fix_post	2		12	59.0	2.5	/experiments/knapen_AOT/AOT_stimuli/rescaled_final/1811_rv.mp4	0.0	293.6863000392914	0.09998297691345215
62	270.2318768501282	fix_pre	0		120	60.0	2.5	/experiments/knapen_AOT/AOT_stimuli/rescaled_final/2021_fw.mp4	0.0	293.78628301620483	1.0001270771026611
62	271.2238929271698	pulse	0	t		60.0	2.5	/experiments/knapen_AOT/AOT_stimuli/rescaled_final/2021_fw.mp4	0.0	294.77829909324646	
62	271.23200392723083	movie	1		246	60.0	2.5	/experiments/knapen_AOT/AOT_stimuli/rescaled_final/2021_fw.mp4	0.0	294.7864100933075	2.508847951889038
62	272.82476782798767	pulse	1	t		60.0	2.5	/experiments/knapen_AOT/AOT_stimuli/rescaled_final/2021_fw.mp4	0.0	296.37917399406433	
62	273.7408518791199	fix_post	2		12	60.0	2.5	/experiments/knapen_AOT/AOT_stimuli/rescaled_final/2021_fw.mp4	0.0	297.29525804519653	0.09988594055175781
63	273.84073781967163	fix_pre	0		117	61.0	2.5	/experiments/knapen_AOT/AOT_stimuli/rescaled_final/1237_fw.mp4	0.0	297.3951439857483	1.0001671314239502
63	274.42435002326965	pulse	0	t		61.0	2.5	/experiments/knapen_AOT/AOT_stimuli/rescaled_final/1237_fw.mp4	0.0	297.9787561893463	
63	274.8409049510956	movie	1		244	61.0	2.5	/experiments/knapen_AOT/AOT_stimuli/rescaled_final/1237_fw.mp4	0.0	298.39531111717224	2.5004100799560547
63	276.0246968269348	pulse	1	t		61.0	2.5	/experiments/knapen_AOT/AOT_stimuli/rescaled_final/1237_fw.mp4	0.0	299.5791029930115	
63	277.34131503105164	fix_post	2		12	61.0	2.5	/experiments/knapen_AOT/AOT_stimuli/rescaled_final/1237_fw.mp4	0.0	300.8957211971283	0.09993481636047363
64	277.4412498474121	fix_pre	0		120	62.0	2.5	/experiments/knapen_AOT/AOT_stimuli/rescaled_final/1272_fw.mp4	0.0	300.99565601348877	1.000169038772583
64	277.6249408721924	pulse	0	t		62.0	2.5	/experiments/knapen_AOT/AOT_stimuli/rescaled_final/1272_fw.mp4	0.0	301.17934703826904	
64	278.4414188861847	movie	1		246	62.0	2.5	/experiments/knapen_AOT/AOT_stimuli/rescaled_final/1272_fw.mp4	0.0	301.99582505226135	2.500356912612915
64	279.2251329421997	pulse	1	t		62.0	2.5	/experiments/knapen_AOT/AOT_stimuli/rescaled_final/1272_fw.mp4	0.0	302.77953910827637	
64	280.8253688812256	pulse	1	t		62.0	2.5	/experiments/knapen_AOT/AOT_stimuli/rescaled_final/1272_fw.mp4	0.0	304.37977504730225	
64	280.9417757987976	fix_post	2		12	62.0	2.5	/experiments/knapen_AOT/AOT_stimuli/rescaled_final/1272_fw.mp4	0.0	304.49618196487427	0.1000220775604248
65	281.04179787635803	fix_pre	0		120	63.0	2.5	blank	1.0	304.5962040424347	1.0001790523529053
65	282.04197692871094	movie	1		299	63.0	2.5	blank	1.0	305.5963830947876	2.4920718669891357
65	282.4255769252777	pulse	1	t		63.0	2.5	blank	1.0	305.97998309135437	
65	284.0258300304413	pulse	1	t		63.0	2.5	blank	1.0	307.58023619651794	
65	284.5340487957001	fix_post	2		12	63.0	2.5	blank	1.0	308.08845496177673	0.09996819496154785
66	284.6340169906616	fix_pre	0		120	64.0	2.5	/experiments/knapen_AOT/AOT_stimuli/rescaled_final/0980_rv.mp4	0.0	308.1884231567383	1.0001499652862549
66	285.6261429786682	pulse	0	t		64.0	2.5	/experiments/knapen_AOT/AOT_stimuli/rescaled_final/0980_rv.mp4	0.0	309.1805491447449	
66	285.6341669559479	movie	1		245	64.0	2.5	/experiments/knapen_AOT/AOT_stimuli/rescaled_final/0980_rv.mp4	0.0	309.18857312202454	2.508708953857422
66	287.22702288627625	pulse	1	t		64.0	2.5	/experiments/knapen_AOT/AOT_stimuli/rescaled_final/0980_rv.mp4	0.0	310.7814290523529	
66	288.1428759098053	fix_post	2		12	64.0	2.5	/experiments/knapen_AOT/AOT_stimuli/rescaled_final/0980_rv.mp4	0.0	311.69728207588196	0.09998893737792969
67	288.2428648471832	fix_pre	0		120	65.0	2.5	/experiments/knapen_AOT/AOT_stimuli/rescaled_final/0612_rv.mp4	0.0	311.7972710132599	1.0001521110534668
67	288.82660484313965	pulse	0	t		65.0	2.5	/experiments/knapen_AOT/AOT_stimuli/rescaled_final/0612_rv.mp4	0.0	312.3810110092163	
67	289.2430169582367	movie	1		244	65.0	2.5	/experiments/knapen_AOT/AOT_stimuli/rescaled_final/0612_rv.mp4	0.0	312.79742312431335	2.5004119873046875
67	290.42687582969666	pulse	1	t		65.0	2.5	/experiments/knapen_AOT/AOT_stimuli/rescaled_final/0612_rv.mp4	0.0	313.9812819957733	
67	291.7434289455414	fix_post	2		12	65.0	2.5	/experiments/knapen_AOT/AOT_stimuli/rescaled_final/0612_rv.mp4	0.0	315.29783511161804	0.09999585151672363
68	291.8434247970581	fix_pre	0		120	66.0	2.5	/experiments/knapen_AOT/AOT_stimuli/rescaled_final/0568_rv.mp4	0.0	315.39783096313477	1.0001871585845947
68	292.02709889411926	pulse	0	t		66.0	2.5	/experiments/knapen_AOT/AOT_stimuli/rescaled_final/0568_rv.mp4	0.0	315.5815050601959	
68	292.8436119556427	movie	1		244	66.0	2.5	/experiments/knapen_AOT/AOT_stimuli/rescaled_final/0568_rv.mp4	0.0	316.39801812171936	2.500375986099243
68	293.6273989677429	pulse	1	t		66.0	2.5	/experiments/knapen_AOT/AOT_stimuli/rescaled_final/0568_rv.mp4	0.0	317.1818051338196	
68	295.2309718132019	pulse	1	t		66.0	2.5	/experiments/knapen_AOT/AOT_stimuli/rescaled_final/0568_rv.mp4	0.0	318.78537797927856	
68	295.34398794174194	fix_post	2		12	66.0	2.5	/experiments/knapen_AOT/AOT_stimuli/rescaled_final/0568_rv.mp4	0.0	318.8983941078186	0.0999600887298584
69	295.4439480304718	fix_pre	0		120	67.0	2.5	/experiments/knapen_AOT/AOT_stimuli/rescaled_final/1422_rv.mp4	0.0	318.99835419654846	1.0001649856567383
69	296.44411301612854	movie	1		245	67.0	2.5	/experiments/knapen_AOT/AOT_stimuli/rescaled_final/1422_rv.mp4	0.0	319.9985191822052	2.492043972015381
69	296.82833194732666	pulse	1	t		67.0	2.5	/experiments/knapen_AOT/AOT_stimuli/rescaled_final/1422_rv.mp4	0.0	320.3827381134033	
69	298.428062915802	pulse	1	t		67.0	2.5	/experiments/knapen_AOT/AOT_stimuli/rescaled_final/1422_rv.mp4	0.0	321.98246908187866	
69	298.9361569881439	fix_post	2		12	67.0	2.5	/experiments/knapen_AOT/AOT_stimuli/rescaled_final/1422_rv.mp4	0.0	322.4905631542206	0.09998893737792969
70	299.03614592552185	fix_pre	0		120	68.0	2.5	/experiments/knapen_AOT/AOT_stimuli/rescaled_final/1313_rv.mp4	0.0	322.5905520915985	1.000175952911377
70	300.0281820297241	pulse	0	t		68.0	2.5	/experiments/knapen_AOT/AOT_stimuli/rescaled_final/1313_rv.mp4	0.0	323.5825881958008	
70	300.0363218784332	movie	1		246	68.0	2.5	/experiments/knapen_AOT/AOT_stimuli/rescaled_final/1313_rv.mp4	0.0	323.5907280445099	2.508721113204956
70	301.6291878223419	pulse	1	t		68.0	2.5	/experiments/knapen_AOT/AOT_stimuli/rescaled_final/1313_rv.mp4	0.0	325.1835939884186	
70	302.5450429916382	fix_post	2		12	68.0	2.5	/experiments/knapen_AOT/AOT_stimuli/rescaled_final/1313_rv.mp4	0.0	326.09944915771484	0.0999598503112793
71	302.64500284194946	fix_pre	0		120	69.0	2.5	/experiments/knapen_AOT/AOT_stimuli/rescaled_final/1633_rv.mp4	0.0	326.1994090080261	1.0001859664916992
71	303.2210259437561	pulse	0	t		69.0	2.5	/experiments/knapen_AOT/AOT_stimuli/rescaled_final/1633_rv.mp4	0.0	326.77543210983276	
71	303.64518880844116	movie	1		246	69.0	2.5	/experiments/knapen_AOT/AOT_stimuli/rescaled_final/1633_rv.mp4	0.0	327.1995949745178	2.5004401206970215
71	304.82523488998413	pulse	1	t		69.0	2.5	/experiments/knapen_AOT/AOT_stimuli/rescaled_final/1633_rv.mp4	0.0	328.3796410560608	
71	306.1456289291382	fix_post	2		12	69.0	2.5	/experiments/knapen_AOT/AOT_stimuli/rescaled_final/1633_rv.mp4	0.0	329.70003509521484	0.09995388984680176
72	306.245582818985	fix_pre	0		120	70.0	2.5	blank	1.0	329.79998898506165	1.0001471042633057
72	306.4210479259491	pulse	0	t		70.0	2.5	blank	1.0	329.97545409202576	
72	307.2457299232483	movie	1		300	70.0	2.5	blank	1.0	330.80013608932495	2.5004069805145264
72	308.0210208892822	pulse	1	t		70.0	2.5	blank	1.0	331.5754270553589	
72	309.62116980552673	pulse	1	t		70.0	2.5	blank	1.0	333.1755759716034	
72	309.7461369037628	fix_post	2		12	70.0	2.5	blank	1.0	333.3005430698395	0.09996294975280762
73	309.8460998535156	fix_pre	0		120	71.0	2.5	/experiments/knapen_AOT/AOT_stimuli/rescaled_final/0990_fw.mp4	0.0	333.4005060195923	1.0001990795135498
73	310.8462989330292	movie	1		243	71.0	2.5	/experiments/knapen_AOT/AOT_stimuli/rescaled_final/0990_fw.mp4	0.0	334.40070509910583	2.492017984390259
73	311.2215609550476	pulse	1	t		71.0	2.5	/experiments/knapen_AOT/AOT_stimuli/rescaled_final/0990_fw.mp4	0.0	334.77596712112427	
73	312.82193398475647	pulse	1	t		71.0	2.5	/experiments/knapen_AOT/AOT_stimuli/rescaled_final/0990_fw.mp4	0.0	336.37634015083313	
73	313.33831691741943	fix_post	2		12	71.0	2.5	/experiments/knapen_AOT/AOT_stimuli/rescaled_final/0990_fw.mp4	0.0	336.8927230834961	0.09996199607849121
74	313.4382789134979	fix_pre	0		119	72.0	2.5	/experiments/knapen_AOT/AOT_stimuli/rescaled_final/1237_rv.mp4	0.0	336.9926850795746	0.991832971572876
74	314.4220860004425	pulse	0	t		72.0	2.5	/experiments/knapen_AOT/AOT_stimuli/rescaled_final/1237_rv.mp4	0.0	337.97649216651917	
74	314.4301118850708	movie	1		245	72.0	2.5	/experiments/knapen_AOT/AOT_stimuli/rescaled_final/1237_rv.mp4	0.0	337.98451805114746	2.5087499618530273
74	316.02303099632263	pulse	1	t		72.0	2.5	/experiments/knapen_AOT/AOT_stimuli/rescaled_final/1237_rv.mp4	0.0	339.5774371623993	
74	316.9388618469238	fix_post	2		12	72.0	2.5	/experiments/knapen_AOT/AOT_stimuli/rescaled_final/1237_rv.mp4	0.0	340.4932680130005	0.09999203681945801
75	317.0388538837433	fix_pre	0		120	73.0	2.5	/experiments/knapen_AOT/AOT_stimuli/rescaled_final/1155_fw.mp4	0.0	340.59326004981995	1.0001521110534668
75	317.62247490882874	pulse	0	t		73.0	2.5	/experiments/knapen_AOT/AOT_stimuli/rescaled_final/1155_fw.mp4	0.0	341.1768810749054	
75	318.03900599479675	movie	1		246	73.0	2.5	/experiments/knapen_AOT/AOT_stimuli/rescaled_final/1155_fw.mp4	0.0	341.5934121608734	2.500386953353882
75	319.2228419780731	pulse	1	t		73.0	2.5	/experiments/knapen_AOT/AOT_stimuli/rescaled_final/1155_fw.mp4	0.0	342.7772481441498	
75	320.53939294815063	fix_post	2		12	73.0	2.5	/experiments/knapen_AOT/AOT_stimuli/rescaled_final/1155_fw.mp4	0.0	344.0937991142273	0.09998703002929688
76	320.63937997817993	fix_pre	0		120	74.0	2.5	/experiments/knapen_AOT/AOT_stimuli/rescaled_final/1327_rv.mp4	0.0	344.1937861442566	1.0001869201660156
76	320.82296085357666	pulse	0	t		74.0	2.5	/experiments/knapen_AOT/AOT_stimuli/rescaled_final/1327_rv.mp4	0.0	344.3773670196533	
76	321.63956689834595	movie	1		244	74.0	2.5	/experiments/knapen_AOT/AOT_stimuli/rescaled_final/1327_rv.mp4	0.0	345.1939730644226	2.500373125076294
76	322.42321586608887	pulse	1	t		74.0	2.5	/experiments/knapen_AOT/AOT_stimuli/rescaled_final/1327_rv.mp4	0.0	345.9776220321655	
76	324.02341985702515	pulse	1	t		74.0	2.5	/experiments/knapen_AOT/AOT_stimuli/rescaled_final/1327_rv.mp4	0.0	347.5778260231018	
76	324.13994002342224	fix_post	2		12	74.0	2.5	/experiments/knapen_AOT/AOT_stimuli/rescaled_final/1327_rv.mp4	0.0	347.6943461894989	0.09998178482055664
77	324.2399218082428	fix_pre	0		120	75.0	2.5	blank	1.0	347.79432797431946	1.0001170635223389
77	325.24003887176514	movie	1		299	75.0	2.5	blank	1.0	348.7944450378418	2.492063045501709
77	325.623703956604	pulse	1	t		75.0	2.5	blank	1.0	349.17811012268066	
77	327.2238848209381	pulse	1	t		75.0	2.5	blank	1.0	350.77829098701477	
77	327.73210191726685	fix_post	2		12	75.0	2.5	blank	1.0	351.2865080833435	0.10002493858337402
78	327.8321268558502	fix_pre	0		120	76.0	2.5	/experiments/knapen_AOT/AOT_stimuli/rescaled_final/0657_fw.mp4	0.0	351.3865330219269	1.0001859664916992
78	328.82418298721313	pulse	0	t		76.0	2.5	/experiments/knapen_AOT/AOT_stimuli/rescaled_final/0657_fw.mp4	0.0	352.3785891532898	
78	328.8323128223419	movie	1		245	76.0	2.5	/experiments/knapen_AOT/AOT_stimuli/rescaled_final/0657_fw.mp4	0.0	352.3867189884186	2.508648157119751
78	330.4250559806824	pulse	1	t		76.0	2.5	/experiments/knapen_AOT/AOT_stimuli/rescaled_final/0657_fw.mp4	0.0	353.97946214675903	
78	331.34096097946167	fix_post	2		12	76.0	2.5	/experiments/knapen_AOT/AOT_stimuli/rescaled_final/0657_fw.mp4	0.0	354.89536714553833	0.10000395774841309
79	331.4409649372101	fix_pre	0		120	77.0	2.5	/experiments/knapen_AOT/AOT_stimuli/rescaled_final/2084_rv.mp4	0.0	354.99537110328674	1.0001978874206543
79	332.0246739387512	pulse	0	t		77.0	2.5	/experiments/knapen_AOT/AOT_stimuli/rescaled_final/2084_rv.mp4	0.0	355.5790801048279	
79	332.44116282463074	movie	1		244	77.0	2.5	/experiments/knapen_AOT/AOT_stimuli/rescaled_final/2084_rv.mp4	0.0	355.9955689907074	2.5003859996795654
79	333.62493085861206	pulse	1	t		77.0	2.5	/experiments/knapen_AOT/AOT_stimuli/rescaled_final/2084_rv.mp4	0.0	357.1793370246887	
79	334.9415488243103	fix_post	2		12	77.0	2.5	/experiments/knapen_AOT/AOT_stimuli/rescaled_final/2084_rv.mp4	0.0	358.49595499038696	0.09998703002929688
80	335.0415358543396	fix_pre	0		117	78.0	2.5	/experiments/knapen_AOT/AOT_stimuli/rescaled_final/0568_fw.mp4	0.0	358.59594202041626	1.0001180171966553
80	335.2251160144806	pulse	0	t		78.0	2.5	/experiments/knapen_AOT/AOT_stimuli/rescaled_final/0568_fw.mp4	0.0	358.77952218055725	
80	336.04165387153625	movie	1		244	78.0	2.5	/experiments/knapen_AOT/AOT_stimuli/rescaled_final/0568_fw.mp4	0.0	359.5960600376129	2.5004360675811768
80	336.8253548145294	pulse	1	t		78.0	2.5	/experiments/knapen_AOT/AOT_stimuli/rescaled_final/0568_fw.mp4	0.0	360.3797609806061	
80	338.42558884620667	pulse	1	t		78.0	2.5	/experiments/knapen_AOT/AOT_stimuli/rescaled_final/0568_fw.mp4	0.0	361.9799950122833	
80	338.54208993911743	fix_post	2		12	78.0	2.5	/experiments/knapen_AOT/AOT_stimuli/rescaled_final/0568_fw.mp4	0.0	362.0964961051941	0.09996891021728516
81	338.6420588493347	fix_pre	0		120	79.0	2.5	/experiments/knapen_AOT/AOT_stimuli/rescaled_final/0115_fw.mp4	0.0	362.1964650154114	1.0002110004425049
81	339.6422698497772	movie	1		244	79.0	2.5	/experiments/knapen_AOT/AOT_stimuli/rescaled_final/0115_fw.mp4	0.0	363.1966760158539	2.4920129776000977
81	340.02705097198486	pulse	1	t		79.0	2.5	/experiments/knapen_AOT/AOT_stimuli/rescaled_final/0115_fw.mp4	0.0	363.5814571380615	
81	341.6260459423065	pulse	1	t		79.0	2.5	/experiments/knapen_AOT/AOT_stimuli/rescaled_final/0115_fw.mp4	0.0	365.1804521083832	
81	342.1342828273773	fix_post	2		12	79.0	2.5	/experiments/knapen_AOT/AOT_stimuli/rescaled_final/0115_fw.mp4	0.0	365.688688993454	0.09996509552001953
82	342.23424792289734	fix_pre	0		120	80.0	2.5	/experiments/knapen_AOT/AOT_stimuli/rescaled_final/1215_rv.mp4	0.0	365.788654088974	1.0002009868621826
82	343.22626185417175	pulse	0	t		80.0	2.5	/experiments/knapen_AOT/AOT_stimuli/rescaled_final/1215_rv.mp4	0.0	366.7806680202484	
82	343.2344489097595	movie	1		246	80.0	2.5	/experiments/knapen_AOT/AOT_stimuli/rescaled_final/1215_rv.mp4	0.0	366.7888550758362	2.5086960792541504
82	344.8269968032837	pulse	1	t		80.0	2.5	/experiments/knapen_AOT/AOT_stimuli/rescaled_final/1215_rv.mp4	0.0	368.38140296936035	
82	345.7431449890137	fix_post	2		12	80.0	2.5	/experiments/knapen_AOT/AOT_stimuli/rescaled_final/1215_rv.mp4	0.0	369.29755115509033	0.09998297691345215
83	345.8431279659271	fix_pre	0		120	81.0	2.5	/experiments/knapen_AOT/AOT_stimuli/rescaled_final/0032_rv.mp4	0.0	369.3975341320038	1.0001578330993652
83	346.42683601379395	pulse	0	t		81.0	2.5	/experiments/knapen_AOT/AOT_stimuli/rescaled_final/0032_rv.mp4	0.0	369.9812421798706	
83	346.8432857990265	movie	1		246	81.0	2.5	/experiments/knapen_AOT/AOT_stimuli/rescaled_final/0032_rv.mp4	0.0	370.39769196510315	2.500418186187744
83	348.0271408557892	pulse	1	t		81.0	2.5	/experiments/knapen_AOT/AOT_stimuli/rescaled_final/0032_rv.mp4	0.0	371.58154702186584	
83	349.34370398521423	fix_post	2		12	81.0	2.5	/experiments/knapen_AOT/AOT_stimuli/rescaled_final/0032_rv.mp4	0.0	372.8981101512909	0.09996199607849121
84	349.4436659812927	fix_pre	0		120	82.0	2.5	/experiments/knapen_AOT/AOT_stimuli/rescaled_final/0039_fw.mp4	0.0	372.9980721473694	1.0001389980316162
84	349.62720584869385	pulse	0	t		82.0	2.5	/experiments/knapen_AOT/AOT_stimuli/rescaled_final/0039_fw.mp4	0.0	373.1816120147705	
84	350.44380497932434	movie	1		247	82.0	2.5	/experiments/knapen_AOT/AOT_stimuli/rescaled_final/0039_fw.mp4	0.0	373.998211145401	2.5004289150238037
84	351.22743582725525	pulse	1	t		82.0	2.5	/experiments/knapen_AOT/AOT_stimuli/rescaled_final/0039_fw.mp4	0.0	374.7818419933319	
84	352.8277750015259	pulse	1	t		82.0	2.5	/experiments/knapen_AOT/AOT_stimuli/rescaled_final/0039_fw.mp4	0.0	376.38218116760254	
84	352.94423389434814	fix_post	2		12	82.0	2.5	/experiments/knapen_AOT/AOT_stimuli/rescaled_final/0039_fw.mp4	0.0	376.4986400604248	0.09999203681945801
85	353.0442259311676	fix_pre	0		120	83.0	2.5	blank	1.0	376.59863209724426	1.0001468658447266
85	354.04437279701233	movie	1		299	83.0	2.5	blank	1.0	377.598778963089	2.4920430183410645
85	354.4205119609833	pulse	1	t		83.0	2.5	blank	1.0	377.97491812705994	
85	356.02075481414795	pulse	1	t		83.0	2.5	blank	1.0	379.5751609802246	
85	356.5364158153534	fix_post	2		12	83.0	2.5	blank	1.0	380.09082198143005	0.10003018379211426
87	356.6364459991455	stim	0		1716					380.19085216522217	14.302227973937988
87	357.62116980552673	pulse	0	t						381.1755759716034	
87	359.2213399410248	pulse	0	t						382.77574610710144	
87	360.82049083709717	pulse	0	t						384.3748970031738	
87	362.42078399658203	pulse	0	t						385.9751901626587	
87	364.02103090286255	pulse	0	t						387.5754370689392	
87	365.6211938858032	pulse	0	t						389.1756000518799	
87	367.22153091430664	pulse	0	t						390.7759370803833	
87	368.82179498672485	pulse	0	t						392.3762011528015	
87	370.4219448566437	pulse	0	t						393.97635102272034	
