trial_nr	onset	event_type	phase	response	nr_frames	movie_index	movie_duration	movie_file	blank	onset_abs	duration
0	0.21666288375854492	stim	0		109					25.429552793502808	0.933326005935669
0	1.1420838832855225	response	0	space						26.354973793029785	
1	1.1499888896942139	stim	0		4634					26.362878799438477	38.63122296333313
1	39.77147603034973	pulse	0	t						64.984365940094	
1	39.781211853027344	stim	1		1715					64.9941017627716	14.301642179489136
1	41.364585876464844	pulse	1	t						66.5774757862091	
1	42.96475601196289	pulse	1	t						68.17764592170715	
1	44.56491994857788	pulse	1	t						69.77780985832214	
1	46.16519284248352	pulse	1	t						71.37808275222778	
1	47.76547288894653	pulse	1	t						72.9783627986908	
1	49.36577606201172	pulse	1	t						74.57866597175598	
1	50.965940952301025	pulse	1	t						76.17883086204529	
1	52.566202878952026	pulse	1	t						77.77909278869629	
2	54.08285403251648	fix_pre	0		11	0.0	2.5	/experiments/knapen_AOT/AOT_stimuli/rescaled_final/1847_rv.mp4	0.0	79.29574394226074	0.10010290145874023
2	54.16647505760193	pulse	0	t		0.0	2.5	/experiments/knapen_AOT/AOT_stimuli/rescaled_final/1847_rv.mp4	0.0	79.37936496734619	
2	54.18295693397522	movie	1		243	0.0	2.5	/experiments/knapen_AOT/AOT_stimuli/rescaled_final/1847_rv.mp4	0.0	79.39584684371948	2.500275135040283
2	55.76786994934082	pulse	1	t		0.0	2.5	/experiments/knapen_AOT/AOT_stimuli/rescaled_final/1847_rv.mp4	0.0	80.98075985908508	
2	56.6832320690155	fix_post	2		12	0.0	2.5	/experiments/knapen_AOT/AOT_stimuli/rescaled_final/1847_rv.mp4	0.0	81.89612197875977	0.10009598731994629
3	56.78332805633545	fix_pre	0		120	1.0	2.5	/experiments/knapen_AOT/AOT_stimuli/rescaled_final/0904_fw.mp4	0.0	81.99621796607971	1.000074863433838
3	57.36688184738159	pulse	0	t		1.0	2.5	/experiments/knapen_AOT/AOT_stimuli/rescaled_final/0904_fw.mp4	0.0	82.57977175712585	
3	57.78340291976929	movie	1		247	1.0	2.5	/experiments/knapen_AOT/AOT_stimuli/rescaled_final/0904_fw.mp4	0.0	82.99629282951355	2.500378131866455
3	58.96721291542053	pulse	1	t		1.0	2.5	/experiments/knapen_AOT/AOT_stimuli/rescaled_final/0904_fw.mp4	0.0	84.1801028251648	
3	60.28378105163574	fix_post	2		12	1.0	2.5	/experiments/knapen_AOT/AOT_stimuli/rescaled_final/0904_fw.mp4	0.0	85.49667096138	0.10001993179321289
4	60.383800983428955	fix_pre	0		120	2.0	2.5	/experiments/knapen_AOT/AOT_stimuli/rescaled_final/1536_fw.mp4	0.0	85.59669089317322	1.0001590251922607
4	60.56744694709778	pulse	0	t		2.0	2.5	/experiments/knapen_AOT/AOT_stimuli/rescaled_final/1536_fw.mp4	0.0	85.78033685684204	
4	61.383960008621216	movie	1		245	2.0	2.5	/experiments/knapen_AOT/AOT_stimuli/rescaled_final/1536_fw.mp4	0.0	86.59684991836548	2.500330924987793
4	62.160382986068726	pulse	1	t		2.0	2.5	/experiments/knapen_AOT/AOT_stimuli/rescaled_final/1536_fw.mp4	0.0	87.37327289581299	
4	63.765419006347656	pulse	1	t		2.0	2.5	/experiments/knapen_AOT/AOT_stimuli/rescaled_final/1536_fw.mp4	0.0	88.97830891609192	
4	63.88429093360901	fix_post	2		12	2.0	2.5	/experiments/knapen_AOT/AOT_stimuli/rescaled_final/1536_fw.mp4	0.0	89.09718084335327	0.10001993179321289
5	63.98431086540222	fix_pre	0		120	3.0	2.5	/experiments/knapen_AOT/AOT_stimuli/rescaled_final/1817_rv.mp4	0.0	89.19720077514648	1.0001630783081055
5	64.98447394371033	movie	1		244	3.0	2.5	/experiments/knapen_AOT/AOT_stimuli/rescaled_final/1817_rv.mp4	0.0	90.19736385345459	2.4920859336853027
5	65.36938500404358	pulse	1	t		3.0	2.5	/experiments/knapen_AOT/AOT_stimuli/rescaled_final/1817_rv.mp4	0.0	90.58227491378784	
5	66.96104598045349	pulse	1	t		3.0	2.5	/experiments/knapen_AOT/AOT_stimuli/rescaled_final/1817_rv.mp4	0.0	92.17393589019775	
5	67.47655987739563	fix_post	2		12	3.0	2.5	/experiments/knapen_AOT/AOT_stimuli/rescaled_final/1817_rv.mp4	0.0	92.68944978713989	0.0999751091003418
6	67.57653498649597	fix_pre	0		119	4.0	2.5	/experiments/knapen_AOT/AOT_stimuli/rescaled_final/0890_rv.mp4	0.0	92.78942489624023	0.9918279647827148
6	68.56035900115967	pulse	0	t		4.0	2.5	/experiments/knapen_AOT/AOT_stimuli/rescaled_final/0890_rv.mp4	0.0	93.77324891090393	
6	68.56836295127869	movie	1		246	4.0	2.5	/experiments/knapen_AOT/AOT_stimuli/rescaled_final/0890_rv.mp4	0.0	93.78125286102295	2.5086989402770996
6	70.16132187843323	pulse	1	t		4.0	2.5	/experiments/knapen_AOT/AOT_stimuli/rescaled_final/0890_rv.mp4	0.0	95.37421178817749	
6	71.07706189155579	fix_post	2		12	4.0	2.5	/experiments/knapen_AOT/AOT_stimuli/rescaled_final/0890_rv.mp4	0.0	96.28995180130005	0.10006999969482422
7	71.17713189125061	fix_pre	0		120	5.0	2.5	blank	1.0	96.39002180099487	1.0001220703125
7	71.76067686080933	pulse	0	t		5.0	2.5	blank	1.0	96.97356677055359	
7	72.17725396156311	movie	1		300	5.0	2.5	blank	1.0	97.39014387130737	2.5004079341888428
7	73.36089587211609	pulse	1	t		5.0	2.5	blank	1.0	98.57378578186035	
7	74.67766189575195	fix_post	2		12	5.0	2.5	blank	1.0	99.89055180549622	0.09993815422058105
8	74.77760004997253	fix_pre	0		120	6.0	2.5	/experiments/knapen_AOT/AOT_stimuli/rescaled_final/1389_fw.mp4	0.0	99.9904899597168	1.0001568794250488
8	74.9611668586731	pulse	0	t		6.0	2.5	/experiments/knapen_AOT/AOT_stimuli/rescaled_final/1389_fw.mp4	0.0	100.17405676841736	
8	75.77775692939758	movie	1		244	6.0	2.5	/experiments/knapen_AOT/AOT_stimuli/rescaled_final/1389_fw.mp4	0.0	100.99064683914185	2.5004141330718994
8	76.56150388717651	pulse	1	t		6.0	2.5	/experiments/knapen_AOT/AOT_stimuli/rescaled_final/1389_fw.mp4	0.0	101.77439379692078	
8	78.16166806221008	pulse	1	t		6.0	2.5	/experiments/knapen_AOT/AOT_stimuli/rescaled_final/1389_fw.mp4	0.0	103.37455797195435	
8	78.27817106246948	fix_post	2		12	6.0	2.5	/experiments/knapen_AOT/AOT_stimuli/rescaled_final/1389_fw.mp4	0.0	103.49106097221375	0.09997296333312988
9	78.37814402580261	fix_pre	0		120	7.0	2.5	/experiments/knapen_AOT/AOT_stimuli/rescaled_final/0112_fw.mp4	0.0	103.59103393554688	1.000152826309204
9	79.37829685211182	movie	1		246	7.0	2.5	/experiments/knapen_AOT/AOT_stimuli/rescaled_final/0112_fw.mp4	0.0	104.59118676185608	2.492047071456909
9	79.76239800453186	pulse	1	t		7.0	2.5	/experiments/knapen_AOT/AOT_stimuli/rescaled_final/0112_fw.mp4	0.0	104.97528791427612	
9	81.3621039390564	pulse	1	t		7.0	2.5	/experiments/knapen_AOT/AOT_stimuli/rescaled_final/0112_fw.mp4	0.0	106.57499384880066	
9	81.87034392356873	fix_post	2		12	7.0	2.5	/experiments/knapen_AOT/AOT_stimuli/rescaled_final/0112_fw.mp4	0.0	107.08323383331299	0.09998297691345215
10	81.97032690048218	fix_pre	0		120	8.0	2.5	/experiments/knapen_AOT/AOT_stimuli/rescaled_final/0446_rv.mp4	0.0	107.18321681022644	1.000197172164917
10	82.96234488487244	pulse	0	t		8.0	2.5	/experiments/knapen_AOT/AOT_stimuli/rescaled_final/0446_rv.mp4	0.0	108.1752347946167	
10	82.9705240726471	movie	1		252	8.0	2.5	/experiments/knapen_AOT/AOT_stimuli/rescaled_final/0446_rv.mp4	0.0	108.18341398239136	2.508676767349243
10	84.56302285194397	pulse	1	t		8.0	2.5	/experiments/knapen_AOT/AOT_stimuli/rescaled_final/0446_rv.mp4	0.0	109.77591276168823	
10	85.47920083999634	fix_post	2		12	8.0	2.5	/experiments/knapen_AOT/AOT_stimuli/rescaled_final/0446_rv.mp4	0.0	110.6920907497406	0.10000801086425781
11	85.5792088508606	fix_pre	0		120	9.0	2.5	/experiments/knapen_AOT/AOT_stimuli/rescaled_final/1059_fw.mp4	0.0	110.79209876060486	1.0002081394195557
11	86.16288805007935	pulse	0	t		9.0	2.5	/experiments/knapen_AOT/AOT_stimuli/rescaled_final/1059_fw.mp4	0.0	111.37577795982361	
11	86.57941699028015	movie	1		244	9.0	2.5	/experiments/knapen_AOT/AOT_stimuli/rescaled_final/1059_fw.mp4	0.0	111.79230690002441	2.5003108978271484
11	87.76323795318604	pulse	1	t		9.0	2.5	/experiments/knapen_AOT/AOT_stimuli/rescaled_final/1059_fw.mp4	0.0	112.9761278629303	
11	89.0797278881073	fix_post	2		12	9.0	2.5	/experiments/knapen_AOT/AOT_stimuli/rescaled_final/1059_fw.mp4	0.0	114.29261779785156	0.1000361442565918
12	89.17976403236389	fix_pre	0		120	10.0	2.5	/experiments/knapen_AOT/AOT_stimuli/rescaled_final/0514_fw.mp4	0.0	114.39265394210815	1.0001628398895264
12	89.36329388618469	pulse	0	t		10.0	2.5	/experiments/knapen_AOT/AOT_stimuli/rescaled_final/0514_fw.mp4	0.0	114.57618379592896	
12	90.17992687225342	movie	1		245	10.0	2.5	/experiments/knapen_AOT/AOT_stimuli/rescaled_final/0514_fw.mp4	0.0	115.39281678199768	2.5003600120544434
12	90.96366095542908	pulse	1	t		10.0	2.5	/experiments/knapen_AOT/AOT_stimuli/rescaled_final/0514_fw.mp4	0.0	116.17655086517334	
12	92.56135988235474	pulse	1	t		10.0	2.5	/experiments/knapen_AOT/AOT_stimuli/rescaled_final/0514_fw.mp4	0.0	117.774249792099	
12	92.68028688430786	fix_post	2		12	10.0	2.5	/experiments/knapen_AOT/AOT_stimuli/rescaled_final/0514_fw.mp4	0.0	117.89317679405212	0.09999299049377441
13	92.78027987480164	fix_pre	0		120	11.0	2.5	/experiments/knapen_AOT/AOT_stimuli/rescaled_final/1875_rv.mp4	0.0	117.9931697845459	1.0001640319824219
13	93.78044390678406	movie	1		243	11.0	2.5	/experiments/knapen_AOT/AOT_stimuli/rescaled_final/1875_rv.mp4	0.0	118.99333381652832	2.4920499324798584
13	94.1651999950409	pulse	1	t		11.0	2.5	/experiments/knapen_AOT/AOT_stimuli/rescaled_final/1875_rv.mp4	0.0	119.37808990478516	
13	95.76433491706848	pulse	1	t		11.0	2.5	/experiments/knapen_AOT/AOT_stimuli/rescaled_final/1875_rv.mp4	0.0	120.97722482681274	
13	96.27249383926392	fix_post	2		12	11.0	2.5	/experiments/knapen_AOT/AOT_stimuli/rescaled_final/1875_rv.mp4	0.0	121.48538374900818	0.10002613067626953
14	96.37251996994019	fix_pre	0		120	12.0	2.5	blank	1.0	121.58540987968445	1.0001459121704102
14	97.36457300186157	pulse	0	t		12.0	2.5	blank	1.0	122.57746291160583	
14	97.3726658821106	movie	1		301	12.0	2.5	blank	1.0	122.58555579185486	2.5087010860443115
14	98.96479988098145	pulse	1	t		12.0	2.5	blank	1.0	124.17768979072571	
14	99.88136696815491	fix_post	2		12	12.0	2.5	blank	1.0	125.09425687789917	0.09999608993530273
15	99.98136305809021	fix_pre	0		120	13.0	2.5	/experiments/knapen_AOT/AOT_stimuli/rescaled_final/0810_rv.mp4	0.0	125.19425296783447	1.000201940536499
15	100.56497097015381	pulse	0	t		13.0	2.5	/experiments/knapen_AOT/AOT_stimuli/rescaled_final/0810_rv.mp4	0.0	125.77786087989807	
15	100.98156499862671	movie	1		245	13.0	2.5	/experiments/knapen_AOT/AOT_stimuli/rescaled_final/0810_rv.mp4	0.0	126.19445490837097	2.5003550052642822
15	102.16533303260803	pulse	1	t		13.0	2.5	/experiments/knapen_AOT/AOT_stimuli/rescaled_final/0810_rv.mp4	0.0	127.3782229423523	
15	103.48192000389099	fix_post	2		12	13.0	2.5	/experiments/knapen_AOT/AOT_stimuli/rescaled_final/0810_rv.mp4	0.0	128.69480991363525	0.09998106956481934
16	103.58190107345581	fix_pre	0		120	14.0	2.5	/experiments/knapen_AOT/AOT_stimuli/rescaled_final/0080_rv.mp4	0.0	128.79479098320007	1.0001537799835205
16	103.76542592048645	pulse	0	t		14.0	2.5	/experiments/knapen_AOT/AOT_stimuli/rescaled_final/0080_rv.mp4	0.0	128.9783158302307	
16	104.58205485343933	movie	1		244	14.0	2.5	/experiments/knapen_AOT/AOT_stimuli/rescaled_final/0080_rv.mp4	0.0	129.7949447631836	2.500349998474121
16	105.36572194099426	pulse	1	t		14.0	2.5	/experiments/knapen_AOT/AOT_stimuli/rescaled_final/0080_rv.mp4	0.0	130.57861185073853	
16	106.96372103691101	pulse	1	t		14.0	2.5	/experiments/knapen_AOT/AOT_stimuli/rescaled_final/0080_rv.mp4	0.0	132.17661094665527	
16	107.08240485191345	fix_post	2		12	14.0	2.5	/experiments/knapen_AOT/AOT_stimuli/rescaled_final/0080_rv.mp4	0.0	132.29529476165771	0.10027718544006348
17	107.18268203735352	fix_pre	0		119	15.0	2.5	/experiments/knapen_AOT/AOT_stimuli/rescaled_final/1112_fw.mp4	0.0	132.39557194709778	0.9999380111694336
17	108.18262004852295	movie	1		243	15.0	2.5	/experiments/knapen_AOT/AOT_stimuli/rescaled_final/1112_fw.mp4	0.0	133.3955099582672	2.4920108318328857
17	108.56685996055603	pulse	1	t		15.0	2.5	/experiments/knapen_AOT/AOT_stimuli/rescaled_final/1112_fw.mp4	0.0	133.7797498703003	
17	110.16642785072327	pulse	1	t		15.0	2.5	/experiments/knapen_AOT/AOT_stimuli/rescaled_final/1112_fw.mp4	0.0	135.37931776046753	
17	110.67463088035583	fix_post	2		12	15.0	2.5	/experiments/knapen_AOT/AOT_stimuli/rescaled_final/1112_fw.mp4	0.0	135.8875207901001	0.1000220775604248
18	110.77465295791626	fix_pre	0		120	16.0	2.5	/experiments/knapen_AOT/AOT_stimuli/rescaled_final/1665_fw.mp4	0.0	135.98754286766052	1.0001490116119385
18	111.76672887802124	pulse	0	t		16.0	2.5	/experiments/knapen_AOT/AOT_stimuli/rescaled_final/1665_fw.mp4	0.0	136.9796187877655	
18	111.7748019695282	movie	1		246	16.0	2.5	/experiments/knapen_AOT/AOT_stimuli/rescaled_final/1665_fw.mp4	0.0	136.98769187927246	2.5086610317230225
18	113.36800193786621	pulse	1	t		16.0	2.5	/experiments/knapen_AOT/AOT_stimuli/rescaled_final/1665_fw.mp4	0.0	138.58089184761047	
18	114.28346300125122	fix_post	2		12	16.0	2.5	/experiments/knapen_AOT/AOT_stimuli/rescaled_final/1665_fw.mp4	0.0	139.49635291099548	0.10005688667297363
19	114.3835198879242	fix_pre	0		120	17.0	2.5	/experiments/knapen_AOT/AOT_stimuli/rescaled_final/0080_fw.mp4	0.0	139.59640979766846	1.0002009868621826
19	114.96712684631348	pulse	0	t		17.0	2.5	/experiments/knapen_AOT/AOT_stimuli/rescaled_final/0080_fw.mp4	0.0	140.18001675605774	
19	115.38372087478638	movie	1		247	17.0	2.5	/experiments/knapen_AOT/AOT_stimuli/rescaled_final/0080_fw.mp4	0.0	140.59661078453064	2.500347137451172
19	116.56746292114258	pulse	1	t		17.0	2.5	/experiments/knapen_AOT/AOT_stimuli/rescaled_final/0080_fw.mp4	0.0	141.78035283088684	
19	117.88406801223755	fix_post	2		12	17.0	2.5	/experiments/knapen_AOT/AOT_stimuli/rescaled_final/0080_fw.mp4	0.0	143.0969579219818	0.09999299049377441
20	117.98406100273132	fix_pre	0		120	18.0	2.5	/experiments/knapen_AOT/AOT_stimuli/rescaled_final/1990_fw.mp4	0.0	143.1969509124756	1.000128984451294
20	118.16027688980103	pulse	0	t		18.0	2.5	/experiments/knapen_AOT/AOT_stimuli/rescaled_final/1990_fw.mp4	0.0	143.3731667995453	
20	118.98418998718262	movie	1		247	18.0	2.5	/experiments/knapen_AOT/AOT_stimuli/rescaled_final/1990_fw.mp4	0.0	144.19707989692688	2.500364065170288
20	119.76050090789795	pulse	1	t		18.0	2.5	/experiments/knapen_AOT/AOT_stimuli/rescaled_final/1990_fw.mp4	0.0	144.9733908176422	
20	121.3605580329895	pulse	1	t		18.0	2.5	/experiments/knapen_AOT/AOT_stimuli/rescaled_final/1990_fw.mp4	0.0	146.57344794273376	
20	121.4845540523529	fix_post	2		12	18.0	2.5	/experiments/knapen_AOT/AOT_stimuli/rescaled_final/1990_fw.mp4	0.0	146.69744396209717	0.10001301765441895
21	121.58456707000732	fix_pre	0		120	19.0	2.5	/experiments/knapen_AOT/AOT_stimuli/rescaled_final/1612_fw.mp4	0.0	146.7974569797516	1.0001578330993652
21	122.58472490310669	movie	1		245	19.0	2.5	/experiments/knapen_AOT/AOT_stimuli/rescaled_final/1612_fw.mp4	0.0	147.79761481285095	2.492025136947632
21	122.95995497703552	pulse	1	t		19.0	2.5	/experiments/knapen_AOT/AOT_stimuli/rescaled_final/1612_fw.mp4	0.0	148.17284488677979	
21	124.56030201911926	pulse	1	t		19.0	2.5	/experiments/knapen_AOT/AOT_stimuli/rescaled_final/1612_fw.mp4	0.0	149.77319192886353	
21	125.07675004005432	fix_post	2		12	19.0	2.5	/experiments/knapen_AOT/AOT_stimuli/rescaled_final/1612_fw.mp4	0.0	150.28963994979858	0.10004591941833496
22	125.17679595947266	fix_pre	0		119	20.0	2.5	blank	1.0	150.38968586921692	0.9918251037597656
22	126.16049098968506	pulse	0	t		20.0	2.5	blank	1.0	151.37338089942932	
22	126.16862106323242	movie	1		301	20.0	2.5	blank	1.0	151.38151097297668	2.508704900741577
22	127.76069688796997	pulse	1	t		20.0	2.5	blank	1.0	152.97358679771423	
22	128.677325963974	fix_post	2		12	20.0	2.5	blank	1.0	153.89021587371826	0.09998106956481934
23	128.77730703353882	fix_pre	0		120	21.0	2.5	/experiments/knapen_AOT/AOT_stimuli/rescaled_final/1059_rv.mp4	0.0	153.99019694328308	1.0001449584960938
23	129.36098098754883	pulse	0	t		21.0	2.5	/experiments/knapen_AOT/AOT_stimuli/rescaled_final/1059_rv.mp4	0.0	154.5738708972931	
23	129.7774519920349	movie	1		244	21.0	2.5	/experiments/knapen_AOT/AOT_stimuli/rescaled_final/1059_rv.mp4	0.0	154.99034190177917	2.5004279613494873
23	130.96128106117249	pulse	1	t		21.0	2.5	/experiments/knapen_AOT/AOT_stimuli/rescaled_final/1059_rv.mp4	0.0	156.17417097091675	
23	132.2778799533844	fix_post	2		12	21.0	2.5	/experiments/knapen_AOT/AOT_stimuli/rescaled_final/1059_rv.mp4	0.0	157.49076986312866	0.09999203681945801
24	132.37787199020386	fix_pre	0		120	22.0	2.5	/experiments/knapen_AOT/AOT_stimuli/rescaled_final/1564_rv.mp4	0.0	157.59076189994812	1.0001389980316162
24	132.56142497062683	pulse	0	t		22.0	2.5	/experiments/knapen_AOT/AOT_stimuli/rescaled_final/1564_rv.mp4	0.0	157.7743148803711	
24	133.37801098823547	movie	1		244	22.0	2.5	/experiments/knapen_AOT/AOT_stimuli/rescaled_final/1564_rv.mp4	0.0	158.59090089797974	2.5003740787506104
24	134.1616940498352	pulse	1	t		22.0	2.5	/experiments/knapen_AOT/AOT_stimuli/rescaled_final/1564_rv.mp4	0.0	159.37458395957947	
24	135.76194405555725	pulse	1	t		22.0	2.5	/experiments/knapen_AOT/AOT_stimuli/rescaled_final/1564_rv.mp4	0.0	160.9748339653015	
24	135.87838506698608	fix_post	2		12	22.0	2.5	/experiments/knapen_AOT/AOT_stimuli/rescaled_final/1564_rv.mp4	0.0	161.09127497673035	0.10002779960632324
25	135.9784128665924	fix_pre	0		120	23.0	2.5	/experiments/knapen_AOT/AOT_stimuli/rescaled_final/1280_fw.mp4	0.0	161.19130277633667	1.0001840591430664
25	136.97859692573547	movie	1		244	23.0	2.5	/experiments/knapen_AOT/AOT_stimuli/rescaled_final/1280_fw.mp4	0.0	162.19148683547974	2.4920730590820312
25	137.36260294914246	pulse	1	t		23.0	2.5	/experiments/knapen_AOT/AOT_stimuli/rescaled_final/1280_fw.mp4	0.0	162.57549285888672	
25	138.96247696876526	pulse	1	t		23.0	2.5	/experiments/knapen_AOT/AOT_stimuli/rescaled_final/1280_fw.mp4	0.0	164.17536687850952	
25	139.4706699848175	fix_post	2		12	23.0	2.5	/experiments/knapen_AOT/AOT_stimuli/rescaled_final/1280_fw.mp4	0.0	164.68355989456177	0.09993791580200195
26	139.5706079006195	fix_pre	0		120	24.0	2.5	/experiments/knapen_AOT/AOT_stimuli/rescaled_final/1612_rv.mp4	0.0	164.78349781036377	1.0001370906829834
26	140.56267404556274	pulse	0	t		24.0	2.5	/experiments/knapen_AOT/AOT_stimuli/rescaled_final/1612_rv.mp4	0.0	165.775563955307	
26	140.5707449913025	movie	1		247	24.0	2.5	/experiments/knapen_AOT/AOT_stimuli/rescaled_final/1612_rv.mp4	0.0	165.78363490104675	2.508755922317505
26	142.16729092597961	pulse	1	t		24.0	2.5	/experiments/knapen_AOT/AOT_stimuli/rescaled_final/1612_rv.mp4	0.0	167.38018083572388	
26	143.07950091362	fix_post	2		12	24.0	2.5	/experiments/knapen_AOT/AOT_stimuli/rescaled_final/1612_rv.mp4	0.0	168.29239082336426	0.0999910831451416
27	143.17949199676514	fix_pre	0		120	25.0	2.5	/experiments/knapen_AOT/AOT_stimuli/rescaled_final/1309_rv.mp4	0.0	168.3923819065094	1.0001280307769775
27	143.76314496994019	pulse	0	t		25.0	2.5	/experiments/knapen_AOT/AOT_stimuli/rescaled_final/1309_rv.mp4	0.0	168.97603487968445	
27	144.17962002754211	movie	1		245	25.0	2.5	/experiments/knapen_AOT/AOT_stimuli/rescaled_final/1309_rv.mp4	0.0	169.39250993728638	2.5004220008850098
27	145.36349296569824	pulse	1	t		25.0	2.5	/experiments/knapen_AOT/AOT_stimuli/rescaled_final/1309_rv.mp4	0.0	170.5763828754425	
27	146.68004202842712	fix_post	2		12	25.0	2.5	/experiments/knapen_AOT/AOT_stimuli/rescaled_final/1309_rv.mp4	0.0	171.8929319381714	0.09996795654296875
28	146.7800099849701	fix_pre	0		120	26.0	2.5	/experiments/knapen_AOT/AOT_stimuli/rescaled_final/1115_fw.mp4	0.0	171.99289989471436	1.0001718997955322
28	146.96367502212524	pulse	0	t		26.0	2.5	/experiments/knapen_AOT/AOT_stimuli/rescaled_final/1115_fw.mp4	0.0	172.1765649318695	
28	147.78018188476562	movie	1		244	26.0	2.5	/experiments/knapen_AOT/AOT_stimuli/rescaled_final/1115_fw.mp4	0.0	172.9930717945099	2.500385046005249
28	148.5638289451599	pulse	1	t		26.0	2.5	/experiments/knapen_AOT/AOT_stimuli/rescaled_final/1115_fw.mp4	0.0	173.77671885490417	
28	150.16409492492676	pulse	1	t		26.0	2.5	/experiments/knapen_AOT/AOT_stimuli/rescaled_final/1115_fw.mp4	0.0	175.37698483467102	
28	150.28056693077087	fix_post	2		12	26.0	2.5	/experiments/knapen_AOT/AOT_stimuli/rescaled_final/1115_fw.mp4	0.0	175.49345684051514	0.09996795654296875
29	150.38053488731384	fix_pre	0		120	27.0	2.5	/experiments/knapen_AOT/AOT_stimuli/rescaled_final/0405_rv.mp4	0.0	175.5934247970581	1.0001909732818604
29	151.3807258605957	movie	1		243	27.0	2.5	/experiments/knapen_AOT/AOT_stimuli/rescaled_final/0405_rv.mp4	0.0	176.59361577033997	2.4920451641082764
29	151.7654378414154	pulse	1	t		27.0	2.5	/experiments/knapen_AOT/AOT_stimuli/rescaled_final/0405_rv.mp4	0.0	176.97832775115967	
29	153.3645510673523	pulse	1	t		27.0	2.5	/experiments/knapen_AOT/AOT_stimuli/rescaled_final/0405_rv.mp4	0.0	178.57744097709656	
29	153.87277102470398	fix_post	2		12	27.0	2.5	/experiments/knapen_AOT/AOT_stimuli/rescaled_final/0405_rv.mp4	0.0	179.08566093444824	0.10002684593200684
30	153.972797870636	fix_pre	0		120	28.0	2.5	blank	1.0	179.18568778038025	1.0001389980316162
30	154.96478986740112	pulse	0	t		28.0	2.5	blank	1.0	180.17767977714539	
30	154.9729368686676	movie	1		301	28.0	2.5	blank	1.0	180.18582677841187	2.508754014968872
30	156.56502890586853	pulse	1	t		28.0	2.5	blank	1.0	181.7779188156128	
30	157.48169088363647	fix_post	2		12	28.0	2.5	blank	1.0	182.69458079338074	0.09998297691345215
31	157.58167386054993	fix_pre	0		120	29.0	2.5	/experiments/knapen_AOT/AOT_stimuli/rescaled_final/1494_rv.mp4	0.0	182.7945637702942	1.0000941753387451
31	158.1653389930725	pulse	0	t		29.0	2.5	/experiments/knapen_AOT/AOT_stimuli/rescaled_final/1494_rv.mp4	0.0	183.37822890281677	
31	158.58176803588867	movie	1		245	29.0	2.5	/experiments/knapen_AOT/AOT_stimuli/rescaled_final/1494_rv.mp4	0.0	183.79465794563293	2.5003488063812256
31	159.76561188697815	pulse	1	t		29.0	2.5	/experiments/knapen_AOT/AOT_stimuli/rescaled_final/1494_rv.mp4	0.0	184.9785017967224	
31	161.0821168422699	fix_post	2		12	29.0	2.5	/experiments/knapen_AOT/AOT_stimuli/rescaled_final/1494_rv.mp4	0.0	186.29500675201416	0.10006523132324219
32	161.18218207359314	fix_pre	0		120	30.0	2.5	/experiments/knapen_AOT/AOT_stimuli/rescaled_final/1792_rv.mp4	0.0	186.3950719833374	1.0001277923583984
32	161.36582803726196	pulse	0	t		30.0	2.5	/experiments/knapen_AOT/AOT_stimuli/rescaled_final/1792_rv.mp4	0.0	186.57871794700623	
32	162.18230986595154	movie	1		245	30.0	2.5	/experiments/knapen_AOT/AOT_stimuli/rescaled_final/1792_rv.mp4	0.0	187.3951997756958	2.5003721714019775
32	162.96597695350647	pulse	1	t		30.0	2.5	/experiments/knapen_AOT/AOT_stimuli/rescaled_final/1792_rv.mp4	0.0	188.17886686325073	
32	164.56625199317932	pulse	1	t		30.0	2.5	/experiments/knapen_AOT/AOT_stimuli/rescaled_final/1792_rv.mp4	0.0	189.77914190292358	
32	164.68268203735352	fix_post	2		12	30.0	2.5	/experiments/knapen_AOT/AOT_stimuli/rescaled_final/1792_rv.mp4	0.0	189.89557194709778	0.10003781318664551
33	164.78271985054016	fix_pre	0		120	31.0	2.5	/experiments/knapen_AOT/AOT_stimuli/rescaled_final/1491_rv.mp4	0.0	189.99560976028442	1.0011382102966309
33	165.7838580608368	movie	1		241	31.0	2.5	/experiments/knapen_AOT/AOT_stimuli/rescaled_final/1491_rv.mp4	0.0	190.99674797058105	2.49104380607605
33	166.16727590560913	pulse	1	t		31.0	2.5	/experiments/knapen_AOT/AOT_stimuli/rescaled_final/1491_rv.mp4	0.0	191.3801658153534	
33	167.76678490638733	pulse	1	t		31.0	2.5	/experiments/knapen_AOT/AOT_stimuli/rescaled_final/1491_rv.mp4	0.0	192.9796748161316	
33	168.27490186691284	fix_post	2		12	31.0	2.5	/experiments/knapen_AOT/AOT_stimuli/rescaled_final/1491_rv.mp4	0.0	193.4877917766571	0.09999704360961914
34	168.37489891052246	fix_pre	0		120	32.0	2.5	/experiments/knapen_AOT/AOT_stimuli/rescaled_final/1128_fw.mp4	0.0	193.58778882026672	1.0001680850982666
34	169.36697387695312	pulse	0	t		32.0	2.5	/experiments/knapen_AOT/AOT_stimuli/rescaled_final/1128_fw.mp4	0.0	194.5798637866974	
34	169.37506699562073	movie	1		246	32.0	2.5	/experiments/knapen_AOT/AOT_stimuli/rescaled_final/1128_fw.mp4	0.0	194.587956905365	2.508687973022461
34	170.96840906143188	pulse	1	t		32.0	2.5	/experiments/knapen_AOT/AOT_stimuli/rescaled_final/1128_fw.mp4	0.0	196.18129897117615	
34	171.8837549686432	fix_post	2		12	32.0	2.5	/experiments/knapen_AOT/AOT_stimuli/rescaled_final/1128_fw.mp4	0.0	197.09664487838745	0.10004091262817383
35	171.98379588127136	fix_pre	0		120	33.0	2.5	/experiments/knapen_AOT/AOT_stimuli/rescaled_final/0718_rv.mp4	0.0	197.19668579101562	1.0001060962677002
35	172.56745505332947	pulse	0	t		33.0	2.5	/experiments/knapen_AOT/AOT_stimuli/rescaled_final/0718_rv.mp4	0.0	197.78034496307373	
35	172.98390197753906	movie	1		244	33.0	2.5	/experiments/knapen_AOT/AOT_stimuli/rescaled_final/0718_rv.mp4	0.0	198.19679188728333	2.500437021255493
35	174.16780185699463	pulse	1	t		33.0	2.5	/experiments/knapen_AOT/AOT_stimuli/rescaled_final/0718_rv.mp4	0.0	199.3806917667389	
35	175.48433899879456	fix_post	2		12	33.0	2.5	/experiments/knapen_AOT/AOT_stimuli/rescaled_final/0718_rv.mp4	0.0	200.69722890853882	0.09994101524353027
36	175.5842800140381	fix_pre	0		120	34.0	2.5	blank	1.0	200.79716992378235	1.0002069473266602
36	175.76791787147522	pulse	0	t		34.0	2.5	blank	1.0	200.98080778121948	
36	176.58448696136475	movie	1		300	34.0	2.5	blank	1.0	201.797376871109	2.5003559589385986
36	177.36069703102112	pulse	1	t		34.0	2.5	blank	1.0	202.57358694076538	
36	178.96086192131042	pulse	1	t		34.0	2.5	blank	1.0	204.1737518310547	
36	179.08484292030334	fix_post	2		12	34.0	2.5	blank	1.0	204.2977328300476	0.09997415542602539
37	179.18481707572937	fix_pre	0		120	35.0	2.5	/experiments/knapen_AOT/AOT_stimuli/rescaled_final/0113_fw.mp4	0.0	204.39770698547363	1.0001928806304932
37	180.18500995635986	movie	1		244	35.0	2.5	/experiments/knapen_AOT/AOT_stimuli/rescaled_final/0113_fw.mp4	0.0	205.39789986610413	2.4920918941497803
37	180.5697238445282	pulse	1	t		35.0	2.5	/experiments/knapen_AOT/AOT_stimuli/rescaled_final/0113_fw.mp4	0.0	205.78261375427246	
37	182.16167402267456	pulse	1	t		35.0	2.5	/experiments/knapen_AOT/AOT_stimuli/rescaled_final/0113_fw.mp4	0.0	207.37456393241882	
37	182.67710185050964	fix_post	2		12	35.0	2.5	/experiments/knapen_AOT/AOT_stimuli/rescaled_final/0113_fw.mp4	0.0	207.8899917602539	0.09993505477905273
38	182.7770369052887	fix_pre	0		119	36.0	2.5	/experiments/knapen_AOT/AOT_stimuli/rescaled_final/0789_fw.mp4	0.0	207.98992681503296	0.991847038269043
38	183.7607660293579	pulse	0	t		36.0	2.5	/experiments/knapen_AOT/AOT_stimuli/rescaled_final/0789_fw.mp4	0.0	208.97365593910217	
38	183.76888394355774	movie	1		245	36.0	2.5	/experiments/knapen_AOT/AOT_stimuli/rescaled_final/0789_fw.mp4	0.0	208.981773853302	2.508692979812622
38	185.36152291297913	pulse	1	t		36.0	2.5	/experiments/knapen_AOT/AOT_stimuli/rescaled_final/0789_fw.mp4	0.0	210.5744128227234	
38	186.27757692337036	fix_post	2		12	36.0	2.5	/experiments/knapen_AOT/AOT_stimuli/rescaled_final/0789_fw.mp4	0.0	211.49046683311462	0.09998393058776855
39	186.37756085395813	fix_pre	0		120	37.0	2.5	/experiments/knapen_AOT/AOT_stimuli/rescaled_final/0510_rv.mp4	0.0	211.5904507637024	1.00018310546875
39	186.9612488746643	pulse	0	t		37.0	2.5	/experiments/knapen_AOT/AOT_stimuli/rescaled_final/0510_rv.mp4	0.0	212.17413878440857	
39	187.37774395942688	movie	1		244	37.0	2.5	/experiments/knapen_AOT/AOT_stimuli/rescaled_final/0510_rv.mp4	0.0	212.59063386917114	2.5003859996795654
39	188.561518907547	pulse	1	t		37.0	2.5	/experiments/knapen_AOT/AOT_stimuli/rescaled_final/0510_rv.mp4	0.0	213.77440881729126	
39	189.87812995910645	fix_post	2		12	37.0	2.5	/experiments/knapen_AOT/AOT_stimuli/rescaled_final/0510_rv.mp4	0.0	215.0910198688507	0.09999299049377441
40	189.97812294960022	fix_pre	0		120	38.0	2.5	/experiments/knapen_AOT/AOT_stimuli/rescaled_final/1787_fw.mp4	0.0	215.19101285934448	1.00018310546875
40	190.16168594360352	pulse	0	t		38.0	2.5	/experiments/knapen_AOT/AOT_stimuli/rescaled_final/1787_fw.mp4	0.0	215.37457585334778	
40	190.97830605506897	movie	1		243	38.0	2.5	/experiments/knapen_AOT/AOT_stimuli/rescaled_final/1787_fw.mp4	0.0	216.19119596481323	2.500325918197632
40	191.76201391220093	pulse	1	t		38.0	2.5	/experiments/knapen_AOT/AOT_stimuli/rescaled_final/1787_fw.mp4	0.0	216.9749038219452	
40	193.3622739315033	pulse	1	t		38.0	2.5	/experiments/knapen_AOT/AOT_stimuli/rescaled_final/1787_fw.mp4	0.0	218.57516384124756	
40	193.4786319732666	fix_post	2		12	38.0	2.5	/experiments/knapen_AOT/AOT_stimuli/rescaled_final/1787_fw.mp4	0.0	218.69152188301086	0.10001587867736816
41	193.57864785194397	fix_pre	0		120	39.0	2.5	/experiments/knapen_AOT/AOT_stimuli/rescaled_final/0576_rv.mp4	0.0	218.79153776168823	1.0001699924468994
41	194.57881784439087	movie	1		244	39.0	2.5	/experiments/knapen_AOT/AOT_stimuli/rescaled_final/0576_rv.mp4	0.0	219.79170775413513	2.4920570850372314
41	194.96360301971436	pulse	1	t		39.0	2.5	/experiments/knapen_AOT/AOT_stimuli/rescaled_final/0576_rv.mp4	0.0	220.17649292945862	
41	196.5626049041748	pulse	1	t		39.0	2.5	/experiments/knapen_AOT/AOT_stimuli/rescaled_final/0576_rv.mp4	0.0	221.77549481391907	
41	197.0708749294281	fix_post	2		12	39.0	2.5	/experiments/knapen_AOT/AOT_stimuli/rescaled_final/0576_rv.mp4	0.0	222.28376483917236	0.0999751091003418
42	197.17085003852844	fix_pre	0		120	40.0	2.5	/experiments/knapen_AOT/AOT_stimuli/rescaled_final/2137_fw.mp4	0.0	222.3837399482727	1.0002110004425049
42	198.1629638671875	pulse	0	t		40.0	2.5	/experiments/knapen_AOT/AOT_stimuli/rescaled_final/2137_fw.mp4	0.0	223.37585377693176	
42	198.17106103897095	movie	1		245	40.0	2.5	/experiments/knapen_AOT/AOT_stimuli/rescaled_final/2137_fw.mp4	0.0	223.3839509487152	2.5087168216705322
42	199.7642810344696	pulse	1	t		40.0	2.5	/experiments/knapen_AOT/AOT_stimuli/rescaled_final/2137_fw.mp4	0.0	224.97717094421387	
42	200.67977786064148	fix_post	2		12	40.0	2.5	/experiments/knapen_AOT/AOT_stimuli/rescaled_final/2137_fw.mp4	0.0	225.89266777038574	0.09996604919433594
43	200.77974390983582	fix_pre	0		120	41.0	2.5	/experiments/knapen_AOT/AOT_stimuli/rescaled_final/0938_rv.mp4	0.0	225.99263381958008	1.000204086303711
43	201.36345386505127	pulse	0	t		41.0	2.5	/experiments/knapen_AOT/AOT_stimuli/rescaled_final/0938_rv.mp4	0.0	226.57634377479553	
43	201.77994799613953	movie	1		243	41.0	2.5	/experiments/knapen_AOT/AOT_stimuli/rescaled_final/0938_rv.mp4	0.0	226.9928379058838	2.5003299713134766
43	202.96373200416565	pulse	1	t		41.0	2.5	/experiments/knapen_AOT/AOT_stimuli/rescaled_final/0938_rv.mp4	0.0	228.1766219139099	
43	204.280277967453	fix_post	2		12	41.0	2.5	/experiments/knapen_AOT/AOT_stimuli/rescaled_final/0938_rv.mp4	0.0	229.49316787719727	0.09997105598449707
44	204.3802490234375	fix_pre	0		120	42.0	2.5	blank	1.0	229.59313893318176	1.0002100467681885
44	204.5638599395752	pulse	0	t		42.0	2.5	blank	1.0	229.77674984931946	
44	205.3804590702057	movie	1		300	42.0	2.5	blank	1.0	230.59334897994995	2.5003409385681152
44	206.16403198242188	pulse	1	t		42.0	2.5	blank	1.0	231.37692189216614	
44	207.7643918991089	pulse	1	t		42.0	2.5	blank	1.0	232.97728180885315	
44	207.8808000087738	fix_post	2		12	42.0	2.5	blank	1.0	233.09368991851807	0.09997797012329102
45	207.9807779788971	fix_pre	0		120	43.0	2.5	/experiments/knapen_AOT/AOT_stimuli/rescaled_final/0998_fw.mp4	0.0	233.19366788864136	1.0001709461212158
45	208.9809489250183	movie	1		243	43.0	2.5	/experiments/knapen_AOT/AOT_stimuli/rescaled_final/0998_fw.mp4	0.0	234.19383883476257	2.492025136947632
45	209.36567091941833	pulse	1	t		43.0	2.5	/experiments/knapen_AOT/AOT_stimuli/rescaled_final/0998_fw.mp4	0.0	234.5785608291626	
45	210.964781999588	pulse	1	t		43.0	2.5	/experiments/knapen_AOT/AOT_stimuli/rescaled_final/0998_fw.mp4	0.0	236.17767190933228	
45	211.47297406196594	fix_post	2		12	43.0	2.5	/experiments/knapen_AOT/AOT_stimuli/rescaled_final/0998_fw.mp4	0.0	236.6858639717102	0.10003089904785156
46	211.5730049610138	fix_pre	0		120	44.0	2.5	/experiments/knapen_AOT/AOT_stimuli/rescaled_final/1466_fw.mp4	0.0	236.78589487075806	1.0002059936523438
46	212.56505489349365	pulse	0	t		44.0	2.5	/experiments/knapen_AOT/AOT_stimuli/rescaled_final/1466_fw.mp4	0.0	237.77794480323792	
46	212.57321095466614	movie	1		244	44.0	2.5	/experiments/knapen_AOT/AOT_stimuli/rescaled_final/1466_fw.mp4	0.0	237.7861008644104	2.508769989013672
46	214.16663789749146	pulse	1	t		44.0	2.5	/experiments/knapen_AOT/AOT_stimuli/rescaled_final/1466_fw.mp4	0.0	239.37952780723572	
46	215.0819809436798	fix_post	2		12	44.0	2.5	/experiments/knapen_AOT/AOT_stimuli/rescaled_final/1466_fw.mp4	0.0	240.29487085342407	0.09992289543151855
47	215.18190383911133	fix_pre	0		120	45.0	2.5	/experiments/knapen_AOT/AOT_stimuli/rescaled_final/0113_fw.mp4	0.0	240.3947937488556	1.0001401901245117
47	215.76563096046448	pulse	0	t		45.0	2.5	/experiments/knapen_AOT/AOT_stimuli/rescaled_final/0113_fw.mp4	0.0	240.97852087020874	
47	216.18204402923584	movie	1		245	45.0	2.5	/experiments/knapen_AOT/AOT_stimuli/rescaled_final/0113_fw.mp4	0.0	241.3949339389801	2.500358819961548
47	217.36577892303467	pulse	1	t		45.0	2.5	/experiments/knapen_AOT/AOT_stimuli/rescaled_final/0113_fw.mp4	0.0	242.57866883277893	
47	218.6824028491974	fix_post	2		12	45.0	2.5	/experiments/knapen_AOT/AOT_stimuli/rescaled_final/0113_fw.mp4	0.0	243.89529275894165	0.10001707077026367
48	218.78241991996765	fix_pre	0		120	46.0	2.5	/experiments/knapen_AOT/AOT_stimuli/rescaled_final/1309_rv.mp4	0.0	243.9953098297119	1.0002329349517822
48	218.96600985527039	pulse	0	t		46.0	2.5	/experiments/knapen_AOT/AOT_stimuli/rescaled_final/1309_rv.mp4	0.0	244.17889976501465	
48	219.78265285491943	movie	1		244	46.0	2.5	/experiments/knapen_AOT/AOT_stimuli/rescaled_final/1309_rv.mp4	0.0	244.9955427646637	2.500343084335327
48	220.56622695922852	pulse	1	t		46.0	2.5	/experiments/knapen_AOT/AOT_stimuli/rescaled_final/1309_rv.mp4	0.0	245.77911686897278	
48	222.16633486747742	pulse	1	t		46.0	2.5	/experiments/knapen_AOT/AOT_stimuli/rescaled_final/1309_rv.mp4	0.0	247.37922477722168	
48	222.28299593925476	fix_post	2		12	46.0	2.5	/experiments/knapen_AOT/AOT_stimuli/rescaled_final/1309_rv.mp4	0.0	247.49588584899902	0.09993910789489746
49	222.38293504714966	fix_pre	0		120	47.0	2.5	/experiments/knapen_AOT/AOT_stimuli/rescaled_final/0904_fw.mp4	0.0	247.59582495689392	1.0001578330993652
49	223.38309288024902	movie	1		245	47.0	2.5	/experiments/knapen_AOT/AOT_stimuli/rescaled_final/0904_fw.mp4	0.0	248.5959827899933	2.4920871257781982
49	223.76731491088867	pulse	1	t		47.0	2.5	/experiments/knapen_AOT/AOT_stimuli/rescaled_final/0904_fw.mp4	0.0	248.98020482063293	
49	225.36694288253784	pulse	1	t		47.0	2.5	/experiments/knapen_AOT/AOT_stimuli/rescaled_final/0904_fw.mp4	0.0	250.5798327922821	
49	225.87518000602722	fix_post	2		12	47.0	2.5	/experiments/knapen_AOT/AOT_stimuli/rescaled_final/0904_fw.mp4	0.0	251.08806991577148	0.09997892379760742
50	225.97515892982483	fix_pre	0		120	48.0	2.5	/experiments/knapen_AOT/AOT_stimuli/rescaled_final/0985_rv.mp4	0.0	251.1880488395691	1.0001580715179443
50	226.96713399887085	pulse	0	t		48.0	2.5	/experiments/knapen_AOT/AOT_stimuli/rescaled_final/0985_rv.mp4	0.0	252.1800239086151	
50	226.97531700134277	movie	1		242	48.0	2.5	/experiments/knapen_AOT/AOT_stimuli/rescaled_final/0985_rv.mp4	0.0	252.18820691108704	2.5087339878082275
50	228.568265914917	pulse	1	t		48.0	2.5	/experiments/knapen_AOT/AOT_stimuli/rescaled_final/0985_rv.mp4	0.0	253.78115582466125	
50	229.484050989151	fix_post	2		12	48.0	2.5	/experiments/knapen_AOT/AOT_stimuli/rescaled_final/0985_rv.mp4	0.0	254.69694089889526	0.09999585151672363
51	229.58404684066772	fix_pre	0		120	49.0	2.5	blank	1.0	254.796936750412	1.0001611709594727
51	230.160306930542	pulse	0	t		49.0	2.5	blank	1.0	255.37319684028625	
51	230.5842080116272	movie	1		300	49.0	2.5	blank	1.0	255.79709792137146	2.500422954559326
51	231.76042199134827	pulse	1	t		49.0	2.5	blank	1.0	256.97331190109253	
51	233.08463096618652	fix_post	2		12	49.0	2.5	blank	1.0	258.2975208759308	0.0999140739440918
52	233.18454504013062	fix_pre	0		120	50.0	2.5	/experiments/knapen_AOT/AOT_stimuli/rescaled_final/1792_fw.mp4	0.0	258.3974349498749	1.000180959701538
52	233.36073994636536	pulse	0	t		50.0	2.5	/experiments/knapen_AOT/AOT_stimuli/rescaled_final/1792_fw.mp4	0.0	258.5736298561096	
52	234.18472599983215	movie	1		244	50.0	2.5	/experiments/knapen_AOT/AOT_stimuli/rescaled_final/1792_fw.mp4	0.0	259.3976159095764	2.500412940979004
52	234.96085000038147	pulse	1	t		50.0	2.5	/experiments/knapen_AOT/AOT_stimuli/rescaled_final/1792_fw.mp4	0.0	260.17373991012573	
52	236.5603630542755	pulse	1	t		50.0	2.5	/experiments/knapen_AOT/AOT_stimuli/rescaled_final/1792_fw.mp4	0.0	261.7732529640198	
52	236.68513894081116	fix_post	2		12	50.0	2.5	/experiments/knapen_AOT/AOT_stimuli/rescaled_final/1792_fw.mp4	0.0	261.8980288505554	0.09993791580200195
53	236.78507685661316	fix_pre	0		120	51.0	2.5	/experiments/knapen_AOT/AOT_stimuli/rescaled_final/0653_rv.mp4	0.0	261.9979667663574	1.0002131462097168
53	237.78529000282288	movie	1		243	51.0	2.5	/experiments/knapen_AOT/AOT_stimuli/rescaled_final/0653_rv.mp4	0.0	262.99817991256714	2.4920589923858643
53	238.1605200767517	pulse	1	t		51.0	2.5	/experiments/knapen_AOT/AOT_stimuli/rescaled_final/0653_rv.mp4	0.0	263.373409986496	
53	239.76088190078735	pulse	1	t		51.0	2.5	/experiments/knapen_AOT/AOT_stimuli/rescaled_final/0653_rv.mp4	0.0	264.9737718105316	
53	240.27734899520874	fix_post	2		12	51.0	2.5	/experiments/knapen_AOT/AOT_stimuli/rescaled_final/0653_rv.mp4	0.0	265.490238904953	0.10007405281066895
54	240.3774230480194	fix_pre	0		119	52.0	2.5	/experiments/knapen_AOT/AOT_stimuli/rescaled_final/2044_rv.mp4	0.0	265.5903129577637	0.9917268753051758
54	241.36096787452698	pulse	0	t		52.0	2.5	/experiments/knapen_AOT/AOT_stimuli/rescaled_final/2044_rv.mp4	0.0	266.57385778427124	
54	241.36914992332458	movie	1		245	52.0	2.5	/experiments/knapen_AOT/AOT_stimuli/rescaled_final/2044_rv.mp4	0.0	266.58203983306885	2.5086939334869385
54	242.9617109298706	pulse	1	t		52.0	2.5	/experiments/knapen_AOT/AOT_stimuli/rescaled_final/2044_rv.mp4	0.0	268.17460083961487	
54	243.87784385681152	fix_post	2		12	52.0	2.5	/experiments/knapen_AOT/AOT_stimuli/rescaled_final/2044_rv.mp4	0.0	269.0907337665558	0.0999901294708252
55	243.97783398628235	fix_pre	0		120	53.0	2.5	/experiments/knapen_AOT/AOT_stimuli/rescaled_final/1399_fw.mp4	0.0	269.1907238960266	1.0001580715179443
55	244.56153297424316	pulse	0	t		53.0	2.5	/experiments/knapen_AOT/AOT_stimuli/rescaled_final/1399_fw.mp4	0.0	269.7744228839874	
55	244.9779920578003	movie	1		245	53.0	2.5	/experiments/knapen_AOT/AOT_stimuli/rescaled_final/1399_fw.mp4	0.0	270.19088196754456	2.5003929138183594
55	246.16178393363953	pulse	1	t		53.0	2.5	/experiments/knapen_AOT/AOT_stimuli/rescaled_final/1399_fw.mp4	0.0	271.3746738433838	
55	247.47838497161865	fix_post	2		12	53.0	2.5	/experiments/knapen_AOT/AOT_stimuli/rescaled_final/1399_fw.mp4	0.0	272.6912748813629	0.10000109672546387
56	247.57838606834412	fix_pre	0		120	54.0	2.5	blank	1.0	272.7912759780884	1.0002079010009766
56	247.76190400123596	pulse	0	t		54.0	2.5	blank	1.0	272.9747939109802	
56	248.5785939693451	movie	1		300	54.0	2.5	blank	1.0	273.79148387908936	2.500322103500366
56	249.36215996742249	pulse	1	t		54.0	2.5	blank	1.0	274.57504987716675	
56	250.96249198913574	pulse	1	t		54.0	2.5	blank	1.0	276.17538189888	
56	251.07891607284546	fix_post	2		12	54.0	2.5	blank	1.0	276.2918059825897	0.10003995895385742
57	251.17895603179932	fix_pre	0		120	55.0	2.5	/experiments/knapen_AOT/AOT_stimuli/rescaled_final/2017_rv.mp4	0.0	276.3918459415436	1.0001280307769775
57	252.1790840625763	movie	1		244	55.0	2.5	/experiments/knapen_AOT/AOT_stimuli/rescaled_final/2017_rv.mp4	0.0	277.39197397232056	2.4920358657836914
57	252.56387400627136	pulse	1	t		55.0	2.5	/experiments/knapen_AOT/AOT_stimuli/rescaled_final/2017_rv.mp4	0.0	277.7767639160156	
57	254.16297698020935	pulse	1	t		55.0	2.5	/experiments/knapen_AOT/AOT_stimuli/rescaled_final/2017_rv.mp4	0.0	279.3758668899536	
57	254.67111992835999	fix_post	2		12	55.0	2.5	/experiments/knapen_AOT/AOT_stimuli/rescaled_final/2017_rv.mp4	0.0	279.88400983810425	0.09999394416809082
58	254.77111387252808	fix_pre	0		120	56.0	2.5	/experiments/knapen_AOT/AOT_stimuli/rescaled_final/0704_fw.mp4	0.0	279.98400378227234	1.0001680850982666
58	255.76321291923523	pulse	0	t		56.0	2.5	/experiments/knapen_AOT/AOT_stimuli/rescaled_final/0704_fw.mp4	0.0	280.9761028289795	
58	255.77128195762634	movie	1		246	56.0	2.5	/experiments/knapen_AOT/AOT_stimuli/rescaled_final/0704_fw.mp4	0.0	280.9841718673706	2.508697986602783
58	257.3643569946289	pulse	1	t		56.0	2.5	/experiments/knapen_AOT/AOT_stimuli/rescaled_final/0704_fw.mp4	0.0	282.57724690437317	
58	258.2799799442291	fix_post	2		12	56.0	2.5	/experiments/knapen_AOT/AOT_stimuli/rescaled_final/0704_fw.mp4	0.0	283.4928698539734	0.1000211238861084
59	258.38000106811523	fix_pre	0		120	57.0	2.5	/experiments/knapen_AOT/AOT_stimuli/rescaled_final/1909_fw.mp4	0.0	283.5928909778595	1.0001177787780762
59	258.9637088775635	pulse	0	t		57.0	2.5	/experiments/knapen_AOT/AOT_stimuli/rescaled_final/1909_fw.mp4	0.0	284.17659878730774	
59	259.3801188468933	movie	1		245	57.0	2.5	/experiments/knapen_AOT/AOT_stimuli/rescaled_final/1909_fw.mp4	0.0	284.5930087566376	2.5004191398620605
59	260.564013004303	pulse	1	t		57.0	2.5	/experiments/knapen_AOT/AOT_stimuli/rescaled_final/1909_fw.mp4	0.0	285.77690291404724	
59	261.88053798675537	fix_post	2		12	57.0	2.5	/experiments/knapen_AOT/AOT_stimuli/rescaled_final/1909_fw.mp4	0.0	287.09342789649963	0.09998607635498047
60	261.98052406311035	fix_pre	0		120	58.0	2.5	/experiments/knapen_AOT/AOT_stimuli/rescaled_final/0516_rv.mp4	0.0	287.1934139728546	1.0001709461212158
60	262.1640889644623	pulse	0	t		58.0	2.5	/experiments/knapen_AOT/AOT_stimuli/rescaled_final/0516_rv.mp4	0.0	287.37697887420654	
60	262.98069500923157	movie	1		244	58.0	2.5	/experiments/knapen_AOT/AOT_stimuli/rescaled_final/0516_rv.mp4	0.0	288.19358491897583	2.5003950595855713
60	263.7644200325012	pulse	1	t		58.0	2.5	/experiments/knapen_AOT/AOT_stimuli/rescaled_final/0516_rv.mp4	0.0	288.9773099422455	
60	265.3645989894867	pulse	1	t		58.0	2.5	/experiments/knapen_AOT/AOT_stimuli/rescaled_final/0516_rv.mp4	0.0	290.57748889923096	
60	265.48109006881714	fix_post	2		12	58.0	2.5	/experiments/knapen_AOT/AOT_stimuli/rescaled_final/0516_rv.mp4	0.0	290.6939799785614	0.09995293617248535
61	265.5810430049896	fix_pre	0		120	59.0	2.5	/experiments/knapen_AOT/AOT_stimuli/rescaled_final/0941_fw.mp4	0.0	290.7939329147339	1.0002188682556152
61	266.58126187324524	movie	1		245	59.0	2.5	/experiments/knapen_AOT/AOT_stimuli/rescaled_final/0941_fw.mp4	0.0	291.7941517829895	2.492009162902832
61	266.96526193618774	pulse	1	t		59.0	2.5	/experiments/knapen_AOT/AOT_stimuli/rescaled_final/0941_fw.mp4	0.0	292.178151845932	
61	268.56511402130127	pulse	1	t		59.0	2.5	/experiments/knapen_AOT/AOT_stimuli/rescaled_final/0941_fw.mp4	0.0	293.77800393104553	
61	269.07327103614807	fix_post	2		12	59.0	2.5	/experiments/knapen_AOT/AOT_stimuli/rescaled_final/0941_fw.mp4	0.0	294.28616094589233	0.10001802444458008
62	269.17328906059265	fix_pre	0		120	60.0	2.5	/experiments/knapen_AOT/AOT_stimuli/rescaled_final/0009_fw.mp4	0.0	294.3861789703369	1.0001468658447266
62	270.1652629375458	pulse	0	t		60.0	2.5	/experiments/knapen_AOT/AOT_stimuli/rescaled_final/0009_fw.mp4	0.0	295.37815284729004	
62	270.1734359264374	movie	1		245	60.0	2.5	/experiments/knapen_AOT/AOT_stimuli/rescaled_final/0009_fw.mp4	0.0	295.38632583618164	2.5087289810180664
62	271.76707887649536	pulse	1	t		60.0	2.5	/experiments/knapen_AOT/AOT_stimuli/rescaled_final/0009_fw.mp4	0.0	296.9799687862396	
62	272.68216490745544	fix_post	2		12	60.0	2.5	/experiments/knapen_AOT/AOT_stimuli/rescaled_final/0009_fw.mp4	0.0	297.8950548171997	0.09997701644897461
63	272.7821419239044	fix_pre	0		120	61.0	2.5	blank	1.0	297.9950318336487	1.000154972076416
63	273.365895986557	pulse	0	t		61.0	2.5	blank	1.0	298.57878589630127	
63	273.78229689598083	movie	1		300	61.0	2.5	blank	1.0	298.9951868057251	2.5003859996795654
63	274.9660339355469	pulse	1	t		61.0	2.5	blank	1.0	300.17892384529114	
63	276.2826828956604	fix_post	2		12	61.0	2.5	blank	1.0	301.49557280540466	0.09999513626098633
64	276.3826780319214	fix_pre	0		120	62.0	2.5	/experiments/knapen_AOT/AOT_stimuli/rescaled_final/2170_rv.mp4	0.0	301.59556794166565	1.0001428127288818
64	276.5662798881531	pulse	0	t		62.0	2.5	/experiments/knapen_AOT/AOT_stimuli/rescaled_final/2170_rv.mp4	0.0	301.77916979789734	
64	277.38282084465027	movie	1		244	62.0	2.5	/experiments/knapen_AOT/AOT_stimuli/rescaled_final/2170_rv.mp4	0.0	302.59571075439453	2.500394105911255
64	278.16648507118225	pulse	1	t		62.0	2.5	/experiments/knapen_AOT/AOT_stimuli/rescaled_final/2170_rv.mp4	0.0	303.3793749809265	
64	279.7669289112091	pulse	1	t		62.0	2.5	/experiments/knapen_AOT/AOT_stimuli/rescaled_final/2170_rv.mp4	0.0	304.97981882095337	
64	279.8832149505615	fix_post	2		12	62.0	2.5	/experiments/knapen_AOT/AOT_stimuli/rescaled_final/2170_rv.mp4	0.0	305.0961048603058	0.0999751091003418
65	279.98319005966187	fix_pre	0		120	63.0	2.5	/experiments/knapen_AOT/AOT_stimuli/rescaled_final/0623_fw.mp4	0.0	305.1960799694061	1.0001897811889648
65	280.98337984085083	movie	1		242	63.0	2.5	/experiments/knapen_AOT/AOT_stimuli/rescaled_final/0623_fw.mp4	0.0	306.1962697505951	2.4920151233673096
65	281.3666789531708	pulse	1	t		63.0	2.5	/experiments/knapen_AOT/AOT_stimuli/rescaled_final/0623_fw.mp4	0.0	306.57956886291504	
65	282.9671700000763	pulse	1	t		63.0	2.5	/experiments/knapen_AOT/AOT_stimuli/rescaled_final/0623_fw.mp4	0.0	308.18005990982056	
65	283.47539496421814	fix_post	2		12	63.0	2.5	/experiments/knapen_AOT/AOT_stimuli/rescaled_final/0623_fw.mp4	0.0	308.6882848739624	0.10004806518554688
66	283.5754430294037	fix_pre	0		120	64.0	2.5	/experiments/knapen_AOT/AOT_stimuli/rescaled_final/0335_fw.mp4	0.0	308.78833293914795	1.0001389980316162
66	284.56746792793274	pulse	0	t		64.0	2.5	/experiments/knapen_AOT/AOT_stimuli/rescaled_final/0335_fw.mp4	0.0	309.780357837677	
66	284.5755820274353	movie	1		245	64.0	2.5	/experiments/knapen_AOT/AOT_stimuli/rescaled_final/0335_fw.mp4	0.0	309.78847193717957	2.508718967437744
66	286.1682200431824	pulse	1	t		64.0	2.5	/experiments/knapen_AOT/AOT_stimuli/rescaled_final/0335_fw.mp4	0.0	311.38110995292664	
66	287.08430099487305	fix_post	2		12	64.0	2.5	/experiments/knapen_AOT/AOT_stimuli/rescaled_final/0335_fw.mp4	0.0	312.2971909046173	0.09997701644897461
67	287.184278011322	fix_pre	0		118	65.0	2.5	/experiments/knapen_AOT/AOT_stimuli/rescaled_final/0335_rv.mp4	0.0	312.3971679210663	1.000195026397705
67	287.76798701286316	pulse	0	t		65.0	2.5	/experiments/knapen_AOT/AOT_stimuli/rescaled_final/0335_rv.mp4	0.0	312.9808769226074	
67	288.1844730377197	movie	1		244	65.0	2.5	/experiments/knapen_AOT/AOT_stimuli/rescaled_final/0335_rv.mp4	0.0	313.397362947464	2.5003559589385986
67	289.3609700202942	pulse	1	t		65.0	2.5	/experiments/knapen_AOT/AOT_stimuli/rescaled_final/0335_rv.mp4	0.0	314.57385993003845	
67	290.6848289966583	fix_post	2		12	65.0	2.5	/experiments/knapen_AOT/AOT_stimuli/rescaled_final/0335_rv.mp4	0.0	315.8977189064026	0.10000801086425781
68	290.7848370075226	fix_pre	0		120	66.0	2.5	/experiments/knapen_AOT/AOT_stimuli/rescaled_final/0652_rv.mp4	0.0	315.99772691726685	1.0001740455627441
68	290.9608690738678	pulse	0	t		66.0	2.5	/experiments/knapen_AOT/AOT_stimuli/rescaled_final/0652_rv.mp4	0.0	316.17375898361206	
68	291.7850110530853	movie	1		244	66.0	2.5	/experiments/knapen_AOT/AOT_stimuli/rescaled_final/0652_rv.mp4	0.0	316.9979009628296	2.500351905822754
68	292.56123995780945	pulse	1	t		66.0	2.5	/experiments/knapen_AOT/AOT_stimuli/rescaled_final/0652_rv.mp4	0.0	317.7741298675537	
68	294.1690480709076	pulse	1	t		66.0	2.5	/experiments/knapen_AOT/AOT_stimuli/rescaled_final/0652_rv.mp4	0.0	319.38193798065186	
68	294.2853629589081	fix_post	2		12	66.0	2.5	/experiments/knapen_AOT/AOT_stimuli/rescaled_final/0652_rv.mp4	0.0	319.49825286865234	0.09996604919433594
69	294.3853290081024	fix_pre	0		120	67.0	2.5	/experiments/knapen_AOT/AOT_stimuli/rescaled_final/0453_rv.mp4	0.0	319.5982189178467	1.0002050399780273
69	295.38553404808044	movie	1		244	67.0	2.5	/experiments/knapen_AOT/AOT_stimuli/rescaled_final/0453_rv.mp4	0.0	320.5984239578247	2.4920599460601807
69	295.76079201698303	pulse	1	t		67.0	2.5	/experiments/knapen_AOT/AOT_stimuli/rescaled_final/0453_rv.mp4	0.0	320.9736819267273	
69	297.36107087135315	pulse	1	t		67.0	2.5	/experiments/knapen_AOT/AOT_stimuli/rescaled_final/0453_rv.mp4	0.0	322.5739607810974	
69	297.8775939941406	fix_post	2		12	67.0	2.5	/experiments/knapen_AOT/AOT_stimuli/rescaled_final/0453_rv.mp4	0.0	323.0904839038849	0.09994387626647949
70	297.9775378704071	fix_pre	0		119	68.0	2.5	blank	1.0	323.19042778015137	0.9918529987335205
70	298.9612469673157	pulse	0	t		68.0	2.5	blank	1.0	324.17413687705994	
70	298.9693908691406	movie	1		301	68.0	2.5	blank	1.0	324.1822807788849	2.5087320804595947
70	300.5614960193634	pulse	1	t		68.0	2.5	blank	1.0	325.77438592910767	
70	301.4781229496002	fix_post	2		12	68.0	2.5	blank	1.0	326.6910128593445	0.10000205039978027
71	301.578125	fix_pre	0		120	69.0	2.5	/experiments/knapen_AOT/AOT_stimuli/rescaled_final/2017_fw.mp4	0.0	326.79101490974426	1.0000948905944824
71	302.16181206703186	pulse	0	t		69.0	2.5	/experiments/knapen_AOT/AOT_stimuli/rescaled_final/2017_fw.mp4	0.0	327.3747019767761	
71	302.5782198905945	movie	1		245	69.0	2.5	/experiments/knapen_AOT/AOT_stimuli/rescaled_final/2017_fw.mp4	0.0	327.79110980033875	2.5004279613494873
71	303.7620539665222	pulse	1	t		69.0	2.5	/experiments/knapen_AOT/AOT_stimuli/rescaled_final/2017_fw.mp4	0.0	328.9749438762665	
71	305.07864785194397	fix_post	2		12	69.0	2.5	/experiments/knapen_AOT/AOT_stimuli/rescaled_final/2017_fw.mp4	0.0	330.29153776168823	0.1000511646270752
72	305.17869901657104	fix_pre	0		120	70.0	2.5	/experiments/knapen_AOT/AOT_stimuli/rescaled_final/0721_rv.mp4	0.0	330.3915889263153	1.0001518726348877
72	305.36219096183777	pulse	0	t		70.0	2.5	/experiments/knapen_AOT/AOT_stimuli/rescaled_final/0721_rv.mp4	0.0	330.57508087158203	
72	306.17885088920593	movie	1		249	70.0	2.5	/experiments/knapen_AOT/AOT_stimuli/rescaled_final/0721_rv.mp4	0.0	331.3917407989502	2.50034499168396
72	306.96249985694885	pulse	1	t		70.0	2.5	/experiments/knapen_AOT/AOT_stimuli/rescaled_final/0721_rv.mp4	0.0	332.1753897666931	
72	308.5626709461212	pulse	1	t		70.0	2.5	/experiments/knapen_AOT/AOT_stimuli/rescaled_final/0721_rv.mp4	0.0	333.7755608558655	
72	308.6791958808899	fix_post	2		12	70.0	2.5	/experiments/knapen_AOT/AOT_stimuli/rescaled_final/0721_rv.mp4	0.0	333.89208579063416	0.0999910831451416
73	308.77918696403503	fix_pre	0		120	71.0	2.5	/experiments/knapen_AOT/AOT_stimuli/rescaled_final/0859_fw.mp4	0.0	333.9920768737793	1.0001299381256104
73	309.77931690216064	movie	1		243	71.0	2.5	/experiments/knapen_AOT/AOT_stimuli/rescaled_final/0859_fw.mp4	0.0	334.9922068119049	2.4920740127563477
73	310.164263010025	pulse	1	t		71.0	2.5	/experiments/knapen_AOT/AOT_stimuli/rescaled_final/0859_fw.mp4	0.0	335.3771529197693	
73	311.7631850242615	pulse	1	t		71.0	2.5	/experiments/knapen_AOT/AOT_stimuli/rescaled_final/0859_fw.mp4	0.0	336.97607493400574	
73	312.271390914917	fix_post	2		12	71.0	2.5	/experiments/knapen_AOT/AOT_stimuli/rescaled_final/0859_fw.mp4	0.0	337.48428082466125	0.09998202323913574
74	312.3713729381561	fix_pre	0		120	72.0	2.5	/experiments/knapen_AOT/AOT_stimuli/rescaled_final/1270_rv.mp4	0.0	337.5842628479004	1.0001530647277832
74	313.3634729385376	pulse	0	t		72.0	2.5	/experiments/knapen_AOT/AOT_stimuli/rescaled_final/1270_rv.mp4	0.0	338.57636284828186	
74	313.3715260028839	movie	1		246	72.0	2.5	/experiments/knapen_AOT/AOT_stimuli/rescaled_final/1270_rv.mp4	0.0	338.5844159126282	2.5087969303131104
74	314.96493792533875	pulse	1	t		72.0	2.5	/experiments/knapen_AOT/AOT_stimuli/rescaled_final/1270_rv.mp4	0.0	340.177827835083	
74	315.880322933197	fix_post	2		12	72.0	2.5	/experiments/knapen_AOT/AOT_stimuli/rescaled_final/1270_rv.mp4	0.0	341.0932128429413	0.10004806518554688
75	315.98037099838257	fix_pre	0		120	73.0	2.5	/experiments/knapen_AOT/AOT_stimuli/rescaled_final/1493_rv.mp4	0.0	341.19326090812683	1.0000860691070557
75	316.5638618469238	pulse	0	t		73.0	2.5	/experiments/knapen_AOT/AOT_stimuli/rescaled_final/1493_rv.mp4	0.0	341.7767517566681	
75	316.9804570674896	movie	1		245	73.0	2.5	/experiments/knapen_AOT/AOT_stimuli/rescaled_final/1493_rv.mp4	0.0	342.1933469772339	2.5003528594970703
75	318.1641938686371	pulse	1	t		73.0	2.5	/experiments/knapen_AOT/AOT_stimuli/rescaled_final/1493_rv.mp4	0.0	343.37708377838135	
75	319.4808099269867	fix_post	2		12	73.0	2.5	/experiments/knapen_AOT/AOT_stimuli/rescaled_final/1493_rv.mp4	0.0	344.69369983673096	0.10001611709594727
76	319.58082604408264	fix_pre	0		120	74.0	2.5	/experiments/knapen_AOT/AOT_stimuli/rescaled_final/1839_rv.mp4	0.0	344.7937159538269	1.0001378059387207
76	319.76442790031433	pulse	0	t		74.0	2.5	/experiments/knapen_AOT/AOT_stimuli/rescaled_final/1839_rv.mp4	0.0	344.9773178100586	
76	320.58096385002136	movie	1		244	74.0	2.5	/experiments/knapen_AOT/AOT_stimuli/rescaled_final/1839_rv.mp4	0.0	345.7938537597656	2.5003740787506104
76	321.36465787887573	pulse	1	t		74.0	2.5	/experiments/knapen_AOT/AOT_stimuli/rescaled_final/1839_rv.mp4	0.0	346.57754778862	
76	322.9649920463562	pulse	1	t		74.0	2.5	/experiments/knapen_AOT/AOT_stimuli/rescaled_final/1839_rv.mp4	0.0	348.17788195610046	
76	323.081337928772	fix_post	2		12	74.0	2.5	/experiments/knapen_AOT/AOT_stimuli/rescaled_final/1839_rv.mp4	0.0	348.29422783851624	0.09996891021728516
77	323.18130683898926	fix_pre	0		120	75.0	2.5	/experiments/knapen_AOT/AOT_stimuli/rescaled_final/0022_rv.mp4	0.0	348.3941967487335	1.0001640319824219
77	324.1814708709717	movie	1		245	75.0	2.5	/experiments/knapen_AOT/AOT_stimuli/rescaled_final/0022_rv.mp4	0.0	349.39436078071594	2.4921231269836426
77	324.5656509399414	pulse	1	t		75.0	2.5	/experiments/knapen_AOT/AOT_stimuli/rescaled_final/0022_rv.mp4	0.0	349.77854084968567	
77	326.16541504859924	pulse	1	t		75.0	2.5	/experiments/knapen_AOT/AOT_stimuli/rescaled_final/0022_rv.mp4	0.0	351.3783049583435	
77	326.6735939979553	fix_post	2		12	75.0	2.5	/experiments/knapen_AOT/AOT_stimuli/rescaled_final/0022_rv.mp4	0.0	351.8864839076996	0.09995484352111816
78	326.77354884147644	fix_pre	0		120	76.0	2.5	/experiments/knapen_AOT/AOT_stimuli/rescaled_final/0801_fw.mp4	0.0	351.9864387512207	1.0001652240753174
78	327.76560497283936	pulse	0	t		76.0	2.5	/experiments/knapen_AOT/AOT_stimuli/rescaled_final/0801_fw.mp4	0.0	352.9784948825836	
78	327.77371406555176	movie	1		246	76.0	2.5	/experiments/knapen_AOT/AOT_stimuli/rescaled_final/0801_fw.mp4	0.0	352.986603975296	2.5086519718170166
78	329.3661069869995	pulse	1	t		76.0	2.5	/experiments/knapen_AOT/AOT_stimuli/rescaled_final/0801_fw.mp4	0.0	354.5789968967438	
78	330.2823660373688	fix_post	2		12	76.0	2.5	/experiments/knapen_AOT/AOT_stimuli/rescaled_final/0801_fw.mp4	0.0	355.49525594711304	0.10001087188720703
79	330.382376909256	fix_pre	0		120	77.0	2.5	blank	1.0	355.59526681900024	1.0002131462097168
79	330.96599197387695	pulse	0	t		77.0	2.5	blank	1.0	356.1788818836212	
79	331.3825900554657	movie	1		300	77.0	2.5	blank	1.0	356.59547996520996	2.5003318786621094
79	332.5662930011749	pulse	1	t		77.0	2.5	blank	1.0	357.7791829109192	
79	333.8829219341278	fix_post	2		12	77.0	2.5	blank	1.0	359.09581184387207	0.10001492500305176
80	333.98293685913086	fix_pre	0		120	78.0	2.5	/experiments/knapen_AOT/AOT_stimuli/rescaled_final/0113_rv.mp4	0.0	359.1958267688751	1.000133991241455
80	334.16657304763794	pulse	0	t		78.0	2.5	/experiments/knapen_AOT/AOT_stimuli/rescaled_final/0113_rv.mp4	0.0	359.3794629573822	
80	334.9830708503723	movie	1		245	78.0	2.5	/experiments/knapen_AOT/AOT_stimuli/rescaled_final/0113_rv.mp4	0.0	360.1959607601166	2.5003662109375
80	335.76680302619934	pulse	1	t		78.0	2.5	/experiments/knapen_AOT/AOT_stimuli/rescaled_final/0113_rv.mp4	0.0	360.9796929359436	
80	337.3670380115509	pulse	1	t		78.0	2.5	/experiments/knapen_AOT/AOT_stimuli/rescaled_final/0113_rv.mp4	0.0	362.57992792129517	
80	337.4834370613098	fix_post	2		12	78.0	2.5	/experiments/knapen_AOT/AOT_stimuli/rescaled_final/0113_rv.mp4	0.0	362.6963269710541	0.10000395774841309
81	337.5834410190582	fix_pre	0		120	79.0	2.5	/experiments/knapen_AOT/AOT_stimuli/rescaled_final/2038_rv.mp4	0.0	362.7963309288025	1.0001728534698486
81	338.5836138725281	movie	1		246	79.0	2.5	/experiments/knapen_AOT/AOT_stimuli/rescaled_final/2038_rv.mp4	0.0	363.79650378227234	2.4920690059661865
81	338.9678409099579	pulse	1	t		79.0	2.5	/experiments/knapen_AOT/AOT_stimuli/rescaled_final/2038_rv.mp4	0.0	364.18073081970215	
81	340.56750893592834	pulse	1	t		79.0	2.5	/experiments/knapen_AOT/AOT_stimuli/rescaled_final/2038_rv.mp4	0.0	365.7803988456726	
81	341.07568287849426	fix_post	2		12	79.0	2.5	/experiments/knapen_AOT/AOT_stimuli/rescaled_final/2038_rv.mp4	0.0	366.2885727882385	0.10004115104675293
82	341.175724029541	fix_pre	0		120	80.0	2.5	/experiments/knapen_AOT/AOT_stimuli/rescaled_final/0322_rv.mp4	0.0	366.3886139392853	1.0001468658447266
82	342.1678059101105	pulse	0	t		80.0	2.5	/experiments/knapen_AOT/AOT_stimuli/rescaled_final/0322_rv.mp4	0.0	367.38069581985474	
82	342.17587089538574	movie	1		251	80.0	2.5	/experiments/knapen_AOT/AOT_stimuli/rescaled_final/0322_rv.mp4	0.0	367.38876080513	2.5086820125579834
82	343.76839900016785	pulse	1	t		80.0	2.5	/experiments/knapen_AOT/AOT_stimuli/rescaled_final/0322_rv.mp4	0.0	368.9812889099121	
82	344.6845529079437	fix_post	2		12	80.0	2.5	/experiments/knapen_AOT/AOT_stimuli/rescaled_final/0322_rv.mp4	0.0	369.897442817688	0.09999513626098633
83	344.7845480442047	fix_pre	0		120	81.0	2.5	/experiments/knapen_AOT/AOT_stimuli/rescaled_final/1115_rv.mp4	0.0	369.997437953949	1.000190019607544
83	345.36065196990967	pulse	0	t		81.0	2.5	/experiments/knapen_AOT/AOT_stimuli/rescaled_final/1115_rv.mp4	0.0	370.57354187965393	
83	345.78473806381226	movie	1		241	81.0	2.5	/experiments/knapen_AOT/AOT_stimuli/rescaled_final/1115_rv.mp4	0.0	370.9976279735565	2.500347852706909
83	346.96132707595825	pulse	1	t		81.0	2.5	/experiments/knapen_AOT/AOT_stimuli/rescaled_final/1115_rv.mp4	0.0	372.1742169857025	
83	348.28508591651917	fix_post	2		12	81.0	2.5	/experiments/knapen_AOT/AOT_stimuli/rescaled_final/1115_rv.mp4	0.0	373.4979758262634	0.10001397132873535
84	348.3850998878479	fix_pre	0		120	82.0	2.5	/experiments/knapen_AOT/AOT_stimuli/rescaled_final/0403_rv.mp4	0.0	373.59798979759216	1.0001139640808105
84	348.56115984916687	pulse	0	t		82.0	2.5	/experiments/knapen_AOT/AOT_stimuli/rescaled_final/0403_rv.mp4	0.0	373.77404975891113	
84	349.3852138519287	movie	1		245	82.0	2.5	/experiments/knapen_AOT/AOT_stimuli/rescaled_final/0403_rv.mp4	0.0	374.598103761673	2.5004570484161377
84	350.16065096855164	pulse	1	t		82.0	2.5	/experiments/knapen_AOT/AOT_stimuli/rescaled_final/0403_rv.mp4	0.0	375.3735408782959	
84	351.7608869075775	pulse	1	t		82.0	2.5	/experiments/knapen_AOT/AOT_stimuli/rescaled_final/0403_rv.mp4	0.0	376.9737768173218	
84	351.88567090034485	fix_post	2		12	82.0	2.5	/experiments/knapen_AOT/AOT_stimuli/rescaled_final/0403_rv.mp4	0.0	377.0985608100891	0.09999394416809082
85	351.98566484451294	fix_pre	0		120	83.0	2.5	blank	1.0	377.1985547542572	1.0000932216644287
85	352.98575806617737	movie	1		299	83.0	2.5	blank	1.0	378.19864797592163	2.492064952850342
85	353.3609809875488	pulse	1	t		83.0	2.5	blank	1.0	378.5738708972931	
85	354.961238861084	pulse	1	t		83.0	2.5	blank	1.0	380.17412877082825	
85	355.4778230190277	fix_post	2		12	83.0	2.5	blank	1.0	380.690712928772	0.10000896453857422
87	355.5778319835663	stim	0		1716					380.79072189331055	14.302214860916138
87	356.56157207489014	pulse	0	t						381.7744619846344	
87	358.16177797317505	pulse	0	t						383.3746678829193	
87	359.7619969844818	pulse	0	t						384.9748868942261	
87	361.3621940612793	pulse	0	t						386.57508397102356	
87	362.9624638557434	pulse	0	t						388.17535376548767	
87	364.56276392936707	pulse	0	t						389.7756538391113	
87	366.16297793388367	pulse	0	t						391.37586784362793	
87	367.76322197914124	pulse	0	t						392.9761118888855	
87	369.3634309768677	pulse	0	t						394.57632088661194	
