trial_nr	onset	event_type	phase	response	nr_frames	movie_index	movie_duration	movie_file	blank	onset_abs	duration
0	0.2165989875793457	stim	0		1					18.960429906845093	0.008347034454345703
0	0.20900607109069824	response	0	space						18.952836990356445	
1	0.2249460220336914	stim	0		4720					18.96877694129944	39.349539041519165
1	39.56450700759888	pulse	0	t						58.308337926864624	
1	39.574485063552856	stim	1		1715					58.3183159828186	14.300096035003662
1	41.14791202545166	pulse	1	t						59.89174294471741	
1	42.74800205230713	pulse	1	t						61.491832971572876	
1	44.349087953567505	pulse	1	t						63.09291887283325	
1	45.94865798950195	pulse	1	t						64.6924889087677	
1	47.54883694648743	pulse	1	t						66.29266786575317	
1	49.14902901649475	pulse	1	t						67.8928599357605	
1	50.74915814399719	pulse	1	t						69.49298906326294	
1	52.34955906867981	pulse	1	t						71.09338998794556	
2	53.87458109855652	fix_pre	0		10	0.0	2.5	/experiments/knapen_AOT/AOT_stimuli/rescaled_final/1349_fw.mp4	0.0	72.61841201782227	0.08332300186157227
2	53.950024127960205	pulse	0	t		0.0	2.5	/experiments/knapen_AOT/AOT_stimuli/rescaled_final/1349_fw.mp4	0.0	72.69385504722595	
2	53.95790410041809	movie	1		243	0.0	2.5	/experiments/knapen_AOT/AOT_stimuli/rescaled_final/1349_fw.mp4	0.0	72.70173501968384	2.508849859237671
2	55.551422119140625	pulse	1	t		0.0	2.5	/experiments/knapen_AOT/AOT_stimuli/rescaled_final/1349_fw.mp4	0.0	74.29525303840637	
2	56.46675395965576	fix_post	2		12	0.0	2.5	/experiments/knapen_AOT/AOT_stimuli/rescaled_final/1349_fw.mp4	0.0	75.21058487892151	0.09990501403808594
3	56.56665897369385	fix_pre	0		120	1.0	2.5	/experiments/knapen_AOT/AOT_stimuli/rescaled_final/2088_fw.mp4	0.0	75.3104898929596	1.000171184539795
3	57.150285959243774	pulse	0	t		1.0	2.5	/experiments/knapen_AOT/AOT_stimuli/rescaled_final/2088_fw.mp4	0.0	75.89411687850952	
3	57.56683015823364	movie	1		243	1.0	2.5	/experiments/knapen_AOT/AOT_stimuli/rescaled_final/2088_fw.mp4	0.0	76.31066107749939	2.5004348754882812
3	58.75055813789368	pulse	1	t		1.0	2.5	/experiments/knapen_AOT/AOT_stimuli/rescaled_final/2088_fw.mp4	0.0	77.49438905715942	
3	60.067265033721924	fix_post	2		12	1.0	2.5	/experiments/knapen_AOT/AOT_stimuli/rescaled_final/2088_fw.mp4	0.0	78.81109595298767	0.09991312026977539
4	60.1671781539917	fix_pre	0		120	2.0	2.5	/experiments/knapen_AOT/AOT_stimuli/rescaled_final/2015_fw.mp4	0.0	78.91100907325745	1.0002048015594482
4	60.350789070129395	pulse	0	t		2.0	2.5	/experiments/knapen_AOT/AOT_stimuli/rescaled_final/2015_fw.mp4	0.0	79.09461998939514	
4	61.16738295555115	movie	1		242	2.0	2.5	/experiments/knapen_AOT/AOT_stimuli/rescaled_final/2015_fw.mp4	0.0	79.9112138748169	2.500399112701416
4	61.950958013534546	pulse	1	t		2.0	2.5	/experiments/knapen_AOT/AOT_stimuli/rescaled_final/2015_fw.mp4	0.0	80.6947889328003	
4	63.55271601676941	pulse	1	t		2.0	2.5	/experiments/knapen_AOT/AOT_stimuli/rescaled_final/2015_fw.mp4	0.0	82.29654693603516	
4	63.66778206825256	fix_post	2		12	2.0	2.5	/experiments/knapen_AOT/AOT_stimuli/rescaled_final/2015_fw.mp4	0.0	82.41161298751831	0.09990787506103516
5	63.7676899433136	fix_pre	0		120	3.0	2.5	/experiments/knapen_AOT/AOT_stimuli/rescaled_final/0186_fw.mp4	0.0	82.51152086257935	1.000171184539795
5	64.7678611278534	movie	1		243	3.0	2.5	/experiments/knapen_AOT/AOT_stimuli/rescaled_final/0186_fw.mp4	0.0	83.51169204711914	2.5005078315734863
5	65.15274310112	pulse	1	t		3.0	2.5	/experiments/knapen_AOT/AOT_stimuli/rescaled_final/0186_fw.mp4	0.0	83.89657402038574	
5	66.75174808502197	pulse	1	t		3.0	2.5	/experiments/knapen_AOT/AOT_stimuli/rescaled_final/0186_fw.mp4	0.0	85.49557900428772	
5	67.26836895942688	fix_post	2		12	3.0	2.5	/experiments/knapen_AOT/AOT_stimuli/rescaled_final/0186_fw.mp4	0.0	86.01219987869263	0.09987711906433105
6	67.36824607849121	fix_pre	0		119	4.0	2.5	/experiments/knapen_AOT/AOT_stimuli/rescaled_final/0998_rv.mp4	0.0	86.11207699775696	0.9918968677520752
6	68.35189414024353	pulse	0	t		4.0	2.5	/experiments/knapen_AOT/AOT_stimuli/rescaled_final/0998_rv.mp4	0.0	87.09572505950928	
6	68.36014294624329	movie	1		244	4.0	2.5	/experiments/knapen_AOT/AOT_stimuli/rescaled_final/0998_rv.mp4	0.0	87.10397386550903	2.508613109588623
6	69.95270705223083	pulse	1	t		4.0	2.5	/experiments/knapen_AOT/AOT_stimuli/rescaled_final/0998_rv.mp4	0.0	88.69653797149658	
6	70.86875605583191	fix_post	2		12	4.0	2.5	/experiments/knapen_AOT/AOT_stimuli/rescaled_final/0998_rv.mp4	0.0	89.61258697509766	0.10004305839538574
7	70.9687991142273	fix_pre	0		120	5.0	2.5	blank	1.0	89.71263003349304	1.0001790523529053
7	71.55237293243408	pulse	0	t		5.0	2.5	blank	1.0	90.29620385169983	
7	71.9689781665802	movie	1		300	5.0	2.5	blank	1.0	90.71280908584595	2.5003488063812256
7	73.15267205238342	pulse	1	t		5.0	2.5	blank	1.0	91.89650297164917	
7	74.46932697296143	fix_post	2		12	5.0	2.5	blank	1.0	93.21315789222717	0.09999513626098633
8	74.56932210922241	fix_pre	0		120	6.0	2.5	/experiments/knapen_AOT/AOT_stimuli/rescaled_final/0765_fw.mp4	0.0	93.31315302848816	1.000133991241455
8	74.75286197662354	pulse	0	t		6.0	2.5	/experiments/knapen_AOT/AOT_stimuli/rescaled_final/0765_fw.mp4	0.0	93.49669289588928	
8	75.56945610046387	movie	1		240	6.0	2.5	/experiments/knapen_AOT/AOT_stimuli/rescaled_final/0765_fw.mp4	0.0	94.31328701972961	2.5003960132598877
8	76.3531379699707	pulse	1	t		6.0	2.5	/experiments/knapen_AOT/AOT_stimuli/rescaled_final/0765_fw.mp4	0.0	95.09696888923645	
8	77.9510440826416	pulse	1	t		6.0	2.5	/experiments/knapen_AOT/AOT_stimuli/rescaled_final/0765_fw.mp4	0.0	96.69487500190735	
8	78.06985211372375	fix_post	2		12	6.0	2.5	/experiments/knapen_AOT/AOT_stimuli/rescaled_final/0765_fw.mp4	0.0	96.8136830329895	0.10002589225769043
9	78.16987800598145	fix_pre	0		120	7.0	2.5	/experiments/knapen_AOT/AOT_stimuli/rescaled_final/0833_fw.mp4	0.0	96.91370892524719	1.0001521110534668
9	79.17003011703491	movie	1		241	7.0	2.5	/experiments/knapen_AOT/AOT_stimuli/rescaled_final/0833_fw.mp4	0.0	97.91386103630066	2.4920690059661865
9	79.5543270111084	pulse	1	t		7.0	2.5	/experiments/knapen_AOT/AOT_stimuli/rescaled_final/0833_fw.mp4	0.0	98.29815793037415	
9	81.15378499031067	pulse	1	t		7.0	2.5	/experiments/knapen_AOT/AOT_stimuli/rescaled_final/0833_fw.mp4	0.0	99.89761590957642	
9	81.6620991230011	fix_post	2		12	7.0	2.5	/experiments/knapen_AOT/AOT_stimuli/rescaled_final/0833_fw.mp4	0.0	100.40593004226685	0.09997391700744629
10	81.76207304000854	fix_pre	0		120	8.0	2.5	/experiments/knapen_AOT/AOT_stimuli/rescaled_final/1126_rv.mp4	0.0	100.50590395927429	1.0002000331878662
10	82.75406503677368	pulse	0	t		8.0	2.5	/experiments/knapen_AOT/AOT_stimuli/rescaled_final/1126_rv.mp4	0.0	101.49789595603943	
10	82.76227307319641	movie	1		245	8.0	2.5	/experiments/knapen_AOT/AOT_stimuli/rescaled_final/1126_rv.mp4	0.0	101.50610399246216	2.508665084838867
10	84.35482907295227	pulse	1	t		8.0	2.5	/experiments/knapen_AOT/AOT_stimuli/rescaled_final/1126_rv.mp4	0.0	103.09865999221802	
10	85.27093815803528	fix_post	2		12	8.0	2.5	/experiments/knapen_AOT/AOT_stimuli/rescaled_final/1126_rv.mp4	0.0	104.01476907730103	0.10007977485656738
11	85.37101793289185	fix_pre	0		120	9.0	2.5	/experiments/knapen_AOT/AOT_stimuli/rescaled_final/1877_rv.mp4	0.0	104.11484885215759	1.0001580715179443
11	85.95455813407898	pulse	0	t		9.0	2.5	/experiments/knapen_AOT/AOT_stimuli/rescaled_final/1877_rv.mp4	0.0	104.69838905334473	
11	86.37117600440979	movie	1		243	9.0	2.5	/experiments/knapen_AOT/AOT_stimuli/rescaled_final/1877_rv.mp4	0.0	105.11500692367554	2.5004029273986816
11	87.55486011505127	pulse	1	t		9.0	2.5	/experiments/knapen_AOT/AOT_stimuli/rescaled_final/1877_rv.mp4	0.0	106.29869103431702	
11	88.87157893180847	fix_post	2		12	9.0	2.5	/experiments/knapen_AOT/AOT_stimuli/rescaled_final/1877_rv.mp4	0.0	107.61540985107422	0.09992814064025879
12	88.97150707244873	fix_pre	0		120	10.0	2.5	/experiments/knapen_AOT/AOT_stimuli/rescaled_final/0910_rv.mp4	0.0	107.71533799171448	1.0000989437103271
12	89.15512013435364	pulse	0	t		10.0	2.5	/experiments/knapen_AOT/AOT_stimuli/rescaled_final/0910_rv.mp4	0.0	107.89895105361938	
12	89.97160601615906	movie	1		242	10.0	2.5	/experiments/knapen_AOT/AOT_stimuli/rescaled_final/0910_rv.mp4	0.0	108.7154369354248	2.500446081161499
12	90.75533699989319	pulse	1	t		10.0	2.5	/experiments/knapen_AOT/AOT_stimuli/rescaled_final/0910_rv.mp4	0.0	109.49916791915894	
12	92.35643601417542	pulse	1	t		10.0	2.5	/experiments/knapen_AOT/AOT_stimuli/rescaled_final/0910_rv.mp4	0.0	111.10026693344116	
12	92.47205209732056	fix_post	2		12	10.0	2.5	/experiments/knapen_AOT/AOT_stimuli/rescaled_final/0910_rv.mp4	0.0	111.2158830165863	0.09998393058776855
13	92.57203602790833	fix_pre	0		120	11.0	2.5	/experiments/knapen_AOT/AOT_stimuli/rescaled_final/0703_fw.mp4	0.0	111.31586694717407	1.0001299381256104
13	93.57216596603394	movie	1		242	11.0	2.5	/experiments/knapen_AOT/AOT_stimuli/rescaled_final/0703_fw.mp4	0.0	112.31599688529968	2.492238998413086
13	93.95634412765503	pulse	1	t		11.0	2.5	/experiments/knapen_AOT/AOT_stimuli/rescaled_final/0703_fw.mp4	0.0	112.70017504692078	
13	95.54866313934326	pulse	1	t		11.0	2.5	/experiments/knapen_AOT/AOT_stimuli/rescaled_final/0703_fw.mp4	0.0	114.29249405860901	
13	96.06440496444702	fix_post	2		12	11.0	2.5	/experiments/knapen_AOT/AOT_stimuli/rescaled_final/0703_fw.mp4	0.0	114.80823588371277	0.09983205795288086
14	96.1642370223999	fix_pre	0		120	12.0	2.5	/experiments/knapen_AOT/AOT_stimuli/rescaled_final/0437_rv.mp4	0.0	114.90806794166565	1.0002379417419434
14	97.14858508110046	pulse	0	t		12.0	2.5	/experiments/knapen_AOT/AOT_stimuli/rescaled_final/0437_rv.mp4	0.0	115.89241600036621	
14	97.16447496414185	movie	1		243	12.0	2.5	/experiments/knapen_AOT/AOT_stimuli/rescaled_final/0437_rv.mp4	0.0	115.90830588340759	2.5086381435394287
14	98.75688910484314	pulse	1	t		12.0	2.5	/experiments/knapen_AOT/AOT_stimuli/rescaled_final/0437_rv.mp4	0.0	117.50072002410889	
14	99.67311310768127	fix_post	2		12	12.0	2.5	/experiments/knapen_AOT/AOT_stimuli/rescaled_final/0437_rv.mp4	0.0	118.41694402694702	0.09997296333312988
15	99.7730860710144	fix_pre	0		120	13.0	2.5	blank	1.0	118.51691699028015	1.0002069473266602
15	100.34911298751831	pulse	0	t		13.0	2.5	blank	1.0	119.09294390678406	
15	100.77329301834106	movie	1		300	13.0	2.5	blank	1.0	119.51712393760681	2.500291109085083
15	101.94876313209534	pulse	1	t		13.0	2.5	blank	1.0	120.69259405136108	
15	103.27358412742615	fix_post	2		12	13.0	2.5	blank	1.0	122.0174150466919	0.10003900527954102
16	103.37362313270569	fix_pre	0		120	14.0	2.5	/experiments/knapen_AOT/AOT_stimuli/rescaled_final/1369_rv.mp4	0.0	122.11745405197144	1.0001349449157715
16	103.54878497123718	pulse	0	t		14.0	2.5	/experiments/knapen_AOT/AOT_stimuli/rescaled_final/1369_rv.mp4	0.0	122.29261589050293	
16	104.37375807762146	movie	1		242	14.0	2.5	/experiments/knapen_AOT/AOT_stimuli/rescaled_final/1369_rv.mp4	0.0	123.1175889968872	2.5005600452423096
16	105.14906406402588	pulse	1	t		14.0	2.5	/experiments/knapen_AOT/AOT_stimuli/rescaled_final/1369_rv.mp4	0.0	123.89289498329163	
16	106.74938702583313	pulse	1	t		14.0	2.5	/experiments/knapen_AOT/AOT_stimuli/rescaled_final/1369_rv.mp4	0.0	125.49321794509888	
16	106.87431812286377	fix_post	2		12	14.0	2.5	/experiments/knapen_AOT/AOT_stimuli/rescaled_final/1369_rv.mp4	0.0	125.61814904212952	0.09986186027526855
17	106.97417998313904	fix_pre	0		119	15.0	2.5	/experiments/knapen_AOT/AOT_stimuli/rescaled_final/2043_rv.mp4	0.0	125.71801090240479	0.9918241500854492
17	107.96600413322449	movie	1		242	15.0	2.5	/experiments/knapen_AOT/AOT_stimuli/rescaled_final/2043_rv.mp4	0.0	126.70983505249023	2.500497817993164
17	108.35003900527954	pulse	1	t		15.0	2.5	/experiments/knapen_AOT/AOT_stimuli/rescaled_final/2043_rv.mp4	0.0	127.09386992454529	
17	109.9497640132904	pulse	1	t		15.0	2.5	/experiments/knapen_AOT/AOT_stimuli/rescaled_final/2043_rv.mp4	0.0	128.69359493255615	
17	110.46650195121765	fix_post	2		12	15.0	2.5	/experiments/knapen_AOT/AOT_stimuli/rescaled_final/2043_rv.mp4	0.0	129.2103328704834	0.09992599487304688
18	110.5664279460907	fix_pre	0		119	16.0	2.5	/experiments/knapen_AOT/AOT_stimuli/rescaled_final/0956_fw.mp4	0.0	129.31025886535645	0.9917190074920654
18	111.54998397827148	pulse	0	t		16.0	2.5	/experiments/knapen_AOT/AOT_stimuli/rescaled_final/0956_fw.mp4	0.0	130.29381489753723	
18	111.55814695358276	movie	1		243	16.0	2.5	/experiments/knapen_AOT/AOT_stimuli/rescaled_final/0956_fw.mp4	0.0	130.3019778728485	2.5088109970092773
18	113.15068697929382	pulse	1	t		16.0	2.5	/experiments/knapen_AOT/AOT_stimuli/rescaled_final/0956_fw.mp4	0.0	131.89451789855957	
18	114.06695795059204	fix_post	2		12	16.0	2.5	/experiments/knapen_AOT/AOT_stimuli/rescaled_final/0956_fw.mp4	0.0	132.8107888698578	0.09993219375610352
19	114.16689014434814	fix_pre	0		120	17.0	2.5	/experiments/knapen_AOT/AOT_stimuli/rescaled_final/2153_fw.mp4	0.0	132.9107210636139	1.0002059936523438
19	114.75059008598328	pulse	0	t		17.0	2.5	/experiments/knapen_AOT/AOT_stimuli/rescaled_final/2153_fw.mp4	0.0	133.49442100524902	
19	115.16709613800049	movie	1		242	17.0	2.5	/experiments/knapen_AOT/AOT_stimuli/rescaled_final/2153_fw.mp4	0.0	133.91092705726624	2.500499963760376
19	116.35091400146484	pulse	1	t		17.0	2.5	/experiments/knapen_AOT/AOT_stimuli/rescaled_final/2153_fw.mp4	0.0	135.0947449207306	
19	117.66759610176086	fix_post	2		12	17.0	2.5	/experiments/knapen_AOT/AOT_stimuli/rescaled_final/2153_fw.mp4	0.0	136.4114270210266	0.09988784790039062
20	117.76748394966125	fix_pre	0		120	18.0	2.5	/experiments/knapen_AOT/AOT_stimuli/rescaled_final/1514_rv.mp4	0.0	136.511314868927	1.0001230239868164
20	117.95096516609192	pulse	0	t		18.0	2.5	/experiments/knapen_AOT/AOT_stimuli/rescaled_final/1514_rv.mp4	0.0	136.69479608535767	
20	118.76760697364807	movie	1		242	18.0	2.5	/experiments/knapen_AOT/AOT_stimuli/rescaled_final/1514_rv.mp4	0.0	137.51143789291382	2.500439167022705
20	119.55122303962708	pulse	1	t		18.0	2.5	/experiments/knapen_AOT/AOT_stimuli/rescaled_final/1514_rv.mp4	0.0	138.29505395889282	
20	121.1520299911499	pulse	1	t		18.0	2.5	/experiments/knapen_AOT/AOT_stimuli/rescaled_final/1514_rv.mp4	0.0	139.89586091041565	
20	121.26804614067078	fix_post	2		12	18.0	2.5	/experiments/knapen_AOT/AOT_stimuli/rescaled_final/1514_rv.mp4	0.0	140.01187705993652	0.09999895095825195
21	121.36804509162903	fix_pre	0		120	19.0	2.5	/experiments/knapen_AOT/AOT_stimuli/rescaled_final/0358_rv.mp4	0.0	140.11187601089478	1.0001380443572998
21	122.36818313598633	movie	1		242	19.0	2.5	/experiments/knapen_AOT/AOT_stimuli/rescaled_final/0358_rv.mp4	0.0	141.11201405525208	2.4921579360961914
21	122.75311708450317	pulse	1	t		19.0	2.5	/experiments/knapen_AOT/AOT_stimuli/rescaled_final/0358_rv.mp4	0.0	141.49694800376892	
21	124.35188794136047	pulse	1	t		19.0	2.5	/experiments/knapen_AOT/AOT_stimuli/rescaled_final/0358_rv.mp4	0.0	143.09571886062622	
21	124.86034107208252	fix_post	2		12	19.0	2.5	/experiments/knapen_AOT/AOT_stimuli/rescaled_final/0358_rv.mp4	0.0	143.60417199134827	0.09987401962280273
22	124.96021509170532	fix_pre	0		120	20.0	2.5	blank	1.0	143.70404601097107	1.0001070499420166
22	125.95223593711853	pulse	0	t		20.0	2.5	blank	1.0	144.69606685638428	
22	125.96032214164734	movie	1		301	20.0	2.5	blank	1.0	144.7041530609131	2.5087578296661377
22	127.55253410339355	pulse	1	t		20.0	2.5	blank	1.0	146.2963650226593	
22	128.46907997131348	fix_post	2		12	20.0	2.5	blank	1.0	147.21291089057922	0.09997916221618652
23	128.56905913352966	fix_pre	0		120	21.0	2.5	/experiments/knapen_AOT/AOT_stimuli/rescaled_final/1276_rv.mp4	0.0	147.3128900527954	1.000166893005371
23	129.1527349948883	pulse	0	t		21.0	2.5	/experiments/knapen_AOT/AOT_stimuli/rescaled_final/1276_rv.mp4	0.0	147.89656591415405	
23	129.56922602653503	movie	1		243	21.0	2.5	/experiments/knapen_AOT/AOT_stimuli/rescaled_final/1276_rv.mp4	0.0	148.31305694580078	2.500483989715576
23	130.75298500061035	pulse	1	t		21.0	2.5	/experiments/knapen_AOT/AOT_stimuli/rescaled_final/1276_rv.mp4	0.0	149.4968159198761	
23	132.0697100162506	fix_post	2		12	21.0	2.5	/experiments/knapen_AOT/AOT_stimuli/rescaled_final/1276_rv.mp4	0.0	150.81354093551636	0.09990096092224121
24	132.16961097717285	fix_pre	0		120	22.0	2.5	/experiments/knapen_AOT/AOT_stimuli/rescaled_final/0294_rv.mp4	0.0	150.9134418964386	1.0001440048217773
24	132.35309195518494	pulse	0	t		22.0	2.5	/experiments/knapen_AOT/AOT_stimuli/rescaled_final/0294_rv.mp4	0.0	151.09692287445068	
24	133.16975498199463	movie	1		243	22.0	2.5	/experiments/knapen_AOT/AOT_stimuli/rescaled_final/0294_rv.mp4	0.0	151.91358590126038	2.5004701614379883
24	133.95364093780518	pulse	1	t		22.0	2.5	/experiments/knapen_AOT/AOT_stimuli/rescaled_final/0294_rv.mp4	0.0	152.69747185707092	
24	135.55346298217773	pulse	1	t		22.0	2.5	/experiments/knapen_AOT/AOT_stimuli/rescaled_final/0294_rv.mp4	0.0	154.29729390144348	
24	135.67022514343262	fix_post	2		12	22.0	2.5	/experiments/knapen_AOT/AOT_stimuli/rescaled_final/0294_rv.mp4	0.0	154.41405606269836	0.0999288558959961
25	135.7701539993286	fix_pre	0		120	23.0	2.5	/experiments/knapen_AOT/AOT_stimuli/rescaled_final/1605_fw.mp4	0.0	154.51398491859436	1.0001590251922607
25	136.77031302452087	movie	1		241	23.0	2.5	/experiments/knapen_AOT/AOT_stimuli/rescaled_final/1605_fw.mp4	0.0	155.51414394378662	2.51330304145813
25	137.15437602996826	pulse	1	t		23.0	2.5	/experiments/knapen_AOT/AOT_stimuli/rescaled_final/1605_fw.mp4	0.0	155.898206949234	
25	138.75408697128296	pulse	1	t		23.0	2.5	/experiments/knapen_AOT/AOT_stimuli/rescaled_final/1605_fw.mp4	0.0	157.4979178905487	
25	139.283616065979	fix_post	2		10	23.0	2.5	/experiments/knapen_AOT/AOT_stimuli/rescaled_final/1605_fw.mp4	0.0	158.02744698524475	0.07878899574279785
26	139.3624050617218	fix_pre	0		120	24.0	2.5	/experiments/knapen_AOT/AOT_stimuli/rescaled_final/0809_rv.mp4	0.0	158.10623598098755	1.0000579357147217
26	140.35436916351318	pulse	0	t		24.0	2.5	/experiments/knapen_AOT/AOT_stimuli/rescaled_final/0809_rv.mp4	0.0	159.09820008277893	
26	140.36246299743652	movie	1		243	24.0	2.5	/experiments/knapen_AOT/AOT_stimuli/rescaled_final/0809_rv.mp4	0.0	159.10629391670227	2.5087320804595947
26	141.95513606071472	pulse	1	t		24.0	2.5	/experiments/knapen_AOT/AOT_stimuli/rescaled_final/0809_rv.mp4	0.0	160.69896697998047	
26	142.87119507789612	fix_post	2		12	24.0	2.5	/experiments/knapen_AOT/AOT_stimuli/rescaled_final/0809_rv.mp4	0.0	161.61502599716187	0.10006189346313477
27	142.97125697135925	fix_pre	0		120	25.0	2.5	/experiments/knapen_AOT/AOT_stimuli/rescaled_final/0135_rv.mp4	0.0	161.715087890625	1.0001301765441895
27	143.5549120903015	pulse	0	t		25.0	2.5	/experiments/knapen_AOT/AOT_stimuli/rescaled_final/0135_rv.mp4	0.0	162.29874300956726	
27	143.97138714790344	movie	1		242	25.0	2.5	/experiments/knapen_AOT/AOT_stimuli/rescaled_final/0135_rv.mp4	0.0	162.7152180671692	2.5003838539123535
27	145.15517210960388	pulse	1	t		25.0	2.5	/experiments/knapen_AOT/AOT_stimuli/rescaled_final/0135_rv.mp4	0.0	163.89900302886963	
27	146.4717710018158	fix_post	2		12	25.0	2.5	/experiments/knapen_AOT/AOT_stimuli/rescaled_final/0135_rv.mp4	0.0	165.21560192108154	0.0999910831451416
28	146.57176208496094	fix_pre	0		120	26.0	2.5	/experiments/knapen_AOT/AOT_stimuli/rescaled_final/1960_rv.mp4	0.0	165.31559300422668	1.0001468658447266
28	146.75527596473694	pulse	0	t		26.0	2.5	/experiments/knapen_AOT/AOT_stimuli/rescaled_final/1960_rv.mp4	0.0	165.49910688400269	
28	147.57190895080566	movie	1		242	26.0	2.5	/experiments/knapen_AOT/AOT_stimuli/rescaled_final/1960_rv.mp4	0.0	166.3157398700714	2.500465154647827
28	148.34807205200195	pulse	1	t		26.0	2.5	/experiments/knapen_AOT/AOT_stimuli/rescaled_final/1960_rv.mp4	0.0	167.0919029712677	
28	149.9562931060791	pulse	1	t		26.0	2.5	/experiments/knapen_AOT/AOT_stimuli/rescaled_final/1960_rv.mp4	0.0	168.70012402534485	
28	150.0723741054535	fix_post	2		12	26.0	2.5	/experiments/knapen_AOT/AOT_stimuli/rescaled_final/1960_rv.mp4	0.0	168.81620502471924	0.09994006156921387
29	150.1723141670227	fix_pre	0		120	27.0	2.5	/experiments/knapen_AOT/AOT_stimuli/rescaled_final/0534_fw.mp4	0.0	168.91614508628845	1.0001847743988037
29	151.1724989414215	movie	1		243	27.0	2.5	/experiments/knapen_AOT/AOT_stimuli/rescaled_final/0534_fw.mp4	0.0	169.91632986068726	2.4920430183410645
29	151.56019115447998	pulse	1	t		27.0	2.5	/experiments/knapen_AOT/AOT_stimuli/rescaled_final/0534_fw.mp4	0.0	170.30402207374573	
29	153.14898705482483	pulse	1	t		27.0	2.5	/experiments/knapen_AOT/AOT_stimuli/rescaled_final/0534_fw.mp4	0.0	171.89281797409058	
29	153.66454195976257	fix_post	2		12	27.0	2.5	/experiments/knapen_AOT/AOT_stimuli/rescaled_final/0534_fw.mp4	0.0	172.40837287902832	0.09998917579650879
30	153.76453113555908	fix_pre	0		119	28.0	2.5	blank	1.0	172.50836205482483	0.9918429851531982
30	154.74823999404907	pulse	0	t		28.0	2.5	blank	1.0	173.49207091331482	
30	154.75637412071228	movie	1		301	28.0	2.5	blank	1.0	173.50020503997803	2.508707046508789
30	156.34830713272095	pulse	1	t		28.0	2.5	blank	1.0	175.0921380519867	
30	157.26508116722107	fix_post	2		12	28.0	2.5	blank	1.0	176.00891208648682	0.1000058650970459
31	157.36508703231812	fix_pre	0		120	29.0	2.5	/experiments/knapen_AOT/AOT_stimuli/rescaled_final/1457_rv.mp4	0.0	176.10891795158386	1.000067949295044
31	157.9486949443817	pulse	0	t		29.0	2.5	/experiments/knapen_AOT/AOT_stimuli/rescaled_final/1457_rv.mp4	0.0	176.69252586364746	
31	158.36515498161316	movie	1		243	29.0	2.5	/experiments/knapen_AOT/AOT_stimuli/rescaled_final/1457_rv.mp4	0.0	177.1089859008789	2.500483989715576
31	159.54902005195618	pulse	1	t		29.0	2.5	/experiments/knapen_AOT/AOT_stimuli/rescaled_final/1457_rv.mp4	0.0	178.29285097122192	
31	160.86563897132874	fix_post	2		12	29.0	2.5	/experiments/knapen_AOT/AOT_stimuli/rescaled_final/1457_rv.mp4	0.0	179.60946989059448	0.09992599487304688
32	160.96556496620178	fix_pre	0		120	30.0	2.5	/experiments/knapen_AOT/AOT_stimuli/rescaled_final/1745_rv.mp4	0.0	179.70939588546753	1.0001699924468994
32	161.14907908439636	pulse	0	t		30.0	2.5	/experiments/knapen_AOT/AOT_stimuli/rescaled_final/1745_rv.mp4	0.0	179.8929100036621	
32	161.96573495864868	movie	1		242	30.0	2.5	/experiments/knapen_AOT/AOT_stimuli/rescaled_final/1745_rv.mp4	0.0	180.70956587791443	2.500455141067505
32	162.7494900226593	pulse	1	t		30.0	2.5	/experiments/knapen_AOT/AOT_stimuli/rescaled_final/1745_rv.mp4	0.0	181.49332094192505	
32	164.349445104599	pulse	1	t		30.0	2.5	/experiments/knapen_AOT/AOT_stimuli/rescaled_final/1745_rv.mp4	0.0	183.09327602386475	
32	164.4661900997162	fix_post	2		12	30.0	2.5	/experiments/knapen_AOT/AOT_stimuli/rescaled_final/1745_rv.mp4	0.0	183.21002101898193	0.09993195533752441
33	164.5661220550537	fix_pre	0		120	31.0	2.5	/experiments/knapen_AOT/AOT_stimuli/rescaled_final/1697_rv.mp4	0.0	183.30995297431946	1.000196933746338
33	165.56631898880005	movie	1		241	31.0	2.5	/experiments/knapen_AOT/AOT_stimuli/rescaled_final/1697_rv.mp4	0.0	184.3101499080658	2.492014169692993
33	165.950453042984	pulse	1	t		31.0	2.5	/experiments/knapen_AOT/AOT_stimuli/rescaled_final/1697_rv.mp4	0.0	184.69428396224976	
33	167.55005598068237	pulse	1	t		31.0	2.5	/experiments/knapen_AOT/AOT_stimuli/rescaled_final/1697_rv.mp4	0.0	186.29388689994812	
33	168.05833315849304	fix_post	2		12	31.0	2.5	/experiments/knapen_AOT/AOT_stimuli/rescaled_final/1697_rv.mp4	0.0	186.8021640777588	0.10002279281616211
34	168.1583559513092	fix_pre	0		120	32.0	2.5	/experiments/knapen_AOT/AOT_stimuli/rescaled_final/0222_fw.mp4	0.0	186.90218687057495	1.0001800060272217
34	169.1503870487213	pulse	0	t		32.0	2.5	/experiments/knapen_AOT/AOT_stimuli/rescaled_final/0222_fw.mp4	0.0	187.89421796798706	
34	169.15853595733643	movie	1		244	32.0	2.5	/experiments/knapen_AOT/AOT_stimuli/rescaled_final/0222_fw.mp4	0.0	187.90236687660217	2.5087192058563232
34	170.75113606452942	pulse	1	t		32.0	2.5	/experiments/knapen_AOT/AOT_stimuli/rescaled_final/0222_fw.mp4	0.0	189.49496698379517	
34	171.66725516319275	fix_post	2		12	32.0	2.5	/experiments/knapen_AOT/AOT_stimuli/rescaled_final/0222_fw.mp4	0.0	190.4110860824585	0.10007381439208984
35	171.76732897758484	fix_pre	0		120	33.0	2.5	/experiments/knapen_AOT/AOT_stimuli/rescaled_final/2179_fw.mp4	0.0	190.5111598968506	1.0000011920928955
35	172.350732088089	pulse	0	t		33.0	2.5	/experiments/knapen_AOT/AOT_stimuli/rescaled_final/2179_fw.mp4	0.0	191.09456300735474	
35	172.76733016967773	movie	1		242	33.0	2.5	/experiments/knapen_AOT/AOT_stimuli/rescaled_final/2179_fw.mp4	0.0	191.51116108894348	2.500419855117798
35	173.95108008384705	pulse	1	t		33.0	2.5	/experiments/knapen_AOT/AOT_stimuli/rescaled_final/2179_fw.mp4	0.0	192.6949110031128	
35	175.26775002479553	fix_post	2		12	33.0	2.5	/experiments/knapen_AOT/AOT_stimuli/rescaled_final/2179_fw.mp4	0.0	194.01158094406128	0.09997391700744629
36	175.36772394180298	fix_pre	0		120	34.0	2.5	blank	1.0	194.11155486106873	1.0001280307769775
36	175.55136013031006	pulse	0	t		34.0	2.5	blank	1.0	194.2951910495758	
36	176.36785197257996	movie	1		300	34.0	2.5	blank	1.0	195.1116828918457	2.500427007675171
36	177.15162301063538	pulse	1	t		34.0	2.5	blank	1.0	195.89545392990112	
36	178.75174713134766	pulse	1	t		34.0	2.5	blank	1.0	197.4955780506134	
36	178.86827898025513	fix_post	2		12	34.0	2.5	blank	1.0	197.61210989952087	0.10001206398010254
37	178.96829104423523	fix_pre	0		120	35.0	2.5	/experiments/knapen_AOT/AOT_stimuli/rescaled_final/1112_rv.mp4	0.0	197.71212196350098	1.0002028942108154
37	179.96849393844604	movie	1		241	35.0	2.5	/experiments/knapen_AOT/AOT_stimuli/rescaled_final/1112_rv.mp4	0.0	198.7123248577118	2.4919941425323486
37	180.35246896743774	pulse	1	t		35.0	2.5	/experiments/knapen_AOT/AOT_stimuli/rescaled_final/1112_rv.mp4	0.0	199.0962998867035	
37	181.95225715637207	pulse	1	t		35.0	2.5	/experiments/knapen_AOT/AOT_stimuli/rescaled_final/1112_rv.mp4	0.0	200.69608807563782	
37	182.4604880809784	fix_post	2		12	35.0	2.5	/experiments/knapen_AOT/AOT_stimuli/rescaled_final/1112_rv.mp4	0.0	201.20431900024414	0.09994697570800781
38	182.5604350566864	fix_pre	0		120	36.0	2.5	/experiments/knapen_AOT/AOT_stimuli/rescaled_final/0139_rv.mp4	0.0	201.30426597595215	1.0001749992370605
38	183.55251216888428	pulse	0	t		36.0	2.5	/experiments/knapen_AOT/AOT_stimuli/rescaled_final/0139_rv.mp4	0.0	202.29634308815002	
38	183.56061005592346	movie	1		243	36.0	2.5	/experiments/knapen_AOT/AOT_stimuli/rescaled_final/0139_rv.mp4	0.0	202.3044409751892	2.508734941482544
38	185.15326595306396	pulse	1	t		36.0	2.5	/experiments/knapen_AOT/AOT_stimuli/rescaled_final/0139_rv.mp4	0.0	203.8970968723297	
38	186.069344997406	fix_post	2		12	36.0	2.5	/experiments/knapen_AOT/AOT_stimuli/rescaled_final/0139_rv.mp4	0.0	204.81317591667175	0.1000680923461914
39	186.1694130897522	fix_pre	0		120	37.0	2.5	/experiments/knapen_AOT/AOT_stimuli/rescaled_final/1141_fw.mp4	0.0	204.91324400901794	1.0000479221343994
39	186.7528920173645	pulse	0	t		37.0	2.5	/experiments/knapen_AOT/AOT_stimuli/rescaled_final/1141_fw.mp4	0.0	205.49672293663025	
39	187.1694610118866	movie	1		243	37.0	2.5	/experiments/knapen_AOT/AOT_stimuli/rescaled_final/1141_fw.mp4	0.0	205.91329193115234	2.5004279613494873
39	188.3532919883728	pulse	1	t		37.0	2.5	/experiments/knapen_AOT/AOT_stimuli/rescaled_final/1141_fw.mp4	0.0	207.09712290763855	
39	189.66988897323608	fix_post	2		12	37.0	2.5	/experiments/knapen_AOT/AOT_stimuli/rescaled_final/1141_fw.mp4	0.0	208.41371989250183	0.09996700286865234
40	189.76985597610474	fix_pre	0		120	38.0	2.5	/experiments/knapen_AOT/AOT_stimuli/rescaled_final/1680_fw.mp4	0.0	208.51368689537048	1.0001740455627441
40	189.9533929824829	pulse	0	t		38.0	2.5	/experiments/knapen_AOT/AOT_stimuli/rescaled_final/1680_fw.mp4	0.0	208.69722390174866	
40	190.77003002166748	movie	1		242	38.0	2.5	/experiments/knapen_AOT/AOT_stimuli/rescaled_final/1680_fw.mp4	0.0	209.51386094093323	2.500464916229248
40	191.5537450313568	pulse	1	t		38.0	2.5	/experiments/knapen_AOT/AOT_stimuli/rescaled_final/1680_fw.mp4	0.0	210.29757595062256	
40	193.15385603904724	pulse	1	t		38.0	2.5	/experiments/knapen_AOT/AOT_stimuli/rescaled_final/1680_fw.mp4	0.0	211.897686958313	
40	193.27049493789673	fix_post	2		12	38.0	2.5	/experiments/knapen_AOT/AOT_stimuli/rescaled_final/1680_fw.mp4	0.0	212.01432585716248	0.09991908073425293
41	193.37041401863098	fix_pre	0		120	39.0	2.5	/experiments/knapen_AOT/AOT_stimuli/rescaled_final/0910_fw.mp4	0.0	212.11424493789673	1.0001211166381836
41	194.37053513526917	movie	1		241	39.0	2.5	/experiments/knapen_AOT/AOT_stimuli/rescaled_final/0910_fw.mp4	0.0	213.1143660545349	2.492100954055786
41	194.7551770210266	pulse	1	t		39.0	2.5	/experiments/knapen_AOT/AOT_stimuli/rescaled_final/0910_fw.mp4	0.0	213.49900794029236	
41	196.3545401096344	pulse	1	t		39.0	2.5	/experiments/knapen_AOT/AOT_stimuli/rescaled_final/0910_fw.mp4	0.0	215.09837102890015	
41	196.86263608932495	fix_post	2		12	39.0	2.5	/experiments/knapen_AOT/AOT_stimuli/rescaled_final/0910_fw.mp4	0.0	215.6064670085907	0.0999610424041748
42	196.96259713172913	fix_pre	0		120	40.0	2.5	/experiments/knapen_AOT/AOT_stimuli/rescaled_final/1126_fw.mp4	0.0	215.70642805099487	1.0001349449157715
42	197.95476412773132	pulse	0	t		40.0	2.5	/experiments/knapen_AOT/AOT_stimuli/rescaled_final/1126_fw.mp4	0.0	216.69859504699707	
42	197.9627320766449	movie	1		245	40.0	2.5	/experiments/knapen_AOT/AOT_stimuli/rescaled_final/1126_fw.mp4	0.0	216.70656299591064	2.508768081665039
42	199.55531907081604	pulse	1	t		40.0	2.5	/experiments/knapen_AOT/AOT_stimuli/rescaled_final/1126_fw.mp4	0.0	218.2991499900818	
42	200.47150015830994	fix_post	2		12	40.0	2.5	/experiments/knapen_AOT/AOT_stimuli/rescaled_final/1126_fw.mp4	0.0	219.21533107757568	0.1000509262084961
43	200.57155108451843	fix_pre	0		120	41.0	2.5	/experiments/knapen_AOT/AOT_stimuli/rescaled_final/1746_rv.mp4	0.0	219.31538200378418	1.000133991241455
43	201.155091047287	pulse	0	t		41.0	2.5	/experiments/knapen_AOT/AOT_stimuli/rescaled_final/1746_rv.mp4	0.0	219.89892196655273	
43	201.5716850757599	movie	1		239	41.0	2.5	/experiments/knapen_AOT/AOT_stimuli/rescaled_final/1746_rv.mp4	0.0	220.31551599502563	2.5004520416259766
43	202.7554681301117	pulse	1	t		41.0	2.5	/experiments/knapen_AOT/AOT_stimuli/rescaled_final/1746_rv.mp4	0.0	221.49929904937744	
43	204.07213711738586	fix_post	2		12	41.0	2.5	/experiments/knapen_AOT/AOT_stimuli/rescaled_final/1746_rv.mp4	0.0	222.8159680366516	0.09994888305664062
44	204.1720860004425	fix_pre	0		120	42.0	2.5	blank	1.0	222.91591691970825	1.0001230239868164
44	204.3557209968567	pulse	0	t		42.0	2.5	blank	1.0	223.09955191612244	
44	205.17220902442932	movie	1		300	42.0	2.5	blank	1.0	223.91603994369507	2.5003890991210938
44	205.9558470249176	pulse	1	t		42.0	2.5	blank	1.0	224.69967794418335	
44	207.5559811592102	pulse	1	t		42.0	2.5	blank	1.0	226.29981207847595	
44	207.67259812355042	fix_post	2		12	42.0	2.5	blank	1.0	226.41642904281616	0.09999704360961914
45	207.77259516716003	fix_pre	0		120	43.0	2.5	/experiments/knapen_AOT/AOT_stimuli/rescaled_final/1906_rv.mp4	0.0	226.51642608642578	1.000112771987915
45	208.77270793914795	movie	1		244	43.0	2.5	/experiments/knapen_AOT/AOT_stimuli/rescaled_final/1906_rv.mp4	0.0	227.5165388584137	2.4920461177825928
45	209.15739512443542	pulse	1	t		43.0	2.5	/experiments/knapen_AOT/AOT_stimuli/rescaled_final/1906_rv.mp4	0.0	227.90122604370117	
45	210.74919199943542	pulse	1	t		43.0	2.5	/experiments/knapen_AOT/AOT_stimuli/rescaled_final/1906_rv.mp4	0.0	229.49302291870117	
45	211.26475405693054	fix_post	2		12	43.0	2.5	/experiments/knapen_AOT/AOT_stimuli/rescaled_final/1906_rv.mp4	0.0	230.0085849761963	0.09999704360961914
46	211.36475110054016	fix_pre	0		120	44.0	2.5	/experiments/knapen_AOT/AOT_stimuli/rescaled_final/0408_rv.mp4	0.0	230.1085820198059	1.0001628398895264
46	212.34932208061218	pulse	0	t		44.0	2.5	/experiments/knapen_AOT/AOT_stimuli/rescaled_final/0408_rv.mp4	0.0	231.09315299987793	
46	212.3649139404297	movie	1		244	44.0	2.5	/experiments/knapen_AOT/AOT_stimuli/rescaled_final/0408_rv.mp4	0.0	231.10874485969543	2.5087502002716064
46	213.96134305000305	pulse	1	t		44.0	2.5	/experiments/knapen_AOT/AOT_stimuli/rescaled_final/0408_rv.mp4	0.0	232.7051739692688	
46	214.8736641407013	fix_post	2		12	44.0	2.5	/experiments/knapen_AOT/AOT_stimuli/rescaled_final/0408_rv.mp4	0.0	233.61749505996704	0.09996795654296875
47	214.97363209724426	fix_pre	0		120	45.0	2.5	/experiments/knapen_AOT/AOT_stimuli/rescaled_final/0222_rv.mp4	0.0	233.71746301651	1.0001440048217773
47	215.54902005195618	pulse	0	t		45.0	2.5	/experiments/knapen_AOT/AOT_stimuli/rescaled_final/0222_rv.mp4	0.0	234.29285097122192	
47	215.97377610206604	movie	1		242	45.0	2.5	/experiments/knapen_AOT/AOT_stimuli/rescaled_final/0222_rv.mp4	0.0	234.7176070213318	2.500548839569092
47	217.14962315559387	pulse	1	t		45.0	2.5	/experiments/knapen_AOT/AOT_stimuli/rescaled_final/0222_rv.mp4	0.0	235.89345407485962	
47	218.47432494163513	fix_post	2		12	45.0	2.5	/experiments/knapen_AOT/AOT_stimuli/rescaled_final/0222_rv.mp4	0.0	237.21815586090088	0.09990310668945312
48	218.57422804832458	fix_pre	0		120	46.0	2.5	/experiments/knapen_AOT/AOT_stimuli/rescaled_final/2124_rv.mp4	0.0	237.31805896759033	1.0001649856567383
48	218.74940013885498	pulse	0	t		46.0	2.5	/experiments/knapen_AOT/AOT_stimuli/rescaled_final/2124_rv.mp4	0.0	237.49323105812073	
48	219.57439303398132	movie	1		242	46.0	2.5	/experiments/knapen_AOT/AOT_stimuli/rescaled_final/2124_rv.mp4	0.0	238.31822395324707	2.500364065170288
48	220.34974002838135	pulse	1	t		46.0	2.5	/experiments/knapen_AOT/AOT_stimuli/rescaled_final/2124_rv.mp4	0.0	239.0935709476471	
48	221.9498679637909	pulse	1	t		46.0	2.5	/experiments/knapen_AOT/AOT_stimuli/rescaled_final/2124_rv.mp4	0.0	240.69369888305664	
48	222.0747570991516	fix_post	2		12	46.0	2.5	/experiments/knapen_AOT/AOT_stimuli/rescaled_final/2124_rv.mp4	0.0	240.81858801841736	0.0999288558959961
49	222.1746859550476	fix_pre	0		119	47.0	2.5	blank	1.0	240.91851687431335	0.991873025894165
49	223.16655898094177	movie	1		300	47.0	2.5	blank	1.0	241.91038990020752	2.500319004058838
49	223.55002403259277	pulse	1	t		47.0	2.5	blank	1.0	242.29385495185852	
49	225.15036702156067	pulse	1	t		47.0	2.5	blank	1.0	243.89419794082642	
49	225.6668779850006	fix_post	2		12	47.0	2.5	blank	1.0	244.41070890426636	0.10001111030578613
50	225.7668890953064	fix_pre	0		119	48.0	2.5	/experiments/knapen_AOT/AOT_stimuli/rescaled_final/0156_fw.mp4	0.0	244.51072001457214	0.9918210506439209
50	226.75056910514832	pulse	0	t		48.0	2.5	/experiments/knapen_AOT/AOT_stimuli/rescaled_final/0156_fw.mp4	0.0	245.49440002441406	
50	226.75871014595032	movie	1		243	48.0	2.5	/experiments/knapen_AOT/AOT_stimuli/rescaled_final/0156_fw.mp4	0.0	245.50254106521606	2.508774995803833
50	228.35148000717163	pulse	1	t		48.0	2.5	/experiments/knapen_AOT/AOT_stimuli/rescaled_final/0156_fw.mp4	0.0	247.09531092643738	
50	229.26748514175415	fix_post	2		12	48.0	2.5	/experiments/knapen_AOT/AOT_stimuli/rescaled_final/0156_fw.mp4	0.0	248.0113160610199	0.09999394416809082
51	229.36747908592224	fix_pre	0		120	49.0	2.5	/experiments/knapen_AOT/AOT_stimuli/rescaled_final/1374_rv.mp4	0.0	248.111310005188	1.000166893005371
51	229.95102500915527	pulse	0	t		49.0	2.5	/experiments/knapen_AOT/AOT_stimuli/rescaled_final/1374_rv.mp4	0.0	248.69485592842102	
51	230.3676459789276	movie	1		242	49.0	2.5	/experiments/knapen_AOT/AOT_stimuli/rescaled_final/1374_rv.mp4	0.0	249.11147689819336	2.5003821849823
51	231.55144214630127	pulse	1	t		49.0	2.5	/experiments/knapen_AOT/AOT_stimuli/rescaled_final/1374_rv.mp4	0.0	250.29527306556702	
51	232.8680281639099	fix_post	2		12	49.0	2.5	/experiments/knapen_AOT/AOT_stimuli/rescaled_final/1374_rv.mp4	0.0	251.61185908317566	0.09995293617248535
52	232.9679811000824	fix_pre	0		120	50.0	2.5	/experiments/knapen_AOT/AOT_stimuli/rescaled_final/1680_rv.mp4	0.0	251.71181201934814	1.0001499652862549
52	233.15152716636658	pulse	0	t		50.0	2.5	/experiments/knapen_AOT/AOT_stimuli/rescaled_final/1680_rv.mp4	0.0	251.89535808563232	
52	233.96813106536865	movie	1		242	50.0	2.5	/experiments/knapen_AOT/AOT_stimuli/rescaled_final/1680_rv.mp4	0.0	252.7119619846344	2.5005199909210205
52	234.751855134964	pulse	1	t		50.0	2.5	/experiments/knapen_AOT/AOT_stimuli/rescaled_final/1680_rv.mp4	0.0	253.49568605422974	
52	236.35289096832275	pulse	1	t		50.0	2.5	/experiments/knapen_AOT/AOT_stimuli/rescaled_final/1680_rv.mp4	0.0	255.0967218875885	
52	236.46865105628967	fix_post	2		12	50.0	2.5	/experiments/knapen_AOT/AOT_stimuli/rescaled_final/1680_rv.mp4	0.0	255.21248197555542	0.09993910789489746
53	236.56859016418457	fix_pre	0		119	51.0	2.5	/experiments/knapen_AOT/AOT_stimuli/rescaled_final/1121_fw.mp4	0.0	255.31242108345032	0.9918279647827148
53	237.56041812896729	movie	1		242	51.0	2.5	/experiments/knapen_AOT/AOT_stimuli/rescaled_final/1121_fw.mp4	0.0	256.30424904823303	2.500401020050049
53	237.95239305496216	pulse	1	t		51.0	2.5	/experiments/knapen_AOT/AOT_stimuli/rescaled_final/1121_fw.mp4	0.0	256.6962239742279	
53	239.55257201194763	pulse	1	t		51.0	2.5	/experiments/knapen_AOT/AOT_stimuli/rescaled_final/1121_fw.mp4	0.0	258.2964029312134	
53	240.06081914901733	fix_post	2		12	51.0	2.5	/experiments/knapen_AOT/AOT_stimuli/rescaled_final/1121_fw.mp4	0.0	258.8046500682831	0.09991192817687988
54	240.1607310771942	fix_pre	0		120	52.0	2.5	/experiments/knapen_AOT/AOT_stimuli/rescaled_final/2043_rv.mp4	0.0	258.90456199645996	1.0001380443572998
54	241.15275812149048	pulse	0	t		52.0	2.5	/experiments/knapen_AOT/AOT_stimuli/rescaled_final/2043_rv.mp4	0.0	259.8965890407562	
54	241.1608691215515	movie	1		244	52.0	2.5	/experiments/knapen_AOT/AOT_stimuli/rescaled_final/2043_rv.mp4	0.0	259.90470004081726	2.5087900161743164
54	242.75378513336182	pulse	1	t		52.0	2.5	/experiments/knapen_AOT/AOT_stimuli/rescaled_final/2043_rv.mp4	0.0	261.49761605262756	
54	243.66965913772583	fix_post	2		12	52.0	2.5	/experiments/knapen_AOT/AOT_stimuli/rescaled_final/2043_rv.mp4	0.0	262.4134900569916	0.0999898910522461
55	243.76964902877808	fix_pre	0		120	53.0	2.5	/experiments/knapen_AOT/AOT_stimuli/rescaled_final/1486_rv.mp4	0.0	262.5134799480438	1.0000829696655273
55	244.3533091545105	pulse	0	t		53.0	2.5	/experiments/knapen_AOT/AOT_stimuli/rescaled_final/1486_rv.mp4	0.0	263.09714007377625	
55	244.7697319984436	movie	1		243	53.0	2.5	/experiments/knapen_AOT/AOT_stimuli/rescaled_final/1486_rv.mp4	0.0	263.51356291770935	2.500563144683838
55	245.94908499717712	pulse	1	t		53.0	2.5	/experiments/knapen_AOT/AOT_stimuli/rescaled_final/1486_rv.mp4	0.0	264.69291591644287	
55	247.27029514312744	fix_post	2		12	53.0	2.5	/experiments/knapen_AOT/AOT_stimuli/rescaled_final/1486_rv.mp4	0.0	266.0141260623932	0.09990501403808594
56	247.37020015716553	fix_pre	0		120	54.0	2.5	/experiments/knapen_AOT/AOT_stimuli/rescaled_final/2124_fw.mp4	0.0	266.1140310764313	1.000108003616333
56	247.55384802818298	pulse	0	t		54.0	2.5	/experiments/knapen_AOT/AOT_stimuli/rescaled_final/2124_fw.mp4	0.0	266.29767894744873	
56	248.37030816078186	movie	1		242	54.0	2.5	/experiments/knapen_AOT/AOT_stimuli/rescaled_final/2124_fw.mp4	0.0	267.1141390800476	2.5004799365997314
56	249.1538860797882	pulse	1	t		54.0	2.5	/experiments/knapen_AOT/AOT_stimuli/rescaled_final/2124_fw.mp4	0.0	267.89771699905396	
56	250.7541949748993	pulse	1	t		54.0	2.5	/experiments/knapen_AOT/AOT_stimuli/rescaled_final/2124_fw.mp4	0.0	269.49802589416504	
56	250.8707880973816	fix_post	2		12	54.0	2.5	/experiments/knapen_AOT/AOT_stimuli/rescaled_final/2124_fw.mp4	0.0	269.61461901664734	0.0999000072479248
57	250.97068810462952	fix_pre	0		120	55.0	2.5	blank	1.0	269.71451902389526	1.0001170635223389
57	251.97080516815186	movie	1		299	55.0	2.5	blank	1.0	270.7146360874176	2.492064952850342
57	252.3544340133667	pulse	1	t		55.0	2.5	blank	1.0	271.09826493263245	
57	253.954656124115	pulse	1	t		55.0	2.5	blank	1.0	272.69848704338074	
57	254.4628701210022	fix_post	2		12	55.0	2.5	blank	1.0	273.20670104026794	0.1000208854675293
58	254.56289100646973	fix_pre	0		120	56.0	2.5	/experiments/knapen_AOT/AOT_stimuli/rescaled_final/1252_fw.mp4	0.0	273.3067219257355	1.0001420974731445
58	255.5549280643463	pulse	0	t		56.0	2.5	/experiments/knapen_AOT/AOT_stimuli/rescaled_final/1252_fw.mp4	0.0	274.29875898361206	
58	255.56303310394287	movie	1		243	56.0	2.5	/experiments/knapen_AOT/AOT_stimuli/rescaled_final/1252_fw.mp4	0.0	274.3068640232086	2.5087199211120605
58	257.1557021141052	pulse	1	t		56.0	2.5	/experiments/knapen_AOT/AOT_stimuli/rescaled_final/1252_fw.mp4	0.0	275.899533033371	
58	258.07175302505493	fix_post	2		12	56.0	2.5	/experiments/knapen_AOT/AOT_stimuli/rescaled_final/1252_fw.mp4	0.0	276.8155839443207	0.10000109672546387
59	258.1717541217804	fix_pre	0		120	57.0	2.5	/experiments/knapen_AOT/AOT_stimuli/rescaled_final/1133_fw.mp4	0.0	276.91558504104614	1.000121831893921
59	258.75546503067017	pulse	0	t		57.0	2.5	/experiments/knapen_AOT/AOT_stimuli/rescaled_final/1133_fw.mp4	0.0	277.4992959499359	
59	259.1718759536743	movie	1		242	57.0	2.5	/experiments/knapen_AOT/AOT_stimuli/rescaled_final/1133_fw.mp4	0.0	277.91570687294006	2.50046706199646
59	260.3516049385071	pulse	1	t		57.0	2.5	/experiments/knapen_AOT/AOT_stimuli/rescaled_final/1133_fw.mp4	0.0	279.0954358577728	
59	261.6723430156708	fix_post	2		12	57.0	2.5	/experiments/knapen_AOT/AOT_stimuli/rescaled_final/1133_fw.mp4	0.0	280.4161739349365	0.0999910831451416
60	261.7723340988159	fix_pre	0		120	58.0	2.5	/experiments/knapen_AOT/AOT_stimuli/rescaled_final/1803_fw.mp4	0.0	280.51616501808167	1.0000929832458496
60	261.95582914352417	pulse	0	t		58.0	2.5	/experiments/knapen_AOT/AOT_stimuli/rescaled_final/1803_fw.mp4	0.0	280.6996600627899	
60	262.77242708206177	movie	1		242	58.0	2.5	/experiments/knapen_AOT/AOT_stimuli/rescaled_final/1803_fw.mp4	0.0	281.5162580013275	2.5004260540008545
60	263.54861211776733	pulse	1	t		58.0	2.5	/experiments/knapen_AOT/AOT_stimuli/rescaled_final/1803_fw.mp4	0.0	282.2924430370331	
60	265.1561989784241	pulse	1	t		58.0	2.5	/experiments/knapen_AOT/AOT_stimuli/rescaled_final/1803_fw.mp4	0.0	283.9000298976898	
60	265.2728531360626	fix_post	2		12	58.0	2.5	/experiments/knapen_AOT/AOT_stimuli/rescaled_final/1803_fw.mp4	0.0	284.01668405532837	0.09998393058776855
61	265.3728370666504	fix_pre	0		118	59.0	2.5	/experiments/knapen_AOT/AOT_stimuli/rescaled_final/0572_fw.mp4	0.0	284.11666798591614	1.0001709461212158
61	266.3730080127716	movie	1		244	59.0	2.5	/experiments/knapen_AOT/AOT_stimuli/rescaled_final/0572_fw.mp4	0.0	285.11683893203735	2.5004029273986816
61	266.7570791244507	pulse	1	t		59.0	2.5	/experiments/knapen_AOT/AOT_stimuli/rescaled_final/0572_fw.mp4	0.0	285.50091004371643	
61	268.3494961261749	pulse	1	t		59.0	2.5	/experiments/knapen_AOT/AOT_stimuli/rescaled_final/0572_fw.mp4	0.0	287.0933270454407	
61	268.8734109401703	fix_post	2		12	59.0	2.5	/experiments/knapen_AOT/AOT_stimuli/rescaled_final/0572_fw.mp4	0.0	287.61724185943604	0.09995102882385254
62	268.97336196899414	fix_pre	0		118	60.0	2.5	/experiments/knapen_AOT/AOT_stimuli/rescaled_final/0495_fw.mp4	0.0	287.7171928882599	0.9834651947021484
62	269.94867300987244	pulse	0	t		60.0	2.5	/experiments/knapen_AOT/AOT_stimuli/rescaled_final/0495_fw.mp4	0.0	288.6925039291382	
62	269.9568271636963	movie	1		245	60.0	2.5	/experiments/knapen_AOT/AOT_stimuli/rescaled_final/0495_fw.mp4	0.0	288.70065808296204	2.508708953857422
62	271.5494749546051	pulse	1	t		60.0	2.5	/experiments/knapen_AOT/AOT_stimuli/rescaled_final/0495_fw.mp4	0.0	290.29330587387085	
62	272.4655361175537	fix_post	2		12	60.0	2.5	/experiments/knapen_AOT/AOT_stimuli/rescaled_final/0495_fw.mp4	0.0	291.20936703681946	0.10003805160522461
63	272.56557416915894	fix_pre	0		120	61.0	2.5	/experiments/knapen_AOT/AOT_stimuli/rescaled_final/0757_fw.mp4	0.0	291.3094050884247	1.0001258850097656
63	273.1492199897766	pulse	0	t		61.0	2.5	/experiments/knapen_AOT/AOT_stimuli/rescaled_final/0757_fw.mp4	0.0	291.89305090904236	
63	273.5657000541687	movie	1		244	61.0	2.5	/experiments/knapen_AOT/AOT_stimuli/rescaled_final/0757_fw.mp4	0.0	292.30953097343445	2.5004289150238037
63	274.7495291233063	pulse	1	t		61.0	2.5	/experiments/knapen_AOT/AOT_stimuli/rescaled_final/0757_fw.mp4	0.0	293.493360042572	
63	276.0661289691925	fix_post	2		12	61.0	2.5	/experiments/knapen_AOT/AOT_stimuli/rescaled_final/0757_fw.mp4	0.0	294.80995988845825	0.1000521183013916
64	276.1661810874939	fix_pre	0		120	62.0	2.5	blank	1.0	294.91001200675964	1.0000970363616943
64	276.34966802597046	pulse	0	t		62.0	2.5	blank	1.0	295.0934989452362	
64	277.1662781238556	movie	1		300	62.0	2.5	blank	1.0	295.91010904312134	2.5003468990325928
64	277.94983100891113	pulse	1	t		62.0	2.5	blank	1.0	296.6936619281769	
64	279.5501379966736	pulse	1	t		62.0	2.5	blank	1.0	298.29396891593933	
64	279.6666250228882	fix_post	2		12	62.0	2.5	blank	1.0	298.41045594215393	0.10002803802490234
65	279.7666530609131	fix_pre	0		120	63.0	2.5	/experiments/knapen_AOT/AOT_stimuli/rescaled_final/1934_fw.mp4	0.0	298.51048398017883	1.000143051147461
65	280.76679611206055	movie	1		242	63.0	2.5	/experiments/knapen_AOT/AOT_stimuli/rescaled_final/1934_fw.mp4	0.0	299.5106270313263	2.5005300045013428
65	281.15076994895935	pulse	1	t		63.0	2.5	/experiments/knapen_AOT/AOT_stimuli/rescaled_final/1934_fw.mp4	0.0	299.8946008682251	
65	282.750736951828	pulse	1	t		63.0	2.5	/experiments/knapen_AOT/AOT_stimuli/rescaled_final/1934_fw.mp4	0.0	301.49456787109375	
65	283.2673261165619	fix_post	2		11	63.0	2.5	/experiments/knapen_AOT/AOT_stimuli/rescaled_final/1934_fw.mp4	0.0	302.01115703582764	0.09150290489196777
66	283.35882902145386	fix_pre	0		120	64.0	2.5	/experiments/knapen_AOT/AOT_stimuli/rescaled_final/1041_fw.mp4	0.0	302.1026599407196	1.0002191066741943
66	284.35085105895996	pulse	0	t		64.0	2.5	/experiments/knapen_AOT/AOT_stimuli/rescaled_final/1041_fw.mp4	0.0	303.0946819782257	
66	284.35904812812805	movie	1		244	64.0	2.5	/experiments/knapen_AOT/AOT_stimuli/rescaled_final/1041_fw.mp4	0.0	303.1028790473938	2.508638858795166
66	285.9515480995178	pulse	1	t		64.0	2.5	/experiments/knapen_AOT/AOT_stimuli/rescaled_final/1041_fw.mp4	0.0	304.69537901878357	
66	286.8676869869232	fix_post	2		12	64.0	2.5	/experiments/knapen_AOT/AOT_stimuli/rescaled_final/1041_fw.mp4	0.0	305.61151790618896	0.10002398490905762
67	286.9677109718323	fix_pre	0		120	65.0	2.5	/experiments/knapen_AOT/AOT_stimuli/rescaled_final/2029_fw.mp4	0.0	305.711541891098	1.0002050399780273
67	287.5515079498291	pulse	0	t		65.0	2.5	/experiments/knapen_AOT/AOT_stimuli/rescaled_final/2029_fw.mp4	0.0	306.29533886909485	
67	287.9679160118103	movie	1		243	65.0	2.5	/experiments/knapen_AOT/AOT_stimuli/rescaled_final/2029_fw.mp4	0.0	306.71174693107605	2.50051212310791
67	289.15177297592163	pulse	1	t		65.0	2.5	/experiments/knapen_AOT/AOT_stimuli/rescaled_final/2029_fw.mp4	0.0	307.8956038951874	
67	290.4684281349182	fix_post	2		12	65.0	2.5	/experiments/knapen_AOT/AOT_stimuli/rescaled_final/2029_fw.mp4	0.0	309.21225905418396	0.09987497329711914
68	290.56830310821533	fix_pre	0		120	66.0	2.5	/experiments/knapen_AOT/AOT_stimuli/rescaled_final/2002_rv.mp4	0.0	309.3121340274811	1.0001559257507324
68	290.7518391609192	pulse	0	t		66.0	2.5	/experiments/knapen_AOT/AOT_stimuli/rescaled_final/2002_rv.mp4	0.0	309.49567008018494	
68	291.56845903396606	movie	1		243	66.0	2.5	/experiments/knapen_AOT/AOT_stimuli/rescaled_final/2002_rv.mp4	0.0	310.3122899532318	2.5003020763397217
68	292.35200095176697	pulse	1	t		66.0	2.5	/experiments/knapen_AOT/AOT_stimuli/rescaled_final/2002_rv.mp4	0.0	311.0958318710327	
68	293.9521470069885	pulse	1	t		66.0	2.5	/experiments/knapen_AOT/AOT_stimuli/rescaled_final/2002_rv.mp4	0.0	312.6959779262543	
68	294.0687611103058	fix_post	2		12	66.0	2.5	/experiments/knapen_AOT/AOT_stimuli/rescaled_final/2002_rv.mp4	0.0	312.81259202957153	0.10001802444458008
69	294.16877913475037	fix_pre	0		119	67.0	2.5	/experiments/knapen_AOT/AOT_stimuli/rescaled_final/0091_rv.mp4	0.0	312.9126100540161	0.991858959197998
69	295.16063809394836	movie	1		244	67.0	2.5	/experiments/knapen_AOT/AOT_stimuli/rescaled_final/0091_rv.mp4	0.0	313.9044690132141	2.500380039215088
69	295.55260610580444	pulse	1	t		67.0	2.5	/experiments/knapen_AOT/AOT_stimuli/rescaled_final/0091_rv.mp4	0.0	314.2964370250702	
69	297.15285301208496	pulse	1	t		67.0	2.5	/experiments/knapen_AOT/AOT_stimuli/rescaled_final/0091_rv.mp4	0.0	315.8966839313507	
69	297.66101813316345	fix_post	2		12	67.0	2.5	/experiments/knapen_AOT/AOT_stimuli/rescaled_final/0091_rv.mp4	0.0	316.4048490524292	0.10004591941833496
70	297.7610640525818	fix_pre	0		120	68.0	2.5	blank	1.0	316.50489497184753	1.0001161098480225
70	298.75292801856995	pulse	0	t		68.0	2.5	blank	1.0	317.4967589378357	
70	298.7611801624298	movie	1		301	68.0	2.5	blank	1.0	317.50501108169556	2.5087227821350098
70	300.3532750606537	pulse	1	t		68.0	2.5	blank	1.0	319.09710597991943	
70	301.2699029445648	fix_post	2		12	68.0	2.5	blank	1.0	320.01373386383057	0.099945068359375
71	301.3698480129242	fix_pre	0		120	69.0	2.5	/experiments/knapen_AOT/AOT_stimuli/rescaled_final/1263_fw.mp4	0.0	320.11367893218994	1.0002059936523438
71	301.95359802246094	pulse	0	t		69.0	2.5	/experiments/knapen_AOT/AOT_stimuli/rescaled_final/1263_fw.mp4	0.0	320.6974289417267	
71	302.37005400657654	movie	1		244	69.0	2.5	/experiments/knapen_AOT/AOT_stimuli/rescaled_final/1263_fw.mp4	0.0	321.1138849258423	2.5004019737243652
71	303.5493891239166	pulse	1	t		69.0	2.5	/experiments/knapen_AOT/AOT_stimuli/rescaled_final/1263_fw.mp4	0.0	322.2932200431824	
71	304.8704559803009	fix_post	2		12	69.0	2.5	/experiments/knapen_AOT/AOT_stimuli/rescaled_final/1263_fw.mp4	0.0	323.61428689956665	0.09997797012329102
72	304.9704339504242	fix_pre	0		120	70.0	2.5	/experiments/knapen_AOT/AOT_stimuli/rescaled_final/1795_rv.mp4	0.0	323.71426486968994	1.0001401901245117
72	305.15405201911926	pulse	0	t		70.0	2.5	/experiments/knapen_AOT/AOT_stimuli/rescaled_final/1795_rv.mp4	0.0	323.897882938385	
72	305.9705741405487	movie	1		242	70.0	2.5	/experiments/knapen_AOT/AOT_stimuli/rescaled_final/1795_rv.mp4	0.0	324.71440505981445	2.4921889305114746
72	306.7542631626129	pulse	1	t		70.0	2.5	/experiments/knapen_AOT/AOT_stimuli/rescaled_final/1795_rv.mp4	0.0	325.49809408187866	
72	308.3549039363861	pulse	1	t		70.0	2.5	/experiments/knapen_AOT/AOT_stimuli/rescaled_final/1795_rv.mp4	0.0	327.09873485565186	
72	308.4627630710602	fix_post	2		13	70.0	2.5	/experiments/knapen_AOT/AOT_stimuli/rescaled_final/1795_rv.mp4	0.0	327.2065939903259	0.10817790031433105
73	308.5709409713745	fix_pre	0		119	71.0	2.5	/experiments/knapen_AOT/AOT_stimuli/rescaled_final/0495_rv.mp4	0.0	327.31477189064026	0.991811990737915
73	309.5627529621124	movie	1		244	71.0	2.5	/experiments/knapen_AOT/AOT_stimuli/rescaled_final/0495_rv.mp4	0.0	328.3065838813782	2.500361204147339
73	309.950984954834	pulse	1	t		71.0	2.5	/experiments/knapen_AOT/AOT_stimuli/rescaled_final/0495_rv.mp4	0.0	328.69481587409973	
73	311.5549371242523	pulse	1	t		71.0	2.5	/experiments/knapen_AOT/AOT_stimuli/rescaled_final/0495_rv.mp4	0.0	330.29876804351807	
73	312.06311416625977	fix_post	2		12	71.0	2.5	/experiments/knapen_AOT/AOT_stimuli/rescaled_final/0495_rv.mp4	0.0	330.8069450855255	0.10015678405761719
74	312.1632709503174	fix_pre	0		120	72.0	2.5	/experiments/knapen_AOT/AOT_stimuli/rescaled_final/2133_rv.mp4	0.0	330.90710186958313	1.0000760555267334
74	313.1551251411438	pulse	0	t		72.0	2.5	/experiments/knapen_AOT/AOT_stimuli/rescaled_final/2133_rv.mp4	0.0	331.89895606040955	
74	313.1633470058441	movie	1		243	72.0	2.5	/experiments/knapen_AOT/AOT_stimuli/rescaled_final/2133_rv.mp4	0.0	331.90717792510986	2.5086910724639893
74	314.7592420578003	pulse	1	t		72.0	2.5	/experiments/knapen_AOT/AOT_stimuli/rescaled_final/2133_rv.mp4	0.0	333.50307297706604	
74	315.6720380783081	fix_post	2		12	72.0	2.5	/experiments/knapen_AOT/AOT_stimuli/rescaled_final/2133_rv.mp4	0.0	334.41586899757385	0.10001087188720703
75	315.7720489501953	fix_pre	0		120	73.0	2.5	/experiments/knapen_AOT/AOT_stimuli/rescaled_final/0762_rv.mp4	0.0	334.51587986946106	1.0001640319824219
75	316.35571908950806	pulse	0	t		73.0	2.5	/experiments/knapen_AOT/AOT_stimuli/rescaled_final/0762_rv.mp4	0.0	335.0995500087738	
75	316.77221298217773	movie	1		244	73.0	2.5	/experiments/knapen_AOT/AOT_stimuli/rescaled_final/0762_rv.mp4	0.0	335.5160439014435	2.500373125076294
75	317.95593905448914	pulse	1	t		73.0	2.5	/experiments/knapen_AOT/AOT_stimuli/rescaled_final/0762_rv.mp4	0.0	336.6997699737549	
75	319.272586107254	fix_post	2		12	73.0	2.5	/experiments/knapen_AOT/AOT_stimuli/rescaled_final/0762_rv.mp4	0.0	338.0164170265198	0.10003304481506348
76	319.3726191520691	fix_pre	0		120	74.0	2.5	/experiments/knapen_AOT/AOT_stimuli/rescaled_final/0834_rv.mp4	0.0	338.11645007133484	1.0000929832458496
76	319.5561671257019	pulse	0	t		74.0	2.5	/experiments/knapen_AOT/AOT_stimuli/rescaled_final/0834_rv.mp4	0.0	338.29999804496765	
76	320.37271213531494	movie	1		243	74.0	2.5	/experiments/knapen_AOT/AOT_stimuli/rescaled_final/0834_rv.mp4	0.0	339.1165430545807	2.5004069805145264
76	321.15640902519226	pulse	1	t		74.0	2.5	/experiments/knapen_AOT/AOT_stimuli/rescaled_final/0834_rv.mp4	0.0	339.900239944458	
76	322.74833512306213	pulse	1	t		74.0	2.5	/experiments/knapen_AOT/AOT_stimuli/rescaled_final/0834_rv.mp4	0.0	341.4921660423279	
76	322.87311911582947	fix_post	2		12	74.0	2.5	/experiments/knapen_AOT/AOT_stimuli/rescaled_final/0834_rv.mp4	0.0	341.6169500350952	0.09997892379760742
77	322.9730980396271	fix_pre	0		117	75.0	2.5	/experiments/knapen_AOT/AOT_stimuli/rescaled_final/1121_rv.mp4	0.0	341.7169289588928	0.9918320178985596
77	323.96493005752563	movie	1		243	75.0	2.5	/experiments/knapen_AOT/AOT_stimuli/rescaled_final/1121_rv.mp4	0.0	342.7087609767914	2.5004069805145264
77	324.3499300479889	pulse	1	t		75.0	2.5	/experiments/knapen_AOT/AOT_stimuli/rescaled_final/1121_rv.mp4	0.0	343.09376096725464	
77	325.9486939907074	pulse	1	t		75.0	2.5	/experiments/knapen_AOT/AOT_stimuli/rescaled_final/1121_rv.mp4	0.0	344.69252490997314	
77	326.46533703804016	fix_post	2		12	75.0	2.5	/experiments/knapen_AOT/AOT_stimuli/rescaled_final/1121_rv.mp4	0.0	345.2091679573059	0.09998393058776855
78	326.56532096862793	fix_pre	0		119	76.0	2.5	blank	1.0	345.3091518878937	0.9917919635772705
78	327.54897809028625	pulse	0	t		76.0	2.5	blank	1.0	346.292809009552	
78	327.5571129322052	movie	1		301	76.0	2.5	blank	1.0	346.30094385147095	2.508754014968872
78	329.14926409721375	pulse	1	t		76.0	2.5	blank	1.0	347.8930950164795	
78	330.0658669471741	fix_post	2		12	76.0	2.5	blank	1.0	348.8096978664398	0.0999910831451416
79	330.1658580303192	fix_pre	0		120	77.0	2.5	/experiments/knapen_AOT/AOT_stimuli/rescaled_final/0209_fw.mp4	0.0	348.90968894958496	1.0002341270446777
79	330.7494571208954	pulse	0	t		77.0	2.5	/experiments/knapen_AOT/AOT_stimuli/rescaled_final/0209_fw.mp4	0.0	349.49328804016113	
79	331.1660921573639	movie	1		244	77.0	2.5	/experiments/knapen_AOT/AOT_stimuli/rescaled_final/0209_fw.mp4	0.0	349.90992307662964	2.5003209114074707
79	332.34977316856384	pulse	1	t		77.0	2.5	/experiments/knapen_AOT/AOT_stimuli/rescaled_final/0209_fw.mp4	0.0	351.0936040878296	
79	333.66641306877136	fix_post	2		12	77.0	2.5	/experiments/knapen_AOT/AOT_stimuli/rescaled_final/0209_fw.mp4	0.0	352.4102439880371	0.10005807876586914
80	333.76647114753723	fix_pre	0		120	78.0	2.5	/experiments/knapen_AOT/AOT_stimuli/rescaled_final/2015_rv.mp4	0.0	352.510302066803	1.000082015991211
80	333.9498989582062	pulse	0	t		78.0	2.5	/experiments/knapen_AOT/AOT_stimuli/rescaled_final/2015_rv.mp4	0.0	352.6937298774719	
80	334.76655316352844	movie	1		242	78.0	2.5	/experiments/knapen_AOT/AOT_stimuli/rescaled_final/2015_rv.mp4	0.0	353.5103840827942	2.5004279613494873
80	335.55033111572266	pulse	1	t		78.0	2.5	/experiments/knapen_AOT/AOT_stimuli/rescaled_final/2015_rv.mp4	0.0	354.2941620349884	
80	337.1501669883728	pulse	1	t		78.0	2.5	/experiments/knapen_AOT/AOT_stimuli/rescaled_final/2015_rv.mp4	0.0	355.89399790763855	
80	337.26698112487793	fix_post	2		12	78.0	2.5	/experiments/knapen_AOT/AOT_stimuli/rescaled_final/2015_rv.mp4	0.0	356.0108120441437	0.10004091262817383
81	337.3670220375061	fix_pre	0		120	79.0	2.5	/experiments/knapen_AOT/AOT_stimuli/rescaled_final/0370_fw.mp4	0.0	356.11085295677185	1.0000460147857666
81	338.36706805229187	movie	1		243	79.0	2.5	/experiments/knapen_AOT/AOT_stimuli/rescaled_final/0370_fw.mp4	0.0	357.1108989715576	2.49208402633667
81	338.7513780593872	pulse	1	t		79.0	2.5	/experiments/knapen_AOT/AOT_stimuli/rescaled_final/0370_fw.mp4	0.0	357.49520897865295	
81	340.3508851528168	pulse	1	t		79.0	2.5	/experiments/knapen_AOT/AOT_stimuli/rescaled_final/0370_fw.mp4	0.0	359.0947160720825	
81	340.85915207862854	fix_post	2		12	79.0	2.5	/experiments/knapen_AOT/AOT_stimuli/rescaled_final/0370_fw.mp4	0.0	359.6029829978943	0.09997105598449707
82	340.95912313461304	fix_pre	0		120	80.0	2.5	/experiments/knapen_AOT/AOT_stimuli/rescaled_final/0076_rv.mp4	0.0	359.7029540538788	1.0001130104064941
82	341.9511170387268	pulse	0	t		80.0	2.5	/experiments/knapen_AOT/AOT_stimuli/rescaled_final/0076_rv.mp4	0.0	360.69494795799255	
82	341.95923614501953	movie	1		244	80.0	2.5	/experiments/knapen_AOT/AOT_stimuli/rescaled_final/0076_rv.mp4	0.0	360.7030670642853	2.5087788105010986
82	343.5518319606781	pulse	1	t		80.0	2.5	/experiments/knapen_AOT/AOT_stimuli/rescaled_final/0076_rv.mp4	0.0	362.29566287994385	
82	344.46801495552063	fix_post	2		12	80.0	2.5	/experiments/knapen_AOT/AOT_stimuli/rescaled_final/0076_rv.mp4	0.0	363.2118458747864	0.09998798370361328
83	344.56800293922424	fix_pre	0		120	81.0	2.5	/experiments/knapen_AOT/AOT_stimuli/rescaled_final/0956_fw.mp4	0.0	363.31183385849	1.0001611709594727
83	345.1516261100769	pulse	0	t		81.0	2.5	/experiments/knapen_AOT/AOT_stimuli/rescaled_final/0956_fw.mp4	0.0	363.89545702934265	
83	345.5681641101837	movie	1		243	81.0	2.5	/experiments/knapen_AOT/AOT_stimuli/rescaled_final/0956_fw.mp4	0.0	364.31199502944946	2.5004358291625977
83	346.75198316574097	pulse	1	t		81.0	2.5	/experiments/knapen_AOT/AOT_stimuli/rescaled_final/0956_fw.mp4	0.0	365.4958140850067	
83	348.0685999393463	fix_post	2		12	81.0	2.5	/experiments/knapen_AOT/AOT_stimuli/rescaled_final/0956_fw.mp4	0.0	366.81243085861206	0.09999799728393555
84	348.16859793663025	fix_pre	0		120	82.0	2.5	blank	1.0	366.912428855896	1.0000982284545898
84	348.3521430492401	pulse	0	t		82.0	2.5	blank	1.0	367.09597396850586	
84	349.16869616508484	movie	1		300	82.0	2.5	blank	1.0	367.9125270843506	2.500426769256592
84	349.95229601860046	pulse	1	t		82.0	2.5	blank	1.0	368.6961269378662	
84	351.552570104599	pulse	1	t		82.0	2.5	blank	1.0	370.29640102386475	
84	351.66912293434143	fix_post	2		12	82.0	2.5	blank	1.0	370.4129538536072	0.09998512268066406
85	351.7691080570221	fix_pre	0		120	83.0	2.5	/experiments/knapen_AOT/AOT_stimuli/rescaled_final/2150_rv.mp4	0.0	370.51293897628784	1.0001180171966553
85	352.76922607421875	movie	1		241	83.0	2.5	/experiments/knapen_AOT/AOT_stimuli/rescaled_final/2150_rv.mp4	0.0	371.5130569934845	2.4920899868011475
85	353.15376114845276	pulse	1	t		83.0	2.5	/experiments/knapen_AOT/AOT_stimuli/rescaled_final/2150_rv.mp4	0.0	371.8975920677185	
85	354.75304102897644	pulse	1	t		83.0	2.5	/experiments/knapen_AOT/AOT_stimuli/rescaled_final/2150_rv.mp4	0.0	373.4968719482422	
85	355.2613160610199	fix_post	2		12	83.0	2.5	/experiments/knapen_AOT/AOT_stimuli/rescaled_final/2150_rv.mp4	0.0	374.00514698028564	0.09997797012329102
87	355.3612940311432	stim	0		1716					374.10512495040894	14.302204132080078
87	356.3533511161804	pulse	0	t						375.09718203544617	
87	357.95354294776917	pulse	0	t						376.6973738670349	
87	359.5536961555481	pulse	0	t						378.29752707481384	
87	361.1539340019226	pulse	0	t						379.89776492118835	
87	362.7542700767517	pulse	0	t						381.49810099601746	
87	364.35457706451416	pulse	0	t						383.0984079837799	
87	365.95469403266907	pulse	0	t						384.6985249519348	
87	367.5548520088196	pulse	0	t						386.2986829280853	
87	369.1551811695099	pulse	0	t						387.89901208877563	
