trial_nr	onset	event_type	phase	response	nr_frames	movie_index	movie_duration	movie_file	blank	onset_abs	duration
0	0.13331007957458496	stim	0		22					110.84045100212097	0.18331289291381836
0	0.3086509704589844	response	0	space						111.01579189300537	
1	0.3166229724884033	stim	0		4727					111.02376389503479	39.39102792739868
1	39.704631090164185	pulse	0	t						150.41177201271057	
1	39.707650899887085	stim	1		1717					150.41479182243347	14.308764219284058
1	41.299925088882446	pulse	1	t						152.00706601142883	
1	42.899943113327026	pulse	1	t						153.6070840358734	
1	44.499876976013184	pulse	1	t						155.20701789855957	
1	46.099956035614014	pulse	1	t						156.8070969581604	
1	47.69989204406738	pulse	1	t						158.40703296661377	
1	49.29990792274475	pulse	1	t						160.00704884529114	
1	50.89994692802429	pulse	1	t						161.60708785057068	
1	52.49993109703064	pulse	1	t						163.20707201957703	
2	54.01641511917114	fix_pre	0		11	0.0	2.5	/experiments/AOT/AOT_stimuli/rescaled_final/2107_rv.mp4	0.0	164.72355604171753	0.0916299819946289
2	54.099945068359375	pulse	0	t		0.0	2.5	/experiments/AOT/AOT_stimuli/rescaled_final/2107_rv.mp4	0.0	164.80708599090576	
2	54.10804510116577	movie	1		246	0.0	2.5	/experiments/AOT/AOT_stimuli/rescaled_final/2107_rv.mp4	0.0	164.81518602371216	2.508391857147217
2	55.7000150680542	pulse	1	t		0.0	2.5	/experiments/AOT/AOT_stimuli/rescaled_final/2107_rv.mp4	0.0	166.4071559906006	
2	56.61643695831299	fix_post	2		12	0.0	2.5	/experiments/AOT/AOT_stimuli/rescaled_final/2107_rv.mp4	0.0	167.32357788085938	0.0999150276184082
3	56.7163519859314	fix_pre	0		120	1.0	2.5	/experiments/AOT/AOT_stimuli/rescaled_final/1361_rv.mp4	0.0	167.42349290847778	0.9996440410614014
3	57.29982089996338	pulse	0	t		1.0	2.5	/experiments/AOT/AOT_stimuli/rescaled_final/1361_rv.mp4	0.0	168.00696182250977	
3	57.7159960269928	movie	1		244	1.0	2.5	/experiments/AOT/AOT_stimuli/rescaled_final/1361_rv.mp4	0.0	168.42313694953918	2.5003678798675537
3	58.899888038635254	pulse	1	t		1.0	2.5	/experiments/AOT/AOT_stimuli/rescaled_final/1361_rv.mp4	0.0	169.60702896118164	
3	60.21636390686035	fix_post	2		12	1.0	2.5	/experiments/AOT/AOT_stimuli/rescaled_final/1361_rv.mp4	0.0	170.92350482940674	0.09998917579650879
4	60.31635308265686	fix_pre	0		120	2.0	2.5	/experiments/AOT/AOT_stimuli/rescaled_final/0268_rv.mp4	0.0	171.02349400520325	0.9996719360351562
4	60.4997820854187	pulse	0	t		2.0	2.5	/experiments/AOT/AOT_stimuli/rescaled_final/0268_rv.mp4	0.0	171.2069230079651	
4	61.31602501869202	movie	1		244	2.0	2.5	/experiments/AOT/AOT_stimuli/rescaled_final/0268_rv.mp4	0.0	172.0231659412384	2.4998950958251953
4	62.09984302520752	pulse	1	t		2.0	2.5	/experiments/AOT/AOT_stimuli/rescaled_final/0268_rv.mp4	0.0	172.8069839477539	
4	63.70819091796875	pulse	1	t		2.0	2.5	/experiments/AOT/AOT_stimuli/rescaled_final/0268_rv.mp4	0.0	174.41533184051514	
4	63.81592011451721	fix_post	2		12	2.0	2.5	/experiments/AOT/AOT_stimuli/rescaled_final/0268_rv.mp4	0.0	174.5230610370636	0.10041689872741699
5	63.91633701324463	fix_pre	0		120	3.0	2.5	/experiments/AOT/AOT_stimuli/rescaled_final/1359_fw.mp4	0.0	174.62347793579102	0.9999721050262451
5	64.91630911827087	movie	1		243	3.0	2.5	/experiments/AOT/AOT_stimuli/rescaled_final/1359_fw.mp4	0.0	175.62345004081726	2.4996488094329834
5	65.29986190795898	pulse	1	t		3.0	2.5	/experiments/AOT/AOT_stimuli/rescaled_final/1359_fw.mp4	0.0	176.00700283050537	
5	66.89977192878723	pulse	1	t		3.0	2.5	/experiments/AOT/AOT_stimuli/rescaled_final/1359_fw.mp4	0.0	177.60691285133362	
5	67.41595792770386	fix_post	2		12	3.0	2.5	/experiments/AOT/AOT_stimuli/rescaled_final/1359_fw.mp4	0.0	178.12309885025024	0.10041213035583496
6	67.51637005805969	fix_pre	0		119	4.0	2.5	/experiments/AOT/AOT_stimuli/rescaled_final/0146_fw.mp4	0.0	178.22351098060608	0.9915950298309326
6	68.49986791610718	pulse	0	t		4.0	2.5	/experiments/AOT/AOT_stimuli/rescaled_final/0146_fw.mp4	0.0	179.20700883865356	
6	68.50796508789062	movie	1		245	4.0	2.5	/experiments/AOT/AOT_stimuli/rescaled_final/0146_fw.mp4	0.0	179.215106010437	2.5082709789276123
6	70.0998899936676	pulse	1	t		4.0	2.5	/experiments/AOT/AOT_stimuli/rescaled_final/0146_fw.mp4	0.0	180.807030916214	
6	71.01623606681824	fix_post	2		12	4.0	2.5	/experiments/AOT/AOT_stimuli/rescaled_final/0146_fw.mp4	0.0	181.72337698936462	0.10008001327514648
7	71.11631608009338	fix_pre	0		120	5.0	2.5	blank	1.0	181.82345700263977	0.9999828338623047
7	71.69981503486633	pulse	0	t		5.0	2.5	blank	1.0	182.40695595741272	
7	72.11629891395569	movie	1		300	5.0	2.5	blank	1.0	182.82343983650208	2.499911069869995
7	73.30053806304932	pulse	1	t		5.0	2.5	blank	1.0	184.0076789855957	
7	74.61620998382568	fix_post	2		12	5.0	2.5	blank	1.0	185.32335090637207	0.10006594657897949
8	74.71627593040466	fix_pre	0		120	6.0	2.5	/experiments/AOT/AOT_stimuli/rescaled_final/1477_fw.mp4	0.0	185.42341685295105	0.9995791912078857
8	74.89982604980469	pulse	0	t		6.0	2.5	/experiments/AOT/AOT_stimuli/rescaled_final/1477_fw.mp4	0.0	185.60696697235107	
8	75.71585512161255	movie	1		244	6.0	2.5	/experiments/AOT/AOT_stimuli/rescaled_final/1477_fw.mp4	0.0	186.42299604415894	2.50044584274292
8	76.49973893165588	pulse	1	t		6.0	2.5	/experiments/AOT/AOT_stimuli/rescaled_final/1477_fw.mp4	0.0	187.20687985420227	
8	78.10822105407715	pulse	1	t		6.0	2.5	/experiments/AOT/AOT_stimuli/rescaled_final/1477_fw.mp4	0.0	188.81536197662354	
8	78.21630096435547	fix_post	2		12	6.0	2.5	/experiments/AOT/AOT_stimuli/rescaled_final/1477_fw.mp4	0.0	188.92344188690186	0.09995508193969727
9	78.31625604629517	fix_pre	0		120	7.0	2.5	/experiments/AOT/AOT_stimuli/rescaled_final/1111_fw.mp4	0.0	189.02339696884155	0.9995739459991455
9	79.31582999229431	movie	1		243	7.0	2.5	/experiments/AOT/AOT_stimuli/rescaled_final/1111_fw.mp4	0.0	190.0229709148407	2.5004570484161377
9	79.69968104362488	pulse	1	t		7.0	2.5	/experiments/AOT/AOT_stimuli/rescaled_final/1111_fw.mp4	0.0	190.40682196617126	
9	81.29976105690002	pulse	1	t		7.0	2.5	/experiments/AOT/AOT_stimuli/rescaled_final/1111_fw.mp4	0.0	192.0069019794464	
9	81.81628704071045	fix_post	2		12	7.0	2.5	/experiments/AOT/AOT_stimuli/rescaled_final/1111_fw.mp4	0.0	192.52342796325684	0.09959197044372559
10	81.91587901115417	fix_pre	0		119	8.0	2.5	/experiments/AOT/AOT_stimuli/rescaled_final/0497_fw.mp4	0.0	192.62301993370056	0.9920749664306641
10	82.89974093437195	pulse	0	t		8.0	2.5	/experiments/AOT/AOT_stimuli/rescaled_final/0497_fw.mp4	0.0	193.60688185691833	
10	82.90795397758484	movie	1		245	8.0	2.5	/experiments/AOT/AOT_stimuli/rescaled_final/0497_fw.mp4	0.0	193.61509490013123	2.5083470344543457
10	84.49957990646362	pulse	1	t		8.0	2.5	/experiments/AOT/AOT_stimuli/rescaled_final/0497_fw.mp4	0.0	195.20672082901	
10	85.41630101203918	fix_post	2		12	8.0	2.5	/experiments/AOT/AOT_stimuli/rescaled_final/0497_fw.mp4	0.0	196.12344193458557	0.10004305839538574
11	85.51634407043457	fix_pre	0		120	9.0	2.5	/experiments/AOT/AOT_stimuli/rescaled_final/0191_rv.mp4	0.0	196.22348499298096	0.9998948574066162
11	86.09969592094421	pulse	0	t		9.0	2.5	/experiments/AOT/AOT_stimuli/rescaled_final/0191_rv.mp4	0.0	196.8068368434906	
11	86.51623892784119	movie	1		245	9.0	2.5	/experiments/AOT/AOT_stimuli/rescaled_final/0191_rv.mp4	0.0	197.22337985038757	2.499782085418701
11	87.69984006881714	pulse	1	t		9.0	2.5	/experiments/AOT/AOT_stimuli/rescaled_final/0191_rv.mp4	0.0	198.40698099136353	
11	89.01602101325989	fix_post	2		12	9.0	2.5	/experiments/AOT/AOT_stimuli/rescaled_final/0191_rv.mp4	0.0	199.72316193580627	0.10025405883789062
12	89.11627507209778	fix_pre	0		120	10.0	2.5	/experiments/AOT/AOT_stimuli/rescaled_final/1412_fw.mp4	0.0	199.82341599464417	1.0001499652862549
12	89.30018210411072	pulse	0	t		10.0	2.5	/experiments/AOT/AOT_stimuli/rescaled_final/1412_fw.mp4	0.0	200.0073230266571	
12	90.11642503738403	movie	1		242	10.0	2.5	/experiments/AOT/AOT_stimuli/rescaled_final/1412_fw.mp4	0.0	200.82356595993042	2.5003809928894043
12	90.89973902702332	pulse	1	t		10.0	2.5	/experiments/AOT/AOT_stimuli/rescaled_final/1412_fw.mp4	0.0	201.6068799495697	
12	92.50822305679321	pulse	1	t		10.0	2.5	/experiments/AOT/AOT_stimuli/rescaled_final/1412_fw.mp4	0.0	203.2153639793396	
12	92.61680603027344	fix_post	2		12	10.0	2.5	/experiments/AOT/AOT_stimuli/rescaled_final/1412_fw.mp4	0.0	203.32394695281982	0.09942197799682617
13	92.71622800827026	fix_pre	0		120	11.0	2.5	/experiments/AOT/AOT_stimuli/rescaled_final/0662_rv.mp4	0.0	203.42336893081665	1.0000109672546387
13	93.7162389755249	movie	1		245	11.0	2.5	/experiments/AOT/AOT_stimuli/rescaled_final/0662_rv.mp4	0.0	204.4233798980713	2.5000081062316895
13	94.09974503517151	pulse	1	t		11.0	2.5	/experiments/AOT/AOT_stimuli/rescaled_final/0662_rv.mp4	0.0	204.8068859577179	
13	95.69970798492432	pulse	1	t		11.0	2.5	/experiments/AOT/AOT_stimuli/rescaled_final/0662_rv.mp4	0.0	206.4068489074707	
13	96.21624708175659	fix_post	2		12	11.0	2.5	/experiments/AOT/AOT_stimuli/rescaled_final/0662_rv.mp4	0.0	206.92338800430298	0.09994792938232422
14	96.31619501113892	fix_pre	0		119	12.0	2.5	/experiments/AOT/AOT_stimuli/rescaled_final/1944_fw.mp4	0.0	207.0233359336853	0.991645097732544
14	97.2997260093689	pulse	0	t		12.0	2.5	/experiments/AOT/AOT_stimuli/rescaled_final/1944_fw.mp4	0.0	208.00686693191528	
14	97.30784010887146	movie	1		247	12.0	2.5	/experiments/AOT/AOT_stimuli/rescaled_final/1944_fw.mp4	0.0	208.01498103141785	2.5083630084991455
14	98.89963507652283	pulse	1	t		12.0	2.5	/experiments/AOT/AOT_stimuli/rescaled_final/1944_fw.mp4	0.0	209.6067759990692	
14	99.8162031173706	fix_post	2		12	12.0	2.5	/experiments/AOT/AOT_stimuli/rescaled_final/1944_fw.mp4	0.0	210.523344039917	0.09996891021728516
15	99.91617202758789	fix_pre	0		120	13.0	2.5	blank	1.0	210.62331295013428	0.9999980926513672
15	100.49965190887451	pulse	0	t		13.0	2.5	blank	1.0	211.2067928314209	
15	100.91617012023926	movie	1		300	13.0	2.5	blank	1.0	211.62331104278564	2.499612808227539
15	102.09965491294861	pulse	1	t		13.0	2.5	blank	1.0	212.806795835495	
15	103.4157829284668	fix_post	2		12	13.0	2.5	blank	1.0	214.12292385101318	0.1004340648651123
16	103.51621699333191	fix_pre	0		120	14.0	2.5	/experiments/AOT/AOT_stimuli/rescaled_final/0004_fw.mp4	0.0	214.2233579158783	0.9999971389770508
16	103.69971299171448	pulse	0	t		14.0	2.5	/experiments/AOT/AOT_stimuli/rescaled_final/0004_fw.mp4	0.0	214.40685391426086	
16	104.51621413230896	movie	1		242	14.0	2.5	/experiments/AOT/AOT_stimuli/rescaled_final/0004_fw.mp4	0.0	215.22335505485535	2.499931812286377
16	105.30051112174988	pulse	1	t		14.0	2.5	/experiments/AOT/AOT_stimuli/rescaled_final/0004_fw.mp4	0.0	216.00765204429626	
16	106.90797400474548	pulse	1	t		14.0	2.5	/experiments/AOT/AOT_stimuli/rescaled_final/0004_fw.mp4	0.0	217.61511492729187	
16	107.01614594459534	fix_post	2		12	14.0	2.5	/experiments/AOT/AOT_stimuli/rescaled_final/0004_fw.mp4	0.0	217.72328686714172	0.10001397132873535
17	107.11615991592407	fix_pre	0		120	15.0	2.5	/experiments/AOT/AOT_stimuli/rescaled_final/1015_fw.mp4	0.0	217.82330083847046	1.0000410079956055
17	108.11620092391968	movie	1		244	15.0	2.5	/experiments/AOT/AOT_stimuli/rescaled_final/1015_fw.mp4	0.0	218.82334184646606	2.499906063079834
17	108.50067400932312	pulse	1	t		15.0	2.5	/experiments/AOT/AOT_stimuli/rescaled_final/1015_fw.mp4	0.0	219.2078149318695	
17	110.09971213340759	pulse	1	t		15.0	2.5	/experiments/AOT/AOT_stimuli/rescaled_final/1015_fw.mp4	0.0	220.80685305595398	
17	110.61610698699951	fix_post	2		12	15.0	2.5	/experiments/AOT/AOT_stimuli/rescaled_final/1015_fw.mp4	0.0	221.3232479095459	0.09998893737792969
18	110.71609592437744	fix_pre	0		119	16.0	2.5	/experiments/AOT/AOT_stimuli/rescaled_final/0847_fw.mp4	0.0	221.42323684692383	0.9916930198669434
18	111.69969010353088	pulse	0	t		16.0	2.5	/experiments/AOT/AOT_stimuli/rescaled_final/0847_fw.mp4	0.0	222.40683102607727	
18	111.70778894424438	movie	1		245	16.0	2.5	/experiments/AOT/AOT_stimuli/rescaled_final/0847_fw.mp4	0.0	222.41492986679077	2.50823712348938
18	113.30801105499268	pulse	1	t		16.0	2.5	/experiments/AOT/AOT_stimuli/rescaled_final/0847_fw.mp4	0.0	224.01515197753906	
18	114.21602606773376	fix_post	2		12	16.0	2.5	/experiments/AOT/AOT_stimuli/rescaled_final/0847_fw.mp4	0.0	224.92316699028015	0.10004687309265137
19	114.31607294082642	fix_pre	0		120	17.0	2.5	/experiments/AOT/AOT_stimuli/rescaled_final/0497_rv.mp4	0.0	225.0232138633728	1.0000560283660889
19	114.89954400062561	pulse	0	t		17.0	2.5	/experiments/AOT/AOT_stimuli/rescaled_final/0497_rv.mp4	0.0	225.606684923172	
19	115.3161289691925	movie	1		246	17.0	2.5	/experiments/AOT/AOT_stimuli/rescaled_final/0497_rv.mp4	0.0	226.0232698917389	2.4999611377716064
19	116.49962306022644	pulse	1	t		17.0	2.5	/experiments/AOT/AOT_stimuli/rescaled_final/0497_rv.mp4	0.0	227.20676398277283	
19	117.81609010696411	fix_post	2		12	17.0	2.5	/experiments/AOT/AOT_stimuli/rescaled_final/0497_rv.mp4	0.0	228.5232310295105	0.09996390342712402
20	117.91605401039124	fix_pre	0		120	18.0	2.5	/experiments/AOT/AOT_stimuli/rescaled_final/1189_fw.mp4	0.0	228.62319493293762	1.000114917755127
20	118.09964394569397	pulse	0	t		18.0	2.5	/experiments/AOT/AOT_stimuli/rescaled_final/1189_fw.mp4	0.0	228.80678486824036	
20	118.91616892814636	movie	1		245	18.0	2.5	/experiments/AOT/AOT_stimuli/rescaled_final/1189_fw.mp4	0.0	229.62330985069275	2.4999630451202393
20	119.69964790344238	pulse	1	t		18.0	2.5	/experiments/AOT/AOT_stimuli/rescaled_final/1189_fw.mp4	0.0	230.40678882598877	
20	121.30046606063843	pulse	1	t		18.0	2.5	/experiments/AOT/AOT_stimuli/rescaled_final/1189_fw.mp4	0.0	232.00760698318481	
20	121.4161319732666	fix_post	2		12	18.0	2.5	/experiments/AOT/AOT_stimuli/rescaled_final/1189_fw.mp4	0.0	232.123272895813	0.09994792938232422
21	121.51607990264893	fix_pre	0		120	19.0	2.5	/experiments/AOT/AOT_stimuli/rescaled_final/1776_fw.mp4	0.0	232.2232208251953	0.9999790191650391
21	122.51605892181396	movie	1		244	19.0	2.5	/experiments/AOT/AOT_stimuli/rescaled_final/1776_fw.mp4	0.0	233.22319984436035	2.5000221729278564
21	122.90797996520996	pulse	1	t		19.0	2.5	/experiments/AOT/AOT_stimuli/rescaled_final/1776_fw.mp4	0.0	233.61512088775635	
21	124.5004301071167	pulse	1	t		19.0	2.5	/experiments/AOT/AOT_stimuli/rescaled_final/1776_fw.mp4	0.0	235.2075710296631	
21	125.01608109474182	fix_post	2		12	19.0	2.5	/experiments/AOT/AOT_stimuli/rescaled_final/1776_fw.mp4	0.0	235.7232220172882	0.09967803955078125
22	125.1157591342926	fix_pre	0		119	20.0	2.5	/experiments/AOT/AOT_stimuli/rescaled_final/1347_rv.mp4	0.0	235.822900056839	0.9920139312744141
22	126.09962606430054	pulse	0	t		20.0	2.5	/experiments/AOT/AOT_stimuli/rescaled_final/1347_rv.mp4	0.0	236.80676698684692	
22	126.10777306556702	movie	1		246	20.0	2.5	/experiments/AOT/AOT_stimuli/rescaled_final/1347_rv.mp4	0.0	236.8149139881134	2.507856845855713
22	127.70798301696777	pulse	1	t		20.0	2.5	/experiments/AOT/AOT_stimuli/rescaled_final/1347_rv.mp4	0.0	238.41512393951416	
22	128.61562991142273	fix_post	2		12	20.0	2.5	/experiments/AOT/AOT_stimuli/rescaled_final/1347_rv.mp4	0.0	239.32277083396912	0.10049104690551758
23	128.71612095832825	fix_pre	0		120	21.0	2.5	blank	1.0	239.42326188087463	0.9999740123748779
23	129.2997329235077	pulse	0	t		21.0	2.5	blank	1.0	240.00687384605408	
23	129.71609497070312	movie	1		300	21.0	2.5	blank	1.0	240.4232358932495	2.4995570182800293
23	130.89952111244202	pulse	1	t		21.0	2.5	blank	1.0	241.6066620349884	
23	132.21565198898315	fix_post	2		12	21.0	2.5	blank	1.0	242.92279291152954	0.10038113594055176
24	132.3160331249237	fix_pre	0		120	22.0	2.5	/experiments/AOT/AOT_stimuli/rescaled_final/0781_rv.mp4	0.0	243.0231740474701	1.000020980834961
24	132.49955105781555	pulse	0	t		22.0	2.5	/experiments/AOT/AOT_stimuli/rescaled_final/0781_rv.mp4	0.0	243.20669198036194	
24	133.31605410575867	movie	1		244	22.0	2.5	/experiments/AOT/AOT_stimuli/rescaled_final/0781_rv.mp4	0.0	244.02319502830505	2.499992847442627
24	134.09953904151917	pulse	1	t		22.0	2.5	/experiments/AOT/AOT_stimuli/rescaled_final/0781_rv.mp4	0.0	244.80667996406555	
24	135.70792603492737	pulse	1	t		22.0	2.5	/experiments/AOT/AOT_stimuli/rescaled_final/0781_rv.mp4	0.0	246.41506695747375	
24	135.8160469532013	fix_post	2		12	22.0	2.5	/experiments/AOT/AOT_stimuli/rescaled_final/0781_rv.mp4	0.0	246.52318787574768	0.09994816780090332
25	135.9159951210022	fix_pre	0		120	23.0	2.5	/experiments/AOT/AOT_stimuli/rescaled_final/1144_rv.mp4	0.0	246.62313604354858	1.0000050067901611
25	136.91600012779236	movie	1		243	23.0	2.5	/experiments/AOT/AOT_stimuli/rescaled_final/1144_rv.mp4	0.0	247.62314105033875	2.5000579357147217
25	137.30046105384827	pulse	1	t		23.0	2.5	/experiments/AOT/AOT_stimuli/rescaled_final/1144_rv.mp4	0.0	248.00760197639465	
25	138.900386095047	pulse	1	t		23.0	2.5	/experiments/AOT/AOT_stimuli/rescaled_final/1144_rv.mp4	0.0	249.60752701759338	
25	139.41605806350708	fix_post	2		12	23.0	2.5	/experiments/AOT/AOT_stimuli/rescaled_final/1144_rv.mp4	0.0	250.12319898605347	0.09997200965881348
26	139.5160300731659	fix_pre	0		120	24.0	2.5	/experiments/AOT/AOT_stimuli/rescaled_final/1696_rv.mp4	0.0	250.22317099571228	0.9999289512634277
26	140.5003480911255	pulse	0	t		24.0	2.5	/experiments/AOT/AOT_stimuli/rescaled_final/1696_rv.mp4	0.0	251.20748901367188	
26	140.51595902442932	movie	1		244	24.0	2.5	/experiments/AOT/AOT_stimuli/rescaled_final/1696_rv.mp4	0.0	251.2230999469757	2.5080161094665527
26	142.09970712661743	pulse	1	t		24.0	2.5	/experiments/AOT/AOT_stimuli/rescaled_final/1696_rv.mp4	0.0	252.80684804916382	
26	143.02397513389587	fix_post	2		12	24.0	2.5	/experiments/AOT/AOT_stimuli/rescaled_final/1696_rv.mp4	0.0	253.73111605644226	0.10033392906188965
27	143.12430906295776	fix_pre	0		120	25.0	2.5	/experiments/AOT/AOT_stimuli/rescaled_final/1202_fw.mp4	0.0	253.83144998550415	0.99965500831604
27	143.6998450756073	pulse	0	t		25.0	2.5	/experiments/AOT/AOT_stimuli/rescaled_final/1202_fw.mp4	0.0	254.4069859981537	
27	144.1239640712738	movie	1		245	25.0	2.5	/experiments/AOT/AOT_stimuli/rescaled_final/1202_fw.mp4	0.0	254.8311049938202	2.5002379417419434
27	145.30799293518066	pulse	1	t		25.0	2.5	/experiments/AOT/AOT_stimuli/rescaled_final/1202_fw.mp4	0.0	256.01513385772705	
27	146.62420201301575	fix_post	2		12	25.0	2.5	/experiments/AOT/AOT_stimuli/rescaled_final/1202_fw.mp4	0.0	257.33134293556213	0.09998393058776855
28	146.72418594360352	fix_pre	0		120	26.0	2.5	/experiments/AOT/AOT_stimuli/rescaled_final/0148_fw.mp4	0.0	257.4313268661499	0.9997119903564453
28	146.8994140625	pulse	0	t		26.0	2.5	/experiments/AOT/AOT_stimuli/rescaled_final/0148_fw.mp4	0.0	257.6065549850464	
28	147.72389793395996	movie	1		244	26.0	2.5	/experiments/AOT/AOT_stimuli/rescaled_final/0148_fw.mp4	0.0	258.43103885650635	2.5004281997680664
28	148.49933099746704	pulse	1	t		26.0	2.5	/experiments/AOT/AOT_stimuli/rescaled_final/0148_fw.mp4	0.0	259.2064719200134	
28	150.0993731021881	pulse	1	t		26.0	2.5	/experiments/AOT/AOT_stimuli/rescaled_final/0148_fw.mp4	0.0	260.8065140247345	
28	150.22432613372803	fix_post	2		12	26.0	2.5	/experiments/AOT/AOT_stimuli/rescaled_final/0148_fw.mp4	0.0	260.9314670562744	0.09995484352111816
29	150.32428097724915	fix_pre	0		120	27.0	2.5	blank	1.0	261.03142189979553	1.0000090599060059
29	151.32429003715515	movie	1		300	27.0	2.5	blank	1.0	262.03143095970154	2.4995548725128174
29	151.69939303398132	pulse	1	t		27.0	2.5	blank	1.0	262.4065339565277	
29	153.3001070022583	pulse	1	t		27.0	2.5	blank	1.0	264.0072479248047	
29	153.82384490966797	fix_post	2		12	27.0	2.5	blank	1.0	264.53098583221436	0.1003720760345459
30	153.92421698570251	fix_pre	0		119	28.0	2.5	/experiments/AOT/AOT_stimuli/rescaled_final/0354_rv.mp4	0.0	264.6313579082489	0.9916949272155762
30	154.9003200531006	pulse	0	t		28.0	2.5	/experiments/AOT/AOT_stimuli/rescaled_final/0354_rv.mp4	0.0	265.607460975647	
30	154.9159119129181	movie	1		246	28.0	2.5	/experiments/AOT/AOT_stimuli/rescaled_final/0354_rv.mp4	0.0	265.6230528354645	2.508235216140747
30	156.5069649219513	pulse	1	t		28.0	2.5	/experiments/AOT/AOT_stimuli/rescaled_final/0354_rv.mp4	0.0	267.2141058444977	
30	157.42414712905884	fix_post	2		12	28.0	2.5	/experiments/AOT/AOT_stimuli/rescaled_final/0354_rv.mp4	0.0	268.1312880516052	0.09967494010925293
31	157.5238220691681	fix_pre	0		120	29.0	2.5	/experiments/AOT/AOT_stimuli/rescaled_final/1165_rv.mp4	0.0	268.2309629917145	1.0004019737243652
31	158.1000850200653	pulse	0	t		29.0	2.5	/experiments/AOT/AOT_stimuli/rescaled_final/1165_rv.mp4	0.0	268.8072259426117	
31	158.52422404289246	movie	1		246	29.0	2.5	/experiments/AOT/AOT_stimuli/rescaled_final/1165_rv.mp4	0.0	269.23136496543884	2.4995479583740234
31	159.70776200294495	pulse	1	t		29.0	2.5	/experiments/AOT/AOT_stimuli/rescaled_final/1165_rv.mp4	0.0	270.41490292549133	
31	161.02377200126648	fix_post	2		12	29.0	2.5	/experiments/AOT/AOT_stimuli/rescaled_final/1165_rv.mp4	0.0	271.73091292381287	0.10045409202575684
32	161.12422609329224	fix_pre	0		120	30.0	2.5	/experiments/AOT/AOT_stimuli/rescaled_final/1347_fw.mp4	0.0	271.8313670158386	1.0000088214874268
32	161.30015397071838	pulse	0	t		30.0	2.5	/experiments/AOT/AOT_stimuli/rescaled_final/1347_fw.mp4	0.0	272.00729489326477	
32	162.12423491477966	movie	1		246	30.0	2.5	/experiments/AOT/AOT_stimuli/rescaled_final/1347_fw.mp4	0.0	272.83137583732605	2.4998910427093506
32	162.899405002594	pulse	1	t		30.0	2.5	/experiments/AOT/AOT_stimuli/rescaled_final/1347_fw.mp4	0.0	273.6065459251404	
32	164.49940609931946	pulse	1	t		30.0	2.5	/experiments/AOT/AOT_stimuli/rescaled_final/1347_fw.mp4	0.0	275.20654702186584	
32	164.624125957489	fix_post	2		12	30.0	2.5	/experiments/AOT/AOT_stimuli/rescaled_final/1347_fw.mp4	0.0	275.3312668800354	0.10005903244018555
33	164.7241849899292	fix_pre	0		120	31.0	2.5	/experiments/AOT/AOT_stimuli/rescaled_final/1652_rv.mp4	0.0	275.4313259124756	0.9999730587005615
33	165.72415804862976	movie	1		244	31.0	2.5	/experiments/AOT/AOT_stimuli/rescaled_final/1652_rv.mp4	0.0	276.43129897117615	2.499642848968506
33	166.09936094284058	pulse	1	t		31.0	2.5	/experiments/AOT/AOT_stimuli/rescaled_final/1652_rv.mp4	0.0	276.80650186538696	
33	167.69938898086548	pulse	1	t		31.0	2.5	/experiments/AOT/AOT_stimuli/rescaled_final/1652_rv.mp4	0.0	278.40652990341187	
33	168.22380089759827	fix_post	2		12	31.0	2.5	/experiments/AOT/AOT_stimuli/rescaled_final/1652_rv.mp4	0.0	278.93094182014465	0.10039710998535156
34	168.32419800758362	fix_pre	0		119	32.0	2.5	/experiments/AOT/AOT_stimuli/rescaled_final/0279_fw.mp4	0.0	279.03133893013	0.9917171001434326
34	169.30016493797302	pulse	0	t		32.0	2.5	/experiments/AOT/AOT_stimuli/rescaled_final/0279_fw.mp4	0.0	280.0073058605194	
34	169.31591510772705	movie	1		247	32.0	2.5	/experiments/AOT/AOT_stimuli/rescaled_final/0279_fw.mp4	0.0	280.02305603027344	2.5083630084991455
34	170.9072709083557	pulse	1	t		32.0	2.5	/experiments/AOT/AOT_stimuli/rescaled_final/0279_fw.mp4	0.0	281.6144118309021	
34	171.8242781162262	fix_post	2		12	32.0	2.5	/experiments/AOT/AOT_stimuli/rescaled_final/0279_fw.mp4	0.0	282.5314190387726	0.09988284111022949
35	171.92416095733643	fix_pre	0		120	33.0	2.5	/experiments/AOT/AOT_stimuli/rescaled_final/0569_fw.mp4	0.0	282.6313018798828	1.0000810623168945
35	172.50018191337585	pulse	0	t		33.0	2.5	/experiments/AOT/AOT_stimuli/rescaled_final/0569_fw.mp4	0.0	283.20732283592224	
35	172.92424201965332	movie	1		245	33.0	2.5	/experiments/AOT/AOT_stimuli/rescaled_final/0569_fw.mp4	0.0	283.6313829421997	2.499480962753296
35	174.10789489746094	pulse	1	t		33.0	2.5	/experiments/AOT/AOT_stimuli/rescaled_final/0569_fw.mp4	0.0	284.8150358200073	
35	175.42372298240662	fix_post	2		12	33.0	2.5	/experiments/AOT/AOT_stimuli/rescaled_final/0569_fw.mp4	0.0	286.130863904953	0.09991693496704102
36	175.52363991737366	fix_pre	0		120	34.0	2.5	blank	1.0	286.23078083992004	1.0005149841308594
36	175.70025396347046	pulse	0	t		34.0	2.5	blank	1.0	286.40739488601685	
36	176.52415490150452	movie	1		300	34.0	2.5	blank	1.0	287.2312958240509	2.5000240802764893
36	177.30014395713806	pulse	1	t		34.0	2.5	blank	1.0	288.00728487968445	
36	178.89931297302246	pulse	1	t		34.0	2.5	blank	1.0	289.60645389556885	
36	179.024178981781	fix_post	2		12	34.0	2.5	blank	1.0	289.7313199043274	0.09994006156921387
37	179.12411904335022	fix_pre	0		120	35.0	2.5	/experiments/AOT/AOT_stimuli/rescaled_final/0489_fw.mp4	0.0	289.8312599658966	1.0000689029693604
37	180.12418794631958	movie	1		245	35.0	2.5	/experiments/AOT/AOT_stimuli/rescaled_final/0489_fw.mp4	0.0	290.83132886886597	2.499962091445923
37	180.49937391281128	pulse	1	t		35.0	2.5	/experiments/AOT/AOT_stimuli/rescaled_final/0489_fw.mp4	0.0	291.20651483535767	
37	182.0994999408722	pulse	1	t		35.0	2.5	/experiments/AOT/AOT_stimuli/rescaled_final/0489_fw.mp4	0.0	292.8066408634186	
37	182.6241500377655	fix_post	2		12	35.0	2.5	/experiments/AOT/AOT_stimuli/rescaled_final/0489_fw.mp4	0.0	293.3312909603119	0.10001707077026367
38	182.72416710853577	fix_pre	0		118	36.0	2.5	/experiments/AOT/AOT_stimuli/rescaled_final/0426_fw.mp4	0.0	293.43130803108215	0.983273983001709
38	183.69932413101196	pulse	0	t		36.0	2.5	/experiments/AOT/AOT_stimuli/rescaled_final/0426_fw.mp4	0.0	294.40646505355835	
38	183.70744109153748	movie	1		246	36.0	2.5	/experiments/AOT/AOT_stimuli/rescaled_final/0426_fw.mp4	0.0	294.41458201408386	2.508056879043579
38	185.30772399902344	pulse	1	t		36.0	2.5	/experiments/AOT/AOT_stimuli/rescaled_final/0426_fw.mp4	0.0	296.0148649215698	
38	186.21549797058105	fix_post	2		12	36.0	2.5	/experiments/AOT/AOT_stimuli/rescaled_final/0426_fw.mp4	0.0	296.92263889312744	0.10025811195373535
39	186.3157560825348	fix_pre	0		120	37.0	2.5	/experiments/AOT/AOT_stimuli/rescaled_final/1111_rv.mp4	0.0	297.0228970050812	1.0000169277191162
39	186.90006494522095	pulse	0	t		37.0	2.5	/experiments/AOT/AOT_stimuli/rescaled_final/1111_rv.mp4	0.0	297.60720586776733	
39	187.3157730102539	movie	1		243	37.0	2.5	/experiments/AOT/AOT_stimuli/rescaled_final/1111_rv.mp4	0.0	298.0229139328003	2.4999840259552
39	188.50019001960754	pulse	1	t		37.0	2.5	/experiments/AOT/AOT_stimuli/rescaled_final/1111_rv.mp4	0.0	299.20733094215393	
39	189.8157570362091	fix_post	2		12	37.0	2.5	/experiments/AOT/AOT_stimuli/rescaled_final/1111_rv.mp4	0.0	300.5228979587555	0.09961891174316406
40	189.91537594795227	fix_pre	0		120	38.0	2.5	/experiments/AOT/AOT_stimuli/rescaled_final/0495_rv.mp4	0.0	300.62251687049866	0.9999589920043945
40	190.1000759601593	pulse	0	t		38.0	2.5	/experiments/AOT/AOT_stimuli/rescaled_final/0495_rv.mp4	0.0	300.8072168827057	
40	190.91533493995667	movie	1		244	38.0	2.5	/experiments/AOT/AOT_stimuli/rescaled_final/0495_rv.mp4	0.0	301.62247586250305	2.5002219676971436
40	191.7002100944519	pulse	1	t		38.0	2.5	/experiments/AOT/AOT_stimuli/rescaled_final/0495_rv.mp4	0.0	302.4073510169983	
40	193.30756402015686	pulse	1	t		38.0	2.5	/experiments/AOT/AOT_stimuli/rescaled_final/0495_rv.mp4	0.0	304.01470494270325	
40	193.4155569076538	fix_post	2		12	38.0	2.5	/experiments/AOT/AOT_stimuli/rescaled_final/0495_rv.mp4	0.0	304.1226978302002	0.10020112991333008
41	193.51575803756714	fix_pre	0		120	39.0	2.5	/experiments/AOT/AOT_stimuli/rescaled_final/1492_fw.mp4	0.0	304.2228989601135	0.9999270439147949
41	194.51568508148193	movie	1		243	39.0	2.5	/experiments/AOT/AOT_stimuli/rescaled_final/1492_fw.mp4	0.0	305.2228260040283	2.5000178813934326
41	194.9003620147705	pulse	1	t		39.0	2.5	/experiments/AOT/AOT_stimuli/rescaled_final/1492_fw.mp4	0.0	305.6075029373169	
41	196.50016713142395	pulse	1	t		39.0	2.5	/experiments/AOT/AOT_stimuli/rescaled_final/1492_fw.mp4	0.0	307.20730805397034	
41	197.01570296287537	fix_post	2		12	39.0	2.5	/experiments/AOT/AOT_stimuli/rescaled_final/1492_fw.mp4	0.0	307.72284388542175	0.10019803047180176
42	197.11590099334717	fix_pre	0		119	40.0	2.5	/experiments/AOT/AOT_stimuli/rescaled_final/0603_fw.mp4	0.0	307.82304191589355	0.9914109706878662
42	198.09929490089417	pulse	0	t		40.0	2.5	/experiments/AOT/AOT_stimuli/rescaled_final/0603_fw.mp4	0.0	308.80643582344055	
42	198.10731196403503	movie	1		246	40.0	2.5	/experiments/AOT/AOT_stimuli/rescaled_final/0603_fw.mp4	0.0	308.8144528865814	2.508139133453369
42	199.7071509361267	pulse	1	t		40.0	2.5	/experiments/AOT/AOT_stimuli/rescaled_final/0603_fw.mp4	0.0	310.4142918586731	
42	200.6154510974884	fix_post	2		12	40.0	2.5	/experiments/AOT/AOT_stimuli/rescaled_final/0603_fw.mp4	0.0	311.3225920200348	0.09998583793640137
43	200.7154369354248	fix_pre	0		120	41.0	2.5	blank	1.0	311.4225778579712	1.0000760555267334
43	201.30765795707703	pulse	0	t		41.0	2.5	blank	1.0	312.0147988796234	
43	201.71551299095154	movie	1		300	41.0	2.5	blank	1.0	312.4226539134979	2.50018310546875
43	202.9000380039215	pulse	1	t		41.0	2.5	blank	1.0	313.6071789264679	
43	204.2156960964203	fix_post	2		12	41.0	2.5	blank	1.0	314.9228370189667	0.09992384910583496
44	204.31561994552612	fix_pre	0		120	42.0	2.5	/experiments/AOT/AOT_stimuli/rescaled_final/0183_fw.mp4	0.0	315.0227608680725	0.9997260570526123
44	204.5000491142273	pulse	0	t		42.0	2.5	/experiments/AOT/AOT_stimuli/rescaled_final/0183_fw.mp4	0.0	315.2071900367737	
44	205.31534600257874	movie	1		244	42.0	2.5	/experiments/AOT/AOT_stimuli/rescaled_final/0183_fw.mp4	0.0	316.0224869251251	2.499969005584717
44	206.1000669002533	pulse	1	t		42.0	2.5	/experiments/AOT/AOT_stimuli/rescaled_final/0183_fw.mp4	0.0	316.8072078227997	
44	207.70002102851868	pulse	1	t		42.0	2.5	/experiments/AOT/AOT_stimuli/rescaled_final/0183_fw.mp4	0.0	318.40716195106506	
44	207.81531500816345	fix_post	2		12	42.0	2.5	/experiments/AOT/AOT_stimuli/rescaled_final/0183_fw.mp4	0.0	318.52245593070984	0.0998849868774414
45	207.9151999950409	fix_pre	0		120	43.0	2.5	/experiments/AOT/AOT_stimuli/rescaled_final/2173_rv.mp4	0.0	318.6223409175873	0.9999980926513672
45	208.91519808769226	movie	1		248	43.0	2.5	/experiments/AOT/AOT_stimuli/rescaled_final/2173_rv.mp4	0.0	319.62233901023865	2.5004539489746094
45	209.29999208450317	pulse	1	t		43.0	2.5	/experiments/AOT/AOT_stimuli/rescaled_final/2173_rv.mp4	0.0	320.00713300704956	
45	210.89995503425598	pulse	1	t		43.0	2.5	/experiments/AOT/AOT_stimuli/rescaled_final/2173_rv.mp4	0.0	321.60709595680237	
45	211.41565203666687	fix_post	2		12	43.0	2.5	/experiments/AOT/AOT_stimuli/rescaled_final/2173_rv.mp4	0.0	322.12279295921326	0.09959197044372559
46	211.5152440071106	fix_pre	0		120	44.0	2.5	/experiments/AOT/AOT_stimuli/rescaled_final/0121_rv.mp4	0.0	322.222384929657	1.000319004058838
46	212.50000095367432	pulse	0	t		44.0	2.5	/experiments/AOT/AOT_stimuli/rescaled_final/0121_rv.mp4	0.0	323.2071418762207	
46	212.51556301116943	movie	1		246	44.0	2.5	/experiments/AOT/AOT_stimuli/rescaled_final/0121_rv.mp4	0.0	323.2227039337158	2.508394956588745
46	214.1070420742035	pulse	1	t		44.0	2.5	/experiments/AOT/AOT_stimuli/rescaled_final/0121_rv.mp4	0.0	324.8141829967499	
46	215.02395796775818	fix_post	2		12	44.0	2.5	/experiments/AOT/AOT_stimuli/rescaled_final/0121_rv.mp4	0.0	325.73109889030457	0.0999901294708252
47	215.123948097229	fix_pre	0		120	45.0	2.5	/experiments/AOT/AOT_stimuli/rescaled_final/0191_fw.mp4	0.0	325.8310890197754	1.000126838684082
47	215.7000699043274	pulse	0	t		45.0	2.5	/experiments/AOT/AOT_stimuli/rescaled_final/0191_fw.mp4	0.0	326.4072108268738	
47	216.1240749359131	movie	1		246	45.0	2.5	/experiments/AOT/AOT_stimuli/rescaled_final/0191_fw.mp4	0.0	326.8312158584595	2.4994351863861084
47	217.30740594863892	pulse	1	t		45.0	2.5	/experiments/AOT/AOT_stimuli/rescaled_final/0191_fw.mp4	0.0	328.0145468711853	
47	218.6235101222992	fix_post	2		12	45.0	2.5	/experiments/AOT/AOT_stimuli/rescaled_final/0191_fw.mp4	0.0	329.3306510448456	0.10042190551757812
48	218.72393202781677	fix_pre	0		120	46.0	2.5	/experiments/AOT/AOT_stimuli/rescaled_final/0736_fw.mp4	0.0	329.43107295036316	0.99959397315979
48	218.90752005577087	pulse	0	t		46.0	2.5	/experiments/AOT/AOT_stimuli/rescaled_final/0736_fw.mp4	0.0	329.61466097831726	
48	219.72352600097656	movie	1		244	46.0	2.5	/experiments/AOT/AOT_stimuli/rescaled_final/0736_fw.mp4	0.0	330.43066692352295	2.4999871253967285
48	220.5074610710144	pulse	1	t		46.0	2.5	/experiments/AOT/AOT_stimuli/rescaled_final/0736_fw.mp4	0.0	331.2146019935608	
48	222.10578799247742	pulse	1	t		46.0	2.5	/experiments/AOT/AOT_stimuli/rescaled_final/0736_fw.mp4	0.0	332.8129289150238	
48	222.2235131263733	fix_post	2		12	46.0	2.5	/experiments/AOT/AOT_stimuli/rescaled_final/0736_fw.mp4	0.0	332.9306540489197	0.10040998458862305
49	222.3239231109619	fix_pre	0		120	47.0	2.5	/experiments/AOT/AOT_stimuli/rescaled_final/1691_rv.mp4	0.0	333.0310640335083	0.9995419979095459
49	223.32346510887146	movie	1		243	47.0	2.5	/experiments/AOT/AOT_stimuli/rescaled_final/1691_rv.mp4	0.0	334.03060603141785	2.499964952468872
49	223.70695996284485	pulse	1	t		47.0	2.5	/experiments/AOT/AOT_stimuli/rescaled_final/1691_rv.mp4	0.0	334.41410088539124	
49	225.3000271320343	pulse	1	t		47.0	2.5	/experiments/AOT/AOT_stimuli/rescaled_final/1691_rv.mp4	0.0	336.0071680545807	
49	225.82343006134033	fix_post	2		12	47.0	2.5	/experiments/AOT/AOT_stimuli/rescaled_final/1691_rv.mp4	0.0	336.5305709838867	0.10044598579406738
50	225.9238760471344	fix_pre	0		119	48.0	2.5	blank	1.0	336.6310169696808	0.9918899536132812
50	226.89997100830078	pulse	0	t		48.0	2.5	blank	1.0	337.60711193084717	
50	226.91576600074768	movie	1		301	48.0	2.5	blank	1.0	337.62290692329407	2.5080459117889404
50	228.49998092651367	pulse	1	t		48.0	2.5	blank	1.0	339.20712184906006	
50	229.42381191253662	fix_post	2		12	48.0	2.5	blank	1.0	340.130952835083	0.10013413429260254
51	229.52394604682922	fix_pre	0		120	49.0	2.5	/experiments/AOT/AOT_stimuli/rescaled_final/0272_rv.mp4	0.0	340.2310869693756	0.9998750686645508
51	230.09978199005127	pulse	0	t		49.0	2.5	/experiments/AOT/AOT_stimuli/rescaled_final/0272_rv.mp4	0.0	340.80692291259766	
51	230.52382111549377	movie	1		244	49.0	2.5	/experiments/AOT/AOT_stimuli/rescaled_final/0272_rv.mp4	0.0	341.23096203804016	2.499626874923706
51	231.70742106437683	pulse	1	t		49.0	2.5	/experiments/AOT/AOT_stimuli/rescaled_final/0272_rv.mp4	0.0	342.4145619869232	
51	233.02344799041748	fix_post	2		12	49.0	2.5	/experiments/AOT/AOT_stimuli/rescaled_final/0272_rv.mp4	0.0	343.73058891296387	0.10030412673950195
52	233.12375211715698	fix_pre	0		120	50.0	2.5	/experiments/AOT/AOT_stimuli/rescaled_final/0354_rv.mp4	0.0	343.83089303970337	1.0001440048217773
52	233.30727100372314	pulse	0	t		50.0	2.5	/experiments/AOT/AOT_stimuli/rescaled_final/0354_rv.mp4	0.0	344.01441192626953	
52	234.12389612197876	movie	1		245	50.0	2.5	/experiments/AOT/AOT_stimuli/rescaled_final/0354_rv.mp4	0.0	344.83103704452515	2.500025987625122
52	234.90733289718628	pulse	1	t		50.0	2.5	/experiments/AOT/AOT_stimuli/rescaled_final/0354_rv.mp4	0.0	345.61447381973267	
52	236.50324606895447	pulse	1	t		50.0	2.5	/experiments/AOT/AOT_stimuli/rescaled_final/0354_rv.mp4	0.0	347.21038699150085	
52	236.62392210960388	fix_post	2		12	50.0	2.5	/experiments/AOT/AOT_stimuli/rescaled_final/0354_rv.mp4	0.0	347.33106303215027	0.09995794296264648
53	236.72388005256653	fix_pre	0		120	51.0	2.5	/experiments/AOT/AOT_stimuli/rescaled_final/0489_rv.mp4	0.0	347.4310209751129	1.0000488758087158
53	237.72392892837524	movie	1		245	51.0	2.5	/experiments/AOT/AOT_stimuli/rescaled_final/0489_rv.mp4	0.0	348.43106985092163	2.499549150466919
53	238.10673689842224	pulse	1	t		51.0	2.5	/experiments/AOT/AOT_stimuli/rescaled_final/0489_rv.mp4	0.0	348.8138778209686	
53	239.70005702972412	pulse	1	t		51.0	2.5	/experiments/AOT/AOT_stimuli/rescaled_final/0489_rv.mp4	0.0	350.4071979522705	
53	240.22347807884216	fix_post	2		12	51.0	2.5	/experiments/AOT/AOT_stimuli/rescaled_final/0489_rv.mp4	0.0	350.93061900138855	0.1003408432006836
54	240.32381892204285	fix_pre	0		119	52.0	2.5	/experiments/AOT/AOT_stimuli/rescaled_final/0964_rv.mp4	0.0	351.03095984458923	0.99180006980896
54	241.2998969554901	pulse	0	t		52.0	2.5	/experiments/AOT/AOT_stimuli/rescaled_final/0964_rv.mp4	0.0	352.0070378780365	
54	241.3156189918518	movie	1		244	52.0	2.5	/experiments/AOT/AOT_stimuli/rescaled_final/0964_rv.mp4	0.0	352.0227599143982	2.5081560611724854
54	242.90712690353394	pulse	1	t		52.0	2.5	/experiments/AOT/AOT_stimuli/rescaled_final/0964_rv.mp4	0.0	353.6142678260803	
54	243.8237750530243	fix_post	2		12	52.0	2.5	/experiments/AOT/AOT_stimuli/rescaled_final/0964_rv.mp4	0.0	354.5309159755707	0.10001897811889648
55	243.9237940311432	fix_pre	0		120	53.0	2.5	/experiments/AOT/AOT_stimuli/rescaled_final/1477_fw.mp4	0.0	354.6309349536896	0.999518871307373
55	244.49976301193237	pulse	0	t		53.0	2.5	/experiments/AOT/AOT_stimuli/rescaled_final/1477_fw.mp4	0.0	355.20690393447876	
55	244.92331290245056	movie	1		244	53.0	2.5	/experiments/AOT/AOT_stimuli/rescaled_final/1477_fw.mp4	0.0	355.63045382499695	2.500458002090454
55	246.10736989974976	pulse	1	t		53.0	2.5	/experiments/AOT/AOT_stimuli/rescaled_final/1477_fw.mp4	0.0	356.81451082229614	
55	247.42377090454102	fix_post	2		12	53.0	2.5	/experiments/AOT/AOT_stimuli/rescaled_final/1477_fw.mp4	0.0	358.1309118270874	0.09995412826538086
56	247.5237250328064	fix_pre	0		120	54.0	2.5	/experiments/AOT/AOT_stimuli/rescaled_final/1114_fw.mp4	0.0	358.2308659553528	1.0001280307769775
56	247.69974613189697	pulse	0	t		54.0	2.5	/experiments/AOT/AOT_stimuli/rescaled_final/1114_fw.mp4	0.0	358.40688705444336	
56	248.52385306358337	movie	1		243	54.0	2.5	/experiments/AOT/AOT_stimuli/rescaled_final/1114_fw.mp4	0.0	359.23099398612976	2.4995388984680176
56	249.30744099617004	pulse	1	t		54.0	2.5	/experiments/AOT/AOT_stimuli/rescaled_final/1114_fw.mp4	0.0	360.01458191871643	
56	250.90579795837402	pulse	1	t		54.0	2.5	/experiments/AOT/AOT_stimuli/rescaled_final/1114_fw.mp4	0.0	361.6129388809204	
56	251.0233919620514	fix_post	2		12	54.0	2.5	/experiments/AOT/AOT_stimuli/rescaled_final/1114_fw.mp4	0.0	361.7305328845978	0.10031604766845703
57	251.12370800971985	fix_pre	0		120	55.0	2.5	/experiments/AOT/AOT_stimuli/rescaled_final/1831_fw.mp4	0.0	361.83084893226624	1.0001029968261719
57	252.12381100654602	movie	1		243	55.0	2.5	/experiments/AOT/AOT_stimuli/rescaled_final/1831_fw.mp4	0.0	362.8309519290924	2.500201940536499
57	252.5068929195404	pulse	1	t		55.0	2.5	/experiments/AOT/AOT_stimuli/rescaled_final/1831_fw.mp4	0.0	363.2140338420868	
57	254.1000759601593	pulse	1	t		55.0	2.5	/experiments/AOT/AOT_stimuli/rescaled_final/1831_fw.mp4	0.0	364.8072168827057	
57	254.62401294708252	fix_post	2		12	55.0	2.5	/experiments/AOT/AOT_stimuli/rescaled_final/1831_fw.mp4	0.0	365.3311538696289	0.09936714172363281
58	254.72338008880615	fix_pre	0		119	56.0	2.5	blank	1.0	365.43052101135254	0.9920589923858643
58	255.70685601234436	pulse	0	t		56.0	2.5	blank	1.0	366.41399693489075	
58	255.71543908119202	movie	1		301	56.0	2.5	blank	1.0	366.4225800037384	2.508617877960205
58	257.29986000061035	pulse	1	t		56.0	2.5	blank	1.0	368.00700092315674	
58	258.2240569591522	fix_post	2		12	56.0	2.5	blank	1.0	368.9311978816986	0.09962606430053711
59	258.32368302345276	fix_pre	0		120	57.0	2.5	/experiments/AOT/AOT_stimuli/rescaled_final/2119_rv.mp4	0.0	369.03082394599915	1.0000920295715332
59	258.89989590644836	pulse	0	t		57.0	2.5	/experiments/AOT/AOT_stimuli/rescaled_final/2119_rv.mp4	0.0	369.60703682899475	
59	259.3237750530243	movie	1		250	57.0	2.5	/experiments/AOT/AOT_stimuli/rescaled_final/2119_rv.mp4	0.0	370.0309159755707	2.4999449253082275
59	260.50725507736206	pulse	1	t		57.0	2.5	/experiments/AOT/AOT_stimuli/rescaled_final/2119_rv.mp4	0.0	371.21439599990845	
59	261.8237199783325	fix_post	2		12	57.0	2.5	/experiments/AOT/AOT_stimuli/rescaled_final/2119_rv.mp4	0.0	372.5308609008789	0.09956097602844238
60	261.92328095436096	fix_pre	0		120	58.0	2.5	/experiments/AOT/AOT_stimuli/rescaled_final/1015_rv.mp4	0.0	372.63042187690735	1.0004441738128662
60	262.09970903396606	pulse	0	t		58.0	2.5	/experiments/AOT/AOT_stimuli/rescaled_final/1015_rv.mp4	0.0	372.80684995651245	
60	262.9237251281738	movie	1		244	58.0	2.5	/experiments/AOT/AOT_stimuli/rescaled_final/1015_rv.mp4	0.0	373.6308660507202	2.5
60	263.6997721195221	pulse	1	t		58.0	2.5	/experiments/AOT/AOT_stimuli/rescaled_final/1015_rv.mp4	0.0	374.4069130420685	
60	265.3061740398407	pulse	1	t		58.0	2.5	/experiments/AOT/AOT_stimuli/rescaled_final/1015_rv.mp4	0.0	376.0133149623871	
60	265.4237251281738	fix_post	2		12	58.0	2.5	/experiments/AOT/AOT_stimuli/rescaled_final/1015_rv.mp4	0.0	376.1308660507202	0.09961390495300293
61	265.52333903312683	fix_pre	0		120	59.0	2.5	/experiments/AOT/AOT_stimuli/rescaled_final/1481_rv.mp4	0.0	376.2304799556732	0.9999570846557617
61	266.5232961177826	movie	1		243	59.0	2.5	/experiments/AOT/AOT_stimuli/rescaled_final/1481_rv.mp4	0.0	377.230437040329	2.4999709129333496
61	266.90848994255066	pulse	1	t		59.0	2.5	/experiments/AOT/AOT_stimuli/rescaled_final/1481_rv.mp4	0.0	377.61563086509705	
61	268.5070550441742	pulse	1	t		59.0	2.5	/experiments/AOT/AOT_stimuli/rescaled_final/1481_rv.mp4	0.0	379.2141959667206	
61	269.02326703071594	fix_post	2		12	59.0	2.5	/experiments/AOT/AOT_stimuli/rescaled_final/1481_rv.mp4	0.0	379.73040795326233	0.10045409202575684
62	269.1237211227417	fix_pre	0		119	60.0	2.5	/experiments/AOT/AOT_stimuli/rescaled_final/0503_fw.mp4	0.0	379.8308620452881	0.9917399883270264
62	270.1071949005127	pulse	0	t		60.0	2.5	/experiments/AOT/AOT_stimuli/rescaled_final/0503_fw.mp4	0.0	380.8143358230591	
62	270.1154611110687	movie	1		245	60.0	2.5	/experiments/AOT/AOT_stimuli/rescaled_final/0503_fw.mp4	0.0	380.8226020336151	2.507774829864502
62	271.70662212371826	pulse	1	t		60.0	2.5	/experiments/AOT/AOT_stimuli/rescaled_final/0503_fw.mp4	0.0	382.41376304626465	
62	272.6232359409332	fix_post	2		12	60.0	2.5	/experiments/AOT/AOT_stimuli/rescaled_final/0503_fw.mp4	0.0	383.3303768634796	0.1003260612487793
63	272.723562002182	fix_pre	0		120	61.0	2.5	/experiments/AOT/AOT_stimuli/rescaled_final/0039_fw.mp4	0.0	383.4307029247284	1.0001399517059326
63	273.29971408843994	pulse	0	t		61.0	2.5	/experiments/AOT/AOT_stimuli/rescaled_final/0039_fw.mp4	0.0	384.0068550109863	
63	273.72370195388794	movie	1		246	61.0	2.5	/experiments/AOT/AOT_stimuli/rescaled_final/0039_fw.mp4	0.0	384.4308428764343	2.4999301433563232
63	274.90722703933716	pulse	1	t		61.0	2.5	/experiments/AOT/AOT_stimuli/rescaled_final/0039_fw.mp4	0.0	385.61436796188354	
63	276.22363209724426	fix_post	2		12	61.0	2.5	/experiments/AOT/AOT_stimuli/rescaled_final/0039_fw.mp4	0.0	386.93077301979065	0.10005497932434082
64	276.3236870765686	fix_pre	0		120	62.0	2.5	/experiments/AOT/AOT_stimuli/rescaled_final/1347_fw.mp4	0.0	387.030827999115	1.0001790523529053
64	276.4996600151062	pulse	0	t		62.0	2.5	/experiments/AOT/AOT_stimuli/rescaled_final/1347_fw.mp4	0.0	387.2068009376526	
64	277.3238661289215	movie	1		246	62.0	2.5	/experiments/AOT/AOT_stimuli/rescaled_final/1347_fw.mp4	0.0	388.0310070514679	2.4997899532318115
64	278.09967494010925	pulse	1	t		62.0	2.5	/experiments/AOT/AOT_stimuli/rescaled_final/1347_fw.mp4	0.0	388.80681586265564	
64	279.7057340145111	pulse	1	t		62.0	2.5	/experiments/AOT/AOT_stimuli/rescaled_final/1347_fw.mp4	0.0	390.4128749370575	
64	279.8236560821533	fix_post	2		12	62.0	2.5	/experiments/AOT/AOT_stimuli/rescaled_final/1347_fw.mp4	0.0	390.5307970046997	0.10007596015930176
65	279.9237320423126	fix_pre	0		120	63.0	2.5	blank	1.0	390.630872964859	0.999993085861206
65	280.9237251281738	movie	1		300	63.0	2.5	blank	1.0	391.6308660507202	2.499846935272217
65	281.307177066803	pulse	1	t		63.0	2.5	blank	1.0	392.01431798934937	
65	282.90716004371643	pulse	1	t		63.0	2.5	blank	1.0	393.6143009662628	
65	283.42357206344604	fix_post	2		12	63.0	2.5	blank	1.0	394.13071298599243	0.10005497932434082
66	283.5236270427704	fix_pre	0		119	64.0	2.5	/experiments/AOT/AOT_stimuli/rescaled_final/1160_fw.mp4	0.0	394.2307679653168	0.9916269779205322
66	284.50719809532166	pulse	0	t		64.0	2.5	/experiments/AOT/AOT_stimuli/rescaled_final/1160_fw.mp4	0.0	395.21433901786804	
66	284.5152540206909	movie	1		245	64.0	2.5	/experiments/AOT/AOT_stimuli/rescaled_final/1160_fw.mp4	0.0	395.2223949432373	2.507935047149658
66	286.1065089702606	pulse	1	t		64.0	2.5	/experiments/AOT/AOT_stimuli/rescaled_final/1160_fw.mp4	0.0	396.813649892807	
66	287.0231890678406	fix_post	2		12	64.0	2.5	/experiments/AOT/AOT_stimuli/rescaled_final/1160_fw.mp4	0.0	397.73032999038696	0.10038399696350098
67	287.1235730648041	fix_pre	0		120	65.0	2.5	/experiments/AOT/AOT_stimuli/rescaled_final/2169_fw.mp4	0.0	397.83071398735046	1.0000228881835938
67	287.7071211338043	pulse	0	t		65.0	2.5	/experiments/AOT/AOT_stimuli/rescaled_final/2169_fw.mp4	0.0	398.4142620563507	
67	288.12359595298767	movie	1		243	65.0	2.5	/experiments/AOT/AOT_stimuli/rescaled_final/2169_fw.mp4	0.0	398.83073687553406	2.499526023864746
67	289.3072121143341	pulse	1	t		65.0	2.5	/experiments/AOT/AOT_stimuli/rescaled_final/2169_fw.mp4	0.0	400.0143530368805	
67	290.6231219768524	fix_post	2		12	65.0	2.5	/experiments/AOT/AOT_stimuli/rescaled_final/2169_fw.mp4	0.0	401.3302628993988	0.1005239486694336
68	290.72364592552185	fix_pre	0		120	66.0	2.5	/experiments/AOT/AOT_stimuli/rescaled_final/1730_fw.mp4	0.0	401.43078684806824	0.9999821186065674
68	290.9071431159973	pulse	0	t		66.0	2.5	/experiments/AOT/AOT_stimuli/rescaled_final/1730_fw.mp4	0.0	401.6142840385437	
68	291.7236280441284	movie	1		243	66.0	2.5	/experiments/AOT/AOT_stimuli/rescaled_final/1730_fw.mp4	0.0	402.4307689666748	2.499988079071045
68	292.49968695640564	pulse	1	t		66.0	2.5	/experiments/AOT/AOT_stimuli/rescaled_final/1730_fw.mp4	0.0	403.206827878952	
68	294.1056389808655	pulse	1	t		66.0	2.5	/experiments/AOT/AOT_stimuli/rescaled_final/1730_fw.mp4	0.0	404.81277990341187	
68	294.22361612319946	fix_post	2		12	66.0	2.5	/experiments/AOT/AOT_stimuli/rescaled_final/1730_fw.mp4	0.0	404.93075704574585	0.09991979598999023
69	294.32353591918945	fix_pre	0		120	67.0	2.5	/experiments/AOT/AOT_stimuli/rescaled_final/1457_rv.mp4	0.0	405.03067684173584	0.9999971389770508
69	295.3235330581665	movie	1		244	67.0	2.5	/experiments/AOT/AOT_stimuli/rescaled_final/1457_rv.mp4	0.0	406.0306739807129	2.5001180171966553
69	295.7066419124603	pulse	1	t		67.0	2.5	/experiments/AOT/AOT_stimuli/rescaled_final/1457_rv.mp4	0.0	406.4137828350067	
69	297.3071320056915	pulse	1	t		67.0	2.5	/experiments/AOT/AOT_stimuli/rescaled_final/1457_rv.mp4	0.0	408.0142729282379	
69	297.82365107536316	fix_post	2		12	67.0	2.5	/experiments/AOT/AOT_stimuli/rescaled_final/1457_rv.mp4	0.0	408.53079199790955	0.09986686706542969
70	297.9235179424286	fix_pre	0		119	68.0	2.5	/experiments/AOT/AOT_stimuli/rescaled_final/1441_rv.mp4	0.0	408.630658864975	0.9916460514068604
70	298.90708804130554	pulse	0	t		68.0	2.5	/experiments/AOT/AOT_stimuli/rescaled_final/1441_rv.mp4	0.0	409.61422896385193	
70	298.91516399383545	movie	1		244	68.0	2.5	/experiments/AOT/AOT_stimuli/rescaled_final/1441_rv.mp4	0.0	409.62230491638184	2.5084691047668457
70	300.5069029331207	pulse	1	t		68.0	2.5	/experiments/AOT/AOT_stimuli/rescaled_final/1441_rv.mp4	0.0	411.2140438556671	
70	301.4236330986023	fix_post	2		12	68.0	2.5	/experiments/AOT/AOT_stimuli/rescaled_final/1441_rv.mp4	0.0	412.1307740211487	0.09995102882385254
71	301.52358412742615	fix_pre	0		120	69.0	2.5	/experiments/AOT/AOT_stimuli/rescaled_final/1889_rv.mp4	0.0	412.23072504997253	1.0000429153442383
71	302.10700011253357	pulse	0	t		69.0	2.5	/experiments/AOT/AOT_stimuli/rescaled_final/1889_rv.mp4	0.0	412.81414103507996	
71	302.5236270427704	movie	1		245	69.0	2.5	/experiments/AOT/AOT_stimuli/rescaled_final/1889_rv.mp4	0.0	413.2307679653168	2.499897003173828
71	303.70709705352783	pulse	1	t		69.0	2.5	/experiments/AOT/AOT_stimuli/rescaled_final/1889_rv.mp4	0.0	414.4142379760742	
71	305.0235240459442	fix_post	2		12	69.0	2.5	/experiments/AOT/AOT_stimuli/rescaled_final/1889_rv.mp4	0.0	415.7306649684906	0.09997701644897461
72	305.1235010623932	fix_pre	0		120	70.0	2.5	blank	1.0	415.8306419849396	1.0001459121704102
72	305.3069450855255	pulse	0	t		70.0	2.5	blank	1.0	416.0140860080719	
72	306.1236469745636	movie	1		300	70.0	2.5	blank	1.0	416.83078789711	2.499624013900757
72	306.90701508522034	pulse	1	t		70.0	2.5	blank	1.0	417.6141560077667	
72	308.4995310306549	pulse	1	t		70.0	2.5	blank	1.0	419.2066719532013	
72	308.62327098846436	fix_post	2		12	70.0	2.5	blank	1.0	419.33041191101074	0.10020208358764648
73	308.723473072052	fix_pre	0		120	71.0	2.5	/experiments/AOT/AOT_stimuli/rescaled_final/0751_fw.mp4	0.0	419.4306139945984	0.9999709129333496
73	309.72344398498535	movie	1		247	71.0	2.5	/experiments/AOT/AOT_stimuli/rescaled_final/0751_fw.mp4	0.0	420.43058490753174	2.4997949600219727
73	310.1073670387268	pulse	1	t		71.0	2.5	/experiments/AOT/AOT_stimuli/rescaled_final/0751_fw.mp4	0.0	420.8145079612732	
73	311.699697971344	pulse	1	t		71.0	2.5	/experiments/AOT/AOT_stimuli/rescaled_final/0751_fw.mp4	0.0	422.4068388938904	
73	312.2232389450073	fix_post	2		12	71.0	2.5	/experiments/AOT/AOT_stimuli/rescaled_final/0751_fw.mp4	0.0	422.9303798675537	0.10023713111877441
74	312.3234760761261	fix_pre	0		119	72.0	2.5	/experiments/AOT/AOT_stimuli/rescaled_final/1949_rv.mp4	0.0	423.0306169986725	0.9919259548187256
74	313.30722403526306	pulse	0	t		72.0	2.5	/experiments/AOT/AOT_stimuli/rescaled_final/1949_rv.mp4	0.0	424.01436495780945	
74	313.3154020309448	movie	1		246	72.0	2.5	/experiments/AOT/AOT_stimuli/rescaled_final/1949_rv.mp4	0.0	424.0225429534912	2.5081989765167236
74	314.907035112381	pulse	1	t		72.0	2.5	/experiments/AOT/AOT_stimuli/rescaled_final/1949_rv.mp4	0.0	425.61417603492737	
74	315.82360100746155	fix_post	2		12	72.0	2.5	/experiments/AOT/AOT_stimuli/rescaled_final/1949_rv.mp4	0.0	426.53074193000793	0.09938502311706543
75	315.9229860305786	fix_pre	0		120	73.0	2.5	/experiments/AOT/AOT_stimuli/rescaled_final/1318_fw.mp4	0.0	426.630126953125	1.000514030456543
75	316.5069770812988	pulse	0	t		73.0	2.5	/experiments/AOT/AOT_stimuli/rescaled_final/1318_fw.mp4	0.0	427.2141180038452	
75	316.92350006103516	movie	1		245	73.0	2.5	/experiments/AOT/AOT_stimuli/rescaled_final/1318_fw.mp4	0.0	427.63064098358154	2.4999749660491943
75	318.1070439815521	pulse	1	t		73.0	2.5	/experiments/AOT/AOT_stimuli/rescaled_final/1318_fw.mp4	0.0	428.8141849040985	
75	319.42347502708435	fix_post	2		12	73.0	2.5	/experiments/AOT/AOT_stimuli/rescaled_final/1318_fw.mp4	0.0	430.13061594963074	0.09985709190368652
76	319.52333211898804	fix_pre	0		120	74.0	2.5	/experiments/AOT/AOT_stimuli/rescaled_final/0354_fw.mp4	0.0	430.2304730415344	1.000194787979126
76	319.7068450450897	pulse	0	t		74.0	2.5	/experiments/AOT/AOT_stimuli/rescaled_final/0354_fw.mp4	0.0	430.4139859676361	
76	320.52352690696716	movie	1		246	74.0	2.5	/experiments/AOT/AOT_stimuli/rescaled_final/0354_fw.mp4	0.0	431.23066782951355	2.4999380111694336
76	321.3069899082184	pulse	1	t		74.0	2.5	/experiments/AOT/AOT_stimuli/rescaled_final/0354_fw.mp4	0.0	432.01413083076477	
76	322.90555000305176	pulse	1	t		74.0	2.5	/experiments/AOT/AOT_stimuli/rescaled_final/0354_fw.mp4	0.0	433.61269092559814	
76	323.0234649181366	fix_post	2		12	74.0	2.5	/experiments/AOT/AOT_stimuli/rescaled_final/0354_fw.mp4	0.0	433.730605840683	0.09951901435852051
77	323.1229839324951	fix_pre	0		120	75.0	2.5	blank	1.0	433.8301248550415	1.0004181861877441
77	324.12340211868286	movie	1		300	75.0	2.5	blank	1.0	434.83054304122925	2.4999988079071045
77	324.50686407089233	pulse	1	t		75.0	2.5	blank	1.0	435.2140049934387	
77	326.1069519519806	pulse	1	t		75.0	2.5	blank	1.0	436.814092874527	
77	326.62340092658997	fix_post	2		12	75.0	2.5	blank	1.0	437.33054184913635	0.10001897811889648
78	326.72341990470886	fix_pre	0		119	76.0	2.5	/experiments/AOT/AOT_stimuli/rescaled_final/0279_rv.mp4	0.0	437.43056082725525	0.9915821552276611
78	327.7068889141083	pulse	0	t		76.0	2.5	/experiments/AOT/AOT_stimuli/rescaled_final/0279_rv.mp4	0.0	438.41402983665466	
78	327.7150020599365	movie	1		245	76.0	2.5	/experiments/AOT/AOT_stimuli/rescaled_final/0279_rv.mp4	0.0	438.4221429824829	2.5083420276641846
78	329.30794405937195	pulse	1	t		76.0	2.5	/experiments/AOT/AOT_stimuli/rescaled_final/0279_rv.mp4	0.0	440.01508498191833	
78	330.2233440876007	fix_post	2		12	76.0	2.5	/experiments/AOT/AOT_stimuli/rescaled_final/0279_rv.mp4	0.0	440.9304850101471	0.10014891624450684
79	330.3234930038452	fix_pre	0		120	77.0	2.5	/experiments/AOT/AOT_stimuli/rescaled_final/2129_fw.mp4	0.0	441.0306339263916	0.9994640350341797
79	330.9069390296936	pulse	0	t		77.0	2.5	/experiments/AOT/AOT_stimuli/rescaled_final/2129_fw.mp4	0.0	441.61407995224	
79	331.3229570388794	movie	1		243	77.0	2.5	/experiments/AOT/AOT_stimuli/rescaled_final/2129_fw.mp4	0.0	442.0300979614258	2.5003750324249268
79	332.506961107254	pulse	1	t		77.0	2.5	/experiments/AOT/AOT_stimuli/rescaled_final/2129_fw.mp4	0.0	443.2141020298004	
79	333.8233320713043	fix_post	2		12	77.0	2.5	/experiments/AOT/AOT_stimuli/rescaled_final/2129_fw.mp4	0.0	444.5304729938507	0.10005593299865723
80	333.923388004303	fix_pre	0		120	78.0	2.5	/experiments/AOT/AOT_stimuli/rescaled_final/0274_rv.mp4	0.0	444.63052892684937	1.0000181198120117
80	334.1069040298462	pulse	0	t		78.0	2.5	/experiments/AOT/AOT_stimuli/rescaled_final/0274_rv.mp4	0.0	444.8140449523926	
80	334.923406124115	movie	1		244	78.0	2.5	/experiments/AOT/AOT_stimuli/rescaled_final/0274_rv.mp4	0.0	445.6305470466614	2.4999208450317383
80	335.7068610191345	pulse	1	t		78.0	2.5	/experiments/AOT/AOT_stimuli/rescaled_final/0274_rv.mp4	0.0	446.4140019416809	
80	337.30539298057556	pulse	1	t		78.0	2.5	/experiments/AOT/AOT_stimuli/rescaled_final/0274_rv.mp4	0.0	448.01253390312195	
80	337.42332696914673	fix_post	2		12	78.0	2.5	/experiments/AOT/AOT_stimuli/rescaled_final/0274_rv.mp4	0.0	448.1304678916931	0.09997296333312988
81	337.52329993247986	fix_pre	0		120	79.0	2.5	/experiments/AOT/AOT_stimuli/rescaled_final/0603_rv.mp4	0.0	448.23044085502625	0.9996490478515625
81	338.5229489803314	movie	1		244	79.0	2.5	/experiments/AOT/AOT_stimuli/rescaled_final/0603_rv.mp4	0.0	449.2300899028778	2.499962091445923
81	338.90625190734863	pulse	1	t		79.0	2.5	/experiments/AOT/AOT_stimuli/rescaled_final/0603_rv.mp4	0.0	449.613392829895	
81	340.5069260597229	pulse	1	t		79.0	2.5	/experiments/AOT/AOT_stimuli/rescaled_final/0603_rv.mp4	0.0	451.2140669822693	
81	341.02291107177734	fix_post	2		12	79.0	2.5	/experiments/AOT/AOT_stimuli/rescaled_final/0603_rv.mp4	0.0	451.73005199432373	0.10046505928039551
82	341.12337613105774	fix_pre	0		119	80.0	2.5	/experiments/AOT/AOT_stimuli/rescaled_final/1339_rv.mp4	0.0	451.8305170536041	0.9916138648986816
82	342.10708594322205	pulse	0	t		80.0	2.5	/experiments/AOT/AOT_stimuli/rescaled_final/1339_rv.mp4	0.0	452.81422686576843	
82	342.1149899959564	movie	1		246	80.0	2.5	/experiments/AOT/AOT_stimuli/rescaled_final/1339_rv.mp4	0.0	452.8221309185028	2.5079030990600586
82	343.7064039707184	pulse	1	t		80.0	2.5	/experiments/AOT/AOT_stimuli/rescaled_final/1339_rv.mp4	0.0	454.41354489326477	
82	344.6228930950165	fix_post	2		12	80.0	2.5	/experiments/AOT/AOT_stimuli/rescaled_final/1339_rv.mp4	0.0	455.33003401756287	0.10044002532958984
83	344.72333312034607	fix_pre	0		120	81.0	2.5	/experiments/AOT/AOT_stimuli/rescaled_final/0128_fw.mp4	0.0	455.43047404289246	1.0000028610229492
83	345.2992980480194	pulse	0	t		81.0	2.5	/experiments/AOT/AOT_stimuli/rescaled_final/0128_fw.mp4	0.0	456.0064389705658	
83	345.723335981369	movie	1		243	81.0	2.5	/experiments/AOT/AOT_stimuli/rescaled_final/0128_fw.mp4	0.0	456.4304769039154	2.4995949268341064
83	346.9069359302521	pulse	1	t		81.0	2.5	/experiments/AOT/AOT_stimuli/rescaled_final/0128_fw.mp4	0.0	457.61407685279846	
83	348.2229309082031	fix_post	2		12	81.0	2.5	/experiments/AOT/AOT_stimuli/rescaled_final/0128_fw.mp4	0.0	458.9300718307495	0.10041999816894531
84	348.32335090637207	fix_pre	0		120	82.0	2.5	/experiments/AOT/AOT_stimuli/rescaled_final/0024_fw.mp4	0.0	459.03049182891846	0.9998860359191895
84	348.5068550109863	pulse	0	t		82.0	2.5	/experiments/AOT/AOT_stimuli/rescaled_final/0024_fw.mp4	0.0	459.2139959335327	
84	349.32323694229126	movie	1		245	82.0	2.5	/experiments/AOT/AOT_stimuli/rescaled_final/0024_fw.mp4	0.0	460.03037786483765	2.49965500831604
84	350.10678696632385	pulse	1	t		82.0	2.5	/experiments/AOT/AOT_stimuli/rescaled_final/0024_fw.mp4	0.0	460.81392788887024	
84	351.70296597480774	pulse	1	t		82.0	2.5	/experiments/AOT/AOT_stimuli/rescaled_final/0024_fw.mp4	0.0	462.4101068973541	
84	351.8228919506073	fix_post	2		12	82.0	2.5	/experiments/AOT/AOT_stimuli/rescaled_final/0024_fw.mp4	0.0	462.5300328731537	0.09995412826538086
85	351.9228460788727	fix_pre	0		120	83.0	2.5	blank	1.0	462.62998700141907	1.0000619888305664
85	352.92290806770325	movie	1		300	83.0	2.5	blank	1.0	463.63004899024963	2.5003459453582764
85	353.30690598487854	pulse	1	t		83.0	2.5	blank	1.0	464.0140469074249	
85	354.90675592422485	pulse	1	t		83.0	2.5	blank	1.0	465.61389684677124	
85	355.4232540130615	fix_post	2		12	83.0	2.5	blank	1.0	466.1303949356079	0.10002803802490234
87	355.5232820510864	stim	0		1716					466.2304229736328	14.300212860107422
87	356.50693702697754	pulse	0	t						467.2140779495239	
87	358.0994749069214	pulse	0	t						468.8066158294678	
87	359.70676493644714	pulse	0	t						470.41390585899353	
87	361.30667996406555	pulse	0	t						472.01382088661194	
87	362.906779050827	pulse	0	t						473.6139199733734	
87	364.5066089630127	pulse	0	t						475.2137498855591	
87	366.1067409515381	pulse	0	t						476.8138818740845	
87	367.7066960334778	pulse	0	t						478.41383695602417	
87	369.30686497688293	pulse	0	t						480.0140058994293	
