trial_nr	onset	event_type	phase	response	nr_frames	movie_index	movie_duration	movie_file	blank	onset_abs	duration
0	0.20825600624084473	stim	0		39					40.30237889289856	0.32507801055908203
0	0.5252118110656738	response	0	space						40.61933469772339	
1	0.5333340167999268	stim	0		4946					40.62745690345764	41.23324489593506
1	41.756937980651855	pulse	0	t						81.85106086730957	
1	41.766578912734985	stim	1		1715					81.8607017993927	14.299974918365479
1	43.34824991226196	pulse	1	t						83.44237279891968	
1	44.94853687286377	pulse	1	t						85.04265975952148	
1	46.54863691329956	pulse	1	t						86.64275979995728	
1	48.14141583442688	pulse	1	t						88.2355387210846	
1	49.74150085449219	pulse	1	t						89.8356237411499	
1	51.34177494049072	pulse	1	t						91.43589782714844	
1	52.94203281402588	pulse	1	t						93.0361557006836	
1	54.54217982292175	pulse	1	t						94.63630270957947	
2	56.066553831100464	fix_pre	0		10	0.0	2.5	/experiments/knapen_AOT/AOT_stimuli/rescaled_final/0590_rv.mp4	0.0	96.16067671775818	0.0832831859588623
2	56.1417019367218	pulse	0	t		0.0	2.5	/experiments/knapen_AOT/AOT_stimuli/rescaled_final/0590_rv.mp4	0.0	96.23582482337952	
2	56.149837017059326	movie	1		244	0.0	2.5	/experiments/knapen_AOT/AOT_stimuli/rescaled_final/0590_rv.mp4	0.0	96.24395990371704	2.5087459087371826
2	57.74257493019104	pulse	1	t		0.0	2.5	/experiments/knapen_AOT/AOT_stimuli/rescaled_final/0590_rv.mp4	0.0	97.83669781684875	
2	58.65858292579651	fix_post	2		12	0.0	2.5	/experiments/knapen_AOT/AOT_stimuli/rescaled_final/0590_rv.mp4	0.0	98.75270581245422	0.10001802444458008
3	58.75860095024109	fix_pre	0		120	1.0	2.5	/experiments/knapen_AOT/AOT_stimuli/rescaled_final/1059_rv.mp4	0.0	98.8527238368988	1.0001709461212158
3	59.34234285354614	pulse	0	t		1.0	2.5	/experiments/knapen_AOT/AOT_stimuli/rescaled_final/1059_rv.mp4	0.0	99.43646574020386	
3	59.758771896362305	movie	1		250	1.0	2.5	/experiments/knapen_AOT/AOT_stimuli/rescaled_final/1059_rv.mp4	0.0	99.85289478302002	2.5003809928894043
3	60.94260883331299	pulse	1	t		1.0	2.5	/experiments/knapen_AOT/AOT_stimuli/rescaled_final/1059_rv.mp4	0.0	101.0367317199707	
3	62.25915288925171	fix_post	2		12	1.0	2.5	/experiments/knapen_AOT/AOT_stimuli/rescaled_final/1059_rv.mp4	0.0	102.35327577590942	0.09999895095825195
4	62.35915184020996	fix_pre	0		120	2.0	2.5	/experiments/knapen_AOT/AOT_stimuli/rescaled_final/0303_rv.mp4	0.0	102.45327472686768	1.0001540184020996
4	62.54275584220886	pulse	0	t		2.0	2.5	/experiments/knapen_AOT/AOT_stimuli/rescaled_final/0303_rv.mp4	0.0	102.63687872886658	
4	63.35930585861206	movie	1		253	2.0	2.5	/experiments/knapen_AOT/AOT_stimuli/rescaled_final/0303_rv.mp4	0.0	103.45342874526978	2.500368118286133
4	64.14291095733643	pulse	1	t		2.0	2.5	/experiments/knapen_AOT/AOT_stimuli/rescaled_final/0303_rv.mp4	0.0	104.23703384399414	
4	65.74312496185303	pulse	1	t		2.0	2.5	/experiments/knapen_AOT/AOT_stimuli/rescaled_final/0303_rv.mp4	0.0	105.83724784851074	
4	65.8596739768982	fix_post	2		12	2.0	2.5	/experiments/knapen_AOT/AOT_stimuli/rescaled_final/0303_rv.mp4	0.0	105.95379686355591	0.10000205039978027
5	65.95967602729797	fix_pre	0		120	3.0	2.5	/experiments/knapen_AOT/AOT_stimuli/rescaled_final/2063_rv.mp4	0.0	106.05379891395569	1.00016188621521
5	66.95983791351318	movie	1		255	3.0	2.5	/experiments/knapen_AOT/AOT_stimuli/rescaled_final/2063_rv.mp4	0.0	107.0539608001709	2.492060899734497
5	67.34363985061646	pulse	1	t		3.0	2.5	/experiments/knapen_AOT/AOT_stimuli/rescaled_final/2063_rv.mp4	0.0	107.43776273727417	
5	68.94378781318665	pulse	1	t		3.0	2.5	/experiments/knapen_AOT/AOT_stimuli/rescaled_final/2063_rv.mp4	0.0	109.03791069984436	
5	69.45189881324768	fix_post	2		12	3.0	2.5	/experiments/knapen_AOT/AOT_stimuli/rescaled_final/2063_rv.mp4	0.0	109.5460216999054	0.09998607635498047
6	69.55188488960266	fix_pre	0		120	4.0	2.5	/experiments/knapen_AOT/AOT_stimuli/rescaled_final/1473_rv.mp4	0.0	109.64600777626038	1.0002450942993164
6	70.54386186599731	pulse	0	t		4.0	2.5	/experiments/knapen_AOT/AOT_stimuli/rescaled_final/1473_rv.mp4	0.0	110.63798475265503	
6	70.55212998390198	movie	1		255	4.0	2.5	/experiments/knapen_AOT/AOT_stimuli/rescaled_final/1473_rv.mp4	0.0	110.64625287055969	2.5086300373077393
6	72.14443397521973	pulse	1	t		4.0	2.5	/experiments/knapen_AOT/AOT_stimuli/rescaled_final/1473_rv.mp4	0.0	112.23855686187744	
6	73.06076002120972	fix_post	2		12	4.0	2.5	/experiments/knapen_AOT/AOT_stimuli/rescaled_final/1473_rv.mp4	0.0	113.15488290786743	0.10000896453857422
7	73.16076898574829	fix_pre	0		120	5.0	2.5	/experiments/knapen_AOT/AOT_stimuli/rescaled_final/2005_rv.mp4	0.0	113.254891872406	1.0001449584960938
7	73.74436688423157	pulse	0	t		5.0	2.5	/experiments/knapen_AOT/AOT_stimuli/rescaled_final/2005_rv.mp4	0.0	113.83848977088928	
7	74.16091394424438	movie	1		249	5.0	2.5	/experiments/knapen_AOT/AOT_stimuli/rescaled_final/2005_rv.mp4	0.0	114.2550368309021	2.5003550052642822
7	75.34468388557434	pulse	1	t		5.0	2.5	/experiments/knapen_AOT/AOT_stimuli/rescaled_final/2005_rv.mp4	0.0	115.43880677223206	
7	76.66126894950867	fix_post	2		12	5.0	2.5	/experiments/knapen_AOT/AOT_stimuli/rescaled_final/2005_rv.mp4	0.0	116.75539183616638	0.10003900527954102
8	76.76130795478821	fix_pre	0		120	6.0	2.5	blank	1.0	116.85543084144592	1.0001769065856934
8	76.94479584693909	pulse	0	t		6.0	2.5	blank	1.0	117.0389187335968	
8	77.7614848613739	movie	1		300	6.0	2.5	blank	1.0	117.85560774803162	2.5003600120544434
8	78.54506087303162	pulse	1	t		6.0	2.5	blank	1.0	118.63918375968933	
8	80.14537000656128	pulse	1	t		6.0	2.5	blank	1.0	120.239492893219	
8	80.26184487342834	fix_post	2		12	6.0	2.5	blank	1.0	120.35596776008606	0.10000801086425781
9	80.3618528842926	fix_pre	0		119	7.0	2.5	/experiments/knapen_AOT/AOT_stimuli/rescaled_final/1846_rv.mp4	0.0	120.45597577095032	0.9928939342498779
9	81.35474681854248	movie	1		241	7.0	2.5	/experiments/knapen_AOT/AOT_stimuli/rescaled_final/1846_rv.mp4	0.0	121.4488697052002	2.499289035797119
9	81.74571681022644	pulse	1	t		7.0	2.5	/experiments/knapen_AOT/AOT_stimuli/rescaled_final/1846_rv.mp4	0.0	121.83983969688416	
9	83.34584093093872	pulse	1	t		7.0	2.5	/experiments/knapen_AOT/AOT_stimuli/rescaled_final/1846_rv.mp4	0.0	123.43996381759644	
9	83.8540358543396	fix_post	2		12	7.0	2.5	/experiments/knapen_AOT/AOT_stimuli/rescaled_final/1846_rv.mp4	0.0	123.94815874099731	0.09998512268066406
10	83.95402097702026	fix_pre	0		120	8.0	2.5	/experiments/knapen_AOT/AOT_stimuli/rescaled_final/0396_fw.mp4	0.0	124.04814386367798	1.0001659393310547
10	84.94602489471436	pulse	0	t		8.0	2.5	/experiments/knapen_AOT/AOT_stimuli/rescaled_final/0396_fw.mp4	0.0	125.04014778137207	
10	84.95418691635132	movie	1		246	8.0	2.5	/experiments/knapen_AOT/AOT_stimuli/rescaled_final/0396_fw.mp4	0.0	125.04830980300903	2.5087029933929443
10	86.54698181152344	pulse	1	t		8.0	2.5	/experiments/knapen_AOT/AOT_stimuli/rescaled_final/0396_fw.mp4	0.0	126.64110469818115	
10	87.46288990974426	fix_post	2		12	8.0	2.5	/experiments/knapen_AOT/AOT_stimuli/rescaled_final/0396_fw.mp4	0.0	127.55701279640198	0.10000991821289062
11	87.56289982795715	fix_pre	0		120	9.0	2.5	/experiments/knapen_AOT/AOT_stimuli/rescaled_final/1364_fw.mp4	0.0	127.65702271461487	1.0001561641693115
11	88.14665293693542	pulse	0	t		9.0	2.5	/experiments/knapen_AOT/AOT_stimuli/rescaled_final/1364_fw.mp4	0.0	128.24077582359314	
11	88.56305599212646	movie	1		244	9.0	2.5	/experiments/knapen_AOT/AOT_stimuli/rescaled_final/1364_fw.mp4	0.0	128.65717887878418	2.500339984893799
11	89.7469208240509	pulse	1	t		9.0	2.5	/experiments/knapen_AOT/AOT_stimuli/rescaled_final/1364_fw.mp4	0.0	129.84104371070862	
11	91.06339597702026	fix_post	2		12	9.0	2.5	/experiments/knapen_AOT/AOT_stimuli/rescaled_final/1364_fw.mp4	0.0	131.15751886367798	0.10007786750793457
12	91.1634738445282	fix_pre	0		120	10.0	2.5	/experiments/knapen_AOT/AOT_stimuli/rescaled_final/0976_rv.mp4	0.0	131.2575967311859	1.0001261234283447
12	91.34703588485718	pulse	0	t		10.0	2.5	/experiments/knapen_AOT/AOT_stimuli/rescaled_final/0976_rv.mp4	0.0	131.4411587715149	
12	92.16359996795654	movie	1		247	10.0	2.5	/experiments/knapen_AOT/AOT_stimuli/rescaled_final/0976_rv.mp4	0.0	132.25772285461426	2.5003459453582764
12	92.94723892211914	pulse	1	t		10.0	2.5	/experiments/knapen_AOT/AOT_stimuli/rescaled_final/0976_rv.mp4	0.0	133.04136180877686	
12	94.5474579334259	pulse	1	t		10.0	2.5	/experiments/knapen_AOT/AOT_stimuli/rescaled_final/0976_rv.mp4	0.0	134.64158082008362	
12	94.66394591331482	fix_post	2		12	10.0	2.5	/experiments/knapen_AOT/AOT_stimuli/rescaled_final/0976_rv.mp4	0.0	134.75806879997253	0.10002398490905762
13	94.76396989822388	fix_pre	0		120	11.0	2.5	/experiments/knapen_AOT/AOT_stimuli/rescaled_final/0837_fw.mp4	0.0	134.8580927848816	1.0001671314239502
13	95.76413702964783	movie	1		242	11.0	2.5	/experiments/knapen_AOT/AOT_stimuli/rescaled_final/0837_fw.mp4	0.0	135.85825991630554	2.492065906524658
13	96.15233302116394	pulse	1	t		11.0	2.5	/experiments/knapen_AOT/AOT_stimuli/rescaled_final/0837_fw.mp4	0.0	136.24645590782166	
13	97.74796485900879	pulse	1	t		11.0	2.5	/experiments/knapen_AOT/AOT_stimuli/rescaled_final/0837_fw.mp4	0.0	137.8420877456665	
13	98.25620293617249	fix_post	2		12	11.0	2.5	/experiments/knapen_AOT/AOT_stimuli/rescaled_final/0837_fw.mp4	0.0	138.3503258228302	0.09995508193969727
14	98.35615801811218	fix_pre	0		120	12.0	2.5	/experiments/knapen_AOT/AOT_stimuli/rescaled_final/1923_fw.mp4	0.0	138.4502809047699	1.0002148151397705
14	99.34829497337341	pulse	0	t		12.0	2.5	/experiments/knapen_AOT/AOT_stimuli/rescaled_final/1923_fw.mp4	0.0	139.44241786003113	
14	99.35637283325195	movie	1		247	12.0	2.5	/experiments/knapen_AOT/AOT_stimuli/rescaled_final/1923_fw.mp4	0.0	139.45049571990967	2.508676052093506
14	100.94908499717712	pulse	1	t		12.0	2.5	/experiments/knapen_AOT/AOT_stimuli/rescaled_final/1923_fw.mp4	0.0	141.04320788383484	
14	101.86504888534546	fix_post	2		12	12.0	2.5	/experiments/knapen_AOT/AOT_stimuli/rescaled_final/1923_fw.mp4	0.0	141.95917177200317	0.10002994537353516
15	101.965078830719	fix_pre	0		120	13.0	2.5	blank	1.0	142.0592017173767	1.0001251697540283
15	102.54876589775085	pulse	0	t		13.0	2.5	blank	1.0	142.64288878440857	
15	102.96520400047302	movie	1		300	13.0	2.5	blank	1.0	143.05932688713074	2.500379800796509
15	104.14889693260193	pulse	1	t		13.0	2.5	blank	1.0	144.24301981925964	
15	105.46558380126953	fix_post	2		12	13.0	2.5	blank	1.0	145.55970668792725	0.10001802444458008
16	105.56560182571411	fix_pre	0		120	14.0	2.5	/experiments/knapen_AOT/AOT_stimuli/rescaled_final/0865_fw.mp4	0.0	145.65972471237183	1.0001180171966553
16	105.74928498268127	pulse	0	t		14.0	2.5	/experiments/knapen_AOT/AOT_stimuli/rescaled_final/0865_fw.mp4	0.0	145.843407869339	
16	106.56571984291077	movie	1		243	14.0	2.5	/experiments/knapen_AOT/AOT_stimuli/rescaled_final/0865_fw.mp4	0.0	146.65984272956848	2.5003881454467773
16	107.34938192367554	pulse	1	t		14.0	2.5	/experiments/knapen_AOT/AOT_stimuli/rescaled_final/0865_fw.mp4	0.0	147.44350481033325	
16	108.94971084594727	pulse	1	t		14.0	2.5	/experiments/knapen_AOT/AOT_stimuli/rescaled_final/0865_fw.mp4	0.0	149.04383373260498	
16	109.06610798835754	fix_post	2		12	14.0	2.5	/experiments/knapen_AOT/AOT_stimuli/rescaled_final/0865_fw.mp4	0.0	149.16023087501526	0.10002803802490234
17	109.16613602638245	fix_pre	0		120	15.0	2.5	/experiments/knapen_AOT/AOT_stimuli/rescaled_final/0562_fw.mp4	0.0	149.26025891304016	1.0001108646392822
17	110.16624689102173	movie	1		243	15.0	2.5	/experiments/knapen_AOT/AOT_stimuli/rescaled_final/0562_fw.mp4	0.0	150.26036977767944	2.4920220375061035
17	110.54145884513855	pulse	1	t		15.0	2.5	/experiments/knapen_AOT/AOT_stimuli/rescaled_final/0562_fw.mp4	0.0	150.63558173179626	
17	112.14175081253052	pulse	1	t		15.0	2.5	/experiments/knapen_AOT/AOT_stimuli/rescaled_final/0562_fw.mp4	0.0	152.23587369918823	
17	112.65826892852783	fix_post	2		12	15.0	2.5	/experiments/knapen_AOT/AOT_stimuli/rescaled_final/0562_fw.mp4	0.0	152.75239181518555	0.1000518798828125
18	112.75832080841064	fix_pre	0		119	16.0	2.5	/experiments/knapen_AOT/AOT_stimuli/rescaled_final/1483_rv.mp4	0.0	152.85244369506836	0.9918081760406494
18	113.74200797080994	pulse	0	t		16.0	2.5	/experiments/knapen_AOT/AOT_stimuli/rescaled_final/1483_rv.mp4	0.0	153.83613085746765	
18	113.7501289844513	movie	1		245	16.0	2.5	/experiments/knapen_AOT/AOT_stimuli/rescaled_final/1483_rv.mp4	0.0	153.844251871109	2.508707046508789
18	115.34292387962341	pulse	1	t		16.0	2.5	/experiments/knapen_AOT/AOT_stimuli/rescaled_final/1483_rv.mp4	0.0	155.43704676628113	
18	116.25883603096008	fix_post	2		12	16.0	2.5	/experiments/knapen_AOT/AOT_stimuli/rescaled_final/1483_rv.mp4	0.0	156.3529589176178	0.1000218391418457
19	116.35885787010193	fix_pre	0		120	17.0	2.5	/experiments/knapen_AOT/AOT_stimuli/rescaled_final/1364_rv.mp4	0.0	156.45298075675964	1.0001490116119385
19	116.94245886802673	pulse	0	t		17.0	2.5	/experiments/knapen_AOT/AOT_stimuli/rescaled_final/1364_rv.mp4	0.0	157.03658175468445	
19	117.35900688171387	movie	1		245	17.0	2.5	/experiments/knapen_AOT/AOT_stimuli/rescaled_final/1364_rv.mp4	0.0	157.45312976837158	2.5003609657287598
19	118.54274892807007	pulse	1	t		17.0	2.5	/experiments/knapen_AOT/AOT_stimuli/rescaled_final/1364_rv.mp4	0.0	158.63687181472778	
19	119.85936784744263	fix_post	2		12	17.0	2.5	/experiments/knapen_AOT/AOT_stimuli/rescaled_final/1364_rv.mp4	0.0	159.95349073410034	0.10006308555603027
20	119.95943093299866	fix_pre	0		120	18.0	2.5	/experiments/knapen_AOT/AOT_stimuli/rescaled_final/0763_fw.mp4	0.0	160.05355381965637	1.0000898838043213
20	120.14292883872986	pulse	0	t		18.0	2.5	/experiments/knapen_AOT/AOT_stimuli/rescaled_final/0763_fw.mp4	0.0	160.23705172538757	
20	120.95952081680298	movie	1		244	18.0	2.5	/experiments/knapen_AOT/AOT_stimuli/rescaled_final/0763_fw.mp4	0.0	161.0536437034607	2.5003931522369385
20	121.74333000183105	pulse	1	t		18.0	2.5	/experiments/knapen_AOT/AOT_stimuli/rescaled_final/0763_fw.mp4	0.0	161.83745288848877	
20	123.34346103668213	pulse	1	t		18.0	2.5	/experiments/knapen_AOT/AOT_stimuli/rescaled_final/0763_fw.mp4	0.0	163.43758392333984	
20	123.45991396903992	fix_post	2		12	18.0	2.5	/experiments/knapen_AOT/AOT_stimuli/rescaled_final/0763_fw.mp4	0.0	163.55403685569763	0.10003089904785156
21	123.55994486808777	fix_pre	0		120	19.0	2.5	/experiments/knapen_AOT/AOT_stimuli/rescaled_final/0108_fw.mp4	0.0	163.65406775474548	1.000115156173706
21	124.56006002426147	movie	1		248	19.0	2.5	/experiments/knapen_AOT/AOT_stimuli/rescaled_final/0108_fw.mp4	0.0	164.6541829109192	2.492105007171631
21	124.94482898712158	pulse	1	t		19.0	2.5	/experiments/knapen_AOT/AOT_stimuli/rescaled_final/0108_fw.mp4	0.0	165.0389518737793	
21	126.54394698143005	pulse	1	t		19.0	2.5	/experiments/knapen_AOT/AOT_stimuli/rescaled_final/0108_fw.mp4	0.0	166.63806986808777	
21	127.0521650314331	fix_post	2		12	19.0	2.5	/experiments/knapen_AOT/AOT_stimuli/rescaled_final/0108_fw.mp4	0.0	167.14628791809082	0.10003089904785156
22	127.15219593048096	fix_pre	0		120	20.0	2.5	blank	1.0	167.24631881713867	1.0001120567321777
22	128.14421892166138	pulse	0	t		20.0	2.5	blank	1.0	168.2383418083191	
22	128.15230798721313	movie	1		301	20.0	2.5	blank	1.0	168.24643087387085	2.5087709426879883
22	129.7444679737091	pulse	1	t		20.0	2.5	blank	1.0	169.83859086036682	
22	130.66107892990112	fix_post	2		12	20.0	2.5	blank	1.0	170.75520181655884	0.09995698928833008
23	130.76103591918945	fix_pre	0		120	21.0	2.5	/experiments/knapen_AOT/AOT_stimuli/rescaled_final/1694_fw.mp4	0.0	170.85515880584717	1.000148057937622
23	131.34466886520386	pulse	0	t		21.0	2.5	/experiments/knapen_AOT/AOT_stimuli/rescaled_final/1694_fw.mp4	0.0	171.43879175186157	
23	131.76118397712708	movie	1		243	21.0	2.5	/experiments/knapen_AOT/AOT_stimuli/rescaled_final/1694_fw.mp4	0.0	171.8553068637848	2.5003819465637207
23	132.94493699073792	pulse	1	t		21.0	2.5	/experiments/knapen_AOT/AOT_stimuli/rescaled_final/1694_fw.mp4	0.0	173.03905987739563	
23	134.2615659236908	fix_post	2		12	21.0	2.5	/experiments/knapen_AOT/AOT_stimuli/rescaled_final/1694_fw.mp4	0.0	174.3556888103485	0.09998393058776855
24	134.36154985427856	fix_pre	0		120	22.0	2.5	/experiments/knapen_AOT/AOT_stimuli/rescaled_final/0837_fw.mp4	0.0	174.45567274093628	1.0001580715179443
24	134.54516696929932	pulse	0	t		22.0	2.5	/experiments/knapen_AOT/AOT_stimuli/rescaled_final/0837_fw.mp4	0.0	174.63928985595703	
24	135.3617079257965	movie	1		243	22.0	2.5	/experiments/knapen_AOT/AOT_stimuli/rescaled_final/0837_fw.mp4	0.0	175.45583081245422	2.500365972518921
24	136.1454358100891	pulse	1	t		22.0	2.5	/experiments/knapen_AOT/AOT_stimuli/rescaled_final/0837_fw.mp4	0.0	176.23955869674683	
24	137.7454538345337	pulse	1	t		22.0	2.5	/experiments/knapen_AOT/AOT_stimuli/rescaled_final/0837_fw.mp4	0.0	177.8395767211914	
24	137.86207389831543	fix_post	2		12	22.0	2.5	/experiments/knapen_AOT/AOT_stimuli/rescaled_final/0837_fw.mp4	0.0	177.95619678497314	0.10001111030578613
25	137.96208500862122	fix_pre	0		120	23.0	2.5	/experiments/knapen_AOT/AOT_stimuli/rescaled_final/0912_rv.mp4	0.0	178.05620789527893	1.0001778602600098
25	138.96226286888123	movie	1		243	23.0	2.5	/experiments/knapen_AOT/AOT_stimuli/rescaled_final/0912_rv.mp4	0.0	179.05638575553894	2.491981029510498
25	139.3463249206543	pulse	1	t		23.0	2.5	/experiments/knapen_AOT/AOT_stimuli/rescaled_final/0912_rv.mp4	0.0	179.440447807312	
25	140.94620299339294	pulse	1	t		23.0	2.5	/experiments/knapen_AOT/AOT_stimuli/rescaled_final/0912_rv.mp4	0.0	181.04032588005066	
25	141.45424389839172	fix_post	2		12	23.0	2.5	/experiments/knapen_AOT/AOT_stimuli/rescaled_final/0912_rv.mp4	0.0	181.54836678504944	0.10005807876586914
26	141.5543019771576	fix_pre	0		120	24.0	2.5	/experiments/knapen_AOT/AOT_stimuli/rescaled_final/0729_rv.mp4	0.0	181.6484248638153	1.0001239776611328
26	142.5464358329773	pulse	0	t		24.0	2.5	/experiments/knapen_AOT/AOT_stimuli/rescaled_final/0729_rv.mp4	0.0	182.640558719635	
26	142.55442595481873	movie	1		241	24.0	2.5	/experiments/knapen_AOT/AOT_stimuli/rescaled_final/0729_rv.mp4	0.0	182.64854884147644	2.5087239742279053
26	144.14732384681702	pulse	1	t		24.0	2.5	/experiments/knapen_AOT/AOT_stimuli/rescaled_final/0729_rv.mp4	0.0	184.24144673347473	
26	145.06314992904663	fix_post	2		12	24.0	2.5	/experiments/knapen_AOT/AOT_stimuli/rescaled_final/0729_rv.mp4	0.0	185.15727281570435	0.10000896453857422
27	145.1631588935852	fix_pre	0		120	25.0	2.5	/experiments/knapen_AOT/AOT_stimuli/rescaled_final/0875_rv.mp4	0.0	185.25728178024292	1.0001490116119385
27	145.74679398536682	pulse	0	t		25.0	2.5	/experiments/knapen_AOT/AOT_stimuli/rescaled_final/0875_rv.mp4	0.0	185.84091687202454	
27	146.16330790519714	movie	1		243	25.0	2.5	/experiments/knapen_AOT/AOT_stimuli/rescaled_final/0875_rv.mp4	0.0	186.25743079185486	2.500354051589966
27	147.3470540046692	pulse	1	t		25.0	2.5	/experiments/knapen_AOT/AOT_stimuli/rescaled_final/0875_rv.mp4	0.0	187.4411768913269	
27	148.6636619567871	fix_post	2		12	25.0	2.5	/experiments/knapen_AOT/AOT_stimuli/rescaled_final/0875_rv.mp4	0.0	188.75778484344482	0.1000220775604248
28	148.76368403434753	fix_pre	0		120	26.0	2.5	/experiments/knapen_AOT/AOT_stimuli/rescaled_final/1963_rv.mp4	0.0	188.85780692100525	1.0001869201660156
28	148.94733500480652	pulse	0	t		26.0	2.5	/experiments/knapen_AOT/AOT_stimuli/rescaled_final/1963_rv.mp4	0.0	189.04145789146423	
28	149.76387095451355	movie	1		243	26.0	2.5	/experiments/knapen_AOT/AOT_stimuli/rescaled_final/1963_rv.mp4	0.0	189.85799384117126	2.500300884246826
28	150.5475718975067	pulse	1	t		26.0	2.5	/experiments/knapen_AOT/AOT_stimuli/rescaled_final/1963_rv.mp4	0.0	190.64169478416443	
28	152.14868593215942	pulse	1	t		26.0	2.5	/experiments/knapen_AOT/AOT_stimuli/rescaled_final/1963_rv.mp4	0.0	192.24280881881714	
28	152.26417183876038	fix_post	2		12	26.0	2.5	/experiments/knapen_AOT/AOT_stimuli/rescaled_final/1963_rv.mp4	0.0	192.3582947254181	0.1000831127166748
29	152.36425495147705	fix_pre	0		120	27.0	2.5	blank	1.0	192.45837783813477	1.0001509189605713
29	153.36440587043762	movie	1		299	27.0	2.5	blank	1.0	193.45852875709534	2.4920220375061035
29	153.74792194366455	pulse	1	t		27.0	2.5	blank	1.0	193.84204483032227	
29	155.34829998016357	pulse	1	t		27.0	2.5	blank	1.0	195.4424228668213	
29	155.85642790794373	fix_post	2		12	27.0	2.5	blank	1.0	195.95055079460144	0.1000070571899414
30	155.95643496513367	fix_pre	0		120	28.0	2.5	/experiments/knapen_AOT/AOT_stimuli/rescaled_final/0415_fw.mp4	0.0	196.05055785179138	1.0001530647277832
30	156.9485809803009	pulse	0	t		28.0	2.5	/experiments/knapen_AOT/AOT_stimuli/rescaled_final/0415_fw.mp4	0.0	197.04270386695862	
30	156.95658802986145	movie	1		245	28.0	2.5	/experiments/knapen_AOT/AOT_stimuli/rescaled_final/0415_fw.mp4	0.0	197.05071091651917	2.5087809562683105
30	158.54950881004333	pulse	1	t		28.0	2.5	/experiments/knapen_AOT/AOT_stimuli/rescaled_final/0415_fw.mp4	0.0	198.64363169670105	
30	159.46536898612976	fix_post	2		12	28.0	2.5	/experiments/knapen_AOT/AOT_stimuli/rescaled_final/0415_fw.mp4	0.0	199.55949187278748	0.09992194175720215
31	159.56529092788696	fix_pre	0		120	29.0	2.5	/experiments/knapen_AOT/AOT_stimuli/rescaled_final/2176_fw.mp4	0.0	199.65941381454468	1.0001568794250488
31	160.14890098571777	pulse	0	t		29.0	2.5	/experiments/knapen_AOT/AOT_stimuli/rescaled_final/2176_fw.mp4	0.0	200.2430238723755	
31	160.565447807312	movie	1		245	29.0	2.5	/experiments/knapen_AOT/AOT_stimuli/rescaled_final/2176_fw.mp4	0.0	200.65957069396973	2.500392198562622
31	161.74922490119934	pulse	1	t		29.0	2.5	/experiments/knapen_AOT/AOT_stimuli/rescaled_final/2176_fw.mp4	0.0	201.84334778785706	
31	163.06584000587463	fix_post	2		12	29.0	2.5	/experiments/knapen_AOT/AOT_stimuli/rescaled_final/2176_fw.mp4	0.0	203.15996289253235	0.1000058650970459
32	163.16584587097168	fix_pre	0		120	30.0	2.5	/experiments/knapen_AOT/AOT_stimuli/rescaled_final/0839_rv.mp4	0.0	203.2599687576294	1.0002319812774658
32	163.34185099601746	pulse	0	t		30.0	2.5	/experiments/knapen_AOT/AOT_stimuli/rescaled_final/0839_rv.mp4	0.0	203.43597388267517	
32	164.16607785224915	movie	1		244	30.0	2.5	/experiments/knapen_AOT/AOT_stimuli/rescaled_final/0839_rv.mp4	0.0	204.26020073890686	2.500278949737549
32	164.9423098564148	pulse	1	t		30.0	2.5	/experiments/knapen_AOT/AOT_stimuli/rescaled_final/0839_rv.mp4	0.0	205.0364327430725	
32	166.54980301856995	pulse	1	t		30.0	2.5	/experiments/knapen_AOT/AOT_stimuli/rescaled_final/0839_rv.mp4	0.0	206.64392590522766	
32	166.6663568019867	fix_post	2		12	30.0	2.5	/experiments/knapen_AOT/AOT_stimuli/rescaled_final/0839_rv.mp4	0.0	206.7604796886444	0.10001111030578613
33	166.76636791229248	fix_pre	0		120	31.0	2.5	/experiments/knapen_AOT/AOT_stimuli/rescaled_final/0835_fw.mp4	0.0	206.8604907989502	1.0001509189605713
33	167.76651883125305	movie	1		243	31.0	2.5	/experiments/knapen_AOT/AOT_stimuli/rescaled_final/0835_fw.mp4	0.0	207.86064171791077	2.492039203643799
33	168.15078783035278	pulse	1	t		31.0	2.5	/experiments/knapen_AOT/AOT_stimuli/rescaled_final/0835_fw.mp4	0.0	208.2449107170105	
33	169.74221992492676	pulse	1	t		31.0	2.5	/experiments/knapen_AOT/AOT_stimuli/rescaled_final/0835_fw.mp4	0.0	209.83634281158447	
33	170.25855803489685	fix_post	2		12	31.0	2.5	/experiments/knapen_AOT/AOT_stimuli/rescaled_final/0835_fw.mp4	0.0	210.35268092155457	0.10001492500305176
34	170.3585729598999	fix_pre	0		119	32.0	2.5	/experiments/knapen_AOT/AOT_stimuli/rescaled_final/0485_fw.mp4	0.0	210.45269584655762	0.9918479919433594
34	171.34225296974182	pulse	0	t		32.0	2.5	/experiments/knapen_AOT/AOT_stimuli/rescaled_final/0485_fw.mp4	0.0	211.43637585639954	
34	171.35042095184326	movie	1		245	32.0	2.5	/experiments/knapen_AOT/AOT_stimuli/rescaled_final/0485_fw.mp4	0.0	211.44454383850098	2.5086560249328613
34	172.9429910182953	pulse	1	t		32.0	2.5	/experiments/knapen_AOT/AOT_stimuli/rescaled_final/0485_fw.mp4	0.0	213.037113904953	
34	173.85907697677612	fix_post	2		12	32.0	2.5	/experiments/knapen_AOT/AOT_stimuli/rescaled_final/0485_fw.mp4	0.0	213.95319986343384	0.10011100769042969
35	173.95918798446655	fix_pre	0		120	33.0	2.5	/experiments/knapen_AOT/AOT_stimuli/rescaled_final/1339_rv.mp4	0.0	214.05331087112427	1.0000789165496826
35	174.54276394844055	pulse	0	t		33.0	2.5	/experiments/knapen_AOT/AOT_stimuli/rescaled_final/1339_rv.mp4	0.0	214.63688683509827	
35	174.95926690101624	movie	1		244	33.0	2.5	/experiments/knapen_AOT/AOT_stimuli/rescaled_final/1339_rv.mp4	0.0	215.05338978767395	2.500338077545166
35	176.143052816391	pulse	1	t		33.0	2.5	/experiments/knapen_AOT/AOT_stimuli/rescaled_final/1339_rv.mp4	0.0	216.2371757030487	
35	177.4596049785614	fix_post	2		12	33.0	2.5	/experiments/knapen_AOT/AOT_stimuli/rescaled_final/1339_rv.mp4	0.0	217.55372786521912	0.1000368595123291
36	177.55964183807373	fix_pre	0		120	34.0	2.5	blank	1.0	217.65376472473145	1.0001790523529053
36	177.74319887161255	pulse	0	t		34.0	2.5	blank	1.0	217.83732175827026	
36	178.55982089042664	movie	1		300	34.0	2.5	blank	1.0	218.65394377708435	2.5003631114959717
36	179.34348392486572	pulse	1	t		34.0	2.5	blank	1.0	219.43760681152344	
36	180.9436638355255	pulse	1	t		34.0	2.5	blank	1.0	221.03778672218323	
36	181.0601840019226	fix_post	2		12	34.0	2.5	blank	1.0	221.15430688858032	0.10002779960632324
37	181.16021180152893	fix_pre	0		120	35.0	2.5	/experiments/knapen_AOT/AOT_stimuli/rescaled_final/0917_rv.mp4	0.0	221.25433468818665	1.0001301765441895
37	182.16034197807312	movie	1		242	35.0	2.5	/experiments/knapen_AOT/AOT_stimuli/rescaled_final/0917_rv.mp4	0.0	222.25446486473083	2.4919769763946533
37	182.54528403282166	pulse	1	t		35.0	2.5	/experiments/knapen_AOT/AOT_stimuli/rescaled_final/0917_rv.mp4	0.0	222.63940691947937	
37	184.14428901672363	pulse	1	t		35.0	2.5	/experiments/knapen_AOT/AOT_stimuli/rescaled_final/0917_rv.mp4	0.0	224.23841190338135	
37	184.65231895446777	fix_post	2		12	35.0	2.5	/experiments/knapen_AOT/AOT_stimuli/rescaled_final/0917_rv.mp4	0.0	224.7464418411255	0.10005903244018555
38	184.75237798690796	fix_pre	0		120	36.0	2.5	/experiments/knapen_AOT/AOT_stimuli/rescaled_final/0842_fw.mp4	0.0	224.84650087356567	1.000175952911377
38	185.74439191818237	pulse	0	t		36.0	2.5	/experiments/knapen_AOT/AOT_stimuli/rescaled_final/0842_fw.mp4	0.0	225.8385148048401	
38	185.75255393981934	movie	1		245	36.0	2.5	/experiments/knapen_AOT/AOT_stimuli/rescaled_final/0842_fw.mp4	0.0	225.84667682647705	2.508699893951416
38	187.34533381462097	pulse	1	t		36.0	2.5	/experiments/knapen_AOT/AOT_stimuli/rescaled_final/0842_fw.mp4	0.0	227.4394567012787	
38	188.26125383377075	fix_post	2		12	36.0	2.5	/experiments/knapen_AOT/AOT_stimuli/rescaled_final/0842_fw.mp4	0.0	228.35537672042847	0.10003304481506348
39	188.36128687858582	fix_pre	0		120	37.0	2.5	/experiments/knapen_AOT/AOT_stimuli/rescaled_final/2028_fw.mp4	0.0	228.45540976524353	1.0001039505004883
39	188.94488883018494	pulse	0	t		37.0	2.5	/experiments/knapen_AOT/AOT_stimuli/rescaled_final/2028_fw.mp4	0.0	229.03901171684265	
39	189.3613908290863	movie	1		244	37.0	2.5	/experiments/knapen_AOT/AOT_stimuli/rescaled_final/2028_fw.mp4	0.0	229.45551371574402	2.500392198562622
39	190.54520082473755	pulse	1	t		37.0	2.5	/experiments/knapen_AOT/AOT_stimuli/rescaled_final/2028_fw.mp4	0.0	230.63932371139526	
39	191.86178302764893	fix_post	2		12	37.0	2.5	/experiments/knapen_AOT/AOT_stimuli/rescaled_final/2028_fw.mp4	0.0	231.95590591430664	0.10001778602600098
40	191.96180081367493	fix_pre	0		120	38.0	2.5	/experiments/knapen_AOT/AOT_stimuli/rescaled_final/1610_fw.mp4	0.0	232.05592370033264	1.0001749992370605
40	192.14536499977112	pulse	0	t		38.0	2.5	/experiments/knapen_AOT/AOT_stimuli/rescaled_final/1610_fw.mp4	0.0	232.23948788642883	
40	192.961975812912	movie	1		244	38.0	2.5	/experiments/knapen_AOT/AOT_stimuli/rescaled_final/1610_fw.mp4	0.0	233.0560986995697	2.50032901763916
40	193.74560499191284	pulse	1	t		38.0	2.5	/experiments/knapen_AOT/AOT_stimuli/rescaled_final/1610_fw.mp4	0.0	233.83972787857056	
40	195.34551787376404	pulse	1	t		38.0	2.5	/experiments/knapen_AOT/AOT_stimuli/rescaled_final/1610_fw.mp4	0.0	235.43964076042175	
40	195.46230483055115	fix_post	2		12	38.0	2.5	/experiments/knapen_AOT/AOT_stimuli/rescaled_final/1610_fw.mp4	0.0	235.55642771720886	0.10002708435058594
41	195.56233191490173	fix_pre	0		119	39.0	2.5	/experiments/knapen_AOT/AOT_stimuli/rescaled_final/1774_fw.mp4	0.0	235.65645480155945	0.9918549060821533
41	196.5541868209839	movie	1		244	39.0	2.5	/experiments/knapen_AOT/AOT_stimuli/rescaled_final/1774_fw.mp4	0.0	236.6483097076416	2.5003020763397217
41	196.9462058544159	pulse	1	t		39.0	2.5	/experiments/knapen_AOT/AOT_stimuli/rescaled_final/1774_fw.mp4	0.0	237.0403287410736	
41	198.54639387130737	pulse	1	t		39.0	2.5	/experiments/knapen_AOT/AOT_stimuli/rescaled_final/1774_fw.mp4	0.0	238.6405167579651	
41	199.0544888973236	fix_post	2		12	39.0	2.5	/experiments/knapen_AOT/AOT_stimuli/rescaled_final/1774_fw.mp4	0.0	239.14861178398132	0.10004401206970215
42	199.1545329093933	fix_pre	0		120	40.0	2.5	/experiments/knapen_AOT/AOT_stimuli/rescaled_final/1423_fw.mp4	0.0	239.24865579605103	1.0001640319824219
42	200.1465358734131	pulse	0	t		40.0	2.5	/experiments/knapen_AOT/AOT_stimuli/rescaled_final/1423_fw.mp4	0.0	240.2406587600708	
42	200.15469694137573	movie	1		244	40.0	2.5	/experiments/knapen_AOT/AOT_stimuli/rescaled_final/1423_fw.mp4	0.0	240.24881982803345	2.508791923522949
42	201.7475118637085	pulse	1	t		40.0	2.5	/experiments/knapen_AOT/AOT_stimuli/rescaled_final/1423_fw.mp4	0.0	241.8416347503662	
42	202.66348886489868	fix_post	2		12	40.0	2.5	/experiments/knapen_AOT/AOT_stimuli/rescaled_final/1423_fw.mp4	0.0	242.7576117515564	0.09992194175720215
43	202.76341080665588	fix_pre	0		118	41.0	2.5	blank	1.0	242.8575336933136	1.0001490116119385
43	203.34716296195984	pulse	0	t		41.0	2.5	blank	1.0	243.44128584861755	
43	203.76355981826782	movie	1		300	41.0	2.5	blank	1.0	243.85768270492554	2.500378131866455
43	204.94737792015076	pulse	1	t		41.0	2.5	blank	1.0	245.04150080680847	
43	206.26393795013428	fix_post	2		12	41.0	2.5	blank	1.0	246.358060836792	0.09998202323913574
44	206.3639199733734	fix_pre	0		120	42.0	2.5	/experiments/knapen_AOT/AOT_stimuli/rescaled_final/0940_fw.mp4	0.0	246.45804286003113	1.000180959701538
44	206.5474979877472	pulse	0	t		42.0	2.5	/experiments/knapen_AOT/AOT_stimuli/rescaled_final/0940_fw.mp4	0.0	246.6416208744049	
44	207.36410093307495	movie	1		243	42.0	2.5	/experiments/knapen_AOT/AOT_stimuli/rescaled_final/0940_fw.mp4	0.0	247.45822381973267	2.5003819465637207
44	208.14770603179932	pulse	1	t		42.0	2.5	/experiments/knapen_AOT/AOT_stimuli/rescaled_final/0940_fw.mp4	0.0	248.24182891845703	
44	209.74775791168213	pulse	1	t		42.0	2.5	/experiments/knapen_AOT/AOT_stimuli/rescaled_final/0940_fw.mp4	0.0	249.84188079833984	
44	209.86448287963867	fix_post	2		12	42.0	2.5	/experiments/knapen_AOT/AOT_stimuli/rescaled_final/0940_fw.mp4	0.0	249.9586057662964	0.09999394416809082
45	209.96447682380676	fix_pre	0		119	43.0	2.5	/experiments/knapen_AOT/AOT_stimuli/rescaled_final/0625_fw.mp4	0.0	250.05859971046448	0.9918529987335205
45	210.95632982254028	movie	1		243	43.0	2.5	/experiments/knapen_AOT/AOT_stimuli/rescaled_final/0625_fw.mp4	0.0	251.050452709198	2.50032901763916
45	211.34836602210999	pulse	1	t		43.0	2.5	/experiments/knapen_AOT/AOT_stimuli/rescaled_final/0625_fw.mp4	0.0	251.4424889087677	
45	212.94853401184082	pulse	1	t		43.0	2.5	/experiments/knapen_AOT/AOT_stimuli/rescaled_final/0625_fw.mp4	0.0	253.04265689849854	
45	213.45665884017944	fix_post	2		12	43.0	2.5	/experiments/knapen_AOT/AOT_stimuli/rescaled_final/0625_fw.mp4	0.0	253.55078172683716	0.10005712509155273
46	213.556715965271	fix_pre	0		120	44.0	2.5	/experiments/knapen_AOT/AOT_stimuli/rescaled_final/1586_rv.mp4	0.0	253.6508388519287	1.0001728534698486
46	214.5486798286438	pulse	0	t		44.0	2.5	/experiments/knapen_AOT/AOT_stimuli/rescaled_final/1586_rv.mp4	0.0	254.6428027153015	
46	214.55688881874084	movie	1		244	44.0	2.5	/experiments/knapen_AOT/AOT_stimuli/rescaled_final/1586_rv.mp4	0.0	254.65101170539856	2.5087530612945557
46	216.14990401268005	pulse	1	t		44.0	2.5	/experiments/knapen_AOT/AOT_stimuli/rescaled_final/1586_rv.mp4	0.0	256.24402689933777	
46	217.0656418800354	fix_post	2		12	44.0	2.5	/experiments/knapen_AOT/AOT_stimuli/rescaled_final/1586_rv.mp4	0.0	257.1597647666931	0.09992504119873047
47	217.16556692123413	fix_pre	0		120	45.0	2.5	/experiments/knapen_AOT/AOT_stimuli/rescaled_final/1582_fw.mp4	0.0	257.25968980789185	1.0001249313354492
47	217.74176502227783	pulse	0	t		45.0	2.5	/experiments/knapen_AOT/AOT_stimuli/rescaled_final/1582_fw.mp4	0.0	257.83588790893555	
47	218.16569185256958	movie	1		243	45.0	2.5	/experiments/knapen_AOT/AOT_stimuli/rescaled_final/1582_fw.mp4	0.0	258.2598147392273	2.5003890991210938
47	219.3415069580078	pulse	1	t		45.0	2.5	/experiments/knapen_AOT/AOT_stimuli/rescaled_final/1582_fw.mp4	0.0	259.4356298446655	
47	220.66608095169067	fix_post	2		12	45.0	2.5	/experiments/knapen_AOT/AOT_stimuli/rescaled_final/1582_fw.mp4	0.0	260.7602038383484	0.10004997253417969
48	220.76613092422485	fix_pre	0		120	46.0	2.5	/experiments/knapen_AOT/AOT_stimuli/rescaled_final/1807_rv.mp4	0.0	260.86025381088257	1.0000739097595215
48	220.94212794303894	pulse	0	t		46.0	2.5	/experiments/knapen_AOT/AOT_stimuli/rescaled_final/1807_rv.mp4	0.0	261.03625082969666	
48	221.76620483398438	movie	1		244	46.0	2.5	/experiments/knapen_AOT/AOT_stimuli/rescaled_final/1807_rv.mp4	0.0	261.8603277206421	2.5003960132598877
48	222.54172801971436	pulse	1	t		46.0	2.5	/experiments/knapen_AOT/AOT_stimuli/rescaled_final/1807_rv.mp4	0.0	262.63585090637207	
48	224.14173293113708	pulse	1	t		46.0	2.5	/experiments/knapen_AOT/AOT_stimuli/rescaled_final/1807_rv.mp4	0.0	264.2358558177948	
48	224.26660084724426	fix_post	2		12	46.0	2.5	/experiments/knapen_AOT/AOT_stimuli/rescaled_final/1807_rv.mp4	0.0	264.360723733902	0.10003209114074707
49	224.366632938385	fix_pre	0		119	47.0	2.5	blank	1.0	264.4607558250427	0.9918169975280762
49	225.3584499359131	movie	1		300	47.0	2.5	blank	1.0	265.4525728225708	2.5003910064697266
49	225.74197793006897	pulse	1	t		47.0	2.5	blank	1.0	265.8361008167267	
49	227.34227895736694	pulse	1	t		47.0	2.5	blank	1.0	267.43640184402466	
49	227.8588409423828	fix_post	2		12	47.0	2.5	blank	1.0	267.9529638290405	0.0999898910522461
50	227.95883083343506	fix_pre	0		119	48.0	2.5	/experiments/knapen_AOT/AOT_stimuli/rescaled_final/0797_fw.mp4	0.0	268.0529537200928	0.9918060302734375
50	228.94261693954468	pulse	0	t		48.0	2.5	/experiments/knapen_AOT/AOT_stimuli/rescaled_final/0797_fw.mp4	0.0	269.0367398262024	
50	228.9506368637085	movie	1		245	48.0	2.5	/experiments/knapen_AOT/AOT_stimuli/rescaled_final/0797_fw.mp4	0.0	269.0447597503662	2.5087289810180664
50	230.54340887069702	pulse	1	t		48.0	2.5	/experiments/knapen_AOT/AOT_stimuli/rescaled_final/0797_fw.mp4	0.0	270.63753175735474	
50	231.45936584472656	fix_post	2		12	48.0	2.5	/experiments/knapen_AOT/AOT_stimuli/rescaled_final/0797_fw.mp4	0.0	271.5534887313843	0.10001516342163086
51	231.5593810081482	fix_pre	0		120	49.0	2.5	/experiments/knapen_AOT/AOT_stimuli/rescaled_final/2144_rv.mp4	0.0	271.6535038948059	1.0001559257507324
51	232.14295887947083	pulse	0	t		49.0	2.5	/experiments/knapen_AOT/AOT_stimuli/rescaled_final/2144_rv.mp4	0.0	272.23708176612854	
51	232.55953693389893	movie	1		244	49.0	2.5	/experiments/knapen_AOT/AOT_stimuli/rescaled_final/2144_rv.mp4	0.0	272.65365982055664	2.5003578662872314
51	233.74336194992065	pulse	1	t		49.0	2.5	/experiments/knapen_AOT/AOT_stimuli/rescaled_final/2144_rv.mp4	0.0	273.83748483657837	
51	235.05989480018616	fix_post	2		12	49.0	2.5	/experiments/knapen_AOT/AOT_stimuli/rescaled_final/2144_rv.mp4	0.0	275.1540176868439	0.10001015663146973
52	235.15990495681763	fix_pre	0		120	50.0	2.5	/experiments/knapen_AOT/AOT_stimuli/rescaled_final/0027_fw.mp4	0.0	275.25402784347534	1.000154972076416
52	235.3435628414154	pulse	0	t		50.0	2.5	/experiments/knapen_AOT/AOT_stimuli/rescaled_final/0027_fw.mp4	0.0	275.4376857280731	
52	236.16005992889404	movie	1		243	50.0	2.5	/experiments/knapen_AOT/AOT_stimuli/rescaled_final/0027_fw.mp4	0.0	276.25418281555176	2.5003600120544434
52	236.94369888305664	pulse	1	t		50.0	2.5	/experiments/knapen_AOT/AOT_stimuli/rescaled_final/0027_fw.mp4	0.0	277.03782176971436	
52	238.54426097869873	pulse	1	t		50.0	2.5	/experiments/knapen_AOT/AOT_stimuli/rescaled_final/0027_fw.mp4	0.0	278.63838386535645	
52	238.6604199409485	fix_post	2		12	50.0	2.5	/experiments/knapen_AOT/AOT_stimuli/rescaled_final/0027_fw.mp4	0.0	278.7545428276062	0.10001397132873535
53	238.76043391227722	fix_pre	0		120	51.0	2.5	/experiments/knapen_AOT/AOT_stimuli/rescaled_final/1787_fw.mp4	0.0	278.85455679893494	1.0001399517059326
53	239.76057386398315	movie	1		242	51.0	2.5	/experiments/knapen_AOT/AOT_stimuli/rescaled_final/1787_fw.mp4	0.0	279.85469675064087	2.492047071456909
53	240.14457988739014	pulse	1	t		51.0	2.5	/experiments/knapen_AOT/AOT_stimuli/rescaled_final/1787_fw.mp4	0.0	280.23870277404785	
53	241.74444484710693	pulse	1	t		51.0	2.5	/experiments/knapen_AOT/AOT_stimuli/rescaled_final/1787_fw.mp4	0.0	281.83856773376465	
53	242.25262093544006	fix_post	2		12	51.0	2.5	/experiments/knapen_AOT/AOT_stimuli/rescaled_final/1787_fw.mp4	0.0	282.3467438220978	0.10001087188720703
54	242.35263180732727	fix_pre	0		120	52.0	2.5	/experiments/knapen_AOT/AOT_stimuli/rescaled_final/0752_rv.mp4	0.0	282.446754693985	1.0001552104949951
54	243.3447139263153	pulse	0	t		52.0	2.5	/experiments/knapen_AOT/AOT_stimuli/rescaled_final/0752_rv.mp4	0.0	283.438836812973	
54	243.35278701782227	movie	1		246	52.0	2.5	/experiments/knapen_AOT/AOT_stimuli/rescaled_final/0752_rv.mp4	0.0	283.44690990448	2.5088419914245605
54	244.9453628063202	pulse	1	t		52.0	2.5	/experiments/knapen_AOT/AOT_stimuli/rescaled_final/0752_rv.mp4	0.0	285.0394856929779	
54	245.86162900924683	fix_post	2		12	52.0	2.5	/experiments/knapen_AOT/AOT_stimuli/rescaled_final/0752_rv.mp4	0.0	285.95575189590454	0.09987998008728027
55	245.9615089893341	fix_pre	0		120	53.0	2.5	/experiments/knapen_AOT/AOT_stimuli/rescaled_final/1751_rv.mp4	0.0	286.0556318759918	1.0001728534698486
55	246.54512286186218	pulse	0	t		53.0	2.5	/experiments/knapen_AOT/AOT_stimuli/rescaled_final/1751_rv.mp4	0.0	286.6392457485199	
55	246.96168184280396	movie	1		244	53.0	2.5	/experiments/knapen_AOT/AOT_stimuli/rescaled_final/1751_rv.mp4	0.0	287.05580472946167	2.5003480911254883
55	248.14553785324097	pulse	1	t		53.0	2.5	/experiments/knapen_AOT/AOT_stimuli/rescaled_final/1751_rv.mp4	0.0	288.2396607398987	
55	249.46202993392944	fix_post	2		12	53.0	2.5	/experiments/knapen_AOT/AOT_stimuli/rescaled_final/1751_rv.mp4	0.0	289.55615282058716	0.10000991821289062
56	249.56203985214233	fix_pre	0		120	54.0	2.5	blank	1.0	289.65616273880005	1.0001630783081055
56	249.74573683738708	pulse	0	t		54.0	2.5	blank	1.0	289.8398597240448	
56	250.56220293045044	movie	1		300	54.0	2.5	blank	1.0	290.65632581710815	2.500382900238037
56	251.3458709716797	pulse	1	t		54.0	2.5	blank	1.0	291.4399938583374	
56	252.94608092308044	pulse	1	t		54.0	2.5	blank	1.0	293.04020380973816	
56	253.06258583068848	fix_post	2		12	54.0	2.5	blank	1.0	293.1567087173462	0.10004997253417969
57	253.16263580322266	fix_pre	0		120	55.0	2.5	/experiments/knapen_AOT/AOT_stimuli/rescaled_final/2064_fw.mp4	0.0	293.25675868988037	1.000150203704834
57	254.1627860069275	movie	1		243	55.0	2.5	/experiments/knapen_AOT/AOT_stimuli/rescaled_final/2064_fw.mp4	0.0	294.2569088935852	2.4919638633728027
57	254.54701590538025	pulse	1	t		55.0	2.5	/experiments/knapen_AOT/AOT_stimuli/rescaled_final/2064_fw.mp4	0.0	294.64113879203796	
57	256.1467249393463	pulse	1	t		55.0	2.5	/experiments/knapen_AOT/AOT_stimuli/rescaled_final/2064_fw.mp4	0.0	296.240847826004	
57	256.6547498703003	fix_post	2		12	55.0	2.5	/experiments/knapen_AOT/AOT_stimuli/rescaled_final/2064_fw.mp4	0.0	296.748872756958	0.10001206398010254
58	256.7547619342804	fix_pre	0		120	56.0	2.5	/experiments/knapen_AOT/AOT_stimuli/rescaled_final/1249_rv.mp4	0.0	296.8488848209381	1.0001730918884277
58	257.74675583839417	pulse	0	t		56.0	2.5	/experiments/knapen_AOT/AOT_stimuli/rescaled_final/1249_rv.mp4	0.0	297.8408787250519	
58	257.7549350261688	movie	1		246	56.0	2.5	/experiments/knapen_AOT/AOT_stimuli/rescaled_final/1249_rv.mp4	0.0	297.84905791282654	2.508692979812622
58	259.34778881073	pulse	1	t		56.0	2.5	/experiments/knapen_AOT/AOT_stimuli/rescaled_final/1249_rv.mp4	0.0	299.4419116973877	
58	260.26362800598145	fix_post	2		12	56.0	2.5	/experiments/knapen_AOT/AOT_stimuli/rescaled_final/1249_rv.mp4	0.0	300.35775089263916	0.10002684593200684
59	260.36365485191345	fix_pre	0		120	57.0	2.5	/experiments/knapen_AOT/AOT_stimuli/rescaled_final/2042_rv.mp4	0.0	300.45777773857117	1.000169038772583
59	260.9475200176239	pulse	0	t		57.0	2.5	/experiments/knapen_AOT/AOT_stimuli/rescaled_final/2042_rv.mp4	0.0	301.0416429042816	
59	261.36382389068604	movie	1		246	57.0	2.5	/experiments/knapen_AOT/AOT_stimuli/rescaled_final/2042_rv.mp4	0.0	301.45794677734375	2.5003631114959717
59	262.54775381088257	pulse	1	t		57.0	2.5	/experiments/knapen_AOT/AOT_stimuli/rescaled_final/2042_rv.mp4	0.0	302.6418766975403	
59	263.864187002182	fix_post	2		12	57.0	2.5	/experiments/knapen_AOT/AOT_stimuli/rescaled_final/2042_rv.mp4	0.0	303.9583098888397	0.10003495216369629
60	263.9642219543457	fix_pre	0		117	58.0	2.5	/experiments/knapen_AOT/AOT_stimuli/rescaled_final/1093_fw.mp4	0.0	304.0583448410034	1.00010085105896
60	264.1478588581085	pulse	0	t		58.0	2.5	/experiments/knapen_AOT/AOT_stimuli/rescaled_final/1093_fw.mp4	0.0	304.24198174476624	
60	264.96432280540466	movie	1		244	58.0	2.5	/experiments/knapen_AOT/AOT_stimuli/rescaled_final/1093_fw.mp4	0.0	305.0584456920624	2.5003671646118164
60	265.74800086021423	pulse	1	t		58.0	2.5	/experiments/knapen_AOT/AOT_stimuli/rescaled_final/1093_fw.mp4	0.0	305.84212374687195	
60	267.34567189216614	pulse	1	t		58.0	2.5	/experiments/knapen_AOT/AOT_stimuli/rescaled_final/1093_fw.mp4	0.0	307.43979477882385	
60	267.4646899700165	fix_post	2		12	58.0	2.5	/experiments/knapen_AOT/AOT_stimuli/rescaled_final/1093_fw.mp4	0.0	307.5588128566742	0.10006189346313477
61	267.5647518634796	fix_pre	0		119	59.0	2.5	/experiments/knapen_AOT/AOT_stimuli/rescaled_final/1807_fw.mp4	0.0	307.65887475013733	0.9917941093444824
61	268.5565459728241	movie	1		244	59.0	2.5	/experiments/knapen_AOT/AOT_stimuli/rescaled_final/1807_fw.mp4	0.0	308.6506688594818	2.500347852706909
61	268.9486289024353	pulse	1	t		59.0	2.5	/experiments/knapen_AOT/AOT_stimuli/rescaled_final/1807_fw.mp4	0.0	309.042751789093	
61	270.54873394966125	pulse	1	t		59.0	2.5	/experiments/knapen_AOT/AOT_stimuli/rescaled_final/1807_fw.mp4	0.0	310.64285683631897	
61	271.056893825531	fix_post	2		12	59.0	2.5	/experiments/knapen_AOT/AOT_stimuli/rescaled_final/1807_fw.mp4	0.0	311.1510167121887	0.10004615783691406
62	271.1569399833679	fix_pre	0		120	60.0	2.5	/experiments/knapen_AOT/AOT_stimuli/rescaled_final/1121_fw.mp4	0.0	311.25106287002563	1.0001628398895264
62	272.1489338874817	pulse	0	t		60.0	2.5	/experiments/knapen_AOT/AOT_stimuli/rescaled_final/1121_fw.mp4	0.0	312.2430567741394	
62	272.15710282325745	movie	1		246	60.0	2.5	/experiments/knapen_AOT/AOT_stimuli/rescaled_final/1121_fw.mp4	0.0	312.25122570991516	2.508655071258545
62	273.7497580051422	pulse	1	t		60.0	2.5	/experiments/knapen_AOT/AOT_stimuli/rescaled_final/1121_fw.mp4	0.0	313.8438808917999	
62	274.665757894516	fix_post	2		12	60.0	2.5	/experiments/knapen_AOT/AOT_stimuli/rescaled_final/1121_fw.mp4	0.0	314.7598807811737	0.10005712509155273
63	274.76581501960754	fix_pre	0		120	61.0	2.5	/experiments/knapen_AOT/AOT_stimuli/rescaled_final/1249_fw.mp4	0.0	314.85993790626526	1.000166893005371
63	275.34197998046875	pulse	0	t		61.0	2.5	/experiments/knapen_AOT/AOT_stimuli/rescaled_final/1249_fw.mp4	0.0	315.43610286712646	
63	275.7659819126129	movie	1		246	61.0	2.5	/experiments/knapen_AOT/AOT_stimuli/rescaled_final/1249_fw.mp4	0.0	315.86010479927063	2.5003340244293213
63	276.94978499412537	pulse	1	t		61.0	2.5	/experiments/knapen_AOT/AOT_stimuli/rescaled_final/1249_fw.mp4	0.0	317.0439078807831	
63	278.26631593704224	fix_post	2		12	61.0	2.5	/experiments/knapen_AOT/AOT_stimuli/rescaled_final/1249_fw.mp4	0.0	318.36043882369995	0.10001897811889648
64	278.36633491516113	fix_pre	0		120	62.0	2.5	blank	1.0	318.46045780181885	1.0001540184020996
64	278.5424768924713	pulse	0	t		62.0	2.5	blank	1.0	318.636599779129	
64	279.36648893356323	movie	1		300	62.0	2.5	blank	1.0	319.46061182022095	2.5004050731658936
64	280.14262080192566	pulse	1	t		62.0	2.5	blank	1.0	320.2367436885834	
64	281.74277997016907	pulse	1	t		62.0	2.5	blank	1.0	321.8369028568268	
64	281.8668940067291	fix_post	2		12	62.0	2.5	blank	1.0	321.96101689338684	0.09995102882385254
65	281.966845035553	fix_pre	0		120	63.0	2.5	/experiments/knapen_AOT/AOT_stimuli/rescaled_final/1455_fw.mp4	0.0	322.0609679222107	1.000220775604248
65	282.9670658111572	movie	1		243	63.0	2.5	/experiments/knapen_AOT/AOT_stimuli/rescaled_final/1455_fw.mp4	0.0	323.06118869781494	2.4919581413269043
65	283.34236693382263	pulse	1	t		63.0	2.5	/experiments/knapen_AOT/AOT_stimuli/rescaled_final/1455_fw.mp4	0.0	323.43648982048035	
65	284.942587852478	pulse	1	t		63.0	2.5	/experiments/knapen_AOT/AOT_stimuli/rescaled_final/1455_fw.mp4	0.0	325.03671073913574	
65	285.45902395248413	fix_post	2		12	63.0	2.5	/experiments/knapen_AOT/AOT_stimuli/rescaled_final/1455_fw.mp4	0.0	325.55314683914185	0.10006093978881836
66	285.55908489227295	fix_pre	0		119	64.0	2.5	/experiments/knapen_AOT/AOT_stimuli/rescaled_final/0207_rv.mp4	0.0	325.65320777893066	0.9918439388275146
66	286.54268503189087	pulse	0	t		64.0	2.5	/experiments/knapen_AOT/AOT_stimuli/rescaled_final/0207_rv.mp4	0.0	326.6368079185486	
66	286.55092883110046	movie	1		245	64.0	2.5	/experiments/knapen_AOT/AOT_stimuli/rescaled_final/0207_rv.mp4	0.0	326.6450517177582	2.5086591243743896
66	288.14418482780457	pulse	1	t		64.0	2.5	/experiments/knapen_AOT/AOT_stimuli/rescaled_final/0207_rv.mp4	0.0	328.2383077144623	
66	289.05958795547485	fix_post	2		12	64.0	2.5	/experiments/knapen_AOT/AOT_stimuli/rescaled_final/0207_rv.mp4	0.0	329.15371084213257	0.10001587867736816
67	289.1596038341522	fix_pre	0		120	65.0	2.5	/experiments/knapen_AOT/AOT_stimuli/rescaled_final/0520_rv.mp4	0.0	329.25372672080994	1.00018310546875
67	289.7433648109436	pulse	0	t		65.0	2.5	/experiments/knapen_AOT/AOT_stimuli/rescaled_final/0520_rv.mp4	0.0	329.8374876976013	
67	290.159786939621	movie	1		245	65.0	2.5	/experiments/knapen_AOT/AOT_stimuli/rescaled_final/0520_rv.mp4	0.0	330.2539098262787	2.5005319118499756
67	291.34350180625916	pulse	1	t		65.0	2.5	/experiments/knapen_AOT/AOT_stimuli/rescaled_final/0520_rv.mp4	0.0	331.43762469291687	
67	292.66031885147095	fix_post	2		12	65.0	2.5	/experiments/knapen_AOT/AOT_stimuli/rescaled_final/0520_rv.mp4	0.0	332.75444173812866	0.09983396530151367
68	292.76015281677246	fix_pre	0		120	66.0	2.5	/experiments/knapen_AOT/AOT_stimuli/rescaled_final/0576_fw.mp4	0.0	332.8542757034302	1.0001580715179443
68	292.94367694854736	pulse	0	t		66.0	2.5	/experiments/knapen_AOT/AOT_stimuli/rescaled_final/0576_fw.mp4	0.0	333.0377998352051	
68	293.7603108882904	movie	1		244	66.0	2.5	/experiments/knapen_AOT/AOT_stimuli/rescaled_final/0576_fw.mp4	0.0	333.8544337749481	2.500343084335327
68	294.54391503334045	pulse	1	t		66.0	2.5	/experiments/knapen_AOT/AOT_stimuli/rescaled_final/0576_fw.mp4	0.0	334.63803791999817	
68	296.14421486854553	pulse	1	t		66.0	2.5	/experiments/knapen_AOT/AOT_stimuli/rescaled_final/0576_fw.mp4	0.0	336.23833775520325	
68	296.26065397262573	fix_post	2		12	66.0	2.5	/experiments/knapen_AOT/AOT_stimuli/rescaled_final/0576_fw.mp4	0.0	336.35477685928345	0.1000359058380127
69	296.36068987846375	fix_pre	0		119	67.0	2.5	/experiments/knapen_AOT/AOT_stimuli/rescaled_final/1273_rv.mp4	0.0	336.45481276512146	0.9918451309204102
69	297.35253500938416	movie	1		245	67.0	2.5	/experiments/knapen_AOT/AOT_stimuli/rescaled_final/1273_rv.mp4	0.0	337.44665789604187	2.500337839126587
69	297.7446520328522	pulse	1	t		67.0	2.5	/experiments/knapen_AOT/AOT_stimuli/rescaled_final/1273_rv.mp4	0.0	337.8387749195099	
69	299.3446888923645	pulse	1	t		67.0	2.5	/experiments/knapen_AOT/AOT_stimuli/rescaled_final/1273_rv.mp4	0.0	339.4388117790222	
69	299.85287284851074	fix_post	2		12	67.0	2.5	/experiments/knapen_AOT/AOT_stimuli/rescaled_final/1273_rv.mp4	0.0	339.94699573516846	0.10005617141723633
70	299.952929019928	fix_pre	0		120	68.0	2.5	/experiments/knapen_AOT/AOT_stimuli/rescaled_final/1423_rv.mp4	0.0	340.0470519065857	1.0001368522644043
70	300.9449028968811	pulse	0	t		68.0	2.5	/experiments/knapen_AOT/AOT_stimuli/rescaled_final/1423_rv.mp4	0.0	341.0390257835388	
70	300.9530658721924	movie	1		245	68.0	2.5	/experiments/knapen_AOT/AOT_stimuli/rescaled_final/1423_rv.mp4	0.0	341.0471887588501	2.5087289810180664
70	302.54574489593506	pulse	1	t		68.0	2.5	/experiments/knapen_AOT/AOT_stimuli/rescaled_final/1423_rv.mp4	0.0	342.6398677825928	
70	303.46179485321045	fix_post	2		12	68.0	2.5	/experiments/knapen_AOT/AOT_stimuli/rescaled_final/1423_rv.mp4	0.0	343.55591773986816	0.1000051498413086
71	303.56180000305176	fix_pre	0		120	69.0	2.5	/experiments/knapen_AOT/AOT_stimuli/rescaled_final/1052_fw.mp4	0.0	343.6559228897095	1.0001599788665771
71	304.14553594589233	pulse	0	t		69.0	2.5	/experiments/knapen_AOT/AOT_stimuli/rescaled_final/1052_fw.mp4	0.0	344.23965883255005	
71	304.56195998191833	movie	1		244	69.0	2.5	/experiments/knapen_AOT/AOT_stimuli/rescaled_final/1052_fw.mp4	0.0	344.65608286857605	2.5003249645233154
71	305.7457208633423	pulse	1	t		69.0	2.5	/experiments/knapen_AOT/AOT_stimuli/rescaled_final/1052_fw.mp4	0.0	345.83984375	
71	307.06228494644165	fix_post	2		12	69.0	2.5	/experiments/knapen_AOT/AOT_stimuli/rescaled_final/1052_fw.mp4	0.0	347.15640783309937	0.10003805160522461
72	307.1623229980469	fix_pre	0		120	70.0	2.5	blank	1.0	347.2564458847046	1.0001299381256104
72	307.34581780433655	pulse	0	t		70.0	2.5	blank	1.0	347.43994069099426	
72	308.1624529361725	movie	1		300	70.0	2.5	blank	1.0	348.2565758228302	2.5003750324249268
72	308.94624280929565	pulse	1	t		70.0	2.5	blank	1.0	349.04036569595337	
72	310.54646587371826	pulse	1	t		70.0	2.5	blank	1.0	350.640588760376	
72	310.6628279685974	fix_post	2		12	70.0	2.5	blank	1.0	350.7569508552551	0.10003995895385742
73	310.76286792755127	fix_pre	0		120	71.0	2.5	/experiments/knapen_AOT/AOT_stimuli/rescaled_final/1389_fw.mp4	0.0	350.856990814209	1.0001230239868164
73	311.7629909515381	movie	1		242	71.0	2.5	/experiments/knapen_AOT/AOT_stimuli/rescaled_final/1389_fw.mp4	0.0	351.8571138381958	2.4920408725738525
73	312.1479170322418	pulse	1	t		71.0	2.5	/experiments/knapen_AOT/AOT_stimuli/rescaled_final/1389_fw.mp4	0.0	352.24203991889954	
73	313.7468190193176	pulse	1	t		71.0	2.5	/experiments/knapen_AOT/AOT_stimuli/rescaled_final/1389_fw.mp4	0.0	353.84094190597534	
73	314.25503182411194	fix_post	2		12	71.0	2.5	/experiments/knapen_AOT/AOT_stimuli/rescaled_final/1389_fw.mp4	0.0	354.34915471076965	0.10001301765441895
74	314.35504484176636	fix_pre	0		120	72.0	2.5	/experiments/knapen_AOT/AOT_stimuli/rescaled_final/0290_fw.mp4	0.0	354.4491677284241	1.0002050399780273
74	315.34711599349976	pulse	0	t		72.0	2.5	/experiments/knapen_AOT/AOT_stimuli/rescaled_final/0290_fw.mp4	0.0	355.44123888015747	
74	315.3552498817444	movie	1		246	72.0	2.5	/experiments/knapen_AOT/AOT_stimuli/rescaled_final/0290_fw.mp4	0.0	355.4493727684021	2.5086669921875
74	316.95162296295166	pulse	1	t		72.0	2.5	/experiments/knapen_AOT/AOT_stimuli/rescaled_final/0290_fw.mp4	0.0	357.0457458496094	
74	317.8639168739319	fix_post	2		12	72.0	2.5	/experiments/knapen_AOT/AOT_stimuli/rescaled_final/0290_fw.mp4	0.0	357.9580397605896	0.09997797012329102
75	317.9638948440552	fix_pre	0		120	73.0	2.5	/experiments/knapen_AOT/AOT_stimuli/rescaled_final/1751_fw.mp4	0.0	358.0580177307129	1.0002031326293945
75	318.5475459098816	pulse	0	t		73.0	2.5	/experiments/knapen_AOT/AOT_stimuli/rescaled_final/1751_fw.mp4	0.0	358.6416687965393	
75	318.96409797668457	movie	1		244	73.0	2.5	/experiments/knapen_AOT/AOT_stimuli/rescaled_final/1751_fw.mp4	0.0	359.0582208633423	2.5003390312194824
75	320.14778780937195	pulse	1	t		73.0	2.5	/experiments/knapen_AOT/AOT_stimuli/rescaled_final/1751_fw.mp4	0.0	360.24191069602966	
75	321.46443700790405	fix_post	2		12	73.0	2.5	/experiments/knapen_AOT/AOT_stimuli/rescaled_final/1751_fw.mp4	0.0	361.55855989456177	0.1000058650970459
76	321.5644428730011	fix_pre	0		120	74.0	2.5	/experiments/knapen_AOT/AOT_stimuli/rescaled_final/1846_fw.mp4	0.0	361.6585657596588	1.0001630783081055
76	321.7481520175934	pulse	0	t		74.0	2.5	/experiments/knapen_AOT/AOT_stimuli/rescaled_final/1846_fw.mp4	0.0	361.8422749042511	
76	322.5646059513092	movie	1		244	74.0	2.5	/experiments/knapen_AOT/AOT_stimuli/rescaled_final/1846_fw.mp4	0.0	362.6587288379669	2.500917911529541
76	323.34835481643677	pulse	1	t		74.0	2.5	/experiments/knapen_AOT/AOT_stimuli/rescaled_final/1846_fw.mp4	0.0	363.4424777030945	
76	324.94831895828247	pulse	1	t		74.0	2.5	/experiments/knapen_AOT/AOT_stimuli/rescaled_final/1846_fw.mp4	0.0	365.0424418449402	
76	325.06552386283875	fix_post	2		8	74.0	2.5	/experiments/knapen_AOT/AOT_stimuli/rescaled_final/1846_fw.mp4	0.0	365.15964674949646	0.09945416450500488
77	325.16497802734375	fix_pre	0		120	75.0	2.5	/experiments/knapen_AOT/AOT_stimuli/rescaled_final/0791_fw.mp4	0.0	365.25910091400146	1.0001518726348877
77	326.16512989997864	movie	1		244	75.0	2.5	/experiments/knapen_AOT/AOT_stimuli/rescaled_final/0791_fw.mp4	0.0	366.25925278663635	2.492166042327881
77	326.5497419834137	pulse	1	t		75.0	2.5	/experiments/knapen_AOT/AOT_stimuli/rescaled_final/0791_fw.mp4	0.0	366.6438648700714	
77	328.1489808559418	pulse	1	t		75.0	2.5	/experiments/knapen_AOT/AOT_stimuli/rescaled_final/0791_fw.mp4	0.0	368.2431037425995	
77	328.6572959423065	fix_post	2		12	75.0	2.5	/experiments/knapen_AOT/AOT_stimuli/rescaled_final/0791_fw.mp4	0.0	368.75141882896423	0.09988999366760254
78	328.7571859359741	fix_pre	0		120	76.0	2.5	/experiments/knapen_AOT/AOT_stimuli/rescaled_final/1859_rv.mp4	0.0	368.85130882263184	1.0001790523529053
78	329.74935388565063	pulse	0	t		76.0	2.5	/experiments/knapen_AOT/AOT_stimuli/rescaled_final/1859_rv.mp4	0.0	369.84347677230835	
78	329.757364988327	movie	1		245	76.0	2.5	/experiments/knapen_AOT/AOT_stimuli/rescaled_final/1859_rv.mp4	0.0	369.85148787498474	2.5087430477142334
78	331.34979486465454	pulse	1	t		76.0	2.5	/experiments/knapen_AOT/AOT_stimuli/rescaled_final/1859_rv.mp4	0.0	371.44391775131226	
78	332.26610803604126	fix_post	2		12	76.0	2.5	/experiments/knapen_AOT/AOT_stimuli/rescaled_final/1859_rv.mp4	0.0	372.360230922699	0.09998178482055664
79	332.3660898208618	fix_pre	0		120	77.0	2.5	blank	1.0	372.46021270751953	1.0001380443572998
79	332.9422240257263	pulse	0	t		77.0	2.5	blank	1.0	373.03634691238403	
79	333.3662278652191	movie	1		300	77.0	2.5	blank	1.0	373.46035075187683	2.500394105911255
79	334.5424339771271	pulse	1	t		77.0	2.5	blank	1.0	374.6365568637848	
79	335.86662197113037	fix_post	2		12	77.0	2.5	blank	1.0	375.9607448577881	0.09997987747192383
80	335.9666018486023	fix_pre	0		120	78.0	2.5	/experiments/knapen_AOT/AOT_stimuli/rescaled_final/0959_fw.mp4	0.0	376.06072473526	1.0001730918884277
80	336.1425549983978	pulse	0	t		78.0	2.5	/experiments/knapen_AOT/AOT_stimuli/rescaled_final/0959_fw.mp4	0.0	376.23667788505554	
80	336.9667749404907	movie	1		243	78.0	2.5	/experiments/knapen_AOT/AOT_stimuli/rescaled_final/0959_fw.mp4	0.0	377.06089782714844	2.5003769397735596
80	337.74208188056946	pulse	1	t		78.0	2.5	/experiments/knapen_AOT/AOT_stimuli/rescaled_final/0959_fw.mp4	0.0	377.8362047672272	
80	339.3422589302063	pulse	1	t		78.0	2.5	/experiments/knapen_AOT/AOT_stimuli/rescaled_final/0959_fw.mp4	0.0	379.436381816864	
80	339.4671518802643	fix_post	2		12	78.0	2.5	/experiments/knapen_AOT/AOT_stimuli/rescaled_final/0959_fw.mp4	0.0	379.561274766922	0.09997010231018066
81	339.56712198257446	fix_pre	0		120	79.0	2.5	/experiments/knapen_AOT/AOT_stimuli/rescaled_final/1483_fw.mp4	0.0	379.6612448692322	1.0001978874206543
81	340.5673198699951	movie	1		243	79.0	2.5	/experiments/knapen_AOT/AOT_stimuli/rescaled_final/1483_fw.mp4	0.0	380.66144275665283	2.4920151233673096
81	340.9425790309906	pulse	1	t		79.0	2.5	/experiments/knapen_AOT/AOT_stimuli/rescaled_final/1483_fw.mp4	0.0	381.0367019176483	
81	342.5428538322449	pulse	1	t		79.0	2.5	/experiments/knapen_AOT/AOT_stimuli/rescaled_final/1483_fw.mp4	0.0	382.6369767189026	
81	343.0593349933624	fix_post	2		12	79.0	2.5	/experiments/knapen_AOT/AOT_stimuli/rescaled_final/1483_fw.mp4	0.0	383.15345788002014	0.1000359058380127
82	343.15937089920044	fix_pre	0		119	80.0	2.5	/experiments/knapen_AOT/AOT_stimuli/rescaled_final/0579_fw.mp4	0.0	383.25349378585815	0.9917750358581543
82	344.14301681518555	pulse	0	t		80.0	2.5	/experiments/knapen_AOT/AOT_stimuli/rescaled_final/0579_fw.mp4	0.0	384.23713970184326	
82	344.1511459350586	movie	1		245	80.0	2.5	/experiments/knapen_AOT/AOT_stimuli/rescaled_final/0579_fw.mp4	0.0	384.2452688217163	2.5086848735809326
82	345.7435779571533	pulse	1	t		80.0	2.5	/experiments/knapen_AOT/AOT_stimuli/rescaled_final/0579_fw.mp4	0.0	385.83770084381104	
82	346.6598308086395	fix_post	2		12	80.0	2.5	/experiments/knapen_AOT/AOT_stimuli/rescaled_final/0579_fw.mp4	0.0	386.75395369529724	0.10001921653747559
83	346.759850025177	fix_pre	0		120	81.0	2.5	/experiments/knapen_AOT/AOT_stimuli/rescaled_final/1312_rv.mp4	0.0	386.8539729118347	1.0002048015594482
83	347.34347796440125	pulse	0	t		81.0	2.5	/experiments/knapen_AOT/AOT_stimuli/rescaled_final/1312_rv.mp4	0.0	387.43760085105896	
83	347.76005482673645	movie	1		245	81.0	2.5	/experiments/knapen_AOT/AOT_stimuli/rescaled_final/1312_rv.mp4	0.0	387.85417771339417	2.500331163406372
83	348.9438519477844	pulse	1	t		81.0	2.5	/experiments/knapen_AOT/AOT_stimuli/rescaled_final/1312_rv.mp4	0.0	389.03797483444214	
83	350.2603859901428	fix_post	2		12	81.0	2.5	/experiments/knapen_AOT/AOT_stimuli/rescaled_final/1312_rv.mp4	0.0	390.35450887680054	0.10003995895385742
84	350.3604259490967	fix_pre	0		120	82.0	2.5	blank	1.0	390.4545488357544	1.0001590251922607
84	350.54393887519836	pulse	0	t		82.0	2.5	blank	1.0	390.6380617618561	
84	351.36058497428894	movie	1		300	82.0	2.5	blank	1.0	391.45470786094666	2.500363826751709
84	352.1441400051117	pulse	1	t		82.0	2.5	blank	1.0	392.2382628917694	
84	353.74444794654846	pulse	1	t		82.0	2.5	blank	1.0	393.8385708332062	
84	353.86094880104065	fix_post	2		12	82.0	2.5	blank	1.0	393.95507168769836	0.10000014305114746
85	353.9609489440918	fix_pre	0		120	83.0	2.5	/experiments/knapen_AOT/AOT_stimuli/rescaled_final/0334_rv.mp4	0.0	394.0550718307495	1.000119924545288
85	354.9610688686371	movie	1		245	83.0	2.5	/experiments/knapen_AOT/AOT_stimuli/rescaled_final/0334_rv.mp4	0.0	395.0551917552948	2.492063045501709
85	355.3460359573364	pulse	1	t		83.0	2.5	/experiments/knapen_AOT/AOT_stimuli/rescaled_final/0334_rv.mp4	0.0	395.44015884399414	
85	356.94491386413574	pulse	1	t		83.0	2.5	/experiments/knapen_AOT/AOT_stimuli/rescaled_final/0334_rv.mp4	0.0	397.03903675079346	
85	357.4531319141388	fix_post	2		12	83.0	2.5	/experiments/knapen_AOT/AOT_stimuli/rescaled_final/0334_rv.mp4	0.0	397.5472548007965	0.10007596015930176
87	357.5532078742981	stim	0		1716					397.6473307609558	14.302085161209106
87	358.545156955719	pulse	0	t						398.6392798423767	
87	360.14534282684326	pulse	0	t						400.239465713501	
87	361.7456519603729	pulse	0	t						401.83977484703064	
87	363.3458309173584	pulse	0	t						403.4399538040161	
87	364.9461438655853	pulse	0	t						405.04026675224304	
87	366.546324968338	pulse	0	t						406.6404478549957	
87	368.14662289619446	pulse	0	t						408.2407457828522	
87	369.7468059062958	pulse	0	t						409.8409287929535	
87	371.3471019268036	pulse	0	t						411.4412248134613	
