trial_nr	onset	event_type	phase	response	nr_frames	movie_index	movie_duration	movie_file	blank	onset_abs	duration
0	0.1333911418914795	stim	0		37					41.66475009918213	0.30818891525268555
0	0.43361902236938477	response	0	space						41.964977979660034	
1	0.44158005714416504	stim	0		4727					41.972939014434814	39.3915069103241
1	39.82630205154419	pulse	0	t						81.35766100883484	
1	39.83308696746826	stim	1		1717					81.36444592475891	14.308298110961914
1	41.42503619194031	pulse	1	t						82.95639514923096	
1	43.02502703666687	pulse	1	t						84.55638599395752	
1	44.62493300437927	pulse	1	t						86.15629196166992	
1	46.22500014305115	pulse	1	t						87.7563591003418	
1	47.82496619224548	pulse	1	t						89.35632514953613	
1	49.42495512962341	pulse	1	t						90.95631408691406	
1	51.02503299713135	pulse	1	t						92.556391954422	
1	52.624879121780396	pulse	1	t						94.15623807907104	
2	54.141385078430176	fix_pre	0		11	0.0	2.5	/experiments/AOT/AOT_stimuli/rescaled_final/2054_fw.mp4	0.0	95.67274403572083	0.0917520523071289
2	54.22498106956482	pulse	0	t		0.0	2.5	/experiments/AOT/AOT_stimuli/rescaled_final/2054_fw.mp4	0.0	95.75634002685547	
2	54.233137130737305	movie	1		245	0.0	2.5	/experiments/AOT/AOT_stimuli/rescaled_final/2054_fw.mp4	0.0	95.76449608802795	2.507835865020752
2	55.82446217536926	pulse	1	t		0.0	2.5	/experiments/AOT/AOT_stimuli/rescaled_final/2054_fw.mp4	0.0	97.35582113265991	
2	56.74097299575806	fix_post	2		12	0.0	2.5	/experiments/AOT/AOT_stimuli/rescaled_final/2054_fw.mp4	0.0	98.2723319530487	0.1003570556640625
3	56.84133005142212	fix_pre	0		120	1.0	2.5	/experiments/AOT/AOT_stimuli/rescaled_final/1685_rv.mp4	0.0	98.37268900871277	1.000067949295044
3	57.42497801780701	pulse	0	t		1.0	2.5	/experiments/AOT/AOT_stimuli/rescaled_final/1685_rv.mp4	0.0	98.95633697509766	
3	57.84139800071716	movie	1		244	1.0	2.5	/experiments/AOT/AOT_stimuli/rescaled_final/1685_rv.mp4	0.0	99.37275695800781	2.4999501705169678
3	59.024962186813354	pulse	1	t		1.0	2.5	/experiments/AOT/AOT_stimuli/rescaled_final/1685_rv.mp4	0.0	100.556321144104	
3	60.34134817123413	fix_post	2		12	1.0	2.5	/experiments/AOT/AOT_stimuli/rescaled_final/1685_rv.mp4	0.0	101.87270712852478	0.10006189346313477
4	60.441410064697266	fix_pre	0		120	2.0	2.5	/experiments/AOT/AOT_stimuli/rescaled_final/0448_fw.mp4	0.0	101.97276902198792	0.9999799728393555
4	60.62490701675415	pulse	0	t		2.0	2.5	/experiments/AOT/AOT_stimuli/rescaled_final/0448_fw.mp4	0.0	102.1562659740448	
4	61.44139003753662	movie	1		243	2.0	2.5	/experiments/AOT/AOT_stimuli/rescaled_final/0448_fw.mp4	0.0	102.97274899482727	2.4995839595794678
4	62.22501015663147	pulse	1	t		2.0	2.5	/experiments/AOT/AOT_stimuli/rescaled_final/0448_fw.mp4	0.0	103.75636911392212	
4	63.823559045791626	pulse	1	t		2.0	2.5	/experiments/AOT/AOT_stimuli/rescaled_final/0448_fw.mp4	0.0	105.35491800308228	
4	63.94097399711609	fix_post	2		12	2.0	2.5	/experiments/AOT/AOT_stimuli/rescaled_final/0448_fw.mp4	0.0	105.47233295440674	0.10038208961486816
5	64.04135608673096	fix_pre	0		120	3.0	2.5	/experiments/AOT/AOT_stimuli/rescaled_final/0399_fw.mp4	0.0	105.5727150440216	0.999608039855957
5	65.04096412658691	movie	1		244	3.0	2.5	/experiments/AOT/AOT_stimuli/rescaled_final/0399_fw.mp4	0.0	106.57232308387756	2.4999170303344727
5	65.42447209358215	pulse	1	t		3.0	2.5	/experiments/AOT/AOT_stimuli/rescaled_final/0399_fw.mp4	0.0	106.9558310508728	
5	67.0250129699707	pulse	1	t		3.0	2.5	/experiments/AOT/AOT_stimuli/rescaled_final/0399_fw.mp4	0.0	108.55637192726135	
5	67.54088115692139	fix_post	2		12	3.0	2.5	/experiments/AOT/AOT_stimuli/rescaled_final/0399_fw.mp4	0.0	109.07224011421204	0.10003280639648438
6	67.64091396331787	fix_pre	0		119	4.0	2.5	/experiments/AOT/AOT_stimuli/rescaled_final/1044_rv.mp4	0.0	109.17227292060852	0.9921431541442871
6	68.62491106987	pulse	0	t		4.0	2.5	/experiments/AOT/AOT_stimuli/rescaled_final/1044_rv.mp4	0.0	110.15627002716064	
6	68.63305711746216	movie	1		245	4.0	2.5	/experiments/AOT/AOT_stimuli/rescaled_final/1044_rv.mp4	0.0	110.16441607475281	2.5078470706939697
6	70.22453808784485	pulse	1	t		4.0	2.5	/experiments/AOT/AOT_stimuli/rescaled_final/1044_rv.mp4	0.0	111.7558970451355	
6	71.14090418815613	fix_post	2		12	4.0	2.5	/experiments/AOT/AOT_stimuli/rescaled_final/1044_rv.mp4	0.0	112.67226314544678	0.10037088394165039
7	71.24127507209778	fix_pre	0		120	5.0	2.5	blank	1.0	112.77263402938843	1.0000739097595215
7	71.82494711875916	pulse	0	t		5.0	2.5	blank	1.0	113.3563060760498	
7	72.2413489818573	movie	1		300	5.0	2.5	blank	1.0	113.77270793914795	2.499988079071045
7	73.42477107048035	pulse	1	t		5.0	2.5	blank	1.0	114.956130027771	
7	74.74133706092834	fix_post	2		12	5.0	2.5	blank	1.0	116.272696018219	0.10006594657897949
8	74.84140300750732	fix_pre	0		120	6.0	2.5	/experiments/AOT/AOT_stimuli/rescaled_final/0838_rv.mp4	0.0	116.37276196479797	0.999906063079834
8	75.02490901947021	pulse	0	t		6.0	2.5	/experiments/AOT/AOT_stimuli/rescaled_final/0838_rv.mp4	0.0	116.55626797676086	
8	75.84130907058716	movie	1		245	6.0	2.5	/experiments/AOT/AOT_stimuli/rescaled_final/0838_rv.mp4	0.0	117.37266802787781	2.4997310638427734
8	76.62478709220886	pulse	1	t		6.0	2.5	/experiments/AOT/AOT_stimuli/rescaled_final/0838_rv.mp4	0.0	118.15614604949951	
8	78.22280097007751	pulse	1	t		6.0	2.5	/experiments/AOT/AOT_stimuli/rescaled_final/0838_rv.mp4	0.0	119.75415992736816	
8	78.34104013442993	fix_post	2		12	6.0	2.5	/experiments/AOT/AOT_stimuli/rescaled_final/0838_rv.mp4	0.0	119.87239909172058	0.09993886947631836
9	78.44097900390625	fix_pre	0		120	7.0	2.5	/experiments/AOT/AOT_stimuli/rescaled_final/1707_fw.mp4	0.0	119.9723379611969	1.0004911422729492
9	79.4414701461792	movie	1		244	7.0	2.5	/experiments/AOT/AOT_stimuli/rescaled_final/1707_fw.mp4	0.0	120.97282910346985	2.4994418621063232
9	79.82569313049316	pulse	1	t		7.0	2.5	/experiments/AOT/AOT_stimuli/rescaled_final/1707_fw.mp4	0.0	121.35705208778381	
9	81.42469596862793	pulse	1	t		7.0	2.5	/experiments/AOT/AOT_stimuli/rescaled_final/1707_fw.mp4	0.0	122.95605492591858	
9	81.94091200828552	fix_post	2		12	7.0	2.5	/experiments/AOT/AOT_stimuli/rescaled_final/1707_fw.mp4	0.0	123.47227096557617	0.10041403770446777
10	82.04132604598999	fix_pre	0		119	8.0	2.5	/experiments/AOT/AOT_stimuli/rescaled_final/2128_fw.mp4	0.0	123.57268500328064	0.9916701316833496
10	83.02486395835876	pulse	0	t		8.0	2.5	/experiments/AOT/AOT_stimuli/rescaled_final/2128_fw.mp4	0.0	124.55622291564941	
10	83.03299617767334	movie	1		246	8.0	2.5	/experiments/AOT/AOT_stimuli/rescaled_final/2128_fw.mp4	0.0	124.56435513496399	2.507849931716919
10	84.62436604499817	pulse	1	t		8.0	2.5	/experiments/AOT/AOT_stimuli/rescaled_final/2128_fw.mp4	0.0	126.15572500228882	
10	85.54084610939026	fix_post	2		12	8.0	2.5	/experiments/AOT/AOT_stimuli/rescaled_final/2128_fw.mp4	0.0	127.07220506668091	0.10037398338317871
11	85.64122009277344	fix_pre	0		120	9.0	2.5	/experiments/AOT/AOT_stimuli/rescaled_final/0099_rv.mp4	0.0	127.17257905006409	1.0000829696655273
11	86.22468400001526	pulse	0	t		9.0	2.5	/experiments/AOT/AOT_stimuli/rescaled_final/0099_rv.mp4	0.0	127.75604295730591	
11	86.64130306243896	movie	1		243	9.0	2.5	/experiments/AOT/AOT_stimuli/rescaled_final/0099_rv.mp4	0.0	128.17266201972961	2.4999349117279053
11	87.82477807998657	pulse	1	t		9.0	2.5	/experiments/AOT/AOT_stimuli/rescaled_final/0099_rv.mp4	0.0	129.35613703727722	
11	89.14123797416687	fix_post	2		12	9.0	2.5	/experiments/AOT/AOT_stimuli/rescaled_final/0099_rv.mp4	0.0	130.67259693145752	0.100006103515625
12	89.2412440776825	fix_pre	0		120	10.0	2.5	/experiments/AOT/AOT_stimuli/rescaled_final/0081_rv.mp4	0.0	130.77260303497314	0.9999449253082275
12	89.42472815513611	pulse	0	t		10.0	2.5	/experiments/AOT/AOT_stimuli/rescaled_final/0081_rv.mp4	0.0	130.95608711242676	
12	90.24118900299072	movie	1		243	10.0	2.5	/experiments/AOT/AOT_stimuli/rescaled_final/0081_rv.mp4	0.0	131.77254796028137	2.500005006790161
12	91.02473402023315	pulse	1	t		10.0	2.5	/experiments/AOT/AOT_stimuli/rescaled_final/0081_rv.mp4	0.0	132.5560929775238	
12	92.62314510345459	pulse	1	t		10.0	2.5	/experiments/AOT/AOT_stimuli/rescaled_final/0081_rv.mp4	0.0	134.15450406074524	
12	92.74119400978088	fix_post	2		12	10.0	2.5	/experiments/AOT/AOT_stimuli/rescaled_final/0081_rv.mp4	0.0	134.27255296707153	0.10009002685546875
13	92.84128403663635	fix_pre	0		120	11.0	2.5	/experiments/AOT/AOT_stimuli/rescaled_final/1765_rv.mp4	0.0	134.372642993927	0.9995660781860352
13	93.84085011482239	movie	1		244	11.0	2.5	/experiments/AOT/AOT_stimuli/rescaled_final/1765_rv.mp4	0.0	135.37220907211304	2.499912977218628
13	94.22434496879578	pulse	1	t		11.0	2.5	/experiments/AOT/AOT_stimuli/rescaled_final/1765_rv.mp4	0.0	135.75570392608643	
13	95.82470107078552	pulse	1	t		11.0	2.5	/experiments/AOT/AOT_stimuli/rescaled_final/1765_rv.mp4	0.0	137.35606002807617	
13	96.34076309204102	fix_post	2		12	11.0	2.5	/experiments/AOT/AOT_stimuli/rescaled_final/1765_rv.mp4	0.0	137.87212204933167	0.10042405128479004
14	96.4411871433258	fix_pre	0		119	12.0	2.5	/experiments/AOT/AOT_stimuli/rescaled_final/1321_rv.mp4	0.0	137.97254610061646	0.9916818141937256
14	97.42468810081482	pulse	0	t		12.0	2.5	/experiments/AOT/AOT_stimuli/rescaled_final/1321_rv.mp4	0.0	138.95604705810547	
14	97.43286895751953	movie	1		247	12.0	2.5	/experiments/AOT/AOT_stimuli/rescaled_final/1321_rv.mp4	0.0	138.96422791481018	2.5083181858062744
14	99.02441215515137	pulse	1	t		12.0	2.5	/experiments/AOT/AOT_stimuli/rescaled_final/1321_rv.mp4	0.0	140.55577111244202	
14	99.9411871433258	fix_post	2		12	12.0	2.5	/experiments/AOT/AOT_stimuli/rescaled_final/1321_rv.mp4	0.0	141.47254610061646	0.10002684593200684
15	100.04121398925781	fix_pre	0		120	13.0	2.5	/experiments/AOT/AOT_stimuli/rescaled_final/1765_fw.mp4	0.0	141.57257294654846	1.000063180923462
15	100.62469601631165	pulse	0	t		13.0	2.5	/experiments/AOT/AOT_stimuli/rescaled_final/1765_fw.mp4	0.0	142.1560549736023	
15	101.04127717018127	movie	1		245	13.0	2.5	/experiments/AOT/AOT_stimuli/rescaled_final/1765_fw.mp4	0.0	142.57263612747192	2.499464988708496
15	102.2247531414032	pulse	1	t		13.0	2.5	/experiments/AOT/AOT_stimuli/rescaled_final/1765_fw.mp4	0.0	143.75611209869385	
15	103.54074215888977	fix_post	2		12	13.0	2.5	/experiments/AOT/AOT_stimuli/rescaled_final/1765_fw.mp4	0.0	145.07210111618042	0.10043692588806152
16	103.64117908477783	fix_pre	0		120	14.0	2.5	blank	1.0	145.17253804206848	0.9999539852142334
16	103.82474112510681	pulse	0	t		14.0	2.5	blank	1.0	145.35610008239746	
16	104.64113306999207	movie	1		300	14.0	2.5	blank	1.0	146.17249202728271	2.4996368885040283
16	105.42479300498962	pulse	1	t		14.0	2.5	blank	1.0	146.95615196228027	
16	107.02466607093811	pulse	1	t		14.0	2.5	blank	1.0	148.55602502822876	
16	107.1407699584961	fix_post	2		12	14.0	2.5	blank	1.0	148.67212891578674	0.10037517547607422
17	107.24114513397217	fix_pre	0		120	15.0	2.5	/experiments/AOT/AOT_stimuli/rescaled_final/0270_rv.mp4	0.0	148.77250409126282	1.0000410079956055
17	108.24118614196777	movie	1		243	15.0	2.5	/experiments/AOT/AOT_stimuli/rescaled_final/0270_rv.mp4	0.0	149.77254509925842	2.4995338916778564
17	108.62431001663208	pulse	1	t		15.0	2.5	/experiments/AOT/AOT_stimuli/rescaled_final/0270_rv.mp4	0.0	150.15566897392273	
17	110.22463297843933	pulse	1	t		15.0	2.5	/experiments/AOT/AOT_stimuli/rescaled_final/0270_rv.mp4	0.0	151.75599193572998	
17	110.74072003364563	fix_post	2		12	15.0	2.5	/experiments/AOT/AOT_stimuli/rescaled_final/0270_rv.mp4	0.0	152.27207899093628	0.10045599937438965
18	110.84117603302002	fix_pre	0		119	16.0	2.5	/experiments/AOT/AOT_stimuli/rescaled_final/1311_rv.mp4	0.0	152.37253499031067	0.9916839599609375
18	111.82463812828064	pulse	0	t		16.0	2.5	/experiments/AOT/AOT_stimuli/rescaled_final/1311_rv.mp4	0.0	153.3559970855713	
18	111.83285999298096	movie	1		245	16.0	2.5	/experiments/AOT/AOT_stimuli/rescaled_final/1311_rv.mp4	0.0	153.3642189502716	2.5078420639038086
18	113.42417216300964	pulse	1	t		16.0	2.5	/experiments/AOT/AOT_stimuli/rescaled_final/1311_rv.mp4	0.0	154.9555311203003	
18	114.34070205688477	fix_post	2		12	16.0	2.5	/experiments/AOT/AOT_stimuli/rescaled_final/1311_rv.mp4	0.0	155.87206101417542	0.10046505928039551
19	114.44116711616516	fix_pre	0		120	17.0	2.5	/experiments/AOT/AOT_stimuli/rescaled_final/1828_rv.mp4	0.0	155.9725260734558	0.9995360374450684
19	115.02464008331299	pulse	0	t		17.0	2.5	/experiments/AOT/AOT_stimuli/rescaled_final/1828_rv.mp4	0.0	156.55599904060364	
19	115.44070315361023	movie	1		246	17.0	2.5	/experiments/AOT/AOT_stimuli/rescaled_final/1828_rv.mp4	0.0	156.97206211090088	2.500382900238037
19	116.6247010231018	pulse	1	t		17.0	2.5	/experiments/AOT/AOT_stimuli/rescaled_final/1828_rv.mp4	0.0	158.15605998039246	
19	117.94108605384827	fix_post	2		12	17.0	2.5	/experiments/AOT/AOT_stimuli/rescaled_final/1828_rv.mp4	0.0	159.47244501113892	0.10001492500305176
20	118.04110097885132	fix_pre	0		120	18.0	2.5	/experiments/AOT/AOT_stimuli/rescaled_final/0574_rv.mp4	0.0	159.57245993614197	0.9996170997619629
20	118.22462511062622	pulse	0	t		18.0	2.5	/experiments/AOT/AOT_stimuli/rescaled_final/0574_rv.mp4	0.0	159.75598406791687	
20	119.04071807861328	movie	1		246	18.0	2.5	/experiments/AOT/AOT_stimuli/rescaled_final/0574_rv.mp4	0.0	160.57207703590393	2.5003600120544434
20	119.82473707199097	pulse	1	t		18.0	2.5	/experiments/AOT/AOT_stimuli/rescaled_final/0574_rv.mp4	0.0	161.35609602928162	
20	121.4242160320282	pulse	1	t		18.0	2.5	/experiments/AOT/AOT_stimuli/rescaled_final/0574_rv.mp4	0.0	162.95557498931885	
20	121.54107809066772	fix_post	2		12	18.0	2.5	/experiments/AOT/AOT_stimuli/rescaled_final/0574_rv.mp4	0.0	163.07243704795837	0.10003995895385742
21	121.64111804962158	fix_pre	0		120	19.0	2.5	/experiments/AOT/AOT_stimuli/rescaled_final/1769_fw.mp4	0.0	163.17247700691223	1.0000100135803223
21	122.6411280632019	movie	1		243	19.0	2.5	/experiments/AOT/AOT_stimuli/rescaled_final/1769_fw.mp4	0.0	164.17248702049255	2.499962091445923
21	123.02452206611633	pulse	1	t		19.0	2.5	/experiments/AOT/AOT_stimuli/rescaled_final/1769_fw.mp4	0.0	164.55588102340698	
21	124.624596118927	pulse	1	t		19.0	2.5	/experiments/AOT/AOT_stimuli/rescaled_final/1769_fw.mp4	0.0	166.15595507621765	
21	125.14109015464783	fix_post	2		12	19.0	2.5	/experiments/AOT/AOT_stimuli/rescaled_final/1769_fw.mp4	0.0	166.67244911193848	0.09998703002929688
22	125.24107718467712	fix_pre	0		119	20.0	2.5	/experiments/AOT/AOT_stimuli/rescaled_final/0737_rv.mp4	0.0	166.77243614196777	0.9917068481445312
22	126.22465300559998	pulse	0	t		20.0	2.5	/experiments/AOT/AOT_stimuli/rescaled_final/0737_rv.mp4	0.0	167.75601196289062	
22	126.23278403282166	movie	1		246	20.0	2.5	/experiments/AOT/AOT_stimuli/rescaled_final/0737_rv.mp4	0.0	167.7641429901123	2.5082309246063232
22	127.82423615455627	pulse	1	t		20.0	2.5	/experiments/AOT/AOT_stimuli/rescaled_final/0737_rv.mp4	0.0	169.35559511184692	
22	128.74101495742798	fix_post	2		12	20.0	2.5	/experiments/AOT/AOT_stimuli/rescaled_final/0737_rv.mp4	0.0	170.27237391471863	0.10012412071228027
23	128.84113907814026	fix_pre	0		120	21.0	2.5	blank	1.0	170.3724980354309	0.9999120235443115
23	129.42461705207825	pulse	0	t		21.0	2.5	blank	1.0	170.9559760093689	
23	129.84105110168457	movie	1		300	21.0	2.5	blank	1.0	171.37241005897522	2.5000948905944824
23	131.0247039794922	pulse	1	t		21.0	2.5	blank	1.0	172.55606293678284	
23	132.34114599227905	fix_post	2		12	21.0	2.5	blank	1.0	173.8725049495697	0.09996509552001953
24	132.44111108779907	fix_pre	0		120	22.0	2.5	/experiments/AOT/AOT_stimuli/rescaled_final/0478_fw.mp4	0.0	173.97247004508972	0.9999599456787109
24	132.62456917762756	pulse	0	t		22.0	2.5	/experiments/AOT/AOT_stimuli/rescaled_final/0478_fw.mp4	0.0	174.1559281349182	
24	133.44107103347778	movie	1		244	22.0	2.5	/experiments/AOT/AOT_stimuli/rescaled_final/0478_fw.mp4	0.0	174.97242999076843	2.5003089904785156
24	134.2241780757904	pulse	1	t		22.0	2.5	/experiments/AOT/AOT_stimuli/rescaled_final/0478_fw.mp4	0.0	175.75553703308105	
24	135.8236701488495	pulse	1	t		22.0	2.5	/experiments/AOT/AOT_stimuli/rescaled_final/0478_fw.mp4	0.0	177.35502910614014	
24	135.9413800239563	fix_post	2		12	22.0	2.5	/experiments/AOT/AOT_stimuli/rescaled_final/0478_fw.mp4	0.0	177.47273898124695	0.10007095336914062
25	136.04145097732544	fix_pre	0		120	23.0	2.5	/experiments/AOT/AOT_stimuli/rescaled_final/0732_rv.mp4	0.0	177.5728099346161	0.9996511936187744
25	137.0411021709442	movie	1		246	23.0	2.5	/experiments/AOT/AOT_stimuli/rescaled_final/0732_rv.mp4	0.0	178.57246112823486	2.4998929500579834
25	137.42435097694397	pulse	1	t		23.0	2.5	/experiments/AOT/AOT_stimuli/rescaled_final/0732_rv.mp4	0.0	178.95570993423462	
25	139.02454710006714	pulse	1	t		23.0	2.5	/experiments/AOT/AOT_stimuli/rescaled_final/0732_rv.mp4	0.0	180.5559060573578	
25	139.5409951210022	fix_post	2		12	23.0	2.5	/experiments/AOT/AOT_stimuli/rescaled_final/0732_rv.mp4	0.0	181.07235407829285	0.10002493858337402
26	139.64102005958557	fix_pre	0		119	24.0	2.5	/experiments/AOT/AOT_stimuli/rescaled_final/1916_rv.mp4	0.0	181.17237901687622	0.9917349815368652
26	140.6245059967041	pulse	0	t		24.0	2.5	/experiments/AOT/AOT_stimuli/rescaled_final/1916_rv.mp4	0.0	182.15586495399475	
26	140.63275504112244	movie	1		246	24.0	2.5	/experiments/AOT/AOT_stimuli/rescaled_final/1916_rv.mp4	0.0	182.1641139984131	2.5082850456237793
26	142.2240560054779	pulse	1	t		24.0	2.5	/experiments/AOT/AOT_stimuli/rescaled_final/1916_rv.mp4	0.0	183.75541496276855	
26	143.14104008674622	fix_post	2		12	24.0	2.5	/experiments/AOT/AOT_stimuli/rescaled_final/1916_rv.mp4	0.0	184.67239904403687	0.10003495216369629
27	143.2410750389099	fix_pre	0		120	25.0	2.5	/experiments/AOT/AOT_stimuli/rescaled_final/1093_rv.mp4	0.0	184.77243399620056	0.999993085861206
27	143.82446908950806	pulse	0	t		25.0	2.5	/experiments/AOT/AOT_stimuli/rescaled_final/1093_rv.mp4	0.0	185.3558280467987	
27	144.24106812477112	movie	1		247	25.0	2.5	/experiments/AOT/AOT_stimuli/rescaled_final/1093_rv.mp4	0.0	185.77242708206177	2.499897003173828
27	145.424556016922	pulse	1	t		25.0	2.5	/experiments/AOT/AOT_stimuli/rescaled_final/1093_rv.mp4	0.0	186.95591497421265	
27	146.74096512794495	fix_post	2		12	25.0	2.5	/experiments/AOT/AOT_stimuli/rescaled_final/1093_rv.mp4	0.0	188.2723240852356	0.09993791580200195
28	146.84090304374695	fix_pre	0		120	26.0	2.5	/experiments/AOT/AOT_stimuli/rescaled_final/0615_fw.mp4	0.0	188.3722620010376	1.000110149383545
28	147.0244700908661	pulse	0	t		26.0	2.5	/experiments/AOT/AOT_stimuli/rescaled_final/0615_fw.mp4	0.0	188.55582904815674	
28	147.8410131931305	movie	1		244	26.0	2.5	/experiments/AOT/AOT_stimuli/rescaled_final/0615_fw.mp4	0.0	189.37237215042114	2.49990177154541
28	148.62441205978394	pulse	1	t		26.0	2.5	/experiments/AOT/AOT_stimuli/rescaled_final/0615_fw.mp4	0.0	190.15577101707458	
28	150.22274518013	pulse	1	t		26.0	2.5	/experiments/AOT/AOT_stimuli/rescaled_final/0615_fw.mp4	0.0	191.75410413742065	
28	150.3409149646759	fix_post	2		12	26.0	2.5	/experiments/AOT/AOT_stimuli/rescaled_final/0615_fw.mp4	0.0	191.87227392196655	0.10002422332763672
29	150.44093918800354	fix_pre	0		120	27.0	2.5	/experiments/AOT/AOT_stimuli/rescaled_final/1343_rv.mp4	0.0	191.9722981452942	1.000006914138794
29	151.44094610214233	movie	1		244	27.0	2.5	/experiments/AOT/AOT_stimuli/rescaled_final/1343_rv.mp4	0.0	192.97230505943298	2.499959945678711
29	151.82398009300232	pulse	1	t		27.0	2.5	/experiments/AOT/AOT_stimuli/rescaled_final/1343_rv.mp4	0.0	193.35533905029297	
29	153.42438507080078	pulse	1	t		27.0	2.5	/experiments/AOT/AOT_stimuli/rescaled_final/1343_rv.mp4	0.0	194.95574402809143	
29	153.94090604782104	fix_post	2		12	27.0	2.5	/experiments/AOT/AOT_stimuli/rescaled_final/1343_rv.mp4	0.0	195.4722650051117	0.10002613067626953
30	154.04093217849731	fix_pre	0		119	28.0	2.5	blank	1.0	195.57229113578796	0.9916408061981201
30	155.02443504333496	pulse	0	t		28.0	2.5	blank	1.0	196.5557940006256	
30	155.03257298469543	movie	1		301	28.0	2.5	blank	1.0	196.56393194198608	2.5079221725463867
30	156.62444400787354	pulse	1	t		28.0	2.5	blank	1.0	198.15580296516418	
30	157.54049515724182	fix_post	2		12	28.0	2.5	blank	1.0	199.07185411453247	0.10041093826293945
31	157.64090609550476	fix_pre	0		120	29.0	2.5	/experiments/AOT/AOT_stimuli/rescaled_final/1116_fw.mp4	0.0	199.1722650527954	1.0000078678131104
31	158.2244770526886	pulse	0	t		29.0	2.5	/experiments/AOT/AOT_stimuli/rescaled_final/1116_fw.mp4	0.0	199.75583600997925	
31	158.64091396331787	movie	1		245	29.0	2.5	/experiments/AOT/AOT_stimuli/rescaled_final/1116_fw.mp4	0.0	200.17227292060852	2.499573230743408
31	159.8244490623474	pulse	1	t		29.0	2.5	/experiments/AOT/AOT_stimuli/rescaled_final/1116_fw.mp4	0.0	201.35580801963806	
31	161.14048719406128	fix_post	2		12	29.0	2.5	/experiments/AOT/AOT_stimuli/rescaled_final/1116_fw.mp4	0.0	202.67184615135193	0.10044693946838379
32	161.24093413352966	fix_pre	0		120	30.0	2.5	/experiments/AOT/AOT_stimuli/rescaled_final/0467_fw.mp4	0.0	202.7722930908203	1.0000410079956055
32	161.42447805404663	pulse	0	t		30.0	2.5	/experiments/AOT/AOT_stimuli/rescaled_final/0467_fw.mp4	0.0	202.95583701133728	
32	162.24097514152527	movie	1		246	30.0	2.5	/experiments/AOT/AOT_stimuli/rescaled_final/0467_fw.mp4	0.0	203.77233409881592	2.499879837036133
32	163.02442717552185	pulse	1	t		30.0	2.5	/experiments/AOT/AOT_stimuli/rescaled_final/0467_fw.mp4	0.0	204.5557861328125	
32	164.6231141090393	pulse	1	t		30.0	2.5	/experiments/AOT/AOT_stimuli/rescaled_final/0467_fw.mp4	0.0	206.15447306632996	
32	164.7408549785614	fix_post	2		12	30.0	2.5	/experiments/AOT/AOT_stimuli/rescaled_final/0467_fw.mp4	0.0	206.27221393585205	0.100067138671875
33	164.84092211723328	fix_pre	0		120	31.0	2.5	/experiments/AOT/AOT_stimuli/rescaled_final/1639_rv.mp4	0.0	206.37228107452393	0.9995448589324951
33	165.84046697616577	movie	1		245	31.0	2.5	/experiments/AOT/AOT_stimuli/rescaled_final/1639_rv.mp4	0.0	207.37182593345642	2.4999802112579346
33	166.22398614883423	pulse	1	t		31.0	2.5	/experiments/AOT/AOT_stimuli/rescaled_final/1639_rv.mp4	0.0	207.75534510612488	
33	167.8243601322174	pulse	1	t		31.0	2.5	/experiments/AOT/AOT_stimuli/rescaled_final/1639_rv.mp4	0.0	209.35571908950806	
33	168.3404471874237	fix_post	2		12	31.0	2.5	/experiments/AOT/AOT_stimuli/rescaled_final/1639_rv.mp4	0.0	209.87180614471436	0.10042595863342285
34	168.44087314605713	fix_pre	0		119	32.0	2.5	/experiments/AOT/AOT_stimuli/rescaled_final/1094_fw.mp4	0.0	209.97223210334778	0.9916830062866211
34	169.42435717582703	pulse	0	t		32.0	2.5	/experiments/AOT/AOT_stimuli/rescaled_final/1094_fw.mp4	0.0	210.95571613311768	
34	169.43255615234375	movie	1		246	32.0	2.5	/experiments/AOT/AOT_stimuli/rescaled_final/1094_fw.mp4	0.0	210.9639151096344	2.5083398818969727
34	171.02416610717773	pulse	1	t		32.0	2.5	/experiments/AOT/AOT_stimuli/rescaled_final/1094_fw.mp4	0.0	212.55552506446838	
34	171.94089603424072	fix_post	2		12	32.0	2.5	/experiments/AOT/AOT_stimuli/rescaled_final/1094_fw.mp4	0.0	213.47225499153137	0.10002493858337402
35	172.0409209728241	fix_pre	0		120	33.0	2.5	/experiments/AOT/AOT_stimuli/rescaled_final/1094_rv.mp4	0.0	213.57227993011475	0.9999589920043945
35	172.62446212768555	pulse	0	t		33.0	2.5	/experiments/AOT/AOT_stimuli/rescaled_final/1094_rv.mp4	0.0	214.1558210849762	
35	173.0408799648285	movie	1		243	33.0	2.5	/experiments/AOT/AOT_stimuli/rescaled_final/1094_rv.mp4	0.0	214.57223892211914	2.499577045440674
35	174.2243959903717	pulse	1	t		33.0	2.5	/experiments/AOT/AOT_stimuli/rescaled_final/1094_rv.mp4	0.0	215.75575494766235	
35	175.54045701026917	fix_post	2		12	33.0	2.5	/experiments/AOT/AOT_stimuli/rescaled_final/1094_rv.mp4	0.0	217.07181596755981	0.10035014152526855
36	175.64080715179443	fix_pre	0		120	34.0	2.5	blank	1.0	217.17216610908508	1.0000228881835938
36	175.8243751525879	pulse	0	t		34.0	2.5	blank	1.0	217.35573410987854	
36	176.64083003997803	movie	1		300	34.0	2.5	blank	1.0	218.17218899726868	2.5000319480895996
36	177.42435717582703	pulse	1	t		34.0	2.5	blank	1.0	218.95571613311768	
36	179.02435207366943	pulse	1	t		34.0	2.5	blank	1.0	220.55571103096008	
36	179.14086198806763	fix_post	2		12	34.0	2.5	blank	1.0	220.67222094535828	0.09962606430053711
37	179.24048805236816	fix_pre	0		120	35.0	2.5	/experiments/AOT/AOT_stimuli/rescaled_final/1327_rv.mp4	0.0	220.7718470096588	1.0003750324249268
37	180.2408630847931	movie	1		242	35.0	2.5	/experiments/AOT/AOT_stimuli/rescaled_final/1327_rv.mp4	0.0	221.77222204208374	2.499540090560913
37	180.6239731311798	pulse	1	t		35.0	2.5	/experiments/AOT/AOT_stimuli/rescaled_final/1327_rv.mp4	0.0	222.15533208847046	
37	182.22436809539795	pulse	1	t		35.0	2.5	/experiments/AOT/AOT_stimuli/rescaled_final/1327_rv.mp4	0.0	223.7557270526886	
37	182.740403175354	fix_post	2		12	35.0	2.5	/experiments/AOT/AOT_stimuli/rescaled_final/1327_rv.mp4	0.0	224.27176213264465	0.1003727912902832
38	182.8407759666443	fix_pre	0		119	36.0	2.5	/experiments/AOT/AOT_stimuli/rescaled_final/1034_rv.mp4	0.0	224.37213492393494	0.9917800426483154
38	183.82454419136047	pulse	0	t		36.0	2.5	/experiments/AOT/AOT_stimuli/rescaled_final/1034_rv.mp4	0.0	225.35590314865112	
38	183.8325560092926	movie	1		246	36.0	2.5	/experiments/AOT/AOT_stimuli/rescaled_final/1034_rv.mp4	0.0	225.36391496658325	2.5081980228424072
38	185.42426204681396	pulse	1	t		36.0	2.5	/experiments/AOT/AOT_stimuli/rescaled_final/1034_rv.mp4	0.0	226.95562100410461	
38	186.340754032135	fix_post	2		12	36.0	2.5	/experiments/AOT/AOT_stimuli/rescaled_final/1034_rv.mp4	0.0	227.87211298942566	0.10008811950683594
39	186.44084215164185	fix_pre	0		120	37.0	2.5	/experiments/AOT/AOT_stimuli/rescaled_final/1362_fw.mp4	0.0	227.9722011089325	1.0000009536743164
39	187.02441596984863	pulse	0	t		37.0	2.5	/experiments/AOT/AOT_stimuli/rescaled_final/1362_fw.mp4	0.0	228.55577492713928	
39	187.44084310531616	movie	1		245	37.0	2.5	/experiments/AOT/AOT_stimuli/rescaled_final/1362_fw.mp4	0.0	228.9722020626068	2.499608039855957
39	188.62392807006836	pulse	1	t		37.0	2.5	/experiments/AOT/AOT_stimuli/rescaled_final/1362_fw.mp4	0.0	230.155287027359	
39	189.94045114517212	fix_post	2		12	37.0	2.5	/experiments/AOT/AOT_stimuli/rescaled_final/1362_fw.mp4	0.0	231.47181010246277	0.10002994537353516
40	190.04048109054565	fix_pre	0		120	38.0	2.5	/experiments/AOT/AOT_stimuli/rescaled_final/2094_rv.mp4	0.0	231.5718400478363	1.000504970550537
40	190.22386598587036	pulse	0	t		38.0	2.5	/experiments/AOT/AOT_stimuli/rescaled_final/2094_rv.mp4	0.0	231.755224943161	
40	191.0409860610962	movie	1		243	38.0	2.5	/experiments/AOT/AOT_stimuli/rescaled_final/2094_rv.mp4	0.0	232.57234501838684	2.499408006668091
40	191.82420802116394	pulse	1	t		38.0	2.5	/experiments/AOT/AOT_stimuli/rescaled_final/2094_rv.mp4	0.0	233.3555669784546	
40	193.4227180480957	pulse	1	t		38.0	2.5	/experiments/AOT/AOT_stimuli/rescaled_final/2094_rv.mp4	0.0	234.95407700538635	
40	193.54039406776428	fix_post	2		12	38.0	2.5	/experiments/AOT/AOT_stimuli/rescaled_final/2094_rv.mp4	0.0	235.07175302505493	0.10040497779846191
41	193.64079904556274	fix_pre	0		120	39.0	2.5	/experiments/AOT/AOT_stimuli/rescaled_final/0099_rv.mp4	0.0	235.1721580028534	1.0000050067901611
41	194.6408040523529	movie	1		245	39.0	2.5	/experiments/AOT/AOT_stimuli/rescaled_final/0099_rv.mp4	0.0	236.17216300964355	2.499911069869995
41	195.0239450931549	pulse	1	t		39.0	2.5	/experiments/AOT/AOT_stimuli/rescaled_final/0099_rv.mp4	0.0	236.55530405044556	
41	196.6242961883545	pulse	1	t		39.0	2.5	/experiments/AOT/AOT_stimuli/rescaled_final/0099_rv.mp4	0.0	238.15565514564514	
41	197.1407151222229	fix_post	2		12	39.0	2.5	/experiments/AOT/AOT_stimuli/rescaled_final/0099_rv.mp4	0.0	238.67207407951355	0.10001206398010254
42	197.240727186203	fix_pre	0		119	40.0	2.5	/experiments/AOT/AOT_stimuli/rescaled_final/0924_rv.mp4	0.0	238.77208614349365	0.9917140007019043
42	198.2242341041565	pulse	0	t		40.0	2.5	/experiments/AOT/AOT_stimuli/rescaled_final/0924_rv.mp4	0.0	239.75559306144714	
42	198.2324411869049	movie	1		245	40.0	2.5	/experiments/AOT/AOT_stimuli/rescaled_final/0924_rv.mp4	0.0	239.76380014419556	2.508258819580078
42	199.82419300079346	pulse	1	t		40.0	2.5	/experiments/AOT/AOT_stimuli/rescaled_final/0924_rv.mp4	0.0	241.3555519580841	
42	200.74070000648499	fix_post	2		12	40.0	2.5	/experiments/AOT/AOT_stimuli/rescaled_final/0924_rv.mp4	0.0	242.27205896377563	0.10003304481506348
43	200.84073305130005	fix_pre	0		120	41.0	2.5	blank	1.0	242.3720920085907	0.9999120235443115
43	201.4242081642151	pulse	0	t		41.0	2.5	blank	1.0	242.95556712150574	
43	201.84064507484436	movie	1		300	41.0	2.5	blank	1.0	243.372004032135	2.5001349449157715
43	203.02424502372742	pulse	1	t		41.0	2.5	blank	1.0	244.55560398101807	
43	204.34078001976013	fix_post	2		12	41.0	2.5	blank	1.0	245.87213897705078	0.09990715980529785
44	204.44068717956543	fix_pre	0		120	42.0	2.5	/experiments/AOT/AOT_stimuli/rescaled_final/0976_fw.mp4	0.0	245.97204613685608	1.0001130104064941
44	204.62416696548462	pulse	0	t		42.0	2.5	/experiments/AOT/AOT_stimuli/rescaled_final/0976_fw.mp4	0.0	246.15552592277527	
44	205.44080018997192	movie	1		247	42.0	2.5	/experiments/AOT/AOT_stimuli/rescaled_final/0976_fw.mp4	0.0	246.97215914726257	2.499464988708496
44	206.22419500350952	pulse	1	t		42.0	2.5	/experiments/AOT/AOT_stimuli/rescaled_final/0976_fw.mp4	0.0	247.75555396080017	
44	207.8237681388855	pulse	1	t		42.0	2.5	/experiments/AOT/AOT_stimuli/rescaled_final/0976_fw.mp4	0.0	249.35512709617615	
44	207.94026517868042	fix_post	2		12	42.0	2.5	/experiments/AOT/AOT_stimuli/rescaled_final/0976_fw.mp4	0.0	249.47162413597107	0.1004178524017334
45	208.04068303108215	fix_pre	0		120	43.0	2.5	/experiments/AOT/AOT_stimuli/rescaled_final/0188_rv.mp4	0.0	249.5720419883728	0.9999761581420898
45	209.04065918922424	movie	1		248	43.0	2.5	/experiments/AOT/AOT_stimuli/rescaled_final/0188_rv.mp4	0.0	250.5720181465149	2.4999849796295166
45	209.4237940311432	pulse	1	t		43.0	2.5	/experiments/AOT/AOT_stimuli/rescaled_final/0188_rv.mp4	0.0	250.95515298843384	
45	211.02417302131653	pulse	1	t		43.0	2.5	/experiments/AOT/AOT_stimuli/rescaled_final/0188_rv.mp4	0.0	252.55553197860718	
45	211.54064416885376	fix_post	2		12	43.0	2.5	/experiments/AOT/AOT_stimuli/rescaled_final/0188_rv.mp4	0.0	253.0720031261444	0.10004782676696777
46	211.64069199562073	fix_pre	0		119	44.0	2.5	/experiments/AOT/AOT_stimuli/rescaled_final/0309_fw.mp4	0.0	253.17205095291138	0.9916880130767822
46	212.62419414520264	pulse	0	t		44.0	2.5	/experiments/AOT/AOT_stimuli/rescaled_final/0309_fw.mp4	0.0	254.1555531024933	
46	212.6323800086975	movie	1		247	44.0	2.5	/experiments/AOT/AOT_stimuli/rescaled_final/0309_fw.mp4	0.0	254.16373896598816	2.5083141326904297
46	214.22408604621887	pulse	1	t		44.0	2.5	/experiments/AOT/AOT_stimuli/rescaled_final/0309_fw.mp4	0.0	255.75544500350952	
46	215.14069414138794	fix_post	2		12	44.0	2.5	/experiments/AOT/AOT_stimuli/rescaled_final/0309_fw.mp4	0.0	256.6720530986786	0.10000085830688477
47	215.24069499969482	fix_pre	0		120	45.0	2.5	/experiments/AOT/AOT_stimuli/rescaled_final/0085_fw.mp4	0.0	256.7720539569855	0.9999780654907227
47	215.82417702674866	pulse	0	t		45.0	2.5	/experiments/AOT/AOT_stimuli/rescaled_final/0085_fw.mp4	0.0	257.3555359840393	
47	216.24067306518555	movie	1		245	45.0	2.5	/experiments/AOT/AOT_stimuli/rescaled_final/0085_fw.mp4	0.0	257.7720320224762	2.500005006790161
47	217.42417097091675	pulse	1	t		45.0	2.5	/experiments/AOT/AOT_stimuli/rescaled_final/0085_fw.mp4	0.0	258.9555299282074	
47	218.7406780719757	fix_post	2		12	45.0	2.5	/experiments/AOT/AOT_stimuli/rescaled_final/0085_fw.mp4	0.0	260.27203702926636	0.09998703002929688
48	218.840665102005	fix_pre	0		120	46.0	2.5	/experiments/AOT/AOT_stimuli/rescaled_final/2028_rv.mp4	0.0	260.37202405929565	0.999985933303833
48	219.024108171463	pulse	0	t		46.0	2.5	/experiments/AOT/AOT_stimuli/rescaled_final/2028_rv.mp4	0.0	260.55546712875366	
48	219.84065103530884	movie	1		243	46.0	2.5	/experiments/AOT/AOT_stimuli/rescaled_final/2028_rv.mp4	0.0	261.3720099925995	2.5000641345977783
48	220.62411999702454	pulse	1	t		46.0	2.5	/experiments/AOT/AOT_stimuli/rescaled_final/2028_rv.mp4	0.0	262.1554789543152	
48	222.22240018844604	pulse	1	t		46.0	2.5	/experiments/AOT/AOT_stimuli/rescaled_final/2028_rv.mp4	0.0	263.7537591457367	
48	222.34071516990662	fix_post	2		12	46.0	2.5	/experiments/AOT/AOT_stimuli/rescaled_final/2028_rv.mp4	0.0	263.87207412719727	0.0999000072479248
49	222.44061517715454	fix_pre	0		120	47.0	2.5	/experiments/AOT/AOT_stimuli/rescaled_final/0826_fw.mp4	0.0	263.9719741344452	1.0000147819519043
49	223.44062995910645	movie	1		244	47.0	2.5	/experiments/AOT/AOT_stimuli/rescaled_final/0826_fw.mp4	0.0	264.9719889163971	2.499629020690918
49	223.8241331577301	pulse	1	t		47.0	2.5	/experiments/AOT/AOT_stimuli/rescaled_final/0826_fw.mp4	0.0	265.35549211502075	
49	225.42407298088074	pulse	1	t		47.0	2.5	/experiments/AOT/AOT_stimuli/rescaled_final/0826_fw.mp4	0.0	266.9554319381714	
49	225.94025897979736	fix_post	2		12	47.0	2.5	/experiments/AOT/AOT_stimuli/rescaled_final/0826_fw.mp4	0.0	267.471617937088	0.09995317459106445
50	226.04021215438843	fix_pre	0		119	48.0	2.5	/experiments/AOT/AOT_stimuli/rescaled_final/0270_rv.mp4	0.0	267.5715711116791	0.9920258522033691
50	227.02406001091003	pulse	0	t		48.0	2.5	/experiments/AOT/AOT_stimuli/rescaled_final/0270_rv.mp4	0.0	268.5554189682007	
50	227.0322380065918	movie	1		244	48.0	2.5	/experiments/AOT/AOT_stimuli/rescaled_final/0270_rv.mp4	0.0	268.56359696388245	2.508493185043335
50	228.62503099441528	pulse	1	t		48.0	2.5	/experiments/AOT/AOT_stimuli/rescaled_final/0270_rv.mp4	0.0	270.15638995170593	
50	229.54073119163513	fix_post	2		12	48.0	2.5	/experiments/AOT/AOT_stimuli/rescaled_final/0270_rv.mp4	0.0	271.0720901489258	0.09987878799438477
51	229.64060997962952	fix_pre	0		120	49.0	2.5	blank	1.0	271.17196893692017	1.0000309944152832
51	230.22400903701782	pulse	0	t		49.0	2.5	blank	1.0	271.7553679943085	
51	230.6406409740448	movie	1		300	49.0	2.5	blank	1.0	272.17199993133545	2.499934196472168
51	231.8241410255432	pulse	1	t		49.0	2.5	blank	1.0	273.35549998283386	
51	233.14057517051697	fix_post	2		12	49.0	2.5	blank	1.0	274.6719341278076	0.099578857421875
52	233.24015402793884	fix_pre	0		120	50.0	2.5	/experiments/AOT/AOT_stimuli/rescaled_final/0574_fw.mp4	0.0	274.7715129852295	0.9999730587005615
52	233.4241120815277	pulse	0	t		50.0	2.5	/experiments/AOT/AOT_stimuli/rescaled_final/0574_fw.mp4	0.0	274.95547103881836	
52	234.2401270866394	movie	1		246	50.0	2.5	/experiments/AOT/AOT_stimuli/rescaled_final/0574_fw.mp4	0.0	275.77148604393005	2.5000040531158447
52	235.02410507202148	pulse	1	t		50.0	2.5	/experiments/AOT/AOT_stimuli/rescaled_final/0574_fw.mp4	0.0	276.55546402931213	
52	236.62400197982788	pulse	1	t		50.0	2.5	/experiments/AOT/AOT_stimuli/rescaled_final/0574_fw.mp4	0.0	278.15536093711853	
52	236.74013113975525	fix_post	2		12	50.0	2.5	/experiments/AOT/AOT_stimuli/rescaled_final/0574_fw.mp4	0.0	278.2714900970459	0.10042500495910645
53	236.84055614471436	fix_pre	0		120	51.0	2.5	/experiments/AOT/AOT_stimuli/rescaled_final/0175_rv.mp4	0.0	278.371915102005	0.9999909400939941
53	237.84054708480835	movie	1		243	51.0	2.5	/experiments/AOT/AOT_stimuli/rescaled_final/0175_rv.mp4	0.0	279.371906042099	2.4999840259552
53	238.22381806373596	pulse	1	t		51.0	2.5	/experiments/AOT/AOT_stimuli/rescaled_final/0175_rv.mp4	0.0	279.7551770210266	
53	239.82408905029297	pulse	1	t		51.0	2.5	/experiments/AOT/AOT_stimuli/rescaled_final/0175_rv.mp4	0.0	281.3554480075836	
53	240.34053111076355	fix_post	2		12	51.0	2.5	/experiments/AOT/AOT_stimuli/rescaled_final/0175_rv.mp4	0.0	281.8718900680542	0.09999394416809082
54	240.44052505493164	fix_pre	0		119	52.0	2.5	/experiments/AOT/AOT_stimuli/rescaled_final/0016_rv.mp4	0.0	281.9718840122223	0.9916930198669434
54	241.42414212226868	pulse	0	t		52.0	2.5	/experiments/AOT/AOT_stimuli/rescaled_final/0016_rv.mp4	0.0	282.9555010795593	
54	241.43221807479858	movie	1		244	52.0	2.5	/experiments/AOT/AOT_stimuli/rescaled_final/0016_rv.mp4	0.0	282.96357703208923	2.5083940029144287
54	243.02371907234192	pulse	1	t		52.0	2.5	/experiments/AOT/AOT_stimuli/rescaled_final/0016_rv.mp4	0.0	284.55507802963257	
54	243.940612077713	fix_post	2		12	52.0	2.5	/experiments/AOT/AOT_stimuli/rescaled_final/0016_rv.mp4	0.0	285.47197103500366	0.09991288185119629
55	244.0405249595642	fix_pre	0		120	53.0	2.5	/experiments/AOT/AOT_stimuli/rescaled_final/0210_fw.mp4	0.0	285.57188391685486	0.999629020690918
55	244.62366199493408	pulse	0	t		53.0	2.5	/experiments/AOT/AOT_stimuli/rescaled_final/0210_fw.mp4	0.0	286.15502095222473	
55	245.04015398025513	movie	1		245	53.0	2.5	/experiments/AOT/AOT_stimuli/rescaled_final/0210_fw.mp4	0.0	286.5715129375458	2.500275135040283
55	246.22380995750427	pulse	1	t		53.0	2.5	/experiments/AOT/AOT_stimuli/rescaled_final/0210_fw.mp4	0.0	287.7551689147949	
55	247.5404291152954	fix_post	2		12	53.0	2.5	/experiments/AOT/AOT_stimuli/rescaled_final/0210_fw.mp4	0.0	289.07178807258606	0.10001206398010254
56	247.6404411792755	fix_pre	0		120	54.0	2.5	/experiments/AOT/AOT_stimuli/rescaled_final/1795_fw.mp4	0.0	289.17180013656616	1.0000879764556885
56	247.82396602630615	pulse	0	t		54.0	2.5	/experiments/AOT/AOT_stimuli/rescaled_final/1795_fw.mp4	0.0	289.3553249835968	
56	248.6405291557312	movie	1		243	54.0	2.5	/experiments/AOT/AOT_stimuli/rescaled_final/1795_fw.mp4	0.0	290.17188811302185	2.500005006790161
56	249.4240381717682	pulse	1	t		54.0	2.5	/experiments/AOT/AOT_stimuli/rescaled_final/1795_fw.mp4	0.0	290.95539712905884	
56	251.02260303497314	pulse	1	t		54.0	2.5	/experiments/AOT/AOT_stimuli/rescaled_final/1795_fw.mp4	0.0	292.5539619922638	
56	251.14053416252136	fix_post	2		12	54.0	2.5	/experiments/AOT/AOT_stimuli/rescaled_final/1795_fw.mp4	0.0	292.671893119812	0.09961295127868652
57	251.24014711380005	fix_pre	0		120	55.0	2.5	/experiments/AOT/AOT_stimuli/rescaled_final/1215_rv.mp4	0.0	292.7715060710907	1.0003678798675537
57	252.2405149936676	movie	1		246	55.0	2.5	/experiments/AOT/AOT_stimuli/rescaled_final/1215_rv.mp4	0.0	293.77187395095825	2.4999940395355225
57	252.62365317344666	pulse	1	t		55.0	2.5	/experiments/AOT/AOT_stimuli/rescaled_final/1215_rv.mp4	0.0	294.1550121307373	
57	254.22392201423645	pulse	1	t		55.0	2.5	/experiments/AOT/AOT_stimuli/rescaled_final/1215_rv.mp4	0.0	295.7552809715271	
57	254.74050903320312	fix_post	2		12	55.0	2.5	/experiments/AOT/AOT_stimuli/rescaled_final/1215_rv.mp4	0.0	296.2718679904938	0.09995412826538086
58	254.8404631614685	fix_pre	0		119	56.0	2.5	blank	1.0	296.37182211875916	0.9916470050811768
58	255.82396602630615	pulse	0	t		56.0	2.5	blank	1.0	297.3553249835968	
58	255.83211016654968	movie	1		301	56.0	2.5	blank	1.0	297.36346912384033	2.5083370208740234
58	257.4238440990448	pulse	1	t		56.0	2.5	blank	1.0	298.95520305633545	
58	258.3404471874237	fix_post	2		12	56.0	2.5	blank	1.0	299.87180614471436	0.09997987747192383
59	258.44042706489563	fix_pre	0		120	57.0	2.5	/experiments/AOT/AOT_stimuli/rescaled_final/0016_fw.mp4	0.0	299.9717860221863	1.0000159740447998
59	259.02394914627075	pulse	0	t		57.0	2.5	/experiments/AOT/AOT_stimuli/rescaled_final/0016_fw.mp4	0.0	300.5553081035614	
59	259.44044303894043	movie	1		244	57.0	2.5	/experiments/AOT/AOT_stimuli/rescaled_final/0016_fw.mp4	0.0	300.9718019962311	2.500059127807617
59	260.62395000457764	pulse	1	t		57.0	2.5	/experiments/AOT/AOT_stimuli/rescaled_final/0016_fw.mp4	0.0	302.1553089618683	
59	261.94050216674805	fix_post	2		12	57.0	2.5	/experiments/AOT/AOT_stimuli/rescaled_final/0016_fw.mp4	0.0	303.4718611240387	0.09991288185119629
60	262.04041504859924	fix_pre	0		120	58.0	2.5	/experiments/AOT/AOT_stimuli/rescaled_final/1504_rv.mp4	0.0	303.5717740058899	1.0000460147857666
60	262.22404408454895	pulse	0	t		58.0	2.5	/experiments/AOT/AOT_stimuli/rescaled_final/1504_rv.mp4	0.0	303.7554030418396	
60	263.040461063385	movie	1		244	58.0	2.5	/experiments/AOT/AOT_stimuli/rescaled_final/1504_rv.mp4	0.0	304.57182002067566	2.4995710849761963
60	263.8241171836853	pulse	1	t		58.0	2.5	/experiments/AOT/AOT_stimuli/rescaled_final/1504_rv.mp4	0.0	305.35547614097595	
60	265.4239270687103	pulse	1	t		58.0	2.5	/experiments/AOT/AOT_stimuli/rescaled_final/1504_rv.mp4	0.0	306.955286026001	
60	265.5400321483612	fix_post	2		12	58.0	2.5	/experiments/AOT/AOT_stimuli/rescaled_final/1504_rv.mp4	0.0	307.07139110565186	0.10044693946838379
61	265.6404790878296	fix_pre	0		120	59.0	2.5	/experiments/AOT/AOT_stimuli/rescaled_final/0152_rv.mp4	0.0	307.17183804512024	1.000040054321289
61	266.6405191421509	movie	1		243	59.0	2.5	/experiments/AOT/AOT_stimuli/rescaled_final/0152_rv.mp4	0.0	308.1718780994415	2.500102996826172
61	267.0237331390381	pulse	1	t		59.0	2.5	/experiments/AOT/AOT_stimuli/rescaled_final/0152_rv.mp4	0.0	308.55509209632874	
61	268.6239790916443	pulse	1	t		59.0	2.5	/experiments/AOT/AOT_stimuli/rescaled_final/0152_rv.mp4	0.0	310.15533804893494	
61	269.14062213897705	fix_post	2		12	59.0	2.5	/experiments/AOT/AOT_stimuli/rescaled_final/0152_rv.mp4	0.0	310.6719810962677	0.0998530387878418
62	269.2404751777649	fix_pre	0		119	60.0	2.5	/experiments/AOT/AOT_stimuli/rescaled_final/0229_fw.mp4	0.0	310.77183413505554	0.9915997982025146
62	270.2238759994507	pulse	0	t		60.0	2.5	/experiments/AOT/AOT_stimuli/rescaled_final/0229_fw.mp4	0.0	311.75523495674133	
62	270.2320749759674	movie	1		244	60.0	2.5	/experiments/AOT/AOT_stimuli/rescaled_final/0229_fw.mp4	0.0	311.76343393325806	2.50832200050354
62	271.82391905784607	pulse	1	t		60.0	2.5	/experiments/AOT/AOT_stimuli/rescaled_final/0229_fw.mp4	0.0	313.3552780151367	
62	272.74039697647095	fix_post	2		12	60.0	2.5	/experiments/AOT/AOT_stimuli/rescaled_final/0229_fw.mp4	0.0	314.2717559337616	0.09999799728393555
63	272.8403949737549	fix_pre	0		120	61.0	2.5	blank	1.0	314.37175393104553	1.0000131130218506
63	273.4238920211792	pulse	0	t		61.0	2.5	blank	1.0	314.95525097846985	
63	273.84040808677673	movie	1		300	61.0	2.5	blank	1.0	315.3717670440674	2.4999399185180664
63	275.02390599250793	pulse	1	t		61.0	2.5	blank	1.0	316.5552649497986	
63	276.3403480052948	fix_post	2		12	61.0	2.5	blank	1.0	317.87170696258545	0.0996091365814209
64	276.4399571418762	fix_pre	0		120	62.0	2.5	/experiments/AOT/AOT_stimuli/rescaled_final/0826_rv.mp4	0.0	317.97131609916687	1.0003809928894043
64	276.62391996383667	pulse	0	t		62.0	2.5	/experiments/AOT/AOT_stimuli/rescaled_final/0826_rv.mp4	0.0	318.1552789211273	
64	277.4403381347656	movie	1		245	62.0	2.5	/experiments/AOT/AOT_stimuli/rescaled_final/0826_rv.mp4	0.0	318.9716970920563	2.4999680519104004
64	278.22388315200806	pulse	1	t		62.0	2.5	/experiments/AOT/AOT_stimuli/rescaled_final/0826_rv.mp4	0.0	319.7552421092987	
64	279.8223719596863	pulse	1	t		62.0	2.5	/experiments/AOT/AOT_stimuli/rescaled_final/0826_rv.mp4	0.0	321.35373091697693	
64	279.940306186676	fix_post	2		12	62.0	2.5	/experiments/AOT/AOT_stimuli/rescaled_final/0826_rv.mp4	0.0	321.4716651439667	0.10001778602600098
65	280.040323972702	fix_pre	0		120	63.0	2.5	/experiments/AOT/AOT_stimuli/rescaled_final/0303_rv.mp4	0.0	321.5716829299927	0.9999861717224121
65	281.04031014442444	movie	1		245	63.0	2.5	/experiments/AOT/AOT_stimuli/rescaled_final/0303_rv.mp4	0.0	322.5716691017151	2.4995968341827393
65	281.42350697517395	pulse	1	t		63.0	2.5	/experiments/AOT/AOT_stimuli/rescaled_final/0303_rv.mp4	0.0	322.9548659324646	
65	283.02390813827515	pulse	1	t		63.0	2.5	/experiments/AOT/AOT_stimuli/rescaled_final/0303_rv.mp4	0.0	324.5552670955658	
65	283.5399069786072	fix_post	2		12	63.0	2.5	/experiments/AOT/AOT_stimuli/rescaled_final/0303_rv.mp4	0.0	325.0712659358978	0.1000511646270752
66	283.63995814323425	fix_pre	0		119	64.0	2.5	/experiments/AOT/AOT_stimuli/rescaled_final/0607_rv.mp4	0.0	325.1713171005249	0.992095947265625
66	284.6238729953766	pulse	0	t		64.0	2.5	/experiments/AOT/AOT_stimuli/rescaled_final/0607_rv.mp4	0.0	326.15523195266724	
66	284.6320540904999	movie	1		245	64.0	2.5	/experiments/AOT/AOT_stimuli/rescaled_final/0607_rv.mp4	0.0	326.1634130477905	2.5082759857177734
66	286.22413396835327	pulse	1	t		64.0	2.5	/experiments/AOT/AOT_stimuli/rescaled_final/0607_rv.mp4	0.0	327.7554929256439	
66	287.14033007621765	fix_post	2		12	64.0	2.5	/experiments/AOT/AOT_stimuli/rescaled_final/0607_rv.mp4	0.0	328.6716890335083	0.09995508193969727
67	287.24028515815735	fix_pre	0		120	65.0	2.5	/experiments/AOT/AOT_stimuli/rescaled_final/1408_fw.mp4	0.0	328.771644115448	1.0001118183135986
67	287.82386016845703	pulse	0	t		65.0	2.5	/experiments/AOT/AOT_stimuli/rescaled_final/1408_fw.mp4	0.0	329.3552191257477	
67	288.24039697647095	movie	1		243	65.0	2.5	/experiments/AOT/AOT_stimuli/rescaled_final/1408_fw.mp4	0.0	329.7717559337616	2.499981164932251
67	289.42391705513	pulse	1	t		65.0	2.5	/experiments/AOT/AOT_stimuli/rescaled_final/1408_fw.mp4	0.0	330.95527601242065	
67	290.7403781414032	fix_post	2		12	65.0	2.5	/experiments/AOT/AOT_stimuli/rescaled_final/1408_fw.mp4	0.0	332.27173709869385	0.09994983673095703
68	290.84032797813416	fix_pre	0		120	66.0	2.5	/experiments/AOT/AOT_stimuli/rescaled_final/0367_rv.mp4	0.0	332.3716869354248	0.9995830059051514
68	291.0238411426544	pulse	0	t		66.0	2.5	/experiments/AOT/AOT_stimuli/rescaled_final/0367_rv.mp4	0.0	332.55520009994507	
68	291.8399109840393	movie	1		244	66.0	2.5	/experiments/AOT/AOT_stimuli/rescaled_final/0367_rv.mp4	0.0	333.37126994132996	2.5003111362457275
68	292.62382197380066	pulse	1	t		66.0	2.5	/experiments/AOT/AOT_stimuli/rescaled_final/0367_rv.mp4	0.0	334.1551809310913	
68	294.22382497787476	pulse	1	t		66.0	2.5	/experiments/AOT/AOT_stimuli/rescaled_final/0367_rv.mp4	0.0	335.7551839351654	
68	294.34022212028503	fix_post	2		12	66.0	2.5	/experiments/AOT/AOT_stimuli/rescaled_final/0367_rv.mp4	0.0	335.8715810775757	0.10010600090026855
69	294.4403281211853	fix_pre	0		120	67.0	2.5	/experiments/AOT/AOT_stimuli/rescaled_final/0773_fw.mp4	0.0	335.97168707847595	1.0
69	295.4403281211853	movie	1		245	67.0	2.5	/experiments/AOT/AOT_stimuli/rescaled_final/0773_fw.mp4	0.0	336.97168707847595	2.4998080730438232
69	295.82337498664856	pulse	1	t		67.0	2.5	/experiments/AOT/AOT_stimuli/rescaled_final/0773_fw.mp4	0.0	337.3547339439392	
69	297.42377495765686	pulse	1	t		67.0	2.5	/experiments/AOT/AOT_stimuli/rescaled_final/0773_fw.mp4	0.0	338.9551339149475	
69	297.9401361942291	fix_post	2		12	67.0	2.5	/experiments/AOT/AOT_stimuli/rescaled_final/0773_fw.mp4	0.0	339.4714951515198	0.1001119613647461
70	298.0402481555939	fix_pre	0		119	68.0	2.5	/experiments/AOT/AOT_stimuli/rescaled_final/1717_fw.mp4	0.0	339.5716071128845	0.9917469024658203
70	299.0238211154938	pulse	0	t		68.0	2.5	/experiments/AOT/AOT_stimuli/rescaled_final/1717_fw.mp4	0.0	340.5551800727844	
70	299.0319950580597	movie	1		245	68.0	2.5	/experiments/AOT/AOT_stimuli/rescaled_final/1717_fw.mp4	0.0	340.56335401535034	2.5082790851593018
70	300.6232280731201	pulse	1	t		68.0	2.5	/experiments/AOT/AOT_stimuli/rescaled_final/1717_fw.mp4	0.0	342.15458703041077	
70	301.540274143219	fix_post	2		12	68.0	2.5	/experiments/AOT/AOT_stimuli/rescaled_final/1717_fw.mp4	0.0	343.07163310050964	0.09970498085021973
71	301.6399791240692	fix_pre	0		120	69.0	2.5	blank	1.0	343.17133808135986	1.0000529289245605
71	302.223491191864	pulse	0	t		69.0	2.5	blank	1.0	343.75485014915466	
71	302.6400320529938	movie	1		300	69.0	2.5	blank	1.0	344.1713910102844	2.500216007232666
71	303.8237190246582	pulse	1	t		69.0	2.5	blank	1.0	345.35507798194885	
71	305.14024806022644	fix_post	2		12	69.0	2.5	blank	1.0	346.6716070175171	0.10000109672546387
72	305.2402491569519	fix_pre	0		120	70.0	2.5	/experiments/AOT/AOT_stimuli/rescaled_final/0853_fw.mp4	0.0	346.77160811424255	1.0001378059387207
72	305.42371916770935	pulse	0	t		70.0	2.5	/experiments/AOT/AOT_stimuli/rescaled_final/0853_fw.mp4	0.0	346.955078125	
72	306.2403869628906	movie	1		244	70.0	2.5	/experiments/AOT/AOT_stimuli/rescaled_final/0853_fw.mp4	0.0	347.7717459201813	2.4998221397399902
72	307.0237121582031	pulse	1	t		70.0	2.5	/experiments/AOT/AOT_stimuli/rescaled_final/0853_fw.mp4	0.0	348.5550711154938	
72	308.6237471103668	pulse	1	t		70.0	2.5	/experiments/AOT/AOT_stimuli/rescaled_final/0853_fw.mp4	0.0	350.15510606765747	
72	308.7402091026306	fix_post	2		12	70.0	2.5	/experiments/AOT/AOT_stimuli/rescaled_final/0853_fw.mp4	0.0	350.27156805992126	0.10002803802490234
73	308.8402371406555	fix_pre	0		120	71.0	2.5	/experiments/AOT/AOT_stimuli/rescaled_final/2096_rv.mp4	0.0	350.37159609794617	0.9999430179595947
73	309.8401801586151	movie	1		245	71.0	2.5	/experiments/AOT/AOT_stimuli/rescaled_final/2096_rv.mp4	0.0	351.37153911590576	2.4999818801879883
73	310.2246081829071	pulse	1	t		71.0	2.5	/experiments/AOT/AOT_stimuli/rescaled_final/2096_rv.mp4	0.0	351.75596714019775	
73	311.8237040042877	pulse	1	t		71.0	2.5	/experiments/AOT/AOT_stimuli/rescaled_final/2096_rv.mp4	0.0	353.35506296157837	
73	312.3401620388031	fix_post	2		12	71.0	2.5	/experiments/AOT/AOT_stimuli/rescaled_final/2096_rv.mp4	0.0	353.87152099609375	0.10001301765441895
74	312.4401750564575	fix_pre	0		119	72.0	2.5	/experiments/AOT/AOT_stimuli/rescaled_final/0658_rv.mp4	0.0	353.97153401374817	0.9917280673980713
74	313.42366099357605	pulse	0	t		72.0	2.5	/experiments/AOT/AOT_stimuli/rescaled_final/0658_rv.mp4	0.0	354.9550199508667	
74	313.4319031238556	movie	1		244	72.0	2.5	/experiments/AOT/AOT_stimuli/rescaled_final/0658_rv.mp4	0.0	354.96326208114624	2.5082900524139404
74	315.0235261917114	pulse	1	t		72.0	2.5	/experiments/AOT/AOT_stimuli/rescaled_final/0658_rv.mp4	0.0	356.5548851490021	
74	315.94019317626953	fix_post	2		12	72.0	2.5	/experiments/AOT/AOT_stimuli/rescaled_final/0658_rv.mp4	0.0	357.4715521335602	0.0999457836151123
75	316.04013895988464	fix_pre	0		120	73.0	2.5	/experiments/AOT/AOT_stimuli/rescaled_final/2003_fw.mp4	0.0	357.5714979171753	0.9996330738067627
75	316.6237120628357	pulse	0	t		73.0	2.5	/experiments/AOT/AOT_stimuli/rescaled_final/2003_fw.mp4	0.0	358.15507102012634	
75	317.0397720336914	movie	1		245	73.0	2.5	/experiments/AOT/AOT_stimuli/rescaled_final/2003_fw.mp4	0.0	358.57113099098206	2.499959945678711
75	318.2236771583557	pulse	1	t		73.0	2.5	/experiments/AOT/AOT_stimuli/rescaled_final/2003_fw.mp4	0.0	359.75503611564636	
75	319.5397319793701	fix_post	2		12	73.0	2.5	/experiments/AOT/AOT_stimuli/rescaled_final/2003_fw.mp4	0.0	361.07109093666077	0.10047221183776855
76	319.6402041912079	fix_pre	0		120	74.0	2.5	/experiments/AOT/AOT_stimuli/rescaled_final/0602_fw.mp4	0.0	361.17156314849854	0.999945878982544
76	319.8236701488495	pulse	0	t		74.0	2.5	/experiments/AOT/AOT_stimuli/rescaled_final/0602_fw.mp4	0.0	361.35502910614014	
76	320.64015007019043	movie	1		245	74.0	2.5	/experiments/AOT/AOT_stimuli/rescaled_final/0602_fw.mp4	0.0	362.1715090274811	2.499587059020996
76	321.423681974411	pulse	1	t		74.0	2.5	/experiments/AOT/AOT_stimuli/rescaled_final/0602_fw.mp4	0.0	362.95504093170166	
76	323.0224599838257	pulse	1	t		74.0	2.5	/experiments/AOT/AOT_stimuli/rescaled_final/0602_fw.mp4	0.0	364.55381894111633	
76	323.1397371292114	fix_post	2		12	74.0	2.5	/experiments/AOT/AOT_stimuli/rescaled_final/0602_fw.mp4	0.0	364.6710960865021	0.10042905807495117
77	323.2401661872864	fix_pre	0		120	75.0	2.5	/experiments/AOT/AOT_stimuli/rescaled_final/0095_fw.mp4	0.0	364.771525144577	1.0000219345092773
77	324.24018812179565	movie	1		246	75.0	2.5	/experiments/AOT/AOT_stimuli/rescaled_final/0095_fw.mp4	0.0	365.7715470790863	2.499552011489868
77	324.623517036438	pulse	1	t		75.0	2.5	/experiments/AOT/AOT_stimuli/rescaled_final/0095_fw.mp4	0.0	366.15487599372864	
77	326.2235779762268	pulse	1	t		75.0	2.5	/experiments/AOT/AOT_stimuli/rescaled_final/0095_fw.mp4	0.0	367.75493693351746	
77	326.7397401332855	fix_post	2		12	75.0	2.5	/experiments/AOT/AOT_stimuli/rescaled_final/0095_fw.mp4	0.0	368.2710990905762	0.1004638671875
78	326.840204000473	fix_pre	0		119	76.0	2.5	/experiments/AOT/AOT_stimuli/rescaled_final/0235_rv.mp4	0.0	368.3715629577637	0.9916529655456543
78	327.8236811161041	pulse	0	t		76.0	2.5	/experiments/AOT/AOT_stimuli/rescaled_final/0235_rv.mp4	0.0	369.3550400733948	
78	327.8318569660187	movie	1		247	76.0	2.5	/experiments/AOT/AOT_stimuli/rescaled_final/0235_rv.mp4	0.0	369.3632159233093	2.5082621574401855
78	329.4235031604767	pulse	1	t		76.0	2.5	/experiments/AOT/AOT_stimuli/rescaled_final/0235_rv.mp4	0.0	370.95486211776733	
78	330.34011912345886	fix_post	2		12	76.0	2.5	/experiments/AOT/AOT_stimuli/rescaled_final/0235_rv.mp4	0.0	371.8714780807495	0.10000801086425781
79	330.4401271343231	fix_pre	0		120	77.0	2.5	blank	1.0	371.97148609161377	0.9995918273925781
79	331.0237030982971	pulse	0	t		77.0	2.5	blank	1.0	372.55506205558777	
79	331.4397189617157	movie	1		300	77.0	2.5	blank	1.0	372.97107791900635	2.5003550052642822
79	332.6236879825592	pulse	1	t		77.0	2.5	blank	1.0	374.15504693984985	
79	333.94007396698	fix_post	2		12	77.0	2.5	blank	1.0	375.47143292427063	0.1000361442565918
80	334.0401101112366	fix_pre	0		120	78.0	2.5	/experiments/AOT/AOT_stimuli/rescaled_final/0355_fw.mp4	0.0	375.5714690685272	0.9996979236602783
80	334.22363805770874	pulse	0	t		78.0	2.5	/experiments/AOT/AOT_stimuli/rescaled_final/0355_fw.mp4	0.0	375.7549970149994	
80	335.03980803489685	movie	1		244	78.0	2.5	/experiments/AOT/AOT_stimuli/rescaled_final/0355_fw.mp4	0.0	376.5711669921875	2.500277042388916
80	335.82361102104187	pulse	1	t		78.0	2.5	/experiments/AOT/AOT_stimuli/rescaled_final/0355_fw.mp4	0.0	377.3549699783325	
80	337.42359805107117	pulse	1	t		78.0	2.5	/experiments/AOT/AOT_stimuli/rescaled_final/0355_fw.mp4	0.0	378.9549570083618	
80	337.54008507728577	fix_post	2		12	78.0	2.5	/experiments/AOT/AOT_stimuli/rescaled_final/0355_fw.mp4	0.0	379.0714440345764	0.09996199607849121
81	337.64004707336426	fix_pre	0		120	79.0	2.5	/experiments/AOT/AOT_stimuli/rescaled_final/0960_rv.mp4	0.0	379.1714060306549	1.0000948905944824
81	338.64014196395874	movie	1		245	79.0	2.5	/experiments/AOT/AOT_stimuli/rescaled_final/0960_rv.mp4	0.0	380.1715009212494	2.4994962215423584
81	339.0233211517334	pulse	1	t		79.0	2.5	/experiments/AOT/AOT_stimuli/rescaled_final/0960_rv.mp4	0.0	380.55468010902405	
81	340.6237301826477	pulse	1	t		79.0	2.5	/experiments/AOT/AOT_stimuli/rescaled_final/0960_rv.mp4	0.0	382.15508913993835	
81	341.1396381855011	fix_post	2		12	79.0	2.5	/experiments/AOT/AOT_stimuli/rescaled_final/0960_rv.mp4	0.0	382.67099714279175	0.10049581527709961
82	341.2401340007782	fix_pre	0		119	80.0	2.5	/experiments/AOT/AOT_stimuli/rescaled_final/2176_fw.mp4	0.0	382.77149295806885	0.9916510581970215
82	342.2235531806946	pulse	0	t		80.0	2.5	/experiments/AOT/AOT_stimuli/rescaled_final/2176_fw.mp4	0.0	383.75491213798523	
82	342.2317850589752	movie	1		247	80.0	2.5	/experiments/AOT/AOT_stimuli/rescaled_final/2176_fw.mp4	0.0	383.76314401626587	2.5078389644622803
82	343.82309913635254	pulse	1	t		80.0	2.5	/experiments/AOT/AOT_stimuli/rescaled_final/2176_fw.mp4	0.0	385.3544580936432	
82	344.7396240234375	fix_post	2		12	80.0	2.5	/experiments/AOT/AOT_stimuli/rescaled_final/2176_fw.mp4	0.0	386.27098298072815	0.10045814514160156
83	344.8400821685791	fix_pre	0		120	81.0	2.5	/experiments/AOT/AOT_stimuli/rescaled_final/0095_rv.mp4	0.0	386.37144112586975	0.9999918937683105
83	345.4236571788788	pulse	0	t		81.0	2.5	/experiments/AOT/AOT_stimuli/rescaled_final/0095_rv.mp4	0.0	386.95501613616943	
83	345.8400740623474	movie	1		244	81.0	2.5	/experiments/AOT/AOT_stimuli/rescaled_final/0095_rv.mp4	0.0	387.37143301963806	2.499591112136841
83	347.0236191749573	pulse	1	t		81.0	2.5	/experiments/AOT/AOT_stimuli/rescaled_final/0095_rv.mp4	0.0	388.5549781322479	
83	348.33966517448425	fix_post	2		12	81.0	2.5	/experiments/AOT/AOT_stimuli/rescaled_final/0095_rv.mp4	0.0	389.8710241317749	0.10035181045532227
84	348.4400169849396	fix_pre	0		120	82.0	2.5	blank	1.0	389.9713759422302	1.000063180923462
84	348.6235511302948	pulse	0	t		82.0	2.5	blank	1.0	390.15491008758545	
84	349.44008016586304	movie	1		300	82.0	2.5	blank	1.0	390.9714391231537	2.4999749660491943
84	350.2235221862793	pulse	1	t		82.0	2.5	blank	1.0	391.75488114356995	
84	351.82353115081787	pulse	1	t		82.0	2.5	blank	1.0	393.3548901081085	
84	351.94005513191223	fix_post	2		12	82.0	2.5	blank	1.0	393.4714140892029	0.10000205039978027
85	352.040057182312	fix_pre	0		120	83.0	2.5	/experiments/AOT/AOT_stimuli/rescaled_final/0016_rv.mp4	0.0	393.57141613960266	0.9999690055847168
85	353.04002618789673	movie	1		242	83.0	2.5	/experiments/AOT/AOT_stimuli/rescaled_final/0016_rv.mp4	0.0	394.5713851451874	2.5000498294830322
85	353.4238541126251	pulse	1	t		83.0	2.5	/experiments/AOT/AOT_stimuli/rescaled_final/0016_rv.mp4	0.0	394.95521306991577	
85	355.02350997924805	pulse	1	t		83.0	2.5	/experiments/AOT/AOT_stimuli/rescaled_final/0016_rv.mp4	0.0	396.5548689365387	
85	355.54007601737976	fix_post	2		12	83.0	2.5	/experiments/AOT/AOT_stimuli/rescaled_final/0016_rv.mp4	0.0	397.0714349746704	0.0999760627746582
87	355.6400520801544	stim	0		1716					397.17141103744507	14.299927949905396
87	356.6235890388489	pulse	0	t						398.1549479961395	
87	358.2236371040344	pulse	0	t						399.7549960613251	
87	359.823450088501	pulse	0	t						401.3548090457916	
87	361.4234821796417	pulse	0	t						402.9548411369324	
87	363.02348613739014	pulse	0	t						404.5548450946808	
87	364.62341117858887	pulse	0	t						406.1547701358795	
87	366.2234261035919	pulse	0	t						407.75478506088257	
87	367.82344102859497	pulse	0	t						409.3547999858856	
87	369.4234001636505	pulse	0	t						410.95475912094116	
