trial_nr	onset	event_type	phase	response	nr_frames	movie_index	movie_duration	movie_file	blank	onset_abs	duration
0	0.1665496826171875	stim	0		11					23.90513515472412	0.09147143363952637
0	0.250072717666626	response	0	space						23.98865818977356	
1	0.25802111625671387	stim	0		4612					23.996606588363647	38.4441134929657
1	38.690799951553345	pulse	0	t						62.42938542366028	
1	38.70213460922241	stim	1		1715					62.440720081329346	14.305514812469482
1	40.289270639419556	pulse	1	t						64.02785611152649	
1	41.88945555686951	pulse	1	t						65.62804102897644	
1	43.48979377746582	pulse	1	t						67.22837924957275	
1	45.09005260467529	pulse	1	t						68.82863807678223	
1	46.69022583961487	pulse	1	t						70.4288113117218	
1	48.290462493896484	pulse	1	t						72.02904796600342	
1	49.890777587890625	pulse	1	t						73.62936305999756	
1	51.49107265472412	pulse	1	t						75.22965812683105	
2	53.007649421691895	fix_pre	0		11	0.0	2.5	/experiments/Knapen_AOT/AOT_stimuli/rescaled_final/1683_rv.mp4	0.0	76.74623489379883	0.11671018600463867
2	53.09126830101013	pulse	0	t		0.0	2.5	/experiments/Knapen_AOT/AOT_stimuli/rescaled_final/1683_rv.mp4	0.0	76.82985377311707	
2	53.12435960769653	movie	1		280	0.0	2.5	/experiments/Knapen_AOT/AOT_stimuli/rescaled_final/1683_rv.mp4	0.0	76.86294507980347	2.4920220375061035
2	54.68986678123474	pulse	1	t		0.0	2.5	/experiments/Knapen_AOT/AOT_stimuli/rescaled_final/1683_rv.mp4	0.0	78.42845225334167	
2	55.61638164520264	fix_post	2		11	0.0	2.5	/experiments/Knapen_AOT/AOT_stimuli/rescaled_final/1683_rv.mp4	0.0	79.35496711730957	0.09167909622192383
3	55.70806074142456	fix_pre	0		120	1.0	2.5	/experiments/Knapen_AOT/AOT_stimuli/rescaled_final/1037_fw.mp4	0.0	79.4466462135315	1.0085186958312988
3	56.286067962646484	pulse	0	t		1.0	2.5	/experiments/Knapen_AOT/AOT_stimuli/rescaled_final/1037_fw.mp4	0.0	80.02465343475342	
3	56.71657943725586	movie	1		287	1.0	2.5	/experiments/Knapen_AOT/AOT_stimuli/rescaled_final/1037_fw.mp4	0.0	80.4551649093628	2.4919872283935547
3	57.8901047706604	pulse	1	t		1.0	2.5	/experiments/Knapen_AOT/AOT_stimuli/rescaled_final/1037_fw.mp4	0.0	81.62869024276733	
3	59.208566665649414	fix_post	2		12	1.0	2.5	/experiments/Knapen_AOT/AOT_stimuli/rescaled_final/1037_fw.mp4	0.0	82.94715213775635	0.10021328926086426
4	59.30877995491028	fix_pre	0		120	2.0	2.5	/experiments/Knapen_AOT/AOT_stimuli/rescaled_final/1710_rv.mp4	0.0	83.04736542701721	1.0082852840423584
4	59.49218440055847	pulse	0	t		2.0	2.5	/experiments/Knapen_AOT/AOT_stimuli/rescaled_final/1710_rv.mp4	0.0	83.2307698726654	
4	60.31706523895264	movie	1		277	2.0	2.5	/experiments/Knapen_AOT/AOT_stimuli/rescaled_final/1710_rv.mp4	0.0	84.05565071105957	2.4920408725738525
4	61.09130311012268	pulse	1	t		2.0	2.5	/experiments/Knapen_AOT/AOT_stimuli/rescaled_final/1710_rv.mp4	0.0	84.82988858222961	
4	62.69102478027344	pulse	1	t		2.0	2.5	/experiments/Knapen_AOT/AOT_stimuli/rescaled_final/1710_rv.mp4	0.0	86.42961025238037	
4	62.80910611152649	fix_post	2		12	2.0	2.5	/experiments/Knapen_AOT/AOT_stimuli/rescaled_final/1710_rv.mp4	0.0	86.54769158363342	0.10001587867736816
5	62.90912199020386	fix_pre	0		120	3.0	2.5	/experiments/Knapen_AOT/AOT_stimuli/rescaled_final/0426_rv.mp4	0.0	86.64770746231079	1.0085806846618652
5	63.91770267486572	movie	1		278	3.0	2.5	/experiments/Knapen_AOT/AOT_stimuli/rescaled_final/0426_rv.mp4	0.0	87.65628814697266	2.491943836212158
5	64.2847831249237	pulse	1	t		3.0	2.5	/experiments/Knapen_AOT/AOT_stimuli/rescaled_final/0426_rv.mp4	0.0	88.02336859703064	
5	65.88483929634094	pulse	1	t		3.0	2.5	/experiments/Knapen_AOT/AOT_stimuli/rescaled_final/0426_rv.mp4	0.0	89.62342476844788	
5	66.40964651107788	fix_post	2		12	3.0	2.5	/experiments/Knapen_AOT/AOT_stimuli/rescaled_final/0426_rv.mp4	0.0	90.14823198318481	0.1000516414642334
6	66.50969815254211	fix_pre	0		118	4.0	2.5	/experiments/Knapen_AOT/AOT_stimuli/rescaled_final/1146_rv.mp4	0.0	90.24828362464905	0.9917850494384766
6	67.48504424095154	pulse	0	t		4.0	2.5	/experiments/Knapen_AOT/AOT_stimuli/rescaled_final/1146_rv.mp4	0.0	91.22362971305847	
6	67.50148320198059	movie	1		280	4.0	2.5	/experiments/Knapen_AOT/AOT_stimuli/rescaled_final/1146_rv.mp4	0.0	91.24006867408752	2.5003867149353027
6	69.08541679382324	pulse	1	t		4.0	2.5	/experiments/Knapen_AOT/AOT_stimuli/rescaled_final/1146_rv.mp4	0.0	92.82400226593018	
6	70.0018699169159	fix_post	2		12	4.0	2.5	/experiments/Knapen_AOT/AOT_stimuli/rescaled_final/1146_rv.mp4	0.0	93.74045538902283	0.10007596015930176
7	70.1019458770752	fix_pre	0		120	5.0	2.5	blank	1.0	93.84053134918213	1.0000972747802734
7	70.68554615974426	pulse	0	t		5.0	2.5	blank	1.0	94.4241316318512	
7	71.10204315185547	movie	1		300	5.0	2.5	blank	1.0	94.8406286239624	2.500340223312378
7	72.28573751449585	pulse	1	t		5.0	2.5	blank	1.0	96.02432298660278	
7	73.60238337516785	fix_post	2		12	5.0	2.5	blank	1.0	97.34096884727478	0.10002613067626953
8	73.70240950584412	fix_pre	0		120	6.0	2.5	/experiments/Knapen_AOT/AOT_stimuli/rescaled_final/1962_rv.mp4	0.0	97.44099497795105	1.0085203647613525
8	73.88604664802551	pulse	0	t		6.0	2.5	/experiments/Knapen_AOT/AOT_stimuli/rescaled_final/1962_rv.mp4	0.0	97.62463212013245	
8	74.71092987060547	movie	1		282	6.0	2.5	/experiments/Knapen_AOT/AOT_stimuli/rescaled_final/1962_rv.mp4	0.0	98.4495153427124	2.4920027256011963
8	75.48654270172119	pulse	1	t		6.0	2.5	/experiments/Knapen_AOT/AOT_stimuli/rescaled_final/1962_rv.mp4	0.0	99.22512817382812	
8	77.08676052093506	pulse	1	t		6.0	2.5	/experiments/Knapen_AOT/AOT_stimuli/rescaled_final/1962_rv.mp4	0.0	100.82534599304199	
8	77.20293259620667	fix_post	2		12	6.0	2.5	/experiments/Knapen_AOT/AOT_stimuli/rescaled_final/1962_rv.mp4	0.0	100.9415180683136	0.10001277923583984
9	77.3029453754425	fix_pre	0		120	7.0	2.5	/experiments/Knapen_AOT/AOT_stimuli/rescaled_final/0143_rv.mp4	0.0	101.04153084754944	1.0085208415985107
9	78.31146621704102	movie	1		266	7.0	2.5	/experiments/Knapen_AOT/AOT_stimuli/rescaled_final/0143_rv.mp4	0.0	102.05005168914795	2.492017984390259
9	78.685231924057	pulse	1	t		7.0	2.5	/experiments/Knapen_AOT/AOT_stimuli/rescaled_final/0143_rv.mp4	0.0	102.42381739616394	
9	80.2870512008667	pulse	1	t		7.0	2.5	/experiments/Knapen_AOT/AOT_stimuli/rescaled_final/0143_rv.mp4	0.0	104.02563667297363	
9	80.80348420143127	fix_post	2		12	7.0	2.5	/experiments/Knapen_AOT/AOT_stimuli/rescaled_final/0143_rv.mp4	0.0	104.54206967353821	0.10000872611999512
10	80.90349292755127	fix_pre	0		119	8.0	2.5	/experiments/Knapen_AOT/AOT_stimuli/rescaled_final/1498_rv.mp4	0.0	104.6420783996582	1.0001287460327148
10	81.88721966743469	pulse	0	t		8.0	2.5	/experiments/Knapen_AOT/AOT_stimuli/rescaled_final/1498_rv.mp4	0.0	105.62580513954163	
10	81.90362167358398	movie	1		277	8.0	2.5	/experiments/Knapen_AOT/AOT_stimuli/rescaled_final/1498_rv.mp4	0.0	105.64220714569092	2.500392198562622
10	83.48589038848877	pulse	1	t		8.0	2.5	/experiments/Knapen_AOT/AOT_stimuli/rescaled_final/1498_rv.mp4	0.0	107.2244758605957	
10	84.4040138721466	fix_post	2		12	8.0	2.5	/experiments/Knapen_AOT/AOT_stimuli/rescaled_final/1498_rv.mp4	0.0	108.14259934425354	0.10001254081726074
11	84.50402641296387	fix_pre	0		120	9.0	2.5	/experiments/Knapen_AOT/AOT_stimuli/rescaled_final/0699_fw.mp4	0.0	108.2426118850708	1.00852632522583
11	85.08770394325256	pulse	0	t		9.0	2.5	/experiments/Knapen_AOT/AOT_stimuli/rescaled_final/0699_fw.mp4	0.0	108.8262894153595	
11	85.5125527381897	movie	1		284	9.0	2.5	/experiments/Knapen_AOT/AOT_stimuli/rescaled_final/0699_fw.mp4	0.0	109.25113821029663	2.4919955730438232
11	86.68756771087646	pulse	1	t		9.0	2.5	/experiments/Knapen_AOT/AOT_stimuli/rescaled_final/0699_fw.mp4	0.0	110.4261531829834	
11	88.00454831123352	fix_post	2		12	9.0	2.5	/experiments/Knapen_AOT/AOT_stimuli/rescaled_final/0699_fw.mp4	0.0	111.74313378334045	0.10005879402160645
12	88.10460710525513	fix_pre	0		120	10.0	2.5	/experiments/Knapen_AOT/AOT_stimuli/rescaled_final/0978_fw.mp4	0.0	111.84319257736206	1.0084607601165771
12	88.28820395469666	pulse	0	t		10.0	2.5	/experiments/Knapen_AOT/AOT_stimuli/rescaled_final/0978_fw.mp4	0.0	112.02678942680359	
12	89.1130678653717	movie	1		285	10.0	2.5	/experiments/Knapen_AOT/AOT_stimuli/rescaled_final/0978_fw.mp4	0.0	112.85165333747864	2.4920477867126465
12	89.88763523101807	pulse	1	t		10.0	2.5	/experiments/Knapen_AOT/AOT_stimuli/rescaled_final/0978_fw.mp4	0.0	113.626220703125	
12	91.48655343055725	pulse	1	t		10.0	2.5	/experiments/Knapen_AOT/AOT_stimuli/rescaled_final/0978_fw.mp4	0.0	115.22513890266418	
12	91.60511565208435	fix_post	2		12	10.0	2.5	/experiments/Knapen_AOT/AOT_stimuli/rescaled_final/0978_fw.mp4	0.0	115.34370112419128	0.0999913215637207
13	91.70510697364807	fix_pre	0		120	11.0	2.5	/experiments/Knapen_AOT/AOT_stimuli/rescaled_final/1841_fw.mp4	0.0	115.443692445755	1.0085093975067139
13	92.71361637115479	movie	1		278	11.0	2.5	/experiments/Knapen_AOT/AOT_stimuli/rescaled_final/1841_fw.mp4	0.0	116.45220184326172	2.492049217224121
13	93.08693218231201	pulse	1	t		11.0	2.5	/experiments/Knapen_AOT/AOT_stimuli/rescaled_final/1841_fw.mp4	0.0	116.82551765441895	
13	94.68684124946594	pulse	1	t		11.0	2.5	/experiments/Knapen_AOT/AOT_stimuli/rescaled_final/1841_fw.mp4	0.0	118.42542672157288	
13	95.2056655883789	fix_post	2		12	11.0	2.5	/experiments/Knapen_AOT/AOT_stimuli/rescaled_final/1841_fw.mp4	0.0	118.94425106048584	0.10015201568603516
14	95.30581760406494	fix_pre	0		119	12.0	2.5	/experiments/Knapen_AOT/AOT_stimuli/rescaled_final/1729_fw.mp4	0.0	119.04440307617188	1.000006914138794
14	96.28938603401184	pulse	0	t		12.0	2.5	/experiments/Knapen_AOT/AOT_stimuli/rescaled_final/1729_fw.mp4	0.0	120.02797150611877	
14	96.30582451820374	movie	1		272	12.0	2.5	/experiments/Knapen_AOT/AOT_stimuli/rescaled_final/1729_fw.mp4	0.0	120.04440999031067	2.5003390312194824
14	97.88818001747131	pulse	1	t		12.0	2.5	/experiments/Knapen_AOT/AOT_stimuli/rescaled_final/1729_fw.mp4	0.0	121.62676548957825	
14	98.80616354942322	fix_post	2		12	12.0	2.5	/experiments/Knapen_AOT/AOT_stimuli/rescaled_final/1729_fw.mp4	0.0	122.54474902153015	0.10006427764892578
15	98.90622782707214	fix_pre	0		120	13.0	2.5	/experiments/Knapen_AOT/AOT_stimuli/rescaled_final/1610_fw.mp4	0.0	122.64481329917908	1.0084669589996338
15	99.4898293018341	pulse	0	t		13.0	2.5	/experiments/Knapen_AOT/AOT_stimuli/rescaled_final/1610_fw.mp4	0.0	123.22841477394104	
15	99.91469478607178	movie	1		273	13.0	2.5	/experiments/Knapen_AOT/AOT_stimuli/rescaled_final/1610_fw.mp4	0.0	123.65328025817871	2.4920201301574707
15	101.08805656433105	pulse	1	t		13.0	2.5	/experiments/Knapen_AOT/AOT_stimuli/rescaled_final/1610_fw.mp4	0.0	124.82664203643799	
15	102.40671491622925	fix_post	2		12	13.0	2.5	/experiments/Knapen_AOT/AOT_stimuli/rescaled_final/1610_fw.mp4	0.0	126.14530038833618	0.10009884834289551
16	102.50681376457214	fix_pre	0		120	14.0	2.5	blank	1.0	126.24539923667908	1.0000762939453125
16	102.690349817276	pulse	0	t		14.0	2.5	blank	1.0	126.42893528938293	
16	103.50689005851746	movie	1		300	14.0	2.5	blank	1.0	127.24547553062439	2.500386953353882
16	104.29056143760681	pulse	1	t		14.0	2.5	blank	1.0	128.02914690971375	
16	105.89087915420532	pulse	1	t		14.0	2.5	blank	1.0	129.62946462631226	
16	106.00727701187134	fix_post	2		12	14.0	2.5	blank	1.0	129.74586248397827	0.09999704360961914
17	106.10727405548096	fix_pre	0		120	15.0	2.5	/experiments/Knapen_AOT/AOT_stimuli/rescaled_final/1160_rv.mp4	0.0	129.8458595275879	1.0084927082061768
17	107.11576676368713	movie	1		272	15.0	2.5	/experiments/Knapen_AOT/AOT_stimuli/rescaled_final/1160_rv.mp4	0.0	130.85435223579407	2.492093086242676
17	107.48966240882874	pulse	1	t		15.0	2.5	/experiments/Knapen_AOT/AOT_stimuli/rescaled_final/1160_rv.mp4	0.0	131.22824788093567	
17	109.08961963653564	pulse	1	t		15.0	2.5	/experiments/Knapen_AOT/AOT_stimuli/rescaled_final/1160_rv.mp4	0.0	132.82820510864258	
17	109.60785984992981	fix_post	2		12	15.0	2.5	/experiments/Knapen_AOT/AOT_stimuli/rescaled_final/1160_rv.mp4	0.0	133.34644532203674	0.09995603561401367
18	109.70781588554382	fix_pre	0		119	16.0	2.5	/experiments/Knapen_AOT/AOT_stimuli/rescaled_final/0978_rv.mp4	0.0	133.44640135765076	1.0001857280731201
18	110.69160461425781	pulse	0	t		16.0	2.5	/experiments/Knapen_AOT/AOT_stimuli/rescaled_final/0978_rv.mp4	0.0	134.43019008636475	
18	110.70800161361694	movie	1		281	16.0	2.5	/experiments/Knapen_AOT/AOT_stimuli/rescaled_final/0978_rv.mp4	0.0	134.44658708572388	2.500337600708008
18	112.29037880897522	pulse	1	t		16.0	2.5	/experiments/Knapen_AOT/AOT_stimuli/rescaled_final/0978_rv.mp4	0.0	136.02896428108215	
18	113.20833921432495	fix_post	2		12	16.0	2.5	/experiments/Knapen_AOT/AOT_stimuli/rescaled_final/0978_rv.mp4	0.0	136.94692468643188	0.1000216007232666
19	113.30836081504822	fix_pre	0		120	17.0	2.5	/experiments/Knapen_AOT/AOT_stimuli/rescaled_final/0642_fw.mp4	0.0	137.04694628715515	1.0085046291351318
19	113.8841826915741	pulse	0	t		17.0	2.5	/experiments/Knapen_AOT/AOT_stimuli/rescaled_final/0642_fw.mp4	0.0	137.62276816368103	
19	114.31686544418335	movie	1		281	17.0	2.5	/experiments/Knapen_AOT/AOT_stimuli/rescaled_final/0642_fw.mp4	0.0	138.05545091629028	2.4920003414154053
19	115.48411464691162	pulse	1	t		17.0	2.5	/experiments/Knapen_AOT/AOT_stimuli/rescaled_final/0642_fw.mp4	0.0	139.22270011901855	
19	116.80886578559875	fix_post	2		12	17.0	2.5	/experiments/Knapen_AOT/AOT_stimuli/rescaled_final/0642_fw.mp4	0.0	140.5474512577057	0.10003066062927246
20	116.90889644622803	fix_pre	0		120	18.0	2.5	/experiments/Knapen_AOT/AOT_stimuli/rescaled_final/0038_rv.mp4	0.0	140.64748191833496	1.0085201263427734
20	117.08428311347961	pulse	0	t		18.0	2.5	/experiments/Knapen_AOT/AOT_stimuli/rescaled_final/0038_rv.mp4	0.0	140.82286858558655	
20	117.9174165725708	movie	1		287	18.0	2.5	/experiments/Knapen_AOT/AOT_stimuli/rescaled_final/0038_rv.mp4	0.0	141.65600204467773	2.5003578662872314
20	118.68446254730225	pulse	1	t		18.0	2.5	/experiments/Knapen_AOT/AOT_stimuli/rescaled_final/0038_rv.mp4	0.0	142.42304801940918	
20	120.28480052947998	pulse	1	t		18.0	2.5	/experiments/Knapen_AOT/AOT_stimuli/rescaled_final/0038_rv.mp4	0.0	144.0233860015869	
20	120.41777443885803	fix_post	2		11	18.0	2.5	/experiments/Knapen_AOT/AOT_stimuli/rescaled_final/0038_rv.mp4	0.0	144.15635991096497	0.09165525436401367
21	120.50942969322205	fix_pre	0		120	19.0	2.5	/experiments/Knapen_AOT/AOT_stimuli/rescaled_final/1197_fw.mp4	0.0	144.24801516532898	1.0085430145263672
21	121.51797270774841	movie	1		285	19.0	2.5	/experiments/Knapen_AOT/AOT_stimuli/rescaled_final/1197_fw.mp4	0.0	145.25655817985535	2.492021322250366
21	121.88552236557007	pulse	1	t		19.0	2.5	/experiments/Knapen_AOT/AOT_stimuli/rescaled_final/1197_fw.mp4	0.0	145.624107837677	
21	123.48504662513733	pulse	1	t		19.0	2.5	/experiments/Knapen_AOT/AOT_stimuli/rescaled_final/1197_fw.mp4	0.0	147.22363209724426	
21	124.00999402999878	fix_post	2		12	19.0	2.5	/experiments/Knapen_AOT/AOT_stimuli/rescaled_final/1197_fw.mp4	0.0	147.7485795021057	0.09999537467956543
22	124.10998940467834	fix_pre	0		118	20.0	2.5	/experiments/Knapen_AOT/AOT_stimuli/rescaled_final/1944_rv.mp4	0.0	147.84857487678528	0.9919273853302002
22	125.08530759811401	pulse	0	t		20.0	2.5	/experiments/Knapen_AOT/AOT_stimuli/rescaled_final/1944_rv.mp4	0.0	148.82389307022095	
22	125.10191679000854	movie	1		277	20.0	2.5	/experiments/Knapen_AOT/AOT_stimuli/rescaled_final/1944_rv.mp4	0.0	148.84050226211548	2.500284194946289
22	126.68502926826477	pulse	1	t		20.0	2.5	/experiments/Knapen_AOT/AOT_stimuli/rescaled_final/1944_rv.mp4	0.0	150.4236147403717	
22	127.60220098495483	fix_post	2		12	20.0	2.5	/experiments/Knapen_AOT/AOT_stimuli/rescaled_final/1944_rv.mp4	0.0	151.34078645706177	0.09998202323913574
23	127.70218300819397	fix_pre	0		120	21.0	2.5	blank	1.0	151.4407684803009	1.0001471042633057
23	128.2857780456543	pulse	0	t		21.0	2.5	blank	1.0	152.02436351776123	
23	128.70233011245728	movie	1		300	21.0	2.5	blank	1.0	152.4409155845642	2.5004138946533203
23	129.8860740661621	pulse	1	t		21.0	2.5	blank	1.0	153.62465953826904	
23	131.2027440071106	fix_post	2		12	21.0	2.5	blank	1.0	154.94132947921753	0.10006833076477051
24	131.30281233787537	fix_pre	0		120	22.0	2.5	/experiments/Knapen_AOT/AOT_stimuli/rescaled_final/0695_fw.mp4	0.0	155.0413978099823	1.0084316730499268
24	131.48629784584045	pulse	0	t		22.0	2.5	/experiments/Knapen_AOT/AOT_stimuli/rescaled_final/0695_fw.mp4	0.0	155.2248833179474	
24	132.3112440109253	movie	1		266	22.0	2.5	/experiments/Knapen_AOT/AOT_stimuli/rescaled_final/0695_fw.mp4	0.0	156.04982948303223	2.492001533508301
24	133.08473134040833	pulse	1	t		22.0	2.5	/experiments/Knapen_AOT/AOT_stimuli/rescaled_final/0695_fw.mp4	0.0	156.82331681251526	
24	134.68529796600342	pulse	1	t		22.0	2.5	/experiments/Knapen_AOT/AOT_stimuli/rescaled_final/0695_fw.mp4	0.0	158.42388343811035	
24	134.8032455444336	fix_post	2		12	22.0	2.5	/experiments/Knapen_AOT/AOT_stimuli/rescaled_final/0695_fw.mp4	0.0	158.54183101654053	0.10002636909484863
25	134.90327191352844	fix_pre	0		120	23.0	2.5	/experiments/Knapen_AOT/AOT_stimuli/rescaled_final/1710_fw.mp4	0.0	158.64185738563538	1.0085337162017822
25	135.91180562973022	movie	1		289	23.0	2.5	/experiments/Knapen_AOT/AOT_stimuli/rescaled_final/1710_fw.mp4	0.0	159.65039110183716	2.4920222759246826
25	136.28717827796936	pulse	1	t		23.0	2.5	/experiments/Knapen_AOT/AOT_stimuli/rescaled_final/1710_fw.mp4	0.0	160.0257637500763	
25	137.885347366333	pulse	1	t		23.0	2.5	/experiments/Knapen_AOT/AOT_stimuli/rescaled_final/1710_fw.mp4	0.0	161.62393283843994	
25	138.4038279056549	fix_post	2		12	23.0	2.5	/experiments/Knapen_AOT/AOT_stimuli/rescaled_final/1710_fw.mp4	0.0	162.14241337776184	0.10000753402709961
26	138.503835439682	fix_pre	0		119	24.0	2.5	/experiments/Knapen_AOT/AOT_stimuli/rescaled_final/1690_fw.mp4	0.0	162.24242091178894	1.0085484981536865
26	139.48754167556763	pulse	0	t		24.0	2.5	/experiments/Knapen_AOT/AOT_stimuli/rescaled_final/1690_fw.mp4	0.0	163.22612714767456	
26	139.5123839378357	movie	1		276	24.0	2.5	/experiments/Knapen_AOT/AOT_stimuli/rescaled_final/1690_fw.mp4	0.0	163.25096940994263	2.491980791091919
26	141.08642506599426	pulse	1	t		24.0	2.5	/experiments/Knapen_AOT/AOT_stimuli/rescaled_final/1690_fw.mp4	0.0	164.8250105381012	
26	142.0043647289276	fix_post	2		12	24.0	2.5	/experiments/Knapen_AOT/AOT_stimuli/rescaled_final/1690_fw.mp4	0.0	165.74295020103455	0.10002374649047852
27	142.1043884754181	fix_pre	0		120	25.0	2.5	/experiments/Knapen_AOT/AOT_stimuli/rescaled_final/0191_rv.mp4	0.0	165.84297394752502	1.0085475444793701
27	142.6880190372467	pulse	0	t		25.0	2.5	/experiments/Knapen_AOT/AOT_stimuli/rescaled_final/0191_rv.mp4	0.0	166.42660450935364	
27	143.11293601989746	movie	1		285	25.0	2.5	/experiments/Knapen_AOT/AOT_stimuli/rescaled_final/0191_rv.mp4	0.0	166.8515214920044	2.4920198917388916
27	144.28687286376953	pulse	1	t		25.0	2.5	/experiments/Knapen_AOT/AOT_stimuli/rescaled_final/0191_rv.mp4	0.0	168.02545833587646	
27	145.60495591163635	fix_post	2		12	25.0	2.5	/experiments/Knapen_AOT/AOT_stimuli/rescaled_final/0191_rv.mp4	0.0	169.3435413837433	0.09994983673095703
28	145.7049057483673	fix_pre	0		120	26.0	2.5	blank	1.0	169.44349122047424	1.00018310546875
28	145.888512134552	pulse	0	t		26.0	2.5	blank	1.0	169.62709760665894	
28	146.70508885383606	movie	1		300	26.0	2.5	blank	1.0	170.443674325943	2.5003576278686523
28	147.48868680000305	pulse	1	t		26.0	2.5	blank	1.0	171.22727227210999	
28	149.08919382095337	pulse	1	t		26.0	2.5	blank	1.0	172.8277792930603	
28	149.2054464817047	fix_post	2		12	26.0	2.5	blank	1.0	172.94403195381165	0.09999251365661621
29	149.30543899536133	fix_pre	0		120	27.0	2.5	/experiments/Knapen_AOT/AOT_stimuli/rescaled_final/0056_fw.mp4	0.0	173.04402446746826	1.0084855556488037
29	150.31392455101013	movie	1		276	27.0	2.5	/experiments/Knapen_AOT/AOT_stimuli/rescaled_final/0056_fw.mp4	0.0	174.05251002311707	2.49204158782959
29	150.68731474876404	pulse	1	t		27.0	2.5	/experiments/Knapen_AOT/AOT_stimuli/rescaled_final/0056_fw.mp4	0.0	174.42590022087097	
29	152.28874135017395	pulse	1	t		27.0	2.5	/experiments/Knapen_AOT/AOT_stimuli/rescaled_final/0056_fw.mp4	0.0	176.02732682228088	
29	152.80596613883972	fix_post	2		12	27.0	2.5	/experiments/Knapen_AOT/AOT_stimuli/rescaled_final/0056_fw.mp4	0.0	176.54455161094666	0.10001945495605469
30	152.90598559379578	fix_pre	0		119	28.0	2.5	/experiments/Knapen_AOT/AOT_stimuli/rescaled_final/0440_fw.mp4	0.0	176.6445710659027	1.0001657009124756
30	153.88964223861694	pulse	0	t		28.0	2.5	/experiments/Knapen_AOT/AOT_stimuli/rescaled_final/0440_fw.mp4	0.0	177.62822771072388	
30	153.90615129470825	movie	1		293	28.0	2.5	/experiments/Knapen_AOT/AOT_stimuli/rescaled_final/0440_fw.mp4	0.0	177.64473676681519	2.5003459453582764
30	155.4887866973877	pulse	1	t		28.0	2.5	/experiments/Knapen_AOT/AOT_stimuli/rescaled_final/0440_fw.mp4	0.0	179.22737216949463	
30	156.40649724006653	fix_post	2		12	28.0	2.5	/experiments/Knapen_AOT/AOT_stimuli/rescaled_final/0440_fw.mp4	0.0	180.14508271217346	0.10002493858337402
31	156.5065221786499	fix_pre	0		120	29.0	2.5	/experiments/Knapen_AOT/AOT_stimuli/rescaled_final/0354_fw.mp4	0.0	180.24510765075684	1.0085196495056152
31	157.09027576446533	pulse	0	t		29.0	2.5	/experiments/Knapen_AOT/AOT_stimuli/rescaled_final/0354_fw.mp4	0.0	180.82886123657227	
31	157.51504182815552	movie	1		281	29.0	2.5	/experiments/Knapen_AOT/AOT_stimuli/rescaled_final/0354_fw.mp4	0.0	181.25362730026245	2.4921700954437256
31	158.68830919265747	pulse	1	t		29.0	2.5	/experiments/Knapen_AOT/AOT_stimuli/rescaled_final/0354_fw.mp4	0.0	182.4268946647644	
31	160.00721192359924	fix_post	2		12	29.0	2.5	/experiments/Knapen_AOT/AOT_stimuli/rescaled_final/0354_fw.mp4	0.0	183.74579739570618	0.09985542297363281
32	160.10706734657288	fix_pre	0		120	30.0	2.5	/experiments/Knapen_AOT/AOT_stimuli/rescaled_final/0087_fw.mp4	0.0	183.8456528186798	1.008488655090332
32	160.29061460494995	pulse	0	t		30.0	2.5	/experiments/Knapen_AOT/AOT_stimuli/rescaled_final/0087_fw.mp4	0.0	184.02920007705688	
32	161.1155560016632	movie	1		285	30.0	2.5	/experiments/Knapen_AOT/AOT_stimuli/rescaled_final/0087_fw.mp4	0.0	184.85414147377014	2.4920263290405273
32	161.88888001441956	pulse	1	t		30.0	2.5	/experiments/Knapen_AOT/AOT_stimuli/rescaled_final/0087_fw.mp4	0.0	185.6274654865265	
32	163.48938465118408	pulse	1	t		30.0	2.5	/experiments/Knapen_AOT/AOT_stimuli/rescaled_final/0087_fw.mp4	0.0	187.22797012329102	
32	163.60758233070374	fix_post	2		12	30.0	2.5	/experiments/Knapen_AOT/AOT_stimuli/rescaled_final/0087_fw.mp4	0.0	187.34616780281067	0.1000211238861084
33	163.70760345458984	fix_pre	0		120	31.0	2.5	/experiments/Knapen_AOT/AOT_stimuli/rescaled_final/1362_rv.mp4	0.0	187.44618892669678	1.0085453987121582
33	164.716148853302	movie	1		280	31.0	2.5	/experiments/Knapen_AOT/AOT_stimuli/rescaled_final/1362_rv.mp4	0.0	188.45473432540894	2.4919867515563965
33	165.09178471565247	pulse	1	t		31.0	2.5	/experiments/Knapen_AOT/AOT_stimuli/rescaled_final/1362_rv.mp4	0.0	188.8303701877594	
33	166.689786195755	pulse	1	t		31.0	2.5	/experiments/Knapen_AOT/AOT_stimuli/rescaled_final/1362_rv.mp4	0.0	190.42837166786194	
33	167.2081356048584	fix_post	2		12	31.0	2.5	/experiments/Knapen_AOT/AOT_stimuli/rescaled_final/1362_rv.mp4	0.0	190.94672107696533	0.10002899169921875
34	167.30816459655762	fix_pre	0		119	32.0	2.5	/experiments/Knapen_AOT/AOT_stimuli/rescaled_final/0579_rv.mp4	0.0	191.04675006866455	1.0086071491241455
34	168.29189562797546	pulse	0	t		32.0	2.5	/experiments/Knapen_AOT/AOT_stimuli/rescaled_final/0579_rv.mp4	0.0	192.0304811000824	
34	168.31677174568176	movie	1		287	32.0	2.5	/experiments/Knapen_AOT/AOT_stimuli/rescaled_final/0579_rv.mp4	0.0	192.0553572177887	2.4919183254241943
34	169.89255905151367	pulse	1	t		32.0	2.5	/experiments/Knapen_AOT/AOT_stimuli/rescaled_final/0579_rv.mp4	0.0	193.6311445236206	
34	170.80869007110596	fix_post	2		12	32.0	2.5	/experiments/Knapen_AOT/AOT_stimuli/rescaled_final/0579_rv.mp4	0.0	194.5472755432129	0.09999537467956543
35	170.90868544578552	fix_pre	0		120	33.0	2.5	blank	1.0	194.64727091789246	1.0001463890075684
35	171.48439693450928	pulse	0	t		33.0	2.5	blank	1.0	195.2229824066162	
35	171.9088318347931	movie	1		300	33.0	2.5	blank	1.0	195.64741730690002	2.500370979309082
35	173.084557056427	pulse	1	t		33.0	2.5	blank	1.0	196.82314252853394	
35	174.40920281410217	fix_post	2		12	33.0	2.5	blank	1.0	198.1477882862091	0.10003280639648438
36	174.50923562049866	fix_pre	0		120	34.0	2.5	/experiments/Knapen_AOT/AOT_stimuli/rescaled_final/0486_rv.mp4	0.0	198.2478210926056	1.0086414813995361
36	174.6845030784607	pulse	0	t		34.0	2.5	/experiments/Knapen_AOT/AOT_stimuli/rescaled_final/0486_rv.mp4	0.0	198.42308855056763	
36	175.5178771018982	movie	1		281	34.0	2.5	/experiments/Knapen_AOT/AOT_stimuli/rescaled_final/0486_rv.mp4	0.0	199.25646257400513	2.4918711185455322
36	176.28475904464722	pulse	1	t		34.0	2.5	/experiments/Knapen_AOT/AOT_stimuli/rescaled_final/0486_rv.mp4	0.0	200.02334451675415	
36	177.8854329586029	pulse	1	t		34.0	2.5	/experiments/Knapen_AOT/AOT_stimuli/rescaled_final/0486_rv.mp4	0.0	201.62401843070984	
36	178.00974822044373	fix_post	2		12	34.0	2.5	/experiments/Knapen_AOT/AOT_stimuli/rescaled_final/0486_rv.mp4	0.0	201.74833369255066	0.10005593299865723
37	178.10980415344238	fix_pre	0		120	35.0	2.5	/experiments/Knapen_AOT/AOT_stimuli/rescaled_final/0286_fw.mp4	0.0	201.84838962554932	1.0084538459777832
37	179.11825799942017	movie	1		276	35.0	2.5	/experiments/Knapen_AOT/AOT_stimuli/rescaled_final/0286_fw.mp4	0.0	202.8568434715271	2.4920475482940674
37	179.48520135879517	pulse	1	t		35.0	2.5	/experiments/Knapen_AOT/AOT_stimuli/rescaled_final/0286_fw.mp4	0.0	203.2237868309021	
37	181.0854148864746	pulse	1	t		35.0	2.5	/experiments/Knapen_AOT/AOT_stimuli/rescaled_final/0286_fw.mp4	0.0	204.82400035858154	
37	181.61030554771423	fix_post	2		12	35.0	2.5	/experiments/Knapen_AOT/AOT_stimuli/rescaled_final/0286_fw.mp4	0.0	205.34889101982117	0.10001969337463379
38	181.71032524108887	fix_pre	0		118	36.0	2.5	/experiments/Knapen_AOT/AOT_stimuli/rescaled_final/0338_fw.mp4	0.0	205.4489107131958	0.9918267726898193
38	182.68588972091675	pulse	0	t		36.0	2.5	/experiments/Knapen_AOT/AOT_stimuli/rescaled_final/0338_fw.mp4	0.0	206.42447519302368	
38	182.7021520137787	movie	1		268	36.0	2.5	/experiments/Knapen_AOT/AOT_stimuli/rescaled_final/0338_fw.mp4	0.0	206.44073748588562	2.50038480758667
38	184.28595161437988	pulse	1	t		36.0	2.5	/experiments/Knapen_AOT/AOT_stimuli/rescaled_final/0338_fw.mp4	0.0	208.02453708648682	
38	185.20253682136536	fix_post	2		12	36.0	2.5	/experiments/Knapen_AOT/AOT_stimuli/rescaled_final/0338_fw.mp4	0.0	208.9411222934723	0.0999915599822998
39	185.30252838134766	fix_pre	0		120	37.0	2.5	/experiments/Knapen_AOT/AOT_stimuli/rescaled_final/0394_rv.mp4	0.0	209.0411138534546	1.0084950923919678
39	185.88618063926697	pulse	0	t		37.0	2.5	/experiments/Knapen_AOT/AOT_stimuli/rescaled_final/0394_rv.mp4	0.0	209.6247661113739	
39	186.31102347373962	movie	1		277	37.0	2.5	/experiments/Knapen_AOT/AOT_stimuli/rescaled_final/0394_rv.mp4	0.0	210.04960894584656	2.492213010787964
39	187.48442459106445	pulse	1	t		37.0	2.5	/experiments/Knapen_AOT/AOT_stimuli/rescaled_final/0394_rv.mp4	0.0	211.2230100631714	
39	188.8032364845276	fix_post	2		12	37.0	2.5	/experiments/Knapen_AOT/AOT_stimuli/rescaled_final/0394_rv.mp4	0.0	212.54182195663452	0.09981989860534668
40	188.90305638313293	fix_pre	0		120	38.0	2.5	/experiments/Knapen_AOT/AOT_stimuli/rescaled_final/0910_fw.mp4	0.0	212.64164185523987	1.0086414813995361
40	189.0866298675537	pulse	0	t		38.0	2.5	/experiments/Knapen_AOT/AOT_stimuli/rescaled_final/0910_fw.mp4	0.0	212.82521533966064	
40	189.91169786453247	movie	1		282	38.0	2.5	/experiments/Knapen_AOT/AOT_stimuli/rescaled_final/0910_fw.mp4	0.0	213.6502833366394	2.491939067840576
40	190.68831753730774	pulse	1	t		38.0	2.5	/experiments/Knapen_AOT/AOT_stimuli/rescaled_final/0910_fw.mp4	0.0	214.42690300941467	
40	192.28523755073547	pulse	1	t		38.0	2.5	/experiments/Knapen_AOT/AOT_stimuli/rescaled_final/0910_fw.mp4	0.0	216.0238230228424	
40	192.40363693237305	fix_post	2		12	38.0	2.5	/experiments/Knapen_AOT/AOT_stimuli/rescaled_final/0910_fw.mp4	0.0	216.14222240447998	0.10001921653747559
41	192.50365614891052	fix_pre	0		120	39.0	2.5	/experiments/Knapen_AOT/AOT_stimuli/rescaled_final/0602_fw.mp4	0.0	216.24224162101746	1.0084161758422852
41	193.5120723247528	movie	1		277	39.0	2.5	/experiments/Knapen_AOT/AOT_stimuli/rescaled_final/0602_fw.mp4	0.0	217.25065779685974	2.492044687271118
41	193.88554286956787	pulse	1	t		39.0	2.5	/experiments/Knapen_AOT/AOT_stimuli/rescaled_final/0602_fw.mp4	0.0	217.6241283416748	
41	195.4858694076538	pulse	1	t		39.0	2.5	/experiments/Knapen_AOT/AOT_stimuli/rescaled_final/0602_fw.mp4	0.0	219.22445487976074	
41	196.00411701202393	fix_post	2		12	39.0	2.5	/experiments/Knapen_AOT/AOT_stimuli/rescaled_final/0602_fw.mp4	0.0	219.74270248413086	0.10007452964782715
42	196.10419154167175	fix_pre	0		119	40.0	2.5	blank	1.0	219.8427770137787	0.991750955581665
42	197.0879771709442	pulse	0	t		40.0	2.5	blank	1.0	220.82656264305115	
42	197.09594249725342	movie	1		301	40.0	2.5	blank	1.0	220.83452796936035	2.508751630783081
42	198.68806505203247	pulse	1	t		40.0	2.5	blank	1.0	222.4266505241394	
42	199.6046941280365	fix_post	2		12	40.0	2.5	blank	1.0	223.34327960014343	0.10010313987731934
43	199.70479726791382	fix_pre	0		120	41.0	2.5	/experiments/Knapen_AOT/AOT_stimuli/rescaled_final/1768_fw.mp4	0.0	223.44338274002075	1.0084435939788818
43	200.28828120231628	pulse	0	t		41.0	2.5	/experiments/Knapen_AOT/AOT_stimuli/rescaled_final/1768_fw.mp4	0.0	224.02686667442322	
43	200.7132408618927	movie	1		285	41.0	2.5	/experiments/Knapen_AOT/AOT_stimuli/rescaled_final/1768_fw.mp4	0.0	224.45182633399963	2.492009401321411
43	201.8868796825409	pulse	1	t		41.0	2.5	/experiments/Knapen_AOT/AOT_stimuli/rescaled_final/1768_fw.mp4	0.0	225.62546515464783	
43	203.2052502632141	fix_post	2		12	41.0	2.5	/experiments/Knapen_AOT/AOT_stimuli/rescaled_final/1768_fw.mp4	0.0	226.94383573532104	0.0999596118927002
44	203.3052098751068	fix_pre	0		120	42.0	2.5	/experiments/Knapen_AOT/AOT_stimuli/rescaled_final/0812_rv.mp4	0.0	227.04379534721375	1.0084846019744873
44	203.48879623413086	pulse	0	t		42.0	2.5	/experiments/Knapen_AOT/AOT_stimuli/rescaled_final/0812_rv.mp4	0.0	227.2273817062378	
44	204.3136944770813	movie	1		293	42.0	2.5	/experiments/Knapen_AOT/AOT_stimuli/rescaled_final/0812_rv.mp4	0.0	228.05227994918823	2.49208927154541
44	205.08770298957825	pulse	1	t		42.0	2.5	/experiments/Knapen_AOT/AOT_stimuli/rescaled_final/0812_rv.mp4	0.0	228.82628846168518	
44	206.68768000602722	pulse	1	t		42.0	2.5	/experiments/Knapen_AOT/AOT_stimuli/rescaled_final/0812_rv.mp4	0.0	230.42626547813416	
44	206.8057837486267	fix_post	2		12	42.0	2.5	/experiments/Knapen_AOT/AOT_stimuli/rescaled_final/0812_rv.mp4	0.0	230.54436922073364	0.10007858276367188
45	206.90586233139038	fix_pre	0		120	43.0	2.5	/experiments/Knapen_AOT/AOT_stimuli/rescaled_final/0746_fw.mp4	0.0	230.64444780349731	1.0083982944488525
45	207.91426062583923	movie	1		278	43.0	2.5	/experiments/Knapen_AOT/AOT_stimuli/rescaled_final/0746_fw.mp4	0.0	231.65284609794617	2.492025136947632
45	208.28788423538208	pulse	1	t		43.0	2.5	/experiments/Knapen_AOT/AOT_stimuli/rescaled_final/0746_fw.mp4	0.0	232.026469707489	
45	209.88769268989563	pulse	1	t		43.0	2.5	/experiments/Knapen_AOT/AOT_stimuli/rescaled_final/0746_fw.mp4	0.0	233.62627816200256	
45	210.40628576278687	fix_post	2		12	43.0	2.5	/experiments/Knapen_AOT/AOT_stimuli/rescaled_final/0746_fw.mp4	0.0	234.1448712348938	0.10004830360412598
46	210.506334066391	fix_pre	0		119	44.0	2.5	/experiments/Knapen_AOT/AOT_stimuli/rescaled_final/0907_fw.mp4	0.0	234.24491953849792	1.0085623264312744
46	211.49025535583496	pulse	0	t		44.0	2.5	/experiments/Knapen_AOT/AOT_stimuli/rescaled_final/0907_fw.mp4	0.0	235.2288408279419	
46	211.51489639282227	movie	1		285	44.0	2.5	/experiments/Knapen_AOT/AOT_stimuli/rescaled_final/0907_fw.mp4	0.0	235.2534818649292	2.491969585418701
46	213.08881545066833	pulse	1	t		44.0	2.5	/experiments/Knapen_AOT/AOT_stimuli/rescaled_final/0907_fw.mp4	0.0	236.82740092277527	
46	214.00686597824097	fix_post	2		12	44.0	2.5	/experiments/Knapen_AOT/AOT_stimuli/rescaled_final/0907_fw.mp4	0.0	237.7454514503479	0.10013818740844727
47	214.1070041656494	fix_pre	0		120	45.0	2.5	/experiments/Knapen_AOT/AOT_stimuli/rescaled_final/1531_fw.mp4	0.0	237.84558963775635	1.0083591938018799
47	214.6904547214508	pulse	0	t		45.0	2.5	/experiments/Knapen_AOT/AOT_stimuli/rescaled_final/1531_fw.mp4	0.0	238.42904019355774	
47	215.1153633594513	movie	1		277	45.0	2.5	/experiments/Knapen_AOT/AOT_stimuli/rescaled_final/1531_fw.mp4	0.0	238.85394883155823	2.4920053482055664
47	216.28910756111145	pulse	1	t		45.0	2.5	/experiments/Knapen_AOT/AOT_stimuli/rescaled_final/1531_fw.mp4	0.0	240.02769303321838	
47	217.60736870765686	fix_post	2		12	45.0	2.5	/experiments/Knapen_AOT/AOT_stimuli/rescaled_final/1531_fw.mp4	0.0	241.3459541797638	0.10002350807189941
48	217.70739221572876	fix_pre	0		120	46.0	2.5	/experiments/Knapen_AOT/AOT_stimuli/rescaled_final/1545_fw.mp4	0.0	241.4459776878357	1.0086126327514648
48	217.89097023010254	pulse	0	t		46.0	2.5	/experiments/Knapen_AOT/AOT_stimuli/rescaled_final/1545_fw.mp4	0.0	241.62955570220947	
48	218.71600484848022	movie	1		257	46.0	2.5	/experiments/Knapen_AOT/AOT_stimuli/rescaled_final/1545_fw.mp4	0.0	242.45459032058716	2.4919445514678955
48	219.48908305168152	pulse	1	t		46.0	2.5	/experiments/Knapen_AOT/AOT_stimuli/rescaled_final/1545_fw.mp4	0.0	243.22766852378845	
48	221.08962774276733	pulse	1	t		46.0	2.5	/experiments/Knapen_AOT/AOT_stimuli/rescaled_final/1545_fw.mp4	0.0	244.82821321487427	
48	221.20794939994812	fix_post	2		12	46.0	2.5	/experiments/Knapen_AOT/AOT_stimuli/rescaled_final/1545_fw.mp4	0.0	244.94653487205505	0.1000678539276123
49	221.30801725387573	fix_pre	0		120	47.0	2.5	/experiments/Knapen_AOT/AOT_stimuli/rescaled_final/1225_fw.mp4	0.0	245.04660272598267	1.008427619934082
49	222.31644487380981	movie	1		277	47.0	2.5	/experiments/Knapen_AOT/AOT_stimuli/rescaled_final/1225_fw.mp4	0.0	246.05503034591675	2.4921908378601074
49	222.69050550460815	pulse	1	t		47.0	2.5	/experiments/Knapen_AOT/AOT_stimuli/rescaled_final/1225_fw.mp4	0.0	246.4290909767151	
49	224.29227781295776	pulse	1	t		47.0	2.5	/experiments/Knapen_AOT/AOT_stimuli/rescaled_final/1225_fw.mp4	0.0	248.0308632850647	
49	224.80863571166992	fix_post	2		12	47.0	2.5	/experiments/Knapen_AOT/AOT_stimuli/rescaled_final/1225_fw.mp4	0.0	248.54722118377686	0.09982824325561523
50	224.90846395492554	fix_pre	0		119	48.0	2.5	/experiments/Knapen_AOT/AOT_stimuli/rescaled_final/1248_rv.mp4	0.0	248.64704942703247	1.0001564025878906
50	225.89222168922424	pulse	0	t		48.0	2.5	/experiments/Knapen_AOT/AOT_stimuli/rescaled_final/1248_rv.mp4	0.0	249.63080716133118	
50	225.90862035751343	movie	1		286	48.0	2.5	/experiments/Knapen_AOT/AOT_stimuli/rescaled_final/1248_rv.mp4	0.0	249.64720582962036	2.500406265258789
50	227.4910168647766	pulse	1	t		48.0	2.5	/experiments/Knapen_AOT/AOT_stimuli/rescaled_final/1248_rv.mp4	0.0	251.22960233688354	
50	228.40902662277222	fix_post	2		12	48.0	2.5	/experiments/Knapen_AOT/AOT_stimuli/rescaled_final/1248_rv.mp4	0.0	252.14761209487915	0.0999751091003418
51	228.50900173187256	fix_pre	0		120	49.0	2.5	blank	1.0	252.2475872039795	1.0001907348632812
51	229.08491683006287	pulse	0	t		49.0	2.5	blank	1.0	252.8235023021698	
51	229.50919246673584	movie	1		300	49.0	2.5	blank	1.0	253.24777793884277	2.500321626663208
51	230.68493509292603	pulse	1	t		49.0	2.5	blank	1.0	254.42352056503296	
51	232.00951409339905	fix_post	2		12	49.0	2.5	blank	1.0	255.74809956550598	0.10003137588500977
52	232.10954546928406	fix_pre	0		120	50.0	2.5	/experiments/Knapen_AOT/AOT_stimuli/rescaled_final/0012_rv.mp4	0.0	255.848130941391	1.008509635925293
52	232.28521609306335	pulse	0	t		50.0	2.5	/experiments/Knapen_AOT/AOT_stimuli/rescaled_final/0012_rv.mp4	0.0	256.0238015651703	
52	233.11805510520935	movie	1		282	50.0	2.5	/experiments/Knapen_AOT/AOT_stimuli/rescaled_final/0012_rv.mp4	0.0	256.8566405773163	2.4920616149902344
52	233.8852252960205	pulse	1	t		50.0	2.5	/experiments/Knapen_AOT/AOT_stimuli/rescaled_final/0012_rv.mp4	0.0	257.62381076812744	
52	235.48529767990112	pulse	1	t		50.0	2.5	/experiments/Knapen_AOT/AOT_stimuli/rescaled_final/0012_rv.mp4	0.0	259.22388315200806	
52	235.61011672019958	fix_post	2		12	50.0	2.5	/experiments/Knapen_AOT/AOT_stimuli/rescaled_final/0012_rv.mp4	0.0	259.3487021923065	0.1000514030456543
53	235.71016812324524	fix_pre	0		120	51.0	2.5	/experiments/Knapen_AOT/AOT_stimuli/rescaled_final/0579_rv.mp4	0.0	259.4487535953522	1.0083849430084229
53	236.71855306625366	movie	1		273	51.0	2.5	/experiments/Knapen_AOT/AOT_stimuli/rescaled_final/0579_rv.mp4	0.0	260.4571385383606	2.4920661449432373
53	237.08586812019348	pulse	1	t		51.0	2.5	/experiments/Knapen_AOT/AOT_stimuli/rescaled_final/0579_rv.mp4	0.0	260.8244535923004	
53	238.6858034133911	pulse	1	t		51.0	2.5	/experiments/Knapen_AOT/AOT_stimuli/rescaled_final/0579_rv.mp4	0.0	262.42438888549805	
53	239.2106192111969	fix_post	2		12	51.0	2.5	/experiments/Knapen_AOT/AOT_stimuli/rescaled_final/0579_rv.mp4	0.0	262.94920468330383	0.10000753402709961
54	239.310626745224	fix_pre	0		118	52.0	2.5	/experiments/Knapen_AOT/AOT_stimuli/rescaled_final/0165_rv.mp4	0.0	263.04921221733093	0.9918212890625
54	240.2860608100891	pulse	0	t		52.0	2.5	/experiments/Knapen_AOT/AOT_stimuli/rescaled_final/0165_rv.mp4	0.0	264.02464628219604	
54	240.3024480342865	movie	1		274	52.0	2.5	/experiments/Knapen_AOT/AOT_stimuli/rescaled_final/0165_rv.mp4	0.0	264.04103350639343	2.500438690185547
54	241.88574886322021	pulse	1	t		52.0	2.5	/experiments/Knapen_AOT/AOT_stimuli/rescaled_final/0165_rv.mp4	0.0	265.62433433532715	
54	242.80288672447205	fix_post	2		12	52.0	2.5	/experiments/Knapen_AOT/AOT_stimuli/rescaled_final/0165_rv.mp4	0.0	266.541472196579	0.10001873970031738
55	242.90290546417236	fix_pre	0		120	53.0	2.5	/experiments/Knapen_AOT/AOT_stimuli/rescaled_final/1298_fw.mp4	0.0	266.6414909362793	1.0084068775177002
55	243.48652386665344	pulse	0	t		53.0	2.5	/experiments/Knapen_AOT/AOT_stimuli/rescaled_final/1298_fw.mp4	0.0	267.2251093387604	
55	243.91131234169006	movie	1		281	53.0	2.5	/experiments/Knapen_AOT/AOT_stimuli/rescaled_final/1298_fw.mp4	0.0	267.649897813797	2.4920573234558105
55	245.08710837364197	pulse	1	t		53.0	2.5	/experiments/Knapen_AOT/AOT_stimuli/rescaled_final/1298_fw.mp4	0.0	268.8256938457489	
55	246.40336966514587	fix_post	2		12	53.0	2.5	/experiments/Knapen_AOT/AOT_stimuli/rescaled_final/1298_fw.mp4	0.0	270.1419551372528	0.10001730918884277
56	246.50338697433472	fix_pre	0		120	54.0	2.5	/experiments/Knapen_AOT/AOT_stimuli/rescaled_final/1908_fw.mp4	0.0	270.24197244644165	1.008561372756958
56	246.68688225746155	pulse	0	t		54.0	2.5	/experiments/Knapen_AOT/AOT_stimuli/rescaled_final/1908_fw.mp4	0.0	270.4254677295685	
56	247.51194834709167	movie	1		272	54.0	2.5	/experiments/Knapen_AOT/AOT_stimuli/rescaled_final/1908_fw.mp4	0.0	271.2505338191986	2.491943359375
56	248.28547716140747	pulse	1	t		54.0	2.5	/experiments/Knapen_AOT/AOT_stimuli/rescaled_final/1908_fw.mp4	0.0	272.0240626335144	
56	249.88597464561462	pulse	1	t		54.0	2.5	/experiments/Knapen_AOT/AOT_stimuli/rescaled_final/1908_fw.mp4	0.0	273.62456011772156	
56	250.00389170646667	fix_post	2		12	54.0	2.5	/experiments/Knapen_AOT/AOT_stimuli/rescaled_final/1908_fw.mp4	0.0	273.7424771785736	0.10003042221069336
57	250.10392212867737	fix_pre	0		120	55.0	2.5	/experiments/Knapen_AOT/AOT_stimuli/rescaled_final/0256_fw.mp4	0.0	273.8425076007843	1.0084877014160156
57	251.11240983009338	movie	1		283	55.0	2.5	/experiments/Knapen_AOT/AOT_stimuli/rescaled_final/0256_fw.mp4	0.0	274.8509953022003	2.4920425415039062
57	251.48613119125366	pulse	1	t		55.0	2.5	/experiments/Knapen_AOT/AOT_stimuli/rescaled_final/0256_fw.mp4	0.0	275.2247166633606	
57	253.08596968650818	pulse	1	t		55.0	2.5	/experiments/Knapen_AOT/AOT_stimuli/rescaled_final/0256_fw.mp4	0.0	276.8245551586151	
57	253.6044523715973	fix_post	2		12	55.0	2.5	/experiments/Knapen_AOT/AOT_stimuli/rescaled_final/0256_fw.mp4	0.0	277.3430378437042	0.10001754760742188
58	253.7044699192047	fix_pre	0		119	56.0	2.5	blank	1.0	277.44305539131165	0.9917593002319336
58	254.68819522857666	pulse	0	t		56.0	2.5	blank	1.0	278.4267807006836	
58	254.69622921943665	movie	1		301	56.0	2.5	blank	1.0	278.4348146915436	2.5087473392486572
58	256.28839588165283	pulse	1	t		56.0	2.5	blank	1.0	280.02698135375977	
58	257.2049765586853	fix_post	2		12	56.0	2.5	blank	1.0	280.94356203079224	0.10001659393310547
59	257.3049931526184	fix_pre	0		120	57.0	2.5	/experiments/Knapen_AOT/AOT_stimuli/rescaled_final/1298_rv.mp4	0.0	281.04357862472534	1.0085458755493164
59	257.88882303237915	pulse	0	t		57.0	2.5	/experiments/Knapen_AOT/AOT_stimuli/rescaled_final/1298_rv.mp4	0.0	281.6274085044861	
59	258.3135390281677	movie	1		270	57.0	2.5	/experiments/Knapen_AOT/AOT_stimuli/rescaled_final/1298_rv.mp4	0.0	282.05212450027466	2.4920077323913574
59	259.4883806705475	pulse	1	t		57.0	2.5	/experiments/Knapen_AOT/AOT_stimuli/rescaled_final/1298_rv.mp4	0.0	283.2269661426544	
59	260.8055467605591	fix_post	2		12	57.0	2.5	/experiments/Knapen_AOT/AOT_stimuli/rescaled_final/1298_rv.mp4	0.0	284.544132232666	0.09999728202819824
60	260.9055440425873	fix_pre	0		120	58.0	2.5	/experiments/Knapen_AOT/AOT_stimuli/rescaled_final/1565_fw.mp4	0.0	284.6441295146942	1.0084893703460693
60	261.0891423225403	pulse	0	t		58.0	2.5	/experiments/Knapen_AOT/AOT_stimuli/rescaled_final/1565_fw.mp4	0.0	284.8277277946472	
60	261.91403341293335	movie	1		286	58.0	2.5	/experiments/Knapen_AOT/AOT_stimuli/rescaled_final/1565_fw.mp4	0.0	285.6526188850403	2.492036819458008
60	262.6877019405365	pulse	1	t		58.0	2.5	/experiments/Knapen_AOT/AOT_stimuli/rescaled_final/1565_fw.mp4	0.0	286.42628741264343	
60	264.28781962394714	pulse	1	t		58.0	2.5	/experiments/Knapen_AOT/AOT_stimuli/rescaled_final/1565_fw.mp4	0.0	288.0264050960541	
60	264.40607023239136	fix_post	2		12	58.0	2.5	/experiments/Knapen_AOT/AOT_stimuli/rescaled_final/1565_fw.mp4	0.0	288.1446557044983	0.10008859634399414
61	264.50615882873535	fix_pre	0		120	59.0	2.5	/experiments/Knapen_AOT/AOT_stimuli/rescaled_final/2155_rv.mp4	0.0	288.2447443008423	1.0084495544433594
61	265.5146083831787	movie	1		273	59.0	2.5	/experiments/Knapen_AOT/AOT_stimuli/rescaled_final/2155_rv.mp4	0.0	289.25319385528564	2.4920241832733154
61	265.88875007629395	pulse	1	t		59.0	2.5	/experiments/Knapen_AOT/AOT_stimuli/rescaled_final/2155_rv.mp4	0.0	289.6273355484009	
61	267.48973059654236	pulse	1	t		59.0	2.5	/experiments/Knapen_AOT/AOT_stimuli/rescaled_final/2155_rv.mp4	0.0	291.2283160686493	
61	268.006632566452	fix_post	2		12	59.0	2.5	/experiments/Knapen_AOT/AOT_stimuli/rescaled_final/2155_rv.mp4	0.0	291.74521803855896	0.09999632835388184
62	268.1066288948059	fix_pre	0		119	60.0	2.5	/experiments/Knapen_AOT/AOT_stimuli/rescaled_final/1593_rv.mp4	0.0	291.84521436691284	1.000450849533081
62	269.0904309749603	pulse	0	t		60.0	2.5	/experiments/Knapen_AOT/AOT_stimuli/rescaled_final/1593_rv.mp4	0.0	292.82901644706726	
62	269.107079744339	movie	1		293	60.0	2.5	/experiments/Knapen_AOT/AOT_stimuli/rescaled_final/1593_rv.mp4	0.0	292.8456652164459	2.500136137008667
62	270.68904638290405	pulse	1	t		60.0	2.5	/experiments/Knapen_AOT/AOT_stimuli/rescaled_final/1593_rv.mp4	0.0	294.427631855011	
62	271.60721588134766	fix_post	2		12	60.0	2.5	/experiments/Knapen_AOT/AOT_stimuli/rescaled_final/1593_rv.mp4	0.0	295.3458013534546	0.0999455451965332
63	271.7071614265442	fix_pre	0		120	61.0	2.5	blank	1.0	295.4457468986511	1.000262975692749
63	272.29095244407654	pulse	0	t		61.0	2.5	blank	1.0	296.0295379161835	
63	272.70742440223694	movie	1		300	61.0	2.5	blank	1.0	296.4460098743439	2.5002479553222656
63	273.8910689353943	pulse	1	t		61.0	2.5	blank	1.0	297.6296544075012	
63	275.2076723575592	fix_post	2		12	61.0	2.5	blank	1.0	298.94625782966614	0.10003280639648438
64	275.3077051639557	fix_pre	0		120	62.0	2.5	/experiments/Knapen_AOT/AOT_stimuli/rescaled_final/1160_rv.mp4	0.0	299.0462906360626	1.008509874343872
64	275.49130964279175	pulse	0	t		62.0	2.5	/experiments/Knapen_AOT/AOT_stimuli/rescaled_final/1160_rv.mp4	0.0	299.2298951148987	
64	276.31621503829956	movie	1		283	62.0	2.5	/experiments/Knapen_AOT/AOT_stimuli/rescaled_final/1160_rv.mp4	0.0	300.0548005104065	2.4920215606689453
64	277.0893533229828	pulse	1	t		62.0	2.5	/experiments/Knapen_AOT/AOT_stimuli/rescaled_final/1160_rv.mp4	0.0	300.8279387950897	
64	278.6898498535156	pulse	1	t		62.0	2.5	/experiments/Knapen_AOT/AOT_stimuli/rescaled_final/1160_rv.mp4	0.0	302.42843532562256	
64	278.8082365989685	fix_post	2		12	62.0	2.5	/experiments/Knapen_AOT/AOT_stimuli/rescaled_final/1160_rv.mp4	0.0	302.54682207107544	0.10001254081726074
65	278.90824913978577	fix_pre	0		120	63.0	2.5	/experiments/Knapen_AOT/AOT_stimuli/rescaled_final/1998_fw.mp4	0.0	302.6468346118927	1.0084893703460693
65	279.91673851013184	movie	1		279	63.0	2.5	/experiments/Knapen_AOT/AOT_stimuli/rescaled_final/1998_fw.mp4	0.0	303.65532398223877	2.4920425415039062
65	280.290429353714	pulse	1	t		63.0	2.5	/experiments/Knapen_AOT/AOT_stimuli/rescaled_final/1998_fw.mp4	0.0	304.0290148258209	
65	281.890323638916	pulse	1	t		63.0	2.5	/experiments/Knapen_AOT/AOT_stimuli/rescaled_final/1998_fw.mp4	0.0	305.62890911102295	
65	282.40878105163574	fix_post	2		12	63.0	2.5	/experiments/Knapen_AOT/AOT_stimuli/rescaled_final/1998_fw.mp4	0.0	306.1473665237427	0.10005712509155273
66	282.5088381767273	fix_pre	0		118	64.0	2.5	/experiments/Knapen_AOT/AOT_stimuli/rescaled_final/1723_rv.mp4	0.0	306.24742364883423	0.9917478561401367
66	283.4843475818634	pulse	0	t		64.0	2.5	/experiments/Knapen_AOT/AOT_stimuli/rescaled_final/1723_rv.mp4	0.0	307.22293305397034	
66	283.50058603286743	movie	1		266	64.0	2.5	/experiments/Knapen_AOT/AOT_stimuli/rescaled_final/1723_rv.mp4	0.0	307.23917150497437	2.508932590484619
66	285.08455300331116	pulse	1	t		64.0	2.5	/experiments/Knapen_AOT/AOT_stimuli/rescaled_final/1723_rv.mp4	0.0	308.8231384754181	
66	286.00951862335205	fix_post	2		11	64.0	2.5	/experiments/Knapen_AOT/AOT_stimuli/rescaled_final/1723_rv.mp4	0.0	309.748104095459	0.09147953987121582
67	286.10099816322327	fix_pre	0		120	65.0	2.5	/experiments/Knapen_AOT/AOT_stimuli/rescaled_final/1161_rv.mp4	0.0	309.8395836353302	1.008500576019287
67	286.6846139431	pulse	0	t		65.0	2.5	/experiments/Knapen_AOT/AOT_stimuli/rescaled_final/1161_rv.mp4	0.0	310.4231994152069	
67	287.10949873924255	movie	1		283	65.0	2.5	/experiments/Knapen_AOT/AOT_stimuli/rescaled_final/1161_rv.mp4	0.0	310.8480842113495	2.492014169692993
67	288.285062789917	pulse	1	t		65.0	2.5	/experiments/Knapen_AOT/AOT_stimuli/rescaled_final/1161_rv.mp4	0.0	312.0236482620239	
67	289.60151290893555	fix_post	2		12	65.0	2.5	/experiments/Knapen_AOT/AOT_stimuli/rescaled_final/1161_rv.mp4	0.0	313.3400983810425	0.10001254081726074
68	289.7015254497528	fix_pre	0		120	66.0	2.5	/experiments/Knapen_AOT/AOT_stimuli/rescaled_final/0358_rv.mp4	0.0	313.44011092185974	1.0085246562957764
68	289.8851041793823	pulse	0	t		66.0	2.5	/experiments/Knapen_AOT/AOT_stimuli/rescaled_final/0358_rv.mp4	0.0	313.62368965148926	
68	290.7100501060486	movie	1		259	66.0	2.5	/experiments/Knapen_AOT/AOT_stimuli/rescaled_final/0358_rv.mp4	0.0	314.4486355781555	2.492003917694092
68	291.48547291755676	pulse	1	t		66.0	2.5	/experiments/Knapen_AOT/AOT_stimuli/rescaled_final/0358_rv.mp4	0.0	315.2240583896637	
68	293.0857982635498	pulse	1	t		66.0	2.5	/experiments/Knapen_AOT/AOT_stimuli/rescaled_final/0358_rv.mp4	0.0	316.82438373565674	
68	293.2020540237427	fix_post	2		12	66.0	2.5	/experiments/Knapen_AOT/AOT_stimuli/rescaled_final/0358_rv.mp4	0.0	316.9406394958496	0.1000216007232666
69	293.30207562446594	fix_pre	0		120	67.0	2.5	/experiments/Knapen_AOT/AOT_stimuli/rescaled_final/0358_fw.mp4	0.0	317.0406610965729	1.0084912776947021
69	294.31056690216064	movie	1		279	67.0	2.5	/experiments/Knapen_AOT/AOT_stimuli/rescaled_final/0358_fw.mp4	0.0	318.0491523742676	2.492023229598999
69	294.68592071533203	pulse	1	t		67.0	2.5	/experiments/Knapen_AOT/AOT_stimuli/rescaled_final/0358_fw.mp4	0.0	318.42450618743896	
69	296.2843430042267	pulse	1	t		67.0	2.5	/experiments/Knapen_AOT/AOT_stimuli/rescaled_final/0358_fw.mp4	0.0	320.0229284763336	
69	296.80259013175964	fix_post	2		12	67.0	2.5	/experiments/Knapen_AOT/AOT_stimuli/rescaled_final/0358_fw.mp4	0.0	320.5411756038666	0.10003018379211426
70	296.90262031555176	fix_pre	0		119	68.0	2.5	/experiments/Knapen_AOT/AOT_stimuli/rescaled_final/0290_fw.mp4	0.0	320.6412057876587	1.0001647472381592
70	297.886403799057	pulse	0	t		68.0	2.5	/experiments/Knapen_AOT/AOT_stimuli/rescaled_final/0290_fw.mp4	0.0	321.62498927116394	
70	297.9027850627899	movie	1		284	68.0	2.5	/experiments/Knapen_AOT/AOT_stimuli/rescaled_final/0290_fw.mp4	0.0	321.64137053489685	2.5003514289855957
70	299.4855737686157	pulse	1	t		68.0	2.5	/experiments/Knapen_AOT/AOT_stimuli/rescaled_final/0290_fw.mp4	0.0	323.22415924072266	
70	300.4031364917755	fix_post	2		12	68.0	2.5	/experiments/Knapen_AOT/AOT_stimuli/rescaled_final/0290_fw.mp4	0.0	324.14172196388245	0.10001420974731445
71	300.5031507015228	fix_pre	0		120	69.0	2.5	blank	1.0	324.24173617362976	1.000192403793335
71	301.086886882782	pulse	0	t		69.0	2.5	blank	1.0	324.8254723548889	
71	301.50334310531616	movie	1		300	69.0	2.5	blank	1.0	325.2419285774231	2.500335454940796
71	302.68725752830505	pulse	1	t		69.0	2.5	blank	1.0	326.425843000412	
71	304.00367856025696	fix_post	2		12	69.0	2.5	blank	1.0	327.7422640323639	0.10002803802490234
72	304.10370659828186	fix_pre	0		120	70.0	2.5	/experiments/Knapen_AOT/AOT_stimuli/rescaled_final/0432_rv.mp4	0.0	327.8422920703888	1.0085291862487793
72	304.28726744651794	pulse	0	t		70.0	2.5	/experiments/Knapen_AOT/AOT_stimuli/rescaled_final/0432_rv.mp4	0.0	328.0258529186249	
72	305.11223578453064	movie	1		279	70.0	2.5	/experiments/Knapen_AOT/AOT_stimuli/rescaled_final/0432_rv.mp4	0.0	328.8508212566376	2.492011070251465
72	305.8855130672455	pulse	1	t		70.0	2.5	/experiments/Knapen_AOT/AOT_stimuli/rescaled_final/0432_rv.mp4	0.0	329.6240985393524	
72	307.48612236976624	pulse	1	t		70.0	2.5	/experiments/Knapen_AOT/AOT_stimuli/rescaled_final/0432_rv.mp4	0.0	331.22470784187317	
72	307.6042468547821	fix_post	2		12	70.0	2.5	/experiments/Knapen_AOT/AOT_stimuli/rescaled_final/0432_rv.mp4	0.0	331.34283232688904	0.09999775886535645
73	307.70424461364746	fix_pre	0		120	71.0	2.5	/experiments/Knapen_AOT/AOT_stimuli/rescaled_final/1602_rv.mp4	0.0	331.4428300857544	1.0085513591766357
73	308.7127959728241	movie	1		268	71.0	2.5	/experiments/Knapen_AOT/AOT_stimuli/rescaled_final/1602_rv.mp4	0.0	332.45138144493103	2.49198579788208
73	309.0862956047058	pulse	1	t		71.0	2.5	/experiments/Knapen_AOT/AOT_stimuli/rescaled_final/1602_rv.mp4	0.0	332.82488107681274	
73	310.6868169307709	pulse	1	t		71.0	2.5	/experiments/Knapen_AOT/AOT_stimuli/rescaled_final/1602_rv.mp4	0.0	334.4254024028778	
73	311.2047817707062	fix_post	2		12	71.0	2.5	/experiments/Knapen_AOT/AOT_stimuli/rescaled_final/1602_rv.mp4	0.0	334.9433672428131	0.10022783279418945
74	311.30500960350037	fix_pre	0		119	72.0	2.5	/experiments/Knapen_AOT/AOT_stimuli/rescaled_final/1383_fw.mp4	0.0	335.0435950756073	0.9999892711639404
74	312.28858828544617	pulse	0	t		72.0	2.5	/experiments/Knapen_AOT/AOT_stimuli/rescaled_final/1383_fw.mp4	0.0	336.0271737575531	
74	312.3049988746643	movie	1		274	72.0	2.5	/experiments/Knapen_AOT/AOT_stimuli/rescaled_final/1383_fw.mp4	0.0	336.04358434677124	2.5003137588500977
74	313.88738489151	pulse	1	t		72.0	2.5	/experiments/Knapen_AOT/AOT_stimuli/rescaled_final/1383_fw.mp4	0.0	337.62597036361694	
74	314.8053126335144	fix_post	2		12	72.0	2.5	/experiments/Knapen_AOT/AOT_stimuli/rescaled_final/1383_fw.mp4	0.0	338.54389810562134	0.1000216007232666
75	314.90533423423767	fix_pre	0		120	73.0	2.5	/experiments/Knapen_AOT/AOT_stimuli/rescaled_final/1981_fw.mp4	0.0	338.6439197063446	1.008556604385376
75	315.48901557922363	pulse	0	t		73.0	2.5	/experiments/Knapen_AOT/AOT_stimuli/rescaled_final/1981_fw.mp4	0.0	339.22760105133057	
75	315.91389083862305	movie	1		264	73.0	2.5	/experiments/Knapen_AOT/AOT_stimuli/rescaled_final/1981_fw.mp4	0.0	339.65247631073	2.491976261138916
75	317.08797335624695	pulse	1	t		73.0	2.5	/experiments/Knapen_AOT/AOT_stimuli/rescaled_final/1981_fw.mp4	0.0	340.8265588283539	
75	318.40586709976196	fix_post	2		12	73.0	2.5	/experiments/Knapen_AOT/AOT_stimuli/rescaled_final/1981_fw.mp4	0.0	342.1444525718689	0.10021376609802246
76	318.50608086586	fix_pre	0		120	74.0	2.5	/experiments/Knapen_AOT/AOT_stimuli/rescaled_final/0359_rv.mp4	0.0	342.2446663379669	1.0082862377166748
76	318.68978357315063	pulse	0	t		74.0	2.5	/experiments/Knapen_AOT/AOT_stimuli/rescaled_final/0359_rv.mp4	0.0	342.42836904525757	
76	319.51436710357666	movie	1		267	74.0	2.5	/experiments/Knapen_AOT/AOT_stimuli/rescaled_final/0359_rv.mp4	0.0	343.2529525756836	2.492025136947632
76	320.2881212234497	pulse	1	t		74.0	2.5	/experiments/Knapen_AOT/AOT_stimuli/rescaled_final/0359_rv.mp4	0.0	344.02670669555664	
76	321.8889117240906	pulse	1	t		74.0	2.5	/experiments/Knapen_AOT/AOT_stimuli/rescaled_final/0359_rv.mp4	0.0	345.6274971961975	
76	322.0063922405243	fix_post	2		12	74.0	2.5	/experiments/Knapen_AOT/AOT_stimuli/rescaled_final/0359_rv.mp4	0.0	345.7449777126312	0.10002303123474121
77	322.10641527175903	fix_pre	0		120	75.0	2.5	blank	1.0	345.84500074386597	1.0001423358917236
77	323.10655760765076	movie	1		300	75.0	2.5	blank	1.0	346.8451430797577	2.5004723072052
77	323.4901924133301	pulse	1	t		75.0	2.5	blank	1.0	347.228777885437	
77	325.09062218666077	pulse	1	t		75.0	2.5	blank	1.0	348.8292076587677	
77	325.60702991485596	fix_post	2		12	75.0	2.5	blank	1.0	349.3456153869629	0.0999917984008789
78	325.70702171325684	fix_pre	0		119	76.0	2.5	/experiments/Knapen_AOT/AOT_stimuli/rescaled_final/0338_fw.mp4	0.0	349.44560718536377	1.0085463523864746
78	326.69093084335327	pulse	0	t		76.0	2.5	/experiments/Knapen_AOT/AOT_stimuli/rescaled_final/0338_fw.mp4	0.0	350.4295163154602	
78	326.7155680656433	movie	1		273	76.0	2.5	/experiments/Knapen_AOT/AOT_stimuli/rescaled_final/0338_fw.mp4	0.0	350.45415353775024	2.491917848587036
78	328.2896726131439	pulse	1	t		76.0	2.5	/experiments/Knapen_AOT/AOT_stimuli/rescaled_final/0338_fw.mp4	0.0	352.02825808525085	
78	329.20748591423035	fix_post	2		12	76.0	2.5	/experiments/Knapen_AOT/AOT_stimuli/rescaled_final/0338_fw.mp4	0.0	352.9460713863373	0.10004448890686035
79	329.3075304031372	fix_pre	0		120	77.0	2.5	/experiments/Knapen_AOT/AOT_stimuli/rescaled_final/0414_rv.mp4	0.0	353.04611587524414	1.0086040496826172
79	329.89124393463135	pulse	0	t		77.0	2.5	/experiments/Knapen_AOT/AOT_stimuli/rescaled_final/0414_rv.mp4	0.0	353.6298294067383	
79	330.3161344528198	movie	1		281	77.0	2.5	/experiments/Knapen_AOT/AOT_stimuli/rescaled_final/0414_rv.mp4	0.0	354.05471992492676	2.491879463195801
79	331.48985981941223	pulse	1	t		77.0	2.5	/experiments/Knapen_AOT/AOT_stimuli/rescaled_final/0414_rv.mp4	0.0	355.22844529151917	
79	332.8080139160156	fix_post	2		12	77.0	2.5	/experiments/Knapen_AOT/AOT_stimuli/rescaled_final/0414_rv.mp4	0.0	356.54659938812256	0.10001087188720703
80	332.90802478790283	fix_pre	0		120	78.0	2.5	/experiments/Knapen_AOT/AOT_stimuli/rescaled_final/0959_fw.mp4	0.0	356.64661026000977	1.0085246562957764
80	333.0917646884918	pulse	0	t		78.0	2.5	/experiments/Knapen_AOT/AOT_stimuli/rescaled_final/0959_fw.mp4	0.0	356.83035016059875	
80	333.9165494441986	movie	1		260	78.0	2.5	/experiments/Knapen_AOT/AOT_stimuli/rescaled_final/0959_fw.mp4	0.0	357.65513491630554	2.491992473602295
80	334.69001054763794	pulse	1	t		78.0	2.5	/experiments/Knapen_AOT/AOT_stimuli/rescaled_final/0959_fw.mp4	0.0	358.4285960197449	
80	336.291330575943	pulse	1	t		78.0	2.5	/experiments/Knapen_AOT/AOT_stimuli/rescaled_final/0959_fw.mp4	0.0	360.0299160480499	
80	336.4085419178009	fix_post	2		12	78.0	2.5	/experiments/Knapen_AOT/AOT_stimuli/rescaled_final/0959_fw.mp4	0.0	360.14712738990784	0.10003352165222168
81	336.5085754394531	fix_pre	0		120	79.0	2.5	/experiments/Knapen_AOT/AOT_stimuli/rescaled_final/0166_rv.mp4	0.0	360.24716091156006	1.0084900856018066
81	337.51706552505493	movie	1		268	79.0	2.5	/experiments/Knapen_AOT/AOT_stimuli/rescaled_final/0166_rv.mp4	0.0	361.25565099716187	2.492156982421875
81	337.8926248550415	pulse	1	t		79.0	2.5	/experiments/Knapen_AOT/AOT_stimuli/rescaled_final/0166_rv.mp4	0.0	361.63121032714844	
81	339.490585565567	pulse	1	t		79.0	2.5	/experiments/Knapen_AOT/AOT_stimuli/rescaled_final/0166_rv.mp4	0.0	363.22917103767395	
81	340.0092225074768	fix_post	2		12	79.0	2.5	/experiments/Knapen_AOT/AOT_stimuli/rescaled_final/0166_rv.mp4	0.0	363.74780797958374	0.09993863105773926
82	340.10916113853455	fix_pre	0		118	80.0	2.5	/experiments/Knapen_AOT/AOT_stimuli/rescaled_final/1705_rv.mp4	0.0	363.8477466106415	0.9917967319488525
82	341.0847079753876	pulse	0	t		80.0	2.5	/experiments/Knapen_AOT/AOT_stimuli/rescaled_final/1705_rv.mp4	0.0	364.8232934474945	
82	341.1009578704834	movie	1		276	80.0	2.5	/experiments/Knapen_AOT/AOT_stimuli/rescaled_final/1705_rv.mp4	0.0	364.83954334259033	2.5003581047058105
82	342.69319009780884	pulse	1	t		80.0	2.5	/experiments/Knapen_AOT/AOT_stimuli/rescaled_final/1705_rv.mp4	0.0	366.43177556991577	
82	343.6013159751892	fix_post	2		12	80.0	2.5	/experiments/Knapen_AOT/AOT_stimuli/rescaled_final/1705_rv.mp4	0.0	367.33990144729614	0.10006952285766602
83	343.7013854980469	fix_pre	0		120	81.0	2.5	/experiments/Knapen_AOT/AOT_stimuli/rescaled_final/1167_rv.mp4	0.0	367.4399709701538	1.008423089981079
83	344.285014629364	pulse	0	t		81.0	2.5	/experiments/Knapen_AOT/AOT_stimuli/rescaled_final/1167_rv.mp4	0.0	368.02360010147095	
83	344.70980858802795	movie	1		273	81.0	2.5	/experiments/Knapen_AOT/AOT_stimuli/rescaled_final/1167_rv.mp4	0.0	368.4483940601349	2.4920401573181152
83	345.8851885795593	pulse	1	t		81.0	2.5	/experiments/Knapen_AOT/AOT_stimuli/rescaled_final/1167_rv.mp4	0.0	369.62377405166626	
83	347.20184874534607	fix_post	2		12	81.0	2.5	/experiments/Knapen_AOT/AOT_stimuli/rescaled_final/1167_rv.mp4	0.0	370.940434217453	0.10005450248718262
84	347.30190324783325	fix_pre	0		120	82.0	2.5	blank	1.0	371.0404887199402	1.0000996589660645
84	347.48550724983215	pulse	0	t		82.0	2.5	blank	1.0	371.2240927219391	
84	348.3020029067993	movie	1		299	82.0	2.5	blank	1.0	372.04058837890625	2.5003809928894043
84	349.08590364456177	pulse	1	t		82.0	2.5	blank	1.0	372.8244891166687	
84	350.68597507476807	pulse	1	t		82.0	2.5	blank	1.0	374.424560546875	
84	350.8023838996887	fix_post	2		12	82.0	2.5	blank	1.0	374.54096937179565	0.10001802444458008
85	350.9024019241333	fix_pre	0		120	83.0	2.5	/experiments/Knapen_AOT/AOT_stimuli/rescaled_final/0072_rv.mp4	0.0	374.64098739624023	1.0085222721099854
85	351.9109241962433	movie	1		278	83.0	2.5	/experiments/Knapen_AOT/AOT_stimuli/rescaled_final/0072_rv.mp4	0.0	375.6495096683502	2.4920387268066406
85	352.28639698028564	pulse	1	t		83.0	2.5	/experiments/Knapen_AOT/AOT_stimuli/rescaled_final/0072_rv.mp4	0.0	376.0249824523926	
85	353.88556003570557	pulse	1	t		83.0	2.5	/experiments/Knapen_AOT/AOT_stimuli/rescaled_final/0072_rv.mp4	0.0	377.6241455078125	
85	354.4029629230499	fix_post	2		12	83.0	2.5	/experiments/Knapen_AOT/AOT_stimuli/rescaled_final/0072_rv.mp4	0.0	378.14154839515686	0.12502765655517578
87	354.5279905796051	stim	0		1712					378.26657605171204	14.26877498626709
87	355.48667669296265	pulse	0	t						379.2252621650696	
87	357.0868721008301	pulse	0	t						380.825457572937	
87	358.68711590766907	pulse	0	t						382.425701379776	
87	360.2873504161835	pulse	0	t						384.0259358882904	
87	361.887610912323	pulse	0	t						385.62619638442993	
87	363.4881088733673	pulse	0	t						387.22669434547424	
87	365.0886142253876	pulse	0	t						388.8271996974945	
87	366.6883490085602	pulse	0	t						390.4269344806671	
87	368.2886278629303	pulse	0	t						392.02721333503723	
