trial_nr	onset	event_type	phase	response	nr_frames	movie_index	movie_duration	movie_file	blank	onset_abs	duration
0	0.15812945365905762	stim	0		84					19.68696665763855	0.6999919414520264
0	0.8500614166259766	response	0	space						20.37889862060547	
1	0.858121395111084	stim	0		4775					20.386958599090576	39.80941963195801
1	40.657548666000366	pulse	0	t						60.18638586997986	
1	40.66754102706909	stim	1		1716					60.196378231048584	14.307081937789917
1	42.247950077056885	pulse	1	t						61.77678728103638	
1	43.848174810409546	pulse	1	t						63.37701201438904	
1	45.44839787483215	pulse	1	t						64.97723507881165	
1	47.04859662055969	pulse	1	t						66.57743382453918	
1	48.64889717102051	pulse	1	t						68.177734375	
1	50.24912667274475	pulse	1	t						69.77796387672424	
1	51.84934854507446	pulse	1	t						71.37818574905396	
1	53.449522495269775	pulse	1	t						72.97835969924927	
2	54.97462296485901	fix_pre	0		10	0.0	2.5	/experiments/knapen_AOT/AOT_stimuli/rescaled_final/1497_rv.mp4	0.0	74.5034601688385	0.10009217262268066
2	55.049795389175415	pulse	0	t		0.0	2.5	/experiments/knapen_AOT/AOT_stimuli/rescaled_final/1497_rv.mp4	0.0	74.57863259315491	
2	55.07471513748169	movie	1		294	0.0	2.5	/experiments/knapen_AOT/AOT_stimuli/rescaled_final/1497_rv.mp4	0.0	74.60355234146118	2.4919686317443848
2	56.64839839935303	pulse	1	t		0.0	2.5	/experiments/knapen_AOT/AOT_stimuli/rescaled_final/1497_rv.mp4	0.0	76.17723560333252	
2	57.566683769226074	fix_post	2		12	0.0	2.5	/experiments/knapen_AOT/AOT_stimuli/rescaled_final/1497_rv.mp4	0.0	77.09552097320557	0.10000085830688477
3	57.66668462753296	fix_pre	0		120	1.0	2.5	/experiments/knapen_AOT/AOT_stimuli/rescaled_final/0359_fw.mp4	0.0	77.19552183151245	1.008530855178833
3	58.25025153160095	pulse	0	t		1.0	2.5	/experiments/knapen_AOT/AOT_stimuli/rescaled_final/0359_fw.mp4	0.0	77.77908873558044	
3	58.67521548271179	movie	1		286	1.0	2.5	/experiments/knapen_AOT/AOT_stimuli/rescaled_final/0359_fw.mp4	0.0	78.20405268669128	2.491995334625244
3	59.848517656326294	pulse	1	t		1.0	2.5	/experiments/knapen_AOT/AOT_stimuli/rescaled_final/0359_fw.mp4	0.0	79.37735486030579	
3	61.167210817337036	fix_post	2		12	1.0	2.5	/experiments/knapen_AOT/AOT_stimuli/rescaled_final/0359_fw.mp4	0.0	80.69604802131653	0.10025191307067871
4	61.267462730407715	fix_pre	0		120	2.0	2.5	/experiments/knapen_AOT/AOT_stimuli/rescaled_final/1355_rv.mp4	0.0	80.7962999343872	1.0082805156707764
4	61.45086598396301	pulse	0	t		2.0	2.5	/experiments/knapen_AOT/AOT_stimuli/rescaled_final/1355_rv.mp4	0.0	80.9797031879425	
4	62.27574324607849	movie	1		278	2.0	2.5	/experiments/knapen_AOT/AOT_stimuli/rescaled_final/1355_rv.mp4	0.0	81.80458045005798	2.491999387741089
4	63.04868817329407	pulse	1	t		2.0	2.5	/experiments/knapen_AOT/AOT_stimuli/rescaled_final/1355_rv.mp4	0.0	82.57752537727356	
4	64.64898204803467	pulse	1	t		2.0	2.5	/experiments/knapen_AOT/AOT_stimuli/rescaled_final/1355_rv.mp4	0.0	84.17781925201416	
4	64.76774263381958	fix_post	2		12	2.0	2.5	/experiments/knapen_AOT/AOT_stimuli/rescaled_final/1355_rv.mp4	0.0	84.29657983779907	0.10004925727844238
5	64.86779189109802	fix_pre	0		120	3.0	2.5	/experiments/knapen_AOT/AOT_stimuli/rescaled_final/1442_fw.mp4	0.0	84.39662909507751	1.0084681510925293
5	65.87626004219055	movie	1		282	3.0	2.5	/experiments/knapen_AOT/AOT_stimuli/rescaled_final/1442_fw.mp4	0.0	85.40509724617004	2.4920406341552734
5	66.24966835975647	pulse	1	t		3.0	2.5	/experiments/knapen_AOT/AOT_stimuli/rescaled_final/1442_fw.mp4	0.0	85.77850556373596	
5	67.84943127632141	pulse	1	t		3.0	2.5	/experiments/knapen_AOT/AOT_stimuli/rescaled_final/1442_fw.mp4	0.0	87.3782684803009	
5	68.36830067634583	fix_post	2		12	3.0	2.5	/experiments/knapen_AOT/AOT_stimuli/rescaled_final/1442_fw.mp4	0.0	87.89713788032532	0.10001301765441895
6	68.46831369400024	fix_pre	0		119	4.0	2.5	/experiments/knapen_AOT/AOT_stimuli/rescaled_final/0470_fw.mp4	0.0	87.99715089797974	1.000145435333252
6	69.45198106765747	pulse	0	t		4.0	2.5	/experiments/knapen_AOT/AOT_stimuli/rescaled_final/0470_fw.mp4	0.0	88.98081827163696	
6	69.4684591293335	movie	1		282	4.0	2.5	/experiments/knapen_AOT/AOT_stimuli/rescaled_final/0470_fw.mp4	0.0	88.99729633331299	2.5003724098205566
6	71.05056977272034	pulse	1	t		4.0	2.5	/experiments/knapen_AOT/AOT_stimuli/rescaled_final/0470_fw.mp4	0.0	90.57940697669983	
6	71.96883153915405	fix_post	2		12	4.0	2.5	/experiments/knapen_AOT/AOT_stimuli/rescaled_final/0470_fw.mp4	0.0	91.49766874313354	0.10008025169372559
7	72.06891179084778	fix_pre	0		120	5.0	2.5	/experiments/knapen_AOT/AOT_stimuli/rescaled_final/1350_fw.mp4	0.0	91.59774899482727	1.008460521697998
7	72.65247201919556	pulse	0	t		5.0	2.5	/experiments/knapen_AOT/AOT_stimuli/rescaled_final/1350_fw.mp4	0.0	92.18130922317505	
7	73.07737231254578	movie	1		280	5.0	2.5	/experiments/knapen_AOT/AOT_stimuli/rescaled_final/1350_fw.mp4	0.0	92.60620951652527	2.4920170307159424
7	74.25119638442993	pulse	1	t		5.0	2.5	/experiments/knapen_AOT/AOT_stimuli/rescaled_final/1350_fw.mp4	0.0	93.78003358840942	
7	75.56938934326172	fix_post	2		12	5.0	2.5	/experiments/knapen_AOT/AOT_stimuli/rescaled_final/1350_fw.mp4	0.0	95.09822654724121	0.10001015663146973
8	75.66939949989319	fix_pre	0		120	6.0	2.5	/experiments/knapen_AOT/AOT_stimuli/rescaled_final/0987_fw.mp4	0.0	95.19823670387268	1.0085256099700928
8	75.85309910774231	pulse	0	t		6.0	2.5	/experiments/knapen_AOT/AOT_stimuli/rescaled_final/0987_fw.mp4	0.0	95.3819363117218	
8	76.67792510986328	movie	1		289	6.0	2.5	/experiments/knapen_AOT/AOT_stimuli/rescaled_final/0987_fw.mp4	0.0	96.20676231384277	2.4919865131378174
8	77.45093631744385	pulse	1	t		6.0	2.5	/experiments/knapen_AOT/AOT_stimuli/rescaled_final/0987_fw.mp4	0.0	96.97977352142334	
8	79.05134081840515	pulse	1	t		6.0	2.5	/experiments/knapen_AOT/AOT_stimuli/rescaled_final/0987_fw.mp4	0.0	98.58017802238464	
8	79.1699116230011	fix_post	2		12	6.0	2.5	/experiments/knapen_AOT/AOT_stimuli/rescaled_final/0987_fw.mp4	0.0	98.69874882698059	0.1000819206237793
9	79.26999354362488	fix_pre	0		120	7.0	2.5	blank	1.0	98.79883074760437	1.0000805854797363
9	80.27007412910461	movie	1		300	7.0	2.5	blank	1.0	99.7989113330841	2.5003929138183594
9	80.65375351905823	pulse	1	t		7.0	2.5	blank	1.0	100.18259072303772	
9	82.25388860702515	pulse	1	t		7.0	2.5	blank	1.0	101.78272581100464	
9	82.77046704292297	fix_post	2		12	7.0	2.5	blank	1.0	102.29930424690247	0.10015177726745605
10	82.87061882019043	fix_pre	0		119	8.0	2.5	/experiments/knapen_AOT/AOT_stimuli/rescaled_final/1008_fw.mp4	0.0	102.39945602416992	0.9999947547912598
10	83.85413694381714	pulse	0	t		8.0	2.5	/experiments/knapen_AOT/AOT_stimuli/rescaled_final/1008_fw.mp4	0.0	103.38297414779663	
10	83.87061357498169	movie	1		277	8.0	2.5	/experiments/knapen_AOT/AOT_stimuli/rescaled_final/1008_fw.mp4	0.0	103.39945077896118	2.5003912448883057
10	85.45317125320435	pulse	1	t		8.0	2.5	/experiments/knapen_AOT/AOT_stimuli/rescaled_final/1008_fw.mp4	0.0	104.98200845718384	
10	86.37100481987	fix_post	2		12	8.0	2.5	/experiments/knapen_AOT/AOT_stimuli/rescaled_final/1008_fw.mp4	0.0	105.89984202384949	0.1000065803527832
11	86.47101140022278	fix_pre	0		120	9.0	2.5	/experiments/knapen_AOT/AOT_stimuli/rescaled_final/1243_rv.mp4	0.0	105.99984860420227	1.0085093975067139
11	87.04770517349243	pulse	0	t		9.0	2.5	/experiments/knapen_AOT/AOT_stimuli/rescaled_final/1243_rv.mp4	0.0	106.57654237747192	
11	87.47952079772949	movie	1		274	9.0	2.5	/experiments/knapen_AOT/AOT_stimuli/rescaled_final/1243_rv.mp4	0.0	107.00835800170898	2.4920146465301514
11	88.65276265144348	pulse	1	t		9.0	2.5	/experiments/knapen_AOT/AOT_stimuli/rescaled_final/1243_rv.mp4	0.0	108.18159985542297	
11	89.97153544425964	fix_post	2		12	9.0	2.5	/experiments/knapen_AOT/AOT_stimuli/rescaled_final/1243_rv.mp4	0.0	109.50037264823914	0.1000833511352539
12	90.0716187953949	fix_pre	0		120	10.0	2.5	/experiments/knapen_AOT/AOT_stimuli/rescaled_final/0659_fw.mp4	0.0	109.60045599937439	1.0084497928619385
12	90.24697637557983	pulse	0	t		10.0	2.5	/experiments/knapen_AOT/AOT_stimuli/rescaled_final/0659_fw.mp4	0.0	109.77581357955933	
12	91.08006858825684	movie	1		263	10.0	2.5	/experiments/knapen_AOT/AOT_stimuli/rescaled_final/0659_fw.mp4	0.0	110.60890579223633	2.4920148849487305
12	91.84722518920898	pulse	1	t		10.0	2.5	/experiments/knapen_AOT/AOT_stimuli/rescaled_final/0659_fw.mp4	0.0	111.37606239318848	
12	93.4483392238617	pulse	1	t		10.0	2.5	/experiments/knapen_AOT/AOT_stimuli/rescaled_final/0659_fw.mp4	0.0	112.97717642784119	
12	93.57208347320557	fix_post	2		12	10.0	2.5	/experiments/knapen_AOT/AOT_stimuli/rescaled_final/0659_fw.mp4	0.0	113.10092067718506	0.10007238388061523
13	93.67215585708618	fix_pre	0		120	11.0	2.5	/experiments/knapen_AOT/AOT_stimuli/rescaled_final/0901_fw.mp4	0.0	113.20099306106567	1.0084595680236816
13	94.68061542510986	movie	1		275	11.0	2.5	/experiments/knapen_AOT/AOT_stimuli/rescaled_final/0901_fw.mp4	0.0	114.20945262908936	2.4920287132263184
13	95.04756307601929	pulse	1	t		11.0	2.5	/experiments/knapen_AOT/AOT_stimuli/rescaled_final/0901_fw.mp4	0.0	114.57640027999878	
13	96.64780139923096	pulse	1	t		11.0	2.5	/experiments/knapen_AOT/AOT_stimuli/rescaled_final/0901_fw.mp4	0.0	116.17663860321045	
13	97.17264413833618	fix_post	2		12	11.0	2.5	/experiments/knapen_AOT/AOT_stimuli/rescaled_final/0901_fw.mp4	0.0	116.70148134231567	0.10005712509155273
14	97.27270126342773	fix_pre	0		118	12.0	2.5	blank	1.0	116.80153846740723	0.9834482669830322
14	98.24800395965576	pulse	0	t		12.0	2.5	blank	1.0	117.77684116363525	
14	98.25614953041077	movie	1		301	12.0	2.5	blank	1.0	117.78498673439026	2.508676052093506
14	99.8482711315155	pulse	1	t		12.0	2.5	blank	1.0	119.377108335495	
14	100.76482558250427	fix_post	2		12	12.0	2.5	blank	1.0	120.29366278648376	0.10003185272216797
15	100.86485743522644	fix_pre	0		120	13.0	2.5	/experiments/knapen_AOT/AOT_stimuli/rescaled_final/0947_fw.mp4	0.0	120.39369463920593	1.00860595703125
15	101.44857406616211	pulse	0	t		13.0	2.5	/experiments/knapen_AOT/AOT_stimuli/rescaled_final/0947_fw.mp4	0.0	120.9774112701416	
15	101.87346339225769	movie	1		288	13.0	2.5	/experiments/knapen_AOT/AOT_stimuli/rescaled_final/0947_fw.mp4	0.0	121.40230059623718	2.4919159412384033
15	103.04677486419678	pulse	1	t		13.0	2.5	/experiments/knapen_AOT/AOT_stimuli/rescaled_final/0947_fw.mp4	0.0	122.57561206817627	
15	104.3653793334961	fix_post	2		12	13.0	2.5	/experiments/knapen_AOT/AOT_stimuli/rescaled_final/0947_fw.mp4	0.0	123.89421653747559	0.10002875328063965
16	104.46540808677673	fix_pre	0		120	14.0	2.5	/experiments/knapen_AOT/AOT_stimuli/rescaled_final/1202_rv.mp4	0.0	123.99424529075623	1.008514642715454
16	104.64929986000061	pulse	0	t		14.0	2.5	/experiments/knapen_AOT/AOT_stimuli/rescaled_final/1202_rv.mp4	0.0	124.1781370639801	
16	105.47392272949219	movie	1		263	14.0	2.5	/experiments/knapen_AOT/AOT_stimuli/rescaled_final/1202_rv.mp4	0.0	125.00275993347168	2.4920241832733154
16	106.24694871902466	pulse	1	t		14.0	2.5	/experiments/knapen_AOT/AOT_stimuli/rescaled_final/1202_rv.mp4	0.0	125.77578592300415	
16	107.84939002990723	pulse	1	t		14.0	2.5	/experiments/knapen_AOT/AOT_stimuli/rescaled_final/1202_rv.mp4	0.0	127.37822723388672	
16	107.9659469127655	fix_post	2		12	14.0	2.5	/experiments/knapen_AOT/AOT_stimuli/rescaled_final/1202_rv.mp4	0.0	127.494784116745	0.09999465942382812
17	108.06594157218933	fix_pre	0		120	15.0	2.5	/experiments/knapen_AOT/AOT_stimuli/rescaled_final/1148_rv.mp4	0.0	127.59477877616882	1.0085031986236572
17	109.07444477081299	movie	1		271	15.0	2.5	/experiments/knapen_AOT/AOT_stimuli/rescaled_final/1148_rv.mp4	0.0	128.60328197479248	2.4921224117279053
17	109.44805812835693	pulse	1	t		15.0	2.5	/experiments/knapen_AOT/AOT_stimuli/rescaled_final/1148_rv.mp4	0.0	128.97689533233643	
17	111.0478744506836	pulse	1	t		15.0	2.5	/experiments/knapen_AOT/AOT_stimuli/rescaled_final/1148_rv.mp4	0.0	130.5767116546631	
17	111.5665671825409	fix_post	2		12	15.0	2.5	/experiments/knapen_AOT/AOT_stimuli/rescaled_final/1148_rv.mp4	0.0	131.09540438652039	0.09992241859436035
18	111.66648960113525	fix_pre	0		119	16.0	2.5	/experiments/knapen_AOT/AOT_stimuli/rescaled_final/0987_fw.mp4	0.0	131.19532680511475	1.0001521110534668
18	112.65014338493347	pulse	0	t		16.0	2.5	/experiments/knapen_AOT/AOT_stimuli/rescaled_final/0987_fw.mp4	0.0	132.17898058891296	
18	112.66664171218872	movie	1		287	16.0	2.5	/experiments/knapen_AOT/AOT_stimuli/rescaled_final/0987_fw.mp4	0.0	132.1954789161682	2.5003538131713867
18	114.24894690513611	pulse	1	t		16.0	2.5	/experiments/knapen_AOT/AOT_stimuli/rescaled_final/0987_fw.mp4	0.0	133.7777841091156	
18	115.16699552536011	fix_post	2		12	16.0	2.5	/experiments/knapen_AOT/AOT_stimuli/rescaled_final/0987_fw.mp4	0.0	134.6958327293396	0.10004639625549316
19	115.2670419216156	fix_pre	0		120	17.0	2.5	/experiments/knapen_AOT/AOT_stimuli/rescaled_final/1093_rv.mp4	0.0	134.7958791255951	1.00848388671875
19	115.85072636604309	pulse	0	t		17.0	2.5	/experiments/knapen_AOT/AOT_stimuli/rescaled_final/1093_rv.mp4	0.0	135.37956357002258	
19	116.27552580833435	movie	1		285	17.0	2.5	/experiments/knapen_AOT/AOT_stimuli/rescaled_final/1093_rv.mp4	0.0	135.80436301231384	2.4921367168426514
19	117.44889378547668	pulse	1	t		17.0	2.5	/experiments/knapen_AOT/AOT_stimuli/rescaled_final/1093_rv.mp4	0.0	136.97773098945618	
19	118.767662525177	fix_post	2		12	17.0	2.5	/experiments/knapen_AOT/AOT_stimuli/rescaled_final/1093_rv.mp4	0.0	138.2964997291565	0.09997320175170898
20	118.86763572692871	fix_pre	0		120	18.0	2.5	/experiments/knapen_AOT/AOT_stimuli/rescaled_final/1386_fw.mp4	0.0	138.3964729309082	1.0085091590881348
20	119.05110478401184	pulse	0	t		18.0	2.5	/experiments/knapen_AOT/AOT_stimuli/rescaled_final/1386_fw.mp4	0.0	138.57994198799133	
20	119.87614488601685	movie	1		289	18.0	2.5	/experiments/knapen_AOT/AOT_stimuli/rescaled_final/1386_fw.mp4	0.0	139.40498208999634	2.491929531097412
20	120.65233445167542	pulse	1	t		18.0	2.5	/experiments/knapen_AOT/AOT_stimuli/rescaled_final/1386_fw.mp4	0.0	140.1811716556549	
20	122.24964165687561	pulse	1	t		18.0	2.5	/experiments/knapen_AOT/AOT_stimuli/rescaled_final/1386_fw.mp4	0.0	141.7784788608551	
20	122.36807441711426	fix_post	2		12	18.0	2.5	/experiments/knapen_AOT/AOT_stimuli/rescaled_final/1386_fw.mp4	0.0	141.89691162109375	0.10001564025878906
21	122.46809005737305	fix_pre	0		120	19.0	2.5	blank	1.0	141.99692726135254	1.0001566410064697
21	123.46824669837952	movie	1		300	19.0	2.5	blank	1.0	142.997083902359	2.5004355907440186
21	123.85182976722717	pulse	1	t		19.0	2.5	blank	1.0	143.38066697120667	
21	125.4520993232727	pulse	1	t		19.0	2.5	blank	1.0	144.9809365272522	
21	125.96868228912354	fix_post	2		12	19.0	2.5	blank	1.0	145.49751949310303	0.09996509552001953
22	126.06864738464355	fix_pre	0		119	20.0	2.5	/experiments/knapen_AOT/AOT_stimuli/rescaled_final/1008_rv.mp4	0.0	145.59748458862305	1.008528709411621
22	127.0524697303772	pulse	0	t		20.0	2.5	/experiments/knapen_AOT/AOT_stimuli/rescaled_final/1008_rv.mp4	0.0	146.5813069343567	
22	127.07717609405518	movie	1		274	20.0	2.5	/experiments/knapen_AOT/AOT_stimuli/rescaled_final/1008_rv.mp4	0.0	146.60601329803467	2.4919822216033936
22	128.6533079147339	pulse	1	t		20.0	2.5	/experiments/knapen_AOT/AOT_stimuli/rescaled_final/1008_rv.mp4	0.0	148.18214511871338	
22	129.56915831565857	fix_post	2		12	20.0	2.5	/experiments/knapen_AOT/AOT_stimuli/rescaled_final/1008_rv.mp4	0.0	149.09799551963806	0.10004353523254395
23	129.6692018508911	fix_pre	0		120	21.0	2.5	/experiments/knapen_AOT/AOT_stimuli/rescaled_final/1368_rv.mp4	0.0	149.1980390548706	1.008495569229126
23	130.25279927253723	pulse	0	t		21.0	2.5	/experiments/knapen_AOT/AOT_stimuli/rescaled_final/1368_rv.mp4	0.0	149.78163647651672	
23	130.67769742012024	movie	1		288	21.0	2.5	/experiments/knapen_AOT/AOT_stimuli/rescaled_final/1368_rv.mp4	0.0	150.20653462409973	2.4920318126678467
23	131.85105085372925	pulse	1	t		21.0	2.5	/experiments/knapen_AOT/AOT_stimuli/rescaled_final/1368_rv.mp4	0.0	151.37988805770874	
23	133.1697292327881	fix_post	2		12	21.0	2.5	/experiments/knapen_AOT/AOT_stimuli/rescaled_final/1368_rv.mp4	0.0	152.69856643676758	0.09999251365661621
24	133.2697217464447	fix_pre	0		120	22.0	2.5	/experiments/knapen_AOT/AOT_stimuli/rescaled_final/1876_fw.mp4	0.0	152.7985589504242	1.008545160293579
24	133.45330953598022	pulse	0	t		22.0	2.5	/experiments/knapen_AOT/AOT_stimuli/rescaled_final/1876_fw.mp4	0.0	152.98214673995972	
24	134.27826690673828	movie	1		277	22.0	2.5	/experiments/knapen_AOT/AOT_stimuli/rescaled_final/1876_fw.mp4	0.0	153.80710411071777	2.491978406906128
24	135.05129265785217	pulse	1	t		22.0	2.5	/experiments/knapen_AOT/AOT_stimuli/rescaled_final/1876_fw.mp4	0.0	154.58012986183167	
24	136.6532747745514	pulse	1	t		22.0	2.5	/experiments/knapen_AOT/AOT_stimuli/rescaled_final/1876_fw.mp4	0.0	156.18211197853088	
24	136.7702453136444	fix_post	2		12	22.0	2.5	/experiments/knapen_AOT/AOT_stimuli/rescaled_final/1876_fw.mp4	0.0	156.2990825176239	0.10002636909484863
25	136.87027168273926	fix_pre	0		120	23.0	2.5	/experiments/knapen_AOT/AOT_stimuli/rescaled_final/0919_fw.mp4	0.0	156.39910888671875	1.0085513591766357
25	137.8788230419159	movie	1		266	23.0	2.5	/experiments/knapen_AOT/AOT_stimuli/rescaled_final/0919_fw.mp4	0.0	157.40766024589539	2.491961717605591
25	138.25251054763794	pulse	1	t		23.0	2.5	/experiments/knapen_AOT/AOT_stimuli/rescaled_final/0919_fw.mp4	0.0	157.78134775161743	
25	139.85294222831726	pulse	1	t		23.0	2.5	/experiments/knapen_AOT/AOT_stimuli/rescaled_final/0919_fw.mp4	0.0	159.38177943229675	
25	140.37078475952148	fix_post	2		12	23.0	2.5	/experiments/knapen_AOT/AOT_stimuli/rescaled_final/0919_fw.mp4	0.0	159.89962196350098	0.10004234313964844
26	140.47082710266113	fix_pre	0		118	24.0	2.5	/experiments/knapen_AOT/AOT_stimuli/rescaled_final/0555_fw.mp4	0.0	159.99966430664062	0.9918885231018066
26	141.44642639160156	pulse	0	t		24.0	2.5	/experiments/knapen_AOT/AOT_stimuli/rescaled_final/0555_fw.mp4	0.0	160.97526359558105	
26	141.46271562576294	movie	1		275	24.0	2.5	/experiments/knapen_AOT/AOT_stimuli/rescaled_final/0555_fw.mp4	0.0	160.99155282974243	2.500279188156128
26	143.0464949607849	pulse	1	t		24.0	2.5	/experiments/knapen_AOT/AOT_stimuli/rescaled_final/0555_fw.mp4	0.0	162.5753321647644	
26	143.96299481391907	fix_post	2		12	24.0	2.5	/experiments/knapen_AOT/AOT_stimuli/rescaled_final/0555_fw.mp4	0.0	163.49183201789856	0.10002899169921875
27	144.0630238056183	fix_pre	0		120	25.0	2.5	/experiments/knapen_AOT/AOT_stimuli/rescaled_final/1286_fw.mp4	0.0	163.59186100959778	1.0084912776947021
27	144.64669466018677	pulse	0	t		25.0	2.5	/experiments/knapen_AOT/AOT_stimuli/rescaled_final/1286_fw.mp4	0.0	164.17553186416626	
27	145.071515083313	movie	1		293	25.0	2.5	/experiments/knapen_AOT/AOT_stimuli/rescaled_final/1286_fw.mp4	0.0	164.60035228729248	2.4920144081115723
27	146.24692153930664	pulse	1	t		25.0	2.5	/experiments/knapen_AOT/AOT_stimuli/rescaled_final/1286_fw.mp4	0.0	165.77575874328613	
27	147.56352949142456	fix_post	2		12	25.0	2.5	/experiments/knapen_AOT/AOT_stimuli/rescaled_final/1286_fw.mp4	0.0	167.09236669540405	0.10002493858337402
28	147.66355443000793	fix_pre	0		120	26.0	2.5	blank	1.0	167.19239163398743	1.00016450881958
28	147.84716796875	pulse	0	t		26.0	2.5	blank	1.0	167.3760051727295	
28	148.66371893882751	movie	1		300	26.0	2.5	blank	1.0	168.192556142807	2.5003695487976074
28	149.44748091697693	pulse	1	t		26.0	2.5	blank	1.0	168.97631812095642	
28	151.04761052131653	pulse	1	t		26.0	2.5	blank	1.0	170.57644772529602	
28	151.16408848762512	fix_post	2		12	26.0	2.5	blank	1.0	170.69292569160461	0.10002779960632324
29	151.26411628723145	fix_pre	0		120	27.0	2.5	/experiments/knapen_AOT/AOT_stimuli/rescaled_final/1461_fw.mp4	0.0	170.79295349121094	1.0084710121154785
29	152.27258729934692	movie	1		263	27.0	2.5	/experiments/knapen_AOT/AOT_stimuli/rescaled_final/1461_fw.mp4	0.0	171.80142450332642	2.4920527935028076
29	152.6465654373169	pulse	1	t		27.0	2.5	/experiments/knapen_AOT/AOT_stimuli/rescaled_final/1461_fw.mp4	0.0	172.1754026412964	
29	154.248309135437	pulse	1	t		27.0	2.5	/experiments/knapen_AOT/AOT_stimuli/rescaled_final/1461_fw.mp4	0.0	173.7771463394165	
29	154.76464009284973	fix_post	2		12	27.0	2.5	/experiments/knapen_AOT/AOT_stimuli/rescaled_final/1461_fw.mp4	0.0	174.29347729682922	0.09999704360961914
30	154.86463713645935	fix_pre	0		119	28.0	2.5	/experiments/knapen_AOT/AOT_stimuli/rescaled_final/1699_rv.mp4	0.0	174.39347434043884	1.0001485347747803
30	155.84835600852966	pulse	0	t		28.0	2.5	/experiments/knapen_AOT/AOT_stimuli/rescaled_final/1699_rv.mp4	0.0	175.37719321250916	
30	155.86478567123413	movie	1		273	28.0	2.5	/experiments/knapen_AOT/AOT_stimuli/rescaled_final/1699_rv.mp4	0.0	175.39362287521362	2.5004563331604004
30	157.44689655303955	pulse	1	t		28.0	2.5	/experiments/knapen_AOT/AOT_stimuli/rescaled_final/1699_rv.mp4	0.0	176.97573375701904	
30	158.36524200439453	fix_post	2		12	28.0	2.5	/experiments/knapen_AOT/AOT_stimuli/rescaled_final/1699_rv.mp4	0.0	177.89407920837402	0.09995055198669434
31	158.46519255638123	fix_pre	0		120	29.0	2.5	/experiments/knapen_AOT/AOT_stimuli/rescaled_final/1592_rv.mp4	0.0	177.99402976036072	1.008514165878296
31	159.04903364181519	pulse	0	t		29.0	2.5	/experiments/knapen_AOT/AOT_stimuli/rescaled_final/1592_rv.mp4	0.0	178.57787084579468	
31	159.47370672225952	movie	1		279	29.0	2.5	/experiments/knapen_AOT/AOT_stimuli/rescaled_final/1592_rv.mp4	0.0	179.002543926239	2.4920296669006348
31	160.6472487449646	pulse	1	t		29.0	2.5	/experiments/knapen_AOT/AOT_stimuli/rescaled_final/1592_rv.mp4	0.0	180.1760859489441	
31	161.96573638916016	fix_post	2		12	29.0	2.5	/experiments/knapen_AOT/AOT_stimuli/rescaled_final/1592_rv.mp4	0.0	181.49457359313965	0.10001945495605469
32	162.0657558441162	fix_pre	0		120	30.0	2.5	/experiments/knapen_AOT/AOT_stimuli/rescaled_final/0929_rv.mp4	0.0	181.5945930480957	1.0084741115570068
32	162.24928426742554	pulse	0	t		30.0	2.5	/experiments/knapen_AOT/AOT_stimuli/rescaled_final/0929_rv.mp4	0.0	181.77812147140503	
32	163.07422995567322	movie	1		282	30.0	2.5	/experiments/knapen_AOT/AOT_stimuli/rescaled_final/0929_rv.mp4	0.0	182.6030671596527	2.4920167922973633
32	163.8473837375641	pulse	1	t		30.0	2.5	/experiments/knapen_AOT/AOT_stimuli/rescaled_final/0929_rv.mp4	0.0	183.37622094154358	
32	165.44761872291565	pulse	1	t		30.0	2.5	/experiments/knapen_AOT/AOT_stimuli/rescaled_final/0929_rv.mp4	0.0	184.97645592689514	
32	165.56624674797058	fix_post	2		12	30.0	2.5	/experiments/knapen_AOT/AOT_stimuli/rescaled_final/0929_rv.mp4	0.0	185.09508395195007	0.09999752044677734
33	165.66624426841736	fix_pre	0		120	31.0	2.5	/experiments/knapen_AOT/AOT_stimuli/rescaled_final/1367_fw.mp4	0.0	185.19508147239685	1.008528232574463
33	166.67477250099182	movie	1		288	31.0	2.5	/experiments/knapen_AOT/AOT_stimuli/rescaled_final/1367_fw.mp4	0.0	186.2036097049713	2.492037296295166
33	167.04864144325256	pulse	1	t		31.0	2.5	/experiments/knapen_AOT/AOT_stimuli/rescaled_final/1367_fw.mp4	0.0	186.57747864723206	
33	168.64830112457275	pulse	1	t		31.0	2.5	/experiments/knapen_AOT/AOT_stimuli/rescaled_final/1367_fw.mp4	0.0	188.17713832855225	
33	169.166809797287	fix_post	2		12	31.0	2.5	/experiments/knapen_AOT/AOT_stimuli/rescaled_final/1367_fw.mp4	0.0	188.69564700126648	0.09998440742492676
34	169.2667942047119	fix_pre	0		119	32.0	2.5	/experiments/knapen_AOT/AOT_stimuli/rescaled_final/1790_fw.mp4	0.0	188.7956314086914	1.0001652240753174
34	170.25046491622925	pulse	0	t		32.0	2.5	/experiments/knapen_AOT/AOT_stimuli/rescaled_final/1790_fw.mp4	0.0	189.77930212020874	
34	170.26695942878723	movie	1		293	32.0	2.5	/experiments/knapen_AOT/AOT_stimuli/rescaled_final/1790_fw.mp4	0.0	189.79579663276672	2.5004141330718994
34	171.84907341003418	pulse	1	t		32.0	2.5	/experiments/knapen_AOT/AOT_stimuli/rescaled_final/1790_fw.mp4	0.0	191.37791061401367	
34	172.76737356185913	fix_post	2		12	32.0	2.5	/experiments/knapen_AOT/AOT_stimuli/rescaled_final/1790_fw.mp4	0.0	192.29621076583862	0.09997797012329102
35	172.86735153198242	fix_pre	0		120	33.0	2.5	/experiments/knapen_AOT/AOT_stimuli/rescaled_final/2179_fw.mp4	0.0	192.3961887359619	1.0085411071777344
35	173.45097470283508	pulse	0	t		33.0	2.5	/experiments/knapen_AOT/AOT_stimuli/rescaled_final/2179_fw.mp4	0.0	192.97981190681458	
35	173.87589263916016	movie	1		277	33.0	2.5	/experiments/knapen_AOT/AOT_stimuli/rescaled_final/2179_fw.mp4	0.0	193.40472984313965	2.491978406906128
35	175.04915046691895	pulse	1	t		33.0	2.5	/experiments/knapen_AOT/AOT_stimuli/rescaled_final/2179_fw.mp4	0.0	194.57798767089844	
35	176.36787104606628	fix_post	2		12	33.0	2.5	/experiments/knapen_AOT/AOT_stimuli/rescaled_final/2179_fw.mp4	0.0	195.89670825004578	0.10001277923583984
36	176.46788382530212	fix_pre	0		120	34.0	2.5	blank	1.0	195.99672102928162	1.0001373291015625
36	176.65149927139282	pulse	0	t		34.0	2.5	blank	1.0	196.18033647537231	
36	177.4680211544037	movie	1		300	34.0	2.5	blank	1.0	196.99685835838318	2.5004007816314697
36	178.2517650127411	pulse	1	t		34.0	2.5	blank	1.0	197.78060221672058	
36	179.85193490982056	pulse	1	t		34.0	2.5	blank	1.0	199.38077211380005	
36	179.96842193603516	fix_post	2		12	34.0	2.5	blank	1.0	199.49725914001465	0.10003805160522461
37	180.06845998764038	fix_pre	0		120	35.0	2.5	/experiments/knapen_AOT/AOT_stimuli/rescaled_final/1497_fw.mp4	0.0	199.59729719161987	1.0085291862487793
37	181.07698917388916	movie	1		280	35.0	2.5	/experiments/knapen_AOT/AOT_stimuli/rescaled_final/1497_fw.mp4	0.0	200.60582637786865	2.4920551776885986
37	181.45055961608887	pulse	1	t		35.0	2.5	/experiments/knapen_AOT/AOT_stimuli/rescaled_final/1497_fw.mp4	0.0	200.97939682006836	
37	183.05018186569214	pulse	1	t		35.0	2.5	/experiments/knapen_AOT/AOT_stimuli/rescaled_final/1497_fw.mp4	0.0	202.57901906967163	
37	183.56904435157776	fix_post	2		12	35.0	2.5	/experiments/knapen_AOT/AOT_stimuli/rescaled_final/1497_fw.mp4	0.0	203.09788155555725	0.0999140739440918
38	183.66895842552185	fix_pre	0		119	36.0	2.5	/experiments/knapen_AOT/AOT_stimuli/rescaled_final/0078_rv.mp4	0.0	203.19779562950134	1.0001482963562012
38	184.65274953842163	pulse	0	t		36.0	2.5	/experiments/knapen_AOT/AOT_stimuli/rescaled_final/0078_rv.mp4	0.0	204.18158674240112	
38	184.66910672187805	movie	1		264	36.0	2.5	/experiments/knapen_AOT/AOT_stimuli/rescaled_final/0078_rv.mp4	0.0	204.19794392585754	2.50038480758667
38	186.25364875793457	pulse	1	t		36.0	2.5	/experiments/knapen_AOT/AOT_stimuli/rescaled_final/0078_rv.mp4	0.0	205.78248596191406	
38	187.16949152946472	fix_post	2		12	36.0	2.5	/experiments/knapen_AOT/AOT_stimuli/rescaled_final/0078_rv.mp4	0.0	206.6983287334442	0.10002517700195312
39	187.26951670646667	fix_pre	0		120	37.0	2.5	/experiments/knapen_AOT/AOT_stimuli/rescaled_final/1240_fw.mp4	0.0	206.79835391044617	1.0084984302520752
39	187.85323023796082	pulse	0	t		37.0	2.5	/experiments/knapen_AOT/AOT_stimuli/rescaled_final/1240_fw.mp4	0.0	207.3820674419403	
39	188.27801513671875	movie	1		281	37.0	2.5	/experiments/knapen_AOT/AOT_stimuli/rescaled_final/1240_fw.mp4	0.0	207.80685234069824	2.492009162902832
39	189.45182752609253	pulse	1	t		37.0	2.5	/experiments/knapen_AOT/AOT_stimuli/rescaled_final/1240_fw.mp4	0.0	208.98066473007202	
39	190.77002429962158	fix_post	2		12	37.0	2.5	/experiments/knapen_AOT/AOT_stimuli/rescaled_final/1240_fw.mp4	0.0	210.29886150360107	0.10005044937133789
40	190.87007474899292	fix_pre	0		120	38.0	2.5	/experiments/knapen_AOT/AOT_stimuli/rescaled_final/1611_rv.mp4	0.0	210.3989119529724	1.0084762573242188
40	191.053715467453	pulse	0	t		38.0	2.5	/experiments/knapen_AOT/AOT_stimuli/rescaled_final/1611_rv.mp4	0.0	210.5825526714325	
40	191.87855100631714	movie	1		278	38.0	2.5	/experiments/knapen_AOT/AOT_stimuli/rescaled_final/1611_rv.mp4	0.0	211.40738821029663	2.492043972015381
40	192.65159225463867	pulse	1	t		38.0	2.5	/experiments/knapen_AOT/AOT_stimuli/rescaled_final/1611_rv.mp4	0.0	212.18042945861816	
40	194.2520453929901	pulse	1	t		38.0	2.5	/experiments/knapen_AOT/AOT_stimuli/rescaled_final/1611_rv.mp4	0.0	213.7808825969696	
40	194.37059497833252	fix_post	2		12	38.0	2.5	/experiments/knapen_AOT/AOT_stimuli/rescaled_final/1611_rv.mp4	0.0	213.899432182312	0.10000824928283691
41	194.47060322761536	fix_pre	0		120	39.0	2.5	/experiments/knapen_AOT/AOT_stimuli/rescaled_final/1274_rv.mp4	0.0	213.99944043159485	1.0084922313690186
41	195.47909545898438	movie	1		276	39.0	2.5	/experiments/knapen_AOT/AOT_stimuli/rescaled_final/1274_rv.mp4	0.0	215.00793266296387	2.492154598236084
41	195.85389947891235	pulse	1	t		39.0	2.5	/experiments/knapen_AOT/AOT_stimuli/rescaled_final/1274_rv.mp4	0.0	215.38273668289185	
41	197.45245361328125	pulse	1	t		39.0	2.5	/experiments/knapen_AOT/AOT_stimuli/rescaled_final/1274_rv.mp4	0.0	216.98129081726074	
41	197.97125005722046	fix_post	2		12	39.0	2.5	/experiments/knapen_AOT/AOT_stimuli/rescaled_final/1274_rv.mp4	0.0	217.50008726119995	0.09988570213317871
42	198.07113575935364	fix_pre	0		118	40.0	2.5	/experiments/knapen_AOT/AOT_stimuli/rescaled_final/1427_fw.mp4	0.0	217.59997296333313	0.9918389320373535
42	199.0467872619629	pulse	0	t		40.0	2.5	/experiments/knapen_AOT/AOT_stimuli/rescaled_final/1427_fw.mp4	0.0	218.57562446594238	
42	199.062974691391	movie	1		285	40.0	2.5	/experiments/knapen_AOT/AOT_stimuli/rescaled_final/1427_fw.mp4	0.0	218.59181189537048	2.5004045963287354
42	200.6469612121582	pulse	1	t		40.0	2.5	/experiments/knapen_AOT/AOT_stimuli/rescaled_final/1427_fw.mp4	0.0	220.1757984161377	
42	201.56337928771973	fix_post	2		12	40.0	2.5	/experiments/knapen_AOT/AOT_stimuli/rescaled_final/1427_fw.mp4	0.0	221.09221649169922	0.09995651245117188
43	201.6633358001709	fix_pre	0		120	41.0	2.5	/experiments/knapen_AOT/AOT_stimuli/rescaled_final/0339_fw.mp4	0.0	221.1921730041504	1.0086026191711426
43	202.247088432312	pulse	0	t		41.0	2.5	/experiments/knapen_AOT/AOT_stimuli/rescaled_final/0339_fw.mp4	0.0	221.7759256362915	
43	202.67193841934204	movie	1		276	41.0	2.5	/experiments/knapen_AOT/AOT_stimuli/rescaled_final/0339_fw.mp4	0.0	222.20077562332153	2.4919254779815674
43	203.84735584259033	pulse	1	t		41.0	2.5	/experiments/knapen_AOT/AOT_stimuli/rescaled_final/0339_fw.mp4	0.0	223.37619304656982	
43	205.1638638973236	fix_post	2		12	41.0	2.5	/experiments/knapen_AOT/AOT_stimuli/rescaled_final/0339_fw.mp4	0.0	224.6927011013031	0.10002326965332031
44	205.26388716697693	fix_pre	0		120	42.0	2.5	blank	1.0	224.79272437095642	1.0001513957977295
44	205.44743752479553	pulse	0	t		42.0	2.5	blank	1.0	224.97627472877502	
44	206.26403856277466	movie	1		300	42.0	2.5	blank	1.0	225.79287576675415	2.500364303588867
44	207.0477159023285	pulse	1	t		42.0	2.5	blank	1.0	226.57655310630798	
44	208.64796829223633	pulse	1	t		42.0	2.5	blank	1.0	228.17680549621582	
44	208.76440286636353	fix_post	2		12	42.0	2.5	blank	1.0	228.29324007034302	0.10003495216369629
45	208.86443781852722	fix_pre	0		120	43.0	2.5	/experiments/knapen_AOT/AOT_stimuli/rescaled_final/0964_fw.mp4	0.0	228.3932750225067	1.0084741115570068
45	209.87291193008423	movie	1		277	43.0	2.5	/experiments/knapen_AOT/AOT_stimuli/rescaled_final/0964_fw.mp4	0.0	229.40174913406372	2.492185592651367
45	210.24679803848267	pulse	1	t		43.0	2.5	/experiments/knapen_AOT/AOT_stimuli/rescaled_final/0964_fw.mp4	0.0	229.77563524246216	
45	211.8484547138214	pulse	1	t		43.0	2.5	/experiments/knapen_AOT/AOT_stimuli/rescaled_final/0964_fw.mp4	0.0	231.3772919178009	
45	212.3650975227356	fix_post	2		12	43.0	2.5	/experiments/knapen_AOT/AOT_stimuli/rescaled_final/0964_fw.mp4	0.0	231.8939347267151	0.09988713264465332
46	212.46498465538025	fix_pre	0		119	44.0	2.5	/experiments/knapen_AOT/AOT_stimuli/rescaled_final/0617_rv.mp4	0.0	231.99382185935974	1.0001368522644043
46	213.4486701488495	pulse	0	t		44.0	2.5	/experiments/knapen_AOT/AOT_stimuli/rescaled_final/0617_rv.mp4	0.0	232.97750735282898	
46	213.46512150764465	movie	1		282	44.0	2.5	/experiments/knapen_AOT/AOT_stimuli/rescaled_final/0617_rv.mp4	0.0	232.99395871162415	2.5003576278686523
46	215.04920101165771	pulse	1	t		44.0	2.5	/experiments/knapen_AOT/AOT_stimuli/rescaled_final/0617_rv.mp4	0.0	234.5780382156372	
46	215.9654791355133	fix_post	2		12	44.0	2.5	/experiments/knapen_AOT/AOT_stimuli/rescaled_final/0617_rv.mp4	0.0	235.4943163394928	0.10002589225769043
47	216.065505027771	fix_pre	0		120	45.0	2.5	/experiments/knapen_AOT/AOT_stimuli/rescaled_final/0244_rv.mp4	0.0	235.5943422317505	1.00850248336792
47	216.6491289138794	pulse	0	t		45.0	2.5	/experiments/knapen_AOT/AOT_stimuli/rescaled_final/0244_rv.mp4	0.0	236.1779661178589	
47	217.07400751113892	movie	1		260	45.0	2.5	/experiments/knapen_AOT/AOT_stimuli/rescaled_final/0244_rv.mp4	0.0	236.6028447151184	2.492027759552002
47	218.24850726127625	pulse	1	t		45.0	2.5	/experiments/knapen_AOT/AOT_stimuli/rescaled_final/0244_rv.mp4	0.0	237.77734446525574	
47	219.56603527069092	fix_post	2		12	45.0	2.5	/experiments/knapen_AOT/AOT_stimuli/rescaled_final/0244_rv.mp4	0.0	239.0948724746704	0.10000157356262207
48	219.66603684425354	fix_pre	0		120	46.0	2.5	/experiments/knapen_AOT/AOT_stimuli/rescaled_final/1958_rv.mp4	0.0	239.19487404823303	1.0085046291351318
48	219.84965538978577	pulse	0	t		46.0	2.5	/experiments/knapen_AOT/AOT_stimuli/rescaled_final/1958_rv.mp4	0.0	239.37849259376526	
48	220.67454147338867	movie	1		270	46.0	2.5	/experiments/knapen_AOT/AOT_stimuli/rescaled_final/1958_rv.mp4	0.0	240.20337867736816	2.4920337200164795
48	221.44781064987183	pulse	1	t		46.0	2.5	/experiments/knapen_AOT/AOT_stimuli/rescaled_final/1958_rv.mp4	0.0	240.97664785385132	
48	223.0499701499939	pulse	1	t		46.0	2.5	/experiments/knapen_AOT/AOT_stimuli/rescaled_final/1958_rv.mp4	0.0	242.5788073539734	
48	223.16657519340515	fix_post	2		12	46.0	2.5	/experiments/knapen_AOT/AOT_stimuli/rescaled_final/1958_rv.mp4	0.0	242.69541239738464	0.10015535354614258
49	223.2667305469513	fix_pre	0		120	47.0	2.5	/experiments/knapen_AOT/AOT_stimuli/rescaled_final/1835_rv.mp4	0.0	242.7955677509308	1.0083940029144287
49	224.27512454986572	movie	1		271	47.0	2.5	/experiments/knapen_AOT/AOT_stimuli/rescaled_final/1835_rv.mp4	0.0	243.80396175384521	2.4919910430908203
49	224.64915704727173	pulse	1	t		47.0	2.5	/experiments/knapen_AOT/AOT_stimuli/rescaled_final/1835_rv.mp4	0.0	244.17799425125122	
49	226.24983263015747	pulse	1	t		47.0	2.5	/experiments/knapen_AOT/AOT_stimuli/rescaled_final/1835_rv.mp4	0.0	245.77866983413696	
49	226.76711559295654	fix_post	2		12	47.0	2.5	/experiments/knapen_AOT/AOT_stimuli/rescaled_final/1835_rv.mp4	0.0	246.29595279693604	0.10004138946533203
50	226.86715698242188	fix_pre	0		119	48.0	2.5	blank	1.0	246.39599418640137	0.9917817115783691
50	227.85080099105835	pulse	0	t		48.0	2.5	blank	1.0	247.37963819503784	
50	227.85893869400024	movie	1		301	48.0	2.5	blank	1.0	247.38777589797974	2.508756637573242
50	229.451092004776	pulse	1	t		48.0	2.5	blank	1.0	248.9799292087555	
50	230.3676953315735	fix_post	2		12	48.0	2.5	blank	1.0	249.89653253555298	0.09998512268066406
51	230.46768045425415	fix_pre	0		120	49.0	2.5	/experiments/knapen_AOT/AOT_stimuli/rescaled_final/1019_fw.mp4	0.0	249.99651765823364	1.008474588394165
51	231.05128145217896	pulse	0	t		49.0	2.5	/experiments/knapen_AOT/AOT_stimuli/rescaled_final/1019_fw.mp4	0.0	250.58011865615845	
51	231.47615504264832	movie	1		277	49.0	2.5	/experiments/knapen_AOT/AOT_stimuli/rescaled_final/1019_fw.mp4	0.0	251.0049922466278	2.492037773132324
51	232.65146803855896	pulse	1	t		49.0	2.5	/experiments/knapen_AOT/AOT_stimuli/rescaled_final/1019_fw.mp4	0.0	252.18030524253845	
51	233.96819281578064	fix_post	2		12	49.0	2.5	/experiments/knapen_AOT/AOT_stimuli/rescaled_final/1019_fw.mp4	0.0	253.49703001976013	0.10000991821289062
52	234.06820273399353	fix_pre	0		120	50.0	2.5	/experiments/knapen_AOT/AOT_stimuli/rescaled_final/1925_fw.mp4	0.0	253.59703993797302	1.0085320472717285
52	234.2517373561859	pulse	0	t		50.0	2.5	/experiments/knapen_AOT/AOT_stimuli/rescaled_final/1925_fw.mp4	0.0	253.7805745601654	
52	235.07673478126526	movie	1		272	50.0	2.5	/experiments/knapen_AOT/AOT_stimuli/rescaled_final/1925_fw.mp4	0.0	254.60557198524475	2.4920217990875244
52	235.85107922554016	pulse	1	t		50.0	2.5	/experiments/knapen_AOT/AOT_stimuli/rescaled_final/1925_fw.mp4	0.0	255.37991642951965	
52	237.45029735565186	pulse	1	t		50.0	2.5	/experiments/knapen_AOT/AOT_stimuli/rescaled_final/1925_fw.mp4	0.0	256.97913455963135	
52	237.56875658035278	fix_post	2		12	50.0	2.5	/experiments/knapen_AOT/AOT_stimuli/rescaled_final/1925_fw.mp4	0.0	257.0975937843323	0.10001659393310547
53	237.6687731742859	fix_pre	0		120	51.0	2.5	/experiments/knapen_AOT/AOT_stimuli/rescaled_final/0466_rv.mp4	0.0	257.1976103782654	1.0084607601165771
53	238.67723393440247	movie	1		285	51.0	2.5	/experiments/knapen_AOT/AOT_stimuli/rescaled_final/0466_rv.mp4	0.0	258.20607113838196	2.4920644760131836
53	239.05093622207642	pulse	1	t		51.0	2.5	/experiments/knapen_AOT/AOT_stimuli/rescaled_final/0466_rv.mp4	0.0	258.5797734260559	
53	240.65060997009277	pulse	1	t		51.0	2.5	/experiments/knapen_AOT/AOT_stimuli/rescaled_final/0466_rv.mp4	0.0	260.17944717407227	
53	241.16929841041565	fix_post	2		12	51.0	2.5	/experiments/knapen_AOT/AOT_stimuli/rescaled_final/0466_rv.mp4	0.0	260.69813561439514	0.09998750686645508
54	241.2692859172821	fix_pre	0		119	52.0	2.5	/experiments/knapen_AOT/AOT_stimuli/rescaled_final/1100_fw.mp4	0.0	260.7981231212616	1.0001742839813232
54	242.25298833847046	pulse	0	t		52.0	2.5	/experiments/knapen_AOT/AOT_stimuli/rescaled_final/1100_fw.mp4	0.0	261.78182554244995	
54	242.26946020126343	movie	1		280	52.0	2.5	/experiments/knapen_AOT/AOT_stimuli/rescaled_final/1100_fw.mp4	0.0	261.7982974052429	2.5003821849823
54	243.85195326805115	pulse	1	t		52.0	2.5	/experiments/knapen_AOT/AOT_stimuli/rescaled_final/1100_fw.mp4	0.0	263.38079047203064	
54	244.76984238624573	fix_post	2		12	52.0	2.5	/experiments/knapen_AOT/AOT_stimuli/rescaled_final/1100_fw.mp4	0.0	264.2986795902252	0.10001087188720703
55	244.86985325813293	fix_pre	0		120	53.0	2.5	/experiments/knapen_AOT/AOT_stimuli/rescaled_final/1611_rv.mp4	0.0	264.3986904621124	1.0085015296936035
55	245.45347332954407	pulse	0	t		53.0	2.5	/experiments/knapen_AOT/AOT_stimuli/rescaled_final/1611_rv.mp4	0.0	264.98231053352356	
55	245.87835478782654	movie	1		276	53.0	2.5	/experiments/knapen_AOT/AOT_stimuli/rescaled_final/1611_rv.mp4	0.0	265.40719199180603	2.4920454025268555
55	247.05196332931519	pulse	1	t		53.0	2.5	/experiments/knapen_AOT/AOT_stimuli/rescaled_final/1611_rv.mp4	0.0	266.5808005332947	
55	248.3704001903534	fix_post	2		12	53.0	2.5	/experiments/knapen_AOT/AOT_stimuli/rescaled_final/1611_rv.mp4	0.0	267.8992373943329	0.09999632835388184
56	248.47039651870728	fix_pre	0		120	54.0	2.5	/experiments/knapen_AOT/AOT_stimuli/rescaled_final/0239_fw.mp4	0.0	267.99923372268677	1.0084819793701172
56	248.65394377708435	pulse	0	t		54.0	2.5	/experiments/knapen_AOT/AOT_stimuli/rescaled_final/0239_fw.mp4	0.0	268.18278098106384	
56	249.4788784980774	movie	1		285	54.0	2.5	/experiments/knapen_AOT/AOT_stimuli/rescaled_final/0239_fw.mp4	0.0	269.0077157020569	2.4920332431793213
56	250.25208353996277	pulse	1	t		54.0	2.5	/experiments/knapen_AOT/AOT_stimuli/rescaled_final/0239_fw.mp4	0.0	269.78092074394226	
56	251.85250878334045	pulse	1	t		54.0	2.5	/experiments/knapen_AOT/AOT_stimuli/rescaled_final/0239_fw.mp4	0.0	271.38134598731995	
56	251.9709117412567	fix_post	2		12	54.0	2.5	/experiments/knapen_AOT/AOT_stimuli/rescaled_final/0239_fw.mp4	0.0	271.4997489452362	0.09999704360961914
57	252.07090878486633	fix_pre	0		120	55.0	2.5	/experiments/knapen_AOT/AOT_stimuli/rescaled_final/1077_fw.mp4	0.0	271.5997459888458	1.0085136890411377
57	253.07942247390747	movie	1		270	55.0	2.5	/experiments/knapen_AOT/AOT_stimuli/rescaled_final/1077_fw.mp4	0.0	272.60825967788696	2.492039680480957
57	253.45412135124207	pulse	1	t		55.0	2.5	/experiments/knapen_AOT/AOT_stimuli/rescaled_final/1077_fw.mp4	0.0	272.98295855522156	
57	255.05289793014526	pulse	1	t		55.0	2.5	/experiments/knapen_AOT/AOT_stimuli/rescaled_final/1077_fw.mp4	0.0	274.58173513412476	
57	255.57146215438843	fix_post	2		12	55.0	2.5	/experiments/knapen_AOT/AOT_stimuli/rescaled_final/1077_fw.mp4	0.0	275.1002993583679	0.09999465942382812
58	255.67145681381226	fix_pre	0		119	56.0	2.5	blank	1.0	275.20029401779175	0.9918198585510254
58	256.6472384929657	pulse	0	t		56.0	2.5	blank	1.0	276.1760756969452	
58	256.6632766723633	movie	1		301	56.0	2.5	blank	1.0	276.1921138763428	2.508697748184204
58	258.247261762619	pulse	1	t		56.0	2.5	blank	1.0	277.7760989665985	
58	259.1719744205475	fix_post	2		12	56.0	2.5	blank	1.0	278.700811624527	0.10002756118774414
59	259.27200198173523	fix_pre	0		120	57.0	2.5	/experiments/knapen_AOT/AOT_stimuli/rescaled_final/0234_fw.mp4	0.0	278.8008391857147	1.0085246562957764
59	259.8475284576416	pulse	0	t		57.0	2.5	/experiments/knapen_AOT/AOT_stimuli/rescaled_final/0234_fw.mp4	0.0	279.3763656616211	
59	260.280526638031	movie	1		276	57.0	2.5	/experiments/knapen_AOT/AOT_stimuli/rescaled_final/0234_fw.mp4	0.0	279.8093638420105	2.4919817447662354
59	261.45621848106384	pulse	1	t		57.0	2.5	/experiments/knapen_AOT/AOT_stimuli/rescaled_final/0234_fw.mp4	0.0	280.98505568504333	
59	262.77250838279724	fix_post	2		12	57.0	2.5	/experiments/knapen_AOT/AOT_stimuli/rescaled_final/0234_fw.mp4	0.0	282.30134558677673	0.09998106956481934
60	262.87248945236206	fix_pre	0		120	58.0	2.5	/experiments/knapen_AOT/AOT_stimuli/rescaled_final/1468_fw.mp4	0.0	282.40132665634155	1.0085406303405762
60	263.0479426383972	pulse	0	t		58.0	2.5	/experiments/knapen_AOT/AOT_stimuli/rescaled_final/1468_fw.mp4	0.0	282.5767798423767	
60	263.88103008270264	movie	1		273	58.0	2.5	/experiments/knapen_AOT/AOT_stimuli/rescaled_final/1468_fw.mp4	0.0	283.40986728668213	2.4920573234558105
60	264.64814853668213	pulse	1	t		58.0	2.5	/experiments/knapen_AOT/AOT_stimuli/rescaled_final/1468_fw.mp4	0.0	284.1769857406616	
60	266.2482602596283	pulse	1	t		58.0	2.5	/experiments/knapen_AOT/AOT_stimuli/rescaled_final/1468_fw.mp4	0.0	285.7770974636078	
60	266.37308740615845	fix_post	2		12	58.0	2.5	/experiments/knapen_AOT/AOT_stimuli/rescaled_final/1468_fw.mp4	0.0	285.90192461013794	0.09999489784240723
61	266.47308230400085	fix_pre	0		120	59.0	2.5	/experiments/knapen_AOT/AOT_stimuli/rescaled_final/1978_fw.mp4	0.0	286.00191950798035	1.0085539817810059
61	267.48163628578186	movie	1		281	59.0	2.5	/experiments/knapen_AOT/AOT_stimuli/rescaled_final/1978_fw.mp4	0.0	287.01047348976135	2.4920148849487305
61	267.84634613990784	pulse	1	t		59.0	2.5	/experiments/knapen_AOT/AOT_stimuli/rescaled_final/1978_fw.mp4	0.0	287.37518334388733	
61	269.4491539001465	pulse	1	t		59.0	2.5	/experiments/knapen_AOT/AOT_stimuli/rescaled_final/1978_fw.mp4	0.0	288.977991104126	
61	269.9736511707306	fix_post	2		12	59.0	2.5	/experiments/knapen_AOT/AOT_stimuli/rescaled_final/1978_fw.mp4	0.0	289.5024883747101	0.10000276565551758
62	270.0736539363861	fix_pre	0		118	60.0	2.5	/experiments/knapen_AOT/AOT_stimuli/rescaled_final/0077_fw.mp4	0.0	289.6024911403656	0.9917998313903809
62	271.0489525794983	pulse	0	t		60.0	2.5	/experiments/knapen_AOT/AOT_stimuli/rescaled_final/0077_fw.mp4	0.0	290.5777897834778	
62	271.0654537677765	movie	1		282	60.0	2.5	/experiments/knapen_AOT/AOT_stimuli/rescaled_final/0077_fw.mp4	0.0	290.594290971756	2.5003483295440674
62	272.64776062965393	pulse	1	t		60.0	2.5	/experiments/knapen_AOT/AOT_stimuli/rescaled_final/0077_fw.mp4	0.0	292.1765978336334	
62	273.56580209732056	fix_post	2		12	60.0	2.5	/experiments/knapen_AOT/AOT_stimuli/rescaled_final/0077_fw.mp4	0.0	293.09463930130005	0.10004925727844238
63	273.665851354599	fix_pre	0		120	61.0	2.5	/experiments/knapen_AOT/AOT_stimuli/rescaled_final/1588_rv.mp4	0.0	293.1946885585785	1.0085301399230957
63	274.24943947792053	pulse	0	t		61.0	2.5	/experiments/knapen_AOT/AOT_stimuli/rescaled_final/1588_rv.mp4	0.0	293.7782766819	
63	274.6743814945221	movie	1		285	61.0	2.5	/experiments/knapen_AOT/AOT_stimuli/rescaled_final/1588_rv.mp4	0.0	294.2032186985016	2.492014169692993
63	275.84815192222595	pulse	1	t		61.0	2.5	/experiments/knapen_AOT/AOT_stimuli/rescaled_final/1588_rv.mp4	0.0	295.37698912620544	
63	277.1663956642151	fix_post	2		12	61.0	2.5	/experiments/knapen_AOT/AOT_stimuli/rescaled_final/1588_rv.mp4	0.0	296.6952328681946	0.09997940063476562
64	277.26637506484985	fix_pre	0		120	62.0	2.5	blank	1.0	296.79521226882935	1.0001416206359863
64	277.4500091075897	pulse	0	t		62.0	2.5	blank	1.0	296.9788463115692	
64	278.26651668548584	movie	1		300	62.0	2.5	blank	1.0	297.79535388946533	2.500385046005249
64	279.0501961708069	pulse	1	t		62.0	2.5	blank	1.0	298.5790333747864	
64	280.6503586769104	pulse	1	t		62.0	2.5	blank	1.0	300.1791958808899	
64	280.7669017314911	fix_post	2		12	62.0	2.5	blank	1.0	300.2957389354706	0.10001063346862793
65	280.8669123649597	fix_pre	0		120	63.0	2.5	/experiments/knapen_AOT/AOT_stimuli/rescaled_final/1058_fw.mp4	0.0	300.3957495689392	1.008481740951538
65	281.87539410591125	movie	1		281	63.0	2.5	/experiments/knapen_AOT/AOT_stimuli/rescaled_final/1058_fw.mp4	0.0	301.40423130989075	2.4920644760131836
65	282.2500419616699	pulse	1	t		63.0	2.5	/experiments/knapen_AOT/AOT_stimuli/rescaled_final/1058_fw.mp4	0.0	301.7788791656494	
65	283.84848499298096	pulse	1	t		63.0	2.5	/experiments/knapen_AOT/AOT_stimuli/rescaled_final/1058_fw.mp4	0.0	303.37732219696045	
65	284.36745858192444	fix_post	2		12	63.0	2.5	/experiments/knapen_AOT/AOT_stimuli/rescaled_final/1058_fw.mp4	0.0	303.89629578590393	0.09999823570251465
66	284.46745681762695	fix_pre	0		119	64.0	2.5	/experiments/knapen_AOT/AOT_stimuli/rescaled_final/0964_rv.mp4	0.0	303.99629402160645	1.0002107620239258
66	285.4511806964874	pulse	0	t		64.0	2.5	/experiments/knapen_AOT/AOT_stimuli/rescaled_final/0964_rv.mp4	0.0	304.9800179004669	
66	285.4676675796509	movie	1		283	64.0	2.5	/experiments/knapen_AOT/AOT_stimuli/rescaled_final/0964_rv.mp4	0.0	304.99650478363037	2.5003111362457275
66	287.0517919063568	pulse	1	t		64.0	2.5	/experiments/knapen_AOT/AOT_stimuli/rescaled_final/0964_rv.mp4	0.0	306.5806291103363	
66	287.9679787158966	fix_post	2		12	64.0	2.5	/experiments/knapen_AOT/AOT_stimuli/rescaled_final/0964_rv.mp4	0.0	307.4968159198761	0.10006523132324219
67	288.06804394721985	fix_pre	0		120	65.0	2.5	/experiments/knapen_AOT/AOT_stimuli/rescaled_final/1774_fw.mp4	0.0	307.59688115119934	1.0084547996520996
67	288.651602268219	pulse	0	t		65.0	2.5	/experiments/knapen_AOT/AOT_stimuli/rescaled_final/1774_fw.mp4	0.0	308.1804394721985	
67	289.07649874687195	movie	1		281	65.0	2.5	/experiments/knapen_AOT/AOT_stimuli/rescaled_final/1774_fw.mp4	0.0	308.60533595085144	2.49202036857605
67	290.25001096725464	pulse	1	t		65.0	2.5	/experiments/knapen_AOT/AOT_stimuli/rescaled_final/1774_fw.mp4	0.0	309.77884817123413	
67	291.568519115448	fix_post	2		12	65.0	2.5	/experiments/knapen_AOT/AOT_stimuli/rescaled_final/1774_fw.mp4	0.0	311.0973563194275	0.10001182556152344
68	291.6685309410095	fix_pre	0		120	66.0	2.5	/experiments/knapen_AOT/AOT_stimuli/rescaled_final/0488_fw.mp4	0.0	311.197368144989	1.0085062980651855
68	291.8521776199341	pulse	0	t		66.0	2.5	/experiments/knapen_AOT/AOT_stimuli/rescaled_final/0488_fw.mp4	0.0	311.3810148239136	
68	292.6770372390747	movie	1		271	66.0	2.5	/experiments/knapen_AOT/AOT_stimuli/rescaled_final/0488_fw.mp4	0.0	312.2058744430542	2.4920520782470703
68	293.45053243637085	pulse	1	t		66.0	2.5	/experiments/knapen_AOT/AOT_stimuli/rescaled_final/0488_fw.mp4	0.0	312.97936964035034	
68	295.05163764953613	pulse	1	t		66.0	2.5	/experiments/knapen_AOT/AOT_stimuli/rescaled_final/0488_fw.mp4	0.0	314.5804748535156	
68	295.1690893173218	fix_post	2		12	66.0	2.5	/experiments/knapen_AOT/AOT_stimuli/rescaled_final/0488_fw.mp4	0.0	314.69792652130127	0.10006284713745117
69	295.26915216445923	fix_pre	0		120	67.0	2.5	/experiments/knapen_AOT/AOT_stimuli/rescaled_final/0512_fw.mp4	0.0	314.7979893684387	1.0084381103515625
69	296.2775902748108	movie	1		292	67.0	2.5	/experiments/knapen_AOT/AOT_stimuli/rescaled_final/0512_fw.mp4	0.0	315.8064274787903	2.4920191764831543
69	296.651047706604	pulse	1	t		67.0	2.5	/experiments/knapen_AOT/AOT_stimuli/rescaled_final/0512_fw.mp4	0.0	316.1798849105835	
69	298.25146222114563	pulse	1	t		67.0	2.5	/experiments/knapen_AOT/AOT_stimuli/rescaled_final/0512_fw.mp4	0.0	317.7802994251251	
69	298.76960945129395	fix_post	2		12	67.0	2.5	/experiments/knapen_AOT/AOT_stimuli/rescaled_final/0512_fw.mp4	0.0	318.29844665527344	0.10003399848937988
70	298.8696434497833	fix_pre	0		119	68.0	2.5	blank	1.0	318.3984806537628	0.9917905330657959
70	299.8535706996918	pulse	0	t		68.0	2.5	blank	1.0	319.38240790367126	
70	299.8614339828491	movie	1		301	68.0	2.5	blank	1.0	319.3902711868286	2.5087006092071533
70	301.44684624671936	pulse	1	t		68.0	2.5	blank	1.0	320.97568345069885	
70	302.3701345920563	fix_post	2		12	68.0	2.5	blank	1.0	321.89897179603577	0.10002398490905762
71	302.47015857696533	fix_pre	0		120	69.0	2.5	/experiments/knapen_AOT/AOT_stimuli/rescaled_final/1256_fw.mp4	0.0	321.9989957809448	1.0084991455078125
71	303.05386185646057	pulse	0	t		69.0	2.5	/experiments/knapen_AOT/AOT_stimuli/rescaled_final/1256_fw.mp4	0.0	322.58269906044006	
71	303.47865772247314	movie	1		284	69.0	2.5	/experiments/knapen_AOT/AOT_stimuli/rescaled_final/1256_fw.mp4	0.0	323.00749492645264	2.4920263290405273
71	304.6519055366516	pulse	1	t		69.0	2.5	/experiments/knapen_AOT/AOT_stimuli/rescaled_final/1256_fw.mp4	0.0	324.1807427406311	
71	305.9706840515137	fix_post	2		12	69.0	2.5	/experiments/knapen_AOT/AOT_stimuli/rescaled_final/1256_fw.mp4	0.0	325.49952125549316	0.10004162788391113
72	306.0707256793976	fix_pre	0		120	70.0	2.5	/experiments/knapen_AOT/AOT_stimuli/rescaled_final/1123_rv.mp4	0.0	325.5995628833771	1.0085256099700928
72	306.24667978286743	pulse	0	t		70.0	2.5	/experiments/knapen_AOT/AOT_stimuli/rescaled_final/1123_rv.mp4	0.0	325.7755169868469	
72	307.0792512893677	movie	1		280	70.0	2.5	/experiments/knapen_AOT/AOT_stimuli/rescaled_final/1123_rv.mp4	0.0	326.60808849334717	2.491966485977173
72	307.85249423980713	pulse	1	t		70.0	2.5	/experiments/knapen_AOT/AOT_stimuli/rescaled_final/1123_rv.mp4	0.0	327.3813314437866	
72	309.4466893672943	pulse	1	t		70.0	2.5	/experiments/knapen_AOT/AOT_stimuli/rescaled_final/1123_rv.mp4	0.0	328.9755265712738	
72	309.57121777534485	fix_post	2		12	70.0	2.5	/experiments/knapen_AOT/AOT_stimuli/rescaled_final/1123_rv.mp4	0.0	329.10005497932434	0.10003161430358887
73	309.67124938964844	fix_pre	0		120	71.0	2.5	/experiments/knapen_AOT/AOT_stimuli/rescaled_final/0985_fw.mp4	0.0	329.20008659362793	1.0085065364837646
73	310.6797559261322	movie	1		281	71.0	2.5	/experiments/knapen_AOT/AOT_stimuli/rescaled_final/0985_fw.mp4	0.0	330.2085931301117	2.4920480251312256
73	311.0469250679016	pulse	1	t		71.0	2.5	/experiments/knapen_AOT/AOT_stimuli/rescaled_final/0985_fw.mp4	0.0	330.5757622718811	
73	312.64719223976135	pulse	1	t		71.0	2.5	/experiments/knapen_AOT/AOT_stimuli/rescaled_final/0985_fw.mp4	0.0	332.17602944374084	
73	313.1718039512634	fix_post	2		12	71.0	2.5	/experiments/knapen_AOT/AOT_stimuli/rescaled_final/0985_fw.mp4	0.0	332.7006411552429	0.10001873970031738
74	313.27182269096375	fix_pre	0		118	72.0	2.5	/experiments/knapen_AOT/AOT_stimuli/rescaled_final/1404_fw.mp4	0.0	332.80065989494324	0.9918570518493652
74	314.2471981048584	pulse	0	t		72.0	2.5	/experiments/knapen_AOT/AOT_stimuli/rescaled_final/1404_fw.mp4	0.0	333.7760353088379	
74	314.2636797428131	movie	1		275	72.0	2.5	/experiments/knapen_AOT/AOT_stimuli/rescaled_final/1404_fw.mp4	0.0	333.7925169467926	2.500291109085083
74	315.8473355770111	pulse	1	t		72.0	2.5	/experiments/knapen_AOT/AOT_stimuli/rescaled_final/1404_fw.mp4	0.0	335.3761727809906	
74	316.7639708518982	fix_post	2		12	72.0	2.5	/experiments/knapen_AOT/AOT_stimuli/rescaled_final/1404_fw.mp4	0.0	336.2928080558777	0.10007739067077637
75	316.86404824256897	fix_pre	0		120	73.0	2.5	/experiments/knapen_AOT/AOT_stimuli/rescaled_final/0895_rv.mp4	0.0	336.39288544654846	1.0084805488586426
75	317.4476990699768	pulse	0	t		73.0	2.5	/experiments/knapen_AOT/AOT_stimuli/rescaled_final/0895_rv.mp4	0.0	336.9765362739563	
75	317.8725287914276	movie	1		277	73.0	2.5	/experiments/knapen_AOT/AOT_stimuli/rescaled_final/0895_rv.mp4	0.0	337.4013659954071	2.4919803142547607
75	319.04819989204407	pulse	1	t		73.0	2.5	/experiments/knapen_AOT/AOT_stimuli/rescaled_final/0895_rv.mp4	0.0	338.57703709602356	
75	320.3645091056824	fix_post	2		12	73.0	2.5	/experiments/knapen_AOT/AOT_stimuli/rescaled_final/0895_rv.mp4	0.0	339.89334630966187	0.10003137588500977
76	320.4645404815674	fix_pre	0		120	74.0	2.5	/experiments/knapen_AOT/AOT_stimuli/rescaled_final/1978_fw.mp4	0.0	339.9933776855469	1.0085270404815674
76	320.6480977535248	pulse	0	t		74.0	2.5	/experiments/knapen_AOT/AOT_stimuli/rescaled_final/1978_fw.mp4	0.0	340.1769349575043	
76	321.47306752204895	movie	1		279	74.0	2.5	/experiments/knapen_AOT/AOT_stimuli/rescaled_final/1978_fw.mp4	0.0	341.00190472602844	2.491992473602295
76	322.2483422756195	pulse	1	t		74.0	2.5	/experiments/knapen_AOT/AOT_stimuli/rescaled_final/1978_fw.mp4	0.0	341.777179479599	
76	323.8482668399811	pulse	1	t		74.0	2.5	/experiments/knapen_AOT/AOT_stimuli/rescaled_final/1978_fw.mp4	0.0	343.37710404396057	
76	323.96505999565125	fix_post	2		12	74.0	2.5	/experiments/knapen_AOT/AOT_stimuli/rescaled_final/1978_fw.mp4	0.0	343.49389719963074	0.1000211238861084
77	324.06508111953735	fix_pre	0		120	75.0	2.5	/experiments/knapen_AOT/AOT_stimuli/rescaled_final/0972_fw.mp4	0.0	343.59391832351685	1.0084857940673828
77	325.07356691360474	movie	1		279	75.0	2.5	/experiments/knapen_AOT/AOT_stimuli/rescaled_final/0972_fw.mp4	0.0	344.60240411758423	2.4921107292175293
77	325.4474618434906	pulse	1	t		75.0	2.5	/experiments/knapen_AOT/AOT_stimuli/rescaled_final/0972_fw.mp4	0.0	344.9762990474701	
77	327.04748606681824	pulse	1	t		75.0	2.5	/experiments/knapen_AOT/AOT_stimuli/rescaled_final/0972_fw.mp4	0.0	346.57632327079773	
77	327.56567764282227	fix_post	2		12	75.0	2.5	/experiments/knapen_AOT/AOT_stimuli/rescaled_final/0972_fw.mp4	0.0	347.09451484680176	0.10000419616699219
78	327.66568183898926	fix_pre	0		119	76.0	2.5	blank	1.0	347.19451904296875	0.991713285446167
78	328.6493902206421	pulse	0	t		76.0	2.5	blank	1.0	348.1782274246216	
78	328.6573951244354	movie	1		301	76.0	2.5	blank	1.0	348.1862323284149	2.508774757385254
78	330.24952721595764	pulse	1	t		76.0	2.5	blank	1.0	349.77836441993713	
78	331.1661698818207	fix_post	2		12	76.0	2.5	blank	1.0	350.69500708580017	0.10003280639648438
79	331.26620268821716	fix_pre	0		120	77.0	2.5	/experiments/knapen_AOT/AOT_stimuli/rescaled_final/0488_rv.mp4	0.0	350.79503989219666	1.008406162261963
79	331.8497898578644	pulse	0	t		77.0	2.5	/experiments/knapen_AOT/AOT_stimuli/rescaled_final/0488_rv.mp4	0.0	351.3786270618439	
79	332.2746088504791	movie	1		286	77.0	2.5	/experiments/knapen_AOT/AOT_stimuli/rescaled_final/0488_rv.mp4	0.0	351.8034460544586	2.492159843444824
79	333.4483759403229	pulse	1	t		77.0	2.5	/experiments/knapen_AOT/AOT_stimuli/rescaled_final/0488_rv.mp4	0.0	352.97721314430237	
79	334.76676869392395	fix_post	2		12	77.0	2.5	/experiments/knapen_AOT/AOT_stimuli/rescaled_final/0488_rv.mp4	0.0	354.29560589790344	0.09995079040527344
80	334.8667194843292	fix_pre	0		120	78.0	2.5	/experiments/knapen_AOT/AOT_stimuli/rescaled_final/0960_rv.mp4	0.0	354.3955566883087	1.008554220199585
80	335.0502734184265	pulse	0	t		78.0	2.5	/experiments/knapen_AOT/AOT_stimuli/rescaled_final/0960_rv.mp4	0.0	354.579110622406	
80	335.8752737045288	movie	1		286	78.0	2.5	/experiments/knapen_AOT/AOT_stimuli/rescaled_final/0960_rv.mp4	0.0	355.4041109085083	2.491942882537842
80	336.6485288143158	pulse	1	t		78.0	2.5	/experiments/knapen_AOT/AOT_stimuli/rescaled_final/0960_rv.mp4	0.0	356.1773660182953	
80	338.2489221096039	pulse	1	t		78.0	2.5	/experiments/knapen_AOT/AOT_stimuli/rescaled_final/0960_rv.mp4	0.0	357.7777593135834	
80	338.36721658706665	fix_post	2		12	78.0	2.5	/experiments/knapen_AOT/AOT_stimuli/rescaled_final/0960_rv.mp4	0.0	357.89605379104614	0.10002374649047852
81	338.46724033355713	fix_pre	0		120	79.0	2.5	/experiments/knapen_AOT/AOT_stimuli/rescaled_final/0363_fw.mp4	0.0	357.9960775375366	1.008530855178833
81	339.47577118873596	movie	1		280	79.0	2.5	/experiments/knapen_AOT/AOT_stimuli/rescaled_final/0363_fw.mp4	0.0	359.00460839271545	2.4919848442077637
81	339.8491280078888	pulse	1	t		79.0	2.5	/experiments/knapen_AOT/AOT_stimuli/rescaled_final/0363_fw.mp4	0.0	359.3779652118683	
81	341.4503083229065	pulse	1	t		79.0	2.5	/experiments/knapen_AOT/AOT_stimuli/rescaled_final/0363_fw.mp4	0.0	360.979145526886	
81	341.9677560329437	fix_post	2		12	79.0	2.5	/experiments/knapen_AOT/AOT_stimuli/rescaled_final/0363_fw.mp4	0.0	361.4965932369232	0.10002017021179199
82	342.0677762031555	fix_pre	0		119	80.0	2.5	/experiments/knapen_AOT/AOT_stimuli/rescaled_final/1602_fw.mp4	0.0	361.596613407135	1.0001335144042969
82	343.05149936676025	pulse	0	t		80.0	2.5	/experiments/knapen_AOT/AOT_stimuli/rescaled_final/1602_fw.mp4	0.0	362.58033657073975	
82	343.0679097175598	movie	1		282	80.0	2.5	/experiments/knapen_AOT/AOT_stimuli/rescaled_final/1602_fw.mp4	0.0	362.5967469215393	2.5003840923309326
82	344.6517741680145	pulse	1	t		80.0	2.5	/experiments/knapen_AOT/AOT_stimuli/rescaled_final/1602_fw.mp4	0.0	364.180611371994	
82	345.56829380989075	fix_post	2		12	80.0	2.5	/experiments/knapen_AOT/AOT_stimuli/rescaled_final/1602_fw.mp4	0.0	365.09713101387024	0.10003232955932617
83	345.6683261394501	fix_pre	0		120	81.0	2.5	/experiments/knapen_AOT/AOT_stimuli/rescaled_final/0912_fw.mp4	0.0	365.19716334342957	1.008500337600708
83	346.2519268989563	pulse	0	t		81.0	2.5	/experiments/knapen_AOT/AOT_stimuli/rescaled_final/0912_fw.mp4	0.0	365.7807641029358	
83	346.6768264770508	movie	1		280	81.0	2.5	/experiments/knapen_AOT/AOT_stimuli/rescaled_final/0912_fw.mp4	0.0	366.2056636810303	2.4919960498809814
83	347.8501937389374	pulse	1	t		81.0	2.5	/experiments/knapen_AOT/AOT_stimuli/rescaled_final/0912_fw.mp4	0.0	367.37903094291687	
83	349.16882252693176	fix_post	2		12	81.0	2.5	/experiments/knapen_AOT/AOT_stimuli/rescaled_final/0912_fw.mp4	0.0	368.69765973091125	0.10005736351013184
84	349.2688798904419	fix_pre	0		120	82.0	2.5	/experiments/knapen_AOT/AOT_stimuli/rescaled_final/1172_fw.mp4	0.0	368.7977170944214	1.008521556854248
84	349.4524435997009	pulse	0	t		82.0	2.5	/experiments/knapen_AOT/AOT_stimuli/rescaled_final/1172_fw.mp4	0.0	368.9812808036804	
84	350.27740144729614	movie	1		279	82.0	2.5	/experiments/knapen_AOT/AOT_stimuli/rescaled_final/1172_fw.mp4	0.0	369.80623865127563	2.492002010345459
84	351.0508062839508	pulse	1	t		82.0	2.5	/experiments/knapen_AOT/AOT_stimuli/rescaled_final/1172_fw.mp4	0.0	370.5796434879303	
84	352.6510126590729	pulse	1	t		82.0	2.5	/experiments/knapen_AOT/AOT_stimuli/rescaled_final/1172_fw.mp4	0.0	372.17984986305237	
84	352.7694034576416	fix_post	2		12	82.0	2.5	/experiments/knapen_AOT/AOT_stimuli/rescaled_final/1172_fw.mp4	0.0	372.2982406616211	0.10000944137573242
85	352.86941289901733	fix_pre	0		120	83.0	2.5	blank	1.0	372.3982501029968	1.0002198219299316
85	353.86963272094727	movie	1		300	83.0	2.5	blank	1.0	373.39846992492676	2.5002825260162354
85	354.2531592845917	pulse	1	t		83.0	2.5	blank	1.0	373.78199648857117	
85	355.8533613681793	pulse	1	t		83.0	2.5	blank	1.0	375.3821985721588	
85	356.3699152469635	fix_post	2		12	83.0	2.5	blank	1.0	375.898752450943	0.10000395774841309
87	356.4699192047119	stim	0		1715					375.9987564086914	14.293885946273804
87	357.453706741333	pulse	0	t						376.9825439453125	
87	359.0539586544037	pulse	0	t						378.5827958583832	
87	360.6541392803192	pulse	0	t						380.1829764842987	
87	362.24763441085815	pulse	0	t						381.77647161483765	
87	363.8546667098999	pulse	0	t						383.3835039138794	
87	365.44697523117065	pulse	0	t						384.97581243515015	
87	367.0469377040863	pulse	0	t						386.5757749080658	
87	368.64696979522705	pulse	0	t						388.17580699920654	
87	370.2472183704376	pulse	0	t						389.7760555744171	
