trial_nr	onset	event_type	phase	response	nr_frames	movie_index	movie_duration	movie_file	blank	onset_abs	duration
0	0.17493319511413574	stim	0		55					16.307007789611816	0.4583899974822998
0	0.6251769065856934	response	0	space						16.757251501083374	
1	0.6333231925964355	stim	0		4991					16.765397787094116	41.608527183532715
1	42.23166346549988	pulse	0	t						58.36373805999756	
1	42.24185037612915	stim	1		1715					58.37392497062683	14.299895524978638
1	43.823405265808105	pulse	1	t						59.955479860305786	
1	45.423598527908325	pulse	1	t						61.555673122406006	
1	47.023919343948364	pulse	1	t						63.155993938446045	
1	48.616169691085815	pulse	1	t						64.7482442855835	
1	50.21618103981018	pulse	1	t						66.34825563430786	
1	51.816253900527954	pulse	1	t						67.94832849502563	
1	53.41663408279419	pulse	1	t						69.54870867729187	
1	55.016740798950195	pulse	1	t						71.14881539344788	
2	56.54174590110779	fix_pre	0		10	0.0	2.5	/experiments/Knapen_AOT/AOT_stimuli/rescaled_final/0579_fw.mp4	0.0	72.67382049560547	0.10013794898986816
2	56.61751651763916	pulse	0	t		0.0	2.5	/experiments/Knapen_AOT/AOT_stimuli/rescaled_final/0579_fw.mp4	0.0	72.74959111213684	
2	56.641883850097656	movie	1		289	0.0	2.5	/experiments/Knapen_AOT/AOT_stimuli/rescaled_final/0579_fw.mp4	0.0	72.77395844459534	2.4919323921203613
2	58.21750807762146	pulse	1	t		0.0	2.5	/experiments/Knapen_AOT/AOT_stimuli/rescaled_final/0579_fw.mp4	0.0	74.34958267211914	
2	59.13381624221802	fix_post	2		12	0.0	2.5	/experiments/Knapen_AOT/AOT_stimuli/rescaled_final/0579_fw.mp4	0.0	75.2658908367157	0.10001397132873535
3	59.23383021354675	fix_pre	0		120	1.0	2.5	/experiments/Knapen_AOT/AOT_stimuli/rescaled_final/0200_rv.mp4	0.0	75.36590480804443	1.0085227489471436
3	59.817583084106445	pulse	0	t		1.0	2.5	/experiments/Knapen_AOT/AOT_stimuli/rescaled_final/0200_rv.mp4	0.0	75.94965767860413	
3	60.2423529624939	movie	1		284	1.0	2.5	/experiments/Knapen_AOT/AOT_stimuli/rescaled_final/0200_rv.mp4	0.0	76.37442755699158	2.4919941425323486
3	61.41772508621216	pulse	1	t		1.0	2.5	/experiments/Knapen_AOT/AOT_stimuli/rescaled_final/0200_rv.mp4	0.0	77.54979968070984	
3	62.734347105026245	fix_post	2		12	1.0	2.5	/experiments/Knapen_AOT/AOT_stimuli/rescaled_final/0200_rv.mp4	0.0	78.86642169952393	0.10003209114074707
4	62.83437919616699	fix_pre	0		120	2.0	2.5	/experiments/Knapen_AOT/AOT_stimuli/rescaled_final/1567_rv.mp4	0.0	78.96645379066467	1.0085334777832031
4	63.01798701286316	pulse	0	t		2.0	2.5	/experiments/Knapen_AOT/AOT_stimuli/rescaled_final/1567_rv.mp4	0.0	79.15006160736084	
4	63.842912673950195	movie	1		289	2.0	2.5	/experiments/Knapen_AOT/AOT_stimuli/rescaled_final/1567_rv.mp4	0.0	79.97498726844788	2.49198055267334
4	64.61629056930542	pulse	1	t		2.0	2.5	/experiments/Knapen_AOT/AOT_stimuli/rescaled_final/1567_rv.mp4	0.0	80.7483651638031	
4	66.21633887290955	pulse	1	t		2.0	2.5	/experiments/Knapen_AOT/AOT_stimuli/rescaled_final/1567_rv.mp4	0.0	82.34841346740723	
4	66.33489322662354	fix_post	2		12	2.0	2.5	/experiments/Knapen_AOT/AOT_stimuli/rescaled_final/1567_rv.mp4	0.0	82.46696782112122	0.10001063346862793
5	66.43490386009216	fix_pre	0		120	3.0	2.5	/experiments/Knapen_AOT/AOT_stimuli/rescaled_final/1318_fw.mp4	0.0	82.56697845458984	1.0085690021514893
5	67.44347286224365	movie	1		284	3.0	2.5	/experiments/Knapen_AOT/AOT_stimuli/rescaled_final/1318_fw.mp4	0.0	83.57554745674133	2.492164373397827
5	67.82039284706116	pulse	1	t		3.0	2.5	/experiments/Knapen_AOT/AOT_stimuli/rescaled_final/1318_fw.mp4	0.0	83.95246744155884	
5	69.41757440567017	pulse	1	t		3.0	2.5	/experiments/Knapen_AOT/AOT_stimuli/rescaled_final/1318_fw.mp4	0.0	85.54964900016785	
5	69.93563723564148	fix_post	2		12	3.0	2.5	/experiments/Knapen_AOT/AOT_stimuli/rescaled_final/1318_fw.mp4	0.0	86.06771183013916	0.09988641738891602
6	70.0355236530304	fix_pre	0		119	4.0	2.5	/experiments/Knapen_AOT/AOT_stimuli/rescaled_final/0085_rv.mp4	0.0	86.16759824752808	1.0001564025878906
6	71.01917695999146	pulse	0	t		4.0	2.5	/experiments/Knapen_AOT/AOT_stimuli/rescaled_final/0085_rv.mp4	0.0	87.15125155448914	
6	71.03568005561829	movie	1		293	4.0	2.5	/experiments/Knapen_AOT/AOT_stimuli/rescaled_final/0085_rv.mp4	0.0	87.16775465011597	2.5002946853637695
6	72.61788201332092	pulse	1	t		4.0	2.5	/experiments/Knapen_AOT/AOT_stimuli/rescaled_final/0085_rv.mp4	0.0	88.7499566078186	
6	73.53597474098206	fix_post	2		12	4.0	2.5	/experiments/Knapen_AOT/AOT_stimuli/rescaled_final/0085_rv.mp4	0.0	89.66804933547974	0.10006284713745117
7	73.6360375881195	fix_pre	0		120	5.0	2.5	/experiments/Knapen_AOT/AOT_stimuli/rescaled_final/1601_rv.mp4	0.0	89.76811218261719	1.0085608959197998
7	74.22010326385498	pulse	0	t		5.0	2.5	/experiments/Knapen_AOT/AOT_stimuli/rescaled_final/1601_rv.mp4	0.0	90.35217785835266	
7	74.6445984840393	movie	1		295	5.0	2.5	/experiments/Knapen_AOT/AOT_stimuli/rescaled_final/1601_rv.mp4	0.0	90.77667307853699	2.4919190406799316
7	75.81799030303955	pulse	1	t		5.0	2.5	/experiments/Knapen_AOT/AOT_stimuli/rescaled_final/1601_rv.mp4	0.0	91.95006489753723	
7	77.13651752471924	fix_post	2		12	5.0	2.5	/experiments/Knapen_AOT/AOT_stimuli/rescaled_final/1601_rv.mp4	0.0	93.26859211921692	0.10007572174072266
8	77.23659324645996	fix_pre	0		120	6.0	2.5	blank	1.0	93.36866784095764	1.0001280307769775
8	77.42041182518005	pulse	0	t		6.0	2.5	blank	1.0	93.55248641967773	
8	78.23672127723694	movie	1		300	6.0	2.5	blank	1.0	94.36879587173462	2.5004031658172607
8	79.02100324630737	pulse	1	t		6.0	2.5	blank	1.0	95.15307784080505	
8	80.62083220481873	pulse	1	t		6.0	2.5	blank	1.0	96.7529067993164	
8	80.7371244430542	fix_post	2		12	6.0	2.5	blank	1.0	96.86919903755188	0.10007619857788086
9	80.83720064163208	fix_pre	0		120	7.0	2.5	/experiments/Knapen_AOT/AOT_stimuli/rescaled_final/2125_rv.mp4	0.0	96.96927523612976	1.0083882808685303
9	81.84558892250061	movie	1		290	7.0	2.5	/experiments/Knapen_AOT/AOT_stimuli/rescaled_final/2125_rv.mp4	0.0	97.97766351699829	2.492014169692993
9	82.2191653251648	pulse	1	t		7.0	2.5	/experiments/Knapen_AOT/AOT_stimuli/rescaled_final/2125_rv.mp4	0.0	98.35123991966248	
9	83.81916880607605	pulse	1	t		7.0	2.5	/experiments/Knapen_AOT/AOT_stimuli/rescaled_final/2125_rv.mp4	0.0	99.95124340057373	
9	84.3376030921936	fix_post	2		12	7.0	2.5	/experiments/Knapen_AOT/AOT_stimuli/rescaled_final/2125_rv.mp4	0.0	100.46967768669128	0.10007357597351074
10	84.43767666816711	fix_pre	0		119	8.0	2.5	/experiments/Knapen_AOT/AOT_stimuli/rescaled_final/1677_rv.mp4	0.0	100.5697512626648	1.0001475811004639
10	85.4215955734253	pulse	0	t		8.0	2.5	/experiments/Knapen_AOT/AOT_stimuli/rescaled_final/1677_rv.mp4	0.0	101.55367016792297	
10	85.43782424926758	movie	1		293	8.0	2.5	/experiments/Knapen_AOT/AOT_stimuli/rescaled_final/1677_rv.mp4	0.0	101.56989884376526	2.5003325939178467
10	87.01976585388184	pulse	1	t		8.0	2.5	/experiments/Knapen_AOT/AOT_stimuli/rescaled_final/1677_rv.mp4	0.0	103.15184044837952	
10	87.93815684318542	fix_post	2		12	8.0	2.5	/experiments/Knapen_AOT/AOT_stimuli/rescaled_final/1677_rv.mp4	0.0	104.0702314376831	0.1000363826751709
11	88.0381932258606	fix_pre	0		120	9.0	2.5	/experiments/Knapen_AOT/AOT_stimuli/rescaled_final/0393_rv.mp4	0.0	104.17026782035828	1.0085234642028809
11	88.62227988243103	pulse	0	t		9.0	2.5	/experiments/Knapen_AOT/AOT_stimuli/rescaled_final/0393_rv.mp4	0.0	104.75435447692871	
11	89.04671669006348	movie	1		287	9.0	2.5	/experiments/Knapen_AOT/AOT_stimuli/rescaled_final/0393_rv.mp4	0.0	105.17879128456116	2.4919707775115967
11	90.2201795578003	pulse	1	t		9.0	2.5	/experiments/Knapen_AOT/AOT_stimuli/rescaled_final/0393_rv.mp4	0.0	106.35225415229797	
11	91.53868746757507	fix_post	2		12	9.0	2.5	/experiments/Knapen_AOT/AOT_stimuli/rescaled_final/0393_rv.mp4	0.0	107.67076206207275	0.10015416145324707
12	91.63884162902832	fix_pre	0		120	10.0	2.5	/experiments/Knapen_AOT/AOT_stimuli/rescaled_final/0610_rv.mp4	0.0	107.770916223526	1.0084288120269775
12	91.82221722602844	pulse	0	t		10.0	2.5	/experiments/Knapen_AOT/AOT_stimuli/rescaled_final/0610_rv.mp4	0.0	107.95429182052612	
12	92.6472704410553	movie	1		292	10.0	2.5	/experiments/Knapen_AOT/AOT_stimuli/rescaled_final/0610_rv.mp4	0.0	108.77934503555298	2.491955041885376
12	93.4205150604248	pulse	1	t		10.0	2.5	/experiments/Knapen_AOT/AOT_stimuli/rescaled_final/0610_rv.mp4	0.0	109.55258965492249	
12	95.02072668075562	pulse	1	t		10.0	2.5	/experiments/Knapen_AOT/AOT_stimuli/rescaled_final/0610_rv.mp4	0.0	111.1528012752533	
12	95.13922548294067	fix_post	2		12	10.0	2.5	/experiments/Knapen_AOT/AOT_stimuli/rescaled_final/0610_rv.mp4	0.0	111.27130007743835	0.10008740425109863
13	95.23931288719177	fix_pre	0		120	11.0	2.5	/experiments/Knapen_AOT/AOT_stimuli/rescaled_final/1875_fw.mp4	0.0	111.37138748168945	1.0084969997406006
13	96.24780988693237	movie	1		288	11.0	2.5	/experiments/Knapen_AOT/AOT_stimuli/rescaled_final/1875_fw.mp4	0.0	112.37988448143005	2.4919533729553223
13	96.62153744697571	pulse	1	t		11.0	2.5	/experiments/Knapen_AOT/AOT_stimuli/rescaled_final/1875_fw.mp4	0.0	112.75361204147339	
13	98.22095322608948	pulse	1	t		11.0	2.5	/experiments/Knapen_AOT/AOT_stimuli/rescaled_final/1875_fw.mp4	0.0	114.35302782058716	
13	98.7397632598877	fix_post	2		12	11.0	2.5	/experiments/Knapen_AOT/AOT_stimuli/rescaled_final/1875_fw.mp4	0.0	114.87183785438538	0.10006356239318848
14	98.83982682228088	fix_pre	0		119	12.0	2.5	/experiments/Knapen_AOT/AOT_stimuli/rescaled_final/1175_rv.mp4	0.0	114.97190141677856	1.0001423358917236
14	99.81580710411072	pulse	0	t		12.0	2.5	/experiments/Knapen_AOT/AOT_stimuli/rescaled_final/1175_rv.mp4	0.0	115.9478816986084	
14	99.83996915817261	movie	1		293	12.0	2.5	/experiments/Knapen_AOT/AOT_stimuli/rescaled_final/1175_rv.mp4	0.0	115.97204375267029	2.5003325939178467
14	101.41582870483398	pulse	1	t		12.0	2.5	/experiments/Knapen_AOT/AOT_stimuli/rescaled_final/1175_rv.mp4	0.0	117.54790329933167	
14	102.34030175209045	fix_post	2		12	12.0	2.5	/experiments/Knapen_AOT/AOT_stimuli/rescaled_final/1175_rv.mp4	0.0	118.47237634658813	0.10003948211669922
15	102.44034123420715	fix_pre	0		120	13.0	2.5	blank	1.0	118.57241582870483	1.0001537799835205
15	103.01565957069397	pulse	0	t		13.0	2.5	blank	1.0	119.14773416519165	
15	103.44049501419067	movie	1		300	13.0	2.5	blank	1.0	119.57256960868835	2.5003488063812256
15	104.61583805084229	pulse	1	t		13.0	2.5	blank	1.0	120.74791264533997	
15	105.9408438205719	fix_post	2		12	13.0	2.5	blank	1.0	122.07291841506958	0.10007095336914062
16	106.04091477394104	fix_pre	0		120	14.0	2.5	/experiments/Knapen_AOT/AOT_stimuli/rescaled_final/2115_fw.mp4	0.0	122.17298936843872	1.008432388305664
16	106.21605110168457	pulse	0	t		14.0	2.5	/experiments/Knapen_AOT/AOT_stimuli/rescaled_final/2115_fw.mp4	0.0	122.34812569618225	
16	107.0493471622467	movie	1		293	14.0	2.5	/experiments/Knapen_AOT/AOT_stimuli/rescaled_final/2115_fw.mp4	0.0	123.18142175674438	2.4920430183410645
16	107.81633496284485	pulse	1	t		14.0	2.5	/experiments/Knapen_AOT/AOT_stimuli/rescaled_final/2115_fw.mp4	0.0	123.94840955734253	
16	109.41654443740845	pulse	1	t		14.0	2.5	/experiments/Knapen_AOT/AOT_stimuli/rescaled_final/2115_fw.mp4	0.0	125.54861903190613	
16	109.54139018058777	fix_post	2		12	14.0	2.5	/experiments/Knapen_AOT/AOT_stimuli/rescaled_final/2115_fw.mp4	0.0	125.67346477508545	0.09999942779541016
17	109.64138960838318	fix_pre	0		120	15.0	2.5	/experiments/Knapen_AOT/AOT_stimuli/rescaled_final/1407_rv.mp4	0.0	125.77346420288086	1.008650302886963
17	110.65003991127014	movie	1		286	15.0	2.5	/experiments/Knapen_AOT/AOT_stimuli/rescaled_final/1407_rv.mp4	0.0	126.78211450576782	2.4918806552886963
17	111.01736092567444	pulse	1	t		15.0	2.5	/experiments/Knapen_AOT/AOT_stimuli/rescaled_final/1407_rv.mp4	0.0	127.14943552017212	
17	112.6169981956482	pulse	1	t		15.0	2.5	/experiments/Knapen_AOT/AOT_stimuli/rescaled_final/1407_rv.mp4	0.0	128.74907279014587	
17	113.14192056655884	fix_post	2		12	15.0	2.5	/experiments/Knapen_AOT/AOT_stimuli/rescaled_final/1407_rv.mp4	0.0	129.27399516105652	0.10001993179321289
18	113.24194049835205	fix_pre	0		118	16.0	2.5	/experiments/Knapen_AOT/AOT_stimuli/rescaled_final/0899_rv.mp4	0.0	129.37401509284973	0.9918572902679443
18	114.21737360954285	pulse	0	t		16.0	2.5	/experiments/Knapen_AOT/AOT_stimuli/rescaled_final/0899_rv.mp4	0.0	130.34944820404053	
18	114.23379778862	movie	1		294	16.0	2.5	/experiments/Knapen_AOT/AOT_stimuli/rescaled_final/0899_rv.mp4	0.0	130.36587238311768	2.5004942417144775
18	115.81594610214233	pulse	1	t		16.0	2.5	/experiments/Knapen_AOT/AOT_stimuli/rescaled_final/0899_rv.mp4	0.0	131.94802069664001	
18	116.73429203033447	fix_post	2		12	16.0	2.5	/experiments/Knapen_AOT/AOT_stimuli/rescaled_final/0899_rv.mp4	0.0	132.86636662483215	0.09992718696594238
19	116.83421921730042	fix_pre	0		120	17.0	2.5	/experiments/Knapen_AOT/AOT_stimuli/rescaled_final/0397_rv.mp4	0.0	132.9662938117981	1.0085010528564453
19	117.41780591011047	pulse	0	t		17.0	2.5	/experiments/Knapen_AOT/AOT_stimuli/rescaled_final/0397_rv.mp4	0.0	133.54988050460815	
19	117.84272027015686	movie	1		289	17.0	2.5	/experiments/Knapen_AOT/AOT_stimuli/rescaled_final/0397_rv.mp4	0.0	133.97479486465454	2.491971254348755
19	119.01621341705322	pulse	1	t		17.0	2.5	/experiments/Knapen_AOT/AOT_stimuli/rescaled_final/0397_rv.mp4	0.0	135.1482880115509	
19	120.33469152450562	fix_post	2		12	17.0	2.5	/experiments/Knapen_AOT/AOT_stimuli/rescaled_final/0397_rv.mp4	0.0	136.4667661190033	0.10004305839538574
20	120.434734582901	fix_pre	0		120	18.0	2.5	/experiments/Knapen_AOT/AOT_stimuli/rescaled_final/1024_rv.mp4	0.0	136.56680917739868	1.0084898471832275
20	120.61820554733276	pulse	0	t		18.0	2.5	/experiments/Knapen_AOT/AOT_stimuli/rescaled_final/1024_rv.mp4	0.0	136.75028014183044	
20	121.44322443008423	movie	1		286	18.0	2.5	/experiments/Knapen_AOT/AOT_stimuli/rescaled_final/1024_rv.mp4	0.0	137.5752990245819	2.49200439453125
20	122.21648406982422	pulse	1	t		18.0	2.5	/experiments/Knapen_AOT/AOT_stimuli/rescaled_final/1024_rv.mp4	0.0	138.3485586643219	
20	123.8164930343628	pulse	1	t		18.0	2.5	/experiments/Knapen_AOT/AOT_stimuli/rescaled_final/1024_rv.mp4	0.0	139.94856762886047	
20	123.93522882461548	fix_post	2		12	18.0	2.5	/experiments/Knapen_AOT/AOT_stimuli/rescaled_final/1024_rv.mp4	0.0	140.06730341911316	0.1000208854675293
21	124.03524971008301	fix_pre	0		120	19.0	2.5	/experiments/Knapen_AOT/AOT_stimuli/rescaled_final/0099_fw.mp4	0.0	140.1673243045807	1.0085151195526123
21	125.04376482963562	movie	1		292	19.0	2.5	/experiments/Knapen_AOT/AOT_stimuli/rescaled_final/0099_fw.mp4	0.0	141.1758394241333	2.492002487182617
21	125.41769123077393	pulse	1	t		19.0	2.5	/experiments/Knapen_AOT/AOT_stimuli/rescaled_final/0099_fw.mp4	0.0	141.5497658252716	
21	127.01715087890625	pulse	1	t		19.0	2.5	/experiments/Knapen_AOT/AOT_stimuli/rescaled_final/0099_fw.mp4	0.0	143.14922547340393	
21	127.53576731681824	fix_post	2		12	19.0	2.5	/experiments/Knapen_AOT/AOT_stimuli/rescaled_final/0099_fw.mp4	0.0	143.66784191131592	0.10005331039428711
22	127.63582062721252	fix_pre	0		119	20.0	2.5	blank	1.0	143.7678952217102	0.9917712211608887
22	128.61942887306213	pulse	0	t		20.0	2.5	blank	1.0	144.75150346755981	
22	128.6275918483734	movie	1		301	20.0	2.5	blank	1.0	144.7596664428711	2.5087263584136963
22	130.21964740753174	pulse	1	t		20.0	2.5	blank	1.0	146.35172200202942	
22	131.1363182067871	fix_post	2		12	20.0	2.5	blank	1.0	147.2683928012848	0.10002732276916504
23	131.23634552955627	fix_pre	0		120	21.0	2.5	/experiments/Knapen_AOT/AOT_stimuli/rescaled_final/1481_fw.mp4	0.0	147.36842012405396	1.0085010528564453
23	131.81995701789856	pulse	0	t		21.0	2.5	/experiments/Knapen_AOT/AOT_stimuli/rescaled_final/1481_fw.mp4	0.0	147.95203161239624	
23	132.24484658241272	movie	1		287	21.0	2.5	/experiments/Knapen_AOT/AOT_stimuli/rescaled_final/1481_fw.mp4	0.0	148.3769211769104	2.4920003414154053
23	133.41880917549133	pulse	1	t		21.0	2.5	/experiments/Knapen_AOT/AOT_stimuli/rescaled_final/1481_fw.mp4	0.0	149.550883769989	
23	134.73684692382812	fix_post	2		12	21.0	2.5	/experiments/Knapen_AOT/AOT_stimuli/rescaled_final/1481_fw.mp4	0.0	150.8689215183258	0.09999442100524902
24	134.83684134483337	fix_pre	0		120	22.0	2.5	/experiments/Knapen_AOT/AOT_stimuli/rescaled_final/0382_fw.mp4	0.0	150.96891593933105	1.0085101127624512
24	135.0205659866333	pulse	0	t		22.0	2.5	/experiments/Knapen_AOT/AOT_stimuli/rescaled_final/0382_fw.mp4	0.0	151.15264058113098	
24	135.84535145759583	movie	1		294	22.0	2.5	/experiments/Knapen_AOT/AOT_stimuli/rescaled_final/0382_fw.mp4	0.0	151.9774260520935	2.4920318126678467
24	136.61895203590393	pulse	1	t		22.0	2.5	/experiments/Knapen_AOT/AOT_stimuli/rescaled_final/0382_fw.mp4	0.0	152.7510266304016	
24	138.2189178466797	pulse	1	t		22.0	2.5	/experiments/Knapen_AOT/AOT_stimuli/rescaled_final/0382_fw.mp4	0.0	154.35099244117737	
24	138.33738327026367	fix_post	2		12	22.0	2.5	/experiments/Knapen_AOT/AOT_stimuli/rescaled_final/0382_fw.mp4	0.0	154.46945786476135	0.10004925727844238
25	138.43743252754211	fix_pre	0		120	23.0	2.5	/experiments/Knapen_AOT/AOT_stimuli/rescaled_final/0549_fw.mp4	0.0	154.5695071220398	1.008528470993042
25	139.44596099853516	movie	1		284	23.0	2.5	/experiments/Knapen_AOT/AOT_stimuli/rescaled_final/0549_fw.mp4	0.0	155.57803559303284	2.491964817047119
25	139.82014775276184	pulse	1	t		23.0	2.5	/experiments/Knapen_AOT/AOT_stimuli/rescaled_final/0549_fw.mp4	0.0	155.95222234725952	
25	141.42358231544495	pulse	1	t		23.0	2.5	/experiments/Knapen_AOT/AOT_stimuli/rescaled_final/0549_fw.mp4	0.0	157.55565690994263	
25	141.93792581558228	fix_post	2		12	23.0	2.5	/experiments/Knapen_AOT/AOT_stimuli/rescaled_final/0549_fw.mp4	0.0	158.07000041007996	0.10004091262817383
26	142.03796672821045	fix_pre	0		119	24.0	2.5	/experiments/Knapen_AOT/AOT_stimuli/rescaled_final/0547_rv.mp4	0.0	158.17004132270813	1.0002000331878662
26	143.02171993255615	pulse	0	t		24.0	2.5	/experiments/Knapen_AOT/AOT_stimuli/rescaled_final/0547_rv.mp4	0.0	159.15379452705383	
26	143.03816676139832	movie	1		285	24.0	2.5	/experiments/Knapen_AOT/AOT_stimuli/rescaled_final/0547_rv.mp4	0.0	159.170241355896	2.500314235687256
26	144.62053060531616	pulse	1	t		24.0	2.5	/experiments/Knapen_AOT/AOT_stimuli/rescaled_final/0547_rv.mp4	0.0	160.75260519981384	
26	145.53848099708557	fix_post	2		12	24.0	2.5	/experiments/Knapen_AOT/AOT_stimuli/rescaled_final/0547_rv.mp4	0.0	161.67055559158325	0.10002350807189941
27	145.63850450515747	fix_pre	0		120	25.0	2.5	/experiments/Knapen_AOT/AOT_stimuli/rescaled_final/0287_rv.mp4	0.0	161.77057909965515	1.0084953308105469
27	146.22212409973145	pulse	0	t		25.0	2.5	/experiments/Knapen_AOT/AOT_stimuli/rescaled_final/0287_rv.mp4	0.0	162.35419869422913	
27	146.64699983596802	movie	1		291	25.0	2.5	/experiments/Knapen_AOT/AOT_stimuli/rescaled_final/0287_rv.mp4	0.0	162.7790744304657	2.492013931274414
27	147.82069659233093	pulse	1	t		25.0	2.5	/experiments/Knapen_AOT/AOT_stimuli/rescaled_final/0287_rv.mp4	0.0	163.9527711868286	
27	149.13901376724243	fix_post	2		12	25.0	2.5	/experiments/Knapen_AOT/AOT_stimuli/rescaled_final/0287_rv.mp4	0.0	165.2710883617401	0.1000211238861084
28	149.23903489112854	fix_pre	0		120	26.0	2.5	/experiments/Knapen_AOT/AOT_stimuli/rescaled_final/0455_fw.mp4	0.0	165.37110948562622	1.008584976196289
28	149.42259073257446	pulse	0	t		26.0	2.5	/experiments/Knapen_AOT/AOT_stimuli/rescaled_final/0455_fw.mp4	0.0	165.55466532707214	
28	150.24761986732483	movie	1		289	26.0	2.5	/experiments/Knapen_AOT/AOT_stimuli/rescaled_final/0455_fw.mp4	0.0	166.3796944618225	2.4919917583465576
28	151.0213222503662	pulse	1	t		26.0	2.5	/experiments/Knapen_AOT/AOT_stimuli/rescaled_final/0455_fw.mp4	0.0	167.1533968448639	
28	152.62109780311584	pulse	1	t		26.0	2.5	/experiments/Knapen_AOT/AOT_stimuli/rescaled_final/0455_fw.mp4	0.0	168.75317239761353	
28	152.7396116256714	fix_post	2		12	26.0	2.5	/experiments/Knapen_AOT/AOT_stimuli/rescaled_final/0455_fw.mp4	0.0	168.87168622016907	0.10007190704345703
29	152.83968353271484	fix_pre	0		120	27.0	2.5	blank	1.0	168.97175812721252	1.0001230239868164
29	153.83980655670166	movie	1		300	27.0	2.5	blank	1.0	169.97188115119934	2.500286817550659
29	154.2232391834259	pulse	1	t		27.0	2.5	blank	1.0	170.35531377792358	
29	155.8163297176361	pulse	1	t		27.0	2.5	blank	1.0	171.9484043121338	
29	156.34009337425232	fix_post	2		12	27.0	2.5	blank	1.0	172.47216796875	0.10001301765441895
30	156.44010639190674	fix_pre	0		119	28.0	2.5	/experiments/Knapen_AOT/AOT_stimuli/rescaled_final/2068_rv.mp4	0.0	172.57218098640442	1.000317096710205
30	157.42389941215515	pulse	0	t		28.0	2.5	/experiments/Knapen_AOT/AOT_stimuli/rescaled_final/2068_rv.mp4	0.0	173.55597400665283	
30	157.44042348861694	movie	1		294	28.0	2.5	/experiments/Knapen_AOT/AOT_stimuli/rescaled_final/2068_rv.mp4	0.0	173.57249808311462	2.50020694732666
30	159.0159568786621	pulse	1	t		28.0	2.5	/experiments/Knapen_AOT/AOT_stimuli/rescaled_final/2068_rv.mp4	0.0	175.1480314731598	
30	159.9406304359436	fix_post	2		12	28.0	2.5	/experiments/Knapen_AOT/AOT_stimuli/rescaled_final/2068_rv.mp4	0.0	176.07270503044128	0.1000213623046875
31	160.0406517982483	fix_pre	0		120	29.0	2.5	/experiments/Knapen_AOT/AOT_stimuli/rescaled_final/2018_rv.mp4	0.0	176.17272639274597	1.008577585220337
31	160.61601066589355	pulse	0	t		29.0	2.5	/experiments/Knapen_AOT/AOT_stimuli/rescaled_final/2018_rv.mp4	0.0	176.74808526039124	
31	161.04922938346863	movie	1		284	29.0	2.5	/experiments/Knapen_AOT/AOT_stimuli/rescaled_final/2018_rv.mp4	0.0	177.1813039779663	2.4919497966766357
31	162.21630430221558	pulse	1	t		29.0	2.5	/experiments/Knapen_AOT/AOT_stimuli/rescaled_final/2018_rv.mp4	0.0	178.34837889671326	
31	163.54117918014526	fix_post	2		12	29.0	2.5	/experiments/Knapen_AOT/AOT_stimuli/rescaled_final/2018_rv.mp4	0.0	179.67325377464294	0.10005307197570801
32	163.64123225212097	fix_pre	0		120	30.0	2.5	/experiments/Knapen_AOT/AOT_stimuli/rescaled_final/1914_rv.mp4	0.0	179.77330684661865	1.0084619522094727
32	163.81648516654968	pulse	0	t		30.0	2.5	/experiments/Knapen_AOT/AOT_stimuli/rescaled_final/1914_rv.mp4	0.0	179.94855976104736	
32	164.64969420433044	movie	1		287	30.0	2.5	/experiments/Knapen_AOT/AOT_stimuli/rescaled_final/1914_rv.mp4	0.0	180.78176879882812	2.492008686065674
32	165.41685962677002	pulse	1	t		30.0	2.5	/experiments/Knapen_AOT/AOT_stimuli/rescaled_final/1914_rv.mp4	0.0	181.5489342212677	
32	167.01709485054016	pulse	1	t		30.0	2.5	/experiments/Knapen_AOT/AOT_stimuli/rescaled_final/1914_rv.mp4	0.0	183.14916944503784	
32	167.14170289039612	fix_post	2		12	30.0	2.5	/experiments/Knapen_AOT/AOT_stimuli/rescaled_final/1914_rv.mp4	0.0	183.2737774848938	0.1000514030456543
33	167.24175429344177	fix_pre	0		120	31.0	2.5	/experiments/Knapen_AOT/AOT_stimuli/rescaled_final/0123_fw.mp4	0.0	183.37382888793945	1.0085127353668213
33	168.2502670288086	movie	1		285	31.0	2.5	/experiments/Knapen_AOT/AOT_stimuli/rescaled_final/0123_fw.mp4	0.0	184.38234162330627	2.491997480392456
33	168.61593294143677	pulse	1	t		31.0	2.5	/experiments/Knapen_AOT/AOT_stimuli/rescaled_final/0123_fw.mp4	0.0	184.74800753593445	
33	170.21733283996582	pulse	1	t		31.0	2.5	/experiments/Knapen_AOT/AOT_stimuli/rescaled_final/0123_fw.mp4	0.0	186.3494074344635	
33	170.74226450920105	fix_post	2		12	31.0	2.5	/experiments/Knapen_AOT/AOT_stimuli/rescaled_final/0123_fw.mp4	0.0	186.87433910369873	0.10004639625549316
34	170.84231090545654	fix_pre	0		118	32.0	2.5	/experiments/Knapen_AOT/AOT_stimuli/rescaled_final/1814_fw.mp4	0.0	186.97438549995422	0.9918193817138672
34	171.8176188468933	pulse	0	t		32.0	2.5	/experiments/Knapen_AOT/AOT_stimuli/rescaled_final/1814_fw.mp4	0.0	187.949693441391	
34	171.8341302871704	movie	1		287	32.0	2.5	/experiments/Knapen_AOT/AOT_stimuli/rescaled_final/1814_fw.mp4	0.0	187.9662048816681	2.5003480911254883
34	173.41640186309814	pulse	1	t		32.0	2.5	/experiments/Knapen_AOT/AOT_stimuli/rescaled_final/1814_fw.mp4	0.0	189.54847645759583	
34	174.3344783782959	fix_post	2		12	32.0	2.5	/experiments/Knapen_AOT/AOT_stimuli/rescaled_final/1814_fw.mp4	0.0	190.46655297279358	0.10012698173522949
35	174.43460536003113	fix_pre	0		120	33.0	2.5	blank	1.0	190.5666799545288	1.0000543594360352
35	175.0181589126587	pulse	0	t		33.0	2.5	blank	1.0	191.15023350715637	
35	175.43465971946716	movie	1		300	33.0	2.5	blank	1.0	191.56673431396484	2.5004048347473145
35	176.61853623390198	pulse	1	t		33.0	2.5	blank	1.0	192.75061082839966	
35	177.93506455421448	fix_post	2		12	33.0	2.5	blank	1.0	194.06713914871216	0.1000361442565918
36	178.03510069847107	fix_pre	0		120	34.0	2.5	/experiments/Knapen_AOT/AOT_stimuli/rescaled_final/2156_rv.mp4	0.0	194.16717529296875	1.008439302444458
36	178.21856665611267	pulse	0	t		34.0	2.5	/experiments/Knapen_AOT/AOT_stimuli/rescaled_final/2156_rv.mp4	0.0	194.35064125061035	
36	179.04354000091553	movie	1		291	34.0	2.5	/experiments/Knapen_AOT/AOT_stimuli/rescaled_final/2156_rv.mp4	0.0	195.1756145954132	2.492018699645996
36	179.81692242622375	pulse	1	t		34.0	2.5	/experiments/Knapen_AOT/AOT_stimuli/rescaled_final/2156_rv.mp4	0.0	195.94899702072144	
36	181.4171965122223	pulse	1	t		34.0	2.5	/experiments/Knapen_AOT/AOT_stimuli/rescaled_final/2156_rv.mp4	0.0	197.54927110671997	
36	181.53555870056152	fix_post	2		12	34.0	2.5	/experiments/Knapen_AOT/AOT_stimuli/rescaled_final/2156_rv.mp4	0.0	197.6676332950592	0.10007786750793457
37	181.63563656806946	fix_pre	0		120	35.0	2.5	/experiments/Knapen_AOT/AOT_stimuli/rescaled_final/1146_fw.mp4	0.0	197.76771116256714	1.0084927082061768
37	182.64412927627563	movie	1		286	35.0	2.5	/experiments/Knapen_AOT/AOT_stimuli/rescaled_final/1146_fw.mp4	0.0	198.77620387077332	2.4919862747192383
37	183.01795053482056	pulse	1	t		35.0	2.5	/experiments/Knapen_AOT/AOT_stimuli/rescaled_final/1146_fw.mp4	0.0	199.15002512931824	
37	184.61763882637024	pulse	1	t		35.0	2.5	/experiments/Knapen_AOT/AOT_stimuli/rescaled_final/1146_fw.mp4	0.0	200.74971342086792	
37	185.13611555099487	fix_post	2		12	35.0	2.5	/experiments/Knapen_AOT/AOT_stimuli/rescaled_final/1146_fw.mp4	0.0	201.26819014549255	0.10004377365112305
38	185.236159324646	fix_pre	0		119	36.0	2.5	/experiments/Knapen_AOT/AOT_stimuli/rescaled_final/1092_rv.mp4	0.0	201.36823391914368	1.000122308731079
38	186.21978068351746	pulse	0	t		36.0	2.5	/experiments/Knapen_AOT/AOT_stimuli/rescaled_final/1092_rv.mp4	0.0	202.35185527801514	
38	186.23628163337708	movie	1		283	36.0	2.5	/experiments/Knapen_AOT/AOT_stimuli/rescaled_final/1092_rv.mp4	0.0	202.36835622787476	2.500490665435791
38	187.81854820251465	pulse	1	t		36.0	2.5	/experiments/Knapen_AOT/AOT_stimuli/rescaled_final/1092_rv.mp4	0.0	203.95062279701233	
38	188.73677229881287	fix_post	2		12	36.0	2.5	/experiments/Knapen_AOT/AOT_stimuli/rescaled_final/1092_rv.mp4	0.0	204.86884689331055	0.0998990535736084
39	188.83667135238647	fix_pre	0		120	37.0	2.5	/experiments/Knapen_AOT/AOT_stimuli/rescaled_final/0776_rv.mp4	0.0	204.96874594688416	1.0085041522979736
39	189.42029237747192	pulse	0	t		37.0	2.5	/experiments/Knapen_AOT/AOT_stimuli/rescaled_final/0776_rv.mp4	0.0	205.5523669719696	
39	189.84517550468445	movie	1		292	37.0	2.5	/experiments/Knapen_AOT/AOT_stimuli/rescaled_final/0776_rv.mp4	0.0	205.97725009918213	2.491990566253662
39	191.01864337921143	pulse	1	t		37.0	2.5	/experiments/Knapen_AOT/AOT_stimuli/rescaled_final/0776_rv.mp4	0.0	207.1507179737091	
39	192.3371660709381	fix_post	2		12	37.0	2.5	/experiments/Knapen_AOT/AOT_stimuli/rescaled_final/0776_rv.mp4	0.0	208.4692406654358	0.10008740425109863
40	192.4372534751892	fix_pre	0		120	38.0	2.5	/experiments/Knapen_AOT/AOT_stimuli/rescaled_final/0445_fw.mp4	0.0	208.5693280696869	1.0084290504455566
40	192.62069821357727	pulse	0	t		38.0	2.5	/experiments/Knapen_AOT/AOT_stimuli/rescaled_final/0445_fw.mp4	0.0	208.75277280807495	
40	193.44568252563477	movie	1		286	38.0	2.5	/experiments/Knapen_AOT/AOT_stimuli/rescaled_final/0445_fw.mp4	0.0	209.57775712013245	2.4921786785125732
40	194.21935057640076	pulse	1	t		38.0	2.5	/experiments/Knapen_AOT/AOT_stimuli/rescaled_final/0445_fw.mp4	0.0	210.35142517089844	
40	195.81915640830994	pulse	1	t		38.0	2.5	/experiments/Knapen_AOT/AOT_stimuli/rescaled_final/0445_fw.mp4	0.0	211.95123100280762	
40	195.93786120414734	fix_post	2		12	38.0	2.5	/experiments/Knapen_AOT/AOT_stimuli/rescaled_final/0445_fw.mp4	0.0	212.06993579864502	0.09988117218017578
41	196.03774237632751	fix_pre	0		120	39.0	2.5	/experiments/Knapen_AOT/AOT_stimuli/rescaled_final/0742_rv.mp4	0.0	212.1698169708252	1.008556604385376
41	197.0462989807129	movie	1		278	39.0	2.5	/experiments/Knapen_AOT/AOT_stimuli/rescaled_final/0742_rv.mp4	0.0	213.17837357521057	2.491992950439453
41	197.42057085037231	pulse	1	t		39.0	2.5	/experiments/Knapen_AOT/AOT_stimuli/rescaled_final/0742_rv.mp4	0.0	213.55264544487	
41	199.0197048187256	pulse	1	t		39.0	2.5	/experiments/Knapen_AOT/AOT_stimuli/rescaled_final/0742_rv.mp4	0.0	215.15177941322327	
41	199.53829193115234	fix_post	2		12	39.0	2.5	/experiments/Knapen_AOT/AOT_stimuli/rescaled_final/0742_rv.mp4	0.0	215.67036652565002	0.09998631477355957
42	199.6382782459259	fix_pre	0		119	40.0	2.5	/experiments/Knapen_AOT/AOT_stimuli/rescaled_final/0146_rv.mp4	0.0	215.77035284042358	1.0002119541168213
42	200.62198066711426	pulse	0	t		40.0	2.5	/experiments/Knapen_AOT/AOT_stimuli/rescaled_final/0146_rv.mp4	0.0	216.75405526161194	
42	200.63849020004272	movie	1		292	40.0	2.5	/experiments/Knapen_AOT/AOT_stimuli/rescaled_final/0146_rv.mp4	0.0	216.7705647945404	2.500310182571411
42	202.22087979316711	pulse	1	t		40.0	2.5	/experiments/Knapen_AOT/AOT_stimuli/rescaled_final/0146_rv.mp4	0.0	218.3529543876648	
42	203.13880038261414	fix_post	2		12	40.0	2.5	/experiments/Knapen_AOT/AOT_stimuli/rescaled_final/0146_rv.mp4	0.0	219.27087497711182	0.10011744499206543
43	203.2389178276062	fix_pre	0		120	41.0	2.5	blank	1.0	219.37099242210388	1.0000684261322021
43	203.82253336906433	pulse	0	t		41.0	2.5	blank	1.0	219.954607963562	
43	204.2389862537384	movie	1		300	41.0	2.5	blank	1.0	220.37106084823608	2.500359058380127
43	205.4228162765503	pulse	1	t		41.0	2.5	blank	1.0	221.55489087104797	
43	206.73934531211853	fix_post	2		12	41.0	2.5	blank	1.0	222.8714199066162	0.10004830360412598
44	206.83939361572266	fix_pre	0		120	42.0	2.5	/experiments/Knapen_AOT/AOT_stimuli/rescaled_final/2178_fw.mp4	0.0	222.97146821022034	1.0084891319274902
44	207.01623821258545	pulse	0	t		42.0	2.5	/experiments/Knapen_AOT/AOT_stimuli/rescaled_final/2178_fw.mp4	0.0	223.14831280708313	
44	207.84788274765015	movie	1		285	42.0	2.5	/experiments/Knapen_AOT/AOT_stimuli/rescaled_final/2178_fw.mp4	0.0	223.97995734214783	2.4919896125793457
44	208.6213674545288	pulse	1	t		42.0	2.5	/experiments/Knapen_AOT/AOT_stimuli/rescaled_final/2178_fw.mp4	0.0	224.7534420490265	
44	210.221506357193	pulse	1	t		42.0	2.5	/experiments/Knapen_AOT/AOT_stimuli/rescaled_final/2178_fw.mp4	0.0	226.35358095169067	
44	210.3398723602295	fix_post	2		12	42.0	2.5	/experiments/Knapen_AOT/AOT_stimuli/rescaled_final/2178_fw.mp4	0.0	226.47194695472717	0.10012960433959961
45	210.4400019645691	fix_pre	0		120	43.0	2.5	/experiments/Knapen_AOT/AOT_stimuli/rescaled_final/1262_rv.mp4	0.0	226.57207655906677	1.0084474086761475
45	211.44844937324524	movie	1		285	43.0	2.5	/experiments/Knapen_AOT/AOT_stimuli/rescaled_final/1262_rv.mp4	0.0	227.58052396774292	2.4919698238372803
45	211.82379055023193	pulse	1	t		43.0	2.5	/experiments/Knapen_AOT/AOT_stimuli/rescaled_final/1262_rv.mp4	0.0	227.95586514472961	
45	213.4216046333313	pulse	1	t		43.0	2.5	/experiments/Knapen_AOT/AOT_stimuli/rescaled_final/1262_rv.mp4	0.0	229.55367922782898	
45	213.94041919708252	fix_post	2		12	43.0	2.5	/experiments/Knapen_AOT/AOT_stimuli/rescaled_final/1262_rv.mp4	0.0	230.0724937915802	0.10002255439758301
46	214.0404417514801	fix_pre	0		119	44.0	2.5	/experiments/Knapen_AOT/AOT_stimuli/rescaled_final/0397_rv.mp4	0.0	230.17251634597778	1.0002000331878662
46	215.01658177375793	pulse	0	t		44.0	2.5	/experiments/Knapen_AOT/AOT_stimuli/rescaled_final/0397_rv.mp4	0.0	231.14865636825562	
46	215.04064178466797	movie	1		274	44.0	2.5	/experiments/Knapen_AOT/AOT_stimuli/rescaled_final/0397_rv.mp4	0.0	231.17271637916565	2.5003514289855957
46	216.72954034805298	pulse	1	t		44.0	2.5	/experiments/Knapen_AOT/AOT_stimuli/rescaled_final/0397_rv.mp4	0.0	232.86161494255066	
46	217.54099321365356	fix_post	2		12	44.0	2.5	/experiments/Knapen_AOT/AOT_stimuli/rescaled_final/0397_rv.mp4	0.0	233.67306780815125	0.10001325607299805
47	217.64100646972656	fix_pre	0		120	45.0	2.5	/experiments/Knapen_AOT/AOT_stimuli/rescaled_final/2068_fw.mp4	0.0	233.77308106422424	1.0085217952728271
47	218.21646642684937	pulse	0	t		45.0	2.5	/experiments/Knapen_AOT/AOT_stimuli/rescaled_final/2068_fw.mp4	0.0	234.34854102134705	
47	218.6495282649994	movie	1		289	45.0	2.5	/experiments/Knapen_AOT/AOT_stimuli/rescaled_final/2068_fw.mp4	0.0	234.78160285949707	2.4920265674591064
47	219.8250651359558	pulse	1	t		45.0	2.5	/experiments/Knapen_AOT/AOT_stimuli/rescaled_final/2068_fw.mp4	0.0	235.9571397304535	
47	221.1415548324585	fix_post	2		12	45.0	2.5	/experiments/Knapen_AOT/AOT_stimuli/rescaled_final/2068_fw.mp4	0.0	237.27362942695618	0.10010123252868652
48	221.24165606498718	fix_pre	0		120	46.0	2.5	/experiments/Knapen_AOT/AOT_stimuli/rescaled_final/1917_fw.mp4	0.0	237.37373065948486	1.0084223747253418
48	221.4167845249176	pulse	0	t		46.0	2.5	/experiments/Knapen_AOT/AOT_stimuli/rescaled_final/1917_fw.mp4	0.0	237.54885911941528	
48	222.25007843971252	movie	1		287	46.0	2.5	/experiments/Knapen_AOT/AOT_stimuli/rescaled_final/1917_fw.mp4	0.0	238.3821530342102	2.4919612407684326
48	223.0170886516571	pulse	1	t		46.0	2.5	/experiments/Knapen_AOT/AOT_stimuli/rescaled_final/1917_fw.mp4	0.0	239.14916324615479	
48	224.6172695159912	pulse	1	t		46.0	2.5	/experiments/Knapen_AOT/AOT_stimuli/rescaled_final/1917_fw.mp4	0.0	240.7493441104889	
48	224.74203968048096	fix_post	2		12	46.0	2.5	/experiments/Knapen_AOT/AOT_stimuli/rescaled_final/1917_fw.mp4	0.0	240.87411427497864	0.10004878044128418
49	224.84208846092224	fix_pre	0		120	47.0	2.5	/experiments/Knapen_AOT/AOT_stimuli/rescaled_final/1864_fw.mp4	0.0	240.97416305541992	1.0084993839263916
49	225.85058784484863	movie	1		291	47.0	2.5	/experiments/Knapen_AOT/AOT_stimuli/rescaled_final/1864_fw.mp4	0.0	241.9826624393463	2.492011308670044
49	226.2174711227417	pulse	1	t		47.0	2.5	/experiments/Knapen_AOT/AOT_stimuli/rescaled_final/1864_fw.mp4	0.0	242.34954571723938	
49	227.81768822669983	pulse	1	t		47.0	2.5	/experiments/Knapen_AOT/AOT_stimuli/rescaled_final/1864_fw.mp4	0.0	243.9497628211975	
49	228.34259915351868	fix_post	2		12	47.0	2.5	/experiments/Knapen_AOT/AOT_stimuli/rescaled_final/1864_fw.mp4	0.0	244.47467374801636	0.10002899169921875
50	228.4426281452179	fix_pre	0		118	48.0	2.5	blank	1.0	244.57470273971558	0.9834566116333008
50	229.41801810264587	pulse	0	t		48.0	2.5	blank	1.0	245.55009269714355	
50	229.4260847568512	movie	1		301	48.0	2.5	blank	1.0	245.55815935134888	2.5087273120880127
50	231.01815247535706	pulse	1	t		48.0	2.5	blank	1.0	247.15022706985474	
50	231.9348120689392	fix_post	2		12	48.0	2.5	blank	1.0	248.0668866634369	0.09999608993530273
51	232.0348081588745	fix_pre	0		120	49.0	2.5	/experiments/Knapen_AOT/AOT_stimuli/rescaled_final/0402_fw.mp4	0.0	248.1668827533722	1.0084667205810547
51	232.61839818954468	pulse	0	t		49.0	2.5	/experiments/Knapen_AOT/AOT_stimuli/rescaled_final/0402_fw.mp4	0.0	248.75047278404236	
51	233.04327487945557	movie	1		296	49.0	2.5	/experiments/Knapen_AOT/AOT_stimuli/rescaled_final/0402_fw.mp4	0.0	249.17534947395325	2.492037773132324
51	234.21870875358582	pulse	1	t		49.0	2.5	/experiments/Knapen_AOT/AOT_stimuli/rescaled_final/0402_fw.mp4	0.0	250.3507833480835	
51	235.5353126525879	fix_post	2		12	49.0	2.5	/experiments/Knapen_AOT/AOT_stimuli/rescaled_final/0402_fw.mp4	0.0	251.66738724708557	0.10006427764892578
52	235.63537693023682	fix_pre	0		120	50.0	2.5	/experiments/Knapen_AOT/AOT_stimuli/rescaled_final/1579_rv.mp4	0.0	251.7674515247345	1.0001180171966553
52	235.8189136981964	pulse	0	t		50.0	2.5	/experiments/Knapen_AOT/AOT_stimuli/rescaled_final/1579_rv.mp4	0.0	251.9509882926941	
52	236.63549494743347	movie	1		296	50.0	2.5	/experiments/Knapen_AOT/AOT_stimuli/rescaled_final/1579_rv.mp4	0.0	252.76756954193115	2.5003886222839355
52	237.41646885871887	pulse	1	t		50.0	2.5	/experiments/Knapen_AOT/AOT_stimuli/rescaled_final/1579_rv.mp4	0.0	253.54854345321655	
52	239.01928544044495	pulse	1	t		50.0	2.5	/experiments/Knapen_AOT/AOT_stimuli/rescaled_final/1579_rv.mp4	0.0	255.15136003494263	
52	239.1358835697174	fix_post	2		12	50.0	2.5	/experiments/Knapen_AOT/AOT_stimuli/rescaled_final/1579_rv.mp4	0.0	255.2679581642151	0.09999847412109375
53	239.2358820438385	fix_pre	0		120	51.0	2.5	/experiments/Knapen_AOT/AOT_stimuli/rescaled_final/0154_rv.mp4	0.0	255.36795663833618	1.0001919269561768
53	240.23607397079468	movie	1		298	51.0	2.5	/experiments/Knapen_AOT/AOT_stimuli/rescaled_final/0154_rv.mp4	0.0	256.36814856529236	2.500326156616211
53	240.6170732975006	pulse	1	t		51.0	2.5	/experiments/Knapen_AOT/AOT_stimuli/rescaled_final/0154_rv.mp4	0.0	256.7491478919983	
53	242.21550273895264	pulse	1	t		51.0	2.5	/experiments/Knapen_AOT/AOT_stimuli/rescaled_final/0154_rv.mp4	0.0	258.3475773334503	
53	242.7364001274109	fix_post	2		12	51.0	2.5	/experiments/Knapen_AOT/AOT_stimuli/rescaled_final/0154_rv.mp4	0.0	258.86847472190857	0.10001468658447266
54	242.83641481399536	fix_pre	0		119	52.0	2.5	/experiments/Knapen_AOT/AOT_stimuli/rescaled_final/0130_fw.mp4	0.0	258.96848940849304	1.0001587867736816
54	243.8201344013214	pulse	0	t		52.0	2.5	/experiments/Knapen_AOT/AOT_stimuli/rescaled_final/0130_fw.mp4	0.0	259.9522089958191	
54	243.83657360076904	movie	1		298	52.0	2.5	/experiments/Knapen_AOT/AOT_stimuli/rescaled_final/0130_fw.mp4	0.0	259.9686481952667	2.5003790855407715
54	245.41805863380432	pulse	1	t		52.0	2.5	/experiments/Knapen_AOT/AOT_stimuli/rescaled_final/0130_fw.mp4	0.0	261.550133228302	
54	246.33695268630981	fix_post	2		12	52.0	2.5	/experiments/Knapen_AOT/AOT_stimuli/rescaled_final/0130_fw.mp4	0.0	262.4690272808075	0.1000361442565918
55	246.4369888305664	fix_pre	0		120	53.0	2.5	/experiments/Knapen_AOT/AOT_stimuli/rescaled_final/0551_fw.mp4	0.0	262.5690634250641	1.0084915161132812
55	247.0206413269043	pulse	0	t		53.0	2.5	/experiments/Knapen_AOT/AOT_stimuli/rescaled_final/0551_fw.mp4	0.0	263.152715921402	
55	247.4454803466797	movie	1		296	53.0	2.5	/experiments/Knapen_AOT/AOT_stimuli/rescaled_final/0551_fw.mp4	0.0	263.57755494117737	2.492018699645996
55	248.6186285018921	pulse	1	t		53.0	2.5	/experiments/Knapen_AOT/AOT_stimuli/rescaled_final/0551_fw.mp4	0.0	264.75070309638977	
55	249.93749904632568	fix_post	2		12	53.0	2.5	/experiments/Knapen_AOT/AOT_stimuli/rescaled_final/0551_fw.mp4	0.0	266.06957364082336	0.10001301765441895
56	250.0375120639801	fix_pre	0		120	54.0	2.5	/experiments/Knapen_AOT/AOT_stimuli/rescaled_final/1397_rv.mp4	0.0	266.1695866584778	1.0085339546203613
56	250.22104859352112	pulse	0	t		54.0	2.5	/experiments/Knapen_AOT/AOT_stimuli/rescaled_final/1397_rv.mp4	0.0	266.3531231880188	
56	251.04604601860046	movie	1		289	54.0	2.5	/experiments/Knapen_AOT/AOT_stimuli/rescaled_final/1397_rv.mp4	0.0	267.17812061309814	2.492020845413208
56	251.81859493255615	pulse	1	t		54.0	2.5	/experiments/Knapen_AOT/AOT_stimuli/rescaled_final/1397_rv.mp4	0.0	267.95066952705383	
56	253.41941475868225	pulse	1	t		54.0	2.5	/experiments/Knapen_AOT/AOT_stimuli/rescaled_final/1397_rv.mp4	0.0	269.55148935317993	
56	253.53806686401367	fix_post	2		12	54.0	2.5	/experiments/Knapen_AOT/AOT_stimuli/rescaled_final/1397_rv.mp4	0.0	269.67014145851135	0.10010790824890137
57	253.63817477226257	fix_pre	0		120	55.0	2.5	/experiments/Knapen_AOT/AOT_stimuli/rescaled_final/0154_fw.mp4	0.0	269.77024936676025	1.0084514617919922
57	254.64662623405457	movie	1		283	55.0	2.5	/experiments/Knapen_AOT/AOT_stimuli/rescaled_final/0154_fw.mp4	0.0	270.77870082855225	2.49196720123291
57	255.02052521705627	pulse	1	t		55.0	2.5	/experiments/Knapen_AOT/AOT_stimuli/rescaled_final/0154_fw.mp4	0.0	271.15259981155396	
57	256.61985445022583	pulse	1	t		55.0	2.5	/experiments/Knapen_AOT/AOT_stimuli/rescaled_final/0154_fw.mp4	0.0	272.7519290447235	
57	257.1385934352875	fix_post	2		12	55.0	2.5	/experiments/Knapen_AOT/AOT_stimuli/rescaled_final/0154_fw.mp4	0.0	273.27066802978516	0.1001138687133789
58	257.23870730400085	fix_pre	0		119	56.0	2.5	blank	1.0	273.37078189849854	0.9917235374450684
58	258.22247076034546	pulse	0	t		56.0	2.5	blank	1.0	274.35454535484314	
58	258.2304308414459	movie	1		301	56.0	2.5	blank	1.0	274.3625054359436	2.5087015628814697
58	259.8227801322937	pulse	1	t		56.0	2.5	blank	1.0	275.9548547267914	
58	260.7391324043274	fix_post	2		12	56.0	2.5	blank	1.0	276.8712069988251	0.10004448890686035
59	260.83917689323425	fix_pre	0		120	57.0	2.5	/experiments/Knapen_AOT/AOT_stimuli/rescaled_final/2156_fw.mp4	0.0	276.97125148773193	1.008469820022583
59	261.42289686203003	pulse	0	t		57.0	2.5	/experiments/Knapen_AOT/AOT_stimuli/rescaled_final/2156_fw.mp4	0.0	277.5549714565277	
59	261.84764671325684	movie	1		274	57.0	2.5	/experiments/Knapen_AOT/AOT_stimuli/rescaled_final/2156_fw.mp4	0.0	277.9797213077545	2.492058038711548
59	263.0215845108032	pulse	1	t		57.0	2.5	/experiments/Knapen_AOT/AOT_stimuli/rescaled_final/2156_fw.mp4	0.0	279.1536591053009	
59	264.3397047519684	fix_post	2		12	57.0	2.5	/experiments/Knapen_AOT/AOT_stimuli/rescaled_final/2156_fw.mp4	0.0	280.47177934646606	0.10004091262817383
60	264.43974566459656	fix_pre	0		120	58.0	2.5	/experiments/Knapen_AOT/AOT_stimuli/rescaled_final/1917_fw.mp4	0.0	280.57182025909424	1.0084342956542969
60	264.61653327941895	pulse	0	t		58.0	2.5	/experiments/Knapen_AOT/AOT_stimuli/rescaled_final/1917_fw.mp4	0.0	280.7486078739166	
60	265.44817996025085	movie	1		286	58.0	2.5	/experiments/Knapen_AOT/AOT_stimuli/rescaled_final/1917_fw.mp4	0.0	281.58025455474854	2.492044687271118
60	266.22153425216675	pulse	1	t		58.0	2.5	/experiments/Knapen_AOT/AOT_stimuli/rescaled_final/1917_fw.mp4	0.0	282.35360884666443	
60	267.8214762210846	pulse	1	t		58.0	2.5	/experiments/Knapen_AOT/AOT_stimuli/rescaled_final/1917_fw.mp4	0.0	283.9535508155823	
60	267.940224647522	fix_post	2		12	58.0	2.5	/experiments/Knapen_AOT/AOT_stimuli/rescaled_final/1917_fw.mp4	0.0	284.07229924201965	0.10008454322814941
61	268.0403091907501	fix_pre	0		120	59.0	2.5	/experiments/Knapen_AOT/AOT_stimuli/rescaled_final/1080_rv.mp4	0.0	284.1723837852478	1.008446455001831
61	269.04875564575195	movie	1		280	59.0	2.5	/experiments/Knapen_AOT/AOT_stimuli/rescaled_final/1080_rv.mp4	0.0	285.18083024024963	2.492004632949829
61	269.4159805774689	pulse	1	t		59.0	2.5	/experiments/Knapen_AOT/AOT_stimuli/rescaled_final/1080_rv.mp4	0.0	285.54805517196655	
61	271.01604437828064	pulse	1	t		59.0	2.5	/experiments/Knapen_AOT/AOT_stimuli/rescaled_final/1080_rv.mp4	0.0	287.1481189727783	
61	271.5407602787018	fix_post	2		12	59.0	2.5	/experiments/Knapen_AOT/AOT_stimuli/rescaled_final/1080_rv.mp4	0.0	287.67283487319946	0.10007596015930176
62	271.6408362388611	fix_pre	0		118	60.0	2.5	/experiments/Knapen_AOT/AOT_stimuli/rescaled_final/0538_fw.mp4	0.0	287.77291083335876	1.0001542568206787
62	272.6162898540497	pulse	0	t		60.0	2.5	/experiments/Knapen_AOT/AOT_stimuli/rescaled_final/0538_fw.mp4	0.0	288.74836444854736	
62	272.64099049568176	movie	1		283	60.0	2.5	/experiments/Knapen_AOT/AOT_stimuli/rescaled_final/0538_fw.mp4	0.0	288.77306509017944	2.4919817447662354
62	274.2164840698242	pulse	1	t		60.0	2.5	/experiments/Knapen_AOT/AOT_stimuli/rescaled_final/0538_fw.mp4	0.0	290.3485586643219	
62	275.132972240448	fix_post	2		12	60.0	2.5	/experiments/Knapen_AOT/AOT_stimuli/rescaled_final/0538_fw.mp4	0.0	291.2650468349457	0.10006999969482422
63	275.2330422401428	fix_pre	0		120	61.0	2.5	blank	1.0	291.3651168346405	1.0001404285430908
63	275.8166618347168	pulse	0	t		61.0	2.5	blank	1.0	291.9487364292145	
63	276.2331826686859	movie	1		300	61.0	2.5	blank	1.0	292.3652572631836	2.5003364086151123
63	277.41703248023987	pulse	1	t		61.0	2.5	blank	1.0	293.54910707473755	
63	278.733519077301	fix_post	2		12	61.0	2.5	blank	1.0	294.8655936717987	0.10004162788391113
64	278.83356070518494	fix_pre	0		120	62.0	2.5	/experiments/Knapen_AOT/AOT_stimuli/rescaled_final/2020_fw.mp4	0.0	294.9656352996826	1.008509635925293
64	279.0170910358429	pulse	0	t		62.0	2.5	/experiments/Knapen_AOT/AOT_stimuli/rescaled_final/2020_fw.mp4	0.0	295.1491656303406	
64	279.84207034111023	movie	1		281	62.0	2.5	/experiments/Knapen_AOT/AOT_stimuli/rescaled_final/2020_fw.mp4	0.0	295.9741449356079	2.4919960498809814
64	280.61742329597473	pulse	1	t		62.0	2.5	/experiments/Knapen_AOT/AOT_stimuli/rescaled_final/2020_fw.mp4	0.0	296.7494978904724	
64	282.21761989593506	pulse	1	t		62.0	2.5	/experiments/Knapen_AOT/AOT_stimuli/rescaled_final/2020_fw.mp4	0.0	298.34969449043274	
64	282.3340663909912	fix_post	2		12	62.0	2.5	/experiments/Knapen_AOT/AOT_stimuli/rescaled_final/2020_fw.mp4	0.0	298.4661409854889	0.10005044937133789
65	282.43411684036255	fix_pre	0		120	63.0	2.5	/experiments/Knapen_AOT/AOT_stimuli/rescaled_final/1848_rv.mp4	0.0	298.56619143486023	1.0084517002105713
65	283.4425685405731	movie	1		277	63.0	2.5	/experiments/Knapen_AOT/AOT_stimuli/rescaled_final/1848_rv.mp4	0.0	299.5746431350708	2.492034435272217
65	283.81669783592224	pulse	1	t		63.0	2.5	/experiments/Knapen_AOT/AOT_stimuli/rescaled_final/1848_rv.mp4	0.0	299.9487724304199	
65	285.41613602638245	pulse	1	t		63.0	2.5	/experiments/Knapen_AOT/AOT_stimuli/rescaled_final/1848_rv.mp4	0.0	301.5482106208801	
65	285.93460297584534	fix_post	2		12	63.0	2.5	/experiments/Knapen_AOT/AOT_stimuli/rescaled_final/1848_rv.mp4	0.0	302.066677570343	0.10014104843139648
66	286.03474402427673	fix_pre	0		119	64.0	2.5	/experiments/Knapen_AOT/AOT_stimuli/rescaled_final/1137_rv.mp4	0.0	302.1668186187744	1.0000243186950684
66	287.01860785484314	pulse	0	t		64.0	2.5	/experiments/Knapen_AOT/AOT_stimuli/rescaled_final/1137_rv.mp4	0.0	303.1506824493408	
66	287.0347683429718	movie	1		283	64.0	2.5	/experiments/Knapen_AOT/AOT_stimuli/rescaled_final/1137_rv.mp4	0.0	303.1668429374695	2.5003793239593506
66	288.61719155311584	pulse	1	t		64.0	2.5	/experiments/Knapen_AOT/AOT_stimuli/rescaled_final/1137_rv.mp4	0.0	304.7492661476135	
66	289.53514766693115	fix_post	2		12	64.0	2.5	/experiments/Knapen_AOT/AOT_stimuli/rescaled_final/1137_rv.mp4	0.0	305.66722226142883	0.10004115104675293
67	289.6351888179779	fix_pre	0		120	65.0	2.5	/experiments/Knapen_AOT/AOT_stimuli/rescaled_final/2029_rv.mp4	0.0	305.7672634124756	1.0084490776062012
67	290.2189016342163	pulse	0	t		65.0	2.5	/experiments/Knapen_AOT/AOT_stimuli/rescaled_final/2029_rv.mp4	0.0	306.350976228714	
67	290.6436378955841	movie	1		276	65.0	2.5	/experiments/Knapen_AOT/AOT_stimuli/rescaled_final/2029_rv.mp4	0.0	306.7757124900818	2.4920756816864014
67	291.8179361820221	pulse	1	t		65.0	2.5	/experiments/Knapen_AOT/AOT_stimuli/rescaled_final/2029_rv.mp4	0.0	307.9500107765198	
67	293.1357135772705	fix_post	2		12	65.0	2.5	/experiments/Knapen_AOT/AOT_stimuli/rescaled_final/2029_rv.mp4	0.0	309.2677881717682	0.09999704360961914
68	293.2357106208801	fix_pre	0		120	66.0	2.5	/experiments/Knapen_AOT/AOT_stimuli/rescaled_final/1660_fw.mp4	0.0	309.3677852153778	1.0086007118225098
68	293.419269323349	pulse	0	t		66.0	2.5	/experiments/Knapen_AOT/AOT_stimuli/rescaled_final/1660_fw.mp4	0.0	309.5513439178467	
68	294.24431133270264	movie	1		272	66.0	2.5	/experiments/Knapen_AOT/AOT_stimuli/rescaled_final/1660_fw.mp4	0.0	310.3763859272003	2.491915464401245
68	295.01791286468506	pulse	1	t		66.0	2.5	/experiments/Knapen_AOT/AOT_stimuli/rescaled_final/1660_fw.mp4	0.0	311.14998745918274	
68	296.61807584762573	pulse	1	t		66.0	2.5	/experiments/Knapen_AOT/AOT_stimuli/rescaled_final/1660_fw.mp4	0.0	312.7501504421234	
68	296.7362267971039	fix_post	2		12	66.0	2.5	/experiments/Knapen_AOT/AOT_stimuli/rescaled_final/1660_fw.mp4	0.0	312.86830139160156	0.1001119613647461
69	296.8363387584686	fix_pre	0		120	67.0	2.5	/experiments/Knapen_AOT/AOT_stimuli/rescaled_final/0528_rv.mp4	0.0	312.9684133529663	1.0084099769592285
69	297.84474873542786	movie	1		271	67.0	2.5	/experiments/Knapen_AOT/AOT_stimuli/rescaled_final/0528_rv.mp4	0.0	313.97682332992554	2.492042303085327
69	298.21966576576233	pulse	1	t		67.0	2.5	/experiments/Knapen_AOT/AOT_stimuli/rescaled_final/0528_rv.mp4	0.0	314.35174036026	
69	299.81837153434753	pulse	1	t		67.0	2.5	/experiments/Knapen_AOT/AOT_stimuli/rescaled_final/0528_rv.mp4	0.0	315.9504461288452	
69	300.3367910385132	fix_post	2		12	67.0	2.5	/experiments/Knapen_AOT/AOT_stimuli/rescaled_final/0528_rv.mp4	0.0	316.46886563301086	0.09999418258666992
70	300.43678522109985	fix_pre	0		119	68.0	2.5	blank	1.0	316.56885981559753	0.991830587387085
70	301.4205713272095	pulse	0	t		68.0	2.5	blank	1.0	317.55264592170715	
70	301.42861580848694	movie	1		300	68.0	2.5	blank	1.0	317.5606904029846	2.508694648742676
70	303.0209889411926	pulse	1	t		68.0	2.5	blank	1.0	319.1530635356903	
70	303.9373104572296	fix_post	2		12	68.0	2.5	blank	1.0	320.0693850517273	0.10000729560852051
71	304.03731775283813	fix_pre	0		120	69.0	2.5	/experiments/Knapen_AOT/AOT_stimuli/rescaled_final/1660_rv.mp4	0.0	320.1693923473358	1.0085058212280273
71	304.62095880508423	pulse	0	t		69.0	2.5	/experiments/Knapen_AOT/AOT_stimuli/rescaled_final/1660_rv.mp4	0.0	320.7530333995819	
71	305.04582357406616	movie	1		285	69.0	2.5	/experiments/Knapen_AOT/AOT_stimuli/rescaled_final/1660_rv.mp4	0.0	321.17789816856384	2.4920599460601807
71	306.2195978164673	pulse	1	t		69.0	2.5	/experiments/Knapen_AOT/AOT_stimuli/rescaled_final/1660_rv.mp4	0.0	322.35167241096497	
71	307.53788352012634	fix_post	2		12	69.0	2.5	/experiments/Knapen_AOT/AOT_stimuli/rescaled_final/1660_rv.mp4	0.0	323.669958114624	0.09997773170471191
72	307.63786125183105	fix_pre	0		120	70.0	2.5	/experiments/Knapen_AOT/AOT_stimuli/rescaled_final/0087_fw.mp4	0.0	323.76993584632874	1.0085172653198242
72	307.82152581214905	pulse	0	t		70.0	2.5	/experiments/Knapen_AOT/AOT_stimuli/rescaled_final/0087_fw.mp4	0.0	323.95360040664673	
72	308.6463785171509	movie	1		273	70.0	2.5	/experiments/Knapen_AOT/AOT_stimuli/rescaled_final/0087_fw.mp4	0.0	324.77845311164856	2.492023229598999
72	309.41997480392456	pulse	1	t		70.0	2.5	/experiments/Knapen_AOT/AOT_stimuli/rescaled_final/0087_fw.mp4	0.0	325.55204939842224	
72	311.01988911628723	pulse	1	t		70.0	2.5	/experiments/Knapen_AOT/AOT_stimuli/rescaled_final/0087_fw.mp4	0.0	327.1519637107849	
72	311.1384017467499	fix_post	2		12	70.0	2.5	/experiments/Knapen_AOT/AOT_stimuli/rescaled_final/0087_fw.mp4	0.0	327.27047634124756	0.10003256797790527
73	311.2384343147278	fix_pre	0		120	71.0	2.5	/experiments/Knapen_AOT/AOT_stimuli/rescaled_final/0676_fw.mp4	0.0	327.37050890922546	1.0084936618804932
73	312.2469279766083	movie	1		268	71.0	2.5	/experiments/Knapen_AOT/AOT_stimuli/rescaled_final/0676_fw.mp4	0.0	328.37900257110596	2.492037773132324
73	312.6202988624573	pulse	1	t		71.0	2.5	/experiments/Knapen_AOT/AOT_stimuli/rescaled_final/0676_fw.mp4	0.0	328.75237345695496	
73	314.22258162498474	pulse	1	t		71.0	2.5	/experiments/Knapen_AOT/AOT_stimuli/rescaled_final/0676_fw.mp4	0.0	330.3546562194824	
73	314.7389657497406	fix_post	2		12	71.0	2.5	/experiments/Knapen_AOT/AOT_stimuli/rescaled_final/0676_fw.mp4	0.0	330.8710403442383	0.09996914863586426
74	314.83893489837646	fix_pre	0		119	72.0	2.5	/experiments/Knapen_AOT/AOT_stimuli/rescaled_final/0648_rv.mp4	0.0	330.97100949287415	1.000154733657837
74	315.82308983802795	pulse	0	t		72.0	2.5	/experiments/Knapen_AOT/AOT_stimuli/rescaled_final/0648_rv.mp4	0.0	331.95516443252563	
74	315.8390896320343	movie	1		269	72.0	2.5	/experiments/Knapen_AOT/AOT_stimuli/rescaled_final/0648_rv.mp4	0.0	331.971164226532	2.5004234313964844
74	317.422979593277	pulse	1	t		72.0	2.5	/experiments/Knapen_AOT/AOT_stimuli/rescaled_final/0648_rv.mp4	0.0	333.55505418777466	
74	318.3395130634308	fix_post	2		12	72.0	2.5	/experiments/Knapen_AOT/AOT_stimuli/rescaled_final/0648_rv.mp4	0.0	334.47158765792847	0.09997439384460449
75	318.4394874572754	fix_pre	0		120	73.0	2.5	/experiments/Knapen_AOT/AOT_stimuli/rescaled_final/2037_rv.mp4	0.0	334.57156205177307	1.00852632522583
75	319.0231852531433	pulse	0	t		73.0	2.5	/experiments/Knapen_AOT/AOT_stimuli/rescaled_final/2037_rv.mp4	0.0	335.155259847641	
75	319.4480137825012	movie	1		276	73.0	2.5	/experiments/Knapen_AOT/AOT_stimuli/rescaled_final/2037_rv.mp4	0.0	335.5800883769989	2.491976499557495
75	320.62185764312744	pulse	1	t		73.0	2.5	/experiments/Knapen_AOT/AOT_stimuli/rescaled_final/2037_rv.mp4	0.0	336.7539322376251	
75	321.9399902820587	fix_post	2		12	73.0	2.5	/experiments/Knapen_AOT/AOT_stimuli/rescaled_final/2037_rv.mp4	0.0	338.0720648765564	0.1000516414642334
76	322.04004192352295	fix_pre	0		120	74.0	2.5	/experiments/Knapen_AOT/AOT_stimuli/rescaled_final/0740_fw.mp4	0.0	338.17211651802063	1.0085289478302002
76	322.2178409099579	pulse	0	t		74.0	2.5	/experiments/Knapen_AOT/AOT_stimuli/rescaled_final/0740_fw.mp4	0.0	338.34991550445557	
76	323.04857087135315	movie	1		280	74.0	2.5	/experiments/Knapen_AOT/AOT_stimuli/rescaled_final/0740_fw.mp4	0.0	339.18064546585083	2.492006778717041
76	323.8217911720276	pulse	1	t		74.0	2.5	/experiments/Knapen_AOT/AOT_stimuli/rescaled_final/0740_fw.mp4	0.0	339.95386576652527	
76	325.4221329689026	pulse	1	t		74.0	2.5	/experiments/Knapen_AOT/AOT_stimuli/rescaled_final/0740_fw.mp4	0.0	341.55420756340027	
76	325.5405776500702	fix_post	2		12	74.0	2.5	/experiments/Knapen_AOT/AOT_stimuli/rescaled_final/0740_fw.mp4	0.0	341.67265224456787	0.10001564025878906
77	325.640593290329	fix_pre	0		120	75.0	2.5	blank	1.0	341.77266788482666	1.0001435279846191
77	326.6407368183136	movie	1		300	75.0	2.5	blank	1.0	342.7728114128113	2.5003483295440674
77	327.0161454677582	pulse	1	t		75.0	2.5	blank	1.0	343.14822006225586	
77	328.616507768631	pulse	1	t		75.0	2.5	blank	1.0	344.74858236312866	
77	329.14108514785767	fix_post	2		12	75.0	2.5	blank	1.0	345.27315974235535	0.10005640983581543
78	329.2411415576935	fix_pre	0		118	76.0	2.5	/experiments/Knapen_AOT/AOT_stimuli/rescaled_final/2127_fw.mp4	0.0	345.37321615219116	1.0001633167266846
78	330.2165699005127	pulse	0	t		76.0	2.5	/experiments/Knapen_AOT/AOT_stimuli/rescaled_final/2127_fw.mp4	0.0	346.3486444950104	
78	330.24130487442017	movie	1		271	76.0	2.5	/experiments/Knapen_AOT/AOT_stimuli/rescaled_final/2127_fw.mp4	0.0	346.37337946891785	2.4919979572296143
78	331.8168480396271	pulse	1	t		76.0	2.5	/experiments/Knapen_AOT/AOT_stimuli/rescaled_final/2127_fw.mp4	0.0	347.94892263412476	
78	332.7333028316498	fix_post	2		12	76.0	2.5	/experiments/Knapen_AOT/AOT_stimuli/rescaled_final/2127_fw.mp4	0.0	348.86537742614746	0.10003542900085449
79	332.83333826065063	fix_pre	0		120	77.0	2.5	/experiments/Knapen_AOT/AOT_stimuli/rescaled_final/2003_fw.mp4	0.0	348.9654128551483	1.0085432529449463
79	333.4169692993164	pulse	0	t		77.0	2.5	/experiments/Knapen_AOT/AOT_stimuli/rescaled_final/2003_fw.mp4	0.0	349.5490438938141	
79	333.8418815135956	movie	1		273	77.0	2.5	/experiments/Knapen_AOT/AOT_stimuli/rescaled_final/2003_fw.mp4	0.0	349.97395610809326	2.492063045501709
79	335.0172255039215	pulse	1	t		77.0	2.5	/experiments/Knapen_AOT/AOT_stimuli/rescaled_final/2003_fw.mp4	0.0	351.1493000984192	
79	336.3339445590973	fix_post	2		12	77.0	2.5	/experiments/Knapen_AOT/AOT_stimuli/rescaled_final/2003_fw.mp4	0.0	352.46601915359497	0.0999150276184082
80	336.4338595867157	fix_pre	0		120	78.0	2.5	/experiments/Knapen_AOT/AOT_stimuli/rescaled_final/1131_fw.mp4	0.0	352.5659341812134	1.0084505081176758
80	336.6174478530884	pulse	0	t		78.0	2.5	/experiments/Knapen_AOT/AOT_stimuli/rescaled_final/1131_fw.mp4	0.0	352.74952244758606	
80	337.4423100948334	movie	1		284	78.0	2.5	/experiments/Knapen_AOT/AOT_stimuli/rescaled_final/1131_fw.mp4	0.0	353.57438468933105	2.4920694828033447
80	338.2179298400879	pulse	1	t		78.0	2.5	/experiments/Knapen_AOT/AOT_stimuli/rescaled_final/1131_fw.mp4	0.0	354.35000443458557	
80	339.81791257858276	pulse	1	t		78.0	2.5	/experiments/Knapen_AOT/AOT_stimuli/rescaled_final/1131_fw.mp4	0.0	355.94998717308044	
80	339.9343795776367	fix_post	2		12	78.0	2.5	/experiments/Knapen_AOT/AOT_stimuli/rescaled_final/1131_fw.mp4	0.0	356.0664541721344	0.10000801086425781
81	340.034387588501	fix_pre	0		120	79.0	2.5	/experiments/Knapen_AOT/AOT_stimuli/rescaled_final/0771_fw.mp4	0.0	356.16646218299866	1.008507251739502
81	341.0428948402405	movie	1		275	79.0	2.5	/experiments/Knapen_AOT/AOT_stimuli/rescaled_final/0771_fw.mp4	0.0	357.17496943473816	2.492029905319214
81	341.4183626174927	pulse	1	t		79.0	2.5	/experiments/Knapen_AOT/AOT_stimuli/rescaled_final/0771_fw.mp4	0.0	357.55043721199036	
81	343.0165157318115	pulse	1	t		79.0	2.5	/experiments/Knapen_AOT/AOT_stimuli/rescaled_final/0771_fw.mp4	0.0	359.1485903263092	
81	343.5349247455597	fix_post	2		12	79.0	2.5	/experiments/Knapen_AOT/AOT_stimuli/rescaled_final/0771_fw.mp4	0.0	359.6669993400574	0.10004258155822754
82	343.6349673271179	fix_pre	0		119	80.0	2.5	/experiments/Knapen_AOT/AOT_stimuli/rescaled_final/1501_fw.mp4	0.0	359.7670419216156	1.0085632801055908
82	344.6186339855194	pulse	0	t		80.0	2.5	/experiments/Knapen_AOT/AOT_stimuli/rescaled_final/1501_fw.mp4	0.0	360.7507085800171	
82	344.6435306072235	movie	1		290	80.0	2.5	/experiments/Knapen_AOT/AOT_stimuli/rescaled_final/1501_fw.mp4	0.0	360.7756052017212	2.491907835006714
82	346.2175579071045	pulse	1	t		80.0	2.5	/experiments/Knapen_AOT/AOT_stimuli/rescaled_final/1501_fw.mp4	0.0	362.3496325016022	
82	347.1354384422302	fix_post	2		12	80.0	2.5	/experiments/Knapen_AOT/AOT_stimuli/rescaled_final/1501_fw.mp4	0.0	363.2675130367279	0.10003495216369629
83	347.2354733943939	fix_pre	0		120	81.0	2.5	/experiments/Knapen_AOT/AOT_stimuli/rescaled_final/1308_fw.mp4	0.0	363.3675479888916	1.0084912776947021
83	347.8192868232727	pulse	0	t		81.0	2.5	/experiments/Knapen_AOT/AOT_stimuli/rescaled_final/1308_fw.mp4	0.0	363.9513614177704	
83	348.2439646720886	movie	1		288	81.0	2.5	/experiments/Knapen_AOT/AOT_stimuli/rescaled_final/1308_fw.mp4	0.0	364.3760392665863	2.492044687271118
83	349.4193322658539	pulse	1	t		81.0	2.5	/experiments/Knapen_AOT/AOT_stimuli/rescaled_final/1308_fw.mp4	0.0	365.55140686035156	
83	350.73600935935974	fix_post	2		12	81.0	2.5	/experiments/Knapen_AOT/AOT_stimuli/rescaled_final/1308_fw.mp4	0.0	366.8680839538574	0.10001325607299805
84	350.83602261543274	fix_pre	0		120	82.0	2.5	blank	1.0	366.9680972099304	1.0001425743103027
84	351.0195028781891	pulse	0	t		82.0	2.5	blank	1.0	367.15157747268677	
84	351.83616518974304	movie	1		300	82.0	2.5	blank	1.0	367.9682397842407	2.5003912448883057
84	352.61971855163574	pulse	1	t		82.0	2.5	blank	1.0	368.7517931461334	
84	354.2200975418091	pulse	1	t		82.0	2.5	blank	1.0	370.35217213630676	
84	354.33655643463135	fix_post	2		12	82.0	2.5	blank	1.0	370.468631029129	0.10010957717895508
85	354.4366660118103	fix_pre	0		120	83.0	2.5	/experiments/Knapen_AOT/AOT_stimuli/rescaled_final/1477_fw.mp4	0.0	370.568740606308	1.0084145069122314
85	355.44508051872253	movie	1		271	83.0	2.5	/experiments/Knapen_AOT/AOT_stimuli/rescaled_final/1477_fw.mp4	0.0	371.5771551132202	2.4920341968536377
85	355.8186173439026	pulse	1	t		83.0	2.5	/experiments/Knapen_AOT/AOT_stimuli/rescaled_final/1477_fw.mp4	0.0	371.95069193840027	
85	357.41855096817017	pulse	1	t		83.0	2.5	/experiments/Knapen_AOT/AOT_stimuli/rescaled_final/1477_fw.mp4	0.0	373.55062556266785	
85	357.9371147155762	fix_post	2		12	83.0	2.5	/experiments/Knapen_AOT/AOT_stimuli/rescaled_final/1477_fw.mp4	0.0	374.06918931007385	0.10002779960632324
87	358.0371425151825	stim	0		1716					374.1692171096802	14.302127361297607
87	359.0208444595337	pulse	0	t						375.1529190540314	
87	360.6210331916809	pulse	0	t						376.7531077861786	
87	362.2212851047516	pulse	0	t						378.35335969924927	
87	363.8215081691742	pulse	0	t						379.9535827636719	
87	365.421914100647	pulse	0	t						381.55398869514465	
87	367.02198910713196	pulse	0	t						383.15406370162964	
87	368.62223267555237	pulse	0	t						384.75430727005005	
87	370.2225179672241	pulse	0	t						386.3545925617218	
87	371.822781085968	pulse	0	t						387.9548556804657	
