trial_nr	onset	event_type	phase	response	nr_frames	movie_index	movie_duration	movie_file	blank	onset_abs	duration
0	0.15873003005981445	stim	0		55					20.41874098777771	0.45775294303894043
0	0.6084649562835693	response	0	space						20.868475914001465	
1	0.6164829730987549	stim	0		12966					20.87649393081665	108.0495080947876
1	108.65784502029419	pulse	0	t						128.91785597801208	
1	108.66599106788635	stim	1		1717					128.92600202560425	14.308273792266846
1	110.25777506828308	pulse	1	t						130.51778602600098	
1	111.85783290863037	pulse	1	t						132.11784386634827	
1	113.45775604248047	pulse	1	t						133.71776700019836	
1	115.05779504776001	pulse	1	t						135.3178060054779	
1	116.6578369140625	pulse	1	t						136.9178478717804	
1	118.25775289535522	pulse	1	t						138.51776385307312	
1	119.85784792900085	pulse	1	t						140.11785888671875	
1	121.45776391029358	pulse	1	t						141.71777486801147	
2	122.9742648601532	fix_pre	0		11	0.0	2.5	/experiments/AOT/AOT_stimuli/rescaled_final/1458_rv.mp4	0.0	143.2342758178711	0.09168505668640137
2	123.05782198905945	pulse	0	t		0.0	2.5	/experiments/AOT/AOT_stimuli/rescaled_final/1458_rv.mp4	0.0	143.31783294677734	
2	123.0659499168396	movie	1		244	0.0	2.5	/experiments/AOT/AOT_stimuli/rescaled_final/1458_rv.mp4	0.0	143.3259608745575	2.508239984512329
2	124.66617488861084	pulse	1	t		0.0	2.5	/experiments/AOT/AOT_stimuli/rescaled_final/1458_rv.mp4	0.0	144.92618584632874	
2	125.57418990135193	fix_post	2		12	0.0	2.5	/experiments/AOT/AOT_stimuli/rescaled_final/1458_rv.mp4	0.0	145.83420085906982	0.09999918937683105
3	125.67418909072876	fix_pre	0		120	1.0	2.5	/experiments/AOT/AOT_stimuli/rescaled_final/2067_rv.mp4	0.0	145.93420004844666	1.000058889389038
3	126.2576470375061	pulse	0	t		1.0	2.5	/experiments/AOT/AOT_stimuli/rescaled_final/2067_rv.mp4	0.0	146.517657995224	
3	126.6742479801178	movie	1		244	1.0	2.5	/experiments/AOT/AOT_stimuli/rescaled_final/2067_rv.mp4	0.0	146.9342589378357	2.4999959468841553
3	127.85777592658997	pulse	1	t		1.0	2.5	/experiments/AOT/AOT_stimuli/rescaled_final/2067_rv.mp4	0.0	148.11778688430786	
3	129.17424392700195	fix_post	2		12	1.0	2.5	/experiments/AOT/AOT_stimuli/rescaled_final/2067_rv.mp4	0.0	149.43425488471985	0.10001206398010254
4	129.27425599098206	fix_pre	0		120	2.0	2.5	/experiments/AOT/AOT_stimuli/rescaled_final/0601_fw.mp4	0.0	149.53426694869995	0.9999740123748779
4	129.45771408081055	pulse	0	t		2.0	2.5	/experiments/AOT/AOT_stimuli/rescaled_final/0601_fw.mp4	0.0	149.71772503852844	
4	130.27423000335693	movie	1		242	2.0	2.5	/experiments/AOT/AOT_stimuli/rescaled_final/0601_fw.mp4	0.0	150.53424096107483	2.4999608993530273
4	131.0577380657196	pulse	1	t		2.0	2.5	/experiments/AOT/AOT_stimuli/rescaled_final/0601_fw.mp4	0.0	151.3177490234375	
4	132.66619491577148	pulse	1	t		2.0	2.5	/experiments/AOT/AOT_stimuli/rescaled_final/0601_fw.mp4	0.0	152.92620587348938	
4	132.77419090270996	fix_post	2		12	2.0	2.5	/experiments/AOT/AOT_stimuli/rescaled_final/0601_fw.mp4	0.0	153.03420186042786	0.0999910831451416
5	132.8741819858551	fix_pre	0		120	3.0	2.5	/experiments/AOT/AOT_stimuli/rescaled_final/1561_rv.mp4	0.0	153.134192943573	1.0000660419464111
5	133.8742480278015	movie	1		244	3.0	2.5	/experiments/AOT/AOT_stimuli/rescaled_final/1561_rv.mp4	0.0	154.1342589855194	2.500011920928955
5	134.2583429813385	pulse	1	t		3.0	2.5	/experiments/AOT/AOT_stimuli/rescaled_final/1561_rv.mp4	0.0	154.5183539390564	
5	135.85868787765503	pulse	1	t		3.0	2.5	/experiments/AOT/AOT_stimuli/rescaled_final/1561_rv.mp4	0.0	156.11869883537292	
5	136.37425994873047	fix_post	2		12	3.0	2.5	/experiments/AOT/AOT_stimuli/rescaled_final/1561_rv.mp4	0.0	156.63427090644836	0.09988713264465332
6	136.47414708137512	fix_pre	0		120	4.0	2.5	/experiments/AOT/AOT_stimuli/rescaled_final/0124_rv.mp4	0.0	156.73415803909302	1.000108003616333
6	137.45852994918823	pulse	0	t		4.0	2.5	/experiments/AOT/AOT_stimuli/rescaled_final/0124_rv.mp4	0.0	157.71854090690613	
6	137.47425508499146	movie	1		246	4.0	2.5	/experiments/AOT/AOT_stimuli/rescaled_final/0124_rv.mp4	0.0	157.73426604270935	2.50822377204895
6	139.0658860206604	pulse	1	t		4.0	2.5	/experiments/AOT/AOT_stimuli/rescaled_final/0124_rv.mp4	0.0	159.3258969783783	
6	139.9824788570404	fix_post	2		12	4.0	2.5	/experiments/AOT/AOT_stimuli/rescaled_final/0124_rv.mp4	0.0	160.2424898147583	0.09996914863586426
7	140.08244800567627	fix_pre	0		120	5.0	2.5	/experiments/AOT/AOT_stimuli/rescaled_final/1403_rv.mp4	0.0	160.34245896339417	1.0000979900360107
7	140.6576919555664	pulse	0	t		5.0	2.5	/experiments/AOT/AOT_stimuli/rescaled_final/1403_rv.mp4	0.0	160.9177029132843	
7	141.08254599571228	movie	1		246	5.0	2.5	/experiments/AOT/AOT_stimuli/rescaled_final/1403_rv.mp4	0.0	161.34255695343018	2.4999308586120605
7	142.26610898971558	pulse	1	t		5.0	2.5	/experiments/AOT/AOT_stimuli/rescaled_final/1403_rv.mp4	0.0	162.52611994743347	
7	143.58247685432434	fix_post	2		12	5.0	2.5	/experiments/AOT/AOT_stimuli/rescaled_final/1403_rv.mp4	0.0	163.84248781204224	0.10006117820739746
8	143.68253803253174	fix_pre	0		120	6.0	2.5	blank	1.0	163.94254899024963	0.9999608993530273
8	143.85765290260315	pulse	0	t		6.0	2.5	blank	1.0	164.11766386032104	
8	144.68249893188477	movie	1		300	6.0	2.5	blank	1.0	164.94250988960266	2.4999990463256836
8	145.45773887634277	pulse	1	t		6.0	2.5	blank	1.0	165.71774983406067	
8	147.05752992630005	pulse	1	t		6.0	2.5	blank	1.0	167.31754088401794	
8	147.18249797821045	fix_post	2		12	6.0	2.5	blank	1.0	167.44250893592834	0.10000395774841309
9	147.28250193595886	fix_pre	0		120	7.0	2.5	/experiments/AOT/AOT_stimuli/rescaled_final/0220_fw.mp4	0.0	167.54251289367676	0.9999921321868896
9	148.28249406814575	movie	1		245	7.0	2.5	/experiments/AOT/AOT_stimuli/rescaled_final/0220_fw.mp4	0.0	168.54250502586365	2.499504804611206
9	148.6575870513916	pulse	1	t		7.0	2.5	/experiments/AOT/AOT_stimuli/rescaled_final/0220_fw.mp4	0.0	168.9175980091095	
9	150.25770807266235	pulse	1	t		7.0	2.5	/experiments/AOT/AOT_stimuli/rescaled_final/0220_fw.mp4	0.0	170.51771903038025	
9	150.78199887275696	fix_post	2		12	7.0	2.5	/experiments/AOT/AOT_stimuli/rescaled_final/0220_fw.mp4	0.0	171.04200983047485	0.10046505928039551
10	150.88246393203735	fix_pre	0		118	8.0	2.5	/experiments/AOT/AOT_stimuli/rescaled_final/0142_rv.mp4	0.0	171.14247488975525	0.983253002166748
10	151.85762000083923	pulse	0	t		8.0	2.5	/experiments/AOT/AOT_stimuli/rescaled_final/0142_rv.mp4	0.0	172.11763095855713	
10	151.8657169342041	movie	1		245	8.0	2.5	/experiments/AOT/AOT_stimuli/rescaled_final/0142_rv.mp4	0.0	172.125727891922	2.5084080696105957
10	153.465980052948	pulse	1	t		8.0	2.5	/experiments/AOT/AOT_stimuli/rescaled_final/0142_rv.mp4	0.0	173.7259910106659	
10	154.3741250038147	fix_post	2		12	8.0	2.5	/experiments/AOT/AOT_stimuli/rescaled_final/0142_rv.mp4	0.0	174.6341359615326	0.1000819206237793
11	154.47420692443848	fix_pre	0		120	9.0	2.5	/experiments/AOT/AOT_stimuli/rescaled_final/0031_rv.mp4	0.0	174.73421788215637	0.999871015548706
11	155.05766987800598	pulse	0	t		9.0	2.5	/experiments/AOT/AOT_stimuli/rescaled_final/0031_rv.mp4	0.0	175.31768083572388	
11	155.47407793998718	movie	1		245	9.0	2.5	/experiments/AOT/AOT_stimuli/rescaled_final/0031_rv.mp4	0.0	175.73408889770508	2.4996421337127686
11	156.65776205062866	pulse	1	t		9.0	2.5	/experiments/AOT/AOT_stimuli/rescaled_final/0031_rv.mp4	0.0	176.91777300834656	
11	157.97372007369995	fix_post	2		12	9.0	2.5	/experiments/AOT/AOT_stimuli/rescaled_final/0031_rv.mp4	0.0	178.23373103141785	0.10000181198120117
12	158.07372188568115	fix_pre	0		120	10.0	2.5	/experiments/AOT/AOT_stimuli/rescaled_final/2099_rv.mp4	0.0	178.33373284339905	1.0005500316619873
12	158.25796103477478	pulse	0	t		10.0	2.5	/experiments/AOT/AOT_stimuli/rescaled_final/2099_rv.mp4	0.0	178.51797199249268	
12	159.07427191734314	movie	1		246	10.0	2.5	/experiments/AOT/AOT_stimuli/rescaled_final/2099_rv.mp4	0.0	179.33428287506104	2.4994001388549805
12	159.8583788871765	pulse	1	t		10.0	2.5	/experiments/AOT/AOT_stimuli/rescaled_final/2099_rv.mp4	0.0	180.1183898448944	
12	161.46608304977417	pulse	1	t		10.0	2.5	/experiments/AOT/AOT_stimuli/rescaled_final/2099_rv.mp4	0.0	181.72609400749207	
12	161.57367205619812	fix_post	2		12	10.0	2.5	/experiments/AOT/AOT_stimuli/rescaled_final/2099_rv.mp4	0.0	181.83368301391602	0.10038590431213379
13	161.67405796051025	fix_pre	0		120	11.0	2.5	/experiments/AOT/AOT_stimuli/rescaled_final/1601_fw.mp4	0.0	181.93406891822815	0.9999809265136719
13	162.67403888702393	movie	1		245	11.0	2.5	/experiments/AOT/AOT_stimuli/rescaled_final/1601_fw.mp4	0.0	182.93404984474182	2.4999911785125732
13	163.0583679676056	pulse	1	t		11.0	2.5	/experiments/AOT/AOT_stimuli/rescaled_final/1601_fw.mp4	0.0	183.3183789253235	
13	164.65752005577087	pulse	1	t		11.0	2.5	/experiments/AOT/AOT_stimuli/rescaled_final/1601_fw.mp4	0.0	184.91753101348877	
13	165.1740300655365	fix_post	2		12	11.0	2.5	/experiments/AOT/AOT_stimuli/rescaled_final/1601_fw.mp4	0.0	185.4340410232544	0.09995794296264648
14	165.27398800849915	fix_pre	0		119	12.0	2.5	blank	1.0	185.53399896621704	0.9917209148406982
14	166.2575478553772	pulse	0	t		12.0	2.5	blank	1.0	186.5175588130951	
14	166.26570892333984	movie	1		301	12.0	2.5	blank	1.0	186.52571988105774	2.5083229541778564
14	167.85752892494202	pulse	1	t		12.0	2.5	blank	1.0	188.1175398826599	
14	168.7740318775177	fix_post	2		12	12.0	2.5	blank	1.0	189.0340428352356	0.10001206398010254
15	168.8740439414978	fix_pre	0		120	13.0	2.5	/experiments/AOT/AOT_stimuli/rescaled_final/1327_rv.mp4	0.0	189.1340548992157	1.0000100135803223
15	169.4583170413971	pulse	0	t		13.0	2.5	/experiments/AOT/AOT_stimuli/rescaled_final/1327_rv.mp4	0.0	189.718327999115	
15	169.87405395507812	movie	1		243	13.0	2.5	/experiments/AOT/AOT_stimuli/rescaled_final/1327_rv.mp4	0.0	190.13406491279602	2.4999840259552
15	171.05767393112183	pulse	1	t		13.0	2.5	/experiments/AOT/AOT_stimuli/rescaled_final/1327_rv.mp4	0.0	191.31768488883972	
15	172.37403798103333	fix_post	2		12	13.0	2.5	/experiments/AOT/AOT_stimuli/rescaled_final/1327_rv.mp4	0.0	192.63404893875122	0.09998893737792969
16	172.47402691841125	fix_pre	0		120	14.0	2.5	/experiments/AOT/AOT_stimuli/rescaled_final/2074_rv.mp4	0.0	192.73403787612915	1.0000159740447998
16	172.6583230495453	pulse	0	t		14.0	2.5	/experiments/AOT/AOT_stimuli/rescaled_final/2074_rv.mp4	0.0	192.91833400726318	
16	173.47404289245605	movie	1		243	14.0	2.5	/experiments/AOT/AOT_stimuli/rescaled_final/2074_rv.mp4	0.0	193.73405385017395	2.4999170303344727
16	174.2584309577942	pulse	1	t		14.0	2.5	/experiments/AOT/AOT_stimuli/rescaled_final/2074_rv.mp4	0.0	194.51844191551208	
16	175.86585187911987	pulse	1	t		14.0	2.5	/experiments/AOT/AOT_stimuli/rescaled_final/2074_rv.mp4	0.0	196.12586283683777	
16	175.97395992279053	fix_post	2		12	14.0	2.5	/experiments/AOT/AOT_stimuli/rescaled_final/2074_rv.mp4	0.0	196.23397088050842	0.10004615783691406
17	176.07400608062744	fix_pre	0		120	15.0	2.5	/experiments/AOT/AOT_stimuli/rescaled_final/2099_rv.mp4	0.0	196.33401703834534	0.9995858669281006
17	177.07359194755554	movie	1		243	15.0	2.5	/experiments/AOT/AOT_stimuli/rescaled_final/2099_rv.mp4	0.0	197.33360290527344	2.5004899501800537
17	177.45856189727783	pulse	1	t		15.0	2.5	/experiments/AOT/AOT_stimuli/rescaled_final/2099_rv.mp4	0.0	197.71857285499573	
17	179.0574209690094	pulse	1	t		15.0	2.5	/experiments/AOT/AOT_stimuli/rescaled_final/2099_rv.mp4	0.0	199.3174319267273	
17	179.5740818977356	fix_post	2		12	15.0	2.5	/experiments/AOT/AOT_stimuli/rescaled_final/2099_rv.mp4	0.0	199.8340928554535	0.0998530387878418
18	179.67393493652344	fix_pre	0		119	16.0	2.5	/experiments/AOT/AOT_stimuli/rescaled_final/0424_fw.mp4	0.0	199.93394589424133	0.9916501045227051
18	180.6574900150299	pulse	0	t		16.0	2.5	/experiments/AOT/AOT_stimuli/rescaled_final/0424_fw.mp4	0.0	200.9175009727478	
18	180.66558504104614	movie	1		245	16.0	2.5	/experiments/AOT/AOT_stimuli/rescaled_final/0424_fw.mp4	0.0	200.92559599876404	2.5084409713745117
18	182.25761795043945	pulse	1	t		16.0	2.5	/experiments/AOT/AOT_stimuli/rescaled_final/0424_fw.mp4	0.0	202.51762890815735	
18	183.17402601242065	fix_post	2		12	16.0	2.5	/experiments/AOT/AOT_stimuli/rescaled_final/0424_fw.mp4	0.0	203.43403697013855	0.09990406036376953
19	183.27393007278442	fix_pre	0		120	17.0	2.5	/experiments/AOT/AOT_stimuli/rescaled_final/0146_fw.mp4	0.0	203.53394103050232	1.0000569820404053
19	183.85750889778137	pulse	0	t		17.0	2.5	/experiments/AOT/AOT_stimuli/rescaled_final/0146_fw.mp4	0.0	204.11751985549927	
19	184.27398705482483	movie	1		246	17.0	2.5	/experiments/AOT/AOT_stimuli/rescaled_final/0146_fw.mp4	0.0	204.53399801254272	2.4999308586120605
19	185.4584288597107	pulse	1	t		17.0	2.5	/experiments/AOT/AOT_stimuli/rescaled_final/0146_fw.mp4	0.0	205.7184398174286	
19	186.7739179134369	fix_post	2		12	17.0	2.5	/experiments/AOT/AOT_stimuli/rescaled_final/0146_fw.mp4	0.0	207.03392887115479	0.10001206398010254
20	186.873929977417	fix_pre	0		120	18.0	2.5	/experiments/AOT/AOT_stimuli/rescaled_final/1171_fw.mp4	0.0	207.1339409351349	0.9995870590209961
20	187.05825304985046	pulse	0	t		18.0	2.5	/experiments/AOT/AOT_stimuli/rescaled_final/1171_fw.mp4	0.0	207.31826400756836	
20	187.873517036438	movie	1		245	18.0	2.5	/experiments/AOT/AOT_stimuli/rescaled_final/1171_fw.mp4	0.0	208.13352799415588	2.5000150203704834
20	188.65829396247864	pulse	1	t		18.0	2.5	/experiments/AOT/AOT_stimuli/rescaled_final/1171_fw.mp4	0.0	208.91830492019653	
20	190.2578248977661	pulse	1	t		18.0	2.5	/experiments/AOT/AOT_stimuli/rescaled_final/1171_fw.mp4	0.0	210.517835855484	
20	190.37353205680847	fix_post	2		12	18.0	2.5	/experiments/AOT/AOT_stimuli/rescaled_final/1171_fw.mp4	0.0	210.63354301452637	0.10042500495910645
21	190.47395706176758	fix_pre	0		120	19.0	2.5	blank	1.0	210.73396801948547	1.0000169277191162
21	191.4739739894867	movie	1		300	19.0	2.5	blank	1.0	211.7339849472046	2.4999098777770996
21	191.85744404792786	pulse	1	t		19.0	2.5	blank	1.0	212.11745500564575	
21	193.45745491981506	pulse	1	t		19.0	2.5	blank	1.0	213.71746587753296	
21	193.9738838672638	fix_post	2		12	19.0	2.5	blank	1.0	214.2338948249817	0.1000661849975586
22	194.07395005226135	fix_pre	0		119	20.0	2.5	/experiments/AOT/AOT_stimuli/rescaled_final/0209_rv.mp4	0.0	214.33396100997925	0.9916329383850098
22	195.05737805366516	pulse	0	t		20.0	2.5	/experiments/AOT/AOT_stimuli/rescaled_final/0209_rv.mp4	0.0	215.31738901138306	
22	195.06558299064636	movie	1		245	20.0	2.5	/experiments/AOT/AOT_stimuli/rescaled_final/0209_rv.mp4	0.0	215.32559394836426	2.508349895477295
22	196.6577069759369	pulse	1	t		20.0	2.5	/experiments/AOT/AOT_stimuli/rescaled_final/0209_rv.mp4	0.0	216.91771793365479	
22	197.57393288612366	fix_post	2		12	20.0	2.5	/experiments/AOT/AOT_stimuli/rescaled_final/0209_rv.mp4	0.0	217.83394384384155	0.09954118728637695
23	197.67347407341003	fix_pre	0		120	21.0	2.5	/experiments/AOT/AOT_stimuli/rescaled_final/1078_fw.mp4	0.0	217.93348503112793	1.0004630088806152
23	198.2573640346527	pulse	0	t		21.0	2.5	/experiments/AOT/AOT_stimuli/rescaled_final/1078_fw.mp4	0.0	218.5173749923706	
23	198.67393708229065	movie	1		242	21.0	2.5	/experiments/AOT/AOT_stimuli/rescaled_final/1078_fw.mp4	0.0	218.93394804000854	2.4995079040527344
23	199.85748505592346	pulse	1	t		21.0	2.5	/experiments/AOT/AOT_stimuli/rescaled_final/1078_fw.mp4	0.0	220.11749601364136	
23	201.17344498634338	fix_post	2		12	21.0	2.5	/experiments/AOT/AOT_stimuli/rescaled_final/1078_fw.mp4	0.0	221.43345594406128	0.10043787956237793
24	201.27388286590576	fix_pre	0		120	22.0	2.5	/experiments/AOT/AOT_stimuli/rescaled_final/1880_fw.mp4	0.0	221.53389382362366	1.000047206878662
24	201.4583568572998	pulse	0	t		22.0	2.5	/experiments/AOT/AOT_stimuli/rescaled_final/1880_fw.mp4	0.0	221.7183678150177	
24	202.27393007278442	movie	1		244	22.0	2.5	/experiments/AOT/AOT_stimuli/rescaled_final/1880_fw.mp4	0.0	222.53394103050232	2.4999020099639893
24	203.05825805664062	pulse	1	t		22.0	2.5	/experiments/AOT/AOT_stimuli/rescaled_final/1880_fw.mp4	0.0	223.31826901435852	
24	204.66565799713135	pulse	1	t		22.0	2.5	/experiments/AOT/AOT_stimuli/rescaled_final/1880_fw.mp4	0.0	224.92566895484924	
24	204.7738320827484	fix_post	2		12	22.0	2.5	/experiments/AOT/AOT_stimuli/rescaled_final/1880_fw.mp4	0.0	225.0338430404663	0.10000085830688477
25	204.8738329410553	fix_pre	0		120	23.0	2.5	/experiments/AOT/AOT_stimuli/rescaled_final/1546_fw.mp4	0.0	225.1338438987732	0.9999809265136719
25	205.87381386756897	movie	1		243	23.0	2.5	/experiments/AOT/AOT_stimuli/rescaled_final/1546_fw.mp4	0.0	226.13382482528687	2.5002171993255615
25	206.26579689979553	pulse	1	t		23.0	2.5	/experiments/AOT/AOT_stimuli/rescaled_final/1546_fw.mp4	0.0	226.52580785751343	
25	207.85831308364868	pulse	1	t		23.0	2.5	/experiments/AOT/AOT_stimuli/rescaled_final/1546_fw.mp4	0.0	228.11832404136658	
25	208.37403106689453	fix_post	2		12	23.0	2.5	/experiments/AOT/AOT_stimuli/rescaled_final/1546_fw.mp4	0.0	228.63404202461243	0.09986281394958496
26	208.47389388084412	fix_pre	0		120	24.0	2.5	/experiments/AOT/AOT_stimuli/rescaled_final/1403_fw.mp4	0.0	228.733904838562	1.0000650882720947
26	209.45820689201355	pulse	0	t		24.0	2.5	/experiments/AOT/AOT_stimuli/rescaled_final/1403_fw.mp4	0.0	229.71821784973145	
26	209.4739589691162	movie	1		245	24.0	2.5	/experiments/AOT/AOT_stimuli/rescaled_final/1403_fw.mp4	0.0	229.7339699268341	2.508272886276245
26	211.05739903450012	pulse	1	t		24.0	2.5	/experiments/AOT/AOT_stimuli/rescaled_final/1403_fw.mp4	0.0	231.31740999221802	
26	211.98223185539246	fix_post	2		12	24.0	2.5	/experiments/AOT/AOT_stimuli/rescaled_final/1403_fw.mp4	0.0	232.24224281311035	0.09992623329162598
27	212.08215808868408	fix_pre	0		120	25.0	2.5	/experiments/AOT/AOT_stimuli/rescaled_final/0766_fw.mp4	0.0	232.34216904640198	0.9996068477630615
27	212.65765190124512	pulse	0	t		25.0	2.5	/experiments/AOT/AOT_stimuli/rescaled_final/0766_fw.mp4	0.0	232.917662858963	
27	213.08176493644714	movie	1		245	25.0	2.5	/experiments/AOT/AOT_stimuli/rescaled_final/0766_fw.mp4	0.0	233.34177589416504	2.5006370544433594
27	214.26585602760315	pulse	1	t		25.0	2.5	/experiments/AOT/AOT_stimuli/rescaled_final/0766_fw.mp4	0.0	234.52586698532104	
27	215.5824019908905	fix_post	2		12	25.0	2.5	/experiments/AOT/AOT_stimuli/rescaled_final/0766_fw.mp4	0.0	235.8424129486084	0.09967589378356934
28	215.68207788467407	fix_pre	0		120	26.0	2.5	blank	1.0	235.94208884239197	1.0001330375671387
28	215.8572289943695	pulse	0	t		26.0	2.5	blank	1.0	236.1172399520874	
28	216.6822109222412	movie	1		300	26.0	2.5	blank	1.0	236.9422218799591	2.500035047531128
28	217.45813298225403	pulse	1	t		26.0	2.5	blank	1.0	237.71814393997192	
28	219.05811190605164	pulse	1	t		26.0	2.5	blank	1.0	239.31812286376953	
28	219.18224596977234	fix_post	2		12	26.0	2.5	blank	1.0	239.44225692749023	0.09986591339111328
29	219.28211188316345	fix_pre	0		120	27.0	2.5	/experiments/AOT/AOT_stimuli/rescaled_final/1983_fw.mp4	0.0	239.54212284088135	1.0000560283660889
29	220.28216791152954	movie	1		247	27.0	2.5	/experiments/AOT/AOT_stimuli/rescaled_final/1983_fw.mp4	0.0	240.54217886924744	2.499959945678711
29	220.6657190322876	pulse	1	t		27.0	2.5	/experiments/AOT/AOT_stimuli/rescaled_final/1983_fw.mp4	0.0	240.9257299900055	
29	222.2581000328064	pulse	1	t		27.0	2.5	/experiments/AOT/AOT_stimuli/rescaled_final/1983_fw.mp4	0.0	242.5181109905243	
29	222.78212785720825	fix_post	2		12	27.0	2.5	/experiments/AOT/AOT_stimuli/rescaled_final/1983_fw.mp4	0.0	243.04213881492615	0.09995603561401367
30	222.88208389282227	fix_pre	0		119	28.0	2.5	/experiments/AOT/AOT_stimuli/rescaled_final/1385_rv.mp4	0.0	243.14209485054016	0.9917111396789551
30	223.85806107521057	pulse	0	t		28.0	2.5	/experiments/AOT/AOT_stimuli/rescaled_final/1385_rv.mp4	0.0	244.11807203292847	
30	223.87379503250122	movie	1		247	28.0	2.5	/experiments/AOT/AOT_stimuli/rescaled_final/1385_rv.mp4	0.0	244.13380599021912	2.5082688331604004
30	225.46505403518677	pulse	1	t		28.0	2.5	/experiments/AOT/AOT_stimuli/rescaled_final/1385_rv.mp4	0.0	245.72506499290466	
30	226.38206386566162	fix_post	2		12	28.0	2.5	/experiments/AOT/AOT_stimuli/rescaled_final/1385_rv.mp4	0.0	246.64207482337952	0.09997010231018066
31	226.4820339679718	fix_pre	0		120	29.0	2.5	/experiments/AOT/AOT_stimuli/rescaled_final/0621_fw.mp4	0.0	246.7420449256897	1.000011920928955
31	227.05804705619812	pulse	0	t		29.0	2.5	/experiments/AOT/AOT_stimuli/rescaled_final/0621_fw.mp4	0.0	247.31805801391602	
31	227.48204588890076	movie	1		245	29.0	2.5	/experiments/AOT/AOT_stimuli/rescaled_final/0621_fw.mp4	0.0	247.74205684661865	2.499979019165039
31	228.66570401191711	pulse	1	t		29.0	2.5	/experiments/AOT/AOT_stimuli/rescaled_final/0621_fw.mp4	0.0	248.925714969635	
31	229.9820249080658	fix_post	2		12	29.0	2.5	/experiments/AOT/AOT_stimuli/rescaled_final/0621_fw.mp4	0.0	250.2420358657837	0.09996795654296875
32	230.08199286460876	fix_pre	0		120	30.0	2.5	/experiments/AOT/AOT_stimuli/rescaled_final/1171_fw.mp4	0.0	250.34200382232666	1.0000360012054443
32	230.2572250366211	pulse	0	t		30.0	2.5	/experiments/AOT/AOT_stimuli/rescaled_final/1171_fw.mp4	0.0	250.517235994339	
32	231.0820288658142	movie	1		244	30.0	2.5	/experiments/AOT/AOT_stimuli/rescaled_final/1171_fw.mp4	0.0	251.3420398235321	2.500028133392334
32	231.85738801956177	pulse	1	t		30.0	2.5	/experiments/AOT/AOT_stimuli/rescaled_final/1171_fw.mp4	0.0	252.11739897727966	
32	233.46382403373718	pulse	1	t		30.0	2.5	/experiments/AOT/AOT_stimuli/rescaled_final/1171_fw.mp4	0.0	253.72383499145508	
32	233.58205699920654	fix_post	2		12	30.0	2.5	/experiments/AOT/AOT_stimuli/rescaled_final/1171_fw.mp4	0.0	253.84206795692444	0.10004496574401855
33	233.68210196495056	fix_pre	0		120	31.0	2.5	/experiments/AOT/AOT_stimuli/rescaled_final/0636_rv.mp4	0.0	253.94211292266846	0.9999220371246338
33	234.6820240020752	movie	1		245	31.0	2.5	/experiments/AOT/AOT_stimuli/rescaled_final/0636_rv.mp4	0.0	254.9420349597931	2.5000429153442383
33	235.0654239654541	pulse	1	t		31.0	2.5	/experiments/AOT/AOT_stimuli/rescaled_final/0636_rv.mp4	0.0	255.325434923172	
33	236.65813207626343	pulse	1	t		31.0	2.5	/experiments/AOT/AOT_stimuli/rescaled_final/0636_rv.mp4	0.0	256.9181430339813	
33	237.18206691741943	fix_post	2		12	31.0	2.5	/experiments/AOT/AOT_stimuli/rescaled_final/0636_rv.mp4	0.0	257.44207787513733	0.09995412826538086
34	237.28202104568481	fix_pre	0		119	32.0	2.5	/experiments/AOT/AOT_stimuli/rescaled_final/0678_fw.mp4	0.0	257.5420320034027	0.9915878772735596
34	238.25793886184692	pulse	0	t		32.0	2.5	/experiments/AOT/AOT_stimuli/rescaled_final/0678_fw.mp4	0.0	258.5179498195648	
34	238.27360892295837	movie	1		245	32.0	2.5	/experiments/AOT/AOT_stimuli/rescaled_final/0678_fw.mp4	0.0	258.53361988067627	2.508427143096924
34	239.8669400215149	pulse	1	t		32.0	2.5	/experiments/AOT/AOT_stimuli/rescaled_final/0678_fw.mp4	0.0	260.1269509792328	
34	240.7820360660553	fix_post	2		12	32.0	2.5	/experiments/AOT/AOT_stimuli/rescaled_final/0678_fw.mp4	0.0	261.0420470237732	0.10002684593200684
35	240.8820629119873	fix_pre	0		120	33.0	2.5	blank	1.0	261.1420738697052	0.9999790191650391
35	241.4579439163208	pulse	0	t		33.0	2.5	blank	1.0	261.7179548740387	
35	241.88204193115234	movie	1		300	33.0	2.5	blank	1.0	262.14205288887024	2.499958038330078
35	243.05791902542114	pulse	1	t		33.0	2.5	blank	1.0	263.31792998313904	
35	244.38199996948242	fix_post	2		12	33.0	2.5	blank	1.0	264.6420109272003	0.10002899169921875
36	244.48202896118164	fix_pre	0		120	34.0	2.5	/experiments/AOT/AOT_stimuli/rescaled_final/1648_rv.mp4	0.0	264.74203991889954	0.999953031539917
36	244.65787601470947	pulse	0	t		34.0	2.5	/experiments/AOT/AOT_stimuli/rescaled_final/1648_rv.mp4	0.0	264.91788697242737	
36	245.48198199272156	movie	1		244	34.0	2.5	/experiments/AOT/AOT_stimuli/rescaled_final/1648_rv.mp4	0.0	265.74199295043945	2.50007700920105
36	246.25719094276428	pulse	1	t		34.0	2.5	/experiments/AOT/AOT_stimuli/rescaled_final/1648_rv.mp4	0.0	266.5172019004822	
36	247.85722398757935	pulse	1	t		34.0	2.5	/experiments/AOT/AOT_stimuli/rescaled_final/1648_rv.mp4	0.0	268.11723494529724	
36	247.9820590019226	fix_post	2		12	34.0	2.5	/experiments/AOT/AOT_stimuli/rescaled_final/1648_rv.mp4	0.0	268.2420699596405	0.09958004951477051
37	248.08163905143738	fix_pre	0		120	35.0	2.5	/experiments/AOT/AOT_stimuli/rescaled_final/2138_rv.mp4	0.0	268.3416500091553	1.0004069805145264
37	249.0820460319519	movie	1		245	35.0	2.5	/experiments/AOT/AOT_stimuli/rescaled_final/2138_rv.mp4	0.0	269.3420569896698	2.4999618530273438
37	249.46501898765564	pulse	1	t		35.0	2.5	/experiments/AOT/AOT_stimuli/rescaled_final/2138_rv.mp4	0.0	269.72502994537354	
37	251.0581579208374	pulse	1	t		35.0	2.5	/experiments/AOT/AOT_stimuli/rescaled_final/2138_rv.mp4	0.0	271.3181688785553	
37	251.58200788497925	fix_post	2		12	35.0	2.5	/experiments/AOT/AOT_stimuli/rescaled_final/2138_rv.mp4	0.0	271.84201884269714	0.09999418258666992
38	251.68200206756592	fix_pre	0		119	36.0	2.5	/experiments/AOT/AOT_stimuli/rescaled_final/0450_fw.mp4	0.0	271.9420130252838	0.9916059970855713
38	252.6580789089203	pulse	0	t		36.0	2.5	/experiments/AOT/AOT_stimuli/rescaled_final/0450_fw.mp4	0.0	272.9180898666382	
38	252.6736080646515	movie	1		246	36.0	2.5	/experiments/AOT/AOT_stimuli/rescaled_final/0450_fw.mp4	0.0	272.9336190223694	2.5083489418029785
38	254.26519894599915	pulse	1	t		36.0	2.5	/experiments/AOT/AOT_stimuli/rescaled_final/0450_fw.mp4	0.0	274.52520990371704	
38	255.18195700645447	fix_post	2		12	36.0	2.5	/experiments/AOT/AOT_stimuli/rescaled_final/0450_fw.mp4	0.0	275.44196796417236	0.09997987747192383
39	255.2819368839264	fix_pre	0		120	37.0	2.5	/experiments/AOT/AOT_stimuli/rescaled_final/1732_rv.mp4	0.0	275.5419478416443	1.0000500679016113
39	255.85789704322815	pulse	0	t		37.0	2.5	/experiments/AOT/AOT_stimuli/rescaled_final/1732_rv.mp4	0.0	276.11790800094604	
39	256.281986951828	movie	1		244	37.0	2.5	/experiments/AOT/AOT_stimuli/rescaled_final/1732_rv.mp4	0.0	276.5419979095459	2.4999709129333496
39	257.4655270576477	pulse	1	t		37.0	2.5	/experiments/AOT/AOT_stimuli/rescaled_final/1732_rv.mp4	0.0	277.7255380153656	
39	258.78195786476135	fix_post	2		12	37.0	2.5	/experiments/AOT/AOT_stimuli/rescaled_final/1732_rv.mp4	0.0	279.04196882247925	0.10000205039978027
40	258.88195991516113	fix_pre	0		120	38.0	2.5	/experiments/AOT/AOT_stimuli/rescaled_final/0686_rv.mp4	0.0	279.141970872879	1.0000600814819336
40	259.05797004699707	pulse	0	t		38.0	2.5	/experiments/AOT/AOT_stimuli/rescaled_final/0686_rv.mp4	0.0	279.31798100471497	
40	259.88201999664307	movie	1		245	38.0	2.5	/experiments/AOT/AOT_stimuli/rescaled_final/0686_rv.mp4	0.0	280.14203095436096	2.499851942062378
40	260.6579329967499	pulse	1	t		38.0	2.5	/experiments/AOT/AOT_stimuli/rescaled_final/0686_rv.mp4	0.0	280.9179439544678	
40	262.257178068161	pulse	1	t		38.0	2.5	/experiments/AOT/AOT_stimuli/rescaled_final/0686_rv.mp4	0.0	282.5171890258789	
40	262.38187193870544	fix_post	2		12	38.0	2.5	/experiments/AOT/AOT_stimuli/rescaled_final/0686_rv.mp4	0.0	282.64188289642334	0.10017108917236328
41	262.4820430278778	fix_pre	0		120	39.0	2.5	/experiments/AOT/AOT_stimuli/rescaled_final/1903_rv.mp4	0.0	282.7420539855957	0.999891996383667
41	263.4819350242615	movie	1		244	39.0	2.5	/experiments/AOT/AOT_stimuli/rescaled_final/1903_rv.mp4	0.0	283.74194598197937	2.500025987625122
41	263.8571949005127	pulse	1	t		39.0	2.5	/experiments/AOT/AOT_stimuli/rescaled_final/1903_rv.mp4	0.0	284.1172058582306	
41	265.4581608772278	pulse	1	t		39.0	2.5	/experiments/AOT/AOT_stimuli/rescaled_final/1903_rv.mp4	0.0	285.7181718349457	
41	265.9819610118866	fix_post	2		12	39.0	2.5	/experiments/AOT/AOT_stimuli/rescaled_final/1903_rv.mp4	0.0	286.2419719696045	0.09995198249816895
42	266.08191299438477	fix_pre	0		119	40.0	2.5	/experiments/AOT/AOT_stimuli/rescaled_final/1243_fw.mp4	0.0	286.34192395210266	0.9916050434112549
42	267.0579640865326	pulse	0	t		40.0	2.5	/experiments/AOT/AOT_stimuli/rescaled_final/1243_fw.mp4	0.0	287.3179750442505	
42	267.073518037796	movie	1		247	40.0	2.5	/experiments/AOT/AOT_stimuli/rescaled_final/1243_fw.mp4	0.0	287.3335289955139	2.508072853088379
42	268.6644060611725	pulse	1	t		40.0	2.5	/experiments/AOT/AOT_stimuli/rescaled_final/1243_fw.mp4	0.0	288.9244170188904	
42	269.5815908908844	fix_post	2		12	40.0	2.5	/experiments/AOT/AOT_stimuli/rescaled_final/1243_fw.mp4	0.0	289.8416018486023	0.09997010231018066
43	269.6815609931946	fix_pre	0		120	41.0	2.5	blank	1.0	289.9415719509125	1.0001680850982666
43	270.2651059627533	pulse	0	t		41.0	2.5	blank	1.0	290.5251169204712	
43	270.68172907829285	movie	1		300	41.0	2.5	blank	1.0	290.94174003601074	2.500189781188965
43	271.85788798332214	pulse	1	t		41.0	2.5	blank	1.0	292.11789894104004	
43	273.1819188594818	fix_post	2		12	41.0	2.5	blank	1.0	293.4419298171997	0.09995317459106445
44	273.2818720340729	fix_pre	0		120	42.0	2.5	/experiments/AOT/AOT_stimuli/rescaled_final/1593_fw.mp4	0.0	293.54188299179077	1.0
44	273.4578700065613	pulse	0	t		42.0	2.5	/experiments/AOT/AOT_stimuli/rescaled_final/1593_fw.mp4	0.0	293.7178809642792	
44	274.2818720340729	movie	1		245	42.0	2.5	/experiments/AOT/AOT_stimuli/rescaled_final/1593_fw.mp4	0.0	294.54188299179077	2.4999799728393555
44	275.0578770637512	pulse	1	t		42.0	2.5	/experiments/AOT/AOT_stimuli/rescaled_final/1593_fw.mp4	0.0	295.3178880214691	
44	276.66336607933044	pulse	1	t		42.0	2.5	/experiments/AOT/AOT_stimuli/rescaled_final/1593_fw.mp4	0.0	296.92337703704834	
44	276.78185200691223	fix_post	2		12	42.0	2.5	/experiments/AOT/AOT_stimuli/rescaled_final/1593_fw.mp4	0.0	297.0418629646301	0.0999760627746582
45	276.8818280696869	fix_pre	0		120	43.0	2.5	/experiments/AOT/AOT_stimuli/rescaled_final/1382_rv.mp4	0.0	297.1418390274048	0.9999909400939941
45	277.8818190097809	movie	1		245	43.0	2.5	/experiments/AOT/AOT_stimuli/rescaled_final/1382_rv.mp4	0.0	298.1418299674988	2.499631881713867
45	278.26519989967346	pulse	1	t		43.0	2.5	/experiments/AOT/AOT_stimuli/rescaled_final/1382_rv.mp4	0.0	298.52521085739136	
45	279.85791087150574	pulse	1	t		43.0	2.5	/experiments/AOT/AOT_stimuli/rescaled_final/1382_rv.mp4	0.0	300.11792182922363	
45	280.38145089149475	fix_post	2		12	43.0	2.5	/experiments/AOT/AOT_stimuli/rescaled_final/1382_rv.mp4	0.0	300.64146184921265	0.10037612915039062
46	280.48182702064514	fix_pre	0		119	44.0	2.5	/experiments/AOT/AOT_stimuli/rescaled_final/0424_rv.mp4	0.0	300.74183797836304	0.9916069507598877
46	281.4653260707855	pulse	0	t		44.0	2.5	/experiments/AOT/AOT_stimuli/rescaled_final/0424_rv.mp4	0.0	301.7253370285034	
46	281.47343397140503	movie	1		246	44.0	2.5	/experiments/AOT/AOT_stimuli/rescaled_final/0424_rv.mp4	0.0	301.7334449291229	2.508380889892578
46	283.0662829875946	pulse	1	t		44.0	2.5	/experiments/AOT/AOT_stimuli/rescaled_final/0424_rv.mp4	0.0	303.3262939453125	
46	283.9818148612976	fix_post	2		12	44.0	2.5	/experiments/AOT/AOT_stimuli/rescaled_final/0424_rv.mp4	0.0	304.2418258190155	0.10003018379211426
47	284.0818450450897	fix_pre	0		120	45.0	2.5	/experiments/AOT/AOT_stimuli/rescaled_final/0369_fw.mp4	0.0	304.3418560028076	0.9999430179595947
47	284.665335893631	pulse	0	t		45.0	2.5	/experiments/AOT/AOT_stimuli/rescaled_final/0369_fw.mp4	0.0	304.9253468513489	
47	285.0817880630493	movie	1		244	45.0	2.5	/experiments/AOT/AOT_stimuli/rescaled_final/0369_fw.mp4	0.0	305.3417990207672	2.4999518394470215
47	286.2653388977051	pulse	1	t		45.0	2.5	/experiments/AOT/AOT_stimuli/rescaled_final/0369_fw.mp4	0.0	306.525349855423	
47	287.58173990249634	fix_post	2		12	45.0	2.5	/experiments/AOT/AOT_stimuli/rescaled_final/0369_fw.mp4	0.0	307.84175086021423	0.10003018379211426
48	287.68177008628845	fix_pre	0		120	46.0	2.5	/experiments/AOT/AOT_stimuli/rescaled_final/0559_rv.mp4	0.0	307.94178104400635	0.9999988079071045
48	287.85780000686646	pulse	0	t		46.0	2.5	/experiments/AOT/AOT_stimuli/rescaled_final/0559_rv.mp4	0.0	308.11781096458435	
48	288.68176889419556	movie	1		242	46.0	2.5	/experiments/AOT/AOT_stimuli/rescaled_final/0559_rv.mp4	0.0	308.94177985191345	2.499552011489868
48	289.45780205726624	pulse	1	t		46.0	2.5	/experiments/AOT/AOT_stimuli/rescaled_final/0559_rv.mp4	0.0	309.71781301498413	
48	291.06359601020813	pulse	1	t		46.0	2.5	/experiments/AOT/AOT_stimuli/rescaled_final/0559_rv.mp4	0.0	311.323606967926	
48	291.1813209056854	fix_post	2		12	46.0	2.5	/experiments/AOT/AOT_stimuli/rescaled_final/0559_rv.mp4	0.0	311.4413318634033	0.10050010681152344
49	291.28182101249695	fix_pre	0		120	47.0	2.5	/experiments/AOT/AOT_stimuli/rescaled_final/0815_fw.mp4	0.0	311.54183197021484	0.9999580383300781
49	292.281779050827	movie	1		243	47.0	2.5	/experiments/AOT/AOT_stimuli/rescaled_final/0815_fw.mp4	0.0	312.5417900085449	2.4997010231018066
49	292.66527009010315	pulse	1	t		47.0	2.5	/experiments/AOT/AOT_stimuli/rescaled_final/0815_fw.mp4	0.0	312.92528104782104	
49	294.2579629421234	pulse	1	t		47.0	2.5	/experiments/AOT/AOT_stimuli/rescaled_final/0815_fw.mp4	0.0	314.5179738998413	
49	294.78148007392883	fix_post	2		12	47.0	2.5	/experiments/AOT/AOT_stimuli/rescaled_final/0815_fw.mp4	0.0	315.04149103164673	0.10026979446411133
50	294.88174986839294	fix_pre	0		119	48.0	2.5	blank	1.0	315.14176082611084	0.9915640354156494
50	295.85768699645996	pulse	0	t		48.0	2.5	blank	1.0	316.11769795417786	
50	295.8733139038086	movie	1		301	48.0	2.5	blank	1.0	316.1333248615265	2.5083870887756348
50	297.46518898010254	pulse	1	t		48.0	2.5	blank	1.0	317.72519993782043	
50	298.38170099258423	fix_post	2		12	48.0	2.5	blank	1.0	318.6417119503021	0.10005402565002441
51	298.48175501823425	fix_pre	0		120	49.0	2.5	/experiments/AOT/AOT_stimuli/rescaled_final/1126_fw.mp4	0.0	318.74176597595215	0.9998669624328613
51	299.0653169155121	pulse	0	t		49.0	2.5	/experiments/AOT/AOT_stimuli/rescaled_final/1126_fw.mp4	0.0	319.32532787323	
51	299.4816219806671	movie	1		246	49.0	2.5	/experiments/AOT/AOT_stimuli/rescaled_final/1126_fw.mp4	0.0	319.741632938385	2.500093936920166
51	300.6652789115906	pulse	1	t		49.0	2.5	/experiments/AOT/AOT_stimuli/rescaled_final/1126_fw.mp4	0.0	320.9252898693085	
51	301.9817159175873	fix_post	2		12	49.0	2.5	/experiments/AOT/AOT_stimuli/rescaled_final/1126_fw.mp4	0.0	322.2417268753052	0.1000211238861084
52	302.0817370414734	fix_pre	0		120	50.0	2.5	/experiments/AOT/AOT_stimuli/rescaled_final/0022_rv.mp4	0.0	322.3417479991913	0.9996428489685059
52	302.26519894599915	pulse	0	t		50.0	2.5	/experiments/AOT/AOT_stimuli/rescaled_final/0022_rv.mp4	0.0	322.52520990371704	
52	303.0813798904419	movie	1		244	50.0	2.5	/experiments/AOT/AOT_stimuli/rescaled_final/0022_rv.mp4	0.0	323.3413908481598	2.5003609657287598
52	303.8579070568085	pulse	1	t		50.0	2.5	/experiments/AOT/AOT_stimuli/rescaled_final/0022_rv.mp4	0.0	324.11791801452637	
52	305.46134901046753	pulse	1	t		50.0	2.5	/experiments/AOT/AOT_stimuli/rescaled_final/0022_rv.mp4	0.0	325.7213599681854	
52	305.58174085617065	fix_post	2		12	50.0	2.5	/experiments/AOT/AOT_stimuli/rescaled_final/0022_rv.mp4	0.0	325.84175181388855	0.0999610424041748
53	305.68170189857483	fix_pre	0		120	51.0	2.5	/experiments/AOT/AOT_stimuli/rescaled_final/1601_rv.mp4	0.0	325.9417128562927	0.9999661445617676
53	306.6816680431366	movie	1		243	51.0	2.5	/experiments/AOT/AOT_stimuli/rescaled_final/1601_rv.mp4	0.0	326.9416790008545	2.4995739459991455
53	307.06497597694397	pulse	1	t		51.0	2.5	/experiments/AOT/AOT_stimuli/rescaled_final/1601_rv.mp4	0.0	327.32498693466187	
53	308.65781688690186	pulse	1	t		51.0	2.5	/experiments/AOT/AOT_stimuli/rescaled_final/1601_rv.mp4	0.0	328.91782784461975	
53	309.18124198913574	fix_post	2		12	51.0	2.5	/experiments/AOT/AOT_stimuli/rescaled_final/1601_rv.mp4	0.0	329.44125294685364	0.1005699634552002
54	309.28181195259094	fix_pre	0		119	52.0	2.5	/experiments/AOT/AOT_stimuli/rescaled_final/1382_fw.mp4	0.0	329.54182291030884	0.9915671348571777
54	310.2576448917389	pulse	0	t		52.0	2.5	/experiments/AOT/AOT_stimuli/rescaled_final/1382_fw.mp4	0.0	330.5176558494568	
54	310.2733790874481	movie	1		245	52.0	2.5	/experiments/AOT/AOT_stimuli/rescaled_final/1382_fw.mp4	0.0	330.533390045166	2.508272886276245
54	311.8654499053955	pulse	1	t		52.0	2.5	/experiments/AOT/AOT_stimuli/rescaled_final/1382_fw.mp4	0.0	332.1254608631134	
54	312.78165197372437	fix_post	2		12	52.0	2.5	/experiments/AOT/AOT_stimuli/rescaled_final/1382_fw.mp4	0.0	333.04166293144226	0.09992289543151855
55	312.8815748691559	fix_pre	0		120	53.0	2.5	/experiments/AOT/AOT_stimuli/rescaled_final/0688_fw.mp4	0.0	333.1415858268738	1.0001111030578613
55	313.46515107154846	pulse	0	t		53.0	2.5	/experiments/AOT/AOT_stimuli/rescaled_final/0688_fw.mp4	0.0	333.72516202926636	
55	313.88168597221375	movie	1		243	53.0	2.5	/experiments/AOT/AOT_stimuli/rescaled_final/0688_fw.mp4	0.0	334.14169692993164	2.500044107437134
55	315.06520104408264	pulse	1	t		53.0	2.5	/experiments/AOT/AOT_stimuli/rescaled_final/0688_fw.mp4	0.0	335.32521200180054	
55	316.3817300796509	fix_post	2		12	53.0	2.5	/experiments/AOT/AOT_stimuli/rescaled_final/0688_fw.mp4	0.0	336.6417410373688	0.09989595413208008
56	316.48162603378296	fix_pre	0		120	54.0	2.5	/experiments/AOT/AOT_stimuli/rescaled_final/0450_fw.mp4	0.0	336.74163699150085	0.9999639987945557
56	316.6652069091797	pulse	0	t		54.0	2.5	/experiments/AOT/AOT_stimuli/rescaled_final/0450_fw.mp4	0.0	336.9252178668976	
56	317.4815900325775	movie	1		244	54.0	2.5	/experiments/AOT/AOT_stimuli/rescaled_final/0450_fw.mp4	0.0	337.7416009902954	2.5000598430633545
56	318.26524591445923	pulse	1	t		54.0	2.5	/experiments/AOT/AOT_stimuli/rescaled_final/0450_fw.mp4	0.0	338.5252568721771	
56	319.86384987831116	pulse	1	t		54.0	2.5	/experiments/AOT/AOT_stimuli/rescaled_final/0450_fw.mp4	0.0	340.12386083602905	
56	319.98164987564087	fix_post	2		12	54.0	2.5	/experiments/AOT/AOT_stimuli/rescaled_final/0450_fw.mp4	0.0	340.24166083335876	0.0999901294708252
57	320.0816400051117	fix_pre	0		120	55.0	2.5	blank	1.0	340.3416509628296	1.0000278949737549
57	321.08166790008545	movie	1		300	55.0	2.5	blank	1.0	341.34167885780334	2.499965190887451
57	321.45767307281494	pulse	1	t		55.0	2.5	blank	1.0	341.71768403053284	
57	323.05766105651855	pulse	1	t		55.0	2.5	blank	1.0	343.31767201423645	
57	323.5816330909729	fix_post	2		12	55.0	2.5	blank	1.0	343.8416440486908	0.09998583793640137
58	323.6816189289093	fix_pre	0		119	56.0	2.5	/experiments/AOT/AOT_stimuli/rescaled_final/0601_fw.mp4	0.0	343.9416298866272	0.9913239479064941
58	324.657753944397	pulse	0	t		56.0	2.5	/experiments/AOT/AOT_stimuli/rescaled_final/0601_fw.mp4	0.0	344.91776490211487	
58	324.6729428768158	movie	1		246	56.0	2.5	/experiments/AOT/AOT_stimuli/rescaled_final/0601_fw.mp4	0.0	344.9329538345337	2.5085670948028564
58	326.26447105407715	pulse	1	t		56.0	2.5	/experiments/AOT/AOT_stimuli/rescaled_final/0601_fw.mp4	0.0	346.52448201179504	
58	327.18150997161865	fix_post	2		12	56.0	2.5	/experiments/AOT/AOT_stimuli/rescaled_final/0601_fw.mp4	0.0	347.44152092933655	0.09999895095825195
59	327.2815089225769	fix_pre	0		120	57.0	2.5	/experiments/AOT/AOT_stimuli/rescaled_final/1545_rv.mp4	0.0	347.5415198802948	1.0001161098480225
59	327.8575689792633	pulse	0	t		57.0	2.5	/experiments/AOT/AOT_stimuli/rescaled_final/1545_rv.mp4	0.0	348.1175799369812	
59	328.2816250324249	movie	1		243	57.0	2.5	/experiments/AOT/AOT_stimuli/rescaled_final/1545_rv.mp4	0.0	348.5416359901428	2.499915838241577
59	329.46510195732117	pulse	1	t		57.0	2.5	/experiments/AOT/AOT_stimuli/rescaled_final/1545_rv.mp4	0.0	349.72511291503906	
59	330.7815408706665	fix_post	2		12	57.0	2.5	/experiments/AOT/AOT_stimuli/rescaled_final/1545_rv.mp4	0.0	351.0415518283844	0.09965920448303223
60	330.88120007514954	fix_pre	0		120	58.0	2.5	/experiments/AOT/AOT_stimuli/rescaled_final/1832_rv.mp4	0.0	351.14121103286743	1.000351905822754
60	331.0651218891144	pulse	0	t		58.0	2.5	/experiments/AOT/AOT_stimuli/rescaled_final/1832_rv.mp4	0.0	351.3251328468323	
60	331.8815519809723	movie	1		244	58.0	2.5	/experiments/AOT/AOT_stimuli/rescaled_final/1832_rv.mp4	0.0	352.1415629386902	2.500109910964966
60	332.6649160385132	pulse	1	t		58.0	2.5	/experiments/AOT/AOT_stimuli/rescaled_final/1832_rv.mp4	0.0	352.9249269962311	
60	334.26371788978577	pulse	1	t		58.0	2.5	/experiments/AOT/AOT_stimuli/rescaled_final/1832_rv.mp4	0.0	354.52372884750366	
60	334.38166189193726	fix_post	2		12	58.0	2.5	/experiments/AOT/AOT_stimuli/rescaled_final/1832_rv.mp4	0.0	354.64167284965515	0.09993910789489746
61	334.48160099983215	fix_pre	0		120	59.0	2.5	/experiments/AOT/AOT_stimuli/rescaled_final/1282_rv.mp4	0.0	354.74161195755005	0.9999308586120605
61	335.4815318584442	movie	1		244	59.0	2.5	/experiments/AOT/AOT_stimuli/rescaled_final/1282_rv.mp4	0.0	355.7415428161621	2.499627113342285
61	335.8645770549774	pulse	1	t		59.0	2.5	/experiments/AOT/AOT_stimuli/rescaled_final/1282_rv.mp4	0.0	356.1245880126953	
61	337.4578368663788	pulse	1	t		59.0	2.5	/experiments/AOT/AOT_stimuli/rescaled_final/1282_rv.mp4	0.0	357.7178478240967	
61	337.9811589717865	fix_post	2		12	59.0	2.5	/experiments/AOT/AOT_stimuli/rescaled_final/1282_rv.mp4	0.0	358.2411699295044	0.10035896301269531
62	338.0815179347992	fix_pre	0		119	60.0	2.5	/experiments/AOT/AOT_stimuli/rescaled_final/0688_fw.mp4	0.0	358.3415288925171	0.9916441440582275
62	339.0651230812073	pulse	0	t		60.0	2.5	/experiments/AOT/AOT_stimuli/rescaled_final/0688_fw.mp4	0.0	359.32513403892517	
62	339.0731620788574	movie	1		246	60.0	2.5	/experiments/AOT/AOT_stimuli/rescaled_final/0688_fw.mp4	0.0	359.3331730365753	2.5083749294281006
62	340.66445803642273	pulse	1	t		60.0	2.5	/experiments/AOT/AOT_stimuli/rescaled_final/0688_fw.mp4	0.0	360.9244689941406	
62	341.5815370082855	fix_post	2		12	60.0	2.5	/experiments/AOT/AOT_stimuli/rescaled_final/0688_fw.mp4	0.0	361.8415479660034	0.1000220775604248
63	341.68155908584595	fix_pre	0		120	61.0	2.5	blank	1.0	361.94157004356384	1.0000360012054443
63	342.25742387771606	pulse	0	t		61.0	2.5	blank	1.0	362.51743483543396	
63	342.6815950870514	movie	1		300	61.0	2.5	blank	1.0	362.9416060447693	2.5001189708709717
63	343.8575129508972	pulse	1	t		61.0	2.5	blank	1.0	364.1175239086151	
63	345.18171405792236	fix_post	2		12	61.0	2.5	blank	1.0	365.44172501564026	0.09974980354309082
64	345.28146386146545	fix_pre	0		120	62.0	2.5	/experiments/AOT/AOT_stimuli/rescaled_final/1899_fw.mp4	0.0	365.54147481918335	1.0000391006469727
64	345.4650239944458	pulse	0	t		62.0	2.5	/experiments/AOT/AOT_stimuli/rescaled_final/1899_fw.mp4	0.0	365.7250349521637	
64	346.2815029621124	movie	1		245	62.0	2.5	/experiments/AOT/AOT_stimuli/rescaled_final/1899_fw.mp4	0.0	366.5415139198303	2.5000319480895996
64	347.0649800300598	pulse	1	t		62.0	2.5	/experiments/AOT/AOT_stimuli/rescaled_final/1899_fw.mp4	0.0	367.3249909877777	
64	348.6635320186615	pulse	1	t		62.0	2.5	/experiments/AOT/AOT_stimuli/rescaled_final/1899_fw.mp4	0.0	368.9235429763794	
64	348.781534910202	fix_post	2		12	62.0	2.5	/experiments/AOT/AOT_stimuli/rescaled_final/1899_fw.mp4	0.0	369.0415458679199	0.0999290943145752
65	348.8814640045166	fix_pre	0		120	63.0	2.5	/experiments/AOT/AOT_stimuli/rescaled_final/1609_rv.mp4	0.0	369.1414749622345	0.9999699592590332
65	349.88143396377563	movie	1		243	63.0	2.5	/experiments/AOT/AOT_stimuli/rescaled_final/1609_rv.mp4	0.0	370.14144492149353	2.500040054321289
65	350.2662558555603	pulse	1	t		63.0	2.5	/experiments/AOT/AOT_stimuli/rescaled_final/1609_rv.mp4	0.0	370.5262668132782	
65	351.86498403549194	pulse	1	t		63.0	2.5	/experiments/AOT/AOT_stimuli/rescaled_final/1609_rv.mp4	0.0	372.12499499320984	
65	352.3814740180969	fix_post	2		12	63.0	2.5	/experiments/AOT/AOT_stimuli/rescaled_final/1609_rv.mp4	0.0	372.6414849758148	0.10000085830688477
66	352.4814748764038	fix_pre	0		119	64.0	2.5	/experiments/AOT/AOT_stimuli/rescaled_final/0754_rv.mp4	0.0	372.7414858341217	0.9916741847991943
66	353.46496987342834	pulse	0	t		64.0	2.5	/experiments/AOT/AOT_stimuli/rescaled_final/0754_rv.mp4	0.0	373.72498083114624	
66	353.473149061203	movie	1		246	64.0	2.5	/experiments/AOT/AOT_stimuli/rescaled_final/0754_rv.mp4	0.0	373.7331600189209	2.507875919342041
66	355.06478095054626	pulse	1	t		64.0	2.5	/experiments/AOT/AOT_stimuli/rescaled_final/0754_rv.mp4	0.0	375.32479190826416	
66	355.98102498054504	fix_post	2		12	64.0	2.5	/experiments/AOT/AOT_stimuli/rescaled_final/0754_rv.mp4	0.0	376.24103593826294	0.10031294822692871
67	356.081337928772	fix_pre	0		120	65.0	2.5	/experiments/AOT/AOT_stimuli/rescaled_final/2157_rv.mp4	0.0	376.34134888648987	1.000162124633789
67	356.6649708747864	pulse	0	t		65.0	2.5	/experiments/AOT/AOT_stimuli/rescaled_final/2157_rv.mp4	0.0	376.9249818325043	
67	357.08150005340576	movie	1		242	65.0	2.5	/experiments/AOT/AOT_stimuli/rescaled_final/2157_rv.mp4	0.0	377.34151101112366	2.4999098777770996
67	358.2650320529938	pulse	1	t		65.0	2.5	/experiments/AOT/AOT_stimuli/rescaled_final/2157_rv.mp4	0.0	378.52504301071167	
67	359.58140993118286	fix_post	2		12	65.0	2.5	/experiments/AOT/AOT_stimuli/rescaled_final/2157_rv.mp4	0.0	379.84142088890076	0.10005402565002441
68	359.6814639568329	fix_pre	0		120	66.0	2.5	/experiments/AOT/AOT_stimuli/rescaled_final/0887_rv.mp4	0.0	379.9414749145508	0.9998760223388672
68	359.8573999404907	pulse	0	t		66.0	2.5	/experiments/AOT/AOT_stimuli/rescaled_final/0887_rv.mp4	0.0	380.1174108982086	
68	360.68133997917175	movie	1		244	66.0	2.5	/experiments/AOT/AOT_stimuli/rescaled_final/0887_rv.mp4	0.0	380.94135093688965	2.4997100830078125
68	361.4650819301605	pulse	1	t		66.0	2.5	/experiments/AOT/AOT_stimuli/rescaled_final/0887_rv.mp4	0.0	381.7250928878784	
68	363.06336188316345	pulse	1	t		66.0	2.5	/experiments/AOT/AOT_stimuli/rescaled_final/0887_rv.mp4	0.0	383.32337284088135	
68	363.18105006217957	fix_post	2		12	66.0	2.5	/experiments/AOT/AOT_stimuli/rescaled_final/0887_rv.mp4	0.0	383.44106101989746	0.10033488273620605
69	363.28138494491577	fix_pre	0		120	67.0	2.5	/experiments/AOT/AOT_stimuli/rescaled_final/1811_fw.mp4	0.0	383.54139590263367	1.0000360012054443
69	364.2814209461212	movie	1		246	67.0	2.5	/experiments/AOT/AOT_stimuli/rescaled_final/1811_fw.mp4	0.0	384.5414319038391	2.499552011489868
69	364.6644170284271	pulse	1	t		67.0	2.5	/experiments/AOT/AOT_stimuli/rescaled_final/1811_fw.mp4	0.0	384.924427986145	
69	366.2649278640747	pulse	1	t		67.0	2.5	/experiments/AOT/AOT_stimuli/rescaled_final/1811_fw.mp4	0.0	386.5249388217926	
69	366.7809729576111	fix_post	2		12	67.0	2.5	/experiments/AOT/AOT_stimuli/rescaled_final/1811_fw.mp4	0.0	387.040983915329	0.10050296783447266
70	366.88147592544556	fix_pre	0		119	68.0	2.5	blank	1.0	387.14148688316345	0.9915750026702881
70	367.8648090362549	pulse	0	t		68.0	2.5	blank	1.0	388.1248199939728	
70	367.87305092811584	movie	1		301	68.0	2.5	blank	1.0	388.13306188583374	2.508352041244507
70	369.464870929718	pulse	1	t		68.0	2.5	blank	1.0	389.7248818874359	
70	370.38140296936035	fix_post	2		12	68.0	2.5	blank	1.0	390.64141392707825	0.0999751091003418
71	370.4813780784607	fix_pre	0		120	69.0	2.5	/experiments/AOT/AOT_stimuli/rescaled_final/0430_rv.mp4	0.0	390.7413890361786	1.0000720024108887
71	371.064857006073	pulse	0	t		69.0	2.5	/experiments/AOT/AOT_stimuli/rescaled_final/0430_rv.mp4	0.0	391.3248679637909	
71	371.4814500808716	movie	1		244	69.0	2.5	/experiments/AOT/AOT_stimuli/rescaled_final/0430_rv.mp4	0.0	391.7414610385895	2.4999377727508545
71	372.6649520397186	pulse	1	t		69.0	2.5	/experiments/AOT/AOT_stimuli/rescaled_final/0430_rv.mp4	0.0	392.9249629974365	
71	373.98138785362244	fix_post	2		12	69.0	2.5	/experiments/AOT/AOT_stimuli/rescaled_final/0430_rv.mp4	0.0	394.24139881134033	0.0998830795288086
72	374.08127093315125	fix_pre	0		120	70.0	2.5	/experiments/AOT/AOT_stimuli/rescaled_final/0755_fw.mp4	0.0	394.34128189086914	1.0001249313354492
72	374.2647850513458	pulse	0	t		70.0	2.5	/experiments/AOT/AOT_stimuli/rescaled_final/0755_fw.mp4	0.0	394.5247960090637	
72	375.0813958644867	movie	1		244	70.0	2.5	/experiments/AOT/AOT_stimuli/rescaled_final/0755_fw.mp4	0.0	395.3414068222046	2.4999520778656006
72	375.8574118614197	pulse	1	t		70.0	2.5	/experiments/AOT/AOT_stimuli/rescaled_final/0755_fw.mp4	0.0	396.1174228191376	
72	377.46092891693115	pulse	1	t		70.0	2.5	/experiments/AOT/AOT_stimuli/rescaled_final/0755_fw.mp4	0.0	397.72093987464905	
72	377.5813479423523	fix_post	2		12	70.0	2.5	/experiments/AOT/AOT_stimuli/rescaled_final/0755_fw.mp4	0.0	397.8413589000702	0.10003900527954102
73	377.68138694763184	fix_pre	0		120	71.0	2.5	/experiments/AOT/AOT_stimuli/rescaled_final/0662_fw.mp4	0.0	397.94139790534973	0.9999411106109619
73	378.6813280582428	movie	1		243	71.0	2.5	/experiments/AOT/AOT_stimuli/rescaled_final/0662_fw.mp4	0.0	398.9413390159607	2.500018835067749
73	379.0657980442047	pulse	1	t		71.0	2.5	/experiments/AOT/AOT_stimuli/rescaled_final/0662_fw.mp4	0.0	399.3258090019226	
73	380.6647629737854	pulse	1	t		71.0	2.5	/experiments/AOT/AOT_stimuli/rescaled_final/0662_fw.mp4	0.0	400.9247739315033	
73	381.18134689331055	fix_post	2		12	71.0	2.5	/experiments/AOT/AOT_stimuli/rescaled_final/0662_fw.mp4	0.0	401.44135785102844	0.10005807876586914
74	381.2814049720764	fix_pre	0		119	72.0	2.5	/experiments/AOT/AOT_stimuli/rescaled_final/2036_rv.mp4	0.0	401.5414159297943	0.9917919635772705
74	382.2651240825653	pulse	0	t		72.0	2.5	/experiments/AOT/AOT_stimuli/rescaled_final/2036_rv.mp4	0.0	402.5251350402832	
74	382.2731969356537	movie	1		247	72.0	2.5	/experiments/AOT/AOT_stimuli/rescaled_final/2036_rv.mp4	0.0	402.5332078933716	2.508234977722168
74	383.8645989894867	pulse	1	t		72.0	2.5	/experiments/AOT/AOT_stimuli/rescaled_final/2036_rv.mp4	0.0	404.1246099472046	
74	384.78143191337585	fix_post	2		12	72.0	2.5	/experiments/AOT/AOT_stimuli/rescaled_final/2036_rv.mp4	0.0	405.04144287109375	0.10005998611450195
75	384.88149189949036	fix_pre	0		120	73.0	2.5	/experiments/AOT/AOT_stimuli/rescaled_final/1546_rv.mp4	0.0	405.14150285720825	0.9998700618743896
75	385.4648060798645	pulse	0	t		73.0	2.5	/experiments/AOT/AOT_stimuli/rescaled_final/1546_rv.mp4	0.0	405.7248170375824	
75	385.88136196136475	movie	1		247	73.0	2.5	/experiments/AOT/AOT_stimuli/rescaled_final/1546_rv.mp4	0.0	406.14137291908264	2.49985408782959
75	387.0648970603943	pulse	1	t		73.0	2.5	/experiments/AOT/AOT_stimuli/rescaled_final/1546_rv.mp4	0.0	407.3249080181122	
75	388.38121604919434	fix_post	2		12	73.0	2.5	/experiments/AOT/AOT_stimuli/rescaled_final/1546_rv.mp4	0.0	408.64122700691223	0.10002994537353516
76	388.48124599456787	fix_pre	0		120	74.0	2.5	/experiments/AOT/AOT_stimuli/rescaled_final/0859_fw.mp4	0.0	408.74125695228577	1.000058889389038
76	388.6647160053253	pulse	0	t		74.0	2.5	/experiments/AOT/AOT_stimuli/rescaled_final/0859_fw.mp4	0.0	408.9247269630432	
76	389.4813048839569	movie	1		245	74.0	2.5	/experiments/AOT/AOT_stimuli/rescaled_final/0859_fw.mp4	0.0	409.7413158416748	2.4999752044677734
76	390.264750957489	pulse	1	t		74.0	2.5	/experiments/AOT/AOT_stimuli/rescaled_final/0859_fw.mp4	0.0	410.5247619152069	
76	391.8631830215454	pulse	1	t		74.0	2.5	/experiments/AOT/AOT_stimuli/rescaled_final/0859_fw.mp4	0.0	412.1231939792633	
76	391.9812800884247	fix_post	2		12	74.0	2.5	/experiments/AOT/AOT_stimuli/rescaled_final/0859_fw.mp4	0.0	412.2412910461426	0.09997892379760742
77	392.0812590122223	fix_pre	0		120	75.0	2.5	/experiments/AOT/AOT_stimuli/rescaled_final/0443_rv.mp4	0.0	412.3412699699402	1.0000150203704834
77	393.0812740325928	movie	1		247	75.0	2.5	/experiments/AOT/AOT_stimuli/rescaled_final/0443_rv.mp4	0.0	413.34128499031067	2.4999630451202393
77	393.46579599380493	pulse	1	t		75.0	2.5	/experiments/AOT/AOT_stimuli/rescaled_final/0443_rv.mp4	0.0	413.7258069515228	
77	395.0646719932556	pulse	1	t		75.0	2.5	/experiments/AOT/AOT_stimuli/rescaled_final/0443_rv.mp4	0.0	415.3246829509735	
77	395.581237077713	fix_post	2		12	75.0	2.5	/experiments/AOT/AOT_stimuli/rescaled_final/0443_rv.mp4	0.0	415.8412480354309	0.10014081001281738
78	395.68137788772583	fix_pre	0		119	76.0	2.5	/experiments/AOT/AOT_stimuli/rescaled_final/0661_fw.mp4	0.0	415.9413888454437	0.9915351867675781
78	396.6646919250488	pulse	0	t		76.0	2.5	/experiments/AOT/AOT_stimuli/rescaled_final/0661_fw.mp4	0.0	416.9247028827667	
78	396.6729130744934	movie	1		245	76.0	2.5	/experiments/AOT/AOT_stimuli/rescaled_final/0661_fw.mp4	0.0	416.9329240322113	2.5079269409179688
78	398.2647979259491	pulse	1	t		76.0	2.5	/experiments/AOT/AOT_stimuli/rescaled_final/0661_fw.mp4	0.0	418.524808883667	
78	399.1808400154114	fix_post	2		12	76.0	2.5	/experiments/AOT/AOT_stimuli/rescaled_final/0661_fw.mp4	0.0	419.4408509731293	0.10037589073181152
79	399.2812159061432	fix_pre	0		120	77.0	2.5	blank	1.0	419.5412268638611	1.0000650882720947
79	399.86477994918823	pulse	0	t		77.0	2.5	blank	1.0	420.1247909069061	
79	400.2812809944153	movie	1		300	77.0	2.5	blank	1.0	420.5412919521332	2.499950885772705
79	401.46477007865906	pulse	1	t		77.0	2.5	blank	1.0	421.72478103637695	
79	402.781231880188	fix_post	2		12	77.0	2.5	blank	1.0	423.0412428379059	0.09995603561401367
80	402.881187915802	fix_pre	0		120	78.0	2.5	/experiments/AOT/AOT_stimuli/rescaled_final/1458_fw.mp4	0.0	423.1411988735199	1.000007152557373
80	403.0647270679474	pulse	0	t		78.0	2.5	/experiments/AOT/AOT_stimuli/rescaled_final/1458_fw.mp4	0.0	423.3247380256653	
80	403.8811950683594	movie	1		244	78.0	2.5	/experiments/AOT/AOT_stimuli/rescaled_final/1458_fw.mp4	0.0	424.14120602607727	2.5000288486480713
80	404.664687871933	pulse	1	t		78.0	2.5	/experiments/AOT/AOT_stimuli/rescaled_final/1458_fw.mp4	0.0	424.9246988296509	
80	406.2634038925171	pulse	1	t		78.0	2.5	/experiments/AOT/AOT_stimuli/rescaled_final/1458_fw.mp4	0.0	426.523414850235	
80	406.38122391700745	fix_post	2		12	78.0	2.5	/experiments/AOT/AOT_stimuli/rescaled_final/1458_fw.mp4	0.0	426.64123487472534	0.10001611709594727
81	406.4812400341034	fix_pre	0		120	79.0	2.5	/experiments/AOT/AOT_stimuli/rescaled_final/0117_fw.mp4	0.0	426.7412509918213	0.9999940395355225
81	407.4812340736389	movie	1		244	79.0	2.5	/experiments/AOT/AOT_stimuli/rescaled_final/0117_fw.mp4	0.0	427.7412450313568	2.4995758533477783
81	407.86454701423645	pulse	1	t		79.0	2.5	/experiments/AOT/AOT_stimuli/rescaled_final/0117_fw.mp4	0.0	428.12455797195435	
81	409.4646179676056	pulse	1	t		79.0	2.5	/experiments/AOT/AOT_stimuli/rescaled_final/0117_fw.mp4	0.0	429.7246289253235	
81	409.9808099269867	fix_post	2		12	79.0	2.5	/experiments/AOT/AOT_stimuli/rescaled_final/0117_fw.mp4	0.0	430.2408208847046	0.1003410816192627
82	410.08115100860596	fix_pre	0		119	80.0	2.5	/experiments/AOT/AOT_stimuli/rescaled_final/1065_fw.mp4	0.0	430.34116196632385	0.9917089939117432
82	411.06474208831787	pulse	0	t		80.0	2.5	/experiments/AOT/AOT_stimuli/rescaled_final/1065_fw.mp4	0.0	431.32475304603577	
82	411.0728600025177	movie	1		246	80.0	2.5	/experiments/AOT/AOT_stimuli/rescaled_final/1065_fw.mp4	0.0	431.3328709602356	2.5082650184631348
82	412.66415095329285	pulse	1	t		80.0	2.5	/experiments/AOT/AOT_stimuli/rescaled_final/1065_fw.mp4	0.0	432.92416191101074	
82	413.58112502098083	fix_post	2		12	80.0	2.5	/experiments/AOT/AOT_stimuli/rescaled_final/1065_fw.mp4	0.0	433.84113597869873	0.09996700286865234
83	413.6810920238495	fix_pre	0		120	81.0	2.5	/experiments/AOT/AOT_stimuli/rescaled_final/1903_fw.mp4	0.0	433.9411029815674	1.000119924545288
83	414.26470398902893	pulse	0	t		81.0	2.5	/experiments/AOT/AOT_stimuli/rescaled_final/1903_fw.mp4	0.0	434.5247149467468	
83	414.6812119483948	movie	1		245	81.0	2.5	/experiments/AOT/AOT_stimuli/rescaled_final/1903_fw.mp4	0.0	434.94122290611267	2.499994993209839
83	415.86475896835327	pulse	1	t		81.0	2.5	/experiments/AOT/AOT_stimuli/rescaled_final/1903_fw.mp4	0.0	436.12476992607117	
83	417.1812069416046	fix_post	2		12	81.0	2.5	/experiments/AOT/AOT_stimuli/rescaled_final/1903_fw.mp4	0.0	437.4412178993225	0.09996199607849121
84	417.2811689376831	fix_pre	0		120	82.0	2.5	/experiments/AOT/AOT_stimuli/rescaled_final/1393_fw.mp4	0.0	437.541179895401	0.9995219707489014
84	417.46468806266785	pulse	0	t		82.0	2.5	/experiments/AOT/AOT_stimuli/rescaled_final/1393_fw.mp4	0.0	437.72469902038574	
84	418.280690908432	movie	1		245	82.0	2.5	/experiments/AOT/AOT_stimuli/rescaled_final/1393_fw.mp4	0.0	438.5407018661499	2.5005149841308594
84	419.06465005874634	pulse	1	t		82.0	2.5	/experiments/AOT/AOT_stimuli/rescaled_final/1393_fw.mp4	0.0	439.32466101646423	
84	420.6607029438019	pulse	1	t		82.0	2.5	/experiments/AOT/AOT_stimuli/rescaled_final/1393_fw.mp4	0.0	440.9207139015198	
84	420.78120589256287	fix_post	2		12	82.0	2.5	/experiments/AOT/AOT_stimuli/rescaled_final/1393_fw.mp4	0.0	441.04121685028076	0.09998798370361328
85	420.8811938762665	fix_pre	0		120	83.0	2.5	blank	1.0	441.1412048339844	0.9999940395355225
85	421.881187915802	movie	1		300	83.0	2.5	blank	1.0	442.1411988735199	2.499974012374878
85	422.26461005210876	pulse	1	t		83.0	2.5	blank	1.0	442.52462100982666	
85	423.86460995674133	pulse	1	t		83.0	2.5	blank	1.0	444.12462091445923	
85	424.3811619281769	fix_post	2		12	83.0	2.5	blank	1.0	444.6411728858948	0.09994697570800781
87	424.4811089038849	stim	0		1716					444.7411198616028	14.299841165542603
87	425.4646670818329	pulse	0	t						445.7246780395508	
87	427.0646939277649	pulse	0	t						447.3247048854828	
87	428.66463589668274	pulse	0	t						448.92464685440063	
87	430.2646338939667	pulse	0	t						450.52464485168457	
87	431.8647129535675	pulse	0	t						452.1247239112854	
87	433.46454191207886	pulse	0	t						453.72455286979675	
87	435.06457805633545	pulse	0	t						455.32458901405334	
87	436.66454792022705	pulse	0	t						456.92455887794495	
87	438.26431107521057	pulse	0	t						458.52432203292847	
