trial_nr	onset	event_type	phase	response	nr_frames	movie_index	movie_duration	movie_file	blank	onset_abs	duration
0	0.13300418853759766	stim	0		125					39.43510818481445	1.0420019626617432
0	1.1668469905853271	response	0	space						40.46895098686218	
1	1.1750061511993408	stim	0		4656					40.477110147476196	38.79985785484314
1	39.96349906921387	pulse	0	t						79.26560306549072	
1	39.97486400604248	stim	1		1717					79.27696800231934	14.308292150497437
1	41.55830407142639	pulse	1	t						80.86040806770325	
1	43.15836501121521	pulse	1	t						82.46046900749207	
1	44.75903606414795	pulse	1	t						84.0611400604248	
1	46.35911011695862	pulse	1	t						85.66121411323547	
1	47.95903301239014	pulse	1	t						87.26113700866699	
1	49.55901503562927	pulse	1	t						88.86111903190613	
1	51.15901517868042	pulse	1	t						90.46111917495728	
1	52.75821399688721	pulse	1	t						92.06031799316406	
2	54.28315615653992	fix_pre	0		10	0.0	2.5	/experiments/aot/R_S_yt-fQgLKiz2tuM_14.mp4	0.0	93.58526015281677	0.08330488204956055
2	54.35820007324219	pulse	0	t		0.0	2.5	/experiments/aot/R_S_yt-fQgLKiz2tuM_14.mp4	0.0	93.66030406951904	
2	54.36646103858948	movie	1		301	0.0	2.5	/experiments/aot/R_S_yt-fQgLKiz2tuM_14.mp4	0.0	93.66856503486633	2.50826096534729
2	55.95826816558838	pulse	1	t		0.0	2.5	/experiments/aot/R_S_yt-fQgLKiz2tuM_14.mp4	0.0	95.26037216186523	
2	56.87472200393677	fix_post	2		12	0.0	2.5	/experiments/aot/R_S_yt-fQgLKiz2tuM_14.mp4	0.0	96.17682600021362	0.10001611709594727
3	56.974738121032715	fix_pre	0		120	1.0	2.5	/experiments/aot/S_PA_A004_C003_SDR_20190719_SDR_2K_AVC.mp4	0.0	96.27684211730957	0.9999780654907227
3	57.55822515487671	pulse	0	t		1.0	2.5	/experiments/aot/S_PA_A004_C003_SDR_20190719_SDR_2K_AVC.mp4	0.0	96.86032915115356	
3	57.97471618652344	movie	1		161	1.0	2.5	/experiments/aot/S_PA_A004_C003_SDR_20190719_SDR_2K_AVC.mp4	0.0	97.2768201828003	2.5000038146972656
3	59.15826606750488	pulse	1	t		1.0	2.5	/experiments/aot/S_PA_A004_C003_SDR_20190719_SDR_2K_AVC.mp4	0.0	98.46037006378174	
3	60.4747200012207	fix_post	2		12	1.0	2.5	/experiments/aot/S_PA_A004_C003_SDR_20190719_SDR_2K_AVC.mp4	0.0	99.77682399749756	0.09961605072021484
4	60.57433605194092	fix_pre	0		120	2.0	2.5	/experiments/aot/S_yt-sTBOjPxix5c_1072.mp4	0.0	99.87644004821777	1.0003430843353271
4	60.759077072143555	pulse	0	t		2.0	2.5	/experiments/aot/S_yt-sTBOjPxix5c_1072.mp4	0.0	100.06118106842041	
4	61.574679136276245	movie	1		300	2.0	2.5	/experiments/aot/S_yt-sTBOjPxix5c_1072.mp4	0.0	100.8767831325531	2.5000178813934326
4	62.36267304420471	pulse	1	t		2.0	2.5	/experiments/aot/S_yt-sTBOjPxix5c_1072.mp4	0.0	101.66477704048157	
4	63.96079206466675	pulse	1	t		2.0	2.5	/experiments/aot/S_yt-sTBOjPxix5c_1072.mp4	0.0	103.2628960609436	
4	64.07469701766968	fix_post	2		12	2.0	2.5	/experiments/aot/S_yt-sTBOjPxix5c_1072.mp4	0.0	103.37680101394653	0.09996914863586426
5	64.17466616630554	fix_pre	0		120	3.0	2.5	/experiments/aot/R_S_yt-kkbtZP78JxQ_96.mp4	0.0	103.4767701625824	0.999992847442627
5	65.17465901374817	movie	1		300	3.0	2.5	/experiments/aot/R_S_yt-kkbtZP78JxQ_96.mp4	0.0	104.47676301002502	2.4995951652526855
5	65.56304597854614	pulse	1	t		3.0	2.5	/experiments/aot/R_S_yt-kkbtZP78JxQ_96.mp4	0.0	104.865149974823	
5	67.161936044693	pulse	1	t		3.0	2.5	/experiments/aot/R_S_yt-kkbtZP78JxQ_96.mp4	0.0	106.46404004096985	
5	67.67425417900085	fix_post	2		12	3.0	2.5	/experiments/aot/R_S_yt-kkbtZP78JxQ_96.mp4	0.0	106.97635817527771	0.10000896453857422
6	67.77426314353943	fix_pre	0		120	4.0	2.5	/experiments/aot/R_S_yt-hvuC_2YXsTQ_73.mp4	0.0	107.07636713981628	1.0001020431518555
6	68.75864315032959	pulse	0	t		4.0	2.5	/experiments/aot/R_S_yt-hvuC_2YXsTQ_73.mp4	0.0	108.06074714660645	
6	68.77436518669128	movie	1		301	4.0	2.5	/experiments/aot/R_S_yt-hvuC_2YXsTQ_73.mp4	0.0	108.07646918296814	2.508598804473877
6	70.36210298538208	pulse	1	t		4.0	2.5	/experiments/aot/R_S_yt-hvuC_2YXsTQ_73.mp4	0.0	109.66420698165894	
6	71.28296399116516	fix_post	2		12	4.0	2.5	/experiments/aot/R_S_yt-hvuC_2YXsTQ_73.mp4	0.0	110.58506798744202	0.10003018379211426
7	71.38299417495728	fix_pre	0		120	5.0	2.5	/experiments/aot/S_yt-2V2tq9-O_Nc_1669.mp4	0.0	110.68509817123413	0.9999849796295166
7	71.95818901062012	pulse	0	t		5.0	2.5	/experiments/aot/S_yt-2V2tq9-O_Nc_1669.mp4	0.0	111.26029300689697	
7	72.38297915458679	movie	1		300	5.0	2.5	/experiments/aot/S_yt-2V2tq9-O_Nc_1669.mp4	0.0	111.68508315086365	2.4999499320983887
7	73.55900001525879	pulse	1	t		5.0	2.5	/experiments/aot/S_yt-2V2tq9-O_Nc_1669.mp4	0.0	112.86110401153564	
7	74.88292908668518	fix_post	2		12	5.0	2.5	/experiments/aot/S_yt-2V2tq9-O_Nc_1669.mp4	0.0	114.18503308296204	0.09993791580200195
8	74.98286700248718	fix_pre	0		120	6.0	2.5	blank	1.0	114.28497099876404	1.000028133392334
8	75.15809512138367	pulse	0	t		6.0	2.5	blank	1.0	114.46019911766052	
8	75.98289513587952	movie	1		300	6.0	2.5	blank	1.0	115.28499913215637	2.50004506111145
8	76.75889301300049	pulse	1	t		6.0	2.5	blank	1.0	116.06099700927734	
8	78.35881114006042	pulse	1	t		6.0	2.5	blank	1.0	117.66091513633728	
8	78.48294019699097	fix_post	2		12	6.0	2.5	blank	1.0	117.78504419326782	0.09995889663696289
9	78.58289909362793	fix_pre	0		120	7.0	2.5	/experiments/aot/R_S_b3TCugtX0h0_108.mp4	0.0	117.88500308990479	0.9996359348297119
9	79.58253502845764	movie	1		300	7.0	2.5	/experiments/aot/R_S_b3TCugtX0h0_108.mp4	0.0	118.8846390247345	2.500354051589966
9	79.95913815498352	pulse	1	t		7.0	2.5	/experiments/aot/R_S_b3TCugtX0h0_108.mp4	0.0	119.26124215126038	
9	81.55912804603577	pulse	1	t		7.0	2.5	/experiments/aot/R_S_b3TCugtX0h0_108.mp4	0.0	120.86123204231262	
9	82.08288908004761	fix_post	2		12	7.0	2.5	/experiments/aot/R_S_b3TCugtX0h0_108.mp4	0.0	121.38499307632446	0.0996251106262207
10	82.18251419067383	fix_pre	0		119	8.0	2.5	/experiments/aot/S_yt-GjFQxAklviE_25.mp4	0.0	121.48461818695068	0.9920527935028076
10	83.15887498855591	pulse	0	t		8.0	2.5	/experiments/aot/S_yt-GjFQxAklviE_25.mp4	0.0	122.46097898483276	
10	83.17456698417664	movie	1		301	8.0	2.5	/experiments/aot/S_yt-GjFQxAklviE_25.mp4	0.0	122.47667098045349	2.5084331035614014
10	84.762216091156	pulse	1	t		8.0	2.5	/experiments/aot/S_yt-GjFQxAklviE_25.mp4	0.0	124.06432008743286	
10	85.68300008773804	fix_post	2		12	8.0	2.5	/experiments/aot/S_yt-GjFQxAklviE_25.mp4	0.0	124.98510408401489	0.09985494613647461
11	85.78285503387451	fix_pre	0		120	9.0	2.5	/experiments/aot/R_S_yt-G_eNNzNB-hU_1.mp4	0.0	125.08495903015137	1.0000720024108887
11	86.3587851524353	pulse	0	t		9.0	2.5	/experiments/aot/R_S_yt-G_eNNzNB-hU_1.mp4	0.0	125.66088914871216	
11	86.7829270362854	movie	1		300	9.0	2.5	/experiments/aot/R_S_yt-G_eNNzNB-hU_1.mp4	0.0	126.08503103256226	2.499566078186035
11	87.95893597602844	pulse	1	t		9.0	2.5	/experiments/aot/R_S_yt-G_eNNzNB-hU_1.mp4	0.0	127.2610399723053	
11	89.28249311447144	fix_post	2		12	9.0	2.5	/experiments/aot/R_S_yt-G_eNNzNB-hU_1.mp4	0.0	128.5845971107483	0.10034799575805664
12	89.38284111022949	fix_pre	0		120	10.0	2.5	/experiments/aot/R_S_yt-r7brAHgxZSU_248.mp4	0.0	128.68494510650635	0.9996020793914795
12	89.55872511863708	pulse	0	t		10.0	2.5	/experiments/aot/R_S_yt-r7brAHgxZSU_248.mp4	0.0	128.86082911491394	
12	90.38244318962097	movie	1		300	10.0	2.5	/experiments/aot/R_S_yt-r7brAHgxZSU_248.mp4	0.0	129.68454718589783	2.5004029273986816
12	91.15890908241272	pulse	1	t		10.0	2.5	/experiments/aot/R_S_yt-r7brAHgxZSU_248.mp4	0.0	130.46101307868958	
12	92.76634216308594	pulse	1	t		10.0	2.5	/experiments/aot/R_S_yt-r7brAHgxZSU_248.mp4	0.0	132.0684461593628	
12	92.88284611701965	fix_post	2		12	10.0	2.5	/experiments/aot/R_S_yt-r7brAHgxZSU_248.mp4	0.0	132.1849501132965	0.09999799728393555
13	92.98284411430359	fix_pre	0		120	11.0	2.5	/experiments/aot/S_ILSVRC2015_train_00762000.mp4	0.0	132.28494811058044	1.0000369548797607
13	93.98288106918335	movie	1		300	11.0	2.5	/experiments/aot/S_ILSVRC2015_train_00762000.mp4	0.0	133.2849850654602	2.49993896484375
13	94.35893416404724	pulse	1	t		11.0	2.5	/experiments/aot/S_ILSVRC2015_train_00762000.mp4	0.0	133.6610381603241	
13	95.95916104316711	pulse	1	t		11.0	2.5	/experiments/aot/S_ILSVRC2015_train_00762000.mp4	0.0	135.26126503944397	
13	96.4828200340271	fix_post	2		12	11.0	2.5	/experiments/aot/S_ILSVRC2015_train_00762000.mp4	0.0	135.78492403030396	0.1000220775604248
14	96.58284211158752	fix_pre	0		119	12.0	2.5	/experiments/aot/R_S_wc-ujHd_fPVcSlX_10.mp4	0.0	135.88494610786438	0.9916219711303711
14	97.55878710746765	pulse	0	t		12.0	2.5	/experiments/aot/R_S_wc-ujHd_fPVcSlX_10.mp4	0.0	136.8608911037445	
14	97.5744640827179	movie	1		161	12.0	2.5	/experiments/aot/R_S_wc-ujHd_fPVcSlX_10.mp4	0.0	136.87656807899475	2.508297920227051
14	99.16626715660095	pulse	1	t		12.0	2.5	/experiments/aot/R_S_wc-ujHd_fPVcSlX_10.mp4	0.0	138.4683711528778	
14	100.08276200294495	fix_post	2		12	12.0	2.5	/experiments/aot/R_S_wc-ujHd_fPVcSlX_10.mp4	0.0	139.3848659992218	0.10004901885986328
15	100.18281102180481	fix_pre	0		120	13.0	2.5	blank	1.0	139.48491501808167	1.000046968460083
15	100.75894904136658	pulse	0	t		13.0	2.5	blank	1.0	140.06105303764343	
15	101.18285799026489	movie	1		300	13.0	2.5	blank	1.0	140.48496198654175	2.4999351501464844
15	102.35894107818604	pulse	1	t		13.0	2.5	blank	1.0	141.6610450744629	
15	103.68279314041138	fix_post	2		12	13.0	2.5	blank	1.0	142.98489713668823	0.09957098960876465
16	103.78236413002014	fix_pre	0		120	14.0	2.5	/experiments/aot/S_video_inspire_texas_austin_oct2019_evening_00085.1080-h264.mp4	0.0	143.084468126297	1.0005090236663818
16	103.95884299278259	pulse	0	t		14.0	2.5	/experiments/aot/S_video_inspire_texas_austin_oct2019_evening_00085.1080-h264.mp4	0.0	143.26094698905945	
16	104.78287315368652	movie	1		164	14.0	2.5	/experiments/aot/S_video_inspire_texas_austin_oct2019_evening_00085.1080-h264.mp4	0.0	144.08497714996338	2.4998629093170166
16	105.56639099121094	pulse	1	t		14.0	2.5	/experiments/aot/S_video_inspire_texas_austin_oct2019_evening_00085.1080-h264.mp4	0.0	144.8684949874878	
16	107.15797400474548	pulse	1	t		14.0	2.5	/experiments/aot/S_video_inspire_texas_austin_oct2019_evening_00085.1080-h264.mp4	0.0	146.46007800102234	
16	107.28273606300354	fix_post	2		12	14.0	2.5	/experiments/aot/S_video_inspire_texas_austin_oct2019_evening_00085.1080-h264.mp4	0.0	146.5848400592804	0.09962892532348633
17	107.38236498832703	fix_pre	0		120	15.0	2.5	/experiments/aot/S_yt--I4Ggi6-QOE_23.mp4	0.0	146.68446898460388	1.000427007675171
17	108.3827919960022	movie	1		300	15.0	2.5	/experiments/aot/S_yt--I4Ggi6-QOE_23.mp4	0.0	147.68489599227905	2.4999940395355225
17	108.75892806053162	pulse	1	t		15.0	2.5	/experiments/aot/S_yt--I4Ggi6-QOE_23.mp4	0.0	148.06103205680847	
17	110.35898017883301	pulse	1	t		15.0	2.5	/experiments/aot/S_yt--I4Ggi6-QOE_23.mp4	0.0	149.66108417510986	
17	110.88278603553772	fix_post	2		12	15.0	2.5	/experiments/aot/S_yt--I4Ggi6-QOE_23.mp4	0.0	150.18489003181458	0.10001015663146973
18	110.98279619216919	fix_pre	0		119	16.0	2.5	/experiments/aot/S_yt-hyZEDFkh49w_196.mp4	0.0	150.28490018844604	0.9916379451751709
18	111.95880818367004	pulse	0	t		16.0	2.5	/experiments/aot/S_yt-hyZEDFkh49w_196.mp4	0.0	151.2609121799469	
18	111.97443413734436	movie	1		301	16.0	2.5	/experiments/aot/S_yt-hyZEDFkh49w_196.mp4	0.0	151.27653813362122	2.5079619884490967
18	113.56192111968994	pulse	1	t		16.0	2.5	/experiments/aot/S_yt-hyZEDFkh49w_196.mp4	0.0	152.8640251159668	
18	114.48239612579346	fix_post	2		12	16.0	2.5	/experiments/aot/S_yt-hyZEDFkh49w_196.mp4	0.0	153.7845001220703	0.10039496421813965
19	114.5827910900116	fix_pre	0		120	17.0	2.5	/experiments/aot/R_S_yt-06XMUn9DTKc_35.mp4	0.0	153.88489508628845	0.9999580383300781
19	115.15867209434509	pulse	0	t		17.0	2.5	/experiments/aot/R_S_yt-06XMUn9DTKc_35.mp4	0.0	154.46077609062195	
19	115.58274912834167	movie	1		300	17.0	2.5	/experiments/aot/R_S_yt-06XMUn9DTKc_35.mp4	0.0	154.88485312461853	2.499955892562866
19	116.7588701248169	pulse	1	t		17.0	2.5	/experiments/aot/R_S_yt-06XMUn9DTKc_35.mp4	0.0	156.06097412109375	
19	118.08270502090454	fix_post	2		12	17.0	2.5	/experiments/aot/R_S_yt-06XMUn9DTKc_35.mp4	0.0	157.3848090171814	0.09998106956481934
20	118.18268609046936	fix_pre	0		120	18.0	2.5	/experiments/aot/S_yt-ycfVJyrFgB4_15.mp4	0.0	157.48479008674622	1.000067949295044
20	118.35878610610962	pulse	0	t		18.0	2.5	/experiments/aot/S_yt-ycfVJyrFgB4_15.mp4	0.0	157.66089010238647	
20	119.1827540397644	movie	1		300	18.0	2.5	/experiments/aot/S_yt-ycfVJyrFgB4_15.mp4	0.0	158.48485803604126	2.499967098236084
20	119.95886301994324	pulse	1	t		18.0	2.5	/experiments/aot/S_yt-ycfVJyrFgB4_15.mp4	0.0	159.2609670162201	
20	121.55878114700317	pulse	1	t		18.0	2.5	/experiments/aot/S_yt-ycfVJyrFgB4_15.mp4	0.0	160.86088514328003	
20	121.68272113800049	fix_post	2		12	18.0	2.5	/experiments/aot/S_yt-ycfVJyrFgB4_15.mp4	0.0	160.98482513427734	0.10004305839538574
21	121.78276419639587	fix_pre	0		120	19.0	2.5	/experiments/aot/R_S_yt-4rwBpRuHg-c_1308.mp4	0.0	161.08486819267273	0.9995608329772949
21	122.78232502937317	movie	1		300	19.0	2.5	/experiments/aot/R_S_yt-4rwBpRuHg-c_1308.mp4	0.0	162.08442902565002	2.5003371238708496
21	123.16582107543945	pulse	1	t		19.0	2.5	/experiments/aot/R_S_yt-4rwBpRuHg-c_1308.mp4	0.0	162.4679250717163	
21	124.75902104377747	pulse	1	t		19.0	2.5	/experiments/aot/R_S_yt-4rwBpRuHg-c_1308.mp4	0.0	164.06112504005432	
21	125.28266215324402	fix_post	2		12	19.0	2.5	/experiments/aot/R_S_yt-4rwBpRuHg-c_1308.mp4	0.0	164.58476614952087	0.10037088394165039
22	125.38303303718567	fix_pre	0		119	20.0	2.5	blank	1.0	164.68513703346252	0.9913721084594727
22	126.36624908447266	pulse	0	t		20.0	2.5	blank	1.0	165.6683530807495	
22	126.37440514564514	movie	1		301	20.0	2.5	blank	1.0	165.676509141922	2.508373975753784
22	127.9587869644165	pulse	1	t		20.0	2.5	blank	1.0	167.26089096069336	
22	128.88277912139893	fix_post	2		12	20.0	2.5	blank	1.0	168.18488311767578	0.10001707077026367
23	128.9827961921692	fix_pre	0		120	21.0	2.5	/experiments/aot/S_yt-h8wy6x6oytA_25.mp4	0.0	168.28490018844604	0.9999449253082275
23	129.55864119529724	pulse	0	t		21.0	2.5	/experiments/aot/S_yt-h8wy6x6oytA_25.mp4	0.0	168.8607451915741	
23	129.98274111747742	movie	1		300	21.0	2.5	/experiments/aot/S_yt-h8wy6x6oytA_25.mp4	0.0	169.28484511375427	2.49992299079895
23	131.1587631702423	pulse	1	t		21.0	2.5	/experiments/aot/S_yt-h8wy6x6oytA_25.mp4	0.0	170.46086716651917	
23	132.48266410827637	fix_post	2		12	21.0	2.5	/experiments/aot/S_yt-h8wy6x6oytA_25.mp4	0.0	171.78476810455322	0.10003304481506348
24	132.58269715309143	fix_pre	0		120	22.0	2.5	/experiments/aot/S_yt-6aqg1P9YqR8_38.mp4	0.0	171.8848011493683	0.999924898147583
24	132.75871205329895	pulse	0	t		22.0	2.5	/experiments/aot/S_yt-6aqg1P9YqR8_38.mp4	0.0	172.0608160495758	
24	133.582622051239	movie	1		300	22.0	2.5	/experiments/aot/S_yt-6aqg1P9YqR8_38.mp4	0.0	172.88472604751587	2.5000829696655273
24	134.35876607894897	pulse	1	t		22.0	2.5	/experiments/aot/S_yt-6aqg1P9YqR8_38.mp4	0.0	173.66087007522583	
24	135.95872116088867	pulse	1	t		22.0	2.5	/experiments/aot/S_yt-6aqg1P9YqR8_38.mp4	0.0	175.26082515716553	
24	136.08270502090454	fix_post	2		12	22.0	2.5	/experiments/aot/S_yt-6aqg1P9YqR8_38.mp4	0.0	175.3848090171814	0.09996294975280762
25	136.18266797065735	fix_pre	0		120	23.0	2.5	/experiments/aot/R_S_pexels-diva-plavalaguna-6985395_1.mp4	0.0	175.4847719669342	0.9995570182800293
25	137.18222498893738	movie	1		161	23.0	2.5	/experiments/aot/R_S_pexels-diva-plavalaguna-6985395_1.mp4	0.0	176.48432898521423	2.5004711151123047
25	137.5662121772766	pulse	1	t		23.0	2.5	/experiments/aot/R_S_pexels-diva-plavalaguna-6985395_1.mp4	0.0	176.86831617355347	
25	139.16626811027527	pulse	1	t		23.0	2.5	/experiments/aot/R_S_pexels-diva-plavalaguna-6985395_1.mp4	0.0	178.46837210655212	
25	139.68269610404968	fix_post	2		12	23.0	2.5	/experiments/aot/R_S_pexels-diva-plavalaguna-6985395_1.mp4	0.0	178.98480010032654	0.09997797012329102
26	139.78267407417297	fix_pre	0		119	24.0	2.5	/experiments/aot/R_S_1y-EvnfGO9Y_70.mp4	0.0	179.08477807044983	0.9917309284210205
26	140.76617813110352	pulse	0	t		24.0	2.5	/experiments/aot/R_S_1y-EvnfGO9Y_70.mp4	0.0	180.06828212738037	
26	140.774405002594	movie	1		301	24.0	2.5	/experiments/aot/R_S_1y-EvnfGO9Y_70.mp4	0.0	180.07650899887085	2.50828218460083
26	142.36222314834595	pulse	1	t		24.0	2.5	/experiments/aot/R_S_1y-EvnfGO9Y_70.mp4	0.0	181.6643271446228	
26	143.28268718719482	fix_post	2		12	24.0	2.5	/experiments/aot/R_S_1y-EvnfGO9Y_70.mp4	0.0	182.58479118347168	0.09995579719543457
27	143.38264298439026	fix_pre	0		120	25.0	2.5	/experiments/aot/R_S_video_inspire_california_big-sur_landscape_054.1080-h264.mp4	0.0	182.68474698066711	1.0000321865081787
27	143.9662070274353	pulse	0	t		25.0	2.5	/experiments/aot/R_S_video_inspire_california_big-sur_landscape_054.1080-h264.mp4	0.0	183.26831102371216	
27	144.38267517089844	movie	1		167	25.0	2.5	/experiments/aot/R_S_video_inspire_california_big-sur_landscape_054.1080-h264.mp4	0.0	183.6847791671753	2.499879837036133
27	145.56748509407043	pulse	1	t		25.0	2.5	/experiments/aot/R_S_video_inspire_california_big-sur_landscape_054.1080-h264.mp4	0.0	184.8695890903473	
27	146.88255500793457	fix_post	2		12	25.0	2.5	/experiments/aot/R_S_video_inspire_california_big-sur_landscape_054.1080-h264.mp4	0.0	186.18465900421143	0.10007810592651367
28	146.98263311386108	fix_pre	0		120	26.0	2.5	/experiments/aot/S_yt-hvuC_2YXsTQ_73.mp4	0.0	186.28473711013794	0.9998898506164551
28	147.16615200042725	pulse	0	t		26.0	2.5	/experiments/aot/S_yt-hvuC_2YXsTQ_73.mp4	0.0	186.4682559967041	
28	147.98252296447754	movie	1		299	26.0	2.5	/experiments/aot/S_yt-hvuC_2YXsTQ_73.mp4	0.0	187.2846269607544	2.4996352195739746
28	148.7585940361023	pulse	1	t		26.0	2.5	/experiments/aot/S_yt-hvuC_2YXsTQ_73.mp4	0.0	188.06069803237915	
28	150.3587350845337	pulse	1	t		26.0	2.5	/experiments/aot/S_yt-hvuC_2YXsTQ_73.mp4	0.0	189.66083908081055	
28	150.4821581840515	fix_post	2		12	26.0	2.5	/experiments/aot/S_yt-hvuC_2YXsTQ_73.mp4	0.0	189.78426218032837	0.10044479370117188
29	150.58260297775269	fix_pre	0		120	27.0	2.5	/experiments/aot/S_yt-j3Sk8ZnAiEA_32.mp4	0.0	189.88470697402954	0.9995431900024414
29	151.58214616775513	movie	1		300	27.0	2.5	/experiments/aot/S_yt-j3Sk8ZnAiEA_32.mp4	0.0	190.88425016403198	2.500375986099243
29	151.9586000442505	pulse	1	t		27.0	2.5	/experiments/aot/S_yt-j3Sk8ZnAiEA_32.mp4	0.0	191.26070404052734	
29	153.55863404273987	pulse	1	t		27.0	2.5	/experiments/aot/S_yt-j3Sk8ZnAiEA_32.mp4	0.0	192.86073803901672	
29	154.08252215385437	fix_post	2		12	27.0	2.5	/experiments/aot/S_yt-j3Sk8ZnAiEA_32.mp4	0.0	193.38462615013123	0.10003304481506348
30	154.18255519866943	fix_pre	0		119	28.0	2.5	blank	1.0	193.4846591949463	0.9918308258056641
30	155.16603899002075	pulse	0	t		28.0	2.5	blank	1.0	194.4681429862976	
30	155.1743860244751	movie	1		301	28.0	2.5	blank	1.0	194.47649002075195	2.5082530975341797
30	156.76613211631775	pulse	1	t		28.0	2.5	blank	1.0	196.0682361125946	
30	157.68263912200928	fix_post	2		12	28.0	2.5	blank	1.0	196.98474311828613	0.09998393058776855
31	157.78262305259705	fix_pre	0		120	29.0	2.5	/experiments/aot/R_S_yt-RO4mhuXBVrY_67.mp4	0.0	197.0847270488739	0.9999809265136719
31	158.36606407165527	pulse	0	t		29.0	2.5	/experiments/aot/R_S_yt-RO4mhuXBVrY_67.mp4	0.0	197.66816806793213	
31	158.78260397911072	movie	1		297	29.0	2.5	/experiments/aot/R_S_yt-RO4mhuXBVrY_67.mp4	0.0	198.08470797538757	2.499908208847046
31	159.96595001220703	pulse	1	t		29.0	2.5	/experiments/aot/R_S_yt-RO4mhuXBVrY_67.mp4	0.0	199.2680540084839	
31	161.28251218795776	fix_post	2		12	29.0	2.5	/experiments/aot/R_S_yt-RO4mhuXBVrY_67.mp4	0.0	200.58461618423462	0.10002493858337402
32	161.38253712654114	fix_pre	0		120	30.0	2.5	/experiments/aot/R_S_yt-_HuBzj8EPBc_62.mp4	0.0	200.684641122818	1.0000920295715332
32	161.5660150051117	pulse	0	t		30.0	2.5	/experiments/aot/R_S_yt-_HuBzj8EPBc_62.mp4	0.0	200.86811900138855	
32	162.38262915611267	movie	1		300	30.0	2.5	/experiments/aot/R_S_yt-_HuBzj8EPBc_62.mp4	0.0	201.68473315238953	2.4994938373565674
32	163.1586811542511	pulse	1	t		30.0	2.5	/experiments/aot/R_S_yt-_HuBzj8EPBc_62.mp4	0.0	202.46078515052795	
32	164.75877213478088	pulse	1	t		30.0	2.5	/experiments/aot/R_S_yt-_HuBzj8EPBc_62.mp4	0.0	204.06087613105774	
32	164.88212299346924	fix_post	2		12	30.0	2.5	/experiments/aot/R_S_yt-_HuBzj8EPBc_62.mp4	0.0	204.1842269897461	0.10043597221374512
33	164.98255896568298	fix_pre	0		120	31.0	2.5	/experiments/aot/R_S_ILnEDG_aP1A_35.mp4	0.0	204.28466296195984	0.9999401569366455
33	165.98249912261963	movie	1		298	31.0	2.5	/experiments/aot/R_S_ILnEDG_aP1A_35.mp4	0.0	205.28460311889648	2.5000128746032715
33	166.3586859703064	pulse	1	t		31.0	2.5	/experiments/aot/R_S_ILnEDG_aP1A_35.mp4	0.0	205.66078996658325	
33	167.95865106582642	pulse	1	t		31.0	2.5	/experiments/aot/R_S_ILnEDG_aP1A_35.mp4	0.0	207.26075506210327	
33	168.4825119972229	fix_post	2		12	31.0	2.5	/experiments/aot/R_S_ILnEDG_aP1A_35.mp4	0.0	207.78461599349976	0.09954714775085449
34	168.58205914497375	fix_pre	0		119	32.0	2.5	/experiments/aot/R_S_yt-ThT8utBaywI_68.mp4	0.0	207.8841631412506	0.9920618534088135
34	169.55852699279785	pulse	0	t		32.0	2.5	/experiments/aot/R_S_yt-ThT8utBaywI_68.mp4	0.0	208.8606309890747	
34	169.57412099838257	movie	1		301	32.0	2.5	/experiments/aot/R_S_yt-ThT8utBaywI_68.mp4	0.0	208.87622499465942	2.5079421997070312
34	171.16276001930237	pulse	1	t		32.0	2.5	/experiments/aot/R_S_yt-ThT8utBaywI_68.mp4	0.0	210.46486401557922	
34	172.0820631980896	fix_post	2		12	32.0	2.5	/experiments/aot/R_S_yt-ThT8utBaywI_68.mp4	0.0	211.38416719436646	0.10044479370117188
35	172.18250799179077	fix_pre	0		120	33.0	2.5	/experiments/aot/S_yt-F2x6e7e7cAE_70.mp4	0.0	211.48461198806763	0.9995450973510742
35	172.76600313186646	pulse	0	t		33.0	2.5	/experiments/aot/S_yt-F2x6e7e7cAE_70.mp4	0.0	212.0681071281433	
35	173.18205308914185	movie	1		300	33.0	2.5	/experiments/aot/S_yt-F2x6e7e7cAE_70.mp4	0.0	212.4841570854187	2.4999969005584717
35	174.36590218544006	pulse	1	t		33.0	2.5	/experiments/aot/S_yt-F2x6e7e7cAE_70.mp4	0.0	213.66800618171692	
35	175.68204998970032	fix_post	2		12	33.0	2.5	/experiments/aot/S_yt-F2x6e7e7cAE_70.mp4	0.0	214.98415398597717	0.10041403770446777
36	175.78246402740479	fix_pre	0		120	34.0	2.5	/experiments/aot/R_S_ILSVRC2015_train_00689000.mp4	0.0	215.08456802368164	1.0000369548797607
36	175.96591305732727	pulse	0	t		34.0	2.5	/experiments/aot/R_S_ILSVRC2015_train_00689000.mp4	0.0	215.26801705360413	
36	176.78250098228455	movie	1		300	34.0	2.5	/experiments/aot/R_S_ILSVRC2015_train_00689000.mp4	0.0	216.0846049785614	2.4999990463256836
36	177.56594800949097	pulse	1	t		34.0	2.5	/experiments/aot/R_S_ILSVRC2015_train_00689000.mp4	0.0	216.86805200576782	
36	179.1654281616211	pulse	1	t		34.0	2.5	/experiments/aot/R_S_ILSVRC2015_train_00689000.mp4	0.0	218.46753215789795	
36	179.28250002861023	fix_post	2		12	34.0	2.5	/experiments/aot/R_S_ILSVRC2015_train_00689000.mp4	0.0	218.58460402488708	0.09960794448852539
37	179.38210797309875	fix_pre	0		120	35.0	2.5	blank	1.0	218.6842119693756	1.0001251697540283
37	180.38223314285278	movie	1		300	35.0	2.5	blank	1.0	219.68433713912964	2.4998939037323
37	180.75858807563782	pulse	1	t		35.0	2.5	blank	1.0	220.06069207191467	
37	182.35853219032288	pulse	1	t		35.0	2.5	blank	1.0	221.66063618659973	
37	182.88212704658508	fix_post	2		12	35.0	2.5	blank	1.0	222.18423104286194	0.10034012794494629
38	182.98246717453003	fix_pre	0		119	36.0	2.5	/experiments/aot/S_PA_A004_C003_SDR_20190719_SDR_2K_AVC.mp4	0.0	222.28457117080688	0.9916520118713379
38	183.9584619998932	pulse	0	t		36.0	2.5	/experiments/aot/S_PA_A004_C003_SDR_20190719_SDR_2K_AVC.mp4	0.0	223.26056599617004	
38	183.97411918640137	movie	1		163	36.0	2.5	/experiments/aot/S_PA_A004_C003_SDR_20190719_SDR_2K_AVC.mp4	0.0	223.27622318267822	2.5082218647003174
38	185.56678700447083	pulse	1	t		36.0	2.5	/experiments/aot/S_PA_A004_C003_SDR_20190719_SDR_2K_AVC.mp4	0.0	224.86889100074768	
38	186.48234105110168	fix_post	2		12	36.0	2.5	/experiments/aot/S_PA_A004_C003_SDR_20190719_SDR_2K_AVC.mp4	0.0	225.78444504737854	0.10004305839538574
39	186.58238410949707	fix_pre	0		120	37.0	2.5	/experiments/aot/R_S_ILSVRC2015_train_00572001.mp4	0.0	225.88448810577393	1.000006914138794
39	187.1582190990448	pulse	0	t		37.0	2.5	/experiments/aot/R_S_ILSVRC2015_train_00572001.mp4	0.0	226.46032309532166	
39	187.58239102363586	movie	1		300	37.0	2.5	/experiments/aot/R_S_ILSVRC2015_train_00572001.mp4	0.0	226.88449501991272	2.4996931552886963
39	188.765851020813	pulse	1	t		37.0	2.5	/experiments/aot/R_S_ILSVRC2015_train_00572001.mp4	0.0	228.06795501708984	
39	190.08208417892456	fix_post	2		12	37.0	2.5	/experiments/aot/R_S_ILSVRC2015_train_00572001.mp4	0.0	229.38418817520142	0.10030484199523926
40	190.1823890209198	fix_pre	0		120	38.0	2.5	/experiments/aot/S_yt-R9Iabv0XgOQ_80.mp4	0.0	229.48449301719666	1.0000700950622559
40	190.36576318740845	pulse	0	t		38.0	2.5	/experiments/aot/S_yt-R9Iabv0XgOQ_80.mp4	0.0	229.6678671836853	
40	191.18245911598206	movie	1		299	38.0	2.5	/experiments/aot/S_yt-R9Iabv0XgOQ_80.mp4	0.0	230.4845631122589	2.499908924102783
40	191.96578812599182	pulse	1	t		38.0	2.5	/experiments/aot/S_yt-R9Iabv0XgOQ_80.mp4	0.0	231.26789212226868	
40	193.56584215164185	pulse	1	t		38.0	2.5	/experiments/aot/S_yt-R9Iabv0XgOQ_80.mp4	0.0	232.8679461479187	
40	193.68236804008484	fix_post	2		12	38.0	2.5	/experiments/aot/S_yt-R9Iabv0XgOQ_80.mp4	0.0	232.9844720363617	0.10007095336914062
41	193.78243899345398	fix_pre	0		120	39.0	2.5	/experiments/aot/S_ILSVRC2015_train_00425000.mp4	0.0	233.08454298973083	0.9999110698699951
41	194.78235006332397	movie	1		300	39.0	2.5	/experiments/aot/S_ILSVRC2015_train_00425000.mp4	0.0	234.08445405960083	2.5000410079956055
41	195.1657910346985	pulse	1	t		39.0	2.5	/experiments/aot/S_ILSVRC2015_train_00425000.mp4	0.0	234.46789503097534	
41	196.7658350467682	pulse	1	t		39.0	2.5	/experiments/aot/S_ILSVRC2015_train_00425000.mp4	0.0	236.06793904304504	
41	197.28239107131958	fix_post	2		12	39.0	2.5	/experiments/aot/S_ILSVRC2015_train_00425000.mp4	0.0	236.58449506759644	0.09955191612243652
42	197.38194298744202	fix_pre	0		119	40.0	2.5	/experiments/aot/S_yt-hyZEDFkh49w_196.mp4	0.0	236.68404698371887	0.9920511245727539
42	198.35847997665405	pulse	0	t		40.0	2.5	/experiments/aot/S_yt-hyZEDFkh49w_196.mp4	0.0	237.6605839729309	
42	198.37399411201477	movie	1		301	40.0	2.5	/experiments/aot/S_yt-hyZEDFkh49w_196.mp4	0.0	237.67609810829163	2.5083649158477783
42	199.96257209777832	pulse	1	t		40.0	2.5	/experiments/aot/S_yt-hyZEDFkh49w_196.mp4	0.0	239.26467609405518	
42	200.88235902786255	fix_post	2		12	40.0	2.5	/experiments/aot/S_yt-hyZEDFkh49w_196.mp4	0.0	240.1844630241394	0.0995481014251709
43	200.98190712928772	fix_pre	0		120	41.0	2.5	/experiments/aot/R_S_yt-n_eO-7KedAE_21.mp4	0.0	240.28401112556458	1.000046968460083
43	201.5582880973816	pulse	0	t		41.0	2.5	/experiments/aot/R_S_yt-n_eO-7KedAE_21.mp4	0.0	240.86039209365845	
43	201.9819540977478	movie	1		299	41.0	2.5	/experiments/aot/R_S_yt-n_eO-7KedAE_21.mp4	0.0	241.28405809402466	2.4999349117279053
43	203.16581916809082	pulse	1	t		41.0	2.5	/experiments/aot/R_S_yt-n_eO-7KedAE_21.mp4	0.0	242.46792316436768	
43	204.4818890094757	fix_post	2		12	41.0	2.5	/experiments/aot/R_S_yt-n_eO-7KedAE_21.mp4	0.0	243.78399300575256	0.10040402412414551
44	204.58229303359985	fix_pre	0		120	42.0	2.5	blank	1.0	243.8843970298767	1.0000569820404053
44	204.76579308509827	pulse	0	t		42.0	2.5	blank	1.0	244.06789708137512	
44	205.58235001564026	movie	1		300	42.0	2.5	blank	1.0	244.88445401191711	2.4999351501464844
44	206.36582016944885	pulse	1	t		42.0	2.5	blank	1.0	245.6679241657257	
44	207.9657871723175	pulse	1	t		42.0	2.5	blank	1.0	247.26789116859436	
44	208.08228516578674	fix_post	2		12	42.0	2.5	blank	1.0	247.3843891620636	0.09997391700744629
45	208.1822590827942	fix_pre	0		120	43.0	2.5	/experiments/aot/S_pexels-diva-plavalaguna-6985395_1.mp4	0.0	247.48436307907104	1.0000638961791992
45	209.1823229789734	movie	1		160	43.0	2.5	/experiments/aot/S_pexels-diva-plavalaguna-6985395_1.mp4	0.0	248.48442697525024	2.4999420642852783
45	209.56587314605713	pulse	1	t		43.0	2.5	/experiments/aot/S_pexels-diva-plavalaguna-6985395_1.mp4	0.0	248.86797714233398	
45	211.1658329963684	pulse	1	t		43.0	2.5	/experiments/aot/S_pexels-diva-plavalaguna-6985395_1.mp4	0.0	250.46793699264526	
45	211.68226504325867	fix_post	2		12	43.0	2.5	/experiments/aot/S_pexels-diva-plavalaguna-6985395_1.mp4	0.0	250.98436903953552	0.10000300407409668
46	211.78226804733276	fix_pre	0		119	44.0	2.5	/experiments/aot/S_yt-fA0nOetbOJY_580.mp4	0.0	251.08437204360962	0.99167799949646
46	212.765771150589	pulse	0	t		44.0	2.5	/experiments/aot/S_yt-fA0nOetbOJY_580.mp4	0.0	252.06787514686584	
46	212.77394604682922	movie	1		301	44.0	2.5	/experiments/aot/S_yt-fA0nOetbOJY_580.mp4	0.0	252.07605004310608	2.5083580017089844
46	214.36163902282715	pulse	1	t		44.0	2.5	/experiments/aot/S_yt-fA0nOetbOJY_580.mp4	0.0	253.663743019104	
46	215.2823040485382	fix_post	2		12	44.0	2.5	/experiments/aot/S_yt-fA0nOetbOJY_580.mp4	0.0	254.58440804481506	0.10003900527954102
47	215.38234305381775	fix_pre	0		120	45.0	2.5	/experiments/aot/R_S_flickr-claywakening-27928940166_2.mp4	0.0	254.6844470500946	0.9998879432678223
47	215.9657220840454	pulse	0	t		45.0	2.5	/experiments/aot/R_S_flickr-claywakening-27928940166_2.mp4	0.0	255.26782608032227	
47	216.38223099708557	movie	1		169	45.0	2.5	/experiments/aot/R_S_flickr-claywakening-27928940166_2.mp4	0.0	255.68433499336243	2.5000109672546387
47	217.5657901763916	pulse	1	t		45.0	2.5	/experiments/aot/R_S_flickr-claywakening-27928940166_2.mp4	0.0	256.86789417266846	
47	218.8822419643402	fix_post	2		12	45.0	2.5	/experiments/aot/R_S_flickr-claywakening-27928940166_2.mp4	0.0	258.18434596061707	0.1000511646270752
48	218.98229312896729	fix_pre	0		120	46.0	2.5	/experiments/aot/S_yt-hZxbKZ1WCVg_24.mp4	0.0	258.28439712524414	0.9999480247497559
48	219.15816712379456	pulse	0	t		46.0	2.5	/experiments/aot/S_yt-hZxbKZ1WCVg_24.mp4	0.0	258.4602711200714	
48	219.98224115371704	movie	1		299	46.0	2.5	/experiments/aot/S_yt-hZxbKZ1WCVg_24.mp4	0.0	259.2843451499939	2.499595880508423
48	220.76570200920105	pulse	1	t		46.0	2.5	/experiments/aot/S_yt-hZxbKZ1WCVg_24.mp4	0.0	260.0678060054779	
48	222.35998010635376	pulse	1	t		46.0	2.5	/experiments/aot/S_yt-hZxbKZ1WCVg_24.mp4	0.0	261.6620841026306	
48	222.48183703422546	fix_post	2		12	46.0	2.5	/experiments/aot/S_yt-hZxbKZ1WCVg_24.mp4	0.0	261.7839410305023	0.10034298896789551
49	222.58218002319336	fix_pre	0		120	47.0	2.5	/experiments/aot/R_S_Pexels_Videos_278654_1.mp4	0.0	261.8842840194702	0.999640941619873
49	223.58182096481323	movie	1		160	47.0	2.5	/experiments/aot/R_S_Pexels_Videos_278654_1.mp4	0.0	262.8839249610901	2.499986171722412
49	223.96573114395142	pulse	1	t		47.0	2.5	/experiments/aot/R_S_Pexels_Videos_278654_1.mp4	0.0	263.26783514022827	
49	225.56572198867798	pulse	1	t		47.0	2.5	/experiments/aot/R_S_Pexels_Videos_278654_1.mp4	0.0	264.86782598495483	
49	226.08180713653564	fix_post	2		12	47.0	2.5	/experiments/aot/R_S_Pexels_Videos_278654_1.mp4	0.0	265.3839111328125	0.10046696662902832
50	226.18227410316467	fix_pre	0		119	48.0	2.5	/experiments/aot/S_yt-n_eO-7KedAE_21.mp4	0.0	265.4843780994415	0.991581916809082
50	227.16566610336304	pulse	0	t		48.0	2.5	/experiments/aot/S_yt-n_eO-7KedAE_21.mp4	0.0	266.4677700996399	
50	227.17385601997375	movie	1		301	48.0	2.5	/experiments/aot/S_yt-n_eO-7KedAE_21.mp4	0.0	266.4759600162506	2.5079410076141357
50	228.76163411140442	pulse	1	t		48.0	2.5	/experiments/aot/S_yt-n_eO-7KedAE_21.mp4	0.0	268.0637381076813	
50	229.6817970275879	fix_post	2		12	48.0	2.5	/experiments/aot/S_yt-n_eO-7KedAE_21.mp4	0.0	268.98390102386475	0.10045909881591797
51	229.7822561264038	fix_pre	0		120	49.0	2.5	blank	1.0	269.08436012268066	0.9999549388885498
51	230.36565113067627	pulse	0	t		49.0	2.5	blank	1.0	269.6677551269531	
51	230.78221106529236	movie	1		300	49.0	2.5	blank	1.0	270.0843150615692	2.4996209144592285
51	231.9657120704651	pulse	1	t		49.0	2.5	blank	1.0	271.26781606674194	
51	233.2818319797516	fix_post	2		12	49.0	2.5	blank	1.0	272.58393597602844	0.10036802291870117
52	233.3822000026703	fix_pre	0		120	50.0	2.5	/experiments/aot/S_yt-zgimmOcW5Mc_127.mp4	0.0	272.68430399894714	1.0001850128173828
52	233.56569719314575	pulse	0	t		50.0	2.5	/experiments/aot/S_yt-zgimmOcW5Mc_127.mp4	0.0	272.8678011894226	
52	234.38238501548767	movie	1		300	50.0	2.5	/experiments/aot/S_yt-zgimmOcW5Mc_127.mp4	0.0	273.6844890117645	2.4996790885925293
52	235.16518807411194	pulse	1	t		50.0	2.5	/experiments/aot/S_yt-zgimmOcW5Mc_127.mp4	0.0	274.4672920703888	
52	236.765851020813	pulse	1	t		50.0	2.5	/experiments/aot/S_yt-zgimmOcW5Mc_127.mp4	0.0	276.06795501708984	
52	236.8820641040802	fix_post	2		12	50.0	2.5	/experiments/aot/S_yt-zgimmOcW5Mc_127.mp4	0.0	276.18416810035706	0.10047101974487305
53	236.98253512382507	fix_pre	0		120	51.0	2.5	/experiments/aot/R_S_video-2_copy.mp4	0.0	276.28463912010193	0.9996628761291504
53	237.98219799995422	movie	1		162	51.0	2.5	/experiments/aot/R_S_video-2_copy.mp4	0.0	277.2843019962311	2.5000011920928955
53	238.3656780719757	pulse	1	t		51.0	2.5	/experiments/aot/R_S_video-2_copy.mp4	0.0	277.66778206825256	
53	239.96572613716125	pulse	1	t		51.0	2.5	/experiments/aot/R_S_video-2_copy.mp4	0.0	279.2678301334381	
53	240.48219919204712	fix_post	2		12	51.0	2.5	/experiments/aot/R_S_video-2_copy.mp4	0.0	279.784303188324	0.09992480278015137
54	240.58212399482727	fix_pre	0		119	52.0	2.5	/experiments/aot/S_comp_DB_D001_C001_PSNK_v06_SDR_PS_20180824_SDR_2K_AVC.mp4	0.0	279.8842279911041	0.9918010234832764
54	241.56564807891846	pulse	0	t		52.0	2.5	/experiments/aot/S_comp_DB_D001_C001_PSNK_v06_SDR_PS_20180824_SDR_2K_AVC.mp4	0.0	280.8677520751953	
54	241.57392501831055	movie	1		167	52.0	2.5	/experiments/aot/S_comp_DB_D001_C001_PSNK_v06_SDR_PS_20180824_SDR_2K_AVC.mp4	0.0	280.8760290145874	2.5082101821899414
54	243.16543197631836	pulse	1	t		52.0	2.5	/experiments/aot/S_comp_DB_D001_C001_PSNK_v06_SDR_PS_20180824_SDR_2K_AVC.mp4	0.0	282.4675359725952	
54	244.0821352005005	fix_post	2		12	52.0	2.5	/experiments/aot/S_comp_DB_D001_C001_PSNK_v06_SDR_PS_20180824_SDR_2K_AVC.mp4	0.0	283.38423919677734	0.09999895095825195
55	244.18213415145874	fix_pre	0		120	53.0	2.5	/experiments/aot/S_yt-zh2yLr-o_8A_953.mp4	0.0	283.4842381477356	0.9999649524688721
55	244.76556611061096	pulse	0	t		53.0	2.5	/experiments/aot/S_yt-zh2yLr-o_8A_953.mp4	0.0	284.0676701068878	
55	245.1820991039276	movie	1		300	53.0	2.5	/experiments/aot/S_yt-zh2yLr-o_8A_953.mp4	0.0	284.48420310020447	2.4996769428253174
55	246.36556005477905	pulse	1	t		53.0	2.5	/experiments/aot/S_yt-zh2yLr-o_8A_953.mp4	0.0	285.6676640510559	
55	247.68177604675293	fix_post	2		12	53.0	2.5	/experiments/aot/S_yt-zh2yLr-o_8A_953.mp4	0.0	286.9838800430298	0.10002398490905762
56	247.781800031662	fix_pre	0		120	54.0	2.5	/experiments/aot/S_ILSVRC2015_train_00369000.mp4	0.0	287.08390402793884	0.9999179840087891
56	247.96559309959412	pulse	0	t		54.0	2.5	/experiments/aot/S_ILSVRC2015_train_00369000.mp4	0.0	287.267697095871	
56	248.78171801567078	movie	1		300	54.0	2.5	/experiments/aot/S_ILSVRC2015_train_00369000.mp4	0.0	288.08382201194763	2.5004000663757324
56	249.56554102897644	pulse	1	t		54.0	2.5	/experiments/aot/S_ILSVRC2015_train_00369000.mp4	0.0	288.8676450252533	
56	251.16553497314453	pulse	1	t		54.0	2.5	/experiments/aot/S_ILSVRC2015_train_00369000.mp4	0.0	290.4676389694214	
56	251.2821180820465	fix_post	2		12	54.0	2.5	/experiments/aot/S_ILSVRC2015_train_00369000.mp4	0.0	290.58422207832336	0.10003805160522461
57	251.38215613365173	fix_pre	0		120	55.0	2.5	/experiments/aot/R_S_yt-3ohvpS42xug_184.mp4	0.0	290.6842601299286	0.9999659061431885
57	252.38212203979492	movie	1		300	55.0	2.5	/experiments/aot/R_S_yt-3ohvpS42xug_184.mp4	0.0	291.6842260360718	2.4995670318603516
57	252.7655951976776	pulse	1	t		55.0	2.5	/experiments/aot/R_S_yt-3ohvpS42xug_184.mp4	0.0	292.06769919395447	
57	254.36559200286865	pulse	1	t		55.0	2.5	/experiments/aot/R_S_yt-3ohvpS42xug_184.mp4	0.0	293.6676959991455	
57	254.88168907165527	fix_post	2		12	55.0	2.5	/experiments/aot/R_S_yt-3ohvpS42xug_184.mp4	0.0	294.18379306793213	0.10001492500305176
58	254.98170399665833	fix_pre	0		119	56.0	2.5	blank	1.0	294.2838079929352	0.9920721054077148
58	255.96551418304443	pulse	0	t		56.0	2.5	blank	1.0	295.2676181793213	
58	255.97377610206604	movie	1		301	56.0	2.5	blank	1.0	295.2758800983429	2.5083460807800293
58	257.56558299064636	pulse	1	t		56.0	2.5	blank	1.0	296.8676869869232	
58	258.48212218284607	fix_post	2		12	56.0	2.5	blank	1.0	297.7842261791229	0.09994196891784668
59	258.5820641517639	fix_pre	0		120	57.0	2.5	/experiments/aot/S_yt-qurTr1BJMec_244.mp4	0.0	297.88416814804077	0.9996500015258789
59	259.16559314727783	pulse	0	t		57.0	2.5	/experiments/aot/S_yt-qurTr1BJMec_244.mp4	0.0	298.4676971435547	
59	259.5817141532898	movie	1		300	57.0	2.5	/experiments/aot/S_yt-qurTr1BJMec_244.mp4	0.0	298.88381814956665	2.5003228187561035
59	260.7655019760132	pulse	1	t		57.0	2.5	/experiments/aot/S_yt-qurTr1BJMec_244.mp4	0.0	300.06760597229004	
59	262.0820369720459	fix_post	2		12	57.0	2.5	/experiments/aot/S_yt-qurTr1BJMec_244.mp4	0.0	301.38414096832275	0.09958219528198242
60	262.1816191673279	fix_pre	0		120	58.0	2.5	/experiments/aot/S_ILSVRC2015_train_00405000.mp4	0.0	301.48372316360474	1.0003349781036377
60	262.3655641078949	pulse	0	t		58.0	2.5	/experiments/aot/S_ILSVRC2015_train_00405000.mp4	0.0	301.66766810417175	
60	263.1819541454315	movie	1		300	58.0	2.5	/experiments/aot/S_ILSVRC2015_train_00405000.mp4	0.0	302.4840581417084	2.499661922454834
60	263.96554708480835	pulse	1	t		58.0	2.5	/experiments/aot/S_ILSVRC2015_train_00405000.mp4	0.0	303.2676510810852	
60	265.56547808647156	pulse	1	t		58.0	2.5	/experiments/aot/S_ILSVRC2015_train_00405000.mp4	0.0	304.8675820827484	
60	265.68161606788635	fix_post	2		12	58.0	2.5	/experiments/aot/S_ILSVRC2015_train_00405000.mp4	0.0	304.9837200641632	0.10051298141479492
61	265.78212904930115	fix_pre	0		120	59.0	2.5	/experiments/aot/S_yt-fQgLKiz2tuM_14.mp4	0.0	305.084233045578	0.9999010562896729
61	266.7820301055908	movie	1		300	59.0	2.5	/experiments/aot/S_yt-fQgLKiz2tuM_14.mp4	0.0	306.0841341018677	2.499922037124634
61	267.16550517082214	pulse	1	t		59.0	2.5	/experiments/aot/S_yt-fQgLKiz2tuM_14.mp4	0.0	306.467609167099	
61	268.76548504829407	pulse	1	t		59.0	2.5	/experiments/aot/S_yt-fQgLKiz2tuM_14.mp4	0.0	308.0675890445709	
61	269.28195214271545	fix_post	2		12	59.0	2.5	/experiments/aot/S_yt-fQgLKiz2tuM_14.mp4	0.0	308.5840561389923	0.09999895095825195
62	269.3819510936737	fix_pre	0		119	60.0	2.5	/experiments/aot/S_yt-O_4DgW-XKvA_35.mp4	0.0	308.68405508995056	0.9916739463806152
62	270.3653709888458	pulse	0	t		60.0	2.5	/experiments/aot/S_yt-O_4DgW-XKvA_35.mp4	0.0	309.6674749851227	
62	270.3736250400543	movie	1		301	60.0	2.5	/experiments/aot/S_yt-O_4DgW-XKvA_35.mp4	0.0	309.6757290363312	2.5083539485931396
62	271.9613630771637	pulse	1	t		60.0	2.5	/experiments/aot/S_yt-O_4DgW-XKvA_35.mp4	0.0	311.26346707344055	
62	272.88197898864746	fix_post	2		12	60.0	2.5	/experiments/aot/S_yt-O_4DgW-XKvA_35.mp4	0.0	312.1840829849243	0.10001420974731445
63	272.9819931983948	fix_pre	0		120	61.0	2.5	/experiments/aot/R_S_flickr-claywakening-27928940166_2.mp4	0.0	312.28409719467163	1.000018835067749
63	273.56550908088684	pulse	0	t		61.0	2.5	/experiments/aot/R_S_flickr-claywakening-27928940166_2.mp4	0.0	312.8676130771637	
63	273.9820120334625	movie	1		168	61.0	2.5	/experiments/aot/R_S_flickr-claywakening-27928940166_2.mp4	0.0	313.2841160297394	2.4999589920043945
63	275.1655340194702	pulse	1	t		61.0	2.5	/experiments/aot/R_S_flickr-claywakening-27928940166_2.mp4	0.0	314.46763801574707	
63	276.4819710254669	fix_post	2		12	61.0	2.5	/experiments/aot/R_S_flickr-claywakening-27928940166_2.mp4	0.0	315.7840750217438	0.09992313385009766
64	276.581894159317	fix_pre	0		120	62.0	2.5	/experiments/aot/S_yt-6aqg1P9YqR8_38.mp4	0.0	315.8839981555939	1.0001280307769775
64	276.76544713974	pulse	0	t		62.0	2.5	/experiments/aot/S_yt-6aqg1P9YqR8_38.mp4	0.0	316.06755113601685	
64	277.582022190094	movie	1		300	62.0	2.5	/experiments/aot/S_yt-6aqg1P9YqR8_38.mp4	0.0	316.88412618637085	2.499966859817505
64	278.3654441833496	pulse	1	t		62.0	2.5	/experiments/aot/S_yt-6aqg1P9YqR8_38.mp4	0.0	317.66754817962646	
64	279.96571612358093	pulse	1	t		62.0	2.5	/experiments/aot/S_yt-6aqg1P9YqR8_38.mp4	0.0	319.2678201198578	
64	280.0819890499115	fix_post	2		12	62.0	2.5	/experiments/aot/S_yt-6aqg1P9YqR8_38.mp4	0.0	319.38409304618835	0.0999300479888916
65	280.1819190979004	fix_pre	0		120	63.0	2.5	blank	1.0	319.48402309417725	1.0000360012054443
65	281.18195509910583	movie	1		300	63.0	2.5	blank	1.0	320.4840590953827	2.499967098236084
65	281.56541109085083	pulse	1	t		63.0	2.5	blank	1.0	320.8675150871277	
65	283.16530203819275	pulse	1	t		63.0	2.5	blank	1.0	322.4674060344696	
65	283.6819221973419	fix_post	2		12	63.0	2.5	blank	1.0	322.9840261936188	0.09999680519104004
66	283.78191900253296	fix_pre	0		119	64.0	2.5	/experiments/aot/R_S_yt-F3hhts3bwWg_25.mp4	0.0	323.0840229988098	0.9916150569915771
66	284.7654461860657	pulse	0	t		64.0	2.5	/experiments/aot/R_S_yt-F3hhts3bwWg_25.mp4	0.0	324.06755018234253	
66	284.77353405952454	movie	1		301	64.0	2.5	/experiments/aot/R_S_yt-F3hhts3bwWg_25.mp4	0.0	324.0756380558014	2.5079479217529297
66	286.36116003990173	pulse	1	t		64.0	2.5	/experiments/aot/R_S_yt-F3hhts3bwWg_25.mp4	0.0	325.6632640361786	
66	287.28148198127747	fix_post	2		12	64.0	2.5	/experiments/aot/R_S_yt-F3hhts3bwWg_25.mp4	0.0	326.5835859775543	0.10049104690551758
67	287.381973028183	fix_pre	0		120	65.0	2.5	/experiments/aot/R_S_yt-cokedWwwYYs_136.mp4	0.0	326.68407702445984	0.9998929500579834
67	287.9655690193176	pulse	0	t		65.0	2.5	/experiments/aot/R_S_yt-cokedWwwYYs_136.mp4	0.0	327.2676730155945	
67	288.38186597824097	movie	1		300	65.0	2.5	/experiments/aot/R_S_yt-cokedWwwYYs_136.mp4	0.0	327.6839699745178	2.4997141361236572
67	289.5655369758606	pulse	1	t		65.0	2.5	/experiments/aot/R_S_yt-cokedWwwYYs_136.mp4	0.0	328.86764097213745	
67	290.8815801143646	fix_post	2		12	65.0	2.5	/experiments/aot/R_S_yt-cokedWwwYYs_136.mp4	0.0	330.1836841106415	0.10034990310668945
68	290.9819300174713	fix_pre	0		120	66.0	2.5	/experiments/aot/R_S_yt-_7HJhRPVmHw_255.mp4	0.0	330.28403401374817	1.0001399517059326
68	291.1649811267853	pulse	0	t		66.0	2.5	/experiments/aot/R_S_yt-_7HJhRPVmHw_255.mp4	0.0	330.46708512306213	
68	291.98206996917725	movie	1		300	66.0	2.5	/experiments/aot/R_S_yt-_7HJhRPVmHw_255.mp4	0.0	331.2841739654541	2.4998011589050293
68	292.7651741504669	pulse	1	t		66.0	2.5	/experiments/aot/R_S_yt-_7HJhRPVmHw_255.mp4	0.0	332.0672781467438	
68	294.36538314819336	pulse	1	t		66.0	2.5	/experiments/aot/R_S_yt-_7HJhRPVmHw_255.mp4	0.0	333.6674871444702	
68	294.4818711280823	fix_post	2		12	66.0	2.5	/experiments/aot/R_S_yt-_7HJhRPVmHw_255.mp4	0.0	333.78397512435913	0.10004401206970215
69	294.581915140152	fix_pre	0		120	67.0	2.5	/experiments/aot/S_yt-Pc1ZlCvsPpc_5.mp4	0.0	333.88401913642883	1.0000050067901611
69	295.58192014694214	movie	1		299	67.0	2.5	/experiments/aot/S_yt-Pc1ZlCvsPpc_5.mp4	0.0	334.884024143219	2.499990940093994
69	295.9653260707855	pulse	1	t		67.0	2.5	/experiments/aot/S_yt-Pc1ZlCvsPpc_5.mp4	0.0	335.2674300670624	
69	297.56529712677	pulse	1	t		67.0	2.5	/experiments/aot/S_yt-Pc1ZlCvsPpc_5.mp4	0.0	336.8674011230469	
69	298.08191108703613	fix_post	2		12	67.0	2.5	/experiments/aot/S_yt-Pc1ZlCvsPpc_5.mp4	0.0	337.384015083313	0.09998393058776855
70	298.1818950176239	fix_pre	0		119	68.0	2.5	/experiments/aot/R_S_yt-dO0OuozAgt0_225.mp4	0.0	337.48399901390076	0.991718053817749
70	299.165246963501	pulse	0	t		68.0	2.5	/experiments/aot/R_S_yt-dO0OuozAgt0_225.mp4	0.0	338.46735095977783	
70	299.17361307144165	movie	1		301	68.0	2.5	/experiments/aot/R_S_yt-dO0OuozAgt0_225.mp4	0.0	338.4757170677185	2.5082409381866455
70	300.76127314567566	pulse	1	t		68.0	2.5	/experiments/aot/R_S_yt-dO0OuozAgt0_225.mp4	0.0	340.0633771419525	
70	301.6818540096283	fix_post	2		12	68.0	2.5	/experiments/aot/R_S_yt-dO0OuozAgt0_225.mp4	0.0	340.98395800590515	0.09993696212768555
71	301.781790971756	fix_pre	0		120	69.0	2.5	/experiments/aot/S_yt-cjndulbUtRc_51.mp4	0.0	341.08389496803284	1.0000691413879395
71	302.3653039932251	pulse	0	t		69.0	2.5	/experiments/aot/S_yt-cjndulbUtRc_51.mp4	0.0	341.66740798950195	
71	302.7818601131439	movie	1		300	69.0	2.5	/experiments/aot/S_yt-cjndulbUtRc_51.mp4	0.0	342.0839641094208	2.4999799728393555
71	303.96522998809814	pulse	1	t		69.0	2.5	/experiments/aot/S_yt-cjndulbUtRc_51.mp4	0.0	343.267333984375	
71	305.2818400859833	fix_post	2		12	69.0	2.5	/experiments/aot/S_yt-cjndulbUtRc_51.mp4	0.0	344.58394408226013	0.10001301765441895
72	305.3818531036377	fix_pre	0		120	70.0	2.5	blank	1.0	344.68395709991455	1.0
72	305.56526708602905	pulse	0	t		70.0	2.5	blank	1.0	344.8673710823059	
72	306.3818531036377	movie	1		300	70.0	2.5	blank	1.0	345.68395709991455	2.500128984451294
72	307.16521310806274	pulse	1	t		70.0	2.5	blank	1.0	346.4673171043396	
72	308.7652111053467	pulse	1	t		70.0	2.5	blank	1.0	348.06731510162354	
72	308.881982088089	fix_post	2		12	70.0	2.5	blank	1.0	348.18408608436584	0.09948611259460449
73	308.9814682006836	fix_pre	0		120	71.0	2.5	/experiments/aot/R_S_yt-kkbtZP78JxQ_96.mp4	0.0	348.28357219696045	1.0004019737243652
73	309.98187017440796	movie	1		299	71.0	2.5	/experiments/aot/R_S_yt-kkbtZP78JxQ_96.mp4	0.0	349.2839741706848	2.499569892883301
73	310.365305185318	pulse	1	t		71.0	2.5	/experiments/aot/R_S_yt-kkbtZP78JxQ_96.mp4	0.0	349.66740918159485	
73	311.9651610851288	pulse	1	t		71.0	2.5	/experiments/aot/R_S_yt-kkbtZP78JxQ_96.mp4	0.0	351.26726508140564	
73	312.48144006729126	fix_post	2		12	71.0	2.5	/experiments/aot/R_S_yt-kkbtZP78JxQ_96.mp4	0.0	351.7835440635681	0.10043501853942871
74	312.5818750858307	fix_pre	0		119	72.0	2.5	/experiments/aot/S_yt-BAQ3Xhm_PPE_23.mp4	0.0	351.88397908210754	0.9915790557861328
74	313.5652651786804	pulse	0	t		72.0	2.5	/experiments/aot/S_yt-BAQ3Xhm_PPE_23.mp4	0.0	352.8673691749573	
74	313.5734541416168	movie	1		301	72.0	2.5	/experiments/aot/S_yt-BAQ3Xhm_PPE_23.mp4	0.0	352.8755581378937	2.50799298286438
74	315.1610050201416	pulse	1	t		72.0	2.5	/experiments/aot/S_yt-BAQ3Xhm_PPE_23.mp4	0.0	354.46310901641846	
74	316.0814471244812	fix_post	2		12	72.0	2.5	/experiments/aot/S_yt-BAQ3Xhm_PPE_23.mp4	0.0	355.38355112075806	0.10031700134277344
75	316.181764125824	fix_pre	0		120	73.0	2.5	/experiments/aot/S_yt-7lULOC_rSE0_747.mp4	0.0	355.48386812210083	0.9996180534362793
75	316.76524114608765	pulse	0	t		73.0	2.5	/experiments/aot/S_yt-7lULOC_rSE0_747.mp4	0.0	356.0673451423645	
75	317.18138217926025	movie	1		300	73.0	2.5	/experiments/aot/S_yt-7lULOC_rSE0_747.mp4	0.0	356.4834861755371	2.5000088214874268
75	318.36530900001526	pulse	1	t		73.0	2.5	/experiments/aot/S_yt-7lULOC_rSE0_747.mp4	0.0	357.6674129962921	
75	319.6813910007477	fix_post	2		12	73.0	2.5	/experiments/aot/S_yt-7lULOC_rSE0_747.mp4	0.0	358.98349499702454	0.09999513626098633
76	319.78138613700867	fix_pre	0		120	74.0	2.5	/experiments/aot/R_S_yt-Jo6PxivsTOg_247.mp4	0.0	359.0834901332855	1.0003759860992432
76	319.9653000831604	pulse	0	t		74.0	2.5	/experiments/aot/R_S_yt-Jo6PxivsTOg_247.mp4	0.0	359.26740407943726	
76	320.7817621231079	movie	1		300	74.0	2.5	/experiments/aot/R_S_yt-Jo6PxivsTOg_247.mp4	0.0	360.08386611938477	2.5000810623168945
76	321.5651981830597	pulse	1	t		74.0	2.5	/experiments/aot/R_S_yt-Jo6PxivsTOg_247.mp4	0.0	360.86730217933655	
76	323.16522216796875	pulse	1	t		74.0	2.5	/experiments/aot/R_S_yt-Jo6PxivsTOg_247.mp4	0.0	362.4673261642456	
76	323.2818431854248	fix_post	2		12	74.0	2.5	/experiments/aot/R_S_yt-Jo6PxivsTOg_247.mp4	0.0	362.58394718170166	0.09991097450256348
77	323.38175415992737	fix_pre	0		120	75.0	2.5	/experiments/aot/R_S_IrGYVLkWeQs_9.mp4	0.0	362.6838581562042	0.9999430179595947
77	324.38169717788696	movie	1		300	75.0	2.5	/experiments/aot/R_S_IrGYVLkWeQs_9.mp4	0.0	363.6838011741638	2.50002384185791
77	324.7652499675751	pulse	1	t		75.0	2.5	/experiments/aot/R_S_IrGYVLkWeQs_9.mp4	0.0	364.06735396385193	
77	326.36524510383606	pulse	1	t		75.0	2.5	/experiments/aot/R_S_IrGYVLkWeQs_9.mp4	0.0	365.6673491001129	
77	326.8817210197449	fix_post	2		12	75.0	2.5	/experiments/aot/R_S_IrGYVLkWeQs_9.mp4	0.0	366.18382501602173	0.09997916221618652
78	326.98170018196106	fix_pre	0		119	76.0	2.5	blank	1.0	366.2838041782379	0.9916608333587646
78	327.9652051925659	pulse	0	t		76.0	2.5	blank	1.0	367.2673091888428	
78	327.9733610153198	movie	1		301	76.0	2.5	blank	1.0	367.2754650115967	2.5083751678466797
78	329.5652229785919	pulse	1	t		76.0	2.5	blank	1.0	368.8673269748688	
78	330.4817361831665	fix_post	2		12	76.0	2.5	blank	1.0	369.78384017944336	0.10003900527954102
79	330.58177518844604	fix_pre	0		120	77.0	2.5	/experiments/aot/S_ILSVRC2015_train_00418004.mp4	0.0	369.8838791847229	1.000086784362793
79	331.1652410030365	pulse	0	t		77.0	2.5	/experiments/aot/S_ILSVRC2015_train_00418004.mp4	0.0	370.46734499931335	
79	331.58186197280884	movie	1		300	77.0	2.5	/experiments/aot/S_ILSVRC2015_train_00418004.mp4	0.0	370.8839659690857	2.499922037124634
79	332.7651901245117	pulse	1	t		77.0	2.5	/experiments/aot/S_ILSVRC2015_train_00418004.mp4	0.0	372.0672941207886	
79	334.0817840099335	fix_post	2		12	77.0	2.5	/experiments/aot/S_ILSVRC2015_train_00418004.mp4	0.0	373.3838880062103	0.09993195533752441
80	334.181715965271	fix_pre	0		120	78.0	2.5	/experiments/aot/R_S_yt-HMAa2QbfFPI_216.mp4	0.0	373.48381996154785	1.0000090599060059
80	334.36541199684143	pulse	0	t		78.0	2.5	/experiments/aot/R_S_yt-HMAa2QbfFPI_216.mp4	0.0	373.6675159931183	
80	335.181725025177	movie	1		300	78.0	2.5	/experiments/aot/R_S_yt-HMAa2QbfFPI_216.mp4	0.0	374.48382902145386	2.499943971633911
80	335.96515798568726	pulse	1	t		78.0	2.5	/experiments/aot/R_S_yt-HMAa2QbfFPI_216.mp4	0.0	375.2672619819641	
80	337.5651650428772	pulse	1	t		78.0	2.5	/experiments/aot/R_S_yt-HMAa2QbfFPI_216.mp4	0.0	376.86726903915405	
80	337.6816689968109	fix_post	2		12	78.0	2.5	/experiments/aot/R_S_yt-HMAa2QbfFPI_216.mp4	0.0	376.98377299308777	0.1000361442565918
81	337.7817051410675	fix_pre	0		120	79.0	2.5	/experiments/aot/S_SE_A016_C009_SDR_20190717_SDR_2K_AVC.mp4	0.0	377.08380913734436	1.0000598430633545
81	338.78176498413086	movie	1		162	79.0	2.5	/experiments/aot/S_SE_A016_C009_SDR_20190717_SDR_2K_AVC.mp4	0.0	378.0838689804077	2.4995222091674805
81	339.165176153183	pulse	1	t		79.0	2.5	/experiments/aot/S_SE_A016_C009_SDR_20190717_SDR_2K_AVC.mp4	0.0	378.46728014945984	
81	340.76519417762756	pulse	1	t		79.0	2.5	/experiments/aot/S_SE_A016_C009_SDR_20190717_SDR_2K_AVC.mp4	0.0	380.0672981739044	
81	341.28128719329834	fix_post	2		12	79.0	2.5	/experiments/aot/S_SE_A016_C009_SDR_20190717_SDR_2K_AVC.mp4	0.0	380.5833911895752	0.10043191909790039
82	341.38171911239624	fix_pre	0		119	80.0	2.5	/experiments/aot/R_S_yt-Bx2kLEUuN0E_456.mp4	0.0	380.6838231086731	0.9916908740997314
82	342.3652460575104	pulse	0	t		80.0	2.5	/experiments/aot/R_S_yt-Bx2kLEUuN0E_456.mp4	0.0	381.66735005378723	
82	342.373409986496	movie	1		301	80.0	2.5	/experiments/aot/R_S_yt-Bx2kLEUuN0E_456.mp4	0.0	381.6755139827728	2.508261203765869
82	343.9616231918335	pulse	1	t		80.0	2.5	/experiments/aot/R_S_yt-Bx2kLEUuN0E_456.mp4	0.0	383.26372718811035	
82	344.88167119026184	fix_post	2		12	80.0	2.5	/experiments/aot/R_S_yt-Bx2kLEUuN0E_456.mp4	0.0	384.1837751865387	0.09959888458251953
83	344.98127007484436	fix_pre	0		120	81.0	2.5	/experiments/aot/R_S_yt-7WYXuBHeorw_188.mp4	0.0	384.2833740711212	1.0000181198120117
83	345.5651681423187	pulse	0	t		81.0	2.5	/experiments/aot/R_S_yt-7WYXuBHeorw_188.mp4	0.0	384.8672721385956	
83	345.9812881946564	movie	1		300	81.0	2.5	/experiments/aot/R_S_yt-7WYXuBHeorw_188.mp4	0.0	385.2833921909332	2.5006158351898193
83	347.1647551059723	pulse	1	t		81.0	2.5	/experiments/aot/R_S_yt-7WYXuBHeorw_188.mp4	0.0	386.46685910224915	
83	348.4819040298462	fix_post	2		12	81.0	2.5	/experiments/aot/R_S_yt-7WYXuBHeorw_188.mp4	0.0	387.78400802612305	0.09960794448852539
84	348.5815119743347	fix_pre	0		120	82.0	2.5	/experiments/aot/R_S_8amznWxLS04_212.mp4	0.0	387.8836159706116	0.9997351169586182
84	348.76506209373474	pulse	0	t		82.0	2.5	/experiments/aot/R_S_8amznWxLS04_212.mp4	0.0	388.0671660900116	
84	349.58124709129333	movie	1		300	82.0	2.5	/experiments/aot/R_S_8amznWxLS04_212.mp4	0.0	388.8833510875702	2.5000391006469727
84	350.36501717567444	pulse	1	t		82.0	2.5	/experiments/aot/R_S_8amznWxLS04_212.mp4	0.0	389.6671211719513	
84	351.96504306793213	pulse	1	t		82.0	2.5	/experiments/aot/R_S_8amznWxLS04_212.mp4	0.0	391.267147064209	
84	352.0812861919403	fix_post	2		12	82.0	2.5	/experiments/aot/R_S_8amznWxLS04_212.mp4	0.0	391.38339018821716	0.10033798217773438
85	352.18162417411804	fix_pre	0		120	83.0	2.5	blank	1.0	391.4837281703949	0.9995830059051514
85	353.1812071800232	movie	1		300	83.0	2.5	blank	1.0	392.48331117630005	2.5004029273986816
85	353.56525015830994	pulse	1	t		83.0	2.5	blank	1.0	392.8673541545868	
85	355.16500997543335	pulse	1	t		83.0	2.5	blank	1.0	394.4671139717102	
85	355.6816101074219	fix_post	2		12	83.0	2.5	blank	1.0	394.98371410369873	0.10003900527954102
87	355.7816491127014	stim	0		1598					395.08375310897827	13.316580057144165
87	356.7650671005249	pulse	0	t						396.06717109680176	
87	358.36495900154114	pulse	0	t						397.667062997818	
87	359.96501111984253	pulse	0	t						399.2671151161194	
87	361.5649781227112	pulse	0	t						400.86708211898804	
87	363.16496109962463	pulse	0	t						402.4670650959015	
87	364.7650101184845	pulse	0	t						404.06711411476135	
87	366.3649551868439	pulse	0	t						405.6670591831207	
87	367.965008020401	pulse	0	t						407.26711201667786	
