trial_nr	onset	event_type	phase	response	nr_frames	movie_index	movie_duration	movie_file	blank	onset_abs	duration
0	0.1504530906677246	stim	0		63936					95.46114611625671	532.8052198886871
0	532.9476571083069	response	0	space						628.2583501338959	
1	532.9556729793549	stim	0		4486					628.2663660049438	37.383121967315674
1	570.3310780525208	pulse	0	t						665.6417710781097	
1	570.3387949466705	stim	1		1717					665.6494879722595	14.308239221572876
1	571.9306721687317	pulse	1	t						667.2413651943207	
1	573.5306031703949	pulse	1	t						668.8412961959839	
1	575.1305930614471	pulse	1	t						670.4412860870361	
1	576.7306089401245	pulse	1	t						672.0413019657135	
1	578.3306829929352	pulse	1	t						673.6413760185242	
1	579.9307429790497	pulse	1	t						675.2414360046387	
1	581.5305361747742	pulse	1	t						676.8412292003632	
1	583.1305961608887	pulse	1	t						678.4412891864777	
2	584.6470341682434	fix_pre	0		11	0.0	2.5	/experiments/AOT/AOT_stimuli/rescaled_final/0121_fw.mp4	0.0	679.9577271938324	0.10008597373962402
2	584.7306671142578	pulse	0	t		0.0	2.5	/experiments/AOT/AOT_stimuli/rescaled_final/0121_fw.mp4	0.0	680.0413601398468	
2	584.747120141983	movie	1		241	0.0	2.5	/experiments/AOT/AOT_stimuli/rescaled_final/0121_fw.mp4	0.0	680.057813167572	2.500105857849121
2	586.3308639526367	pulse	1	t		0.0	2.5	/experiments/AOT/AOT_stimuli/rescaled_final/0121_fw.mp4	0.0	681.6415569782257	
2	587.2472259998322	fix_post	2		12	0.0	2.5	/experiments/AOT/AOT_stimuli/rescaled_final/0121_fw.mp4	0.0	682.5579190254211	0.09994697570800781
3	587.3471729755402	fix_pre	0		120	1.0	2.5	/experiments/AOT/AOT_stimuli/rescaled_final/1786_fw.mp4	0.0	682.6578660011292	1.000028133392334
3	587.9306931495667	pulse	0	t		1.0	2.5	/experiments/AOT/AOT_stimuli/rescaled_final/1786_fw.mp4	0.0	683.2413861751556	
3	588.3472011089325	movie	1		243	1.0	2.5	/experiments/AOT/AOT_stimuli/rescaled_final/1786_fw.mp4	0.0	683.6578941345215	2.499994993209839
3	589.5306041240692	pulse	1	t		1.0	2.5	/experiments/AOT/AOT_stimuli/rescaled_final/1786_fw.mp4	0.0	684.8412971496582	
3	590.8471961021423	fix_post	2		12	1.0	2.5	/experiments/AOT/AOT_stimuli/rescaled_final/1786_fw.mp4	0.0	686.1578891277313	0.10000991821289062
4	590.9472060203552	fix_pre	0		120	2.0	2.5	/experiments/AOT/AOT_stimuli/rescaled_final/1524_rv.mp4	0.0	686.2578990459442	0.9997029304504395
4	591.130686044693	pulse	0	t		2.0	2.5	/experiments/AOT/AOT_stimuli/rescaled_final/1524_rv.mp4	0.0	686.441379070282	
4	591.9469089508057	movie	1		242	2.0	2.5	/experiments/AOT/AOT_stimuli/rescaled_final/1524_rv.mp4	0.0	687.2576019763947	2.5002191066741943
4	592.7304639816284	pulse	1	t		2.0	2.5	/experiments/AOT/AOT_stimuli/rescaled_final/1524_rv.mp4	0.0	688.0411570072174	
4	594.3288550376892	pulse	1	t		2.0	2.5	/experiments/AOT/AOT_stimuli/rescaled_final/1524_rv.mp4	0.0	689.6395480632782	
4	594.4471280574799	fix_post	2		12	2.0	2.5	/experiments/AOT/AOT_stimuli/rescaled_final/1524_rv.mp4	0.0	689.7578210830688	0.09993791580200195
5	594.5470659732819	fix_pre	0		120	3.0	2.5	/experiments/AOT/AOT_stimuli/rescaled_final/1042_fw.mp4	0.0	689.8577589988708	1.0000190734863281
5	595.5470850467682	movie	1		245	3.0	2.5	/experiments/AOT/AOT_stimuli/rescaled_final/1042_fw.mp4	0.0	690.8577780723572	2.4999239444732666
5	595.9300329685211	pulse	1	t		3.0	2.5	/experiments/AOT/AOT_stimuli/rescaled_final/1042_fw.mp4	0.0	691.2407259941101	
5	597.5306551456451	pulse	1	t		3.0	2.5	/experiments/AOT/AOT_stimuli/rescaled_final/1042_fw.mp4	0.0	692.8413481712341	
5	598.0470089912415	fix_post	2		12	3.0	2.5	/experiments/AOT/AOT_stimuli/rescaled_final/1042_fw.mp4	0.0	693.3577020168304	0.0999460220336914
6	598.1469550132751	fix_pre	0		119	4.0	2.5	/experiments/AOT/AOT_stimuli/rescaled_final/0122_rv.mp4	0.0	693.4576480388641	0.9917421340942383
6	599.1305899620056	pulse	0	t		4.0	2.5	/experiments/AOT/AOT_stimuli/rescaled_final/0122_rv.mp4	0.0	694.4412829875946	
6	599.1386971473694	movie	1		245	4.0	2.5	/experiments/AOT/AOT_stimuli/rescaled_final/0122_rv.mp4	0.0	694.4493901729584	2.508246898651123
6	600.7303240299225	pulse	1	t		4.0	2.5	/experiments/AOT/AOT_stimuli/rescaled_final/0122_rv.mp4	0.0	696.0410170555115	
6	601.6469440460205	fix_post	2		12	4.0	2.5	/experiments/AOT/AOT_stimuli/rescaled_final/0122_rv.mp4	0.0	696.9576370716095	0.10004591941833496
7	601.7469899654388	fix_pre	0		120	5.0	2.5	/experiments/AOT/AOT_stimuli/rescaled_final/2022_rv.mp4	0.0	697.0576829910278	1.0000250339508057
7	602.3304581642151	pulse	0	t		5.0	2.5	/experiments/AOT/AOT_stimuli/rescaled_final/2022_rv.mp4	0.0	697.6411511898041	
7	602.7470149993896	movie	1		245	5.0	2.5	/experiments/AOT/AOT_stimuli/rescaled_final/2022_rv.mp4	0.0	698.0577080249786	2.499540090560913
7	603.9306499958038	pulse	1	t		5.0	2.5	/experiments/AOT/AOT_stimuli/rescaled_final/2022_rv.mp4	0.0	699.2413430213928	
7	605.2465550899506	fix_post	2		12	5.0	2.5	/experiments/AOT/AOT_stimuli/rescaled_final/2022_rv.mp4	0.0	700.5572481155396	0.10041403770446777
8	605.346969127655	fix_pre	0		120	6.0	2.5	/experiments/AOT/AOT_stimuli/rescaled_final/2142_fw.mp4	0.0	700.657662153244	1.0000028610229492
8	605.5305161476135	pulse	0	t		6.0	2.5	/experiments/AOT/AOT_stimuli/rescaled_final/2142_fw.mp4	0.0	700.8412091732025	
8	606.346971988678	movie	1		242	6.0	2.5	/experiments/AOT/AOT_stimuli/rescaled_final/2142_fw.mp4	0.0	701.657665014267	2.4996070861816406
8	607.1306760311127	pulse	1	t		6.0	2.5	/experiments/AOT/AOT_stimuli/rescaled_final/2142_fw.mp4	0.0	702.4413690567017	
8	608.7287809848785	pulse	1	t		6.0	2.5	/experiments/AOT/AOT_stimuli/rescaled_final/2142_fw.mp4	0.0	704.0394740104675	
8	608.8465790748596	fix_post	2		12	6.0	2.5	/experiments/AOT/AOT_stimuli/rescaled_final/2142_fw.mp4	0.0	704.1572721004486	0.1004030704498291
9	608.9469821453094	fix_pre	0		120	7.0	2.5	blank	1.0	704.2576751708984	1.0000579357147217
9	609.9470400810242	movie	1		300	7.0	2.5	blank	1.0	705.2577331066132	2.4999639987945557
9	610.3305239677429	pulse	1	t		7.0	2.5	blank	1.0	705.6412169933319	
9	611.9304251670837	pulse	1	t		7.0	2.5	blank	1.0	707.2411181926727	
9	612.4470040798187	fix_post	2		12	7.0	2.5	blank	1.0	707.7576971054077	0.09995007514953613
10	612.5469541549683	fix_pre	0		119	8.0	2.5	/experiments/AOT/AOT_stimuli/rescaled_final/1319_rv.mp4	0.0	707.8576471805573	0.9916508197784424
10	613.5304410457611	pulse	0	t		8.0	2.5	/experiments/AOT/AOT_stimuli/rescaled_final/1319_rv.mp4	0.0	708.8411340713501	
10	613.5386049747467	movie	1		245	8.0	2.5	/experiments/AOT/AOT_stimuli/rescaled_final/1319_rv.mp4	0.0	708.8492980003357	2.5082931518554688
10	615.1298661231995	pulse	1	t		8.0	2.5	/experiments/AOT/AOT_stimuli/rescaled_final/1319_rv.mp4	0.0	710.4405591487885	
10	616.0468981266022	fix_post	2		12	8.0	2.5	/experiments/AOT/AOT_stimuli/rescaled_final/1319_rv.mp4	0.0	711.3575911521912	0.1000528335571289
11	616.1469509601593	fix_pre	0		120	9.0	2.5	/experiments/AOT/AOT_stimuli/rescaled_final/0214_fw.mp4	0.0	711.4576439857483	0.9999899864196777
11	616.73046708107	pulse	0	t		9.0	2.5	/experiments/AOT/AOT_stimuli/rescaled_final/0214_fw.mp4	0.0	712.0411601066589	
11	617.146940946579	movie	1		242	9.0	2.5	/experiments/AOT/AOT_stimuli/rescaled_final/0214_fw.mp4	0.0	712.457633972168	2.5001981258392334
11	618.3304631710052	pulse	1	t		9.0	2.5	/experiments/AOT/AOT_stimuli/rescaled_final/0214_fw.mp4	0.0	713.6411561965942	
11	619.6471390724182	fix_post	2		12	9.0	2.5	/experiments/AOT/AOT_stimuli/rescaled_final/0214_fw.mp4	0.0	714.9578320980072	0.09974908828735352
12	619.7468881607056	fix_pre	0		120	10.0	2.5	/experiments/AOT/AOT_stimuli/rescaled_final/0059_fw.mp4	0.0	715.0575811862946	1.0000638961791992
12	619.9304900169373	pulse	0	t		10.0	2.5	/experiments/AOT/AOT_stimuli/rescaled_final/0059_fw.mp4	0.0	715.2411830425262	
12	620.7469520568848	movie	1		242	10.0	2.5	/experiments/AOT/AOT_stimuli/rescaled_final/0059_fw.mp4	0.0	716.0576450824738	2.4999499320983887
12	621.5303790569305	pulse	1	t		10.0	2.5	/experiments/AOT/AOT_stimuli/rescaled_final/0059_fw.mp4	0.0	716.8410720825195	
12	623.1294929981232	pulse	1	t		10.0	2.5	/experiments/AOT/AOT_stimuli/rescaled_final/0059_fw.mp4	0.0	718.4401860237122	
12	623.2469019889832	fix_post	2		12	10.0	2.5	/experiments/AOT/AOT_stimuli/rescaled_final/0059_fw.mp4	0.0	718.5575950145721	0.10009503364562988
13	623.3469970226288	fix_pre	0		120	11.0	2.5	/experiments/AOT/AOT_stimuli/rescaled_final/0890_fw.mp4	0.0	718.6576900482178	0.9999439716339111
13	624.3469409942627	movie	1		244	11.0	2.5	/experiments/AOT/AOT_stimuli/rescaled_final/0890_fw.mp4	0.0	719.6576340198517	2.5000059604644775
13	624.7300751209259	pulse	1	t		11.0	2.5	/experiments/AOT/AOT_stimuli/rescaled_final/0890_fw.mp4	0.0	720.0407681465149	
13	626.3304419517517	pulse	1	t		11.0	2.5	/experiments/AOT/AOT_stimuli/rescaled_final/0890_fw.mp4	0.0	721.6411349773407	
13	626.8469469547272	fix_post	2		12	11.0	2.5	/experiments/AOT/AOT_stimuli/rescaled_final/0890_fw.mp4	0.0	722.1576399803162	0.10001206398010254
14	626.9469590187073	fix_pre	0		119	12.0	2.5	/experiments/AOT/AOT_stimuli/rescaled_final/2086_fw.mp4	0.0	722.2576520442963	0.9915640354156494
14	627.9303941726685	pulse	0	t		12.0	2.5	/experiments/AOT/AOT_stimuli/rescaled_final/2086_fw.mp4	0.0	723.2410871982574	
14	627.9385230541229	movie	1		242	12.0	2.5	/experiments/AOT/AOT_stimuli/rescaled_final/2086_fw.mp4	0.0	723.2492160797119	2.50848388671875
14	629.5298910140991	pulse	1	t		12.0	2.5	/experiments/AOT/AOT_stimuli/rescaled_final/2086_fw.mp4	0.0	724.8405840396881	
14	630.4470069408417	fix_post	2		12	12.0	2.5	/experiments/AOT/AOT_stimuli/rescaled_final/2086_fw.mp4	0.0	725.7576999664307	0.09986710548400879
15	630.5468740463257	fix_pre	0		120	13.0	2.5	blank	1.0	725.8575670719147	1.0000109672546387
15	631.1303350925446	pulse	0	t		13.0	2.5	blank	1.0	726.4410281181335	
15	631.5468850135803	movie	1		300	13.0	2.5	blank	1.0	726.8575780391693	2.5000159740448
15	632.7303760051727	pulse	1	t		13.0	2.5	blank	1.0	728.0410690307617	
15	634.0469009876251	fix_post	2		12	13.0	2.5	blank	1.0	729.3575940132141	0.09998297691345215
16	634.1468839645386	fix_pre	0		120	14.0	2.5	/experiments/AOT/AOT_stimuli/rescaled_final/1779_fw.mp4	0.0	729.4575769901276	1.0000519752502441
16	634.3305101394653	pulse	0	t		14.0	2.5	/experiments/AOT/AOT_stimuli/rescaled_final/1779_fw.mp4	0.0	729.6412031650543	
16	635.1469359397888	movie	1		242	14.0	2.5	/experiments/AOT/AOT_stimuli/rescaled_final/1779_fw.mp4	0.0	730.4576289653778	2.4999241828918457
16	635.9302711486816	pulse	1	t		14.0	2.5	/experiments/AOT/AOT_stimuli/rescaled_final/1779_fw.mp4	0.0	731.2409641742706	
16	637.5287930965424	pulse	1	t		14.0	2.5	/experiments/AOT/AOT_stimuli/rescaled_final/1779_fw.mp4	0.0	732.8394861221313	
16	637.6468601226807	fix_post	2		12	14.0	2.5	/experiments/AOT/AOT_stimuli/rescaled_final/1779_fw.mp4	0.0	732.9575531482697	0.10001587867736816
17	637.746876001358	fix_pre	0		120	15.0	2.5	/experiments/AOT/AOT_stimuli/rescaled_final/0402_fw.mp4	0.0	733.057569026947	0.9999511241912842
17	638.7468271255493	movie	1		243	15.0	2.5	/experiments/AOT/AOT_stimuli/rescaled_final/0402_fw.mp4	0.0	734.0575201511383	2.5000898838043213
17	639.1298320293427	pulse	1	t		15.0	2.5	/experiments/AOT/AOT_stimuli/rescaled_final/0402_fw.mp4	0.0	734.4405250549316	
17	640.7301869392395	pulse	1	t		15.0	2.5	/experiments/AOT/AOT_stimuli/rescaled_final/0402_fw.mp4	0.0	736.0408799648285	
17	641.2469170093536	fix_post	2		12	15.0	2.5	/experiments/AOT/AOT_stimuli/rescaled_final/0402_fw.mp4	0.0	736.5576100349426	0.09993314743041992
18	641.3468501567841	fix_pre	0		119	16.0	2.5	/experiments/AOT/AOT_stimuli/rescaled_final/1074_fw.mp4	0.0	736.657543182373	0.9916977882385254
18	642.3304419517517	pulse	0	t		16.0	2.5	/experiments/AOT/AOT_stimuli/rescaled_final/1074_fw.mp4	0.0	737.6411349773407	
18	642.3385479450226	movie	1		241	16.0	2.5	/experiments/AOT/AOT_stimuli/rescaled_final/1074_fw.mp4	0.0	737.6492409706116	2.508315086364746
18	643.9298331737518	pulse	1	t		16.0	2.5	/experiments/AOT/AOT_stimuli/rescaled_final/1074_fw.mp4	0.0	739.2405261993408	
18	644.8468630313873	fix_post	2		12	16.0	2.5	/experiments/AOT/AOT_stimuli/rescaled_final/1074_fw.mp4	0.0	740.1575560569763	0.09997391700744629
19	644.9468369483948	fix_pre	0		120	17.0	2.5	/experiments/AOT/AOT_stimuli/rescaled_final/1944_fw.mp4	0.0	740.2575299739838	1.0001730918884277
19	645.5299141407013	pulse	0	t		17.0	2.5	/experiments/AOT/AOT_stimuli/rescaled_final/1944_fw.mp4	0.0	740.8406071662903	
19	645.9470100402832	movie	1		244	17.0	2.5	/experiments/AOT/AOT_stimuli/rescaled_final/1944_fw.mp4	0.0	741.2577030658722	2.500056028366089
19	647.1304609775543	pulse	1	t		17.0	2.5	/experiments/AOT/AOT_stimuli/rescaled_final/1944_fw.mp4	0.0	742.4411540031433	
19	648.4470660686493	fix_post	2		12	17.0	2.5	/experiments/AOT/AOT_stimuli/rescaled_final/1944_fw.mp4	0.0	743.7577590942383	0.10005807876586914
20	648.5471241474152	fix_pre	0		120	18.0	2.5	/experiments/AOT/AOT_stimuli/rescaled_final/1736_rv.mp4	0.0	743.8578171730042	0.9997549057006836
20	648.7302870750427	pulse	0	t		18.0	2.5	/experiments/AOT/AOT_stimuli/rescaled_final/1736_rv.mp4	0.0	744.0409801006317	
20	649.5468790531158	movie	1		243	18.0	2.5	/experiments/AOT/AOT_stimuli/rescaled_final/1736_rv.mp4	0.0	744.8575720787048	2.4999630451202393
20	650.3301990032196	pulse	1	t		18.0	2.5	/experiments/AOT/AOT_stimuli/rescaled_final/1736_rv.mp4	0.0	745.6408920288086	
20	651.9286551475525	pulse	1	t		18.0	2.5	/experiments/AOT/AOT_stimuli/rescaled_final/1736_rv.mp4	0.0	747.2393481731415	
20	652.0468420982361	fix_post	2		12	18.0	2.5	/experiments/AOT/AOT_stimuli/rescaled_final/1736_rv.mp4	0.0	747.3575351238251	0.099945068359375
21	652.1467871665955	fix_pre	0		120	19.0	2.5	/experiments/AOT/AOT_stimuli/rescaled_final/1736_fw.mp4	0.0	747.4574801921844	1.0001108646392822
21	653.1468980312347	movie	1		243	19.0	2.5	/experiments/AOT/AOT_stimuli/rescaled_final/1736_fw.mp4	0.0	748.4575910568237	2.4999139308929443
21	653.529806137085	pulse	1	t		19.0	2.5	/experiments/AOT/AOT_stimuli/rescaled_final/1736_fw.mp4	0.0	748.840499162674	
21	655.1302180290222	pulse	1	t		19.0	2.5	/experiments/AOT/AOT_stimuli/rescaled_final/1736_fw.mp4	0.0	750.4409110546112	
21	655.6468119621277	fix_post	2		12	19.0	2.5	/experiments/AOT/AOT_stimuli/rescaled_final/1736_fw.mp4	0.0	750.9575049877167	0.09986305236816406
22	655.7466750144958	fix_pre	0		119	20.0	2.5	/experiments/AOT/AOT_stimuli/rescaled_final/0623_fw.mp4	0.0	751.0573680400848	0.9916830062866211
22	656.7303650379181	pulse	0	t		20.0	2.5	/experiments/AOT/AOT_stimuli/rescaled_final/0623_fw.mp4	0.0	752.0410580635071	
22	656.7383580207825	movie	1		245	20.0	2.5	/experiments/AOT/AOT_stimuli/rescaled_final/0623_fw.mp4	0.0	752.0490510463715	2.508435010910034
22	658.3297779560089	pulse	1	t		20.0	2.5	/experiments/AOT/AOT_stimuli/rescaled_final/0623_fw.mp4	0.0	753.6404709815979	
22	659.2467930316925	fix_post	2		12	20.0	2.5	/experiments/AOT/AOT_stimuli/rescaled_final/0623_fw.mp4	0.0	754.5574860572815	0.09993600845336914
23	659.3467290401459	fix_pre	0		120	21.0	2.5	blank	1.0	754.6574220657349	1.0000040531158447
23	659.9302010536194	pulse	0	t		21.0	2.5	blank	1.0	755.2408940792084	
23	660.3467330932617	movie	1		300	21.0	2.5	blank	1.0	755.6574261188507	2.500002861022949
23	661.5302040576935	pulse	1	t		21.0	2.5	blank	1.0	756.8408970832825	
23	662.8467359542847	fix_post	2		12	21.0	2.5	blank	1.0	758.1574289798737	0.09993600845336914
24	662.946671962738	fix_pre	0		120	22.0	2.5	/experiments/AOT/AOT_stimuli/rescaled_final/1163_rv.mp4	0.0	758.257364988327	1.000068187713623
24	663.1302790641785	pulse	0	t		22.0	2.5	/experiments/AOT/AOT_stimuli/rescaled_final/1163_rv.mp4	0.0	758.4409720897675	
24	663.9467401504517	movie	1		243	22.0	2.5	/experiments/AOT/AOT_stimuli/rescaled_final/1163_rv.mp4	0.0	759.2574331760406	2.500053882598877
24	664.730229139328	pulse	1	t		22.0	2.5	/experiments/AOT/AOT_stimuli/rescaled_final/1163_rv.mp4	0.0	760.040922164917	
24	666.3285629749298	pulse	1	t		22.0	2.5	/experiments/AOT/AOT_stimuli/rescaled_final/1163_rv.mp4	0.0	761.6392560005188	
24	666.4467940330505	fix_post	2		12	22.0	2.5	/experiments/AOT/AOT_stimuli/rescaled_final/1163_rv.mp4	0.0	761.7574870586395	0.09990906715393066
25	666.5467031002045	fix_pre	0		120	23.0	2.5	/experiments/AOT/AOT_stimuli/rescaled_final/1524_fw.mp4	0.0	761.8573961257935	0.9999699592590332
25	667.5466730594635	movie	1		242	23.0	2.5	/experiments/AOT/AOT_stimuli/rescaled_final/1524_fw.mp4	0.0	762.8573660850525	2.5000710487365723
25	667.9296350479126	pulse	1	t		23.0	2.5	/experiments/AOT/AOT_stimuli/rescaled_final/1524_fw.mp4	0.0	763.2403280735016	
25	669.5302269458771	pulse	1	t		23.0	2.5	/experiments/AOT/AOT_stimuli/rescaled_final/1524_fw.mp4	0.0	764.8409199714661	
25	670.0467441082001	fix_post	2		12	23.0	2.5	/experiments/AOT/AOT_stimuli/rescaled_final/1524_fw.mp4	0.0	765.3574371337891	0.09955406188964844
26	670.1462981700897	fix_pre	0		119	24.0	2.5	/experiments/AOT/AOT_stimuli/rescaled_final/0293_rv.mp4	0.0	765.4569911956787	0.9919979572296143
26	671.130224943161	pulse	0	t		24.0	2.5	/experiments/AOT/AOT_stimuli/rescaled_final/0293_rv.mp4	0.0	766.44091796875	
26	671.1382961273193	movie	1		245	24.0	2.5	/experiments/AOT/AOT_stimuli/rescaled_final/0293_rv.mp4	0.0	766.4489891529083	2.50838303565979
26	672.7296760082245	pulse	1	t		24.0	2.5	/experiments/AOT/AOT_stimuli/rescaled_final/0293_rv.mp4	0.0	768.0403690338135	
26	673.6466791629791	fix_post	2		12	24.0	2.5	/experiments/AOT/AOT_stimuli/rescaled_final/0293_rv.mp4	0.0	768.9573721885681	0.09999799728393555
27	673.7466771602631	fix_pre	0		120	25.0	2.5	/experiments/AOT/AOT_stimuli/rescaled_final/1421_rv.mp4	0.0	769.057370185852	0.9999217987060547
27	674.3302071094513	pulse	0	t		25.0	2.5	/experiments/AOT/AOT_stimuli/rescaled_final/1421_rv.mp4	0.0	769.6409001350403	
27	674.7465989589691	movie	1		244	25.0	2.5	/experiments/AOT/AOT_stimuli/rescaled_final/1421_rv.mp4	0.0	770.0572919845581	2.4999611377716064
27	675.9301559925079	pulse	1	t		25.0	2.5	/experiments/AOT/AOT_stimuli/rescaled_final/1421_rv.mp4	0.0	771.2408490180969	
27	677.2465600967407	fix_post	2		12	25.0	2.5	/experiments/AOT/AOT_stimuli/rescaled_final/1421_rv.mp4	0.0	772.5572531223297	0.10011792182922363
28	677.34667801857	fix_pre	0		120	26.0	2.5	blank	1.0	772.6573710441589	0.9999361038208008
28	677.5301461219788	pulse	0	t		26.0	2.5	blank	1.0	772.8408391475677	
28	678.3466141223907	movie	1		300	26.0	2.5	blank	1.0	773.6573071479797	2.5000078678131104
28	679.1301579475403	pulse	1	t		26.0	2.5	blank	1.0	774.4408509731293	
28	680.7300720214844	pulse	1	t		26.0	2.5	blank	1.0	776.0407650470734	
28	680.8466219902039	fix_post	2		12	26.0	2.5	blank	1.0	776.1573150157928	0.09996795654296875
29	680.9465899467468	fix_pre	0		120	27.0	2.5	/experiments/AOT/AOT_stimuli/rescaled_final/0542_fw.mp4	0.0	776.2572829723358	1.0084621906280518
29	681.9550521373749	movie	1		244	27.0	2.5	/experiments/AOT/AOT_stimuli/rescaled_final/0542_fw.mp4	0.0	777.2657451629639	2.4915618896484375
29	682.3298380374908	pulse	1	t		27.0	2.5	/experiments/AOT/AOT_stimuli/rescaled_final/0542_fw.mp4	0.0	777.6405310630798	
29	683.9301841259003	pulse	1	t		27.0	2.5	/experiments/AOT/AOT_stimuli/rescaled_final/0542_fw.mp4	0.0	779.2408771514893	
29	684.4466140270233	fix_post	2		12	27.0	2.5	/experiments/AOT/AOT_stimuli/rescaled_final/0542_fw.mp4	0.0	779.7573070526123	0.10000300407409668
30	684.5466170310974	fix_pre	0		119	28.0	2.5	/experiments/AOT/AOT_stimuli/rescaled_final/1059_fw.mp4	0.0	779.8573100566864	0.9916770458221436
30	685.5300691127777	pulse	0	t		28.0	2.5	/experiments/AOT/AOT_stimuli/rescaled_final/1059_fw.mp4	0.0	780.8407621383667	
30	685.5382940769196	movie	1		243	28.0	2.5	/experiments/AOT/AOT_stimuli/rescaled_final/1059_fw.mp4	0.0	780.8489871025085	2.507935047149658
30	687.1298310756683	pulse	1	t		28.0	2.5	/experiments/AOT/AOT_stimuli/rescaled_final/1059_fw.mp4	0.0	782.4405241012573	
30	688.0462291240692	fix_post	2		12	28.0	2.5	/experiments/AOT/AOT_stimuli/rescaled_final/1059_fw.mp4	0.0	783.3569221496582	0.10042595863342285
31	688.1466550827026	fix_pre	0		120	29.0	2.5	/experiments/AOT/AOT_stimuli/rescaled_final/2080_rv.mp4	0.0	783.4573481082916	0.9999909400939941
31	688.7302041053772	pulse	0	t		29.0	2.5	/experiments/AOT/AOT_stimuli/rescaled_final/2080_rv.mp4	0.0	784.0408971309662	
31	689.1466460227966	movie	1		242	29.0	2.5	/experiments/AOT/AOT_stimuli/rescaled_final/2080_rv.mp4	0.0	784.4573390483856	2.5000081062316895
31	690.3302340507507	pulse	1	t		29.0	2.5	/experiments/AOT/AOT_stimuli/rescaled_final/2080_rv.mp4	0.0	785.6409270763397	
31	691.6466541290283	fix_post	2		12	29.0	2.5	/experiments/AOT/AOT_stimuli/rescaled_final/2080_rv.mp4	0.0	786.9573471546173	0.09991884231567383
32	691.746572971344	fix_pre	0		120	30.0	2.5	/experiments/AOT/AOT_stimuli/rescaled_final/0453_fw.mp4	0.0	787.057265996933	1.0000741481781006
32	691.9301121234894	pulse	0	t		30.0	2.5	/experiments/AOT/AOT_stimuli/rescaled_final/0453_fw.mp4	0.0	787.2408051490784	
32	692.7466471195221	movie	1		243	30.0	2.5	/experiments/AOT/AOT_stimuli/rescaled_final/0453_fw.mp4	0.0	788.0573401451111	2.4999279975891113
32	693.5300290584564	pulse	1	t		30.0	2.5	/experiments/AOT/AOT_stimuli/rescaled_final/0453_fw.mp4	0.0	788.8407220840454	
32	695.1287319660187	pulse	1	t		30.0	2.5	/experiments/AOT/AOT_stimuli/rescaled_final/0453_fw.mp4	0.0	790.4394249916077	
32	695.2465751171112	fix_post	2		12	30.0	2.5	/experiments/AOT/AOT_stimuli/rescaled_final/0453_fw.mp4	0.0	790.5572681427002	0.10003399848937988
33	695.3466091156006	fix_pre	0		120	31.0	2.5	/experiments/AOT/AOT_stimuli/rescaled_final/2052_fw.mp4	0.0	790.6573021411896	1.0000629425048828
33	696.3466720581055	movie	1		243	31.0	2.5	/experiments/AOT/AOT_stimuli/rescaled_final/2052_fw.mp4	0.0	791.6573650836945	2.500067949295044
33	696.7301299571991	pulse	1	t		31.0	2.5	/experiments/AOT/AOT_stimuli/rescaled_final/2052_fw.mp4	0.0	792.0408229827881	
33	698.3300559520721	pulse	1	t		31.0	2.5	/experiments/AOT/AOT_stimuli/rescaled_final/2052_fw.mp4	0.0	793.6407489776611	
33	698.8467400074005	fix_post	2		12	31.0	2.5	/experiments/AOT/AOT_stimuli/rescaled_final/2052_fw.mp4	0.0	794.1574330329895	0.0997769832611084
34	698.9465169906616	fix_pre	0		119	32.0	2.5	/experiments/AOT/AOT_stimuli/rescaled_final/1184_rv.mp4	0.0	794.2572100162506	0.9917149543762207
34	699.9301450252533	pulse	0	t		32.0	2.5	/experiments/AOT/AOT_stimuli/rescaled_final/1184_rv.mp4	0.0	795.2408380508423	
34	699.9382319450378	movie	1		247	32.0	2.5	/experiments/AOT/AOT_stimuli/rescaled_final/1184_rv.mp4	0.0	795.2489249706268	2.5080201625823975
34	701.529629945755	pulse	1	t		32.0	2.5	/experiments/AOT/AOT_stimuli/rescaled_final/1184_rv.mp4	0.0	796.840322971344	
34	702.4462521076202	fix_post	2		10	32.0	2.5	/experiments/AOT/AOT_stimuli/rescaled_final/1184_rv.mp4	0.0	797.7569451332092	0.10036683082580566
35	702.546618938446	fix_pre	0		120	33.0	2.5	blank	1.0	797.857311964035	0.9997591972351074
35	703.1297760009766	pulse	0	t		33.0	2.5	blank	1.0	798.4404690265656	
35	703.5463781356812	movie	1		300	33.0	2.5	blank	1.0	798.8570711612701	2.50034499168396
35	704.7300131320953	pulse	1	t		33.0	2.5	blank	1.0	800.0407061576843	
35	706.0467231273651	fix_post	2		12	33.0	2.5	blank	1.0	801.3574161529541	0.099822998046875
36	706.146546125412	fix_pre	0		120	34.0	2.5	/experiments/AOT/AOT_stimuli/rescaled_final/2052_rv.mp4	0.0	801.457239151001	1.0000219345092773
36	706.3300120830536	pulse	0	t		34.0	2.5	/experiments/AOT/AOT_stimuli/rescaled_final/2052_rv.mp4	0.0	801.6407051086426	
36	707.1465680599213	movie	1		243	34.0	2.5	/experiments/AOT/AOT_stimuli/rescaled_final/2052_rv.mp4	0.0	802.4572610855103	2.4999780654907227
36	707.9300091266632	pulse	1	t		34.0	2.5	/experiments/AOT/AOT_stimuli/rescaled_final/2052_rv.mp4	0.0	803.2407021522522	
36	709.528538942337	pulse	1	t		34.0	2.5	/experiments/AOT/AOT_stimuli/rescaled_final/2052_rv.mp4	0.0	804.839231967926	
36	709.646546125412	fix_post	2		12	34.0	2.5	/experiments/AOT/AOT_stimuli/rescaled_final/2052_rv.mp4	0.0	804.957239151001	0.10000300407409668
37	709.7465491294861	fix_pre	0		120	35.0	2.5	/experiments/AOT/AOT_stimuli/rescaled_final/1524_rv.mp4	0.0	805.0572421550751	0.9999809265136719
37	710.7465300559998	movie	1		244	35.0	2.5	/experiments/AOT/AOT_stimuli/rescaled_final/1524_rv.mp4	0.0	806.0572230815887	2.499943971633911
37	711.130124092102	pulse	1	t		35.0	2.5	/experiments/AOT/AOT_stimuli/rescaled_final/1524_rv.mp4	0.0	806.440817117691	
37	712.7300109863281	pulse	1	t		35.0	2.5	/experiments/AOT/AOT_stimuli/rescaled_final/1524_rv.mp4	0.0	808.0407040119171	
37	713.2464740276337	fix_post	2		12	35.0	2.5	/experiments/AOT/AOT_stimuli/rescaled_final/1524_rv.mp4	0.0	808.5571670532227	0.10003900527954102
38	713.3465130329132	fix_pre	0		119	36.0	2.5	/experiments/AOT/AOT_stimuli/rescaled_final/1731_rv.mp4	0.0	808.6572060585022	0.9916470050811768
38	714.3299541473389	pulse	0	t		36.0	2.5	/experiments/AOT/AOT_stimuli/rescaled_final/1731_rv.mp4	0.0	809.6406471729279	
38	714.3381600379944	movie	1		244	36.0	2.5	/experiments/AOT/AOT_stimuli/rescaled_final/1731_rv.mp4	0.0	809.6488530635834	2.508431911468506
38	715.9295310974121	pulse	1	t		36.0	2.5	/experiments/AOT/AOT_stimuli/rescaled_final/1731_rv.mp4	0.0	811.2402241230011	
38	716.8465919494629	fix_post	2		12	36.0	2.5	/experiments/AOT/AOT_stimuli/rescaled_final/1731_rv.mp4	0.0	812.1572849750519	0.0998392105102539
39	716.9464311599731	fix_pre	0		120	37.0	2.5	/experiments/AOT/AOT_stimuli/rescaled_final/1421_fw.mp4	0.0	812.2571241855621	1.0001378059387207
39	717.5299911499023	pulse	0	t		37.0	2.5	/experiments/AOT/AOT_stimuli/rescaled_final/1421_fw.mp4	0.0	812.8406841754913	
39	717.9465689659119	movie	1		245	37.0	2.5	/experiments/AOT/AOT_stimuli/rescaled_final/1421_fw.mp4	0.0	813.2572619915009	2.4999611377716064
39	719.1300640106201	pulse	1	t		37.0	2.5	/experiments/AOT/AOT_stimuli/rescaled_final/1421_fw.mp4	0.0	814.4407570362091	
39	720.4465301036835	fix_post	2		12	37.0	2.5	/experiments/AOT/AOT_stimuli/rescaled_final/1421_fw.mp4	0.0	815.7572231292725	0.09994196891784668
40	720.5464720726013	fix_pre	0		120	38.0	2.5	/experiments/AOT/AOT_stimuli/rescaled_final/1698_rv.mp4	0.0	815.8571650981903	1.0000019073486328
40	720.729994058609	pulse	0	t		38.0	2.5	/experiments/AOT/AOT_stimuli/rescaled_final/1698_rv.mp4	0.0	816.040687084198	
40	721.54647397995	movie	1		245	38.0	2.5	/experiments/AOT/AOT_stimuli/rescaled_final/1698_rv.mp4	0.0	816.8571670055389	2.500063180923462
40	722.3299579620361	pulse	1	t		38.0	2.5	/experiments/AOT/AOT_stimuli/rescaled_final/1698_rv.mp4	0.0	817.6406509876251	
40	723.9283330440521	pulse	1	t		38.0	2.5	/experiments/AOT/AOT_stimuli/rescaled_final/1698_rv.mp4	0.0	819.2390260696411	
40	724.0465371608734	fix_post	2		12	38.0	2.5	/experiments/AOT/AOT_stimuli/rescaled_final/1698_rv.mp4	0.0	819.3572301864624	0.09994983673095703
41	724.1464869976044	fix_pre	0		120	39.0	2.5	/experiments/AOT/AOT_stimuli/rescaled_final/1471_fw.mp4	0.0	819.4571800231934	1.0000181198120117
41	725.1465051174164	movie	1		243	39.0	2.5	/experiments/AOT/AOT_stimuli/rescaled_final/1471_fw.mp4	0.0	820.4571981430054	2.4999728202819824
41	725.5297379493713	pulse	1	t		39.0	2.5	/experiments/AOT/AOT_stimuli/rescaled_final/1471_fw.mp4	0.0	820.8404309749603	
41	727.1299059391022	pulse	1	t		39.0	2.5	/experiments/AOT/AOT_stimuli/rescaled_final/1471_fw.mp4	0.0	822.4405989646912	
41	727.6464779376984	fix_post	2		12	39.0	2.5	/experiments/AOT/AOT_stimuli/rescaled_final/1471_fw.mp4	0.0	822.9571709632874	0.09993600845336914
42	727.7464139461517	fix_pre	0		119	40.0	2.5	/experiments/AOT/AOT_stimuli/rescaled_final/1529_fw.mp4	0.0	823.0571069717407	0.9916260242462158
42	728.7299370765686	pulse	0	t		40.0	2.5	/experiments/AOT/AOT_stimuli/rescaled_final/1529_fw.mp4	0.0	824.0406301021576	
42	728.738039970398	movie	1		243	40.0	2.5	/experiments/AOT/AOT_stimuli/rescaled_final/1529_fw.mp4	0.0	824.0487329959869	2.5083250999450684
42	730.3298890590668	pulse	1	t		40.0	2.5	/experiments/AOT/AOT_stimuli/rescaled_final/1529_fw.mp4	0.0	825.6405820846558	
42	731.246365070343	fix_post	2		12	40.0	2.5	/experiments/AOT/AOT_stimuli/rescaled_final/1529_fw.mp4	0.0	826.557058095932	0.10006189346313477
43	731.3464269638062	fix_pre	0		120	41.0	2.5	/experiments/AOT/AOT_stimuli/rescaled_final/0294_rv.mp4	0.0	826.6571199893951	1.0000309944152832
43	731.9299020767212	pulse	0	t		41.0	2.5	/experiments/AOT/AOT_stimuli/rescaled_final/0294_rv.mp4	0.0	827.2405951023102	
43	732.3464579582214	movie	1		243	41.0	2.5	/experiments/AOT/AOT_stimuli/rescaled_final/0294_rv.mp4	0.0	827.6571509838104	2.4998631477355957
43	733.529981136322	pulse	1	t		41.0	2.5	/experiments/AOT/AOT_stimuli/rescaled_final/0294_rv.mp4	0.0	828.840674161911	
43	734.846321105957	fix_post	2		12	41.0	2.5	/experiments/AOT/AOT_stimuli/rescaled_final/0294_rv.mp4	0.0	830.157014131546	0.10015487670898438
44	734.946475982666	fix_pre	0		120	42.0	2.5	blank	1.0	830.257169008255	0.9997889995574951
44	735.1299681663513	pulse	0	t		42.0	2.5	blank	1.0	830.4406611919403	
44	735.9462649822235	movie	1		300	42.0	2.5	blank	1.0	831.2569580078125	2.500077962875366
44	736.7299561500549	pulse	1	t		42.0	2.5	blank	1.0	832.0406491756439	
44	738.3298139572144	pulse	1	t		42.0	2.5	blank	1.0	833.6405069828033	
44	738.4463429450989	fix_post	2		12	42.0	2.5	blank	1.0	833.7570359706879	0.09998512268066406
45	738.5463280677795	fix_pre	0		120	43.0	2.5	/experiments/AOT/AOT_stimuli/rescaled_final/0049_rv.mp4	0.0	833.8570210933685	1.0000269412994385
45	739.546355009079	movie	1		244	43.0	2.5	/experiments/AOT/AOT_stimuli/rescaled_final/0049_rv.mp4	0.0	834.857048034668	2.5001189708709717
45	739.9294061660767	pulse	1	t		43.0	2.5	/experiments/AOT/AOT_stimuli/rescaled_final/0049_rv.mp4	0.0	835.2400991916656	
45	741.5298759937286	pulse	1	t		43.0	2.5	/experiments/AOT/AOT_stimuli/rescaled_final/0049_rv.mp4	0.0	836.8405690193176	
45	742.04647397995	fix_post	2		12	43.0	2.5	/experiments/AOT/AOT_stimuli/rescaled_final/0049_rv.mp4	0.0	837.3571670055389	0.09983515739440918
46	742.1463091373444	fix_pre	0		119	44.0	2.5	/experiments/AOT/AOT_stimuli/rescaled_final/1456_rv.mp4	0.0	837.4570021629333	0.9917638301849365
46	743.129937171936	pulse	0	t		44.0	2.5	/experiments/AOT/AOT_stimuli/rescaled_final/1456_rv.mp4	0.0	838.440630197525	
46	743.1380729675293	movie	1		244	44.0	2.5	/experiments/AOT/AOT_stimuli/rescaled_final/1456_rv.mp4	0.0	838.4487659931183	2.5082600116729736
46	744.7298550605774	pulse	1	t		44.0	2.5	/experiments/AOT/AOT_stimuli/rescaled_final/1456_rv.mp4	0.0	840.0405480861664	
46	745.6463329792023	fix_post	2		12	44.0	2.5	/experiments/AOT/AOT_stimuli/rescaled_final/1456_rv.mp4	0.0	840.9570260047913	0.09997797012329102
47	745.7463109493256	fix_pre	0		120	45.0	2.5	/experiments/AOT/AOT_stimuli/rescaled_final/1887_fw.mp4	0.0	841.0570039749146	1.0000550746917725
47	746.329882144928	pulse	0	t		45.0	2.5	/experiments/AOT/AOT_stimuli/rescaled_final/1887_fw.mp4	0.0	841.640575170517	
47	746.7463660240173	movie	1		244	45.0	2.5	/experiments/AOT/AOT_stimuli/rescaled_final/1887_fw.mp4	0.0	842.0570590496063	2.499951124191284
47	747.9299409389496	pulse	1	t		45.0	2.5	/experiments/AOT/AOT_stimuli/rescaled_final/1887_fw.mp4	0.0	843.2406339645386	
47	749.2463171482086	fix_post	2		12	45.0	2.5	/experiments/AOT/AOT_stimuli/rescaled_final/1887_fw.mp4	0.0	844.5570101737976	0.09993791580200195
48	749.3462550640106	fix_pre	0		120	46.0	2.5	/experiments/AOT/AOT_stimuli/rescaled_final/1618_rv.mp4	0.0	844.6569480895996	1.0001060962677002
48	749.5298540592194	pulse	0	t		46.0	2.5	/experiments/AOT/AOT_stimuli/rescaled_final/1618_rv.mp4	0.0	844.8405470848083	
48	750.3463611602783	movie	1		246	46.0	2.5	/experiments/AOT/AOT_stimuli/rescaled_final/1618_rv.mp4	0.0	845.6570541858673	2.4999189376831055
48	751.1298489570618	pulse	1	t		46.0	2.5	/experiments/AOT/AOT_stimuli/rescaled_final/1618_rv.mp4	0.0	846.4405419826508	
48	752.7294321060181	pulse	1	t		46.0	2.5	/experiments/AOT/AOT_stimuli/rescaled_final/1618_rv.mp4	0.0	848.040125131607	
48	752.8462800979614	fix_post	2		12	46.0	2.5	/experiments/AOT/AOT_stimuli/rescaled_final/1618_rv.mp4	0.0	848.1569731235504	0.10000896453857422
49	752.9462890625	fix_pre	0		120	47.0	2.5	/experiments/AOT/AOT_stimuli/rescaled_final/2167_fw.mp4	0.0	848.256982088089	1.0
49	753.9462890625	movie	1		242	47.0	2.5	/experiments/AOT/AOT_stimuli/rescaled_final/2167_fw.mp4	0.0	849.256982088089	2.500001907348633
49	754.3294630050659	pulse	1	t		47.0	2.5	/experiments/AOT/AOT_stimuli/rescaled_final/2167_fw.mp4	0.0	849.6401560306549	
49	755.9298520088196	pulse	1	t		47.0	2.5	/experiments/AOT/AOT_stimuli/rescaled_final/2167_fw.mp4	0.0	851.2405450344086	
49	756.4462909698486	fix_post	2		12	47.0	2.5	/experiments/AOT/AOT_stimuli/rescaled_final/2167_fw.mp4	0.0	851.7569839954376	0.09998512268066406
50	756.5462760925293	fix_pre	0		119	48.0	2.5	blank	1.0	851.8569691181183	0.9912369251251221
50	757.5293600559235	pulse	0	t		48.0	2.5	blank	1.0	852.8400530815125	
50	757.5375130176544	movie	1		301	48.0	2.5	blank	1.0	852.8482060432434	2.509045124053955
50	759.1300461292267	pulse	1	t		48.0	2.5	blank	1.0	854.4407391548157	
50	760.0465581417084	fix_post	2		12	48.0	2.5	blank	1.0	855.3572511672974	0.10007691383361816
51	760.146635055542	fix_pre	0		120	49.0	2.5	/experiments/AOT/AOT_stimuli/rescaled_final/0958_rv.mp4	0.0	855.457328081131	0.9996840953826904
51	760.7297530174255	pulse	0	t		49.0	2.5	/experiments/AOT/AOT_stimuli/rescaled_final/0958_rv.mp4	0.0	856.0404460430145	
51	761.1463191509247	movie	1		243	49.0	2.5	/experiments/AOT/AOT_stimuli/rescaled_final/0958_rv.mp4	0.0	856.4570121765137	2.500123977661133
51	762.3297929763794	pulse	1	t		49.0	2.5	/experiments/AOT/AOT_stimuli/rescaled_final/0958_rv.mp4	0.0	857.6404860019684	
51	763.6464431285858	fix_post	2		12	49.0	2.5	/experiments/AOT/AOT_stimuli/rescaled_final/0958_rv.mp4	0.0	858.9571361541748	0.09982490539550781
52	763.7462680339813	fix_pre	0		120	50.0	2.5	/experiments/AOT/AOT_stimuli/rescaled_final/1574_fw.mp4	0.0	859.0569610595703	1.0000860691070557
52	763.9297511577606	pulse	0	t		50.0	2.5	/experiments/AOT/AOT_stimuli/rescaled_final/1574_fw.mp4	0.0	859.2404441833496	
52	764.7463541030884	movie	1		245	50.0	2.5	/experiments/AOT/AOT_stimuli/rescaled_final/1574_fw.mp4	0.0	860.0570471286774	2.499876022338867
52	765.5297329425812	pulse	1	t		50.0	2.5	/experiments/AOT/AOT_stimuli/rescaled_final/1574_fw.mp4	0.0	860.8404259681702	
52	767.1280720233917	pulse	1	t		50.0	2.5	/experiments/AOT/AOT_stimuli/rescaled_final/1574_fw.mp4	0.0	862.4387650489807	
52	767.2462301254272	fix_post	2		12	50.0	2.5	/experiments/AOT/AOT_stimuli/rescaled_final/1574_fw.mp4	0.0	862.5569231510162	0.10000991821289062
53	767.3462400436401	fix_pre	0		120	51.0	2.5	/experiments/AOT/AOT_stimuli/rescaled_final/2022_fw.mp4	0.0	862.6569330692291	0.9999549388885498
53	768.3461949825287	movie	1		246	51.0	2.5	/experiments/AOT/AOT_stimuli/rescaled_final/2022_fw.mp4	0.0	863.6568880081177	2.4999921321868896
53	768.7292830944061	pulse	1	t		51.0	2.5	/experiments/AOT/AOT_stimuli/rescaled_final/2022_fw.mp4	0.0	864.0399761199951	
53	770.3297340869904	pulse	1	t		51.0	2.5	/experiments/AOT/AOT_stimuli/rescaled_final/2022_fw.mp4	0.0	865.6404271125793	
53	770.8461871147156	fix_post	2		12	51.0	2.5	/experiments/AOT/AOT_stimuli/rescaled_final/2022_fw.mp4	0.0	866.1568801403046	0.10000395774841309
54	770.946191072464	fix_pre	0		119	52.0	2.5	/experiments/AOT/AOT_stimuli/rescaled_final/0182_rv.mp4	0.0	866.256884098053	0.9916820526123047
54	771.929722070694	pulse	0	t		52.0	2.5	/experiments/AOT/AOT_stimuli/rescaled_final/0182_rv.mp4	0.0	867.240415096283	
54	771.9378731250763	movie	1		245	52.0	2.5	/experiments/AOT/AOT_stimuli/rescaled_final/0182_rv.mp4	0.0	867.2485661506653	2.5082850456237793
54	773.5291650295258	pulse	1	t		52.0	2.5	/experiments/AOT/AOT_stimuli/rescaled_final/0182_rv.mp4	0.0	868.8398580551147	
54	774.4461581707001	fix_post	2		12	52.0	2.5	/experiments/AOT/AOT_stimuli/rescaled_final/0182_rv.mp4	0.0	869.7568511962891	0.09999990463256836
55	774.5461580753326	fix_pre	0		120	53.0	2.5	/experiments/AOT/AOT_stimuli/rescaled_final/1245_fw.mp4	0.0	869.8568511009216	1.0000460147857666
55	775.1297130584717	pulse	0	t		53.0	2.5	/experiments/AOT/AOT_stimuli/rescaled_final/1245_fw.mp4	0.0	870.4404060840607	
55	775.5462040901184	movie	1		242	53.0	2.5	/experiments/AOT/AOT_stimuli/rescaled_final/1245_fw.mp4	0.0	870.8568971157074	2.499940872192383
55	776.7297661304474	pulse	1	t		53.0	2.5	/experiments/AOT/AOT_stimuli/rescaled_final/1245_fw.mp4	0.0	872.0404591560364	
55	778.0461449623108	fix_post	2		12	53.0	2.5	/experiments/AOT/AOT_stimuli/rescaled_final/1245_fw.mp4	0.0	873.3568379878998	0.10004019737243652
56	778.1461851596832	fix_pre	0		120	54.0	2.5	/experiments/AOT/AOT_stimuli/rescaled_final/1733_fw.mp4	0.0	873.4568781852722	0.9999499320983887
56	778.3297250270844	pulse	0	t		54.0	2.5	/experiments/AOT/AOT_stimuli/rescaled_final/1733_fw.mp4	0.0	873.6404180526733	
56	779.1461350917816	movie	1		242	54.0	2.5	/experiments/AOT/AOT_stimuli/rescaled_final/1733_fw.mp4	0.0	874.4568281173706	2.5000698566436768
56	779.9296519756317	pulse	1	t		54.0	2.5	/experiments/AOT/AOT_stimuli/rescaled_final/1733_fw.mp4	0.0	875.2403450012207	
56	781.5279719829559	pulse	1	t		54.0	2.5	/experiments/AOT/AOT_stimuli/rescaled_final/1733_fw.mp4	0.0	876.8386650085449	
56	781.6462049484253	fix_post	2		12	54.0	2.5	/experiments/AOT/AOT_stimuli/rescaled_final/1733_fw.mp4	0.0	876.9568979740143	0.09988999366760254
57	781.7460949420929	fix_pre	0		120	55.0	2.5	blank	1.0	877.0567879676819	1.000054121017456
57	782.7461490631104	movie	1		300	55.0	2.5	blank	1.0	878.0568420886993	2.4999001026153564
57	783.1296560764313	pulse	1	t		55.0	2.5	blank	1.0	878.4403491020203	
57	784.7296571731567	pulse	1	t		55.0	2.5	blank	1.0	880.0403501987457	
57	785.2460491657257	fix_post	2		12	55.0	2.5	blank	1.0	880.5567421913147	0.10010600090026855
58	785.346155166626	fix_pre	0		119	56.0	2.5	/experiments/AOT/AOT_stimuli/rescaled_final/0906_rv.mp4	0.0	880.656848192215	0.9916529655456543
58	786.3296539783478	pulse	0	t		56.0	2.5	/experiments/AOT/AOT_stimuli/rescaled_final/0906_rv.mp4	0.0	881.6403470039368	
58	786.3378081321716	movie	1		246	56.0	2.5	/experiments/AOT/AOT_stimuli/rescaled_final/0906_rv.mp4	0.0	881.6485011577606	2.5082318782806396
58	787.9291200637817	pulse	1	t		56.0	2.5	/experiments/AOT/AOT_stimuli/rescaled_final/0906_rv.mp4	0.0	883.2398130893707	
58	788.8460400104523	fix_post	2		12	56.0	2.5	/experiments/AOT/AOT_stimuli/rescaled_final/0906_rv.mp4	0.0	884.1567330360413	0.10001897811889648
59	788.9460589885712	fix_pre	0		120	57.0	2.5	/experiments/AOT/AOT_stimuli/rescaled_final/1893_fw.mp4	0.0	884.2567520141602	1.0000059604644775
59	789.5296249389648	pulse	0	t		57.0	2.5	/experiments/AOT/AOT_stimuli/rescaled_final/1893_fw.mp4	0.0	884.8403179645538	
59	789.9460649490356	movie	1		245	57.0	2.5	/experiments/AOT/AOT_stimuli/rescaled_final/1893_fw.mp4	0.0	885.2567579746246	2.5000030994415283
59	791.1296920776367	pulse	1	t		57.0	2.5	/experiments/AOT/AOT_stimuli/rescaled_final/1893_fw.mp4	0.0	886.4403851032257	
59	792.4460680484772	fix_post	2		12	57.0	2.5	/experiments/AOT/AOT_stimuli/rescaled_final/1893_fw.mp4	0.0	887.7567610740662	0.09998893737792969
60	792.5460569858551	fix_pre	0		120	58.0	2.5	/experiments/AOT/AOT_stimuli/rescaled_final/0542_rv.mp4	0.0	887.8567500114441	1.000082015991211
60	792.7295651435852	pulse	0	t		58.0	2.5	/experiments/AOT/AOT_stimuli/rescaled_final/0542_rv.mp4	0.0	888.0402581691742	
60	793.5461390018463	movie	1		247	58.0	2.5	/experiments/AOT/AOT_stimuli/rescaled_final/0542_rv.mp4	0.0	888.8568320274353	2.4999260902404785
60	794.3295941352844	pulse	1	t		58.0	2.5	/experiments/AOT/AOT_stimuli/rescaled_final/0542_rv.mp4	0.0	889.6402871608734	
60	795.929582118988	pulse	1	t		58.0	2.5	/experiments/AOT/AOT_stimuli/rescaled_final/0542_rv.mp4	0.0	891.240275144577	
60	796.0460650920868	fix_post	2		12	58.0	2.5	/experiments/AOT/AOT_stimuli/rescaled_final/0542_rv.mp4	0.0	891.3567581176758	0.09994387626647949
61	796.1460089683533	fix_pre	0		120	59.0	2.5	/experiments/AOT/AOT_stimuli/rescaled_final/0243_rv.mp4	0.0	891.4567019939423	1.0001201629638672
61	797.1461291313171	movie	1		245	59.0	2.5	/experiments/AOT/AOT_stimuli/rescaled_final/0243_rv.mp4	0.0	892.4568221569061	2.4999289512634277
61	797.5293040275574	pulse	1	t		59.0	2.5	/experiments/AOT/AOT_stimuli/rescaled_final/0243_rv.mp4	0.0	892.8399970531464	
61	799.1295940876007	pulse	1	t		59.0	2.5	/experiments/AOT/AOT_stimuli/rescaled_final/0243_rv.mp4	0.0	894.4402871131897	
61	799.6460580825806	fix_post	2		12	59.0	2.5	/experiments/AOT/AOT_stimuli/rescaled_final/0243_rv.mp4	0.0	894.9567511081696	0.09999394416809082
62	799.7460520267487	fix_pre	0		119	60.0	2.5	/experiments/AOT/AOT_stimuli/rescaled_final/1074_rv.mp4	0.0	895.0567450523376	0.9917080402374268
62	800.7295300960541	pulse	0	t		60.0	2.5	/experiments/AOT/AOT_stimuli/rescaled_final/1074_rv.mp4	0.0	896.0402231216431	
62	800.7377600669861	movie	1		244	60.0	2.5	/experiments/AOT/AOT_stimuli/rescaled_final/1074_rv.mp4	0.0	896.0484530925751	2.5082900524139404
62	802.3290569782257	pulse	1	t		60.0	2.5	/experiments/AOT/AOT_stimuli/rescaled_final/1074_rv.mp4	0.0	897.6397500038147	
62	803.2460501194	fix_post	2		12	60.0	2.5	/experiments/AOT/AOT_stimuli/rescaled_final/1074_rv.mp4	0.0	898.556743144989	0.10000801086425781
63	803.3460581302643	fix_pre	0		120	61.0	2.5	/experiments/AOT/AOT_stimuli/rescaled_final/0346_rv.mp4	0.0	898.6567511558533	0.9999098777770996
63	803.929624080658	pulse	0	t		61.0	2.5	/experiments/AOT/AOT_stimuli/rescaled_final/0346_rv.mp4	0.0	899.240317106247	
63	804.3459680080414	movie	1		243	61.0	2.5	/experiments/AOT/AOT_stimuli/rescaled_final/0346_rv.mp4	0.0	899.6566610336304	2.5000901222229004
63	805.5295209884644	pulse	1	t		61.0	2.5	/experiments/AOT/AOT_stimuli/rescaled_final/0346_rv.mp4	0.0	900.8402140140533	
63	806.8460581302643	fix_post	2		12	61.0	2.5	/experiments/AOT/AOT_stimuli/rescaled_final/0346_rv.mp4	0.0	902.1567511558533	0.1000218391418457
64	806.9460799694061	fix_pre	0		120	62.0	2.5	blank	1.0	902.2567729949951	0.9999570846557617
64	807.1295640468597	pulse	0	t		62.0	2.5	blank	1.0	902.4402570724487	
64	807.9460370540619	movie	1		300	62.0	2.5	blank	1.0	903.2567300796509	2.4999608993530273
64	808.729562997818	pulse	1	t		62.0	2.5	blank	1.0	904.040256023407	
64	810.3295650482178	pulse	1	t		62.0	2.5	blank	1.0	905.6402580738068	
64	810.4459979534149	fix_post	2		12	62.0	2.5	blank	1.0	905.7566909790039	0.09998202323913574
65	810.545979976654	fix_pre	0		120	63.0	2.5	/experiments/AOT/AOT_stimuli/rescaled_final/0946_fw.mp4	0.0	905.856673002243	0.9999749660491943
65	811.5459549427032	movie	1		244	63.0	2.5	/experiments/AOT/AOT_stimuli/rescaled_final/0946_fw.mp4	0.0	906.8566479682922	2.49971604347229
65	811.9296290874481	pulse	1	t		63.0	2.5	/experiments/AOT/AOT_stimuli/rescaled_final/0946_fw.mp4	0.0	907.2403221130371	
65	813.5290269851685	pulse	1	t		63.0	2.5	/experiments/AOT/AOT_stimuli/rescaled_final/0946_fw.mp4	0.0	908.8397200107574	
65	814.0456709861755	fix_post	2		12	63.0	2.5	/experiments/AOT/AOT_stimuli/rescaled_final/0946_fw.mp4	0.0	909.3563640117645	0.10038518905639648
66	814.1460561752319	fix_pre	0		119	64.0	2.5	/experiments/AOT/AOT_stimuli/rescaled_final/0077_fw.mp4	0.0	909.4567492008209	0.9913229942321777
66	815.1297211647034	pulse	0	t		64.0	2.5	/experiments/AOT/AOT_stimuli/rescaled_final/0077_fw.mp4	0.0	910.4404141902924	
66	815.1373791694641	movie	1		245	64.0	2.5	/experiments/AOT/AOT_stimuli/rescaled_final/0077_fw.mp4	0.0	910.4480721950531	2.5086779594421387
66	816.7295260429382	pulse	1	t		64.0	2.5	/experiments/AOT/AOT_stimuli/rescaled_final/0077_fw.mp4	0.0	912.0402190685272	
66	817.6460571289062	fix_post	2		12	64.0	2.5	/experiments/AOT/AOT_stimuli/rescaled_final/0077_fw.mp4	0.0	912.9567501544952	0.09999394416809082
67	817.7460510730743	fix_pre	0		120	65.0	2.5	/experiments/AOT/AOT_stimuli/rescaled_final/1353_rv.mp4	0.0	913.0567440986633	0.9999790191650391
67	818.3294539451599	pulse	0	t		65.0	2.5	/experiments/AOT/AOT_stimuli/rescaled_final/1353_rv.mp4	0.0	913.6401469707489	
67	818.7460300922394	movie	1		245	65.0	2.5	/experiments/AOT/AOT_stimuli/rescaled_final/1353_rv.mp4	0.0	914.0567231178284	2.499898910522461
67	819.9295179843903	pulse	1	t		65.0	2.5	/experiments/AOT/AOT_stimuli/rescaled_final/1353_rv.mp4	0.0	915.2402110099792	
67	821.2459290027618	fix_post	2		12	65.0	2.5	/experiments/AOT/AOT_stimuli/rescaled_final/1353_rv.mp4	0.0	916.5566220283508	0.09996914863586426
68	821.3458981513977	fix_pre	0		120	66.0	2.5	/experiments/AOT/AOT_stimuli/rescaled_final/1865_fw.mp4	0.0	916.6565911769867	1.0000519752502441
68	821.5293951034546	pulse	0	t		66.0	2.5	/experiments/AOT/AOT_stimuli/rescaled_final/1865_fw.mp4	0.0	916.8400881290436	
68	822.345950126648	movie	1		242	66.0	2.5	/experiments/AOT/AOT_stimuli/rescaled_final/1865_fw.mp4	0.0	917.6566431522369	2.499994993209839
68	823.129380941391	pulse	1	t		66.0	2.5	/experiments/AOT/AOT_stimuli/rescaled_final/1865_fw.mp4	0.0	918.44007396698	
68	824.7278430461884	pulse	1	t		66.0	2.5	/experiments/AOT/AOT_stimuli/rescaled_final/1865_fw.mp4	0.0	920.0385360717773	
68	824.8459451198578	fix_post	2		12	66.0	2.5	/experiments/AOT/AOT_stimuli/rescaled_final/1865_fw.mp4	0.0	920.1566381454468	0.1000068187713623
69	824.9459519386292	fix_pre	0		120	67.0	2.5	/experiments/AOT/AOT_stimuli/rescaled_final/0198_rv.mp4	0.0	920.2566449642181	1.0000391006469727
69	825.9459910392761	movie	1		244	67.0	2.5	/experiments/AOT/AOT_stimuli/rescaled_final/0198_rv.mp4	0.0	921.2566840648651	2.499946117401123
69	826.329127073288	pulse	1	t		67.0	2.5	/experiments/AOT/AOT_stimuli/rescaled_final/0198_rv.mp4	0.0	921.639820098877	
69	827.9293270111084	pulse	1	t		67.0	2.5	/experiments/AOT/AOT_stimuli/rescaled_final/0198_rv.mp4	0.0	923.2400200366974	
69	828.4459371566772	fix_post	2		12	67.0	2.5	/experiments/AOT/AOT_stimuli/rescaled_final/0198_rv.mp4	0.0	923.7566301822662	0.10001182556152344
70	828.5459489822388	fix_pre	0		119	68.0	2.5	blank	1.0	923.8566420078278	0.9916610717773438
70	829.5293929576874	pulse	0	t		68.0	2.5	blank	1.0	924.8400859832764	
70	829.5376100540161	movie	1		301	68.0	2.5	blank	1.0	924.8483030796051	2.508359909057617
70	831.1293790340424	pulse	1	t		68.0	2.5	blank	1.0	926.4400720596313	
70	832.0459699630737	fix_post	2		12	68.0	2.5	blank	1.0	927.3566629886627	0.09993600845336914
71	832.1459059715271	fix_pre	0		120	69.0	2.5	/experiments/AOT/AOT_stimuli/rescaled_final/0452_fw.mp4	0.0	927.4565989971161	1.0000100135803223
71	832.7293479442596	pulse	0	t		69.0	2.5	/experiments/AOT/AOT_stimuli/rescaled_final/0452_fw.mp4	0.0	928.0400409698486	
71	833.1459159851074	movie	1		244	69.0	2.5	/experiments/AOT/AOT_stimuli/rescaled_final/0452_fw.mp4	0.0	928.4566090106964	2.4996931552886963
71	834.3294341564178	pulse	1	t		69.0	2.5	/experiments/AOT/AOT_stimuli/rescaled_final/0452_fw.mp4	0.0	929.6401271820068	
71	835.6456091403961	fix_post	2		12	69.0	2.5	/experiments/AOT/AOT_stimuli/rescaled_final/0452_fw.mp4	0.0	930.9563021659851	0.10035586357116699
72	835.7459650039673	fix_pre	0		120	70.0	2.5	/experiments/AOT/AOT_stimuli/rescaled_final/1319_fw.mp4	0.0	931.0566580295563	0.9999439716339111
72	835.9296190738678	pulse	0	t		70.0	2.5	/experiments/AOT/AOT_stimuli/rescaled_final/1319_fw.mp4	0.0	931.2403120994568	
72	836.7459089756012	movie	1		245	70.0	2.5	/experiments/AOT/AOT_stimuli/rescaled_final/1319_fw.mp4	0.0	932.0566020011902	2.4999120235443115
72	837.5293660163879	pulse	1	t		70.0	2.5	/experiments/AOT/AOT_stimuli/rescaled_final/1319_fw.mp4	0.0	932.8400590419769	
72	839.1255080699921	pulse	1	t		70.0	2.5	/experiments/AOT/AOT_stimuli/rescaled_final/1319_fw.mp4	0.0	934.436201095581	
72	839.2458209991455	fix_post	2		12	70.0	2.5	/experiments/AOT/AOT_stimuli/rescaled_final/1319_fw.mp4	0.0	934.5565140247345	0.10002017021179199
73	839.3458411693573	fix_pre	0		120	71.0	2.5	/experiments/AOT/AOT_stimuli/rescaled_final/0596_rv.mp4	0.0	934.6565341949463	1.000032901763916
73	840.3458740711212	movie	1		245	71.0	2.5	/experiments/AOT/AOT_stimuli/rescaled_final/0596_rv.mp4	0.0	935.6565670967102	2.5000128746032715
73	840.7291750907898	pulse	1	t		71.0	2.5	/experiments/AOT/AOT_stimuli/rescaled_final/0596_rv.mp4	0.0	936.0398681163788	
73	842.3295450210571	pulse	1	t		71.0	2.5	/experiments/AOT/AOT_stimuli/rescaled_final/0596_rv.mp4	0.0	937.6402380466461	
73	842.8458869457245	fix_post	2		12	71.0	2.5	/experiments/AOT/AOT_stimuli/rescaled_final/0596_rv.mp4	0.0	938.1565799713135	0.1000511646270752
74	842.9459381103516	fix_pre	0		119	72.0	2.5	/experiments/AOT/AOT_stimuli/rescaled_final/0713_fw.mp4	0.0	938.2566311359406	0.9915628433227539
74	843.929279088974	pulse	0	t		72.0	2.5	/experiments/AOT/AOT_stimuli/rescaled_final/0713_fw.mp4	0.0	939.239972114563	
74	843.9375009536743	movie	1		247	72.0	2.5	/experiments/AOT/AOT_stimuli/rescaled_final/0713_fw.mp4	0.0	939.2481939792633	2.5083370208740234
74	845.5290350914001	pulse	1	t		72.0	2.5	/experiments/AOT/AOT_stimuli/rescaled_final/0713_fw.mp4	0.0	940.8397281169891	
74	846.4458379745483	fix_post	2		12	72.0	2.5	/experiments/AOT/AOT_stimuli/rescaled_final/0713_fw.mp4	0.0	941.7565310001373	0.10000109672546387
75	846.5458390712738	fix_pre	0		120	73.0	2.5	/experiments/AOT/AOT_stimuli/rescaled_final/1059_rv.mp4	0.0	941.8565320968628	1.0000650882720947
75	847.1293251514435	pulse	0	t		73.0	2.5	/experiments/AOT/AOT_stimuli/rescaled_final/1059_rv.mp4	0.0	942.4400181770325	
75	847.5459041595459	movie	1		244	73.0	2.5	/experiments/AOT/AOT_stimuli/rescaled_final/1059_rv.mp4	0.0	942.8565971851349	2.49996280670166
75	848.7293789386749	pulse	1	t		73.0	2.5	/experiments/AOT/AOT_stimuli/rescaled_final/1059_rv.mp4	0.0	944.0400719642639	
75	850.0458669662476	fix_post	2		12	73.0	2.5	/experiments/AOT/AOT_stimuli/rescaled_final/1059_rv.mp4	0.0	945.3565599918365	0.09999513626098633
76	850.1458621025085	fix_pre	0		120	74.0	2.5	/experiments/AOT/AOT_stimuli/rescaled_final/1695_fw.mp4	0.0	945.4565551280975	0.999953031539917
76	850.329302072525	pulse	0	t		74.0	2.5	/experiments/AOT/AOT_stimuli/rescaled_final/1695_fw.mp4	0.0	945.639995098114	
76	851.1458151340485	movie	1		242	74.0	2.5	/experiments/AOT/AOT_stimuli/rescaled_final/1695_fw.mp4	0.0	946.4565081596375	2.4999988079071045
76	851.9292759895325	pulse	1	t		74.0	2.5	/experiments/AOT/AOT_stimuli/rescaled_final/1695_fw.mp4	0.0	947.2399690151215	
76	853.5277781486511	pulse	1	t		74.0	2.5	/experiments/AOT/AOT_stimuli/rescaled_final/1695_fw.mp4	0.0	948.8384711742401	
76	853.6458139419556	fix_post	2		12	74.0	2.5	/experiments/AOT/AOT_stimuli/rescaled_final/1695_fw.mp4	0.0	948.9565069675446	0.09994220733642578
77	853.745756149292	fix_pre	0		120	75.0	2.5	blank	1.0	949.056449174881	1.000013828277588
77	854.7457699775696	movie	1		300	75.0	2.5	blank	1.0	950.0564630031586	2.500054121017456
77	855.1293139457703	pulse	1	t		75.0	2.5	blank	1.0	950.4400069713593	
77	856.7293219566345	pulse	1	t		75.0	2.5	blank	1.0	952.0400149822235	
77	857.245824098587	fix_post	2		12	75.0	2.5	blank	1.0	952.556517124176	0.09998893737792969
78	857.345813035965	fix_pre	0		119	76.0	2.5	/experiments/AOT/AOT_stimuli/rescaled_final/0214_rv.mp4	0.0	952.656506061554	0.9916279315948486
78	858.3293030261993	pulse	0	t		76.0	2.5	/experiments/AOT/AOT_stimuli/rescaled_final/0214_rv.mp4	0.0	953.6399960517883	
78	858.3374409675598	movie	1		240	76.0	2.5	/experiments/AOT/AOT_stimuli/rescaled_final/0214_rv.mp4	0.0	953.6481339931488	2.5083770751953125
78	859.9290750026703	pulse	1	t		76.0	2.5	/experiments/AOT/AOT_stimuli/rescaled_final/0214_rv.mp4	0.0	955.2397680282593	
78	860.8458180427551	fix_post	2		12	76.0	2.5	/experiments/AOT/AOT_stimuli/rescaled_final/0214_rv.mp4	0.0	956.1565110683441	0.0999290943145752
79	860.9457471370697	fix_pre	0		120	77.0	2.5	/experiments/AOT/AOT_stimuli/rescaled_final/1496_fw.mp4	0.0	956.2564401626587	1.0001540184020996
79	861.5292811393738	pulse	0	t		77.0	2.5	/experiments/AOT/AOT_stimuli/rescaled_final/1496_fw.mp4	0.0	956.8399741649628	
79	861.9459011554718	movie	1		245	77.0	2.5	/experiments/AOT/AOT_stimuli/rescaled_final/1496_fw.mp4	0.0	957.2565941810608	2.4998459815979004
79	863.1293289661407	pulse	1	t		77.0	2.5	/experiments/AOT/AOT_stimuli/rescaled_final/1496_fw.mp4	0.0	958.4400219917297	
79	864.4457471370697	fix_post	2		12	77.0	2.5	/experiments/AOT/AOT_stimuli/rescaled_final/1496_fw.mp4	0.0	959.7564401626587	0.1000509262084961
80	864.5457980632782	fix_pre	0		120	78.0	2.5	/experiments/AOT/AOT_stimuli/rescaled_final/0876_rv.mp4	0.0	959.8564910888672	1.0000159740447998
80	864.7293210029602	pulse	0	t		78.0	2.5	/experiments/AOT/AOT_stimuli/rescaled_final/0876_rv.mp4	0.0	960.0400140285492	
80	865.545814037323	movie	1		242	78.0	2.5	/experiments/AOT/AOT_stimuli/rescaled_final/0876_rv.mp4	0.0	960.856507062912	2.5000100135803223
80	866.3291611671448	pulse	1	t		78.0	2.5	/experiments/AOT/AOT_stimuli/rescaled_final/0876_rv.mp4	0.0	961.6398541927338	
80	867.9275300502777	pulse	1	t		78.0	2.5	/experiments/AOT/AOT_stimuli/rescaled_final/0876_rv.mp4	0.0	963.2382230758667	
80	868.0458240509033	fix_post	2		12	78.0	2.5	/experiments/AOT/AOT_stimuli/rescaled_final/0876_rv.mp4	0.0	963.3565170764923	0.09992504119873047
81	868.145749092102	fix_pre	0		120	79.0	2.5	/experiments/AOT/AOT_stimuli/rescaled_final/1056_rv.mp4	0.0	963.456442117691	1.0000250339508057
81	869.1457741260529	movie	1		243	79.0	2.5	/experiments/AOT/AOT_stimuli/rescaled_final/1056_rv.mp4	0.0	964.4564671516418	2.4998300075531006
81	869.5284161567688	pulse	1	t		79.0	2.5	/experiments/AOT/AOT_stimuli/rescaled_final/1056_rv.mp4	0.0	964.8391091823578	
81	871.1289710998535	pulse	1	t		79.0	2.5	/experiments/AOT/AOT_stimuli/rescaled_final/1056_rv.mp4	0.0	966.4396641254425	
81	871.645604133606	fix_post	2		12	79.0	2.5	/experiments/AOT/AOT_stimuli/rescaled_final/1056_rv.mp4	0.0	966.956297159195	0.1004178524017334
82	871.7460219860077	fix_pre	0		119	80.0	2.5	/experiments/AOT/AOT_stimuli/rescaled_final/0718_fw.mp4	0.0	967.0567150115967	0.9915080070495605
82	872.7292850017548	pulse	0	t		80.0	2.5	/experiments/AOT/AOT_stimuli/rescaled_final/0718_fw.mp4	0.0	968.0399780273438	
82	872.7375299930573	movie	1		245	80.0	2.5	/experiments/AOT/AOT_stimuli/rescaled_final/0718_fw.mp4	0.0	968.0482230186462	2.5082039833068848
82	874.3289020061493	pulse	1	t		80.0	2.5	/experiments/AOT/AOT_stimuli/rescaled_final/0718_fw.mp4	0.0	969.6395950317383	
82	875.2457339763641	fix_post	2		12	80.0	2.5	/experiments/AOT/AOT_stimuli/rescaled_final/0718_fw.mp4	0.0	970.5564270019531	0.10001301765441895
83	875.3457469940186	fix_pre	0		120	81.0	2.5	/experiments/AOT/AOT_stimuli/rescaled_final/1246_rv.mp4	0.0	970.6564400196075	0.9999840259552002
83	875.9292509555817	pulse	0	t		81.0	2.5	/experiments/AOT/AOT_stimuli/rescaled_final/1246_rv.mp4	0.0	971.2399439811707	
83	876.3457310199738	movie	1		244	81.0	2.5	/experiments/AOT/AOT_stimuli/rescaled_final/1246_rv.mp4	0.0	971.6564240455627	2.4998879432678223
83	877.529186964035	pulse	1	t		81.0	2.5	/experiments/AOT/AOT_stimuli/rescaled_final/1246_rv.mp4	0.0	972.839879989624	
83	878.8456189632416	fix_post	2		12	81.0	2.5	/experiments/AOT/AOT_stimuli/rescaled_final/1246_rv.mp4	0.0	974.1563119888306	0.10009312629699707
84	878.9457120895386	fix_pre	0		120	82.0	2.5	/experiments/AOT/AOT_stimuli/rescaled_final/1505_rv.mp4	0.0	974.2564051151276	0.9999990463256836
84	879.1291091442108	pulse	0	t		82.0	2.5	/experiments/AOT/AOT_stimuli/rescaled_final/1505_rv.mp4	0.0	974.4398021697998	
84	879.9457111358643	movie	1		243	82.0	2.5	/experiments/AOT/AOT_stimuli/rescaled_final/1505_rv.mp4	0.0	975.2564041614532	2.4999489784240723
84	880.7290880680084	pulse	1	t		82.0	2.5	/experiments/AOT/AOT_stimuli/rescaled_final/1505_rv.mp4	0.0	976.0397810935974	
84	882.327614068985	pulse	1	t		82.0	2.5	/experiments/AOT/AOT_stimuli/rescaled_final/1505_rv.mp4	0.0	977.638307094574	
84	882.4456601142883	fix_post	2		12	82.0	2.5	/experiments/AOT/AOT_stimuli/rescaled_final/1505_rv.mp4	0.0	977.7563531398773	0.10003185272216797
85	882.5456919670105	fix_pre	0		120	83.0	2.5	blank	1.0	977.8563849925995	0.9999651908874512
85	883.545657157898	movie	1		300	83.0	2.5	blank	1.0	978.8563501834869	2.5000557899475098
85	883.9290759563446	pulse	1	t		83.0	2.5	blank	1.0	979.2397689819336	
85	885.5291011333466	pulse	1	t		83.0	2.5	blank	1.0	980.8397941589355	
85	886.0457129478455	fix_post	2		12	83.0	2.5	blank	1.0	981.3564059734344	0.09990906715393066
87	886.1456220149994	stim	0		1716					981.4563150405884	14.299997091293335
87	887.1290979385376	pulse	0	t						982.4397909641266	
87	888.729052066803	pulse	0	t						984.039745092392	
87	890.329017162323	pulse	0	t						985.639710187912	
87	891.9290840625763	pulse	0	t						987.2397770881653	
87	893.5289809703827	pulse	0	t						988.8396739959717	
87	895.1290130615234	pulse	0	t						990.4397060871124	
87	896.7289960384369	pulse	0	t						992.0396890640259	
87	898.3289949893951	pulse	0	t						993.6396880149841	
87	899.9290611743927	pulse	0	t						995.2397541999817	
