trial_nr	onset	event_type	phase	response	nr_frames	movie_index	movie_duration	movie_file	blank	onset_abs	duration
0	0.20829415321350098	stim	0		77					91.25607919692993	0.6416668891906738
0	0.8418149948120117	response	0	space						91.88960003852844	
1	0.8499610424041748	stim	0		4982					91.8977460861206	41.53320908546448
1	42.37366700172424	pulse	0	t						133.42145204544067	
1	42.38317012786865	stim	1		1715					133.43095517158508	14.3001229763031
1	43.96502709388733	pulse	1	t						135.01281213760376	
1	45.56517314910889	pulse	1	t						136.61295819282532	
1	47.16546010971069	pulse	1	t						138.21324515342712	
1	48.75808000564575	pulse	1	t						139.80586504936218	
1	50.358304023742676	pulse	1	t						141.4060890674591	
1	51.958528995513916	pulse	1	t						143.00631403923035	
1	53.55879497528076	pulse	1	t						144.6065800189972	
1	55.158194065093994	pulse	1	t						146.20597910881042	
2	56.68329310417175	fix_pre	0		10	0.0	2.5	/experiments/knapen_AOT/AOT_stimuli/rescaled_final/1718_fw.mp4	0.0	147.73107814788818	0.08337283134460449
2	56.758445024490356	pulse	0	t		0.0	2.5	/experiments/knapen_AOT/AOT_stimuli/rescaled_final/1718_fw.mp4	0.0	147.8062300682068	
2	56.76666593551636	movie	1		244	0.0	2.5	/experiments/knapen_AOT/AOT_stimuli/rescaled_final/1718_fw.mp4	0.0	147.8144509792328	2.5086891651153564
2	58.359261989593506	pulse	1	t		0.0	2.5	/experiments/knapen_AOT/AOT_stimuli/rescaled_final/1718_fw.mp4	0.0	149.40704703330994	
2	59.275355100631714	fix_post	2		12	0.0	2.5	/experiments/knapen_AOT/AOT_stimuli/rescaled_final/1718_fw.mp4	0.0	150.32314014434814	0.09999990463256836
3	59.37535500526428	fix_pre	0		120	1.0	2.5	/experiments/knapen_AOT/AOT_stimuli/rescaled_final/1134_rv.mp4	0.0	150.4231400489807	1.0002059936523438
3	59.95921611785889	pulse	0	t		1.0	2.5	/experiments/knapen_AOT/AOT_stimuli/rescaled_final/1134_rv.mp4	0.0	151.00700116157532	
3	60.375560998916626	movie	1		245	1.0	2.5	/experiments/knapen_AOT/AOT_stimuli/rescaled_final/1134_rv.mp4	0.0	151.42334604263306	2.5002880096435547
3	61.55923104286194	pulse	1	t		1.0	2.5	/experiments/knapen_AOT/AOT_stimuli/rescaled_final/1134_rv.mp4	0.0	152.60701608657837	
3	62.87584900856018	fix_post	2		12	1.0	2.5	/experiments/knapen_AOT/AOT_stimuli/rescaled_final/1134_rv.mp4	0.0	153.9236340522766	0.10002398490905762
4	62.97587299346924	fix_pre	0		120	2.0	2.5	/experiments/knapen_AOT/AOT_stimuli/rescaled_final/0724_fw.mp4	0.0	154.02365803718567	1.000154972076416
4	63.159383058547974	pulse	0	t		2.0	2.5	/experiments/knapen_AOT/AOT_stimuli/rescaled_final/0724_fw.mp4	0.0	154.2071681022644	
4	63.976027965545654	movie	1		247	2.0	2.5	/experiments/knapen_AOT/AOT_stimuli/rescaled_final/0724_fw.mp4	0.0	155.02381300926208	2.5003511905670166
4	64.75966215133667	pulse	1	t		2.0	2.5	/experiments/knapen_AOT/AOT_stimuli/rescaled_final/0724_fw.mp4	0.0	155.8074471950531	
4	66.359934091568	pulse	1	t		2.0	2.5	/experiments/knapen_AOT/AOT_stimuli/rescaled_final/0724_fw.mp4	0.0	157.40771913528442	
4	66.47637915611267	fix_post	2		12	2.0	2.5	/experiments/knapen_AOT/AOT_stimuli/rescaled_final/0724_fw.mp4	0.0	157.5241641998291	0.10002398490905762
5	66.57640314102173	fix_pre	0		119	3.0	2.5	/experiments/knapen_AOT/AOT_stimuli/rescaled_final/1659_rv.mp4	0.0	157.62418818473816	0.9918069839477539
5	67.56821012496948	movie	1		246	3.0	2.5	/experiments/knapen_AOT/AOT_stimuli/rescaled_final/1659_rv.mp4	0.0	158.6159951686859	2.5003750324249268
5	67.96032905578613	pulse	1	t		3.0	2.5	/experiments/knapen_AOT/AOT_stimuli/rescaled_final/1659_rv.mp4	0.0	159.00811409950256	
5	69.56039714813232	pulse	1	t		3.0	2.5	/experiments/knapen_AOT/AOT_stimuli/rescaled_final/1659_rv.mp4	0.0	160.60818219184875	
5	70.06858515739441	fix_post	2		12	3.0	2.5	/experiments/knapen_AOT/AOT_stimuli/rescaled_final/1659_rv.mp4	0.0	161.11637020111084	0.10007095336914062
6	70.16865611076355	fix_pre	0		120	4.0	2.5	/experiments/knapen_AOT/AOT_stimuli/rescaled_final/1500_fw.mp4	0.0	161.21644115447998	1.000190019607544
6	71.16061902046204	pulse	0	t		4.0	2.5	/experiments/knapen_AOT/AOT_stimuli/rescaled_final/1500_fw.mp4	0.0	162.20840406417847	
6	71.1688461303711	movie	1		246	4.0	2.5	/experiments/knapen_AOT/AOT_stimuli/rescaled_final/1500_fw.mp4	0.0	162.21663117408752	2.508607864379883
6	72.76167392730713	pulse	1	t		4.0	2.5	/experiments/knapen_AOT/AOT_stimuli/rescaled_final/1500_fw.mp4	0.0	163.80945897102356	
6	73.67745399475098	fix_post	2		12	4.0	2.5	/experiments/knapen_AOT/AOT_stimuli/rescaled_final/1500_fw.mp4	0.0	164.7252390384674	0.10013413429260254
7	73.77758812904358	fix_pre	0		120	5.0	2.5	/experiments/knapen_AOT/AOT_stimuli/rescaled_final/1675_fw.mp4	0.0	164.82537317276	1.0000498294830322
7	74.36123895645142	pulse	0	t		5.0	2.5	/experiments/knapen_AOT/AOT_stimuli/rescaled_final/1675_fw.mp4	0.0	165.40902400016785	
7	74.77763795852661	movie	1		244	5.0	2.5	/experiments/knapen_AOT/AOT_stimuli/rescaled_final/1675_fw.mp4	0.0	165.82542300224304	2.5004231929779053
7	75.96146392822266	pulse	1	t		5.0	2.5	/experiments/knapen_AOT/AOT_stimuli/rescaled_final/1675_fw.mp4	0.0	167.0092489719391	
7	77.27806115150452	fix_post	2		12	5.0	2.5	/experiments/knapen_AOT/AOT_stimuli/rescaled_final/1675_fw.mp4	0.0	168.32584619522095	0.09997797012329102
8	77.37803912162781	fix_pre	0		120	6.0	2.5	blank	1.0	168.42582416534424	1.000173807144165
8	77.56160712242126	pulse	0	t		6.0	2.5	blank	1.0	168.6093921661377	
8	78.37821292877197	movie	1		300	6.0	2.5	blank	1.0	169.4259979724884	2.5003461837768555
8	79.1619701385498	pulse	1	t		6.0	2.5	blank	1.0	170.20975518226624	
8	80.76217699050903	pulse	1	t		6.0	2.5	blank	1.0	171.80996203422546	
8	80.87855911254883	fix_post	2		12	6.0	2.5	blank	1.0	171.92634415626526	0.10001492500305176
9	80.97857403755188	fix_pre	0		119	7.0	2.5	/experiments/knapen_AOT/AOT_stimuli/rescaled_final/0698_rv.mp4	0.0	172.0263590812683	0.9918310642242432
9	81.97040510177612	movie	1		244	7.0	2.5	/experiments/knapen_AOT/AOT_stimuli/rescaled_final/0698_rv.mp4	0.0	173.01819014549255	2.5003950595855713
9	82.36243414878845	pulse	1	t		7.0	2.5	/experiments/knapen_AOT/AOT_stimuli/rescaled_final/0698_rv.mp4	0.0	173.41021919250488	
9	83.96252608299255	pulse	1	t		7.0	2.5	/experiments/knapen_AOT/AOT_stimuli/rescaled_final/0698_rv.mp4	0.0	175.01031112670898	
9	84.4708001613617	fix_post	2		12	7.0	2.5	/experiments/knapen_AOT/AOT_stimuli/rescaled_final/0698_rv.mp4	0.0	175.51858520507812	0.09993982315063477
10	84.57073998451233	fix_pre	0		120	8.0	2.5	/experiments/knapen_AOT/AOT_stimuli/rescaled_final/1413_rv.mp4	0.0	175.61852502822876	1.0001850128173828
10	85.56289505958557	pulse	0	t		8.0	2.5	/experiments/knapen_AOT/AOT_stimuli/rescaled_final/1413_rv.mp4	0.0	176.610680103302	
10	85.57092499732971	movie	1		247	8.0	2.5	/experiments/knapen_AOT/AOT_stimuli/rescaled_final/1413_rv.mp4	0.0	176.61871004104614	2.5087051391601562
10	87.16693997383118	pulse	1	t		8.0	2.5	/experiments/knapen_AOT/AOT_stimuli/rescaled_final/1413_rv.mp4	0.0	178.2147250175476	
10	88.07963013648987	fix_post	2		12	8.0	2.5	/experiments/knapen_AOT/AOT_stimuli/rescaled_final/1413_rv.mp4	0.0	179.1274151802063	0.10001087188720703
11	88.17964100837708	fix_pre	0		120	9.0	2.5	/experiments/knapen_AOT/AOT_stimuli/rescaled_final/1637_fw.mp4	0.0	179.2274260520935	1.0001609325408936
11	88.76335716247559	pulse	0	t		9.0	2.5	/experiments/knapen_AOT/AOT_stimuli/rescaled_final/1637_fw.mp4	0.0	179.81114220619202	
11	89.17980194091797	movie	1		245	9.0	2.5	/experiments/knapen_AOT/AOT_stimuli/rescaled_final/1637_fw.mp4	0.0	180.2275869846344	2.5003411769866943
11	90.36351799964905	pulse	1	t		9.0	2.5	/experiments/knapen_AOT/AOT_stimuli/rescaled_final/1637_fw.mp4	0.0	181.41130304336548	
11	91.68014311790466	fix_post	2		12	9.0	2.5	/experiments/knapen_AOT/AOT_stimuli/rescaled_final/1637_fw.mp4	0.0	182.7279281616211	0.10003185272216797
12	91.78017497062683	fix_pre	0		120	10.0	2.5	/experiments/knapen_AOT/AOT_stimuli/rescaled_final/1325_fw.mp4	0.0	182.82796001434326	1.0001721382141113
12	91.96372509002686	pulse	0	t		10.0	2.5	/experiments/knapen_AOT/AOT_stimuli/rescaled_final/1325_fw.mp4	0.0	183.0115101337433	
12	92.78034710884094	movie	1		243	10.0	2.5	/experiments/knapen_AOT/AOT_stimuli/rescaled_final/1325_fw.mp4	0.0	183.82813215255737	2.5003738403320312
12	93.56408905982971	pulse	1	t		10.0	2.5	/experiments/knapen_AOT/AOT_stimuli/rescaled_final/1325_fw.mp4	0.0	184.61187410354614	
12	95.16436696052551	pulse	1	t		10.0	2.5	/experiments/knapen_AOT/AOT_stimuli/rescaled_final/1325_fw.mp4	0.0	186.21215200424194	
12	95.28072094917297	fix_post	2		12	10.0	2.5	/experiments/knapen_AOT/AOT_stimuli/rescaled_final/1325_fw.mp4	0.0	186.3285059928894	0.09999918937683105
13	95.3807201385498	fix_pre	0		120	11.0	2.5	/experiments/knapen_AOT/AOT_stimuli/rescaled_final/2112_rv.mp4	0.0	186.42850518226624	1.0001540184020996
13	96.3808741569519	movie	1		243	11.0	2.5	/experiments/knapen_AOT/AOT_stimuli/rescaled_final/2112_rv.mp4	0.0	187.42865920066833	2.4920737743377686
13	96.76494097709656	pulse	1	t		11.0	2.5	/experiments/knapen_AOT/AOT_stimuli/rescaled_final/2112_rv.mp4	0.0	187.812726020813	
13	98.36469507217407	pulse	1	t		11.0	2.5	/experiments/knapen_AOT/AOT_stimuli/rescaled_final/2112_rv.mp4	0.0	189.4124801158905	
13	98.87294793128967	fix_post	2		12	11.0	2.5	/experiments/knapen_AOT/AOT_stimuli/rescaled_final/2112_rv.mp4	0.0	189.9207329750061	0.09997010231018066
14	98.97291803359985	fix_pre	0		120	12.0	2.5	blank	1.0	190.02070307731628	1.000140905380249
14	99.96507716178894	pulse	0	t		12.0	2.5	blank	1.0	191.01286220550537	
14	99.9730589389801	movie	1		301	12.0	2.5	blank	1.0	191.02084398269653	2.50872802734375
14	101.56530714035034	pulse	1	t		12.0	2.5	blank	1.0	192.61309218406677	
14	102.48178696632385	fix_post	2		12	12.0	2.5	blank	1.0	193.52957201004028	0.09998607635498047
15	102.58177304267883	fix_pre	0		120	13.0	2.5	/experiments/knapen_AOT/AOT_stimuli/rescaled_final/0062_fw.mp4	0.0	193.62955808639526	1.0001599788665771
15	103.16545414924622	pulse	0	t		13.0	2.5	/experiments/knapen_AOT/AOT_stimuli/rescaled_final/0062_fw.mp4	0.0	194.21323919296265	
15	103.58193302154541	movie	1		245	13.0	2.5	/experiments/knapen_AOT/AOT_stimuli/rescaled_final/0062_fw.mp4	0.0	194.62971806526184	2.5003910064697266
15	104.76575708389282	pulse	1	t		13.0	2.5	/experiments/knapen_AOT/AOT_stimuli/rescaled_final/0062_fw.mp4	0.0	195.81354212760925	
15	106.08232402801514	fix_post	2		12	13.0	2.5	/experiments/knapen_AOT/AOT_stimuli/rescaled_final/0062_fw.mp4	0.0	197.13010907173157	0.10001802444458008
16	106.18234205245972	fix_pre	0		120	14.0	2.5	/experiments/knapen_AOT/AOT_stimuli/rescaled_final/0777_fw.mp4	0.0	197.23012709617615	1.0001490116119385
16	106.36598706245422	pulse	0	t		14.0	2.5	/experiments/knapen_AOT/AOT_stimuli/rescaled_final/0777_fw.mp4	0.0	197.41377210617065	
16	107.18249106407166	movie	1		245	14.0	2.5	/experiments/knapen_AOT/AOT_stimuli/rescaled_final/0777_fw.mp4	0.0	198.2302761077881	2.500356912612915
16	107.9586660861969	pulse	1	t		14.0	2.5	/experiments/knapen_AOT/AOT_stimuli/rescaled_final/0777_fw.mp4	0.0	199.00645112991333	
16	109.56400799751282	pulse	1	t		14.0	2.5	/experiments/knapen_AOT/AOT_stimuli/rescaled_final/0777_fw.mp4	0.0	200.61179304122925	
16	109.68284797668457	fix_post	2		12	14.0	2.5	/experiments/knapen_AOT/AOT_stimuli/rescaled_final/0777_fw.mp4	0.0	200.730633020401	0.09999704360961914
17	109.78284502029419	fix_pre	0		120	15.0	2.5	/experiments/knapen_AOT/AOT_stimuli/rescaled_final/1082_rv.mp4	0.0	200.83063006401062	1.0001590251922607
17	110.78300404548645	movie	1		244	15.0	2.5	/experiments/knapen_AOT/AOT_stimuli/rescaled_final/1082_rv.mp4	0.0	201.83078908920288	2.4920620918273926
17	111.17104601860046	pulse	1	t		15.0	2.5	/experiments/knapen_AOT/AOT_stimuli/rescaled_final/1082_rv.mp4	0.0	202.2188310623169	
17	112.75956797599792	pulse	1	t		15.0	2.5	/experiments/knapen_AOT/AOT_stimuli/rescaled_final/1082_rv.mp4	0.0	203.80735301971436	
17	113.27506613731384	fix_post	2		12	15.0	2.5	/experiments/knapen_AOT/AOT_stimuli/rescaled_final/1082_rv.mp4	0.0	204.32285118103027	0.09998583793640137
18	113.37505197525024	fix_pre	0		120	16.0	2.5	/experiments/knapen_AOT/AOT_stimuli/rescaled_final/0748_fw.mp4	0.0	204.42283701896667	1.0001730918884277
18	114.35960292816162	pulse	0	t		16.0	2.5	/experiments/knapen_AOT/AOT_stimuli/rescaled_final/0748_fw.mp4	0.0	205.40738797187805	
18	114.37522506713867	movie	1		247	16.0	2.5	/experiments/knapen_AOT/AOT_stimuli/rescaled_final/0748_fw.mp4	0.0	205.4230101108551	2.508661985397339
18	115.95900797843933	pulse	1	t		16.0	2.5	/experiments/knapen_AOT/AOT_stimuli/rescaled_final/0748_fw.mp4	0.0	207.00679302215576	
18	116.88388705253601	fix_post	2		12	16.0	2.5	/experiments/knapen_AOT/AOT_stimuli/rescaled_final/0748_fw.mp4	0.0	207.93167209625244	0.10004401206970215
19	116.98393106460571	fix_pre	0		120	17.0	2.5	/experiments/knapen_AOT/AOT_stimuli/rescaled_final/0302_fw.mp4	0.0	208.03171610832214	1.0001659393310547
19	117.55929112434387	pulse	0	t		17.0	2.5	/experiments/knapen_AOT/AOT_stimuli/rescaled_final/0302_fw.mp4	0.0	208.6070761680603	
19	117.98409700393677	movie	1		244	17.0	2.5	/experiments/knapen_AOT/AOT_stimuli/rescaled_final/0302_fw.mp4	0.0	209.0318820476532	2.500370979309082
19	119.16041898727417	pulse	1	t		17.0	2.5	/experiments/knapen_AOT/AOT_stimuli/rescaled_final/0302_fw.mp4	0.0	210.2082040309906	
19	120.48446798324585	fix_post	2		12	17.0	2.5	/experiments/knapen_AOT/AOT_stimuli/rescaled_final/0302_fw.mp4	0.0	211.53225302696228	0.10003209114074707
20	120.5845000743866	fix_pre	0		120	18.0	2.5	/experiments/knapen_AOT/AOT_stimuli/rescaled_final/0511_rv.mp4	0.0	211.63228511810303	1.000133991241455
20	120.75980114936829	pulse	0	t		18.0	2.5	/experiments/knapen_AOT/AOT_stimuli/rescaled_final/0511_rv.mp4	0.0	211.80758619308472	
20	121.58463406562805	movie	1		245	18.0	2.5	/experiments/knapen_AOT/AOT_stimuli/rescaled_final/0511_rv.mp4	0.0	212.63241910934448	2.5004498958587646
20	122.35998201370239	pulse	1	t		18.0	2.5	/experiments/knapen_AOT/AOT_stimuli/rescaled_final/0511_rv.mp4	0.0	213.40776705741882	
20	123.96020197868347	pulse	1	t		18.0	2.5	/experiments/knapen_AOT/AOT_stimuli/rescaled_final/0511_rv.mp4	0.0	215.0079870223999	
20	124.08508396148682	fix_post	2		12	18.0	2.5	/experiments/knapen_AOT/AOT_stimuli/rescaled_final/0511_rv.mp4	0.0	215.13286900520325	0.09992718696594238
21	124.18501114845276	fix_pre	0		119	19.0	2.5	/experiments/knapen_AOT/AOT_stimuli/rescaled_final/1042_rv.mp4	0.0	215.2327961921692	0.9918088912963867
21	125.17682003974915	movie	1		245	19.0	2.5	/experiments/knapen_AOT/AOT_stimuli/rescaled_final/1042_rv.mp4	0.0	216.22460508346558	2.500408887863159
21	125.56089806556702	pulse	1	t		19.0	2.5	/experiments/knapen_AOT/AOT_stimuli/rescaled_final/1042_rv.mp4	0.0	216.60868310928345	
21	127.16073393821716	pulse	1	t		19.0	2.5	/experiments/knapen_AOT/AOT_stimuli/rescaled_final/1042_rv.mp4	0.0	218.2085189819336	
21	127.6772289276123	fix_post	2		12	19.0	2.5	/experiments/knapen_AOT/AOT_stimuli/rescaled_final/1042_rv.mp4	0.0	218.72501397132874	0.10002517700195312
22	127.77725410461426	fix_pre	0		119	20.0	2.5	blank	1.0	218.8250391483307	0.9918458461761475
22	128.76091814041138	pulse	0	t		20.0	2.5	blank	1.0	219.8087031841278	
22	128.7690999507904	movie	1		301	20.0	2.5	blank	1.0	219.81688499450684	2.5086400508880615
22	130.36119294166565	pulse	1	t		20.0	2.5	blank	1.0	221.40897798538208	
22	131.27774000167847	fix_post	2		12	20.0	2.5	blank	1.0	222.3255250453949	0.1000361442565918
23	131.37777614593506	fix_pre	0		120	21.0	2.5	/experiments/knapen_AOT/AOT_stimuli/rescaled_final/2163_fw.mp4	0.0	222.4255611896515	1.0001499652862549
23	131.96144104003906	pulse	0	t		21.0	2.5	/experiments/knapen_AOT/AOT_stimuli/rescaled_final/2163_fw.mp4	0.0	223.0092260837555	
23	132.3779261112213	movie	1		245	21.0	2.5	/experiments/knapen_AOT/AOT_stimuli/rescaled_final/2163_fw.mp4	0.0	223.42571115493774	2.5003600120544434
23	133.5617401599884	pulse	1	t		21.0	2.5	/experiments/knapen_AOT/AOT_stimuli/rescaled_final/2163_fw.mp4	0.0	224.60952520370483	
23	134.87828612327576	fix_post	2		12	21.0	2.5	/experiments/knapen_AOT/AOT_stimuli/rescaled_final/2163_fw.mp4	0.0	225.9260711669922	0.09996485710144043
24	134.9782509803772	fix_pre	0		120	22.0	2.5	/experiments/knapen_AOT/AOT_stimuli/rescaled_final/0555_fw.mp4	0.0	226.02603602409363	1.0002031326293945
24	135.16190004348755	pulse	0	t		22.0	2.5	/experiments/knapen_AOT/AOT_stimuli/rescaled_final/0555_fw.mp4	0.0	226.20968508720398	
24	135.9784541130066	movie	1		244	22.0	2.5	/experiments/knapen_AOT/AOT_stimuli/rescaled_final/0555_fw.mp4	0.0	227.02623915672302	2.5003340244293213
24	136.76212215423584	pulse	1	t		22.0	2.5	/experiments/knapen_AOT/AOT_stimuli/rescaled_final/0555_fw.mp4	0.0	227.80990719795227	
24	138.36261415481567	pulse	1	t		22.0	2.5	/experiments/knapen_AOT/AOT_stimuli/rescaled_final/0555_fw.mp4	0.0	229.4103991985321	
24	138.4787881374359	fix_post	2		12	22.0	2.5	/experiments/knapen_AOT/AOT_stimuli/rescaled_final/0555_fw.mp4	0.0	229.52657318115234	0.10006594657897949
25	138.5788540840149	fix_pre	0		120	23.0	2.5	/experiments/knapen_AOT/AOT_stimuli/rescaled_final/1346_fw.mp4	0.0	229.62663912773132	1.000119924545288
25	139.57897400856018	movie	1		242	23.0	2.5	/experiments/knapen_AOT/AOT_stimuli/rescaled_final/1346_fw.mp4	0.0	230.6267590522766	2.4920220375061035
25	139.96314692497253	pulse	1	t		23.0	2.5	/experiments/knapen_AOT/AOT_stimuli/rescaled_final/1346_fw.mp4	0.0	231.01093196868896	
25	141.56290912628174	pulse	1	t		23.0	2.5	/experiments/knapen_AOT/AOT_stimuli/rescaled_final/1346_fw.mp4	0.0	232.61069416999817	
25	142.07099604606628	fix_post	2		12	23.0	2.5	/experiments/knapen_AOT/AOT_stimuli/rescaled_final/1346_fw.mp4	0.0	233.11878108978271	0.10002493858337402
26	142.17102098464966	fix_pre	0		120	24.0	2.5	/experiments/knapen_AOT/AOT_stimuli/rescaled_final/0855_rv.mp4	0.0	233.2188060283661	1.0002100467681885
26	143.16309213638306	pulse	0	t		24.0	2.5	/experiments/knapen_AOT/AOT_stimuli/rescaled_final/0855_rv.mp4	0.0	234.2108771800995	
26	143.17123103141785	movie	1		246	24.0	2.5	/experiments/knapen_AOT/AOT_stimuli/rescaled_final/0855_rv.mp4	0.0	234.21901607513428	2.5086889266967773
26	144.7637460231781	pulse	1	t		24.0	2.5	/experiments/knapen_AOT/AOT_stimuli/rescaled_final/0855_rv.mp4	0.0	235.81153106689453	
26	145.67991995811462	fix_post	2		12	24.0	2.5	/experiments/knapen_AOT/AOT_stimuli/rescaled_final/0855_rv.mp4	0.0	236.72770500183105	0.09997916221618652
27	145.7798991203308	fix_pre	0		120	25.0	2.5	/experiments/knapen_AOT/AOT_stimuli/rescaled_final/1251_fw.mp4	0.0	236.82768416404724	1.00016188621521
27	146.36349296569824	pulse	0	t		25.0	2.5	/experiments/knapen_AOT/AOT_stimuli/rescaled_final/1251_fw.mp4	0.0	237.41127800941467	
27	146.78006100654602	movie	1		243	25.0	2.5	/experiments/knapen_AOT/AOT_stimuli/rescaled_final/1251_fw.mp4	0.0	237.82784605026245	2.5003559589385986
27	147.96393609046936	pulse	1	t		25.0	2.5	/experiments/knapen_AOT/AOT_stimuli/rescaled_final/1251_fw.mp4	0.0	239.0117211341858	
27	149.28041696548462	fix_post	2		12	25.0	2.5	/experiments/knapen_AOT/AOT_stimuli/rescaled_final/1251_fw.mp4	0.0	240.32820200920105	0.10000300407409668
28	149.38041996955872	fix_pre	0		117	26.0	2.5	/experiments/knapen_AOT/AOT_stimuli/rescaled_final/2074_fw.mp4	0.0	240.42820501327515	1.0002100467681885
28	149.56407809257507	pulse	0	t		26.0	2.5	/experiments/knapen_AOT/AOT_stimuli/rescaled_final/2074_fw.mp4	0.0	240.6118631362915	
28	150.3806300163269	movie	1		244	26.0	2.5	/experiments/knapen_AOT/AOT_stimuli/rescaled_final/2074_fw.mp4	0.0	241.42841506004333	2.5003249645233154
28	151.16424798965454	pulse	1	t		26.0	2.5	/experiments/knapen_AOT/AOT_stimuli/rescaled_final/2074_fw.mp4	0.0	242.21203303337097	
28	152.76433396339417	pulse	1	t		26.0	2.5	/experiments/knapen_AOT/AOT_stimuli/rescaled_final/2074_fw.mp4	0.0	243.8121190071106	
28	152.88095498085022	fix_post	2		12	26.0	2.5	/experiments/knapen_AOT/AOT_stimuli/rescaled_final/2074_fw.mp4	0.0	243.92874002456665	0.10001206398010254
29	152.98096704483032	fix_pre	0		120	27.0	2.5	/experiments/knapen_AOT/AOT_stimuli/rescaled_final/0159_fw.mp4	0.0	244.02875208854675	1.00016188621521
29	153.98112893104553	movie	1		243	27.0	2.5	/experiments/knapen_AOT/AOT_stimuli/rescaled_final/0159_fw.mp4	0.0	245.02891397476196	2.4920201301574707
29	154.36925101280212	pulse	1	t		27.0	2.5	/experiments/knapen_AOT/AOT_stimuli/rescaled_final/0159_fw.mp4	0.0	245.41703605651855	
29	155.96496510505676	pulse	1	t		27.0	2.5	/experiments/knapen_AOT/AOT_stimuli/rescaled_final/0159_fw.mp4	0.0	247.0127501487732	
29	156.473149061203	fix_post	2		12	27.0	2.5	/experiments/knapen_AOT/AOT_stimuli/rescaled_final/0159_fw.mp4	0.0	247.52093410491943	0.10001993179321289
30	156.57316899299622	fix_pre	0		120	28.0	2.5	blank	1.0	247.62095403671265	1.0001981258392334
30	157.56522011756897	pulse	0	t		28.0	2.5	blank	1.0	248.6130051612854	
30	157.57336711883545	movie	1		301	28.0	2.5	blank	1.0	248.62115216255188	2.5086920261383057
30	159.16544103622437	pulse	1	t		28.0	2.5	blank	1.0	250.2132260799408	
30	160.08205914497375	fix_post	2		12	28.0	2.5	blank	1.0	251.12984418869019	0.10000181198120117
31	160.18206095695496	fix_pre	0		120	29.0	2.5	/experiments/knapen_AOT/AOT_stimuli/rescaled_final/0092_rv.mp4	0.0	251.2298460006714	1.000150203704834
31	160.7657699584961	pulse	0	t		29.0	2.5	/experiments/knapen_AOT/AOT_stimuli/rescaled_final/0092_rv.mp4	0.0	251.81355500221252	
31	161.1822111606598	movie	1		243	29.0	2.5	/experiments/knapen_AOT/AOT_stimuli/rescaled_final/0092_rv.mp4	0.0	252.22999620437622	2.5003368854522705
31	162.36613512039185	pulse	1	t		29.0	2.5	/experiments/knapen_AOT/AOT_stimuli/rescaled_final/0092_rv.mp4	0.0	253.41392016410828	
31	163.68254804611206	fix_post	2		12	29.0	2.5	/experiments/knapen_AOT/AOT_stimuli/rescaled_final/0092_rv.mp4	0.0	254.7303330898285	0.10007405281066895
32	163.78262209892273	fix_pre	0		120	30.0	2.5	/experiments/knapen_AOT/AOT_stimuli/rescaled_final/0226_fw.mp4	0.0	254.83040714263916	1.0001349449157715
32	163.95875000953674	pulse	0	t		30.0	2.5	/experiments/knapen_AOT/AOT_stimuli/rescaled_final/0226_fw.mp4	0.0	255.00653505325317	
32	164.7827570438385	movie	1		244	30.0	2.5	/experiments/knapen_AOT/AOT_stimuli/rescaled_final/0226_fw.mp4	0.0	255.83054208755493	2.500356912612915
32	165.5589439868927	pulse	1	t		30.0	2.5	/experiments/knapen_AOT/AOT_stimuli/rescaled_final/0226_fw.mp4	0.0	256.60672903060913	
32	167.1665301322937	pulse	1	t		30.0	2.5	/experiments/knapen_AOT/AOT_stimuli/rescaled_final/0226_fw.mp4	0.0	258.21431517601013	
32	167.28311395645142	fix_post	2		12	30.0	2.5	/experiments/knapen_AOT/AOT_stimuli/rescaled_final/0226_fw.mp4	0.0	258.33089900016785	0.10000014305114746
33	167.38311409950256	fix_pre	0		119	31.0	2.5	/experiments/knapen_AOT/AOT_stimuli/rescaled_final/1917_rv.mp4	0.0	258.430899143219	0.9918599128723145
33	168.37497401237488	movie	1		246	31.0	2.5	/experiments/knapen_AOT/AOT_stimuli/rescaled_final/1917_rv.mp4	0.0	259.4227590560913	2.500396966934204
33	168.75906205177307	pulse	1	t		31.0	2.5	/experiments/knapen_AOT/AOT_stimuli/rescaled_final/1917_rv.mp4	0.0	259.8068470954895	
33	170.358726978302	pulse	1	t		31.0	2.5	/experiments/knapen_AOT/AOT_stimuli/rescaled_final/1917_rv.mp4	0.0	261.40651202201843	
33	170.87537097930908	fix_post	2		12	31.0	2.5	/experiments/knapen_AOT/AOT_stimuli/rescaled_final/1917_rv.mp4	0.0	261.9231560230255	0.0999610424041748
34	170.97533202171326	fix_pre	0		119	32.0	2.5	/experiments/knapen_AOT/AOT_stimuli/rescaled_final/0862_fw.mp4	0.0	262.0231170654297	0.991818904876709
34	171.95904207229614	pulse	0	t		32.0	2.5	/experiments/knapen_AOT/AOT_stimuli/rescaled_final/0862_fw.mp4	0.0	263.0068271160126	
34	171.96715092658997	movie	1		245	32.0	2.5	/experiments/knapen_AOT/AOT_stimuli/rescaled_final/0862_fw.mp4	0.0	263.0149359703064	2.5087342262268066
34	173.56321907043457	pulse	1	t		32.0	2.5	/experiments/knapen_AOT/AOT_stimuli/rescaled_final/0862_fw.mp4	0.0	264.611004114151	
34	174.47588515281677	fix_post	2		12	32.0	2.5	/experiments/knapen_AOT/AOT_stimuli/rescaled_final/0862_fw.mp4	0.0	265.5236701965332	0.09998583793640137
35	174.57587099075317	fix_pre	0		120	33.0	2.5	blank	1.0	265.6236560344696	1.0001530647277832
35	175.1594500541687	pulse	0	t		33.0	2.5	blank	1.0	266.20723509788513	
35	175.57602405548096	movie	1		300	33.0	2.5	blank	1.0	266.6238090991974	2.500377893447876
35	176.75972199440002	pulse	1	t		33.0	2.5	blank	1.0	267.80750703811646	
35	178.07640194892883	fix_post	2		12	33.0	2.5	blank	1.0	269.12418699264526	0.100006103515625
36	178.17640805244446	fix_pre	0		120	34.0	2.5	/experiments/knapen_AOT/AOT_stimuli/rescaled_final/1309_fw.mp4	0.0	269.2241930961609	1.0001540184020996
36	178.3600151538849	pulse	0	t		34.0	2.5	/experiments/knapen_AOT/AOT_stimuli/rescaled_final/1309_fw.mp4	0.0	269.4078001976013	
36	179.17656207084656	movie	1		245	34.0	2.5	/experiments/knapen_AOT/AOT_stimuli/rescaled_final/1309_fw.mp4	0.0	270.224347114563	2.500330924987793
36	179.96021103858948	pulse	1	t		34.0	2.5	/experiments/knapen_AOT/AOT_stimuli/rescaled_final/1309_fw.mp4	0.0	271.0079960823059	
36	181.56046199798584	pulse	1	t		34.0	2.5	/experiments/knapen_AOT/AOT_stimuli/rescaled_final/1309_fw.mp4	0.0	272.60824704170227	
36	181.67689299583435	fix_post	2		12	34.0	2.5	/experiments/knapen_AOT/AOT_stimuli/rescaled_final/1309_fw.mp4	0.0	272.7246780395508	0.10003900527954102
37	181.7769320011139	fix_pre	0		120	35.0	2.5	/experiments/knapen_AOT/AOT_stimuli/rescaled_final/1025_rv.mp4	0.0	272.8247170448303	1.0002031326293945
37	182.7771351337433	movie	1		242	35.0	2.5	/experiments/knapen_AOT/AOT_stimuli/rescaled_final/1025_rv.mp4	0.0	273.8249201774597	2.4919769763946533
37	183.1611931324005	pulse	1	t		35.0	2.5	/experiments/knapen_AOT/AOT_stimuli/rescaled_final/1025_rv.mp4	0.0	274.20897817611694	
37	184.76105093955994	pulse	1	t		35.0	2.5	/experiments/knapen_AOT/AOT_stimuli/rescaled_final/1025_rv.mp4	0.0	275.80883598327637	
37	185.26911211013794	fix_post	2		12	35.0	2.5	/experiments/knapen_AOT/AOT_stimuli/rescaled_final/1025_rv.mp4	0.0	276.31689715385437	0.10002303123474121
38	185.36913514137268	fix_pre	0		120	36.0	2.5	/experiments/knapen_AOT/AOT_stimuli/rescaled_final/0264_rv.mp4	0.0	276.4169201850891	1.0001628398895264
38	186.3611490726471	pulse	0	t		36.0	2.5	/experiments/knapen_AOT/AOT_stimuli/rescaled_final/0264_rv.mp4	0.0	277.4089341163635	
38	186.3692979812622	movie	1		245	36.0	2.5	/experiments/knapen_AOT/AOT_stimuli/rescaled_final/0264_rv.mp4	0.0	277.41708302497864	2.508759021759033
38	187.9619541168213	pulse	1	t		36.0	2.5	/experiments/knapen_AOT/AOT_stimuli/rescaled_final/0264_rv.mp4	0.0	279.0097391605377	
38	188.87805700302124	fix_post	2		12	36.0	2.5	/experiments/knapen_AOT/AOT_stimuli/rescaled_final/0264_rv.mp4	0.0	279.92584204673767	0.09994006156921387
39	188.97799706459045	fix_pre	0		120	37.0	2.5	/experiments/knapen_AOT/AOT_stimuli/rescaled_final/0275_rv.mp4	0.0	280.0257821083069	1.000209093093872
39	189.56164813041687	pulse	0	t		37.0	2.5	/experiments/knapen_AOT/AOT_stimuli/rescaled_final/0275_rv.mp4	0.0	280.6094331741333	
39	189.97820615768433	movie	1		244	37.0	2.5	/experiments/knapen_AOT/AOT_stimuli/rescaled_final/0275_rv.mp4	0.0	281.02599120140076	2.500339984893799
39	191.16199803352356	pulse	1	t		37.0	2.5	/experiments/knapen_AOT/AOT_stimuli/rescaled_final/0275_rv.mp4	0.0	282.20978307724	
39	192.47854614257812	fix_post	2		12	37.0	2.5	/experiments/knapen_AOT/AOT_stimuli/rescaled_final/0275_rv.mp4	0.0	283.52633118629456	0.0999898910522461
40	192.57853603363037	fix_pre	0		120	38.0	2.5	/experiments/knapen_AOT/AOT_stimuli/rescaled_final/0594_fw.mp4	0.0	283.6263210773468	1.000166893005371
40	192.76208996772766	pulse	0	t		38.0	2.5	/experiments/knapen_AOT/AOT_stimuli/rescaled_final/0594_fw.mp4	0.0	283.8098750114441	
40	193.57870292663574	movie	1		243	38.0	2.5	/experiments/knapen_AOT/AOT_stimuli/rescaled_final/0594_fw.mp4	0.0	284.6264879703522	2.500401020050049
40	194.36240816116333	pulse	1	t		38.0	2.5	/experiments/knapen_AOT/AOT_stimuli/rescaled_final/0594_fw.mp4	0.0	285.41019320487976	
40	195.96251797676086	pulse	1	t		38.0	2.5	/experiments/knapen_AOT/AOT_stimuli/rescaled_final/0594_fw.mp4	0.0	287.0103030204773	
40	196.0791039466858	fix_post	2		12	38.0	2.5	/experiments/knapen_AOT/AOT_stimuli/rescaled_final/0594_fw.mp4	0.0	287.1268889904022	0.09998512268066406
41	196.17908906936646	fix_pre	0		119	39.0	2.5	/experiments/knapen_AOT/AOT_stimuli/rescaled_final/0724_rv.mp4	0.0	287.2268741130829	0.9918608665466309
41	197.1709499359131	movie	1		248	39.0	2.5	/experiments/knapen_AOT/AOT_stimuli/rescaled_final/0724_rv.mp4	0.0	288.2187349796295	2.50032901763916
41	197.5628981590271	pulse	1	t		39.0	2.5	/experiments/knapen_AOT/AOT_stimuli/rescaled_final/0724_rv.mp4	0.0	288.61068320274353	
41	199.16321301460266	pulse	1	t		39.0	2.5	/experiments/knapen_AOT/AOT_stimuli/rescaled_final/0724_rv.mp4	0.0	290.2109980583191	
41	199.67127895355225	fix_post	2		12	39.0	2.5	/experiments/knapen_AOT/AOT_stimuli/rescaled_final/0724_rv.mp4	0.0	290.7190639972687	0.1000070571899414
42	199.7712860107422	fix_pre	0		120	40.0	2.5	/experiments/knapen_AOT/AOT_stimuli/rescaled_final/0948_fw.mp4	0.0	290.8190710544586	1.0001499652862549
42	200.76339101791382	pulse	0	t		40.0	2.5	/experiments/knapen_AOT/AOT_stimuli/rescaled_final/0948_fw.mp4	0.0	291.81117606163025	
42	200.77143597602844	movie	1		244	40.0	2.5	/experiments/knapen_AOT/AOT_stimuli/rescaled_final/0948_fw.mp4	0.0	291.8192210197449	2.50871205329895
42	202.36434197425842	pulse	1	t		40.0	2.5	/experiments/knapen_AOT/AOT_stimuli/rescaled_final/0948_fw.mp4	0.0	293.41212701797485	
42	203.2801480293274	fix_post	2		12	40.0	2.5	/experiments/knapen_AOT/AOT_stimuli/rescaled_final/0948_fw.mp4	0.0	294.3279330730438	0.10003495216369629
43	203.3801829814911	fix_pre	0		120	41.0	2.5	blank	1.0	294.4279680252075	1.0001311302185059
43	203.96380805969238	pulse	0	t		41.0	2.5	blank	1.0	295.0115931034088	
43	204.3803141117096	movie	1		300	41.0	2.5	blank	1.0	295.428099155426	2.500375986099243
43	205.56414413452148	pulse	1	t		41.0	2.5	blank	1.0	296.6119291782379	
43	206.88069009780884	fix_post	2		12	41.0	2.5	blank	1.0	297.92847514152527	0.09998488426208496
44	206.98067498207092	fix_pre	0		120	42.0	2.5	/experiments/knapen_AOT/AOT_stimuli/rescaled_final/1642_fw.mp4	0.0	298.02846002578735	1.000190019607544
44	207.16434907913208	pulse	0	t		42.0	2.5	/experiments/knapen_AOT/AOT_stimuli/rescaled_final/1642_fw.mp4	0.0	298.2121341228485	
44	207.98086500167847	movie	1		245	42.0	2.5	/experiments/knapen_AOT/AOT_stimuli/rescaled_final/1642_fw.mp4	0.0	299.0286500453949	2.5003299713134766
44	208.76447296142578	pulse	1	t		42.0	2.5	/experiments/knapen_AOT/AOT_stimuli/rescaled_final/1642_fw.mp4	0.0	299.8122580051422	
44	210.3649971485138	pulse	1	t		42.0	2.5	/experiments/knapen_AOT/AOT_stimuli/rescaled_final/1642_fw.mp4	0.0	301.4127821922302	
44	210.48119497299194	fix_post	2		12	42.0	2.5	/experiments/knapen_AOT/AOT_stimuli/rescaled_final/1642_fw.mp4	0.0	301.5289800167084	0.1000680923461914
45	210.58126306533813	fix_pre	0		120	43.0	2.5	/experiments/knapen_AOT/AOT_stimuli/rescaled_final/1177_fw.mp4	0.0	301.62904810905457	1.0001089572906494
45	211.58137202262878	movie	1		242	43.0	2.5	/experiments/knapen_AOT/AOT_stimuli/rescaled_final/1177_fw.mp4	0.0	302.6291570663452	2.492029905319214
45	211.96552515029907	pulse	1	t		43.0	2.5	/experiments/knapen_AOT/AOT_stimuli/rescaled_final/1177_fw.mp4	0.0	303.0133101940155	
45	213.56530499458313	pulse	1	t		43.0	2.5	/experiments/knapen_AOT/AOT_stimuli/rescaled_final/1177_fw.mp4	0.0	304.61309003829956	
45	214.073401927948	fix_post	2		12	43.0	2.5	/experiments/knapen_AOT/AOT_stimuli/rescaled_final/1177_fw.mp4	0.0	305.12118697166443	0.10011100769042969
46	214.17351293563843	fix_pre	0		120	44.0	2.5	/experiments/knapen_AOT/AOT_stimuli/rescaled_final/1099_fw.mp4	0.0	305.22129797935486	1.0000741481781006
46	215.15823793411255	pulse	0	t		44.0	2.5	/experiments/knapen_AOT/AOT_stimuli/rescaled_final/1099_fw.mp4	0.0	306.206022977829	
46	215.17358708381653	movie	1		245	44.0	2.5	/experiments/knapen_AOT/AOT_stimuli/rescaled_final/1099_fw.mp4	0.0	306.22137212753296	2.5087668895721436
46	216.7663929462433	pulse	1	t		44.0	2.5	/experiments/knapen_AOT/AOT_stimuli/rescaled_final/1099_fw.mp4	0.0	307.8141779899597	
46	217.68235397338867	fix_post	2		12	44.0	2.5	/experiments/knapen_AOT/AOT_stimuli/rescaled_final/1099_fw.mp4	0.0	308.7301390171051	0.09996199607849121
47	217.78231596946716	fix_pre	0		120	45.0	2.5	/experiments/knapen_AOT/AOT_stimuli/rescaled_final/0915_fw.mp4	0.0	308.8301010131836	1.0001649856567383
47	218.35839700698853	pulse	0	t		45.0	2.5	/experiments/knapen_AOT/AOT_stimuli/rescaled_final/0915_fw.mp4	0.0	309.40618205070496	
47	218.7824809551239	movie	1		241	45.0	2.5	/experiments/knapen_AOT/AOT_stimuli/rescaled_final/0915_fw.mp4	0.0	309.83026599884033	2.5003809928894043
47	219.95836210250854	pulse	1	t		45.0	2.5	/experiments/knapen_AOT/AOT_stimuli/rescaled_final/0915_fw.mp4	0.0	311.006147146225	
47	221.2828619480133	fix_post	2		12	45.0	2.5	/experiments/knapen_AOT/AOT_stimuli/rescaled_final/0915_fw.mp4	0.0	312.33064699172974	0.10009407997131348
48	221.38295602798462	fix_pre	0		120	46.0	2.5	/experiments/knapen_AOT/AOT_stimuli/rescaled_final/0545_fw.mp4	0.0	312.43074107170105	1.0000889301300049
48	221.55823612213135	pulse	0	t		46.0	2.5	/experiments/knapen_AOT/AOT_stimuli/rescaled_final/0545_fw.mp4	0.0	312.6060211658478	
48	222.38304495811462	movie	1		243	46.0	2.5	/experiments/knapen_AOT/AOT_stimuli/rescaled_final/0545_fw.mp4	0.0	313.43083000183105	2.492047071456909
48	223.15829610824585	pulse	1	t		46.0	2.5	/experiments/knapen_AOT/AOT_stimuli/rescaled_final/0545_fw.mp4	0.0	314.2060811519623	
48	224.75855708122253	pulse	1	t		46.0	2.5	/experiments/knapen_AOT/AOT_stimuli/rescaled_final/0545_fw.mp4	0.0	315.80634212493896	
48	224.87509202957153	fix_post	2		12	46.0	2.5	/experiments/knapen_AOT/AOT_stimuli/rescaled_final/0545_fw.mp4	0.0	315.92287707328796	0.09995698928833008
49	224.97504901885986	fix_pre	0		120	47.0	2.5	blank	1.0	316.0228340625763	1.0001349449157715
49	225.97518396377563	movie	1		300	47.0	2.5	blank	1.0	317.02296900749207	2.500385046005249
49	226.3589060306549	pulse	1	t		47.0	2.5	blank	1.0	317.40669107437134	
49	227.95907711982727	pulse	1	t		47.0	2.5	blank	1.0	319.0068621635437	
49	228.47556900978088	fix_post	2		12	47.0	2.5	blank	1.0	319.5233540534973	0.10001611709594727
50	228.57558512687683	fix_pre	0		119	48.0	2.5	/experiments/knapen_AOT/AOT_stimuli/rescaled_final/1396_rv.mp4	0.0	319.62337017059326	0.9918107986450195
50	229.55933499336243	pulse	0	t		48.0	2.5	/experiments/knapen_AOT/AOT_stimuli/rescaled_final/1396_rv.mp4	0.0	320.60712003707886	
50	229.56739592552185	movie	1		246	48.0	2.5	/experiments/knapen_AOT/AOT_stimuli/rescaled_final/1396_rv.mp4	0.0	320.6151809692383	2.508709192276001
50	231.16023206710815	pulse	1	t		48.0	2.5	/experiments/knapen_AOT/AOT_stimuli/rescaled_final/1396_rv.mp4	0.0	322.2080171108246	
50	232.07610511779785	fix_post	2		12	48.0	2.5	/experiments/knapen_AOT/AOT_stimuli/rescaled_final/1396_rv.mp4	0.0	323.1238901615143	0.10002398490905762
51	232.1761291027069	fix_pre	0		120	49.0	2.5	/experiments/knapen_AOT/AOT_stimuli/rescaled_final/0543_rv.mp4	0.0	323.22391414642334	1.0001578330993652
51	232.7596960067749	pulse	0	t		49.0	2.5	/experiments/knapen_AOT/AOT_stimuli/rescaled_final/0543_rv.mp4	0.0	323.80748105049133	
51	233.17628693580627	movie	1		244	49.0	2.5	/experiments/knapen_AOT/AOT_stimuli/rescaled_final/0543_rv.mp4	0.0	324.2240719795227	2.5003790855407715
51	234.3601291179657	pulse	1	t		49.0	2.5	/experiments/knapen_AOT/AOT_stimuli/rescaled_final/0543_rv.mp4	0.0	325.40791416168213	
51	235.67666602134705	fix_post	2		12	49.0	2.5	/experiments/knapen_AOT/AOT_stimuli/rescaled_final/0543_rv.mp4	0.0	326.7244510650635	0.09997200965881348
52	235.77663803100586	fix_pre	0		120	50.0	2.5	/experiments/knapen_AOT/AOT_stimuli/rescaled_final/1253_rv.mp4	0.0	326.8244230747223	1.0001769065856934
52	235.9602439403534	pulse	0	t		50.0	2.5	/experiments/knapen_AOT/AOT_stimuli/rescaled_final/1253_rv.mp4	0.0	327.0080289840698	
52	236.77681493759155	movie	1		243	50.0	2.5	/experiments/knapen_AOT/AOT_stimuli/rescaled_final/1253_rv.mp4	0.0	327.824599981308	2.5003750324249268
52	237.56043601036072	pulse	1	t		50.0	2.5	/experiments/knapen_AOT/AOT_stimuli/rescaled_final/1253_rv.mp4	0.0	328.60822105407715	
52	239.16073608398438	pulse	1	t		50.0	2.5	/experiments/knapen_AOT/AOT_stimuli/rescaled_final/1253_rv.mp4	0.0	330.2085211277008	
52	239.27718997001648	fix_post	2		12	50.0	2.5	/experiments/knapen_AOT/AOT_stimuli/rescaled_final/1253_rv.mp4	0.0	330.3249750137329	0.10000896453857422
53	239.37719893455505	fix_pre	0		119	51.0	2.5	/experiments/knapen_AOT/AOT_stimuli/rescaled_final/1075_rv.mp4	0.0	330.4249839782715	0.9917972087860107
53	240.36899614334106	movie	1		244	51.0	2.5	/experiments/knapen_AOT/AOT_stimuli/rescaled_final/1075_rv.mp4	0.0	331.4167811870575	2.5003960132598877
53	240.7611050605774	pulse	1	t		51.0	2.5	/experiments/knapen_AOT/AOT_stimuli/rescaled_final/1075_rv.mp4	0.0	331.8088901042938	
53	242.3611991405487	pulse	1	t		51.0	2.5	/experiments/knapen_AOT/AOT_stimuli/rescaled_final/1075_rv.mp4	0.0	333.40898418426514	
53	242.86939215660095	fix_post	2		12	51.0	2.5	/experiments/knapen_AOT/AOT_stimuli/rescaled_final/1075_rv.mp4	0.0	333.9171772003174	0.10001397132873535
54	242.9694061279297	fix_pre	0		120	52.0	2.5	/experiments/knapen_AOT/AOT_stimuli/rescaled_final/1921_fw.mp4	0.0	334.0171911716461	1.0001928806304932
54	243.96137499809265	pulse	0	t		52.0	2.5	/experiments/knapen_AOT/AOT_stimuli/rescaled_final/1921_fw.mp4	0.0	335.0091600418091	
54	243.96959900856018	movie	1		245	52.0	2.5	/experiments/knapen_AOT/AOT_stimuli/rescaled_final/1921_fw.mp4	0.0	335.0173840522766	2.5086610317230225
54	245.5621440410614	pulse	1	t		52.0	2.5	/experiments/knapen_AOT/AOT_stimuli/rescaled_final/1921_fw.mp4	0.0	336.60992908477783	
54	246.4782600402832	fix_post	2		12	52.0	2.5	/experiments/knapen_AOT/AOT_stimuli/rescaled_final/1921_fw.mp4	0.0	337.52604508399963	0.10001707077026367
55	246.57827711105347	fix_pre	0		120	53.0	2.5	/experiments/knapen_AOT/AOT_stimuli/rescaled_final/0001_fw.mp4	0.0	337.6260621547699	1.0001640319824219
55	247.16195511817932	pulse	0	t		53.0	2.5	/experiments/knapen_AOT/AOT_stimuli/rescaled_final/0001_fw.mp4	0.0	338.20974016189575	
55	247.5784411430359	movie	1		244	53.0	2.5	/experiments/knapen_AOT/AOT_stimuli/rescaled_final/0001_fw.mp4	0.0	338.6262261867523	2.500394821166992
55	248.76226902008057	pulse	1	t		53.0	2.5	/experiments/knapen_AOT/AOT_stimuli/rescaled_final/0001_fw.mp4	0.0	339.810054063797	
55	250.07883596420288	fix_post	2		12	53.0	2.5	/experiments/knapen_AOT/AOT_stimuli/rescaled_final/0001_fw.mp4	0.0	341.1266210079193	0.09999799728393555
56	250.17883396148682	fix_pre	0		120	54.0	2.5	/experiments/knapen_AOT/AOT_stimuli/rescaled_final/0759_rv.mp4	0.0	341.22661900520325	1.0001091957092285
56	250.36232614517212	pulse	0	t		54.0	2.5	/experiments/knapen_AOT/AOT_stimuli/rescaled_final/0759_rv.mp4	0.0	341.41011118888855	
56	251.17894315719604	movie	1		245	54.0	2.5	/experiments/knapen_AOT/AOT_stimuli/rescaled_final/0759_rv.mp4	0.0	342.2267282009125	2.5003998279571533
56	251.9626660346985	pulse	1	t		54.0	2.5	/experiments/knapen_AOT/AOT_stimuli/rescaled_final/0759_rv.mp4	0.0	343.0104510784149	
56	253.5603621006012	pulse	1	t		54.0	2.5	/experiments/knapen_AOT/AOT_stimuli/rescaled_final/0759_rv.mp4	0.0	344.6081471443176	
56	253.6793429851532	fix_post	2		12	54.0	2.5	/experiments/knapen_AOT/AOT_stimuli/rescaled_final/0759_rv.mp4	0.0	344.72712802886963	0.10005998611450195
57	253.7794029712677	fix_pre	0		120	55.0	2.5	/experiments/knapen_AOT/AOT_stimuli/rescaled_final/0264_fw.mp4	0.0	344.82718801498413	1.0000979900360107
57	254.7795009613037	movie	1		243	55.0	2.5	/experiments/knapen_AOT/AOT_stimuli/rescaled_final/0264_fw.mp4	0.0	345.82728600502014	2.4920341968536377
57	255.16716504096985	pulse	1	t		55.0	2.5	/experiments/knapen_AOT/AOT_stimuli/rescaled_final/0264_fw.mp4	0.0	346.2149500846863	
57	256.7633650302887	pulse	1	t		55.0	2.5	/experiments/knapen_AOT/AOT_stimuli/rescaled_final/0264_fw.mp4	0.0	347.8111500740051	
57	257.27153515815735	fix_post	2		12	55.0	2.5	/experiments/knapen_AOT/AOT_stimuli/rescaled_final/0264_fw.mp4	0.0	348.3193202018738	0.09999680519104004
58	257.3715319633484	fix_pre	0		120	56.0	2.5	blank	1.0	348.4193170070648	1.0001740455627441
58	258.36361598968506	pulse	0	t		56.0	2.5	blank	1.0	349.4114010334015	
58	258.37170600891113	movie	1		301	56.0	2.5	blank	1.0	349.41949105262756	2.5087220668792725
58	259.96390104293823	pulse	1	t		56.0	2.5	blank	1.0	351.01168608665466	
58	260.8804280757904	fix_post	2		12	56.0	2.5	blank	1.0	351.92821311950684	0.09998893737792969
59	260.98041701316833	fix_pre	0		120	57.0	2.5	/experiments/knapen_AOT/AOT_stimuli/rescaled_final/1198_rv.mp4	0.0	352.02820205688477	1.000162124633789
59	261.56417512893677	pulse	0	t		57.0	2.5	/experiments/knapen_AOT/AOT_stimuli/rescaled_final/1198_rv.mp4	0.0	352.6119601726532	
59	261.9805791378021	movie	1		243	57.0	2.5	/experiments/knapen_AOT/AOT_stimuli/rescaled_final/1198_rv.mp4	0.0	353.02836418151855	2.500398874282837
59	263.1604130268097	pulse	1	t		57.0	2.5	/experiments/knapen_AOT/AOT_stimuli/rescaled_final/1198_rv.mp4	0.0	354.2081980705261	
59	264.48097801208496	fix_post	2		12	57.0	2.5	/experiments/knapen_AOT/AOT_stimuli/rescaled_final/1198_rv.mp4	0.0	355.5287630558014	0.0999910831451416
60	264.5809690952301	fix_pre	0		120	58.0	2.5	/experiments/knapen_AOT/AOT_stimuli/rescaled_final/0570_rv.mp4	0.0	355.62875413894653	1.0001459121704102
60	264.76446294784546	pulse	0	t		58.0	2.5	/experiments/knapen_AOT/AOT_stimuli/rescaled_final/0570_rv.mp4	0.0	355.8122479915619	
60	265.5811150074005	movie	1		244	58.0	2.5	/experiments/knapen_AOT/AOT_stimuli/rescaled_final/0570_rv.mp4	0.0	356.62890005111694	2.500338077545166
60	266.3648819923401	pulse	1	t		58.0	2.5	/experiments/knapen_AOT/AOT_stimuli/rescaled_final/0570_rv.mp4	0.0	357.4126670360565	
60	267.96310901641846	pulse	1	t		58.0	2.5	/experiments/knapen_AOT/AOT_stimuli/rescaled_final/0570_rv.mp4	0.0	359.0108940601349	
60	268.0814530849457	fix_post	2		12	58.0	2.5	/experiments/knapen_AOT/AOT_stimuli/rescaled_final/0570_rv.mp4	0.0	359.1292381286621	0.10004305839538574
61	268.18149614334106	fix_pre	0		120	59.0	2.5	/experiments/knapen_AOT/AOT_stimuli/rescaled_final/1718_rv.mp4	0.0	359.2292811870575	1.000182867050171
61	269.18167901039124	movie	1		243	59.0	2.5	/experiments/knapen_AOT/AOT_stimuli/rescaled_final/1718_rv.mp4	0.0	360.22946405410767	2.492072105407715
61	269.56581711769104	pulse	1	t		59.0	2.5	/experiments/knapen_AOT/AOT_stimuli/rescaled_final/1718_rv.mp4	0.0	360.61360216140747	
61	271.1654541492462	pulse	1	t		59.0	2.5	/experiments/knapen_AOT/AOT_stimuli/rescaled_final/1718_rv.mp4	0.0	362.21323919296265	
61	271.67375111579895	fix_post	2		12	59.0	2.5	/experiments/knapen_AOT/AOT_stimuli/rescaled_final/1718_rv.mp4	0.0	362.7215361595154	0.10000085830688477
62	271.77375197410583	fix_pre	0		120	60.0	2.5	/experiments/knapen_AOT/AOT_stimuli/rescaled_final/0151_rv.mp4	0.0	362.82153701782227	1.0000901222229004
62	272.76569294929504	pulse	0	t		60.0	2.5	/experiments/knapen_AOT/AOT_stimuli/rescaled_final/0151_rv.mp4	0.0	363.8134779930115	
62	272.77384209632874	movie	1		244	60.0	2.5	/experiments/knapen_AOT/AOT_stimuli/rescaled_final/0151_rv.mp4	0.0	363.82162714004517	2.5087718963623047
62	274.36642503738403	pulse	1	t		60.0	2.5	/experiments/knapen_AOT/AOT_stimuli/rescaled_final/0151_rv.mp4	0.0	365.41421008110046	
62	275.28261399269104	fix_post	2		12	60.0	2.5	/experiments/knapen_AOT/AOT_stimuli/rescaled_final/0151_rv.mp4	0.0	366.33039903640747	0.09992408752441406
63	275.38253808021545	fix_pre	0		120	61.0	2.5	blank	1.0	366.4303231239319	1.0001740455627441
63	275.9587571620941	pulse	0	t		61.0	2.5	blank	1.0	367.00654220581055	
63	276.3827121257782	movie	1		300	61.0	2.5	blank	1.0	367.43049716949463	2.5004308223724365
63	277.5590500831604	pulse	1	t		61.0	2.5	blank	1.0	368.60683512687683	
63	278.88314294815063	fix_post	2		12	61.0	2.5	blank	1.0	369.93092799186707	0.09997320175170898
64	278.98311614990234	fix_pre	0		120	62.0	2.5	/experiments/knapen_AOT/AOT_stimuli/rescaled_final/1954_fw.mp4	0.0	370.0309011936188	1.002795934677124
64	279.15917897224426	pulse	0	t		62.0	2.5	/experiments/knapen_AOT/AOT_stimuli/rescaled_final/1954_fw.mp4	0.0	370.2069640159607	
64	279.98591208457947	movie	1		240	62.0	2.5	/experiments/knapen_AOT/AOT_stimuli/rescaled_final/1954_fw.mp4	0.0	371.0336971282959	2.497714042663574
64	280.7595601081848	pulse	1	t		62.0	2.5	/experiments/knapen_AOT/AOT_stimuli/rescaled_final/1954_fw.mp4	0.0	371.80734515190125	
64	282.35896611213684	pulse	1	t		62.0	2.5	/experiments/knapen_AOT/AOT_stimuli/rescaled_final/1954_fw.mp4	0.0	373.40675115585327	
64	282.48362612724304	fix_post	2		12	62.0	2.5	/experiments/knapen_AOT/AOT_stimuli/rescaled_final/1954_fw.mp4	0.0	373.5314111709595	0.10001182556152344
65	282.58363795280457	fix_pre	0		119	63.0	2.5	/experiments/knapen_AOT/AOT_stimuli/rescaled_final/0866_rv.mp4	0.0	373.631422996521	0.9918320178985596
65	283.5754699707031	movie	1		244	63.0	2.5	/experiments/knapen_AOT/AOT_stimuli/rescaled_final/0866_rv.mp4	0.0	374.62325501441956	2.500452995300293
65	283.9596221446991	pulse	1	t		63.0	2.5	/experiments/knapen_AOT/AOT_stimuli/rescaled_final/0866_rv.mp4	0.0	375.0074071884155	
65	285.5592861175537	pulse	1	t		63.0	2.5	/experiments/knapen_AOT/AOT_stimuli/rescaled_final/0866_rv.mp4	0.0	376.60707116127014	
65	286.0759229660034	fix_post	2		12	63.0	2.5	/experiments/knapen_AOT/AOT_stimuli/rescaled_final/0866_rv.mp4	0.0	377.12370800971985	0.10002398490905762
66	286.1759469509125	fix_pre	0		119	64.0	2.5	/experiments/knapen_AOT/AOT_stimuli/rescaled_final/1340_fw.mp4	0.0	377.2237319946289	0.9917411804199219
66	287.15949606895447	pulse	0	t		64.0	2.5	/experiments/knapen_AOT/AOT_stimuli/rescaled_final/1340_fw.mp4	0.0	378.2072811126709	
66	287.1676881313324	movie	1		244	64.0	2.5	/experiments/knapen_AOT/AOT_stimuli/rescaled_final/1340_fw.mp4	0.0	378.2154731750488	2.5086569786071777
66	288.7601909637451	pulse	1	t		64.0	2.5	/experiments/knapen_AOT/AOT_stimuli/rescaled_final/1340_fw.mp4	0.0	379.80797600746155	
66	289.6763451099396	fix_post	2		12	64.0	2.5	/experiments/knapen_AOT/AOT_stimuli/rescaled_final/1340_fw.mp4	0.0	380.724130153656	0.1000518798828125
67	289.7763969898224	fix_pre	0		120	65.0	2.5	/experiments/knapen_AOT/AOT_stimuli/rescaled_final/0501_rv.mp4	0.0	380.8241820335388	1.000128984451294
67	290.36016392707825	pulse	0	t		65.0	2.5	/experiments/knapen_AOT/AOT_stimuli/rescaled_final/0501_rv.mp4	0.0	381.4079489707947	
67	290.7765259742737	movie	1		244	65.0	2.5	/experiments/knapen_AOT/AOT_stimuli/rescaled_final/0501_rv.mp4	0.0	381.8243110179901	2.5003960132598877
67	291.9603841304779	pulse	1	t		65.0	2.5	/experiments/knapen_AOT/AOT_stimuli/rescaled_final/0501_rv.mp4	0.0	383.00816917419434	
67	293.27692198753357	fix_post	2		12	65.0	2.5	/experiments/knapen_AOT/AOT_stimuli/rescaled_final/0501_rv.mp4	0.0	384.32470703125	0.09998703002929688
68	293.37690901756287	fix_pre	0		120	66.0	2.5	/experiments/knapen_AOT/AOT_stimuli/rescaled_final/0178_fw.mp4	0.0	384.4246940612793	1.00018310546875
68	293.5604920387268	pulse	0	t		66.0	2.5	/experiments/knapen_AOT/AOT_stimuli/rescaled_final/0178_fw.mp4	0.0	384.60827708244324	
68	294.3770921230316	movie	1		245	66.0	2.5	/experiments/knapen_AOT/AOT_stimuli/rescaled_final/0178_fw.mp4	0.0	385.42487716674805	2.500342845916748
68	295.16078209877014	pulse	1	t		66.0	2.5	/experiments/knapen_AOT/AOT_stimuli/rescaled_final/0178_fw.mp4	0.0	386.2085671424866	
68	296.76111006736755	pulse	1	t		66.0	2.5	/experiments/knapen_AOT/AOT_stimuli/rescaled_final/0178_fw.mp4	0.0	387.808895111084	
68	296.87743496894836	fix_post	2		12	66.0	2.5	/experiments/knapen_AOT/AOT_stimuli/rescaled_final/0178_fw.mp4	0.0	387.9252200126648	0.10003018379211426
69	296.9774651527405	fix_pre	0		119	67.0	2.5	/experiments/knapen_AOT/AOT_stimuli/rescaled_final/0902_rv.mp4	0.0	388.0252501964569	0.9918129444122314
69	297.9692780971527	movie	1		247	67.0	2.5	/experiments/knapen_AOT/AOT_stimuli/rescaled_final/0902_rv.mp4	0.0	389.01706314086914	2.500396966934204
69	298.36130714416504	pulse	1	t		67.0	2.5	/experiments/knapen_AOT/AOT_stimuli/rescaled_final/0902_rv.mp4	0.0	389.40909218788147	
69	299.9614510536194	pulse	1	t		67.0	2.5	/experiments/knapen_AOT/AOT_stimuli/rescaled_final/0902_rv.mp4	0.0	391.0092360973358	
69	300.4696750640869	fix_post	2		12	67.0	2.5	/experiments/knapen_AOT/AOT_stimuli/rescaled_final/0902_rv.mp4	0.0	391.51746010780334	0.09997797012329102
70	300.5696530342102	fix_pre	0		120	68.0	2.5	/experiments/knapen_AOT/AOT_stimuli/rescaled_final/0511_fw.mp4	0.0	391.61743807792664	1.0001869201660156
70	301.561644077301	pulse	0	t		68.0	2.5	/experiments/knapen_AOT/AOT_stimuli/rescaled_final/0511_fw.mp4	0.0	392.60942912101746	
70	301.5698399543762	movie	1		246	68.0	2.5	/experiments/knapen_AOT/AOT_stimuli/rescaled_final/0511_fw.mp4	0.0	392.61762499809265	2.5086581707000732
70	303.1625909805298	pulse	1	t		68.0	2.5	/experiments/knapen_AOT/AOT_stimuli/rescaled_final/0511_fw.mp4	0.0	394.2103760242462	
70	304.0784981250763	fix_post	2		12	68.0	2.5	/experiments/knapen_AOT/AOT_stimuli/rescaled_final/0511_fw.mp4	0.0	395.1262831687927	0.10004687309265137
71	304.17854499816895	fix_pre	0		120	69.0	2.5	blank	1.0	395.2263300418854	1.0001540184020996
71	304.7622950077057	pulse	0	t		69.0	2.5	blank	1.0	395.8100800514221	
71	305.17869901657104	movie	1		300	69.0	2.5	blank	1.0	396.2264840602875	2.500443935394287
71	306.3624460697174	pulse	1	t		69.0	2.5	blank	1.0	397.41023111343384	
71	307.67914295196533	fix_post	2		12	69.0	2.5	blank	1.0	398.72692799568176	0.09995818138122559
72	307.77910113334656	fix_pre	0		120	70.0	2.5	/experiments/knapen_AOT/AOT_stimuli/rescaled_final/0336_rv.mp4	0.0	398.826886177063	1.0001180171966553
72	307.9626679420471	pulse	0	t		70.0	2.5	/experiments/knapen_AOT/AOT_stimuli/rescaled_final/0336_rv.mp4	0.0	399.01045298576355	
72	308.7792191505432	movie	1		244	70.0	2.5	/experiments/knapen_AOT/AOT_stimuli/rescaled_final/0336_rv.mp4	0.0	399.82700419425964	2.5003628730773926
72	309.56291913986206	pulse	1	t		70.0	2.5	/experiments/knapen_AOT/AOT_stimuli/rescaled_final/0336_rv.mp4	0.0	400.6107041835785	
72	311.16337299346924	pulse	1	t		70.0	2.5	/experiments/knapen_AOT/AOT_stimuli/rescaled_final/0336_rv.mp4	0.0	402.21115803718567	
72	311.2795820236206	fix_post	2		12	70.0	2.5	/experiments/knapen_AOT/AOT_stimuli/rescaled_final/0336_rv.mp4	0.0	402.32736706733704	0.10004091262817383
73	311.3796229362488	fix_pre	0		120	71.0	2.5	/experiments/knapen_AOT/AOT_stimuli/rescaled_final/0286_fw.mp4	0.0	402.4274079799652	1.0001790523529053
73	312.3798019886017	movie	1		242	71.0	2.5	/experiments/knapen_AOT/AOT_stimuli/rescaled_final/0286_fw.mp4	0.0	403.4275870323181	2.4920599460601807
73	312.7676360607147	pulse	1	t		71.0	2.5	/experiments/knapen_AOT/AOT_stimuli/rescaled_final/0286_fw.mp4	0.0	403.81542110443115	
73	314.36364102363586	pulse	1	t		71.0	2.5	/experiments/knapen_AOT/AOT_stimuli/rescaled_final/0286_fw.mp4	0.0	405.4114260673523	
73	314.87186193466187	fix_post	2		12	71.0	2.5	/experiments/knapen_AOT/AOT_stimuli/rescaled_final/0286_fw.mp4	0.0	405.9196469783783	0.09996914863586426
74	314.97183108329773	fix_pre	0		120	72.0	2.5	/experiments/knapen_AOT/AOT_stimuli/rescaled_final/0939_rv.mp4	0.0	406.01961612701416	1.000133991241455
74	315.963858127594	pulse	0	t		72.0	2.5	/experiments/knapen_AOT/AOT_stimuli/rescaled_final/0939_rv.mp4	0.0	407.0116431713104	
74	315.9719650745392	movie	1		245	72.0	2.5	/experiments/knapen_AOT/AOT_stimuli/rescaled_final/0939_rv.mp4	0.0	407.0197501182556	2.5087358951568604
74	317.56456112861633	pulse	1	t		72.0	2.5	/experiments/knapen_AOT/AOT_stimuli/rescaled_final/0939_rv.mp4	0.0	408.61234617233276	
74	318.48070096969604	fix_post	2		12	72.0	2.5	/experiments/knapen_AOT/AOT_stimuli/rescaled_final/0939_rv.mp4	0.0	409.5284860134125	0.09995412826538086
75	318.5806550979614	fix_pre	0		120	73.0	2.5	/experiments/knapen_AOT/AOT_stimuli/rescaled_final/0130_rv.mp4	0.0	409.62844014167786	1.0001888275146484
75	319.1643581390381	pulse	0	t		73.0	2.5	/experiments/knapen_AOT/AOT_stimuli/rescaled_final/0130_rv.mp4	0.0	410.2121431827545	
75	319.5808439254761	movie	1		243	73.0	2.5	/experiments/knapen_AOT/AOT_stimuli/rescaled_final/0130_rv.mp4	0.0	410.6286289691925	2.5003910064697266
75	320.7647750377655	pulse	1	t		73.0	2.5	/experiments/knapen_AOT/AOT_stimuli/rescaled_final/0130_rv.mp4	0.0	411.81256008148193	
75	322.0812349319458	fix_post	2		12	73.0	2.5	/experiments/knapen_AOT/AOT_stimuli/rescaled_final/0130_rv.mp4	0.0	413.12901997566223	0.09998202323913574
76	322.18121695518494	fix_pre	0		120	74.0	2.5	/experiments/knapen_AOT/AOT_stimuli/rescaled_final/0855_rv.mp4	0.0	413.22900199890137	1.0001590251922607
76	322.3648841381073	pulse	0	t		74.0	2.5	/experiments/knapen_AOT/AOT_stimuli/rescaled_final/0855_rv.mp4	0.0	413.41266918182373	
76	323.1813759803772	movie	1		244	74.0	2.5	/experiments/knapen_AOT/AOT_stimuli/rescaled_final/0855_rv.mp4	0.0	414.2291610240936	2.5004069805145264
76	323.9650459289551	pulse	1	t		74.0	2.5	/experiments/knapen_AOT/AOT_stimuli/rescaled_final/0855_rv.mp4	0.0	415.0128309726715	
76	325.5653760433197	pulse	1	t		74.0	2.5	/experiments/knapen_AOT/AOT_stimuli/rescaled_final/0855_rv.mp4	0.0	416.61316108703613	
76	325.6817829608917	fix_post	2		12	74.0	2.5	/experiments/knapen_AOT/AOT_stimuli/rescaled_final/0855_rv.mp4	0.0	416.72956800460815	0.09999513626098633
77	325.7817780971527	fix_pre	0		120	75.0	2.5	/experiments/knapen_AOT/AOT_stimuli/rescaled_final/1381_fw.mp4	0.0	416.82956314086914	1.0001919269561768
77	326.7819700241089	movie	1		244	75.0	2.5	/experiments/knapen_AOT/AOT_stimuli/rescaled_final/1381_fw.mp4	0.0	417.8297550678253	2.4919660091400146
77	327.16975498199463	pulse	1	t		75.0	2.5	/experiments/knapen_AOT/AOT_stimuli/rescaled_final/1381_fw.mp4	0.0	418.21754002571106	
77	328.75845408439636	pulse	1	t		75.0	2.5	/experiments/knapen_AOT/AOT_stimuli/rescaled_final/1381_fw.mp4	0.0	419.8062391281128	
77	329.2739360332489	fix_post	2		12	75.0	2.5	/experiments/knapen_AOT/AOT_stimuli/rescaled_final/1381_fw.mp4	0.0	420.32172107696533	0.10002708435058594
78	329.3739631175995	fix_pre	0		120	76.0	2.5	blank	1.0	420.4217481613159	1.0002319812774658
78	330.3585629463196	pulse	0	t		76.0	2.5	blank	1.0	421.406347990036	
78	330.37419509887695	movie	1		301	76.0	2.5	blank	1.0	421.4219801425934	2.5086288452148438
78	331.95882511138916	pulse	1	t		76.0	2.5	blank	1.0	423.0066101551056	
78	332.8828239440918	fix_post	2		12	76.0	2.5	blank	1.0	423.9306089878082	0.10001111030578613
79	332.9828350543976	fix_pre	0		120	77.0	2.5	/experiments/knapen_AOT/AOT_stimuli/rescaled_final/1251_rv.mp4	0.0	424.030620098114	1.0002288818359375
79	333.5589289665222	pulse	0	t		77.0	2.5	/experiments/knapen_AOT/AOT_stimuli/rescaled_final/1251_rv.mp4	0.0	424.60671401023865	
79	333.9830639362335	movie	1		243	77.0	2.5	/experiments/knapen_AOT/AOT_stimuli/rescaled_final/1251_rv.mp4	0.0	425.03084897994995	2.500274181365967
79	335.1589651107788	pulse	1	t		77.0	2.5	/experiments/knapen_AOT/AOT_stimuli/rescaled_final/1251_rv.mp4	0.0	426.20675015449524	
79	336.4833381175995	fix_post	2		12	77.0	2.5	/experiments/knapen_AOT/AOT_stimuli/rescaled_final/1251_rv.mp4	0.0	427.5311231613159	0.10000801086425781
80	336.58334612846375	fix_pre	0		120	78.0	2.5	/experiments/knapen_AOT/AOT_stimuli/rescaled_final/1251_fw.mp4	0.0	427.6311311721802	1.0001499652862549
80	336.758563041687	pulse	0	t		78.0	2.5	/experiments/knapen_AOT/AOT_stimuli/rescaled_final/1251_fw.mp4	0.0	427.80634808540344	
80	337.58349609375	movie	1		243	78.0	2.5	/experiments/knapen_AOT/AOT_stimuli/rescaled_final/1251_fw.mp4	0.0	428.63128113746643	2.500412940979004
80	338.35878801345825	pulse	1	t		78.0	2.5	/experiments/knapen_AOT/AOT_stimuli/rescaled_final/1251_fw.mp4	0.0	429.4065730571747	
80	339.9592161178589	pulse	1	t		78.0	2.5	/experiments/knapen_AOT/AOT_stimuli/rescaled_final/1251_fw.mp4	0.0	431.0070011615753	
80	340.083909034729	fix_post	2		12	78.0	2.5	/experiments/knapen_AOT/AOT_stimuli/rescaled_final/1251_fw.mp4	0.0	431.13169407844543	0.09997010231018066
81	340.1838791370392	fix_pre	0		119	79.0	2.5	/experiments/knapen_AOT/AOT_stimuli/rescaled_final/1082_fw.mp4	0.0	431.2316641807556	0.9918599128723145
81	341.1757390499115	movie	1		243	79.0	2.5	/experiments/knapen_AOT/AOT_stimuli/rescaled_final/1082_fw.mp4	0.0	432.22352409362793	2.5003650188446045
81	341.56393814086914	pulse	1	t		79.0	2.5	/experiments/knapen_AOT/AOT_stimuli/rescaled_final/1082_fw.mp4	0.0	432.61172318458557	
81	343.1595220565796	pulse	1	t		79.0	2.5	/experiments/knapen_AOT/AOT_stimuli/rescaled_final/1082_fw.mp4	0.0	434.207307100296	
81	343.6761040687561	fix_post	2		12	79.0	2.5	/experiments/knapen_AOT/AOT_stimuli/rescaled_final/1082_fw.mp4	0.0	434.72388911247253	0.1000518798828125
82	343.7761559486389	fix_pre	0		119	80.0	2.5	/experiments/knapen_AOT/AOT_stimuli/rescaled_final/1277_rv.mp4	0.0	434.82394099235535	0.9918131828308105
82	344.75988006591797	pulse	0	t		80.0	2.5	/experiments/knapen_AOT/AOT_stimuli/rescaled_final/1277_rv.mp4	0.0	435.8076651096344	
82	344.7679691314697	movie	1		246	80.0	2.5	/experiments/knapen_AOT/AOT_stimuli/rescaled_final/1277_rv.mp4	0.0	435.81575417518616	2.508636951446533
82	346.36116909980774	pulse	1	t		80.0	2.5	/experiments/knapen_AOT/AOT_stimuli/rescaled_final/1277_rv.mp4	0.0	437.40895414352417	
82	347.27660608291626	fix_post	2		12	80.0	2.5	/experiments/knapen_AOT/AOT_stimuli/rescaled_final/1277_rv.mp4	0.0	438.3243911266327	0.10002398490905762
83	347.3766300678253	fix_pre	0		120	81.0	2.5	/experiments/knapen_AOT/AOT_stimuli/rescaled_final/1675_rv.mp4	0.0	438.42441511154175	1.000187873840332
83	347.9602720737457	pulse	0	t		81.0	2.5	/experiments/knapen_AOT/AOT_stimuli/rescaled_final/1675_rv.mp4	0.0	439.00805711746216	
83	348.37681794166565	movie	1		243	81.0	2.5	/experiments/knapen_AOT/AOT_stimuli/rescaled_final/1675_rv.mp4	0.0	439.4246029853821	2.5003411769866943
83	349.56054496765137	pulse	1	t		81.0	2.5	/experiments/knapen_AOT/AOT_stimuli/rescaled_final/1675_rv.mp4	0.0	440.6083300113678	
83	350.87715911865234	fix_post	2		12	81.0	2.5	/experiments/knapen_AOT/AOT_stimuli/rescaled_final/1675_rv.mp4	0.0	441.9249441623688	0.10005402565002441
84	350.97721314430237	fix_pre	0		120	82.0	2.5	blank	1.0	442.0249981880188	1.0001029968261719
84	351.16086316108704	pulse	0	t		82.0	2.5	blank	1.0	442.20864820480347	
84	351.97731614112854	movie	1		300	82.0	2.5	blank	1.0	443.02510118484497	2.5003879070281982
84	352.76098799705505	pulse	1	t		82.0	2.5	blank	1.0	443.8087730407715	
84	354.36123394966125	pulse	1	t		82.0	2.5	blank	1.0	445.4090189933777	
84	354.47770404815674	fix_post	2		12	82.0	2.5	blank	1.0	445.52548909187317	0.10004496574401855
85	354.57774901390076	fix_pre	0		120	83.0	2.5	/experiments/knapen_AOT/AOT_stimuli/rescaled_final/1134_fw.mp4	0.0	445.6255340576172	1.0001111030578613
85	355.5778601169586	movie	1		244	83.0	2.5	/experiments/knapen_AOT/AOT_stimuli/rescaled_final/1134_fw.mp4	0.0	446.62564516067505	2.492033004760742
85	355.96328616142273	pulse	1	t		83.0	2.5	/experiments/knapen_AOT/AOT_stimuli/rescaled_final/1134_fw.mp4	0.0	447.01107120513916	
85	357.5617959499359	pulse	1	t		83.0	2.5	/experiments/knapen_AOT/AOT_stimuli/rescaled_final/1134_fw.mp4	0.0	448.60958099365234	
85	358.06989312171936	fix_post	2		12	83.0	2.5	/experiments/knapen_AOT/AOT_stimuli/rescaled_final/1134_fw.mp4	0.0	449.1176781654358	0.10003781318664551
87	358.169930934906	stim	0		1716					449.21771597862244	14.30224609375
87	359.16207814216614	pulse	0	t						450.20986318588257	
87	360.7622709274292	pulse	0	t						451.81005597114563	
87	362.36242604255676	pulse	0	t						453.4102110862732	
87	363.9627549648285	pulse	0	t						455.0105400085449	
87	365.5629301071167	pulse	0	t						456.61071515083313	
87	367.16316294670105	pulse	0	t						458.2109479904175	
87	368.7633731365204	pulse	0	t						459.8111581802368	
87	370.3635549545288	pulse	0	t						461.41133999824524	
87	371.9638559818268	pulse	0	t						463.0116410255432	
