trial_nr	onset	event_type	phase	response	nr_frames	movie_index	movie_duration	movie_file	blank	onset_abs	duration
0	0.14141488075256348	stim	0		7					18.830185651779175	0.058272600173950195
0	0.19161128997802734	response	0	space						18.88038206100464	
1	0.19968748092651367	stim	0		4544					18.888458251953125	37.88120722770691
1	38.07098913192749	pulse	0	t						56.7597599029541	
1	38.08089470863342	stim	1		1715					56.769665479660034	14.301677227020264
1	39.66419720649719	pulse	1	t						58.352967977523804	
1	41.26450800895691	pulse	1	t						59.95327877998352	
1	42.86467123031616	pulse	1	t						61.55344200134277	
1	44.46487545967102	pulse	1	t						63.15364623069763	
1	46.065202474594116	pulse	1	t						64.75397324562073	
1	47.66536831855774	pulse	1	t						66.35413908958435	
1	49.2655930519104	pulse	1	t						67.95436382293701	
1	50.86596703529358	pulse	1	t						69.55473780632019	
2	52.38257193565369	fix_pre	0		11	0.0	2.5	/experiments/Knapen_AOT/AOT_stimuli/rescaled_final/1755_rv.mp4	0.0	71.0713427066803	0.10836052894592285
2	52.466132164001465	pulse	0	t		0.0	2.5	/experiments/Knapen_AOT/AOT_stimuli/rescaled_final/1755_rv.mp4	0.0	71.15490293502808	
2	52.49093246459961	movie	1		282	0.0	2.5	/experiments/Knapen_AOT/AOT_stimuli/rescaled_final/1755_rv.mp4	0.0	71.17970323562622	2.492020606994629
2	54.06544542312622	pulse	1	t		0.0	2.5	/experiments/Knapen_AOT/AOT_stimuli/rescaled_final/1755_rv.mp4	0.0	72.75421619415283	
2	54.98295307159424	fix_post	2		12	0.0	2.5	/experiments/Knapen_AOT/AOT_stimuli/rescaled_final/1755_rv.mp4	0.0	73.67172384262085	0.10001301765441895
3	55.08296608924866	fix_pre	0		120	1.0	2.5	/experiments/Knapen_AOT/AOT_stimuli/rescaled_final/1494_fw.mp4	0.0	73.77173686027527	1.0084989070892334
3	55.66661977767944	pulse	0	t		1.0	2.5	/experiments/Knapen_AOT/AOT_stimuli/rescaled_final/1494_fw.mp4	0.0	74.35539054870605	
3	56.09146499633789	movie	1		274	1.0	2.5	/experiments/Knapen_AOT/AOT_stimuli/rescaled_final/1494_fw.mp4	0.0	74.7802357673645	2.492030620574951
3	57.266392946243286	pulse	1	t		1.0	2.5	/experiments/Knapen_AOT/AOT_stimuli/rescaled_final/1494_fw.mp4	0.0	75.9551637172699	
3	58.58349561691284	fix_post	2		12	1.0	2.5	/experiments/Knapen_AOT/AOT_stimuli/rescaled_final/1494_fw.mp4	0.0	77.27226638793945	0.10003328323364258
4	58.683528900146484	fix_pre	0		120	2.0	2.5	/experiments/Knapen_AOT/AOT_stimuli/rescaled_final/0914_rv.mp4	0.0	77.3722996711731	1.0085296630859375
4	58.86707615852356	pulse	0	t		2.0	2.5	/experiments/Knapen_AOT/AOT_stimuli/rescaled_final/0914_rv.mp4	0.0	77.55584692955017	
4	59.69205856323242	movie	1		284	2.0	2.5	/experiments/Knapen_AOT/AOT_stimuli/rescaled_final/0914_rv.mp4	0.0	78.38082933425903	2.491999387741089
4	60.46515893936157	pulse	1	t		2.0	2.5	/experiments/Knapen_AOT/AOT_stimuli/rescaled_final/0914_rv.mp4	0.0	79.15392971038818	
4	62.06569719314575	pulse	1	t		2.0	2.5	/experiments/Knapen_AOT/AOT_stimuli/rescaled_final/0914_rv.mp4	0.0	80.75446796417236	
4	62.18405795097351	fix_post	2		12	2.0	2.5	/experiments/Knapen_AOT/AOT_stimuli/rescaled_final/0914_rv.mp4	0.0	80.87282872200012	0.0999915599822998
5	62.28404951095581	fix_pre	0		120	3.0	2.5	/experiments/Knapen_AOT/AOT_stimuli/rescaled_final/2116_fw.mp4	0.0	80.97282028198242	1.0085196495056152
5	63.292569160461426	movie	1		275	3.0	2.5	/experiments/Knapen_AOT/AOT_stimuli/rescaled_final/2116_fw.mp4	0.0	81.98133993148804	2.4920127391815186
5	63.666306495666504	pulse	1	t		3.0	2.5	/experiments/Knapen_AOT/AOT_stimuli/rescaled_final/2116_fw.mp4	0.0	82.35507726669312	
5	65.26598501205444	pulse	1	t		3.0	2.5	/experiments/Knapen_AOT/AOT_stimuli/rescaled_final/2116_fw.mp4	0.0	83.95475578308105	
5	65.78458189964294	fix_post	2		12	3.0	2.5	/experiments/Knapen_AOT/AOT_stimuli/rescaled_final/2116_fw.mp4	0.0	84.47335267066956	0.10002422332763672
6	65.88460612297058	fix_pre	0		119	4.0	2.5	/experiments/Knapen_AOT/AOT_stimuli/rescaled_final/0120_rv.mp4	0.0	84.57337689399719	1.0001537799835205
6	66.86831521987915	pulse	0	t		4.0	2.5	/experiments/Knapen_AOT/AOT_stimuli/rescaled_final/0120_rv.mp4	0.0	85.55708599090576	
6	66.8847599029541	movie	1		289	4.0	2.5	/experiments/Knapen_AOT/AOT_stimuli/rescaled_final/0120_rv.mp4	0.0	85.57353067398071	2.5003490447998047
6	68.46705222129822	pulse	1	t		4.0	2.5	/experiments/Knapen_AOT/AOT_stimuli/rescaled_final/0120_rv.mp4	0.0	87.15582299232483	
6	69.3851089477539	fix_post	2		12	4.0	2.5	/experiments/Knapen_AOT/AOT_stimuli/rescaled_final/0120_rv.mp4	0.0	88.07387971878052	0.10003280639648438
7	69.48514175415039	fix_pre	0		120	5.0	2.5	/experiments/Knapen_AOT/AOT_stimuli/rescaled_final/1415_fw.mp4	0.0	88.173912525177	1.0085132122039795
7	70.06085348129272	pulse	0	t		5.0	2.5	/experiments/Knapen_AOT/AOT_stimuli/rescaled_final/1415_fw.mp4	0.0	88.74962425231934	
7	70.49365496635437	movie	1		290	5.0	2.5	/experiments/Knapen_AOT/AOT_stimuli/rescaled_final/1415_fw.mp4	0.0	89.18242573738098	2.492042303085327
7	71.66081833839417	pulse	1	t		5.0	2.5	/experiments/Knapen_AOT/AOT_stimuli/rescaled_final/1415_fw.mp4	0.0	90.34958910942078	
7	72.9856972694397	fix_post	2		12	5.0	2.5	/experiments/Knapen_AOT/AOT_stimuli/rescaled_final/1415_fw.mp4	0.0	91.67446804046631	0.09999918937683105
8	73.08569645881653	fix_pre	0		120	6.0	2.5	blank	1.0	91.77446722984314	1.0001194477081299
8	73.26096773147583	pulse	0	t		6.0	2.5	blank	1.0	91.94973850250244	
8	74.08581590652466	movie	1		300	6.0	2.5	blank	1.0	92.77458667755127	2.500454902648926
8	74.86122512817383	pulse	1	t		6.0	2.5	blank	1.0	93.54999589920044	
8	76.46141695976257	pulse	1	t		6.0	2.5	blank	1.0	95.15018773078918	
8	76.58627080917358	fix_post	2		12	6.0	2.5	blank	1.0	95.2750415802002	0.09994649887084961
9	76.68621730804443	fix_pre	0		120	7.0	2.5	/experiments/Knapen_AOT/AOT_stimuli/rescaled_final/1745_rv.mp4	0.0	95.37498807907104	1.0084872245788574
9	77.69470453262329	movie	1		288	7.0	2.5	/experiments/Knapen_AOT/AOT_stimuli/rescaled_final/1745_rv.mp4	0.0	96.3834753036499	2.492051839828491
9	78.06173658370972	pulse	1	t		7.0	2.5	/experiments/Knapen_AOT/AOT_stimuli/rescaled_final/1745_rv.mp4	0.0	96.75050735473633	
9	79.66198396682739	pulse	1	t		7.0	2.5	/experiments/Knapen_AOT/AOT_stimuli/rescaled_final/1745_rv.mp4	0.0	98.350754737854	
9	80.18675637245178	fix_post	2		12	7.0	2.5	/experiments/Knapen_AOT/AOT_stimuli/rescaled_final/1745_rv.mp4	0.0	98.8755271434784	0.10002565383911133
10	80.2867820262909	fix_pre	0		118	8.0	2.5	/experiments/Knapen_AOT/AOT_stimuli/rescaled_final/0076_fw.mp4	0.0	98.9755527973175	0.9917981624603271
10	81.2621557712555	pulse	0	t		8.0	2.5	/experiments/Knapen_AOT/AOT_stimuli/rescaled_final/0076_fw.mp4	0.0	99.9509265422821	
10	81.27858018875122	movie	1		289	8.0	2.5	/experiments/Knapen_AOT/AOT_stimuli/rescaled_final/0076_fw.mp4	0.0	99.96735095977783	2.500377655029297
10	82.8636589050293	pulse	1	t		8.0	2.5	/experiments/Knapen_AOT/AOT_stimuli/rescaled_final/0076_fw.mp4	0.0	101.55242967605591	
10	83.77895784378052	fix_post	2		12	8.0	2.5	/experiments/Knapen_AOT/AOT_stimuli/rescaled_final/0076_fw.mp4	0.0	102.46772861480713	0.10001683235168457
11	83.8789746761322	fix_pre	0		120	9.0	2.5	/experiments/Knapen_AOT/AOT_stimuli/rescaled_final/1355_rv.mp4	0.0	102.56774544715881	1.0085303783416748
11	84.46272420883179	pulse	0	t		9.0	2.5	/experiments/Knapen_AOT/AOT_stimuli/rescaled_final/1355_rv.mp4	0.0	103.1514949798584	
11	84.88750505447388	movie	1		281	9.0	2.5	/experiments/Knapen_AOT/AOT_stimuli/rescaled_final/1355_rv.mp4	0.0	103.57627582550049	2.491978883743286
11	86.06133604049683	pulse	1	t		9.0	2.5	/experiments/Knapen_AOT/AOT_stimuli/rescaled_final/1355_rv.mp4	0.0	104.75010681152344	
11	87.37948393821716	fix_post	2		12	9.0	2.5	/experiments/Knapen_AOT/AOT_stimuli/rescaled_final/1355_rv.mp4	0.0	106.06825470924377	0.1000223159790039
12	87.47950625419617	fix_pre	0		120	10.0	2.5	/experiments/Knapen_AOT/AOT_stimuli/rescaled_final/0575_fw.mp4	0.0	106.16827702522278	1.0085537433624268
12	87.66310739517212	pulse	0	t		10.0	2.5	/experiments/Knapen_AOT/AOT_stimuli/rescaled_final/0575_fw.mp4	0.0	106.35187816619873	
12	88.4880599975586	movie	1		280	10.0	2.5	/experiments/Knapen_AOT/AOT_stimuli/rescaled_final/0575_fw.mp4	0.0	107.1768307685852	2.49202299118042
12	89.26151156425476	pulse	1	t		10.0	2.5	/experiments/Knapen_AOT/AOT_stimuli/rescaled_final/0575_fw.mp4	0.0	107.95028233528137	
12	90.86157298088074	pulse	1	t		10.0	2.5	/experiments/Knapen_AOT/AOT_stimuli/rescaled_final/0575_fw.mp4	0.0	109.55034375190735	
12	90.98008298873901	fix_post	2		12	10.0	2.5	/experiments/Knapen_AOT/AOT_stimuli/rescaled_final/0575_fw.mp4	0.0	109.66885375976562	0.09998559951782227
13	91.08006858825684	fix_pre	0		120	11.0	2.5	/experiments/Knapen_AOT/AOT_stimuli/rescaled_final/0378_rv.mp4	0.0	109.76883935928345	1.0084831714630127
13	92.08855175971985	movie	1		289	11.0	2.5	/experiments/Knapen_AOT/AOT_stimuli/rescaled_final/0378_rv.mp4	0.0	110.77732253074646	2.4922056198120117
13	92.46222949028015	pulse	1	t		11.0	2.5	/experiments/Knapen_AOT/AOT_stimuli/rescaled_final/0378_rv.mp4	0.0	111.15100026130676	
13	94.06197714805603	pulse	1	t		11.0	2.5	/experiments/Knapen_AOT/AOT_stimuli/rescaled_final/0378_rv.mp4	0.0	112.75074791908264	
13	94.58075737953186	fix_post	2		12	11.0	2.5	/experiments/Knapen_AOT/AOT_stimuli/rescaled_final/0378_rv.mp4	0.0	113.26952815055847	0.09982728958129883
14	94.68058466911316	fix_pre	0		119	12.0	2.5	/experiments/Knapen_AOT/AOT_stimuli/rescaled_final/0601_rv.mp4	0.0	113.36935544013977	1.0001602172851562
14	95.66429615020752	pulse	0	t		12.0	2.5	/experiments/Knapen_AOT/AOT_stimuli/rescaled_final/0601_rv.mp4	0.0	114.35306692123413	
14	95.68074488639832	movie	1		284	12.0	2.5	/experiments/Knapen_AOT/AOT_stimuli/rescaled_final/0601_rv.mp4	0.0	114.36951565742493	2.5003838539123535
14	97.26469230651855	pulse	1	t		12.0	2.5	/experiments/Knapen_AOT/AOT_stimuli/rescaled_final/0601_rv.mp4	0.0	115.95346307754517	
14	98.18112874031067	fix_post	2		12	12.0	2.5	/experiments/Knapen_AOT/AOT_stimuli/rescaled_final/0601_rv.mp4	0.0	116.86989951133728	0.10002422332763672
15	98.2811529636383	fix_pre	0		120	13.0	2.5	blank	1.0	116.96992373466492	1.0001323223114014
15	98.86478590965271	pulse	0	t		13.0	2.5	blank	1.0	117.55355668067932	
15	99.2812852859497	movie	1		300	13.0	2.5	blank	1.0	117.97005605697632	2.5004758834838867
15	100.46512484550476	pulse	1	t		13.0	2.5	blank	1.0	119.15389561653137	
15	101.7817611694336	fix_post	2		12	13.0	2.5	blank	1.0	120.4705319404602	0.09993219375610352
16	101.8816933631897	fix_pre	0		120	14.0	2.5	/experiments/Knapen_AOT/AOT_stimuli/rescaled_final/1811_fw.mp4	0.0	120.57046413421631	1.0085530281066895
16	102.06527733802795	pulse	0	t		14.0	2.5	/experiments/Knapen_AOT/AOT_stimuli/rescaled_final/1811_fw.mp4	0.0	120.75404810905457	
16	102.89024639129639	movie	1		284	14.0	2.5	/experiments/Knapen_AOT/AOT_stimuli/rescaled_final/1811_fw.mp4	0.0	121.579017162323	2.4920053482055664
16	103.66346764564514	pulse	1	t		14.0	2.5	/experiments/Knapen_AOT/AOT_stimuli/rescaled_final/1811_fw.mp4	0.0	122.35223841667175	
16	105.26386094093323	pulse	1	t		14.0	2.5	/experiments/Knapen_AOT/AOT_stimuli/rescaled_final/1811_fw.mp4	0.0	123.95263171195984	
16	105.38225173950195	fix_post	2		12	14.0	2.5	/experiments/Knapen_AOT/AOT_stimuli/rescaled_final/1811_fw.mp4	0.0	124.07102251052856	0.09996771812438965
17	105.48221945762634	fix_pre	0		120	15.0	2.5	/experiments/Knapen_AOT/AOT_stimuli/rescaled_final/1994_fw.mp4	0.0	124.17099022865295	1.008500337600708
17	106.49071979522705	movie	1		268	15.0	2.5	/experiments/Knapen_AOT/AOT_stimuli/rescaled_final/1994_fw.mp4	0.0	125.17949056625366	2.492149591445923
17	106.86483073234558	pulse	1	t		15.0	2.5	/experiments/Knapen_AOT/AOT_stimuli/rescaled_final/1994_fw.mp4	0.0	125.55360150337219	
17	108.46499490737915	pulse	1	t		15.0	2.5	/experiments/Knapen_AOT/AOT_stimuli/rescaled_final/1994_fw.mp4	0.0	127.15376567840576	
17	108.98286938667297	fix_post	2		12	15.0	2.5	/experiments/Knapen_AOT/AOT_stimuli/rescaled_final/1994_fw.mp4	0.0	127.67164015769958	0.0999448299407959
18	109.08281421661377	fix_pre	0		119	16.0	2.5	/experiments/Knapen_AOT/AOT_stimuli/rescaled_final/0213_fw.mp4	0.0	127.77158498764038	1.0001463890075684
18	110.06653809547424	pulse	0	t		16.0	2.5	/experiments/Knapen_AOT/AOT_stimuli/rescaled_final/0213_fw.mp4	0.0	128.75530886650085	
18	110.08296060562134	movie	1		286	16.0	2.5	/experiments/Knapen_AOT/AOT_stimuli/rescaled_final/0213_fw.mp4	0.0	128.77173137664795	2.5003790855407715
18	111.66520738601685	pulse	1	t		16.0	2.5	/experiments/Knapen_AOT/AOT_stimuli/rescaled_final/0213_fw.mp4	0.0	130.35397815704346	
18	112.58333969116211	fix_post	2		12	16.0	2.5	/experiments/Knapen_AOT/AOT_stimuli/rescaled_final/0213_fw.mp4	0.0	131.27211046218872	0.0999600887298584
19	112.68329977989197	fix_pre	0		120	17.0	2.5	/experiments/Knapen_AOT/AOT_stimuli/rescaled_final/1659_rv.mp4	0.0	131.37207055091858	1.0085177421569824
19	113.26702213287354	pulse	0	t		17.0	2.5	/experiments/Knapen_AOT/AOT_stimuli/rescaled_final/1659_rv.mp4	0.0	131.95579290390015	
19	113.69181752204895	movie	1		276	17.0	2.5	/experiments/Knapen_AOT/AOT_stimuli/rescaled_final/1659_rv.mp4	0.0	132.38058829307556	2.491990804672241
19	114.86596536636353	pulse	1	t		17.0	2.5	/experiments/Knapen_AOT/AOT_stimuli/rescaled_final/1659_rv.mp4	0.0	133.55473613739014	
19	116.18380832672119	fix_post	2		12	17.0	2.5	/experiments/Knapen_AOT/AOT_stimuli/rescaled_final/1659_rv.mp4	0.0	134.8725790977478	0.10003042221069336
20	116.28383874893188	fix_pre	0		120	18.0	2.5	/experiments/Knapen_AOT/AOT_stimuli/rescaled_final/1886_rv.mp4	0.0	134.9726095199585	1.0085430145263672
20	116.4676148891449	pulse	0	t		18.0	2.5	/experiments/Knapen_AOT/AOT_stimuli/rescaled_final/1886_rv.mp4	0.0	135.1563856601715	
20	117.29238176345825	movie	1		277	18.0	2.5	/experiments/Knapen_AOT/AOT_stimuli/rescaled_final/1886_rv.mp4	0.0	135.98115253448486	2.491978645324707
20	118.06779646873474	pulse	1	t		18.0	2.5	/experiments/Knapen_AOT/AOT_stimuli/rescaled_final/1886_rv.mp4	0.0	136.75656723976135	
20	119.66599202156067	pulse	1	t		18.0	2.5	/experiments/Knapen_AOT/AOT_stimuli/rescaled_final/1886_rv.mp4	0.0	138.35476279258728	
20	119.78436040878296	fix_post	2		12	18.0	2.5	/experiments/Knapen_AOT/AOT_stimuli/rescaled_final/1886_rv.mp4	0.0	138.47313117980957	0.10020875930786133
21	119.88456916809082	fix_pre	0		120	19.0	2.5	/experiments/Knapen_AOT/AOT_stimuli/rescaled_final/1108_rv.mp4	0.0	138.57333993911743	1.0083110332489014
21	120.89288020133972	movie	1		281	19.0	2.5	/experiments/Knapen_AOT/AOT_stimuli/rescaled_final/1108_rv.mp4	0.0	139.58165097236633	2.4921305179595947
21	121.26717257499695	pulse	1	t		19.0	2.5	/experiments/Knapen_AOT/AOT_stimuli/rescaled_final/1108_rv.mp4	0.0	139.95594334602356	
21	122.86033344268799	pulse	1	t		19.0	2.5	/experiments/Knapen_AOT/AOT_stimuli/rescaled_final/1108_rv.mp4	0.0	141.5491042137146	
21	123.38501071929932	fix_post	2		12	19.0	2.5	/experiments/Knapen_AOT/AOT_stimuli/rescaled_final/1108_rv.mp4	0.0	142.07378149032593	0.0999903678894043
22	123.48500108718872	fix_pre	0		118	20.0	2.5	blank	1.0	142.17377185821533	0.9834294319152832
22	124.46035599708557	pulse	0	t		20.0	2.5	blank	1.0	143.14912676811218	
22	124.468430519104	movie	1		301	20.0	2.5	blank	1.0	143.15720129013062	2.5086803436279297
22	126.06056118011475	pulse	1	t		20.0	2.5	blank	1.0	144.74933195114136	
22	126.97711086273193	fix_post	2		12	20.0	2.5	blank	1.0	145.66588163375854	0.1000356674194336
23	127.07714653015137	fix_pre	0		120	21.0	2.5	/experiments/Knapen_AOT/AOT_stimuli/rescaled_final/2164_rv.mp4	0.0	145.76591730117798	1.0085043907165527
23	127.66080784797668	pulse	0	t		21.0	2.5	/experiments/Knapen_AOT/AOT_stimuli/rescaled_final/2164_rv.mp4	0.0	146.3495786190033	
23	128.08565092086792	movie	1		262	21.0	2.5	/experiments/Knapen_AOT/AOT_stimuli/rescaled_final/2164_rv.mp4	0.0	146.77442169189453	2.4920167922973633
23	129.26102137565613	pulse	1	t		21.0	2.5	/experiments/Knapen_AOT/AOT_stimuli/rescaled_final/2164_rv.mp4	0.0	147.94979214668274	
23	130.57766771316528	fix_post	2		12	21.0	2.5	/experiments/Knapen_AOT/AOT_stimuli/rescaled_final/2164_rv.mp4	0.0	149.2664384841919	0.10002875328063965
24	130.67769646644592	fix_pre	0		120	22.0	2.5	/experiments/Knapen_AOT/AOT_stimuli/rescaled_final/0534_fw.mp4	0.0	149.36646723747253	1.008476734161377
24	130.86126565933228	pulse	0	t		22.0	2.5	/experiments/Knapen_AOT/AOT_stimuli/rescaled_final/0534_fw.mp4	0.0	149.5500364303589	
24	131.6861732006073	movie	1		283	22.0	2.5	/experiments/Knapen_AOT/AOT_stimuli/rescaled_final/0534_fw.mp4	0.0	150.3749439716339	2.492051362991333
24	132.46169328689575	pulse	1	t		22.0	2.5	/experiments/Knapen_AOT/AOT_stimuli/rescaled_final/0534_fw.mp4	0.0	151.15046405792236	
24	134.06168818473816	pulse	1	t		22.0	2.5	/experiments/Knapen_AOT/AOT_stimuli/rescaled_final/0534_fw.mp4	0.0	152.75045895576477	
24	134.17822456359863	fix_post	2		12	22.0	2.5	/experiments/Knapen_AOT/AOT_stimuli/rescaled_final/0534_fw.mp4	0.0	152.86699533462524	0.0999755859375
25	134.27820014953613	fix_pre	0		120	23.0	2.5	/experiments/Knapen_AOT/AOT_stimuli/rescaled_final/1811_fw.mp4	0.0	152.96697092056274	1.0085489749908447
25	135.28674912452698	movie	1		276	23.0	2.5	/experiments/Knapen_AOT/AOT_stimuli/rescaled_final/1811_fw.mp4	0.0	153.9755198955536	2.4919893741607666
25	135.66075825691223	pulse	1	t		23.0	2.5	/experiments/Knapen_AOT/AOT_stimuli/rescaled_final/1811_fw.mp4	0.0	154.34952902793884	
25	137.26076555252075	pulse	1	t		23.0	2.5	/experiments/Knapen_AOT/AOT_stimuli/rescaled_final/1811_fw.mp4	0.0	155.94953632354736	
25	137.77873849868774	fix_post	2		12	23.0	2.5	/experiments/Knapen_AOT/AOT_stimuli/rescaled_final/1811_fw.mp4	0.0	156.46750926971436	0.10002851486206055
26	137.8787670135498	fix_pre	0		119	24.0	2.5	/experiments/Knapen_AOT/AOT_stimuli/rescaled_final/1430_fw.mp4	0.0	156.56753778457642	1.0001280307769775
26	138.86244535446167	pulse	0	t		24.0	2.5	/experiments/Knapen_AOT/AOT_stimuli/rescaled_final/1430_fw.mp4	0.0	157.55121612548828	
26	138.87889504432678	movie	1		282	24.0	2.5	/experiments/Knapen_AOT/AOT_stimuli/rescaled_final/1430_fw.mp4	0.0	157.5676658153534	2.500379800796509
26	140.4613425731659	pulse	1	t		24.0	2.5	/experiments/Knapen_AOT/AOT_stimuli/rescaled_final/1430_fw.mp4	0.0	159.1501133441925	
26	141.3792748451233	fix_post	2		12	24.0	2.5	/experiments/Knapen_AOT/AOT_stimuli/rescaled_final/1430_fw.mp4	0.0	160.0680456161499	0.10002541542053223
27	141.47930026054382	fix_pre	0		120	25.0	2.5	/experiments/Knapen_AOT/AOT_stimuli/rescaled_final/0939_fw.mp4	0.0	160.16807103157043	1.0085177421569824
27	142.06295251846313	pulse	0	t		25.0	2.5	/experiments/Knapen_AOT/AOT_stimuli/rescaled_final/0939_fw.mp4	0.0	160.75172328948975	
27	142.4878180027008	movie	1		288	25.0	2.5	/experiments/Knapen_AOT/AOT_stimuli/rescaled_final/0939_fw.mp4	0.0	161.17658877372742	2.492004156112671
27	143.66124987602234	pulse	1	t		25.0	2.5	/experiments/Knapen_AOT/AOT_stimuli/rescaled_final/0939_fw.mp4	0.0	162.35002064704895	
27	144.97982215881348	fix_post	2		12	25.0	2.5	/experiments/Knapen_AOT/AOT_stimuli/rescaled_final/0939_fw.mp4	0.0	163.6685929298401	0.10001492500305176
28	145.07983708381653	fix_pre	0		120	26.0	2.5	/experiments/Knapen_AOT/AOT_stimuli/rescaled_final/1717_fw.mp4	0.0	163.76860785484314	1.0086543560028076
28	145.2634539604187	pulse	0	t		26.0	2.5	/experiments/Knapen_AOT/AOT_stimuli/rescaled_final/1717_fw.mp4	0.0	163.9522247314453	
28	146.08849143981934	movie	1		284	26.0	2.5	/experiments/Knapen_AOT/AOT_stimuli/rescaled_final/1717_fw.mp4	0.0	164.77726221084595	2.491898775100708
28	146.86184430122375	pulse	1	t		26.0	2.5	/experiments/Knapen_AOT/AOT_stimuli/rescaled_final/1717_fw.mp4	0.0	165.55061507225037	
28	148.46222925186157	pulse	1	t		26.0	2.5	/experiments/Knapen_AOT/AOT_stimuli/rescaled_final/1717_fw.mp4	0.0	167.15100002288818	
28	148.58039021492004	fix_post	2		12	26.0	2.5	/experiments/Knapen_AOT/AOT_stimuli/rescaled_final/1717_fw.mp4	0.0	167.26916098594666	0.09998059272766113
29	148.6803708076477	fix_pre	0		120	27.0	2.5	/experiments/Knapen_AOT/AOT_stimuli/rescaled_final/0886_rv.mp4	0.0	167.36914157867432	1.0085079669952393
29	149.68887877464294	movie	1		280	27.0	2.5	/experiments/Knapen_AOT/AOT_stimuli/rescaled_final/0886_rv.mp4	0.0	168.37764954566956	2.4920220375061035
29	150.06354975700378	pulse	1	t		27.0	2.5	/experiments/Knapen_AOT/AOT_stimuli/rescaled_final/0886_rv.mp4	0.0	168.7523205280304	
29	151.66250443458557	pulse	1	t		27.0	2.5	/experiments/Knapen_AOT/AOT_stimuli/rescaled_final/0886_rv.mp4	0.0	170.35127520561218	
29	152.18090081214905	fix_post	2		12	27.0	2.5	/experiments/Knapen_AOT/AOT_stimuli/rescaled_final/0886_rv.mp4	0.0	170.86967158317566	0.10003042221069336
30	152.28093123435974	fix_pre	0		119	28.0	2.5	blank	1.0	170.96970200538635	0.9918413162231445
30	153.26476311683655	pulse	0	t		28.0	2.5	blank	1.0	171.95353388786316	
30	153.27277255058289	movie	1		301	28.0	2.5	blank	1.0	171.9615433216095	2.5086867809295654
30	154.86484360694885	pulse	1	t		28.0	2.5	blank	1.0	173.55361437797546	
30	155.78145933151245	fix_post	2		12	28.0	2.5	blank	1.0	174.47023010253906	0.1000063419342041
31	155.88146567344666	fix_pre	0		120	29.0	2.5	/experiments/Knapen_AOT/AOT_stimuli/rescaled_final/0592_fw.mp4	0.0	174.57023644447327	1.0085208415985107
31	156.46509385108948	pulse	0	t		29.0	2.5	/experiments/Knapen_AOT/AOT_stimuli/rescaled_final/0592_fw.mp4	0.0	175.1538646221161	
31	156.88998651504517	movie	1		286	29.0	2.5	/experiments/Knapen_AOT/AOT_stimuli/rescaled_final/0592_fw.mp4	0.0	175.57875728607178	2.492013692855835
31	158.0635416507721	pulse	1	t		29.0	2.5	/experiments/Knapen_AOT/AOT_stimuli/rescaled_final/0592_fw.mp4	0.0	176.7523124217987	
31	159.382000207901	fix_post	2		12	29.0	2.5	/experiments/Knapen_AOT/AOT_stimuli/rescaled_final/0592_fw.mp4	0.0	178.0707709789276	0.10003805160522461
32	159.48203825950623	fix_pre	0		120	30.0	2.5	/experiments/Knapen_AOT/AOT_stimuli/rescaled_final/0473_rv.mp4	0.0	178.17080903053284	1.00852632522583
32	159.6655511856079	pulse	0	t		30.0	2.5	/experiments/Knapen_AOT/AOT_stimuli/rescaled_final/0473_rv.mp4	0.0	178.35432195663452	
32	160.49056458473206	movie	1		266	30.0	2.5	/experiments/Knapen_AOT/AOT_stimuli/rescaled_final/0473_rv.mp4	0.0	179.17933535575867	2.491960048675537
32	161.26383757591248	pulse	1	t		30.0	2.5	/experiments/Knapen_AOT/AOT_stimuli/rescaled_final/0473_rv.mp4	0.0	179.9526083469391	
32	162.86608505249023	pulse	1	t		30.0	2.5	/experiments/Knapen_AOT/AOT_stimuli/rescaled_final/0473_rv.mp4	0.0	181.55485582351685	
32	162.9825246334076	fix_post	2		12	30.0	2.5	/experiments/Knapen_AOT/AOT_stimuli/rescaled_final/0473_rv.mp4	0.0	181.6712954044342	0.10004043579101562
33	163.0825650691986	fix_pre	0		120	31.0	2.5	/experiments/Knapen_AOT/AOT_stimuli/rescaled_final/1828_fw.mp4	0.0	181.77133584022522	1.008518934249878
33	164.0910840034485	movie	1		274	31.0	2.5	/experiments/Knapen_AOT/AOT_stimuli/rescaled_final/1828_fw.mp4	0.0	182.7798547744751	2.4921388626098633
33	164.46523594856262	pulse	1	t		31.0	2.5	/experiments/Knapen_AOT/AOT_stimuli/rescaled_final/1828_fw.mp4	0.0	183.15400671958923	
33	166.0651183128357	pulse	1	t		31.0	2.5	/experiments/Knapen_AOT/AOT_stimuli/rescaled_final/1828_fw.mp4	0.0	184.7538890838623	
33	166.58322286605835	fix_post	2		12	31.0	2.5	/experiments/Knapen_AOT/AOT_stimuli/rescaled_final/1828_fw.mp4	0.0	185.27199363708496	0.09992289543151855
34	166.68314576148987	fix_pre	0		119	32.0	2.5	/experiments/Knapen_AOT/AOT_stimuli/rescaled_final/1651_rv.mp4	0.0	185.37191653251648	1.0001378059387207
34	167.66680526733398	pulse	0	t		32.0	2.5	/experiments/Knapen_AOT/AOT_stimuli/rescaled_final/1651_rv.mp4	0.0	186.3555760383606	
34	167.6832835674286	movie	1		270	32.0	2.5	/experiments/Knapen_AOT/AOT_stimuli/rescaled_final/1651_rv.mp4	0.0	186.3720543384552	2.5003421306610107
34	169.2654995918274	pulse	1	t		32.0	2.5	/experiments/Knapen_AOT/AOT_stimuli/rescaled_final/1651_rv.mp4	0.0	187.954270362854	
34	170.1836256980896	fix_post	2		12	32.0	2.5	/experiments/Knapen_AOT/AOT_stimuli/rescaled_final/1651_rv.mp4	0.0	188.8723964691162	0.10020136833190918
35	170.2838270664215	fix_pre	0		120	33.0	2.5	/experiments/Knapen_AOT/AOT_stimuli/rescaled_final/1278_fw.mp4	0.0	188.97259783744812	1.0083162784576416
35	170.86741638183594	pulse	0	t		33.0	2.5	/experiments/Knapen_AOT/AOT_stimuli/rescaled_final/1278_fw.mp4	0.0	189.55618715286255	
35	171.29214334487915	movie	1		285	33.0	2.5	/experiments/Knapen_AOT/AOT_stimuli/rescaled_final/1278_fw.mp4	0.0	189.98091411590576	2.4920105934143066
35	172.46592807769775	pulse	1	t		33.0	2.5	/experiments/Knapen_AOT/AOT_stimuli/rescaled_final/1278_fw.mp4	0.0	191.15469884872437	
35	173.78415393829346	fix_post	2		12	33.0	2.5	/experiments/Knapen_AOT/AOT_stimuli/rescaled_final/1278_fw.mp4	0.0	192.47292470932007	0.10002517700195312
36	173.8841791152954	fix_pre	0		120	34.0	2.5	blank	1.0	192.57294988632202	1.000145673751831
36	174.06774854660034	pulse	0	t		34.0	2.5	blank	1.0	192.75651931762695	
36	174.88432478904724	movie	1		300	34.0	2.5	blank	1.0	193.57309556007385	2.5003662109375
36	175.6682379245758	pulse	1	t		34.0	2.5	blank	1.0	194.35700869560242	
36	177.26835823059082	pulse	1	t		34.0	2.5	blank	1.0	195.95712900161743	
36	177.38469099998474	fix_post	2		12	34.0	2.5	blank	1.0	196.07346177101135	0.1000208854675293
37	177.48471188545227	fix_pre	0		120	35.0	2.5	/experiments/Knapen_AOT/AOT_stimuli/rescaled_final/1214_rv.mp4	0.0	196.17348265647888	1.008631706237793
37	178.49334359169006	movie	1		275	35.0	2.5	/experiments/Knapen_AOT/AOT_stimuli/rescaled_final/1214_rv.mp4	0.0	197.18211436271667	2.4918906688690186
37	178.86681818962097	pulse	1	t		35.0	2.5	/experiments/Knapen_AOT/AOT_stimuli/rescaled_final/1214_rv.mp4	0.0	197.55558896064758	
37	180.4606852531433	pulse	1	t		35.0	2.5	/experiments/Knapen_AOT/AOT_stimuli/rescaled_final/1214_rv.mp4	0.0	199.14945602416992	
37	180.98523426055908	fix_post	2		12	35.0	2.5	/experiments/Knapen_AOT/AOT_stimuli/rescaled_final/1214_rv.mp4	0.0	199.6740050315857	0.10002565383911133
38	181.0852599143982	fix_pre	0		118	36.0	2.5	/experiments/Knapen_AOT/AOT_stimuli/rescaled_final/2165_rv.mp4	0.0	199.7740306854248	0.9918074607849121
38	182.06075763702393	pulse	0	t		36.0	2.5	/experiments/Knapen_AOT/AOT_stimuli/rescaled_final/2165_rv.mp4	0.0	200.74952840805054	
38	182.0770673751831	movie	1		279	36.0	2.5	/experiments/Knapen_AOT/AOT_stimuli/rescaled_final/2165_rv.mp4	0.0	200.76583814620972	2.500384569168091
38	183.6610779762268	pulse	1	t		36.0	2.5	/experiments/Knapen_AOT/AOT_stimuli/rescaled_final/2165_rv.mp4	0.0	202.34984874725342	
38	184.5774519443512	fix_post	2		12	36.0	2.5	/experiments/Knapen_AOT/AOT_stimuli/rescaled_final/2165_rv.mp4	0.0	203.2662227153778	0.1000070571899414
39	184.67745900154114	fix_pre	0		120	37.0	2.5	/experiments/Knapen_AOT/AOT_stimuli/rescaled_final/1875_fw.mp4	0.0	203.36622977256775	1.0085196495056152
39	185.26123881340027	pulse	0	t		37.0	2.5	/experiments/Knapen_AOT/AOT_stimuli/rescaled_final/1875_fw.mp4	0.0	203.95000958442688	
39	185.68597865104675	movie	1		280	37.0	2.5	/experiments/Knapen_AOT/AOT_stimuli/rescaled_final/1875_fw.mp4	0.0	204.37474942207336	2.492029905319214
39	186.86177897453308	pulse	1	t		37.0	2.5	/experiments/Knapen_AOT/AOT_stimuli/rescaled_final/1875_fw.mp4	0.0	205.5505497455597	
39	188.17800855636597	fix_post	2		12	37.0	2.5	/experiments/Knapen_AOT/AOT_stimuli/rescaled_final/1875_fw.mp4	0.0	206.86677932739258	0.10001659393310547
40	188.27802515029907	fix_pre	0		120	38.0	2.5	/experiments/Knapen_AOT/AOT_stimuli/rescaled_final/1828_rv.mp4	0.0	206.96679592132568	1.008481740951538
40	188.4616494178772	pulse	0	t		38.0	2.5	/experiments/Knapen_AOT/AOT_stimuli/rescaled_final/1828_rv.mp4	0.0	207.1504201889038	
40	189.2865068912506	movie	1		275	38.0	2.5	/experiments/Knapen_AOT/AOT_stimuli/rescaled_final/1828_rv.mp4	0.0	207.97527766227722	2.4921343326568604
40	190.0618486404419	pulse	1	t		38.0	2.5	/experiments/Knapen_AOT/AOT_stimuli/rescaled_final/1828_rv.mp4	0.0	208.7506194114685	
40	191.66222310066223	pulse	1	t		38.0	2.5	/experiments/Knapen_AOT/AOT_stimuli/rescaled_final/1828_rv.mp4	0.0	210.35099387168884	
40	191.77864122390747	fix_post	2		12	38.0	2.5	/experiments/Knapen_AOT/AOT_stimuli/rescaled_final/1828_rv.mp4	0.0	210.46741199493408	0.09992599487304688
41	191.87856721878052	fix_pre	0		120	39.0	2.5	/experiments/Knapen_AOT/AOT_stimuli/rescaled_final/0573_fw.mp4	0.0	210.56733798980713	1.0085031986236572
41	192.88707041740417	movie	1		283	39.0	2.5	/experiments/Knapen_AOT/AOT_stimuli/rescaled_final/0573_fw.mp4	0.0	211.5758411884308	2.4920389652252197
41	193.2624340057373	pulse	1	t		39.0	2.5	/experiments/Knapen_AOT/AOT_stimuli/rescaled_final/0573_fw.mp4	0.0	211.95120477676392	
41	194.86263227462769	pulse	1	t		39.0	2.5	/experiments/Knapen_AOT/AOT_stimuli/rescaled_final/0573_fw.mp4	0.0	213.5514030456543	
41	195.3791093826294	fix_post	2		12	39.0	2.5	/experiments/Knapen_AOT/AOT_stimuli/rescaled_final/0573_fw.mp4	0.0	214.067880153656	0.09997916221618652
42	195.47908854484558	fix_pre	0		119	40.0	2.5	/experiments/Knapen_AOT/AOT_stimuli/rescaled_final/2107_fw.mp4	0.0	214.1678593158722	1.0001630783081055
42	196.46299147605896	pulse	0	t		40.0	2.5	/experiments/Knapen_AOT/AOT_stimuli/rescaled_final/2107_fw.mp4	0.0	215.15176224708557	
42	196.4792516231537	movie	1		279	40.0	2.5	/experiments/Knapen_AOT/AOT_stimuli/rescaled_final/2107_fw.mp4	0.0	215.1680223941803	2.5003628730773926
42	198.06167340278625	pulse	1	t		40.0	2.5	/experiments/Knapen_AOT/AOT_stimuli/rescaled_final/2107_fw.mp4	0.0	216.75044417381287	
42	198.97961449623108	fix_post	2		12	40.0	2.5	/experiments/Knapen_AOT/AOT_stimuli/rescaled_final/2107_fw.mp4	0.0	217.6683852672577	0.10002255439758301
43	199.07963705062866	fix_pre	0		120	41.0	2.5	/experiments/Knapen_AOT/AOT_stimuli/rescaled_final/1560_rv.mp4	0.0	217.76840782165527	1.0085687637329102
43	199.66340136528015	pulse	0	t		41.0	2.5	/experiments/Knapen_AOT/AOT_stimuli/rescaled_final/1560_rv.mp4	0.0	218.35217213630676	
43	200.08820581436157	movie	1		282	41.0	2.5	/experiments/Knapen_AOT/AOT_stimuli/rescaled_final/1560_rv.mp4	0.0	218.77697658538818	2.491950035095215
43	201.2634994983673	pulse	1	t		41.0	2.5	/experiments/Knapen_AOT/AOT_stimuli/rescaled_final/1560_rv.mp4	0.0	219.95227026939392	
43	202.5801558494568	fix_post	2		12	41.0	2.5	/experiments/Knapen_AOT/AOT_stimuli/rescaled_final/1560_rv.mp4	0.0	221.2689266204834	0.10006189346313477
44	202.68021774291992	fix_pre	0		120	42.0	2.5	blank	1.0	221.36898851394653	1.0001821517944336
44	202.86398148536682	pulse	0	t		42.0	2.5	blank	1.0	221.55275225639343	
44	203.68039989471436	movie	1		300	42.0	2.5	blank	1.0	222.36917066574097	2.500296115875244
44	204.4640974998474	pulse	1	t		42.0	2.5	blank	1.0	223.15286827087402	
44	206.06426787376404	pulse	1	t		42.0	2.5	blank	1.0	224.75303864479065	
44	206.1806960105896	fix_post	2		12	42.0	2.5	blank	1.0	224.8694667816162	0.10007500648498535
45	206.28077101707458	fix_pre	0		120	43.0	2.5	/experiments/Knapen_AOT/AOT_stimuli/rescaled_final/1018_fw.mp4	0.0	224.9695417881012	1.0084385871887207
45	207.2892096042633	movie	1		276	43.0	2.5	/experiments/Knapen_AOT/AOT_stimuli/rescaled_final/1018_fw.mp4	0.0	225.97798037528992	2.4922263622283936
45	207.66331958770752	pulse	1	t		43.0	2.5	/experiments/Knapen_AOT/AOT_stimuli/rescaled_final/1018_fw.mp4	0.0	226.35209035873413	
45	209.2633216381073	pulse	1	t		43.0	2.5	/experiments/Knapen_AOT/AOT_stimuli/rescaled_final/1018_fw.mp4	0.0	227.9520924091339	
45	209.7814359664917	fix_post	2		12	43.0	2.5	/experiments/Knapen_AOT/AOT_stimuli/rescaled_final/1018_fw.mp4	0.0	228.4702067375183	0.09982919692993164
46	209.88126516342163	fix_pre	0		119	44.0	2.5	/experiments/Knapen_AOT/AOT_stimuli/rescaled_final/1902_fw.mp4	0.0	228.57003593444824	1.0001516342163086
46	210.86489939689636	pulse	0	t		44.0	2.5	/experiments/Knapen_AOT/AOT_stimuli/rescaled_final/1902_fw.mp4	0.0	229.55367016792297	
46	210.88141679763794	movie	1		278	44.0	2.5	/experiments/Knapen_AOT/AOT_stimuli/rescaled_final/1902_fw.mp4	0.0	229.57018756866455	2.500366449356079
46	212.46370148658752	pulse	1	t		44.0	2.5	/experiments/Knapen_AOT/AOT_stimuli/rescaled_final/1902_fw.mp4	0.0	231.15247225761414	
46	213.38178324699402	fix_post	2		12	44.0	2.5	/experiments/Knapen_AOT/AOT_stimuli/rescaled_final/1902_fw.mp4	0.0	232.07055401802063	0.10004186630249023
47	213.4818251132965	fix_pre	0		120	45.0	2.5	/experiments/Knapen_AOT/AOT_stimuli/rescaled_final/0939_rv.mp4	0.0	232.17059588432312	1.008476972579956
47	214.06537294387817	pulse	0	t		45.0	2.5	/experiments/Knapen_AOT/AOT_stimuli/rescaled_final/0939_rv.mp4	0.0	232.75414371490479	
47	214.49030208587646	movie	1		276	45.0	2.5	/experiments/Knapen_AOT/AOT_stimuli/rescaled_final/0939_rv.mp4	0.0	233.17907285690308	2.4920284748077393
47	215.66395616531372	pulse	1	t		45.0	2.5	/experiments/Knapen_AOT/AOT_stimuli/rescaled_final/0939_rv.mp4	0.0	234.35272693634033	
47	216.9823305606842	fix_post	2		12	45.0	2.5	/experiments/Knapen_AOT/AOT_stimuli/rescaled_final/0939_rv.mp4	0.0	235.67110133171082	0.10004091262817383
48	217.08237147331238	fix_pre	0		120	46.0	2.5	/experiments/Knapen_AOT/AOT_stimuli/rescaled_final/0029_rv.mp4	0.0	235.771142244339	1.0084662437438965
48	217.26585865020752	pulse	0	t		46.0	2.5	/experiments/Knapen_AOT/AOT_stimuli/rescaled_final/0029_rv.mp4	0.0	235.95462942123413	
48	218.09083771705627	movie	1		259	46.0	2.5	/experiments/Knapen_AOT/AOT_stimuli/rescaled_final/0029_rv.mp4	0.0	236.77960848808289	2.492020845413208
48	218.86751651763916	pulse	1	t		46.0	2.5	/experiments/Knapen_AOT/AOT_stimuli/rescaled_final/0029_rv.mp4	0.0	237.55628728866577	
48	220.46437644958496	pulse	1	t		46.0	2.5	/experiments/Knapen_AOT/AOT_stimuli/rescaled_final/0029_rv.mp4	0.0	239.15314722061157	
48	220.58285856246948	fix_post	2		12	46.0	2.5	/experiments/Knapen_AOT/AOT_stimuli/rescaled_final/0029_rv.mp4	0.0	239.2716293334961	0.10006237030029297
49	220.68292093276978	fix_pre	0		120	47.0	2.5	/experiments/Knapen_AOT/AOT_stimuli/rescaled_final/0811_fw.mp4	0.0	239.3716917037964	1.0084476470947266
49	221.6913685798645	movie	1		272	47.0	2.5	/experiments/Knapen_AOT/AOT_stimuli/rescaled_final/0811_fw.mp4	0.0	240.3801393508911	2.4920337200164795
49	222.0651776790619	pulse	1	t		47.0	2.5	/experiments/Knapen_AOT/AOT_stimuli/rescaled_final/0811_fw.mp4	0.0	240.7539484500885	
49	223.66511726379395	pulse	1	t		47.0	2.5	/experiments/Knapen_AOT/AOT_stimuli/rescaled_final/0811_fw.mp4	0.0	242.35388803482056	
49	224.18340229988098	fix_post	2		12	47.0	2.5	/experiments/Knapen_AOT/AOT_stimuli/rescaled_final/0811_fw.mp4	0.0	242.8721730709076	0.10004234313964844
50	224.28344464302063	fix_pre	0		119	48.0	2.5	blank	1.0	242.97221541404724	0.9917848110198975
50	225.2671399116516	pulse	0	t		48.0	2.5	blank	1.0	243.95591068267822	
50	225.27522945404053	movie	1		301	48.0	2.5	blank	1.0	243.96400022506714	2.5087332725524902
50	226.86752104759216	pulse	1	t		48.0	2.5	blank	1.0	245.55629181861877	
50	227.78396272659302	fix_post	2		12	48.0	2.5	blank	1.0	246.47273349761963	0.10006999969482422
51	227.88403272628784	fix_pre	0		120	49.0	2.5	/experiments/Knapen_AOT/AOT_stimuli/rescaled_final/0830_fw.mp4	0.0	246.57280349731445	1.0084238052368164
51	228.46763634681702	pulse	0	t		49.0	2.5	/experiments/Knapen_AOT/AOT_stimuli/rescaled_final/0830_fw.mp4	0.0	247.15640711784363	
51	228.89245653152466	movie	1		270	49.0	2.5	/experiments/Knapen_AOT/AOT_stimuli/rescaled_final/0830_fw.mp4	0.0	247.58122730255127	2.492060422897339
51	230.06626510620117	pulse	1	t		49.0	2.5	/experiments/Knapen_AOT/AOT_stimuli/rescaled_final/0830_fw.mp4	0.0	248.75503587722778	
51	231.384516954422	fix_post	2		12	49.0	2.5	/experiments/Knapen_AOT/AOT_stimuli/rescaled_final/0830_fw.mp4	0.0	250.0732877254486	0.10004448890686035
52	231.48456144332886	fix_pre	0		120	50.0	2.5	/experiments/Knapen_AOT/AOT_stimuli/rescaled_final/2077_fw.mp4	0.0	250.17333221435547	1.0084667205810547
52	231.66810369491577	pulse	0	t		50.0	2.5	/experiments/Knapen_AOT/AOT_stimuli/rescaled_final/2077_fw.mp4	0.0	250.35687446594238	
52	232.4930281639099	movie	1		286	50.0	2.5	/experiments/Knapen_AOT/AOT_stimuli/rescaled_final/2077_fw.mp4	0.0	251.18179893493652	2.4920151233673096
52	233.26668238639832	pulse	1	t		50.0	2.5	/experiments/Knapen_AOT/AOT_stimuli/rescaled_final/2077_fw.mp4	0.0	251.95545315742493	
52	234.8667254447937	pulse	1	t		50.0	2.5	/experiments/Knapen_AOT/AOT_stimuli/rescaled_final/2077_fw.mp4	0.0	253.5554962158203	
52	234.98504328727722	fix_post	2		12	50.0	2.5	/experiments/Knapen_AOT/AOT_stimuli/rescaled_final/2077_fw.mp4	0.0	253.67381405830383	0.10002446174621582
53	235.08506774902344	fix_pre	0		120	51.0	2.5	/experiments/Knapen_AOT/AOT_stimuli/rescaled_final/0161_rv.mp4	0.0	253.77383852005005	1.00846529006958
53	236.09353303909302	movie	1		287	51.0	2.5	/experiments/Knapen_AOT/AOT_stimuli/rescaled_final/0161_rv.mp4	0.0	254.78230381011963	2.492088556289673
53	236.4673044681549	pulse	1	t		51.0	2.5	/experiments/Knapen_AOT/AOT_stimuli/rescaled_final/0161_rv.mp4	0.0	255.15607523918152	
53	238.06843185424805	pulse	1	t		51.0	2.5	/experiments/Knapen_AOT/AOT_stimuli/rescaled_final/0161_rv.mp4	0.0	256.75720262527466	
53	238.5856215953827	fix_post	2		12	51.0	2.5	/experiments/Knapen_AOT/AOT_stimuli/rescaled_final/0161_rv.mp4	0.0	257.2743923664093	0.0999758243560791
54	238.68559741973877	fix_pre	0		118	52.0	2.5	/experiments/Knapen_AOT/AOT_stimuli/rescaled_final/2077_fw.mp4	0.0	257.3743681907654	0.991847038269043
54	239.66106486320496	pulse	0	t		52.0	2.5	/experiments/Knapen_AOT/AOT_stimuli/rescaled_final/2077_fw.mp4	0.0	258.34983563423157	
54	239.6774444580078	movie	1		285	52.0	2.5	/experiments/Knapen_AOT/AOT_stimuli/rescaled_final/2077_fw.mp4	0.0	258.3662152290344	2.500447988510132
54	241.26155734062195	pulse	1	t		52.0	2.5	/experiments/Knapen_AOT/AOT_stimuli/rescaled_final/2077_fw.mp4	0.0	259.95032811164856	
54	242.17789244651794	fix_post	2		12	52.0	2.5	/experiments/Knapen_AOT/AOT_stimuli/rescaled_final/2077_fw.mp4	0.0	260.86666321754456	0.10001540184020996
55	242.27790784835815	fix_pre	0		120	53.0	2.5	/experiments/Knapen_AOT/AOT_stimuli/rescaled_final/0208_rv.mp4	0.0	260.96667861938477	1.00850248336792
55	242.86159491539001	pulse	0	t		53.0	2.5	/experiments/Knapen_AOT/AOT_stimuli/rescaled_final/0208_rv.mp4	0.0	261.5503656864166	
55	243.28641033172607	movie	1		278	53.0	2.5	/experiments/Knapen_AOT/AOT_stimuli/rescaled_final/0208_rv.mp4	0.0	261.9751811027527	2.4918980598449707
55	244.4618854522705	pulse	1	t		53.0	2.5	/experiments/Knapen_AOT/AOT_stimuli/rescaled_final/0208_rv.mp4	0.0	263.1506562232971	
55	245.77830839157104	fix_post	2		12	53.0	2.5	/experiments/Knapen_AOT/AOT_stimuli/rescaled_final/0208_rv.mp4	0.0	264.46707916259766	0.10004997253417969
56	245.87835836410522	fix_pre	0		120	54.0	2.5	blank	1.0	264.56712913513184	1.0001540184020996
56	246.06196928024292	pulse	0	t		54.0	2.5	blank	1.0	264.75074005126953	
56	246.87851238250732	movie	1		300	54.0	2.5	blank	1.0	265.56728315353394	2.500401735305786
56	247.662171125412	pulse	1	t		54.0	2.5	blank	1.0	266.3509418964386	
56	249.26245784759521	pulse	1	t		54.0	2.5	blank	1.0	267.9512286186218	
56	249.3789141178131	fix_post	2		12	54.0	2.5	blank	1.0	268.0676848888397	0.10002589225769043
57	249.4789400100708	fix_pre	0		120	55.0	2.5	/experiments/Knapen_AOT/AOT_stimuli/rescaled_final/1994_fw.mp4	0.0	268.1677107810974	1.0084257125854492
57	250.48736572265625	movie	1		278	55.0	2.5	/experiments/Knapen_AOT/AOT_stimuli/rescaled_final/1994_fw.mp4	0.0	269.17613649368286	2.492032766342163
57	250.86124968528748	pulse	1	t		55.0	2.5	/experiments/Knapen_AOT/AOT_stimuli/rescaled_final/1994_fw.mp4	0.0	269.5500204563141	
57	252.46133756637573	pulse	1	t		55.0	2.5	/experiments/Knapen_AOT/AOT_stimuli/rescaled_final/1994_fw.mp4	0.0	271.15010833740234	
57	252.9793984889984	fix_post	2		12	55.0	2.5	/experiments/Knapen_AOT/AOT_stimuli/rescaled_final/1994_fw.mp4	0.0	271.668169260025	0.10002970695495605
58	253.07942819595337	fix_pre	0		119	56.0	2.5	/experiments/Knapen_AOT/AOT_stimuli/rescaled_final/1463_fw.mp4	0.0	271.76819896698	1.000152826309204
58	254.0633509159088	pulse	0	t		56.0	2.5	/experiments/Knapen_AOT/AOT_stimuli/rescaled_final/1463_fw.mp4	0.0	272.7521216869354	
58	254.07958102226257	movie	1		273	56.0	2.5	/experiments/Knapen_AOT/AOT_stimuli/rescaled_final/1463_fw.mp4	0.0	272.7683517932892	2.500422716140747
58	255.66403937339783	pulse	1	t		56.0	2.5	/experiments/Knapen_AOT/AOT_stimuli/rescaled_final/1463_fw.mp4	0.0	274.35281014442444	
58	256.5800037384033	fix_post	2		12	56.0	2.5	/experiments/Knapen_AOT/AOT_stimuli/rescaled_final/1463_fw.mp4	0.0	275.26877450942993	0.10010790824890137
59	256.6801116466522	fix_pre	0		120	57.0	2.5	/experiments/Knapen_AOT/AOT_stimuli/rescaled_final/1422_rv.mp4	0.0	275.36888241767883	1.0084569454193115
59	257.26361870765686	pulse	0	t		57.0	2.5	/experiments/Knapen_AOT/AOT_stimuli/rescaled_final/1422_rv.mp4	0.0	275.9523894786835	
59	257.68856859207153	movie	1		272	57.0	2.5	/experiments/Knapen_AOT/AOT_stimuli/rescaled_final/1422_rv.mp4	0.0	276.37733936309814	2.4919140338897705
59	258.86236572265625	pulse	1	t		57.0	2.5	/experiments/Knapen_AOT/AOT_stimuli/rescaled_final/1422_rv.mp4	0.0	277.55113649368286	
59	260.1804826259613	fix_post	2		12	57.0	2.5	/experiments/Knapen_AOT/AOT_stimuli/rescaled_final/1422_rv.mp4	0.0	278.8692533969879	0.1000826358795166
60	260.2805652618408	fix_pre	0		120	58.0	2.5	/experiments/Knapen_AOT/AOT_stimuli/rescaled_final/1053_fw.mp4	0.0	278.96933603286743	1.0084583759307861
60	260.4641683101654	pulse	0	t		58.0	2.5	/experiments/Knapen_AOT/AOT_stimuli/rescaled_final/1053_fw.mp4	0.0	279.152939081192	
60	261.2890236377716	movie	1		275	58.0	2.5	/experiments/Knapen_AOT/AOT_stimuli/rescaled_final/1053_fw.mp4	0.0	279.9777944087982	2.4920549392700195
60	262.0630078315735	pulse	1	t		58.0	2.5	/experiments/Knapen_AOT/AOT_stimuli/rescaled_final/1053_fw.mp4	0.0	280.7517786026001	
60	263.66271710395813	pulse	1	t		58.0	2.5	/experiments/Knapen_AOT/AOT_stimuli/rescaled_final/1053_fw.mp4	0.0	282.35148787498474	
60	263.7810785770416	fix_post	2		12	58.0	2.5	/experiments/Knapen_AOT/AOT_stimuli/rescaled_final/1053_fw.mp4	0.0	282.46984934806824	0.1000216007232666
61	263.8811001777649	fix_pre	0		120	59.0	2.5	/experiments/Knapen_AOT/AOT_stimuli/rescaled_final/0398_fw.mp4	0.0	282.5698709487915	1.0085017681121826
61	264.8896019458771	movie	1		279	59.0	2.5	/experiments/Knapen_AOT/AOT_stimuli/rescaled_final/0398_fw.mp4	0.0	283.5783727169037	2.4919726848602295
61	265.2634816169739	pulse	1	t		59.0	2.5	/experiments/Knapen_AOT/AOT_stimuli/rescaled_final/0398_fw.mp4	0.0	283.9522523880005	
61	266.86293482780457	pulse	1	t		59.0	2.5	/experiments/Knapen_AOT/AOT_stimuli/rescaled_final/0398_fw.mp4	0.0	285.5517055988312	
61	267.3815746307373	fix_post	2		12	59.0	2.5	/experiments/Knapen_AOT/AOT_stimuli/rescaled_final/0398_fw.mp4	0.0	286.0703454017639	0.10001897811889648
62	267.4815936088562	fix_pre	0		119	60.0	2.5	/experiments/Knapen_AOT/AOT_stimuli/rescaled_final/0830_rv.mp4	0.0	286.1703643798828	1.0001263618469238
62	268.4653465747833	pulse	0	t		60.0	2.5	/experiments/Knapen_AOT/AOT_stimuli/rescaled_final/0830_rv.mp4	0.0	287.15411734580994	
62	268.4817199707031	movie	1		288	60.0	2.5	/experiments/Knapen_AOT/AOT_stimuli/rescaled_final/0830_rv.mp4	0.0	287.17049074172974	2.500458240509033
62	270.0657551288605	pulse	1	t		60.0	2.5	/experiments/Knapen_AOT/AOT_stimuli/rescaled_final/0830_rv.mp4	0.0	288.7545258998871	
62	270.98217821121216	fix_post	2		12	60.0	2.5	/experiments/Knapen_AOT/AOT_stimuli/rescaled_final/0830_rv.mp4	0.0	289.67094898223877	0.09999871253967285
63	271.08217692375183	fix_pre	0		120	61.0	2.5	/experiments/Knapen_AOT/AOT_stimuli/rescaled_final/0874_fw.mp4	0.0	289.77094769477844	1.0084619522094727
63	271.66583776474	pulse	0	t		61.0	2.5	/experiments/Knapen_AOT/AOT_stimuli/rescaled_final/0874_fw.mp4	0.0	290.3546085357666	
63	272.0906388759613	movie	1		272	61.0	2.5	/experiments/Knapen_AOT/AOT_stimuli/rescaled_final/0874_fw.mp4	0.0	290.7794096469879	2.4922120571136475
63	273.26514863967896	pulse	1	t		61.0	2.5	/experiments/Knapen_AOT/AOT_stimuli/rescaled_final/0874_fw.mp4	0.0	291.95391941070557	
63	274.58285093307495	fix_post	2		12	61.0	2.5	/experiments/Knapen_AOT/AOT_stimuli/rescaled_final/0874_fw.mp4	0.0	293.27162170410156	0.09981846809387207
64	274.6826694011688	fix_pre	0		120	62.0	2.5	/experiments/Knapen_AOT/AOT_stimuli/rescaled_final/0489_rv.mp4	0.0	293.37144017219543	1.008500337600708
64	274.86626625061035	pulse	0	t		62.0	2.5	/experiments/Knapen_AOT/AOT_stimuli/rescaled_final/0489_rv.mp4	0.0	293.55503702163696	
64	275.69116973876953	movie	1		266	62.0	2.5	/experiments/Knapen_AOT/AOT_stimuli/rescaled_final/0489_rv.mp4	0.0	294.37994050979614	2.492048740386963
64	276.46682929992676	pulse	1	t		62.0	2.5	/experiments/Knapen_AOT/AOT_stimuli/rescaled_final/0489_rv.mp4	0.0	295.15560007095337	
64	278.06471586227417	pulse	1	t		62.0	2.5	/experiments/Knapen_AOT/AOT_stimuli/rescaled_final/0489_rv.mp4	0.0	296.7534866333008	
64	278.1832184791565	fix_post	2		12	62.0	2.5	/experiments/Knapen_AOT/AOT_stimuli/rescaled_final/0489_rv.mp4	0.0	296.8719892501831	0.10004377365112305
65	278.2832622528076	fix_pre	0		120	63.0	2.5	blank	1.0	296.97203302383423	1.000093936920166
65	279.2833561897278	movie	1		300	63.0	2.5	blank	1.0	297.9721269607544	2.500368118286133
65	279.6671175956726	pulse	1	t		63.0	2.5	blank	1.0	298.3558883666992	
65	281.26734733581543	pulse	1	t		63.0	2.5	blank	1.0	299.95611810684204	
65	281.7837243080139	fix_post	2		12	63.0	2.5	blank	1.0	300.4724950790405	0.1000826358795166
66	281.88380694389343	fix_pre	0		119	64.0	2.5	/experiments/Knapen_AOT/AOT_stimuli/rescaled_final/1803_fw.mp4	0.0	300.57257771492004	1.0004262924194336
66	282.8675081729889	pulse	0	t		64.0	2.5	/experiments/Knapen_AOT/AOT_stimuli/rescaled_final/1803_fw.mp4	0.0	301.5562789440155	
66	282.88423323631287	movie	1		269	64.0	2.5	/experiments/Knapen_AOT/AOT_stimuli/rescaled_final/1803_fw.mp4	0.0	301.5730040073395	2.5001561641693115
66	284.46706652641296	pulse	1	t		64.0	2.5	/experiments/Knapen_AOT/AOT_stimuli/rescaled_final/1803_fw.mp4	0.0	303.1558372974396	
66	285.3843894004822	fix_post	2		12	64.0	2.5	/experiments/Knapen_AOT/AOT_stimuli/rescaled_final/1803_fw.mp4	0.0	304.0731601715088	0.0999603271484375
67	285.4843497276306	fix_pre	0		120	65.0	2.5	/experiments/Knapen_AOT/AOT_stimuli/rescaled_final/0029_fw.mp4	0.0	304.1731204986572	1.0084290504455566
67	286.0683660507202	pulse	0	t		65.0	2.5	/experiments/Knapen_AOT/AOT_stimuli/rescaled_final/0029_fw.mp4	0.0	304.7571368217468	
67	286.4927787780762	movie	1		286	65.0	2.5	/experiments/Knapen_AOT/AOT_stimuli/rescaled_final/0029_fw.mp4	0.0	305.1815495491028	2.492032051086426
67	287.66633582115173	pulse	1	t		65.0	2.5	/experiments/Knapen_AOT/AOT_stimuli/rescaled_final/0029_fw.mp4	0.0	306.35510659217834	
67	288.9848108291626	fix_post	2		12	65.0	2.5	/experiments/Knapen_AOT/AOT_stimuli/rescaled_final/0029_fw.mp4	0.0	307.6735816001892	0.10001325607299805
68	289.0848240852356	fix_pre	0		120	66.0	2.5	/experiments/Knapen_AOT/AOT_stimuli/rescaled_final/1745_fw.mp4	0.0	307.7735948562622	1.0085303783416748
68	289.26189041137695	pulse	0	t		66.0	2.5	/experiments/Knapen_AOT/AOT_stimuli/rescaled_final/1745_fw.mp4	0.0	307.95066118240356	
68	290.09335446357727	movie	1		271	66.0	2.5	/experiments/Knapen_AOT/AOT_stimuli/rescaled_final/1745_fw.mp4	0.0	308.7821252346039	2.492086410522461
68	290.8604316711426	pulse	1	t		66.0	2.5	/experiments/Knapen_AOT/AOT_stimuli/rescaled_final/1745_fw.mp4	0.0	309.5492024421692	
68	292.461327791214	pulse	1	t		66.0	2.5	/experiments/Knapen_AOT/AOT_stimuli/rescaled_final/1745_fw.mp4	0.0	311.1500985622406	
68	292.58544087409973	fix_post	2		12	66.0	2.5	/experiments/Knapen_AOT/AOT_stimuli/rescaled_final/1745_fw.mp4	0.0	311.27421164512634	0.09998703002929688
69	292.685427904129	fix_pre	0		120	67.0	2.5	/experiments/Knapen_AOT/AOT_stimuli/rescaled_final/2066_fw.mp4	0.0	311.37419867515564	1.008439302444458
69	293.6938672065735	movie	1		270	67.0	2.5	/experiments/Knapen_AOT/AOT_stimuli/rescaled_final/2066_fw.mp4	0.0	312.3826379776001	2.492044448852539
69	294.0609574317932	pulse	1	t		67.0	2.5	/experiments/Knapen_AOT/AOT_stimuli/rescaled_final/2066_fw.mp4	0.0	312.7497282028198	
69	295.66119861602783	pulse	1	t		67.0	2.5	/experiments/Knapen_AOT/AOT_stimuli/rescaled_final/2066_fw.mp4	0.0	314.34996938705444	
69	296.185911655426	fix_post	2		12	67.0	2.5	/experiments/Knapen_AOT/AOT_stimuli/rescaled_final/2066_fw.mp4	0.0	314.87468242645264	0.10000777244567871
70	296.2859194278717	fix_pre	0		118	68.0	2.5	/experiments/Knapen_AOT/AOT_stimuli/rescaled_final/0777_fw.mp4	0.0	314.9746901988983	0.9919002056121826
70	297.26141381263733	pulse	0	t		68.0	2.5	/experiments/Knapen_AOT/AOT_stimuli/rescaled_final/0777_fw.mp4	0.0	315.95018458366394	
70	297.2778196334839	movie	1		258	68.0	2.5	/experiments/Knapen_AOT/AOT_stimuli/rescaled_final/0777_fw.mp4	0.0	315.9665904045105	2.500288486480713
70	298.861585855484	pulse	1	t		68.0	2.5	/experiments/Knapen_AOT/AOT_stimuli/rescaled_final/0777_fw.mp4	0.0	317.5503566265106	
70	299.7781081199646	fix_post	2		12	68.0	2.5	/experiments/Knapen_AOT/AOT_stimuli/rescaled_final/0777_fw.mp4	0.0	318.4668788909912	0.10000967979431152
71	299.8781177997589	fix_pre	0		120	69.0	2.5	/experiments/Knapen_AOT/AOT_stimuli/rescaled_final/1560_fw.mp4	0.0	318.5668885707855	1.0085077285766602
71	300.4618992805481	pulse	0	t		69.0	2.5	/experiments/Knapen_AOT/AOT_stimuli/rescaled_final/1560_fw.mp4	0.0	319.1506700515747	
71	300.88662552833557	movie	1		272	69.0	2.5	/experiments/Knapen_AOT/AOT_stimuli/rescaled_final/1560_fw.mp4	0.0	319.5753962993622	2.4920403957366943
71	302.06057476997375	pulse	1	t		69.0	2.5	/experiments/Knapen_AOT/AOT_stimuli/rescaled_final/1560_fw.mp4	0.0	320.74934554100037	
71	303.37866592407227	fix_post	2		12	69.0	2.5	/experiments/Knapen_AOT/AOT_stimuli/rescaled_final/1560_fw.mp4	0.0	322.0674366950989	0.10000109672546387
72	303.47866702079773	fix_pre	0		120	70.0	2.5	blank	1.0	322.16743779182434	1.0001356601715088
72	303.66224336624146	pulse	0	t		70.0	2.5	blank	1.0	322.35101413726807	
72	304.47880268096924	movie	1		300	70.0	2.5	blank	1.0	323.16757345199585	2.500361204147339
72	305.26249647140503	pulse	1	t		70.0	2.5	blank	1.0	323.95126724243164	
72	306.86279702186584	pulse	1	t		70.0	2.5	blank	1.0	325.55156779289246	
72	306.9791638851166	fix_post	2		12	70.0	2.5	blank	1.0	325.6679346561432	0.10004520416259766
73	307.0792090892792	fix_pre	0		120	71.0	2.5	/experiments/Knapen_AOT/AOT_stimuli/rescaled_final/0136_rv.mp4	0.0	325.7679798603058	1.008502721786499
73	308.0877118110657	movie	1		281	71.0	2.5	/experiments/Knapen_AOT/AOT_stimuli/rescaled_final/0136_rv.mp4	0.0	326.7764825820923	2.492006778717041
73	308.46180987358093	pulse	1	t		71.0	2.5	/experiments/Knapen_AOT/AOT_stimuli/rescaled_final/0136_rv.mp4	0.0	327.15058064460754	
73	310.0611515045166	pulse	1	t		71.0	2.5	/experiments/Knapen_AOT/AOT_stimuli/rescaled_final/0136_rv.mp4	0.0	328.7499222755432	
73	310.5797185897827	fix_post	2		12	71.0	2.5	/experiments/Knapen_AOT/AOT_stimuli/rescaled_final/0136_rv.mp4	0.0	329.2684893608093	0.10002374649047852
74	310.6797423362732	fix_pre	0		119	72.0	2.5	/experiments/Knapen_AOT/AOT_stimuli/rescaled_final/1282_fw.mp4	0.0	329.3685131072998	1.0003609657287598
74	311.6636469364166	pulse	0	t		72.0	2.5	/experiments/Knapen_AOT/AOT_stimuli/rescaled_final/1282_fw.mp4	0.0	330.35241770744324	
74	311.68010330200195	movie	1		273	72.0	2.5	/experiments/Knapen_AOT/AOT_stimuli/rescaled_final/1282_fw.mp4	0.0	330.36887407302856	2.5001626014709473
74	313.2623794078827	pulse	1	t		72.0	2.5	/experiments/Knapen_AOT/AOT_stimuli/rescaled_final/1282_fw.mp4	0.0	331.9511501789093	
74	314.1802659034729	fix_post	2		12	72.0	2.5	/experiments/Knapen_AOT/AOT_stimuli/rescaled_final/1282_fw.mp4	0.0	332.8690366744995	0.10006117820739746
75	314.2803270816803	fix_pre	0		120	73.0	2.5	/experiments/Knapen_AOT/AOT_stimuli/rescaled_final/0133_fw.mp4	0.0	332.9690978527069	1.0084228515625
75	314.8640863895416	pulse	0	t		73.0	2.5	/experiments/Knapen_AOT/AOT_stimuli/rescaled_final/0133_fw.mp4	0.0	333.55285716056824	
75	315.2887499332428	movie	1		281	73.0	2.5	/experiments/Knapen_AOT/AOT_stimuli/rescaled_final/0133_fw.mp4	0.0	333.9775207042694	2.492253303527832
75	316.46237683296204	pulse	1	t		73.0	2.5	/experiments/Knapen_AOT/AOT_stimuli/rescaled_final/0133_fw.mp4	0.0	335.15114760398865	
75	317.78100323677063	fix_post	2		12	73.0	2.5	/experiments/Knapen_AOT/AOT_stimuli/rescaled_final/0133_fw.mp4	0.0	336.46977400779724	0.09983515739440918
76	317.88083839416504	fix_pre	0		120	74.0	2.5	/experiments/Knapen_AOT/AOT_stimuli/rescaled_final/0814_fw.mp4	0.0	336.56960916519165	1.0085687637329102
76	318.064457654953	pulse	0	t		74.0	2.5	/experiments/Knapen_AOT/AOT_stimuli/rescaled_final/0814_fw.mp4	0.0	336.7532284259796	
76	318.88940715789795	movie	1		269	74.0	2.5	/experiments/Knapen_AOT/AOT_stimuli/rescaled_final/0814_fw.mp4	0.0	337.57817792892456	2.491945266723633
76	319.66274213790894	pulse	1	t		74.0	2.5	/experiments/Knapen_AOT/AOT_stimuli/rescaled_final/0814_fw.mp4	0.0	338.35151290893555	
76	321.2631404399872	pulse	1	t		74.0	2.5	/experiments/Knapen_AOT/AOT_stimuli/rescaled_final/0814_fw.mp4	0.0	339.9519112110138	
76	321.3813524246216	fix_post	2		12	74.0	2.5	/experiments/Knapen_AOT/AOT_stimuli/rescaled_final/0814_fw.mp4	0.0	340.0701231956482	0.10007452964782715
77	321.4814269542694	fix_pre	0		120	75.0	2.5	blank	1.0	340.170197725296	1.0000848770141602
77	322.48151183128357	movie	1		300	75.0	2.5	blank	1.0	341.1702826023102	2.5003764629364014
77	322.8651542663574	pulse	1	t		75.0	2.5	blank	1.0	341.55392503738403	
77	324.46547412872314	pulse	1	t		75.0	2.5	blank	1.0	343.15424489974976	
77	324.98188829421997	fix_post	2		12	75.0	2.5	blank	1.0	343.6706590652466	0.10000967979431152
78	325.0818979740143	fix_pre	0		119	76.0	2.5	/experiments/Knapen_AOT/AOT_stimuli/rescaled_final/2173_fw.mp4	0.0	343.7706687450409	1.0085868835449219
78	326.06568145751953	pulse	0	t		76.0	2.5	/experiments/Knapen_AOT/AOT_stimuli/rescaled_final/2173_fw.mp4	0.0	344.75445222854614	
78	326.0904848575592	movie	1		276	76.0	2.5	/experiments/Knapen_AOT/AOT_stimuli/rescaled_final/2173_fw.mp4	0.0	344.7792556285858	2.4919545650482178
78	327.6645231246948	pulse	1	t		76.0	2.5	/experiments/Knapen_AOT/AOT_stimuli/rescaled_final/2173_fw.mp4	0.0	346.35329389572144	
78	328.5824394226074	fix_post	2		12	76.0	2.5	/experiments/Knapen_AOT/AOT_stimuli/rescaled_final/2173_fw.mp4	0.0	347.27121019363403	0.10000848770141602
79	328.68244791030884	fix_pre	0		120	77.0	2.5	/experiments/Knapen_AOT/AOT_stimuli/rescaled_final/1964_rv.mp4	0.0	347.37121868133545	1.008474588394165
79	329.2661590576172	pulse	0	t		77.0	2.5	/experiments/Knapen_AOT/AOT_stimuli/rescaled_final/1964_rv.mp4	0.0	347.9549298286438	
79	329.690922498703	movie	1		263	77.0	2.5	/experiments/Knapen_AOT/AOT_stimuli/rescaled_final/1964_rv.mp4	0.0	348.3796932697296	2.492061138153076
79	330.8649652004242	pulse	1	t		77.0	2.5	/experiments/Knapen_AOT/AOT_stimuli/rescaled_final/1964_rv.mp4	0.0	349.5537359714508	
79	332.1829836368561	fix_post	2		12	77.0	2.5	/experiments/Knapen_AOT/AOT_stimuli/rescaled_final/1964_rv.mp4	0.0	350.8717544078827	0.10002732276916504
80	332.28301095962524	fix_pre	0		120	78.0	2.5	/experiments/Knapen_AOT/AOT_stimuli/rescaled_final/1462_fw.mp4	0.0	350.97178173065186	1.008504867553711
80	332.46658396720886	pulse	0	t		78.0	2.5	/experiments/Knapen_AOT/AOT_stimuli/rescaled_final/1462_fw.mp4	0.0	351.1553547382355	
80	333.29151582717896	movie	1		279	78.0	2.5	/experiments/Knapen_AOT/AOT_stimuli/rescaled_final/1462_fw.mp4	0.0	351.98028659820557	2.4919981956481934
80	334.0652298927307	pulse	1	t		78.0	2.5	/experiments/Knapen_AOT/AOT_stimuli/rescaled_final/1462_fw.mp4	0.0	352.7540006637573	
80	335.6654403209686	pulse	1	t		78.0	2.5	/experiments/Knapen_AOT/AOT_stimuli/rescaled_final/1462_fw.mp4	0.0	354.35421109199524	
80	335.78351402282715	fix_post	2		12	78.0	2.5	/experiments/Knapen_AOT/AOT_stimuli/rescaled_final/1462_fw.mp4	0.0	354.47228479385376	0.09998035430908203
81	335.88349437713623	fix_pre	0		120	79.0	2.5	/experiments/Knapen_AOT/AOT_stimuli/rescaled_final/1494_rv.mp4	0.0	354.57226514816284	1.0085992813110352
81	336.89209365844727	movie	1		274	79.0	2.5	/experiments/Knapen_AOT/AOT_stimuli/rescaled_final/1494_rv.mp4	0.0	355.5808644294739	2.4919681549072266
81	337.2671768665314	pulse	1	t		79.0	2.5	/experiments/Knapen_AOT/AOT_stimuli/rescaled_final/1494_rv.mp4	0.0	355.955947637558	
81	338.86541175842285	pulse	1	t		79.0	2.5	/experiments/Knapen_AOT/AOT_stimuli/rescaled_final/1494_rv.mp4	0.0	357.55418252944946	
81	339.3840618133545	fix_post	2		12	79.0	2.5	/experiments/Knapen_AOT/AOT_stimuli/rescaled_final/1494_rv.mp4	0.0	358.0728325843811	0.10018205642700195
82	339.4842438697815	fix_pre	0		119	80.0	2.5	/experiments/Knapen_AOT/AOT_stimuli/rescaled_final/2096_rv.mp4	0.0	358.1730146408081	1.0000040531158447
82	340.4677424430847	pulse	0	t		80.0	2.5	/experiments/Knapen_AOT/AOT_stimuli/rescaled_final/2096_rv.mp4	0.0	359.1565132141113	
82	340.48424792289734	movie	1		280	80.0	2.5	/experiments/Knapen_AOT/AOT_stimuli/rescaled_final/2096_rv.mp4	0.0	359.17301869392395	2.500335693359375
82	342.06687235832214	pulse	1	t		80.0	2.5	/experiments/Knapen_AOT/AOT_stimuli/rescaled_final/2096_rv.mp4	0.0	360.75564312934875	
82	342.9845836162567	fix_post	2		12	80.0	2.5	/experiments/Knapen_AOT/AOT_stimuli/rescaled_final/2096_rv.mp4	0.0	361.6733543872833	0.10002613067626953
83	343.084609746933	fix_pre	0		120	81.0	2.5	/experiments/Knapen_AOT/AOT_stimuli/rescaled_final/1964_fw.mp4	0.0	361.7733805179596	1.0085105895996094
83	343.6682710647583	pulse	0	t		81.0	2.5	/experiments/Knapen_AOT/AOT_stimuli/rescaled_final/1964_fw.mp4	0.0	362.3570418357849	
83	344.0931203365326	movie	1		276	81.0	2.5	/experiments/Knapen_AOT/AOT_stimuli/rescaled_final/1964_fw.mp4	0.0	362.7818911075592	2.4920120239257812
83	345.26738381385803	pulse	1	t		81.0	2.5	/experiments/Knapen_AOT/AOT_stimuli/rescaled_final/1964_fw.mp4	0.0	363.95615458488464	
83	346.5851323604584	fix_post	2		12	81.0	2.5	/experiments/Knapen_AOT/AOT_stimuli/rescaled_final/1964_fw.mp4	0.0	365.273903131485	0.0999755859375
84	346.6851079463959	fix_pre	0		120	82.0	2.5	/experiments/Knapen_AOT/AOT_stimuli/rescaled_final/2010_fw.mp4	0.0	365.3738787174225	1.0085680484771729
84	346.86086893081665	pulse	0	t		82.0	2.5	/experiments/Knapen_AOT/AOT_stimuli/rescaled_final/2010_fw.mp4	0.0	365.54963970184326	
84	347.69367599487305	movie	1		267	82.0	2.5	/experiments/Knapen_AOT/AOT_stimuli/rescaled_final/2010_fw.mp4	0.0	366.38244676589966	2.492008686065674
84	348.4609806537628	pulse	1	t		82.0	2.5	/experiments/Knapen_AOT/AOT_stimuli/rescaled_final/2010_fw.mp4	0.0	367.14975142478943	
84	350.0695712566376	pulse	1	t		82.0	2.5	/experiments/Knapen_AOT/AOT_stimuli/rescaled_final/2010_fw.mp4	0.0	368.7583420276642	
84	350.1856846809387	fix_post	2		12	82.0	2.5	/experiments/Knapen_AOT/AOT_stimuli/rescaled_final/2010_fw.mp4	0.0	368.87445545196533	0.1000666618347168
85	350.28575134277344	fix_pre	0		120	83.0	2.5	blank	1.0	368.97452211380005	1.000124454498291
85	351.28587579727173	movie	1		300	83.0	2.5	blank	1.0	369.97464656829834	2.500391721725464
85	351.66115045547485	pulse	1	t		83.0	2.5	blank	1.0	370.34992122650146	
85	353.26140451431274	pulse	1	t		83.0	2.5	blank	1.0	371.95017528533936	
85	353.7862675189972	fix_post	2		12	83.0	2.5	blank	1.0	372.4750382900238	0.09997439384460449
87	353.8862419128418	stim	0		1716					372.5750126838684	14.302152872085571
87	354.8616738319397	pulse	0	t						373.5504446029663	
87	356.46182203292847	pulse	0	t						375.1505928039551	
87	358.0621750354767	pulse	0	t						376.7509458065033	
87	359.66243386268616	pulse	0	t						378.35120463371277	
87	361.2626037597656	pulse	0	t						379.95137453079224	
87	362.8630094528198	pulse	0	t						381.55178022384644	
87	364.4630353450775	pulse	0	t						383.1518061161041	
87	366.0634388923645	pulse	0	t						384.7522096633911	
87	367.6636016368866	pulse	0	t						386.3523724079132	
