trial_nr	onset	event_type	phase	response	nr_frames	movie_index	movie_duration	movie_file	blank	onset_abs	duration
0	0.14164328575134277	stim	0		22					19.5965735912323	0.18318438529968262
0	0.3167238235473633	response	0	space						19.77165412902832	
1	0.3248276710510254	stim	0		6431					19.779757976531982	53.60808825492859
1	53.922802209854126	pulse	0	t						73.37773251533508	
1	53.932915925979614	stim	1		1715					73.38784623146057	14.30205488204956
1	55.51664423942566	pulse	1	t						74.97157454490662	
1	57.11717247962952	pulse	1	t						76.57210278511047	
1	58.71705675125122	pulse	1	t						78.17198705673218	
1	60.317346811294556	pulse	1	t						79.77227711677551	
1	61.917746782302856	pulse	1	t						81.37267708778381	
1	63.51787567138672	pulse	1	t						82.97280597686768	
1	65.11804056167603	pulse	1	t						84.57297086715698	
1	66.71826887130737	pulse	1	t						86.17319917678833	
2	68.23497080802917	fix_pre	0		11	0.0	2.5	/experiments/Knapen_AOT/AOT_stimuli/rescaled_final/0970_rv.mp4	0.0	87.68990111351013	0.10843729972839355
2	68.31855702400208	pulse	0	t		0.0	2.5	/experiments/Knapen_AOT/AOT_stimuli/rescaled_final/0970_rv.mp4	0.0	87.77348732948303	
2	68.34340810775757	movie	1		280	0.0	2.5	/experiments/Knapen_AOT/AOT_stimuli/rescaled_final/0970_rv.mp4	0.0	87.79833841323853	2.491985559463501
2	69.91736388206482	pulse	1	t		0.0	2.5	/experiments/Knapen_AOT/AOT_stimuli/rescaled_final/0970_rv.mp4	0.0	89.37229418754578	
2	70.83539366722107	fix_post	2		12	0.0	2.5	/experiments/Knapen_AOT/AOT_stimuli/rescaled_final/0970_rv.mp4	0.0	90.29032397270203	0.09999680519104004
3	70.93539047241211	fix_pre	0		120	1.0	2.5	/experiments/Knapen_AOT/AOT_stimuli/rescaled_final/1221_rv.mp4	0.0	90.39032077789307	1.00848388671875
3	71.51903533935547	pulse	0	t		1.0	2.5	/experiments/Knapen_AOT/AOT_stimuli/rescaled_final/1221_rv.mp4	0.0	90.97396564483643	
3	71.94387435913086	movie	1		287	1.0	2.5	/experiments/Knapen_AOT/AOT_stimuli/rescaled_final/1221_rv.mp4	0.0	91.39880466461182	2.492034912109375
3	73.11737155914307	pulse	1	t		1.0	2.5	/experiments/Knapen_AOT/AOT_stimuli/rescaled_final/1221_rv.mp4	0.0	92.57230186462402	
3	74.43590927124023	fix_post	2		12	1.0	2.5	/experiments/Knapen_AOT/AOT_stimuli/rescaled_final/1221_rv.mp4	0.0	93.89083957672119	0.10000920295715332
4	74.53591847419739	fix_pre	0		120	2.0	2.5	/experiments/Knapen_AOT/AOT_stimuli/rescaled_final/1240_rv.mp4	0.0	93.99084877967834	1.0085527896881104
4	74.71947264671326	pulse	0	t		2.0	2.5	/experiments/Knapen_AOT/AOT_stimuli/rescaled_final/1240_rv.mp4	0.0	94.17440295219421	
4	75.5444712638855	movie	1		287	2.0	2.5	/experiments/Knapen_AOT/AOT_stimuli/rescaled_final/1240_rv.mp4	0.0	94.99940156936646	2.491978168487549
4	76.31789755821228	pulse	1	t		2.0	2.5	/experiments/Knapen_AOT/AOT_stimuli/rescaled_final/1240_rv.mp4	0.0	95.77282786369324	
4	77.91779589653015	pulse	1	t		2.0	2.5	/experiments/Knapen_AOT/AOT_stimuli/rescaled_final/1240_rv.mp4	0.0	97.37272620201111	
4	78.03644943237305	fix_post	2		12	2.0	2.5	/experiments/Knapen_AOT/AOT_stimuli/rescaled_final/1240_rv.mp4	0.0	97.491379737854	0.10001635551452637
5	78.13646578788757	fix_pre	0		120	3.0	2.5	/experiments/Knapen_AOT/AOT_stimuli/rescaled_final/2090_fw.mp4	0.0	97.59139609336853	1.008528232574463
5	79.14499402046204	movie	1		271	3.0	2.5	/experiments/Knapen_AOT/AOT_stimuli/rescaled_final/2090_fw.mp4	0.0	98.599924325943	2.4920077323913574
5	79.51870608329773	pulse	1	t		3.0	2.5	/experiments/Knapen_AOT/AOT_stimuli/rescaled_final/2090_fw.mp4	0.0	98.97363638877869	
5	81.11880016326904	pulse	1	t		3.0	2.5	/experiments/Knapen_AOT/AOT_stimuli/rescaled_final/2090_fw.mp4	0.0	100.57373046875	
5	81.6370017528534	fix_post	2		12	3.0	2.5	/experiments/Knapen_AOT/AOT_stimuli/rescaled_final/2090_fw.mp4	0.0	101.09193205833435	0.10006141662597656
6	81.73706316947937	fix_pre	0		119	4.0	2.5	/experiments/Knapen_AOT/AOT_stimuli/rescaled_final/1966_fw.mp4	0.0	101.19199347496033	1.0000932216644287
6	82.72074317932129	pulse	0	t		4.0	2.5	/experiments/Knapen_AOT/AOT_stimuli/rescaled_final/1966_fw.mp4	0.0	102.17567348480225	
6	82.7371563911438	movie	1		270	4.0	2.5	/experiments/Knapen_AOT/AOT_stimuli/rescaled_final/1966_fw.mp4	0.0	102.19208669662476	2.508735179901123
6	84.32124400138855	pulse	1	t		4.0	2.5	/experiments/Knapen_AOT/AOT_stimuli/rescaled_final/1966_fw.mp4	0.0	103.7761743068695	
6	85.24589157104492	fix_post	2		11	4.0	2.5	/experiments/Knapen_AOT/AOT_stimuli/rescaled_final/1966_fw.mp4	0.0	104.70082187652588	0.09166646003723145
7	85.33755803108215	fix_pre	0		120	5.0	2.5	/experiments/Knapen_AOT/AOT_stimuli/rescaled_final/1106_fw.mp4	0.0	104.79248833656311	1.0084915161132812
7	85.92124843597412	pulse	0	t		5.0	2.5	/experiments/Knapen_AOT/AOT_stimuli/rescaled_final/1106_fw.mp4	0.0	105.37617874145508	
7	86.34604954719543	movie	1		284	5.0	2.5	/experiments/Knapen_AOT/AOT_stimuli/rescaled_final/1106_fw.mp4	0.0	105.80097985267639	2.492017984390259
7	87.51958560943604	pulse	1	t		5.0	2.5	/experiments/Knapen_AOT/AOT_stimuli/rescaled_final/1106_fw.mp4	0.0	106.97451591491699	
7	88.8380675315857	fix_post	2		12	5.0	2.5	/experiments/Knapen_AOT/AOT_stimuli/rescaled_final/1106_fw.mp4	0.0	108.29299783706665	0.1000823974609375
8	88.93814992904663	fix_pre	0		120	6.0	2.5	blank	1.0	108.39308023452759	1.0000824928283691
8	89.12167644500732	pulse	0	t		6.0	2.5	blank	1.0	108.57660675048828	
8	89.938232421875	movie	1		300	6.0	2.5	blank	1.0	109.39316272735596	2.500401496887207
8	90.72196221351624	pulse	1	t		6.0	2.5	blank	1.0	110.17689251899719	
8	92.32224416732788	pulse	1	t		6.0	2.5	blank	1.0	111.77717447280884	
8	92.4386339187622	fix_post	2		12	6.0	2.5	blank	1.0	111.89356422424316	0.09999752044677734
9	92.53863143920898	fix_pre	0		120	7.0	2.5	/experiments/Knapen_AOT/AOT_stimuli/rescaled_final/1960_fw.mp4	0.0	111.99356174468994	1.0084974765777588
9	93.54712891578674	movie	1		266	7.0	2.5	/experiments/Knapen_AOT/AOT_stimuli/rescaled_final/1960_fw.mp4	0.0	113.0020592212677	2.4920170307159424
9	93.92066931724548	pulse	1	t		7.0	2.5	/experiments/Knapen_AOT/AOT_stimuli/rescaled_final/1960_fw.mp4	0.0	113.37559962272644	
9	95.52191877365112	pulse	1	t		7.0	2.5	/experiments/Knapen_AOT/AOT_stimuli/rescaled_final/1960_fw.mp4	0.0	114.97684907913208	
9	96.03914594650269	fix_post	2		12	7.0	2.5	/experiments/Knapen_AOT/AOT_stimuli/rescaled_final/1960_fw.mp4	0.0	115.49407625198364	0.10002398490905762
10	96.13916993141174	fix_pre	0		119	8.0	2.5	/experiments/Knapen_AOT/AOT_stimuli/rescaled_final/1753_fw.mp4	0.0	115.5941002368927	1.0001296997070312
10	97.12286376953125	pulse	0	t		8.0	2.5	/experiments/Knapen_AOT/AOT_stimuli/rescaled_final/1753_fw.mp4	0.0	116.5777940750122	
10	97.13929963111877	movie	1		285	8.0	2.5	/experiments/Knapen_AOT/AOT_stimuli/rescaled_final/1753_fw.mp4	0.0	116.59422993659973	2.5004351139068604
10	98.72226309776306	pulse	1	t		8.0	2.5	/experiments/Knapen_AOT/AOT_stimuli/rescaled_final/1753_fw.mp4	0.0	118.17719340324402	
10	99.63973474502563	fix_post	2		12	8.0	2.5	/experiments/Knapen_AOT/AOT_stimuli/rescaled_final/1753_fw.mp4	0.0	119.09466505050659	0.10001778602600098
11	99.73975253105164	fix_pre	0		120	9.0	2.5	/experiments/Knapen_AOT/AOT_stimuli/rescaled_final/0634_fw.mp4	0.0	119.19468283653259	1.0085749626159668
11	100.32338833808899	pulse	0	t		9.0	2.5	/experiments/Knapen_AOT/AOT_stimuli/rescaled_final/0634_fw.mp4	0.0	119.77831864356995	
11	100.7483274936676	movie	1		277	9.0	2.5	/experiments/Knapen_AOT/AOT_stimuli/rescaled_final/0634_fw.mp4	0.0	120.20325779914856	2.4919168949127197
11	101.92149496078491	pulse	1	t		9.0	2.5	/experiments/Knapen_AOT/AOT_stimuli/rescaled_final/0634_fw.mp4	0.0	121.37642526626587	
11	103.24024438858032	fix_post	2		12	9.0	2.5	/experiments/Knapen_AOT/AOT_stimuli/rescaled_final/0634_fw.mp4	0.0	122.69517469406128	0.10000920295715332
12	103.34025359153748	fix_pre	0		120	10.0	2.5	/experiments/Knapen_AOT/AOT_stimuli/rescaled_final/2121_rv.mp4	0.0	122.79518389701843	1.008535623550415
12	103.52388119697571	pulse	0	t		10.0	2.5	/experiments/Knapen_AOT/AOT_stimuli/rescaled_final/2121_rv.mp4	0.0	122.97881150245667	
12	104.34878921508789	movie	1		275	10.0	2.5	/experiments/Knapen_AOT/AOT_stimuli/rescaled_final/2121_rv.mp4	0.0	123.80371952056885	2.4919912815093994
12	105.12185263633728	pulse	1	t		10.0	2.5	/experiments/Knapen_AOT/AOT_stimuli/rescaled_final/2121_rv.mp4	0.0	124.57678294181824	
12	106.72246599197388	pulse	1	t		10.0	2.5	/experiments/Knapen_AOT/AOT_stimuli/rescaled_final/2121_rv.mp4	0.0	126.17739629745483	
12	106.84078049659729	fix_post	2		12	10.0	2.5	/experiments/Knapen_AOT/AOT_stimuli/rescaled_final/2121_rv.mp4	0.0	126.29571080207825	0.10001301765441895
13	106.94079351425171	fix_pre	0		120	11.0	2.5	/experiments/Knapen_AOT/AOT_stimuli/rescaled_final/0554_fw.mp4	0.0	126.39572381973267	1.0085170269012451
13	107.94931054115295	movie	1		281	11.0	2.5	/experiments/Knapen_AOT/AOT_stimuli/rescaled_final/0554_fw.mp4	0.0	127.40424084663391	2.4920027256011963
13	108.32287287712097	pulse	1	t		11.0	2.5	/experiments/Knapen_AOT/AOT_stimuli/rescaled_final/0554_fw.mp4	0.0	127.77780318260193	
13	109.92395544052124	pulse	1	t		11.0	2.5	/experiments/Knapen_AOT/AOT_stimuli/rescaled_final/0554_fw.mp4	0.0	129.3788857460022	
13	110.44131326675415	fix_post	2		12	11.0	2.5	/experiments/Knapen_AOT/AOT_stimuli/rescaled_final/0554_fw.mp4	0.0	129.8962435722351	0.10003352165222168
14	110.54134678840637	fix_pre	0		119	12.0	2.5	/experiments/Knapen_AOT/AOT_stimuli/rescaled_final/0322_fw.mp4	0.0	129.99627709388733	1.0001542568206787
14	111.51793217658997	pulse	0	t		12.0	2.5	/experiments/Knapen_AOT/AOT_stimuli/rescaled_final/0322_fw.mp4	0.0	130.97286248207092	
14	111.54150104522705	movie	1		290	12.0	2.5	/experiments/Knapen_AOT/AOT_stimuli/rescaled_final/0322_fw.mp4	0.0	130.996431350708	2.50040602684021
14	113.11720037460327	pulse	1	t		12.0	2.5	/experiments/Knapen_AOT/AOT_stimuli/rescaled_final/0322_fw.mp4	0.0	132.57213068008423	
14	114.04190707206726	fix_post	2		12	12.0	2.5	/experiments/Knapen_AOT/AOT_stimuli/rescaled_final/0322_fw.mp4	0.0	133.49683737754822	0.09997892379760742
15	114.14188599586487	fix_pre	0		120	13.0	2.5	blank	1.0	133.59681630134583	1.000126600265503
15	114.71716785430908	pulse	0	t		13.0	2.5	blank	1.0	134.17209815979004	
15	115.14201259613037	movie	1		300	13.0	2.5	blank	1.0	134.59694290161133	2.5003886222839355
15	116.31748175621033	pulse	1	t		13.0	2.5	blank	1.0	135.77241206169128	
15	117.6424012184143	fix_post	2		12	13.0	2.5	blank	1.0	137.09733152389526	0.1000213623046875
16	117.742422580719	fix_pre	0		120	14.0	2.5	/experiments/Knapen_AOT/AOT_stimuli/rescaled_final/1476_fw.mp4	0.0	137.19735288619995	1.0084755420684814
16	117.91774153709412	pulse	0	t		14.0	2.5	/experiments/Knapen_AOT/AOT_stimuli/rescaled_final/1476_fw.mp4	0.0	137.37267184257507	
16	118.75089812278748	movie	1		286	14.0	2.5	/experiments/Knapen_AOT/AOT_stimuli/rescaled_final/1476_fw.mp4	0.0	138.20582842826843	2.4920287132263184
16	119.51788520812988	pulse	1	t		14.0	2.5	/experiments/Knapen_AOT/AOT_stimuli/rescaled_final/1476_fw.mp4	0.0	138.97281551361084	
16	121.1181161403656	pulse	1	t		14.0	2.5	/experiments/Knapen_AOT/AOT_stimuli/rescaled_final/1476_fw.mp4	0.0	140.57304644584656	
16	121.2429268360138	fix_post	2		12	14.0	2.5	/experiments/Knapen_AOT/AOT_stimuli/rescaled_final/1476_fw.mp4	0.0	140.69785714149475	0.10006570816040039
17	121.3429925441742	fix_pre	0		120	15.0	2.5	/experiments/Knapen_AOT/AOT_stimuli/rescaled_final/1651_rv.mp4	0.0	140.79792284965515	1.0085222721099854
17	122.35151481628418	movie	1		281	15.0	2.5	/experiments/Knapen_AOT/AOT_stimuli/rescaled_final/1651_rv.mp4	0.0	141.80644512176514	2.49200177192688
17	122.7179901599884	pulse	1	t		15.0	2.5	/experiments/Knapen_AOT/AOT_stimuli/rescaled_final/1651_rv.mp4	0.0	142.17292046546936	
17	124.3190004825592	pulse	1	t		15.0	2.5	/experiments/Knapen_AOT/AOT_stimuli/rescaled_final/1651_rv.mp4	0.0	143.77393078804016	
17	124.84351658821106	fix_post	2		12	15.0	2.5	/experiments/Knapen_AOT/AOT_stimuli/rescaled_final/1651_rv.mp4	0.0	144.29844689369202	0.10001850128173828
18	124.9435350894928	fix_pre	0		118	16.0	2.5	/experiments/Knapen_AOT/AOT_stimuli/rescaled_final/0428_fw.mp4	0.0	144.39846539497375	0.99192214012146
18	125.91880798339844	pulse	0	t		16.0	2.5	/experiments/Knapen_AOT/AOT_stimuli/rescaled_final/0428_fw.mp4	0.0	145.3737382888794	
18	125.93545722961426	movie	1		289	16.0	2.5	/experiments/Knapen_AOT/AOT_stimuli/rescaled_final/0428_fw.mp4	0.0	145.39038753509521	2.500253438949585
18	127.51737403869629	pulse	1	t		16.0	2.5	/experiments/Knapen_AOT/AOT_stimuli/rescaled_final/0428_fw.mp4	0.0	146.97230434417725	
18	128.43571066856384	fix_post	2		12	16.0	2.5	/experiments/Knapen_AOT/AOT_stimuli/rescaled_final/0428_fw.mp4	0.0	147.8906409740448	0.0999917984008789
19	128.53570246696472	fix_pre	0		120	17.0	2.5	/experiments/Knapen_AOT/AOT_stimuli/rescaled_final/1651_fw.mp4	0.0	147.99063277244568	1.0085422992706299
19	129.11934685707092	pulse	0	t		17.0	2.5	/experiments/Knapen_AOT/AOT_stimuli/rescaled_final/1651_fw.mp4	0.0	148.57427716255188	
19	129.54424476623535	movie	1		275	17.0	2.5	/experiments/Knapen_AOT/AOT_stimuli/rescaled_final/1651_fw.mp4	0.0	148.9991750717163	2.491973400115967
19	130.71926140785217	pulse	1	t		17.0	2.5	/experiments/Knapen_AOT/AOT_stimuli/rescaled_final/1651_fw.mp4	0.0	150.17419171333313	
19	132.03621816635132	fix_post	2		12	17.0	2.5	/experiments/Knapen_AOT/AOT_stimuli/rescaled_final/1651_fw.mp4	0.0	151.49114847183228	0.10003089904785156
20	132.13624906539917	fix_pre	0		120	18.0	2.5	/experiments/Knapen_AOT/AOT_stimuli/rescaled_final/1767_rv.mp4	0.0	151.59117937088013	1.008521556854248
20	132.3198573589325	pulse	0	t		18.0	2.5	/experiments/Knapen_AOT/AOT_stimuli/rescaled_final/1767_rv.mp4	0.0	151.77478766441345	
20	133.14477062225342	movie	1		282	18.0	2.5	/experiments/Knapen_AOT/AOT_stimuli/rescaled_final/1767_rv.mp4	0.0	152.59970092773438	2.492014169692993
20	133.91886019706726	pulse	1	t		18.0	2.5	/experiments/Knapen_AOT/AOT_stimuli/rescaled_final/1767_rv.mp4	0.0	153.37379050254822	
20	135.51814913749695	pulse	1	t		18.0	2.5	/experiments/Knapen_AOT/AOT_stimuli/rescaled_final/1767_rv.mp4	0.0	154.9730794429779	
20	135.6367847919464	fix_post	2		12	18.0	2.5	/experiments/Knapen_AOT/AOT_stimuli/rescaled_final/1767_rv.mp4	0.0	155.09171509742737	0.10000038146972656
21	135.73678517341614	fix_pre	0		120	19.0	2.5	/experiments/Knapen_AOT/AOT_stimuli/rescaled_final/2031_rv.mp4	0.0	155.1917154788971	1.0085694789886475
21	136.74535465240479	movie	1		280	19.0	2.5	/experiments/Knapen_AOT/AOT_stimuli/rescaled_final/2031_rv.mp4	0.0	156.20028495788574	2.491957187652588
21	137.11899995803833	pulse	1	t		19.0	2.5	/experiments/Knapen_AOT/AOT_stimuli/rescaled_final/2031_rv.mp4	0.0	156.5739302635193	
21	138.71933102607727	pulse	1	t		19.0	2.5	/experiments/Knapen_AOT/AOT_stimuli/rescaled_final/2031_rv.mp4	0.0	158.17426133155823	
21	139.23731184005737	fix_post	2		12	19.0	2.5	/experiments/Knapen_AOT/AOT_stimuli/rescaled_final/2031_rv.mp4	0.0	158.69224214553833	0.10001993179321289
22	139.3373317718506	fix_pre	0		119	20.0	2.5	/experiments/Knapen_AOT/AOT_stimuli/rescaled_final/0138_rv.mp4	0.0	158.79226207733154	1.0001881122589111
22	140.32102131843567	pulse	0	t		20.0	2.5	/experiments/Knapen_AOT/AOT_stimuli/rescaled_final/0138_rv.mp4	0.0	159.77595162391663	
22	140.3375198841095	movie	1		282	20.0	2.5	/experiments/Knapen_AOT/AOT_stimuli/rescaled_final/0138_rv.mp4	0.0	159.79245018959045	2.5003600120544434
22	141.9194974899292	pulse	1	t		20.0	2.5	/experiments/Knapen_AOT/AOT_stimuli/rescaled_final/0138_rv.mp4	0.0	161.37442779541016	
22	142.83787989616394	fix_post	2		12	20.0	2.5	/experiments/Knapen_AOT/AOT_stimuli/rescaled_final/0138_rv.mp4	0.0	162.2928102016449	0.09999918937683105
23	142.93787908554077	fix_pre	0		120	21.0	2.5	blank	1.0	162.39280939102173	1.0002508163452148
23	143.52178287506104	pulse	0	t		21.0	2.5	blank	1.0	162.976713180542	
23	143.938129901886	movie	1		300	21.0	2.5	blank	1.0	163.39306020736694	2.5003395080566406
23	145.12194228172302	pulse	1	t		21.0	2.5	blank	1.0	164.57687258720398	
23	146.43846940994263	fix_post	2		12	21.0	2.5	blank	1.0	165.89339971542358	0.09994173049926758
24	146.5384111404419	fix_pre	0		120	22.0	2.5	/experiments/Knapen_AOT/AOT_stimuli/rescaled_final/0173_rv.mp4	0.0	165.99334144592285	1.008523941040039
24	146.7222330570221	pulse	0	t		22.0	2.5	/experiments/Knapen_AOT/AOT_stimuli/rescaled_final/0173_rv.mp4	0.0	166.17716336250305	
24	147.54693508148193	movie	1		290	22.0	2.5	/experiments/Knapen_AOT/AOT_stimuli/rescaled_final/0173_rv.mp4	0.0	167.0018653869629	2.4920060634613037
24	148.32019138336182	pulse	1	t		22.0	2.5	/experiments/Knapen_AOT/AOT_stimuli/rescaled_final/0173_rv.mp4	0.0	167.77512168884277	
24	149.92054963111877	pulse	1	t		22.0	2.5	/experiments/Knapen_AOT/AOT_stimuli/rescaled_final/0173_rv.mp4	0.0	169.37547993659973	
24	150.03894114494324	fix_post	2		12	22.0	2.5	/experiments/Knapen_AOT/AOT_stimuli/rescaled_final/0173_rv.mp4	0.0	169.4938714504242	0.10001707077026367
25	150.1389582157135	fix_pre	0		120	23.0	2.5	/experiments/Knapen_AOT/AOT_stimuli/rescaled_final/0040_rv.mp4	0.0	169.59388852119446	1.0085117816925049
25	151.147469997406	movie	1		282	23.0	2.5	/experiments/Knapen_AOT/AOT_stimuli/rescaled_final/0040_rv.mp4	0.0	170.60240030288696	2.4920456409454346
25	151.5213704109192	pulse	1	t		23.0	2.5	/experiments/Knapen_AOT/AOT_stimuli/rescaled_final/0040_rv.mp4	0.0	170.97630071640015	
25	153.12104201316833	pulse	1	t		23.0	2.5	/experiments/Knapen_AOT/AOT_stimuli/rescaled_final/0040_rv.mp4	0.0	172.5759723186493	
25	153.63951563835144	fix_post	2		12	23.0	2.5	/experiments/Knapen_AOT/AOT_stimuli/rescaled_final/0040_rv.mp4	0.0	173.0944459438324	0.10001254081726074
26	153.7395281791687	fix_pre	0		119	24.0	2.5	/experiments/Knapen_AOT/AOT_stimuli/rescaled_final/1334_fw.mp4	0.0	173.19445848464966	1.0001518726348877
26	154.72324061393738	pulse	0	t		24.0	2.5	/experiments/Knapen_AOT/AOT_stimuli/rescaled_final/1334_fw.mp4	0.0	174.17817091941833	
26	154.7396800518036	movie	1		280	24.0	2.5	/experiments/Knapen_AOT/AOT_stimuli/rescaled_final/1334_fw.mp4	0.0	174.19461035728455	2.5003421306610107
26	156.32198023796082	pulse	1	t		24.0	2.5	/experiments/Knapen_AOT/AOT_stimuli/rescaled_final/1334_fw.mp4	0.0	175.77691054344177	
26	157.2400221824646	fix_post	2		12	24.0	2.5	/experiments/Knapen_AOT/AOT_stimuli/rescaled_final/1334_fw.mp4	0.0	176.69495248794556	0.10002422332763672
27	157.34004640579224	fix_pre	0		120	25.0	2.5	/experiments/Knapen_AOT/AOT_stimuli/rescaled_final/0261_fw.mp4	0.0	176.7949767112732	1.0085604190826416
27	157.9237184524536	pulse	0	t		25.0	2.5	/experiments/Knapen_AOT/AOT_stimuli/rescaled_final/0261_fw.mp4	0.0	177.37864875793457	
27	158.34860682487488	movie	1		278	25.0	2.5	/experiments/Knapen_AOT/AOT_stimuli/rescaled_final/0261_fw.mp4	0.0	177.80353713035583	2.491971254348755
27	159.52272367477417	pulse	1	t		25.0	2.5	/experiments/Knapen_AOT/AOT_stimuli/rescaled_final/0261_fw.mp4	0.0	178.97765398025513	
27	160.84057807922363	fix_post	2		12	25.0	2.5	/experiments/Knapen_AOT/AOT_stimuli/rescaled_final/0261_fw.mp4	0.0	180.2955083847046	0.10001039505004883
28	160.94058847427368	fix_pre	0		120	26.0	2.5	/experiments/Knapen_AOT/AOT_stimuli/rescaled_final/1391_rv.mp4	0.0	180.39551877975464	1.008493185043335
28	161.12414407730103	pulse	0	t		26.0	2.5	/experiments/Knapen_AOT/AOT_stimuli/rescaled_final/1391_rv.mp4	0.0	180.57907438278198	
28	161.94908165931702	movie	1		287	26.0	2.5	/experiments/Knapen_AOT/AOT_stimuli/rescaled_final/1391_rv.mp4	0.0	181.40401196479797	2.49202561378479
28	162.72246861457825	pulse	1	t		26.0	2.5	/experiments/Knapen_AOT/AOT_stimuli/rescaled_final/1391_rv.mp4	0.0	182.1773989200592	
28	164.32283735275269	pulse	1	t		26.0	2.5	/experiments/Knapen_AOT/AOT_stimuli/rescaled_final/1391_rv.mp4	0.0	183.77776765823364	
28	164.4411072731018	fix_post	2		12	26.0	2.5	/experiments/Knapen_AOT/AOT_stimuli/rescaled_final/1391_rv.mp4	0.0	183.89603757858276	0.1000216007232666
29	164.54112887382507	fix_pre	0		120	27.0	2.5	/experiments/Knapen_AOT/AOT_stimuli/rescaled_final/0445_fw.mp4	0.0	183.99605917930603	1.0085585117340088
29	165.54968738555908	movie	1		275	27.0	2.5	/experiments/Knapen_AOT/AOT_stimuli/rescaled_final/0445_fw.mp4	0.0	185.00461769104004	2.4921953678131104
29	165.92364859580994	pulse	1	t		27.0	2.5	/experiments/Knapen_AOT/AOT_stimuli/rescaled_final/0445_fw.mp4	0.0	185.3785789012909	
29	167.52329683303833	pulse	1	t		27.0	2.5	/experiments/Knapen_AOT/AOT_stimuli/rescaled_final/0445_fw.mp4	0.0	186.9782271385193	
29	168.0418827533722	fix_post	2		12	27.0	2.5	/experiments/Knapen_AOT/AOT_stimuli/rescaled_final/0445_fw.mp4	0.0	187.49681305885315	0.09978175163269043
30	168.14166450500488	fix_pre	0		119	28.0	2.5	blank	1.0	187.59659481048584	0.9917926788330078
30	169.11750411987305	pulse	0	t		28.0	2.5	blank	1.0	188.572434425354	
30	169.1334571838379	movie	1		301	28.0	2.5	blank	1.0	188.58838748931885	2.5087687969207764
30	170.71761631965637	pulse	1	t		28.0	2.5	blank	1.0	190.17254662513733	
30	171.64222598075867	fix_post	2		12	28.0	2.5	blank	1.0	191.09715628623962	0.09998106956481934
31	171.7422070503235	fix_pre	0		120	29.0	2.5	/experiments/Knapen_AOT/AOT_stimuli/rescaled_final/1753_fw.mp4	0.0	191.19713735580444	1.008521556854248
31	172.3175609111786	pulse	0	t		29.0	2.5	/experiments/Knapen_AOT/AOT_stimuli/rescaled_final/1753_fw.mp4	0.0	191.77249121665955	
31	172.75072860717773	movie	1		282	29.0	2.5	/experiments/Knapen_AOT/AOT_stimuli/rescaled_final/1753_fw.mp4	0.0	192.2056589126587	2.492037534713745
31	173.91933870315552	pulse	1	t		29.0	2.5	/experiments/Knapen_AOT/AOT_stimuli/rescaled_final/1753_fw.mp4	0.0	193.37426900863647	
31	175.24276614189148	fix_post	2		12	29.0	2.5	/experiments/Knapen_AOT/AOT_stimuli/rescaled_final/1753_fw.mp4	0.0	194.69769644737244	0.0999917984008789
32	175.34275794029236	fix_pre	0		120	30.0	2.5	/experiments/Knapen_AOT/AOT_stimuli/rescaled_final/1870_fw.mp4	0.0	194.79768824577332	1.0084764957427979
32	175.51798343658447	pulse	0	t		30.0	2.5	/experiments/Knapen_AOT/AOT_stimuli/rescaled_final/1870_fw.mp4	0.0	194.97291374206543	
32	176.35123443603516	movie	1		285	30.0	2.5	/experiments/Knapen_AOT/AOT_stimuli/rescaled_final/1870_fw.mp4	0.0	195.8061647415161	2.492034912109375
32	177.11830401420593	pulse	1	t		30.0	2.5	/experiments/Knapen_AOT/AOT_stimuli/rescaled_final/1870_fw.mp4	0.0	196.5732343196869	
32	178.71884655952454	pulse	1	t		30.0	2.5	/experiments/Knapen_AOT/AOT_stimuli/rescaled_final/1870_fw.mp4	0.0	198.1737768650055	
32	178.84326934814453	fix_post	2		12	30.0	2.5	/experiments/Knapen_AOT/AOT_stimuli/rescaled_final/1870_fw.mp4	0.0	198.2981996536255	0.10007333755493164
33	178.94334268569946	fix_pre	0		120	31.0	2.5	/experiments/Knapen_AOT/AOT_stimuli/rescaled_final/1064_fw.mp4	0.0	198.39827299118042	1.0084805488586426
33	179.9518232345581	movie	1		289	31.0	2.5	/experiments/Knapen_AOT/AOT_stimuli/rescaled_final/1064_fw.mp4	0.0	199.40675354003906	2.4919850826263428
33	180.3191294670105	pulse	1	t		31.0	2.5	/experiments/Knapen_AOT/AOT_stimuli/rescaled_final/1064_fw.mp4	0.0	199.77405977249146	
33	181.91799187660217	pulse	1	t		31.0	2.5	/experiments/Knapen_AOT/AOT_stimuli/rescaled_final/1064_fw.mp4	0.0	201.37292218208313	
33	182.44380831718445	fix_post	2		12	31.0	2.5	/experiments/Knapen_AOT/AOT_stimuli/rescaled_final/1064_fw.mp4	0.0	201.8987386226654	0.10002279281616211
34	182.5438311100006	fix_pre	0		118	32.0	2.5	/experiments/Knapen_AOT/AOT_stimuli/rescaled_final/2134_fw.mp4	0.0	201.99876141548157	0.991826057434082
34	183.51937770843506	pulse	0	t		32.0	2.5	/experiments/Knapen_AOT/AOT_stimuli/rescaled_final/2134_fw.mp4	0.0	202.97430801391602	
34	183.5356571674347	movie	1		268	32.0	2.5	/experiments/Knapen_AOT/AOT_stimuli/rescaled_final/2134_fw.mp4	0.0	202.99058747291565	2.5003693103790283
34	185.11816930770874	pulse	1	t		32.0	2.5	/experiments/Knapen_AOT/AOT_stimuli/rescaled_final/2134_fw.mp4	0.0	204.5730996131897	
34	186.03602647781372	fix_post	2		12	32.0	2.5	/experiments/Knapen_AOT/AOT_stimuli/rescaled_final/2134_fw.mp4	0.0	205.49095678329468	0.10007166862487793
35	186.1360981464386	fix_pre	0		120	33.0	2.5	/experiments/Knapen_AOT/AOT_stimuli/rescaled_final/1400_rv.mp4	0.0	205.59102845191956	1.0084538459777832
35	186.7196068763733	pulse	0	t		33.0	2.5	/experiments/Knapen_AOT/AOT_stimuli/rescaled_final/1400_rv.mp4	0.0	206.17453718185425	
35	187.14455199241638	movie	1		289	33.0	2.5	/experiments/Knapen_AOT/AOT_stimuli/rescaled_final/1400_rv.mp4	0.0	206.59948229789734	2.492020845413208
35	188.31835317611694	pulse	1	t		33.0	2.5	/experiments/Knapen_AOT/AOT_stimuli/rescaled_final/1400_rv.mp4	0.0	207.7732834815979	
35	189.6365728378296	fix_post	2		12	33.0	2.5	/experiments/Knapen_AOT/AOT_stimuli/rescaled_final/1400_rv.mp4	0.0	209.09150314331055	0.1000223159790039
36	189.7365951538086	fix_pre	0		120	34.0	2.5	/experiments/Knapen_AOT/AOT_stimuli/rescaled_final/0903_rv.mp4	0.0	209.19152545928955	1.0085315704345703
36	189.92028260231018	pulse	0	t		34.0	2.5	/experiments/Knapen_AOT/AOT_stimuli/rescaled_final/0903_rv.mp4	0.0	209.37521290779114	
36	190.74512672424316	movie	1		279	34.0	2.5	/experiments/Knapen_AOT/AOT_stimuli/rescaled_final/0903_rv.mp4	0.0	210.20005702972412	2.491978645324707
36	191.51834678649902	pulse	1	t		34.0	2.5	/experiments/Knapen_AOT/AOT_stimuli/rescaled_final/0903_rv.mp4	0.0	210.97327709197998	
36	193.11855268478394	pulse	1	t		34.0	2.5	/experiments/Knapen_AOT/AOT_stimuli/rescaled_final/0903_rv.mp4	0.0	212.5734829902649	
36	193.23710536956787	fix_post	2		12	34.0	2.5	/experiments/Knapen_AOT/AOT_stimuli/rescaled_final/0903_rv.mp4	0.0	212.69203567504883	0.10001206398010254
37	193.33711743354797	fix_pre	0		120	35.0	2.5	blank	1.0	212.79204773902893	1.0003418922424316
37	194.3374593257904	movie	1		300	35.0	2.5	blank	1.0	213.79238963127136	2.5002315044403076
37	194.7208206653595	pulse	1	t		35.0	2.5	blank	1.0	214.17575097084045	
37	196.32114815711975	pulse	1	t		35.0	2.5	blank	1.0	215.7760784626007	
37	196.8376908302307	fix_post	2		12	35.0	2.5	blank	1.0	216.29262113571167	0.09997224807739258
38	196.9376630783081	fix_pre	0		119	36.0	2.5	/experiments/Knapen_AOT/AOT_stimuli/rescaled_final/0043_rv.mp4	0.0	216.39259338378906	1.0085232257843018
38	197.9213330745697	pulse	0	t		36.0	2.5	/experiments/Knapen_AOT/AOT_stimuli/rescaled_final/0043_rv.mp4	0.0	217.37626338005066	
38	197.9461863040924	movie	1		286	36.0	2.5	/experiments/Knapen_AOT/AOT_stimuli/rescaled_final/0043_rv.mp4	0.0	217.40111660957336	2.4920079708099365
38	199.51990699768066	pulse	1	t		36.0	2.5	/experiments/Knapen_AOT/AOT_stimuli/rescaled_final/0043_rv.mp4	0.0	218.97483730316162	
38	200.43819427490234	fix_post	2		12	36.0	2.5	/experiments/Knapen_AOT/AOT_stimuli/rescaled_final/0043_rv.mp4	0.0	219.8931245803833	0.10002827644348145
39	200.53822255134583	fix_pre	0		120	37.0	2.5	/experiments/Knapen_AOT/AOT_stimuli/rescaled_final/2116_fw.mp4	0.0	219.99315285682678	1.0084822177886963
39	201.12180924415588	pulse	0	t		37.0	2.5	/experiments/Knapen_AOT/AOT_stimuli/rescaled_final/2116_fw.mp4	0.0	220.57673954963684	
39	201.54670476913452	movie	1		288	37.0	2.5	/experiments/Knapen_AOT/AOT_stimuli/rescaled_final/2116_fw.mp4	0.0	221.00163507461548	2.4921200275421143
39	202.72051000595093	pulse	1	t		37.0	2.5	/experiments/Knapen_AOT/AOT_stimuli/rescaled_final/2116_fw.mp4	0.0	222.17544031143188	
39	204.03882479667664	fix_post	2		12	37.0	2.5	/experiments/Knapen_AOT/AOT_stimuli/rescaled_final/2116_fw.mp4	0.0	223.4937551021576	0.09992003440856934
40	204.1387448310852	fix_pre	0		120	38.0	2.5	/experiments/Knapen_AOT/AOT_stimuli/rescaled_final/1609_fw.mp4	0.0	223.59367513656616	1.0085086822509766
40	204.3223111629486	pulse	0	t		38.0	2.5	/experiments/Knapen_AOT/AOT_stimuli/rescaled_final/1609_fw.mp4	0.0	223.77724146842957	
40	205.14725351333618	movie	1		285	38.0	2.5	/experiments/Knapen_AOT/AOT_stimuli/rescaled_final/1609_fw.mp4	0.0	224.60218381881714	2.4919872283935547
40	205.92069816589355	pulse	1	t		38.0	2.5	/experiments/Knapen_AOT/AOT_stimuli/rescaled_final/1609_fw.mp4	0.0	225.3756284713745	
40	207.52092909812927	pulse	1	t		38.0	2.5	/experiments/Knapen_AOT/AOT_stimuli/rescaled_final/1609_fw.mp4	0.0	226.97585940361023	
40	207.63924074172974	fix_post	2		12	38.0	2.5	/experiments/Knapen_AOT/AOT_stimuli/rescaled_final/1609_fw.mp4	0.0	227.0941710472107	0.10019826889038086
41	207.73943901062012	fix_pre	0		120	39.0	2.5	/experiments/Knapen_AOT/AOT_stimuli/rescaled_final/2022_rv.mp4	0.0	227.19436931610107	1.008368968963623
41	208.74780797958374	movie	1		277	39.0	2.5	/experiments/Knapen_AOT/AOT_stimuli/rescaled_final/2022_rv.mp4	0.0	228.2027382850647	2.49200439453125
41	209.12286520004272	pulse	1	t		39.0	2.5	/experiments/Knapen_AOT/AOT_stimuli/rescaled_final/2022_rv.mp4	0.0	228.57779550552368	
41	210.7213532924652	pulse	1	t		39.0	2.5	/experiments/Knapen_AOT/AOT_stimuli/rescaled_final/2022_rv.mp4	0.0	230.17628359794617	
41	211.239812374115	fix_post	2		12	39.0	2.5	/experiments/Knapen_AOT/AOT_stimuli/rescaled_final/2022_rv.mp4	0.0	230.69474267959595	0.10001492500305176
42	211.33982729911804	fix_pre	0		119	40.0	2.5	/experiments/Knapen_AOT/AOT_stimuli/rescaled_final/0245_rv.mp4	0.0	230.794757604599	1.0002009868621826
42	212.3235342502594	pulse	0	t		40.0	2.5	/experiments/Knapen_AOT/AOT_stimuli/rescaled_final/0245_rv.mp4	0.0	231.77846455574036	
42	212.34002828598022	movie	1		286	40.0	2.5	/experiments/Knapen_AOT/AOT_stimuli/rescaled_final/0245_rv.mp4	0.0	231.79495859146118	2.5003244876861572
42	213.92247319221497	pulse	1	t		40.0	2.5	/experiments/Knapen_AOT/AOT_stimuli/rescaled_final/0245_rv.mp4	0.0	233.37740349769592	
42	214.84035277366638	fix_post	2		12	40.0	2.5	/experiments/Knapen_AOT/AOT_stimuli/rescaled_final/0245_rv.mp4	0.0	234.29528307914734	0.10006070137023926
43	214.94041347503662	fix_pre	0		120	41.0	2.5	blank	1.0	234.39534378051758	1.0001873970031738
43	215.52456665039062	pulse	0	t		41.0	2.5	blank	1.0	234.97949695587158	
43	215.9406008720398	movie	1		285	41.0	2.5	blank	1.0	235.39553117752075	2.5002996921539307
43	217.12526392936707	pulse	1	t		41.0	2.5	blank	1.0	236.58019423484802	
43	218.44090056419373	fix_post	2		12	41.0	2.5	blank	1.0	237.89583086967468	0.10000205039978027
44	218.5409026145935	fix_pre	0		120	42.0	2.5	/experiments/Knapen_AOT/AOT_stimuli/rescaled_final/1290_rv.mp4	0.0	237.99583292007446	1.0085017681121826
44	218.71717047691345	pulse	0	t		42.0	2.5	/experiments/Knapen_AOT/AOT_stimuli/rescaled_final/1290_rv.mp4	0.0	238.1721007823944	
44	219.5494043827057	movie	1		278	42.0	2.5	/experiments/Knapen_AOT/AOT_stimuli/rescaled_final/1290_rv.mp4	0.0	239.00433468818665	2.4920363426208496
44	220.3240966796875	pulse	1	t		42.0	2.5	/experiments/Knapen_AOT/AOT_stimuli/rescaled_final/1290_rv.mp4	0.0	239.77902698516846	
44	221.91687893867493	pulse	1	t		42.0	2.5	/experiments/Knapen_AOT/AOT_stimuli/rescaled_final/1290_rv.mp4	0.0	241.37180924415588	
44	222.04144072532654	fix_post	2		12	42.0	2.5	/experiments/Knapen_AOT/AOT_stimuli/rescaled_final/1290_rv.mp4	0.0	241.4963710308075	0.1000211238861084
45	222.14146184921265	fix_pre	0		120	43.0	2.5	/experiments/Knapen_AOT/AOT_stimuli/rescaled_final/0234_rv.mp4	0.0	241.5963921546936	1.0084726810455322
45	223.14993453025818	movie	1		284	43.0	2.5	/experiments/Knapen_AOT/AOT_stimuli/rescaled_final/0234_rv.mp4	0.0	242.60486483573914	2.4920573234558105
45	223.51680421829224	pulse	1	t		43.0	2.5	/experiments/Knapen_AOT/AOT_stimuli/rescaled_final/0234_rv.mp4	0.0	242.9717345237732	
45	225.117107629776	pulse	1	t		43.0	2.5	/experiments/Knapen_AOT/AOT_stimuli/rescaled_final/0234_rv.mp4	0.0	244.57203793525696	
45	225.641991853714	fix_post	2		12	43.0	2.5	/experiments/Knapen_AOT/AOT_stimuli/rescaled_final/0234_rv.mp4	0.0	245.09692215919495	0.09998512268066406
46	225.74197697639465	fix_pre	0		118	44.0	2.5	/experiments/Knapen_AOT/AOT_stimuli/rescaled_final/0221_rv.mp4	0.0	245.1969072818756	1.0002949237823486
46	226.7173457145691	pulse	0	t		44.0	2.5	/experiments/Knapen_AOT/AOT_stimuli/rescaled_final/0221_rv.mp4	0.0	246.17227602005005	
46	226.742271900177	movie	1		270	44.0	2.5	/experiments/Knapen_AOT/AOT_stimuli/rescaled_final/0221_rv.mp4	0.0	246.19720220565796	2.491910219192505
46	228.31755471229553	pulse	1	t		44.0	2.5	/experiments/Knapen_AOT/AOT_stimuli/rescaled_final/0221_rv.mp4	0.0	247.7724850177765	
46	229.2341821193695	fix_post	2		12	44.0	2.5	/experiments/Knapen_AOT/AOT_stimuli/rescaled_final/0221_rv.mp4	0.0	248.68911242485046	0.10001564025878906
47	229.3341977596283	fix_pre	0		120	45.0	2.5	/experiments/Knapen_AOT/AOT_stimuli/rescaled_final/0667_fw.mp4	0.0	248.78912806510925	1.0085721015930176
47	229.91787242889404	pulse	0	t		45.0	2.5	/experiments/Knapen_AOT/AOT_stimuli/rescaled_final/0667_fw.mp4	0.0	249.372802734375	
47	230.3427698612213	movie	1		279	45.0	2.5	/experiments/Knapen_AOT/AOT_stimuli/rescaled_final/0667_fw.mp4	0.0	249.79770016670227	2.491973400115967
47	231.51821899414062	pulse	1	t		45.0	2.5	/experiments/Knapen_AOT/AOT_stimuli/rescaled_final/0667_fw.mp4	0.0	250.97314929962158	
47	232.83474326133728	fix_post	2		12	45.0	2.5	/experiments/Knapen_AOT/AOT_stimuli/rescaled_final/0667_fw.mp4	0.0	252.28967356681824	0.10000205039978027
48	232.93474531173706	fix_pre	0		120	46.0	2.5	/experiments/Knapen_AOT/AOT_stimuli/rescaled_final/0871_fw.mp4	0.0	252.38967561721802	1.0084936618804932
48	233.11843824386597	pulse	0	t		46.0	2.5	/experiments/Knapen_AOT/AOT_stimuli/rescaled_final/0871_fw.mp4	0.0	252.57336854934692	
48	233.94323897361755	movie	1		285	46.0	2.5	/experiments/Knapen_AOT/AOT_stimuli/rescaled_final/0871_fw.mp4	0.0	253.3981692790985	2.4920623302459717
48	234.71871852874756	pulse	1	t		46.0	2.5	/experiments/Knapen_AOT/AOT_stimuli/rescaled_final/0871_fw.mp4	0.0	254.17364883422852	
48	236.31703066825867	pulse	1	t		46.0	2.5	/experiments/Knapen_AOT/AOT_stimuli/rescaled_final/0871_fw.mp4	0.0	255.77196097373962	
48	236.43530130386353	fix_post	2		12	46.0	2.5	/experiments/Knapen_AOT/AOT_stimuli/rescaled_final/0871_fw.mp4	0.0	255.89023160934448	0.09997916221618652
49	236.5352804660797	fix_pre	0		120	47.0	2.5	/experiments/Knapen_AOT/AOT_stimuli/rescaled_final/1501_fw.mp4	0.0	255.99021077156067	1.0085430145263672
49	237.54382348060608	movie	1		273	47.0	2.5	/experiments/Knapen_AOT/AOT_stimuli/rescaled_final/1501_fw.mp4	0.0	256.99875378608704	2.492098093032837
49	237.9177451133728	pulse	1	t		47.0	2.5	/experiments/Knapen_AOT/AOT_stimuli/rescaled_final/1501_fw.mp4	0.0	257.37267541885376	
49	239.5172884464264	pulse	1	t		47.0	2.5	/experiments/Knapen_AOT/AOT_stimuli/rescaled_final/1501_fw.mp4	0.0	258.97221875190735	
49	240.03592157363892	fix_post	2		12	47.0	2.5	/experiments/Knapen_AOT/AOT_stimuli/rescaled_final/1501_fw.mp4	0.0	259.4908518791199	0.09994125366210938
50	240.13586282730103	fix_pre	0		119	48.0	2.5	/experiments/Knapen_AOT/AOT_stimuli/rescaled_final/0634_fw.mp4	0.0	259.590793132782	1.0001230239868164
50	241.11972403526306	pulse	0	t		48.0	2.5	/experiments/Knapen_AOT/AOT_stimuli/rescaled_final/0634_fw.mp4	0.0	260.574654340744	
50	241.13598585128784	movie	1		281	48.0	2.5	/experiments/Knapen_AOT/AOT_stimuli/rescaled_final/0634_fw.mp4	0.0	260.5909161567688	2.5003833770751953
50	242.71807861328125	pulse	1	t		48.0	2.5	/experiments/Knapen_AOT/AOT_stimuli/rescaled_final/0634_fw.mp4	0.0	262.1730089187622	
50	243.63636922836304	fix_post	2		12	48.0	2.5	/experiments/Knapen_AOT/AOT_stimuli/rescaled_final/0634_fw.mp4	0.0	263.091299533844	0.10005569458007812
51	243.73642492294312	fix_pre	0		120	49.0	2.5	blank	1.0	263.1913552284241	1.0000910758972168
51	244.32000732421875	pulse	0	t		49.0	2.5	blank	1.0	263.7749376296997	
51	244.73651599884033	movie	1		300	49.0	2.5	blank	1.0	264.1914463043213	2.5004262924194336
51	245.92019248008728	pulse	1	t		49.0	2.5	blank	1.0	265.37512278556824	
51	247.23694229125977	fix_post	2		12	49.0	2.5	blank	1.0	266.6918725967407	0.09997344017028809
52	247.33691573143005	fix_pre	0		120	50.0	2.5	/experiments/Knapen_AOT/AOT_stimuli/rescaled_final/0683_fw.mp4	0.0	266.791846036911	1.008497953414917
52	247.52049112319946	pulse	0	t		50.0	2.5	/experiments/Knapen_AOT/AOT_stimuli/rescaled_final/0683_fw.mp4	0.0	266.9754214286804	
52	248.34541368484497	movie	1		277	50.0	2.5	/experiments/Knapen_AOT/AOT_stimuli/rescaled_final/0683_fw.mp4	0.0	267.8003439903259	2.4920034408569336
52	249.11891317367554	pulse	1	t		50.0	2.5	/experiments/Knapen_AOT/AOT_stimuli/rescaled_final/0683_fw.mp4	0.0	268.5738434791565	
52	250.71905636787415	pulse	1	t		50.0	2.5	/experiments/Knapen_AOT/AOT_stimuli/rescaled_final/0683_fw.mp4	0.0	270.1739866733551	
52	250.8374171257019	fix_post	2		12	50.0	2.5	/experiments/Knapen_AOT/AOT_stimuli/rescaled_final/0683_fw.mp4	0.0	270.29234743118286	0.10003376007080078
53	250.9374508857727	fix_pre	0		120	51.0	2.5	/experiments/Knapen_AOT/AOT_stimuli/rescaled_final/1265_rv.mp4	0.0	270.39238119125366	1.0085577964782715
53	251.94600868225098	movie	1		278	51.0	2.5	/experiments/Knapen_AOT/AOT_stimuli/rescaled_final/1265_rv.mp4	0.0	271.40093898773193	2.492008686065674
53	252.32014966011047	pulse	1	t		51.0	2.5	/experiments/Knapen_AOT/AOT_stimuli/rescaled_final/1265_rv.mp4	0.0	271.77507996559143	
53	253.9196515083313	pulse	1	t		51.0	2.5	/experiments/Knapen_AOT/AOT_stimuli/rescaled_final/1265_rv.mp4	0.0	273.37458181381226	
53	254.43801736831665	fix_post	2		12	51.0	2.5	/experiments/Knapen_AOT/AOT_stimuli/rescaled_final/1265_rv.mp4	0.0	273.8929476737976	0.10002756118774414
54	254.5380449295044	fix_pre	0		119	52.0	2.5	/experiments/Knapen_AOT/AOT_stimuli/rescaled_final/1532_rv.mp4	0.0	273.99297523498535	1.0001423358917236
54	255.52176523208618	pulse	0	t		52.0	2.5	/experiments/Knapen_AOT/AOT_stimuli/rescaled_final/1532_rv.mp4	0.0	274.97669553756714	
54	255.53818726539612	movie	1		281	52.0	2.5	/experiments/Knapen_AOT/AOT_stimuli/rescaled_final/1532_rv.mp4	0.0	274.9931175708771	2.500328779220581
54	257.1226670742035	pulse	1	t		52.0	2.5	/experiments/Knapen_AOT/AOT_stimuli/rescaled_final/1532_rv.mp4	0.0	276.57759737968445	
54	258.0385160446167	fix_post	2		12	52.0	2.5	/experiments/Knapen_AOT/AOT_stimuli/rescaled_final/1532_rv.mp4	0.0	277.49344635009766	0.10001254081726074
55	258.13852858543396	fix_pre	0		120	53.0	2.5	/experiments/Knapen_AOT/AOT_stimuli/rescaled_final/2046_rv.mp4	0.0	277.5934588909149	1.0085418224334717
55	258.72220158576965	pulse	0	t		53.0	2.5	/experiments/Knapen_AOT/AOT_stimuli/rescaled_final/2046_rv.mp4	0.0	278.1771318912506	
55	259.14707040786743	movie	1		265	53.0	2.5	/experiments/Knapen_AOT/AOT_stimuli/rescaled_final/2046_rv.mp4	0.0	278.6020007133484	2.492051124572754
55	260.32074904441833	pulse	1	t		53.0	2.5	/experiments/Knapen_AOT/AOT_stimuli/rescaled_final/2046_rv.mp4	0.0	279.7756793498993	
55	261.6391215324402	fix_post	2		12	53.0	2.5	/experiments/Knapen_AOT/AOT_stimuli/rescaled_final/2046_rv.mp4	0.0	281.09405183792114	0.09996557235717773
56	261.73908710479736	fix_pre	0		120	54.0	2.5	/experiments/Knapen_AOT/AOT_stimuli/rescaled_final/0983_fw.mp4	0.0	281.1940174102783	1.0085268020629883
56	261.92264199256897	pulse	0	t		54.0	2.5	/experiments/Knapen_AOT/AOT_stimuli/rescaled_final/0983_fw.mp4	0.0	281.3775722980499	
56	262.74761390686035	movie	1		279	54.0	2.5	/experiments/Knapen_AOT/AOT_stimuli/rescaled_final/0983_fw.mp4	0.0	282.2025442123413	2.4919886589050293
56	263.5211663246155	pulse	1	t		54.0	2.5	/experiments/Knapen_AOT/AOT_stimuli/rescaled_final/0983_fw.mp4	0.0	282.97609663009644	
56	265.1213757991791	pulse	1	t		54.0	2.5	/experiments/Knapen_AOT/AOT_stimuli/rescaled_final/0983_fw.mp4	0.0	284.57630610466003	
56	265.2396025657654	fix_post	2		12	54.0	2.5	/experiments/Knapen_AOT/AOT_stimuli/rescaled_final/0983_fw.mp4	0.0	284.69453287124634	0.10001301765441895
57	265.3396155834198	fix_pre	0		120	55.0	2.5	blank	1.0	284.79454588890076	1.000253438949585
57	266.3398690223694	movie	1		300	55.0	2.5	blank	1.0	285.79479932785034	2.5003488063812256
57	266.7233455181122	pulse	1	t		55.0	2.5	blank	1.0	286.17827582359314	
57	268.32355642318726	pulse	1	t		55.0	2.5	blank	1.0	287.7784867286682	
57	268.8402178287506	fix_post	2		12	55.0	2.5	blank	1.0	288.29514813423157	0.09996700286865234
58	268.94018483161926	fix_pre	0		119	56.0	2.5	/experiments/Knapen_AOT/AOT_stimuli/rescaled_final/1112_fw.mp4	0.0	288.3951151371002	1.000108003616333
58	269.9241142272949	pulse	0	t		56.0	2.5	/experiments/Knapen_AOT/AOT_stimuli/rescaled_final/1112_fw.mp4	0.0	289.3790445327759	
58	269.9402928352356	movie	1		283	56.0	2.5	/experiments/Knapen_AOT/AOT_stimuli/rescaled_final/1112_fw.mp4	0.0	289.39522314071655	2.500382661819458
58	271.52261304855347	pulse	1	t		56.0	2.5	/experiments/Knapen_AOT/AOT_stimuli/rescaled_final/1112_fw.mp4	0.0	290.9775433540344	
58	272.44067549705505	fix_post	2		12	56.0	2.5	/experiments/Knapen_AOT/AOT_stimuli/rescaled_final/1112_fw.mp4	0.0	291.895605802536	0.1000065803527832
59	272.54068207740784	fix_pre	0		120	57.0	2.5	/experiments/Knapen_AOT/AOT_stimuli/rescaled_final/1897_fw.mp4	0.0	291.9956123828888	1.0085172653198242
59	273.1243004798889	pulse	0	t		57.0	2.5	/experiments/Knapen_AOT/AOT_stimuli/rescaled_final/1897_fw.mp4	0.0	292.5792307853699	
59	273.54919934272766	movie	1		279	57.0	2.5	/experiments/Knapen_AOT/AOT_stimuli/rescaled_final/1897_fw.mp4	0.0	293.0041296482086	2.492060899734497
59	274.72315979003906	pulse	1	t		57.0	2.5	/experiments/Knapen_AOT/AOT_stimuli/rescaled_final/1897_fw.mp4	0.0	294.17809009552	
59	276.04126024246216	fix_post	2		12	57.0	2.5	/experiments/Knapen_AOT/AOT_stimuli/rescaled_final/1897_fw.mp4	0.0	295.4961905479431	0.09999299049377441
60	276.14125323295593	fix_pre	0		120	58.0	2.5	/experiments/Knapen_AOT/AOT_stimuli/rescaled_final/0669_rv.mp4	0.0	295.5961835384369	1.0084943771362305
60	276.3247880935669	pulse	0	t		58.0	2.5	/experiments/Knapen_AOT/AOT_stimuli/rescaled_final/0669_rv.mp4	0.0	295.77971839904785	
60	277.14974761009216	movie	1		269	58.0	2.5	/experiments/Knapen_AOT/AOT_stimuli/rescaled_final/0669_rv.mp4	0.0	296.6046779155731	2.492009401321411
60	277.9230217933655	pulse	1	t		58.0	2.5	/experiments/Knapen_AOT/AOT_stimuli/rescaled_final/0669_rv.mp4	0.0	297.37795209884644	
60	279.51728200912476	pulse	1	t		58.0	2.5	/experiments/Knapen_AOT/AOT_stimuli/rescaled_final/0669_rv.mp4	0.0	298.9722123146057	
60	279.6417570114136	fix_post	2		12	58.0	2.5	/experiments/Knapen_AOT/AOT_stimuli/rescaled_final/0669_rv.mp4	0.0	299.09668731689453	0.10001587867736816
61	279.74177289009094	fix_pre	0		120	59.0	2.5	/experiments/Knapen_AOT/AOT_stimuli/rescaled_final/0871_fw.mp4	0.0	299.1967031955719	1.0085082054138184
61	280.75028109550476	movie	1		278	59.0	2.5	/experiments/Knapen_AOT/AOT_stimuli/rescaled_final/0871_fw.mp4	0.0	300.2052114009857	2.4920783042907715
61	281.1174142360687	pulse	1	t		59.0	2.5	/experiments/Knapen_AOT/AOT_stimuli/rescaled_final/0871_fw.mp4	0.0	300.5723445415497	
61	282.7174186706543	pulse	1	t		59.0	2.5	/experiments/Knapen_AOT/AOT_stimuli/rescaled_final/0871_fw.mp4	0.0	302.17234897613525	
61	283.24235939979553	fix_post	2		12	59.0	2.5	/experiments/Knapen_AOT/AOT_stimuli/rescaled_final/0871_fw.mp4	0.0	302.6972897052765	0.10000061988830566
62	283.34236001968384	fix_pre	0		118	60.0	2.5	/experiments/Knapen_AOT/AOT_stimuli/rescaled_final/1328_rv.mp4	0.0	302.7972903251648	0.9918394088745117
62	284.31773138046265	pulse	0	t		60.0	2.5	/experiments/Knapen_AOT/AOT_stimuli/rescaled_final/1328_rv.mp4	0.0	303.7726616859436	
62	284.33419942855835	movie	1		287	60.0	2.5	/experiments/Knapen_AOT/AOT_stimuli/rescaled_final/1328_rv.mp4	0.0	303.7891297340393	2.500304698944092
62	285.9180781841278	pulse	1	t		60.0	2.5	/experiments/Knapen_AOT/AOT_stimuli/rescaled_final/1328_rv.mp4	0.0	305.37300848960876	
62	286.83450412750244	fix_post	2		12	60.0	2.5	/experiments/Knapen_AOT/AOT_stimuli/rescaled_final/1328_rv.mp4	0.0	306.2894344329834	0.10003542900085449
63	286.9345395565033	fix_pre	0		120	61.0	2.5	/experiments/Knapen_AOT/AOT_stimuli/rescaled_final/0640_fw.mp4	0.0	306.38946986198425	1.0084776878356934
63	287.5182011127472	pulse	0	t		61.0	2.5	/experiments/Knapen_AOT/AOT_stimuli/rescaled_final/0640_fw.mp4	0.0	306.97313141822815	
63	287.943017244339	movie	1		277	61.0	2.5	/experiments/Knapen_AOT/AOT_stimuli/rescaled_final/0640_fw.mp4	0.0	307.39794754981995	2.492035388946533
63	289.1187047958374	pulse	1	t		61.0	2.5	/experiments/Knapen_AOT/AOT_stimuli/rescaled_final/0640_fw.mp4	0.0	308.57363510131836	
63	290.4350526332855	fix_post	2		12	61.0	2.5	/experiments/Knapen_AOT/AOT_stimuli/rescaled_final/0640_fw.mp4	0.0	309.8899829387665	0.10002803802490234
64	290.5350806713104	fix_pre	0		120	62.0	2.5	/experiments/Knapen_AOT/AOT_stimuli/rescaled_final/1171_fw.mp4	0.0	309.9900109767914	1.0085101127624512
64	290.71866393089294	pulse	0	t		62.0	2.5	/experiments/Knapen_AOT/AOT_stimuli/rescaled_final/1171_fw.mp4	0.0	310.1735942363739	
64	291.5435907840729	movie	1		283	62.0	2.5	/experiments/Knapen_AOT/AOT_stimuli/rescaled_final/1171_fw.mp4	0.0	310.99852108955383	2.5003504753112793
64	292.3172585964203	pulse	1	t		62.0	2.5	/experiments/Knapen_AOT/AOT_stimuli/rescaled_final/1171_fw.mp4	0.0	311.77218890190125	
64	293.9175522327423	pulse	1	t		62.0	2.5	/experiments/Knapen_AOT/AOT_stimuli/rescaled_final/1171_fw.mp4	0.0	313.37248253822327	
64	294.04394125938416	fix_post	2		11	62.0	2.5	/experiments/Knapen_AOT/AOT_stimuli/rescaled_final/1171_fw.mp4	0.0	313.4988715648651	0.0916893482208252
65	294.135630607605	fix_pre	0		120	63.0	2.5	blank	1.0	313.59056091308594	1.0001108646392822
65	295.13574147224426	movie	1		300	63.0	2.5	blank	1.0	314.5906717777252	2.5003840923309326
65	295.5193567276001	pulse	1	t		63.0	2.5	blank	1.0	314.97428703308105	
65	297.11960649490356	pulse	1	t		63.0	2.5	blank	1.0	316.5745368003845	
65	297.6361255645752	fix_post	2		12	63.0	2.5	blank	1.0	317.09105587005615	0.10002779960632324
66	297.7361533641815	fix_pre	0		119	64.0	2.5	/experiments/Knapen_AOT/AOT_stimuli/rescaled_final/0593_rv.mp4	0.0	317.1910836696625	1.0086562633514404
66	298.7199058532715	pulse	0	t		64.0	2.5	/experiments/Knapen_AOT/AOT_stimuli/rescaled_final/0593_rv.mp4	0.0	318.17483615875244	
66	298.74480962753296	movie	1		269	64.0	2.5	/experiments/Knapen_AOT/AOT_stimuli/rescaled_final/0593_rv.mp4	0.0	318.1997399330139	2.491861343383789
66	300.3190014362335	pulse	1	t		64.0	2.5	/experiments/Knapen_AOT/AOT_stimuli/rescaled_final/0593_rv.mp4	0.0	319.7739317417145	
66	301.23667097091675	fix_post	2		12	64.0	2.5	/experiments/Knapen_AOT/AOT_stimuli/rescaled_final/0593_rv.mp4	0.0	320.6916012763977	0.10003495216369629
67	301.33670592308044	fix_pre	0		120	65.0	2.5	/experiments/Knapen_AOT/AOT_stimuli/rescaled_final/0913_fw.mp4	0.0	320.7916362285614	1.008470058441162
67	301.9207446575165	pulse	0	t		65.0	2.5	/experiments/Knapen_AOT/AOT_stimuli/rescaled_final/0913_fw.mp4	0.0	321.37567496299744	
67	302.3451759815216	movie	1		270	65.0	2.5	/experiments/Knapen_AOT/AOT_stimuli/rescaled_final/0913_fw.mp4	0.0	321.80010628700256	2.4920480251312256
67	303.51928424835205	pulse	1	t		65.0	2.5	/experiments/Knapen_AOT/AOT_stimuli/rescaled_final/0913_fw.mp4	0.0	322.974214553833	
67	304.83722400665283	fix_post	2		12	65.0	2.5	/experiments/Knapen_AOT/AOT_stimuli/rescaled_final/0913_fw.mp4	0.0	324.2921543121338	0.10004329681396484
68	304.9372673034668	fix_pre	0		120	66.0	2.5	/experiments/Knapen_AOT/AOT_stimuli/rescaled_final/1691_fw.mp4	0.0	324.39219760894775	1.0084433555603027
68	305.12073159217834	pulse	0	t		66.0	2.5	/experiments/Knapen_AOT/AOT_stimuli/rescaled_final/1691_fw.mp4	0.0	324.5756618976593	
68	305.9457106590271	movie	1		269	66.0	2.5	/experiments/Knapen_AOT/AOT_stimuli/rescaled_final/1691_fw.mp4	0.0	325.40064096450806	2.4920520782470703
68	306.71941566467285	pulse	1	t		66.0	2.5	/experiments/Knapen_AOT/AOT_stimuli/rescaled_final/1691_fw.mp4	0.0	326.1743459701538	
68	308.3198001384735	pulse	1	t		66.0	2.5	/experiments/Knapen_AOT/AOT_stimuli/rescaled_final/1691_fw.mp4	0.0	327.77473044395447	
68	308.43776273727417	fix_post	2		12	66.0	2.5	/experiments/Knapen_AOT/AOT_stimuli/rescaled_final/1691_fw.mp4	0.0	327.8926930427551	0.10001039505004883
69	308.5377731323242	fix_pre	0		120	67.0	2.5	/experiments/Knapen_AOT/AOT_stimuli/rescaled_final/1393_rv.mp4	0.0	327.9927034378052	1.0085182189941406
69	309.54629135131836	movie	1		277	67.0	2.5	/experiments/Knapen_AOT/AOT_stimuli/rescaled_final/1393_rv.mp4	0.0	329.0012216567993	2.4919939041137695
69	309.91989183425903	pulse	1	t		67.0	2.5	/experiments/Knapen_AOT/AOT_stimuli/rescaled_final/1393_rv.mp4	0.0	329.37482213974	
69	311.5196964740753	pulse	1	t		67.0	2.5	/experiments/Knapen_AOT/AOT_stimuli/rescaled_final/1393_rv.mp4	0.0	330.9746267795563	
69	312.03828525543213	fix_post	2		12	67.0	2.5	/experiments/Knapen_AOT/AOT_stimuli/rescaled_final/1393_rv.mp4	0.0	331.4932155609131	0.10007834434509277
70	312.1383635997772	fix_pre	0		119	68.0	2.5	/experiments/Knapen_AOT/AOT_stimuli/rescaled_final/0037_fw.mp4	0.0	331.5932939052582	1.0084660053253174
70	313.1220483779907	pulse	0	t		68.0	2.5	/experiments/Knapen_AOT/AOT_stimuli/rescaled_final/0037_fw.mp4	0.0	332.5769786834717	
70	313.14682960510254	movie	1		284	68.0	2.5	/experiments/Knapen_AOT/AOT_stimuli/rescaled_final/0037_fw.mp4	0.0	332.6017599105835	2.4920084476470947
70	314.7206914424896	pulse	1	t		68.0	2.5	/experiments/Knapen_AOT/AOT_stimuli/rescaled_final/0037_fw.mp4	0.0	334.1756217479706	
70	315.63883805274963	fix_post	2		12	68.0	2.5	/experiments/Knapen_AOT/AOT_stimuli/rescaled_final/0037_fw.mp4	0.0	335.0937683582306	0.10001301765441895
71	315.73885107040405	fix_pre	0		120	69.0	2.5	/experiments/Knapen_AOT/AOT_stimuli/rescaled_final/1065_fw.mp4	0.0	335.193781375885	1.0085105895996094
71	316.3224422931671	pulse	0	t		69.0	2.5	/experiments/Knapen_AOT/AOT_stimuli/rescaled_final/1065_fw.mp4	0.0	335.77737259864807	
71	316.74736166000366	movie	1		270	69.0	2.5	/experiments/Knapen_AOT/AOT_stimuli/rescaled_final/1065_fw.mp4	0.0	336.2022919654846	2.4920549392700195
71	317.9206256866455	pulse	1	t		69.0	2.5	/experiments/Knapen_AOT/AOT_stimuli/rescaled_final/1065_fw.mp4	0.0	337.37555599212646	
71	319.2394165992737	fix_post	2		12	69.0	2.5	/experiments/Knapen_AOT/AOT_stimuli/rescaled_final/1065_fw.mp4	0.0	338.69434690475464	0.09999561309814453
72	319.3394122123718	fix_pre	0		120	70.0	2.5	blank	1.0	338.7943425178528	1.000152587890625
72	319.52295565605164	pulse	0	t		70.0	2.5	blank	1.0	338.9778859615326	
72	320.33956480026245	movie	1		300	70.0	2.5	blank	1.0	339.7944951057434	2.5004067420959473
72	321.1233570575714	pulse	1	t		70.0	2.5	blank	1.0	340.57828736305237	
72	322.7235140800476	pulse	1	t		70.0	2.5	blank	1.0	342.17844438552856	
72	322.8399715423584	fix_post	2		12	70.0	2.5	blank	1.0	342.29490184783936	0.09997797012329102
73	322.9399495124817	fix_pre	0		120	71.0	2.5	/experiments/Knapen_AOT/AOT_stimuli/rescaled_final/1116_fw.mp4	0.0	342.39487981796265	1.0084447860717773
73	323.94839429855347	movie	1		278	71.0	2.5	/experiments/Knapen_AOT/AOT_stimuli/rescaled_final/1116_fw.mp4	0.0	343.4033246040344	2.4920756816864014
73	324.32384634017944	pulse	1	t		71.0	2.5	/experiments/Knapen_AOT/AOT_stimuli/rescaled_final/1116_fw.mp4	0.0	343.7787766456604	
73	325.92326617240906	pulse	1	t		71.0	2.5	/experiments/Knapen_AOT/AOT_stimuli/rescaled_final/1116_fw.mp4	0.0	345.37819647789	
73	326.44046998023987	fix_post	2		12	71.0	2.5	/experiments/Knapen_AOT/AOT_stimuli/rescaled_final/1116_fw.mp4	0.0	345.8954002857208	0.09999871253967285
74	326.54046869277954	fix_pre	0		119	72.0	2.5	/experiments/Knapen_AOT/AOT_stimuli/rescaled_final/1530_rv.mp4	0.0	345.9953989982605	1.0001122951507568
74	327.5243306159973	pulse	0	t		72.0	2.5	/experiments/Knapen_AOT/AOT_stimuli/rescaled_final/1530_rv.mp4	0.0	346.97926092147827	
74	327.5405809879303	movie	1		279	72.0	2.5	/experiments/Knapen_AOT/AOT_stimuli/rescaled_final/1530_rv.mp4	0.0	346.99551129341125	2.5004405975341797
74	329.12286710739136	pulse	1	t		72.0	2.5	/experiments/Knapen_AOT/AOT_stimuli/rescaled_final/1530_rv.mp4	0.0	348.5777974128723	
74	330.0410215854645	fix_post	2		12	72.0	2.5	/experiments/Knapen_AOT/AOT_stimuli/rescaled_final/1530_rv.mp4	0.0	349.49595189094543	0.10003471374511719
75	330.1410562992096	fix_pre	0		120	73.0	2.5	/experiments/Knapen_AOT/AOT_stimuli/rescaled_final/0221_fw.mp4	0.0	349.59598660469055	1.0084466934204102
75	330.7248160839081	pulse	0	t		73.0	2.5	/experiments/Knapen_AOT/AOT_stimuli/rescaled_final/0221_fw.mp4	0.0	350.17974638938904	
75	331.14950299263	movie	1		273	73.0	2.5	/experiments/Knapen_AOT/AOT_stimuli/rescaled_final/0221_fw.mp4	0.0	350.60443329811096	2.492072105407715
75	332.3240795135498	pulse	1	t		73.0	2.5	/experiments/Knapen_AOT/AOT_stimuli/rescaled_final/0221_fw.mp4	0.0	351.77900981903076	
75	333.6415750980377	fix_post	2		12	73.0	2.5	/experiments/Knapen_AOT/AOT_stimuli/rescaled_final/0221_fw.mp4	0.0	353.0965054035187	0.10001111030578613
76	333.7415862083435	fix_pre	0		120	74.0	2.5	/experiments/Knapen_AOT/AOT_stimuli/rescaled_final/0094_rv.mp4	0.0	353.19651651382446	1.0085015296936035
76	333.92520785331726	pulse	0	t		74.0	2.5	/experiments/Knapen_AOT/AOT_stimuli/rescaled_final/0094_rv.mp4	0.0	353.3801381587982	
76	334.7500877380371	movie	1		282	74.0	2.5	/experiments/Knapen_AOT/AOT_stimuli/rescaled_final/0094_rv.mp4	0.0	354.20501804351807	2.4920005798339844
76	335.52367663383484	pulse	1	t		74.0	2.5	/experiments/Knapen_AOT/AOT_stimuli/rescaled_final/0094_rv.mp4	0.0	354.9786069393158	
76	337.12379693984985	pulse	1	t		74.0	2.5	/experiments/Knapen_AOT/AOT_stimuli/rescaled_final/0094_rv.mp4	0.0	356.5787272453308	
76	337.2420883178711	fix_post	2		12	74.0	2.5	/experiments/Knapen_AOT/AOT_stimuli/rescaled_final/0094_rv.mp4	0.0	356.69701862335205	0.10001444816589355
77	337.342102766037	fix_pre	0		120	75.0	2.5	blank	1.0	356.79703307151794	1.0001492500305176
77	338.3422520160675	movie	1		299	75.0	2.5	blank	1.0	357.79718232154846	2.500380039215088
77	338.7179720401764	pulse	1	t		75.0	2.5	blank	1.0	358.17290234565735	
77	340.3179986476898	pulse	1	t		75.0	2.5	blank	1.0	359.7729289531708	
77	340.8426320552826	fix_post	2		12	75.0	2.5	blank	1.0	360.29756236076355	0.10002899169921875
78	340.9426610469818	fix_pre	0		118	76.0	2.5	/experiments/Knapen_AOT/AOT_stimuli/rescaled_final/2116_fw.mp4	0.0	360.39759135246277	0.9917893409729004
78	341.91807436943054	pulse	0	t		76.0	2.5	/experiments/Knapen_AOT/AOT_stimuli/rescaled_final/2116_fw.mp4	0.0	361.3730046749115	
78	341.9344503879547	movie	1		285	76.0	2.5	/experiments/Knapen_AOT/AOT_stimuli/rescaled_final/2116_fw.mp4	0.0	361.38938069343567	2.500370502471924
78	343.51824259757996	pulse	1	t		76.0	2.5	/experiments/Knapen_AOT/AOT_stimuli/rescaled_final/2116_fw.mp4	0.0	362.9731729030609	
78	344.43482089042664	fix_post	2		12	76.0	2.5	/experiments/Knapen_AOT/AOT_stimuli/rescaled_final/2116_fw.mp4	0.0	363.8897511959076	0.10003256797790527
79	344.53485345840454	fix_pre	0		120	77.0	2.5	/experiments/Knapen_AOT/AOT_stimuli/rescaled_final/0193_fw.mp4	0.0	363.9897837638855	1.0085086822509766
79	345.1187129020691	pulse	0	t		77.0	2.5	/experiments/Knapen_AOT/AOT_stimuli/rescaled_final/0193_fw.mp4	0.0	364.57364320755005	
79	345.5433621406555	movie	1		282	77.0	2.5	/experiments/Knapen_AOT/AOT_stimuli/rescaled_final/0193_fw.mp4	0.0	364.9982924461365	2.491989850997925
79	346.71910881996155	pulse	1	t		77.0	2.5	/experiments/Knapen_AOT/AOT_stimuli/rescaled_final/0193_fw.mp4	0.0	366.1740391254425	
79	348.03535199165344	fix_post	2		12	77.0	2.5	/experiments/Knapen_AOT/AOT_stimuli/rescaled_final/0193_fw.mp4	0.0	367.4902822971344	0.10003161430358887
80	348.13538360595703	fix_pre	0		120	78.0	2.5	/experiments/Knapen_AOT/AOT_stimuli/rescaled_final/0118_fw.mp4	0.0	367.590313911438	1.008519172668457
80	348.31897592544556	pulse	0	t		78.0	2.5	/experiments/Knapen_AOT/AOT_stimuli/rescaled_final/0118_fw.mp4	0.0	367.7739062309265	
80	349.1439027786255	movie	1		277	78.0	2.5	/experiments/Knapen_AOT/AOT_stimuli/rescaled_final/0118_fw.mp4	0.0	368.59883308410645	2.4920194149017334
80	349.9192249774933	pulse	1	t		78.0	2.5	/experiments/Knapen_AOT/AOT_stimuli/rescaled_final/0118_fw.mp4	0.0	369.37415528297424	
80	351.5178096294403	pulse	1	t		78.0	2.5	/experiments/Knapen_AOT/AOT_stimuli/rescaled_final/0118_fw.mp4	0.0	370.97273993492126	
80	351.6359221935272	fix_post	2		12	78.0	2.5	/experiments/Knapen_AOT/AOT_stimuli/rescaled_final/0118_fw.mp4	0.0	371.0908524990082	0.10004210472106934
81	351.7359642982483	fix_pre	0		120	79.0	2.5	/experiments/Knapen_AOT/AOT_stimuli/rescaled_final/1166_rv.mp4	0.0	371.19089460372925	1.0085361003875732
81	352.74450039863586	movie	1		277	79.0	2.5	/experiments/Knapen_AOT/AOT_stimuli/rescaled_final/1166_rv.mp4	0.0	372.1994307041168	2.491952657699585
81	353.118013381958	pulse	1	t		79.0	2.5	/experiments/Knapen_AOT/AOT_stimuli/rescaled_final/1166_rv.mp4	0.0	372.57294368743896	
81	354.71797919273376	pulse	1	t		79.0	2.5	/experiments/Knapen_AOT/AOT_stimuli/rescaled_final/1166_rv.mp4	0.0	374.1729094982147	
81	355.23645305633545	fix_post	2		12	79.0	2.5	/experiments/Knapen_AOT/AOT_stimuli/rescaled_final/1166_rv.mp4	0.0	374.6913833618164	0.09998345375061035
82	355.33643651008606	fix_pre	0		119	80.0	2.5	/experiments/Knapen_AOT/AOT_stimuli/rescaled_final/0572_rv.mp4	0.0	374.791366815567	1.0002830028533936
82	356.3202574253082	pulse	0	t		80.0	2.5	/experiments/Knapen_AOT/AOT_stimuli/rescaled_final/0572_rv.mp4	0.0	375.7751877307892	
82	356.33671951293945	movie	1		275	80.0	2.5	/experiments/Knapen_AOT/AOT_stimuli/rescaled_final/0572_rv.mp4	0.0	375.7916498184204	2.50026535987854
82	357.9193983078003	pulse	1	t		80.0	2.5	/experiments/Knapen_AOT/AOT_stimuli/rescaled_final/0572_rv.mp4	0.0	377.37432861328125	
82	358.836984872818	fix_post	2		12	80.0	2.5	/experiments/Knapen_AOT/AOT_stimuli/rescaled_final/0572_rv.mp4	0.0	378.29191517829895	0.1000521183013916
83	358.9370369911194	fix_pre	0		120	81.0	2.5	/experiments/Knapen_AOT/AOT_stimuli/rescaled_final/0327_rv.mp4	0.0	378.39196729660034	1.0085408687591553
83	359.52086663246155	pulse	0	t		81.0	2.5	/experiments/Knapen_AOT/AOT_stimuli/rescaled_final/0327_rv.mp4	0.0	378.9757969379425	
83	359.94557785987854	movie	1		288	81.0	2.5	/experiments/Knapen_AOT/AOT_stimuli/rescaled_final/0327_rv.mp4	0.0	379.4005081653595	2.4920127391815186
83	361.11958265304565	pulse	1	t		81.0	2.5	/experiments/Knapen_AOT/AOT_stimuli/rescaled_final/0327_rv.mp4	0.0	380.5745129585266	
83	362.43759059906006	fix_post	2		12	81.0	2.5	/experiments/Knapen_AOT/AOT_stimuli/rescaled_final/0327_rv.mp4	0.0	381.892520904541	0.09997820854187012
84	362.53756880760193	fix_pre	0		120	82.0	2.5	/experiments/Knapen_AOT/AOT_stimuli/rescaled_final/1592_rv.mp4	0.0	381.9924991130829	1.0085482597351074
84	362.7211182117462	pulse	0	t		82.0	2.5	/experiments/Knapen_AOT/AOT_stimuli/rescaled_final/1592_rv.mp4	0.0	382.1760485172272	
84	363.54611706733704	movie	1		274	82.0	2.5	/experiments/Knapen_AOT/AOT_stimuli/rescaled_final/1592_rv.mp4	0.0	383.001047372818	2.491959571838379
84	364.32036209106445	pulse	1	t		82.0	2.5	/experiments/Knapen_AOT/AOT_stimuli/rescaled_final/1592_rv.mp4	0.0	383.7752923965454	
84	365.91993379592896	pulse	1	t		82.0	2.5	/experiments/Knapen_AOT/AOT_stimuli/rescaled_final/1592_rv.mp4	0.0	385.3748641014099	
84	366.0380766391754	fix_post	2		12	82.0	2.5	/experiments/Knapen_AOT/AOT_stimuli/rescaled_final/1592_rv.mp4	0.0	385.4930069446564	0.0999906063079834
85	366.1380672454834	fix_pre	0		120	83.0	2.5	blank	1.0	385.59299755096436	1.000180721282959
85	367.13824796676636	movie	1		300	83.0	2.5	blank	1.0	386.5931782722473	2.5003764629364014
85	367.5218970775604	pulse	1	t		83.0	2.5	blank	1.0	386.9768273830414	
85	369.1221170425415	pulse	1	t		83.0	2.5	blank	1.0	388.57704734802246	
85	369.63862442970276	fix_post	2		12	83.0	2.5	blank	1.0	389.0935547351837	0.0999758243560791
87	369.73860025405884	stim	0		1715					389.1935305595398	14.293843984603882
87	370.7223129272461	pulse	0	t						390.17724323272705	
87	372.32280564308167	pulse	0	t						391.7777359485626	
87	373.92292952537537	pulse	0	t						393.3778598308563	
87	375.5232312679291	pulse	0	t						394.97816157341003	
87	377.12330389022827	pulse	0	t						396.57823419570923	
87	378.72365140914917	pulse	0	t						398.1785817146301	
87	380.32386350631714	pulse	0	t						399.7787938117981	
87	381.92427277565	pulse	0	t						401.379203081131	
87	383.5167076587677	pulse	0	t						402.97163796424866	
