trial_nr	onset	event_type	phase	response	nr_frames	movie_index	movie_duration	movie_file	blank	onset_abs	duration
0	0.1583259105682373	stim	0		110					21.805413961410522	0.9166150093078613
0	1.066957950592041	response	0	space						22.714046001434326	
1	1.0749409198760986	stim	0		3111					22.722028970718384	25.92482089996338
1	26.995767831802368	pulse	0	t						48.64285588264465	
1	26.999761819839478	stim	1		1717					48.64684987068176	14.308284044265747
1	28.591583013534546	pulse	1	t						50.23867106437683	
1	30.19163990020752	pulse	1	t						51.838727951049805	
1	31.791630029678345	pulse	1	t						53.43871808052063	
1	33.391573905944824	pulse	1	t						55.03866195678711	
1	34.991607904434204	pulse	1	t						56.63869595527649	
1	36.59158992767334	pulse	1	t						58.238677978515625	
1	38.191601037979126	pulse	1	t						59.83868908882141	
1	39.79159188270569	pulse	1	t						61.438679933547974	
2	41.308045864105225	fix_pre	0		11	0.0	2.5	/experiments/AOT/AOT_stimuli/rescaled_final/1563_fw.mp4	0.0	62.95513391494751	0.09168004989624023
2	41.39157199859619	pulse	0	t		0.0	2.5	/experiments/AOT/AOT_stimuli/rescaled_final/1563_fw.mp4	0.0	63.03866004943848	
2	41.399725914001465	movie	1		244	0.0	2.5	/experiments/AOT/AOT_stimuli/rescaled_final/1563_fw.mp4	0.0	63.04681396484375	2.5078771114349365
2	42.99121689796448	pulse	1	t		0.0	2.5	/experiments/AOT/AOT_stimuli/rescaled_final/1563_fw.mp4	0.0	64.63830494880676	
2	43.9076030254364	fix_post	2		12	0.0	2.5	/experiments/AOT/AOT_stimuli/rescaled_final/1563_fw.mp4	0.0	65.55469107627869	0.10039591789245605
3	44.00799894332886	fix_pre	0		120	1.0	2.5	/experiments/AOT/AOT_stimuli/rescaled_final/0946_fw.mp4	0.0	65.65508699417114	1.0000178813934326
3	44.59151887893677	pulse	0	t		1.0	2.5	/experiments/AOT/AOT_stimuli/rescaled_final/0946_fw.mp4	0.0	66.23860692977905	
3	45.00801682472229	movie	1		243	1.0	2.5	/experiments/AOT/AOT_stimuli/rescaled_final/0946_fw.mp4	0.0	66.65510487556458	2.5000312328338623
3	46.19171094894409	pulse	1	t		1.0	2.5	/experiments/AOT/AOT_stimuli/rescaled_final/0946_fw.mp4	0.0	67.83879899978638	
3	47.50804805755615	fix_post	2		12	1.0	2.5	/experiments/AOT/AOT_stimuli/rescaled_final/0946_fw.mp4	0.0	69.15513610839844	0.10000395774841309
4	47.608052015304565	fix_pre	0		120	2.0	2.5	/experiments/AOT/AOT_stimuli/rescaled_final/1377_rv.mp4	0.0	69.25514006614685	0.999953031539917
4	47.791584968566895	pulse	0	t		2.0	2.5	/experiments/AOT/AOT_stimuli/rescaled_final/1377_rv.mp4	0.0	69.43867301940918	
4	48.60800504684448	movie	1		245	2.0	2.5	/experiments/AOT/AOT_stimuli/rescaled_final/1377_rv.mp4	0.0	70.25509309768677	2.499689817428589
4	49.39148688316345	pulse	1	t		2.0	2.5	/experiments/AOT/AOT_stimuli/rescaled_final/1377_rv.mp4	0.0	71.03857493400574	
4	50.98926305770874	pulse	1	t		2.0	2.5	/experiments/AOT/AOT_stimuli/rescaled_final/1377_rv.mp4	0.0	72.63635110855103	
4	51.10769486427307	fix_post	2		12	2.0	2.5	/experiments/AOT/AOT_stimuli/rescaled_final/1377_rv.mp4	0.0	72.75478291511536	0.1003420352935791
5	51.20803689956665	fix_pre	0		120	3.0	2.5	/experiments/AOT/AOT_stimuli/rescaled_final/1020_fw.mp4	0.0	72.85512495040894	1.0002191066741943
5	52.208256006240845	movie	1		246	3.0	2.5	/experiments/AOT/AOT_stimuli/rescaled_final/1020_fw.mp4	0.0	73.85534405708313	2.4993209838867188
5	52.59178686141968	pulse	1	t		3.0	2.5	/experiments/AOT/AOT_stimuli/rescaled_final/1020_fw.mp4	0.0	74.23887491226196	
5	54.19141483306885	pulse	1	t		3.0	2.5	/experiments/AOT/AOT_stimuli/rescaled_final/1020_fw.mp4	0.0	75.83850288391113	
5	54.70757699012756	fix_post	2		12	3.0	2.5	/experiments/AOT/AOT_stimuli/rescaled_final/1020_fw.mp4	0.0	76.35466504096985	0.10044384002685547
6	54.80802083015442	fix_pre	0		119	4.0	2.5	/experiments/AOT/AOT_stimuli/rescaled_final/0757_rv.mp4	0.0	76.4551088809967	0.9916222095489502
6	55.79151391983032	pulse	0	t		4.0	2.5	/experiments/AOT/AOT_stimuli/rescaled_final/0757_rv.mp4	0.0	77.43860197067261	
6	55.79964303970337	movie	1		246	4.0	2.5	/experiments/AOT/AOT_stimuli/rescaled_final/0757_rv.mp4	0.0	77.44673109054565	2.5082848072052
6	57.39137601852417	pulse	1	t		4.0	2.5	/experiments/AOT/AOT_stimuli/rescaled_final/0757_rv.mp4	0.0	79.03846406936646	
6	58.30792784690857	fix_post	2		12	4.0	2.5	/experiments/AOT/AOT_stimuli/rescaled_final/0757_rv.mp4	0.0	79.95501589775085	0.10004520416259766
7	58.40797305107117	fix_pre	0		120	5.0	2.5	/experiments/AOT/AOT_stimuli/rescaled_final/2161_rv.mp4	0.0	80.05506110191345	0.9999628067016602
7	58.991365909576416	pulse	0	t		5.0	2.5	/experiments/AOT/AOT_stimuli/rescaled_final/2161_rv.mp4	0.0	80.6384539604187	
7	59.40793585777283	movie	1		245	5.0	2.5	/experiments/AOT/AOT_stimuli/rescaled_final/2161_rv.mp4	0.0	81.05502390861511	2.4999589920043945
7	60.591389894485474	pulse	1	t		5.0	2.5	/experiments/AOT/AOT_stimuli/rescaled_final/2161_rv.mp4	0.0	82.23847794532776	
7	61.90789484977722	fix_post	2		12	5.0	2.5	/experiments/AOT/AOT_stimuli/rescaled_final/2161_rv.mp4	0.0	83.5549829006195	0.10008001327514648
8	62.00797486305237	fix_pre	0		120	6.0	2.5	/experiments/AOT/AOT_stimuli/rescaled_final/1297_fw.mp4	0.0	83.65506291389465	0.9999861717224121
8	62.191391944885254	pulse	0	t		6.0	2.5	/experiments/AOT/AOT_stimuli/rescaled_final/1297_fw.mp4	0.0	83.83847999572754	
8	63.00796103477478	movie	1		243	6.0	2.5	/experiments/AOT/AOT_stimuli/rescaled_final/1297_fw.mp4	0.0	84.65504908561707	2.5000059604644775
8	63.791390895843506	pulse	1	t		6.0	2.5	/experiments/AOT/AOT_stimuli/rescaled_final/1297_fw.mp4	0.0	85.43847894668579	
8	65.3897168636322	pulse	1	t		6.0	2.5	/experiments/AOT/AOT_stimuli/rescaled_final/1297_fw.mp4	0.0	87.03680491447449	
8	65.50796699523926	fix_post	2		12	6.0	2.5	/experiments/AOT/AOT_stimuli/rescaled_final/1297_fw.mp4	0.0	87.15505504608154	0.09989786148071289
9	65.60786485671997	fix_pre	0		120	7.0	2.5	blank	1.0	87.25495290756226	1.000042200088501
9	66.60790705680847	movie	1		300	7.0	2.5	blank	1.0	88.25499510765076	2.500041961669922
9	66.99136805534363	pulse	1	t		7.0	2.5	blank	1.0	88.63845610618591	
9	68.59141683578491	pulse	1	t		7.0	2.5	blank	1.0	90.2385048866272	
9	69.1079490184784	fix_post	2		12	7.0	2.5	blank	1.0	90.75503706932068	0.0994718074798584
10	69.20742082595825	fix_pre	0		119	8.0	2.5	/experiments/AOT/AOT_stimuli/rescaled_final/0385_fw.mp4	0.0	90.85450887680054	0.9921250343322754
10	70.19141793251038	pulse	0	t		8.0	2.5	/experiments/AOT/AOT_stimuli/rescaled_final/0385_fw.mp4	0.0	91.83850598335266	
10	70.19954586029053	movie	1		245	8.0	2.5	/experiments/AOT/AOT_stimuli/rescaled_final/0385_fw.mp4	0.0	91.84663391113281	2.5083250999450684
10	71.79124999046326	pulse	1	t		8.0	2.5	/experiments/AOT/AOT_stimuli/rescaled_final/0385_fw.mp4	0.0	93.43833804130554	
10	72.7078709602356	fix_post	2		12	8.0	2.5	/experiments/AOT/AOT_stimuli/rescaled_final/0385_fw.mp4	0.0	94.35495901107788	0.10004806518554688
11	72.80791902542114	fix_pre	0		120	9.0	2.5	/experiments/AOT/AOT_stimuli/rescaled_final/0797_rv.mp4	0.0	94.45500707626343	0.9995698928833008
11	73.39136290550232	pulse	0	t		9.0	2.5	/experiments/AOT/AOT_stimuli/rescaled_final/0797_rv.mp4	0.0	95.0384509563446	
11	73.80748891830444	movie	1		246	9.0	2.5	/experiments/AOT/AOT_stimuli/rescaled_final/0797_rv.mp4	0.0	95.45457696914673	2.500333070755005
11	74.99144983291626	pulse	1	t		9.0	2.5	/experiments/AOT/AOT_stimuli/rescaled_final/0797_rv.mp4	0.0	96.63853788375854	
11	76.30782198905945	fix_post	2		12	9.0	2.5	/experiments/AOT/AOT_stimuli/rescaled_final/0797_rv.mp4	0.0	97.95491003990173	0.10000896453857422
12	76.40783095359802	fix_pre	0		120	10.0	2.5	/experiments/AOT/AOT_stimuli/rescaled_final/0093_fw.mp4	0.0	98.05491900444031	1.0000550746917725
12	76.59141683578491	pulse	0	t		10.0	2.5	/experiments/AOT/AOT_stimuli/rescaled_final/0093_fw.mp4	0.0	98.2385048866272	
12	77.4078860282898	movie	1		248	10.0	2.5	/experiments/AOT/AOT_stimuli/rescaled_final/0093_fw.mp4	0.0	99.05497407913208	2.4999759197235107
12	78.1913390159607	pulse	1	t		10.0	2.5	/experiments/AOT/AOT_stimuli/rescaled_final/0093_fw.mp4	0.0	99.83842706680298	
12	79.79090189933777	pulse	1	t		10.0	2.5	/experiments/AOT/AOT_stimuli/rescaled_final/0093_fw.mp4	0.0	101.43798995018005	
12	79.9078619480133	fix_post	2		12	10.0	2.5	/experiments/AOT/AOT_stimuli/rescaled_final/0093_fw.mp4	0.0	101.55494999885559	0.09995508193969727
13	80.007817029953	fix_pre	0		120	11.0	2.5	/experiments/AOT/AOT_stimuli/rescaled_final/1136_rv.mp4	0.0	101.65490508079529	1.0000388622283936
13	81.0078558921814	movie	1		245	11.0	2.5	/experiments/AOT/AOT_stimuli/rescaled_final/1136_rv.mp4	0.0	102.65494394302368	2.4995291233062744
13	81.39132404327393	pulse	1	t		11.0	2.5	/experiments/AOT/AOT_stimuli/rescaled_final/1136_rv.mp4	0.0	103.03841209411621	
13	82.99133682250977	pulse	1	t		11.0	2.5	/experiments/AOT/AOT_stimuli/rescaled_final/1136_rv.mp4	0.0	104.63842487335205	
13	83.50738501548767	fix_post	2		12	11.0	2.5	/experiments/AOT/AOT_stimuli/rescaled_final/1136_rv.mp4	0.0	105.15447306632996	0.10046887397766113
14	83.60785388946533	fix_pre	0		119	12.0	2.5	/experiments/AOT/AOT_stimuli/rescaled_final/2077_rv.mp4	0.0	105.25494194030762	0.9917221069335938
14	84.5913360118866	pulse	0	t		12.0	2.5	/experiments/AOT/AOT_stimuli/rescaled_final/2077_rv.mp4	0.0	106.23842406272888	
14	84.59957599639893	movie	1		245	12.0	2.5	/experiments/AOT/AOT_stimuli/rescaled_final/2077_rv.mp4	0.0	106.24666404724121	2.508262872695923
14	86.19108605384827	pulse	1	t		12.0	2.5	/experiments/AOT/AOT_stimuli/rescaled_final/2077_rv.mp4	0.0	107.83817410469055	
14	87.10783886909485	fix_post	2		12	12.0	2.5	/experiments/AOT/AOT_stimuli/rescaled_final/2077_rv.mp4	0.0	108.75492691993713	0.09991097450256348
15	87.20774984359741	fix_pre	0		120	13.0	2.5	/experiments/AOT/AOT_stimuli/rescaled_final/1553_rv.mp4	0.0	108.8548378944397	1.0000641345977783
15	87.79133987426758	pulse	0	t		13.0	2.5	/experiments/AOT/AOT_stimuli/rescaled_final/1553_rv.mp4	0.0	109.43842792510986	
15	88.20781397819519	movie	1		244	13.0	2.5	/experiments/AOT/AOT_stimuli/rescaled_final/1553_rv.mp4	0.0	109.85490202903748	2.500063896179199
15	89.3913779258728	pulse	1	t		13.0	2.5	/experiments/AOT/AOT_stimuli/rescaled_final/1553_rv.mp4	0.0	111.03846597671509	
15	90.70787787437439	fix_post	2		12	13.0	2.5	/experiments/AOT/AOT_stimuli/rescaled_final/1553_rv.mp4	0.0	112.35496592521667	0.09993696212768555
16	90.80781483650208	fix_pre	0		120	14.0	2.5	blank	1.0	112.45490288734436	0.9998970031738281
16	90.99127292633057	pulse	0	t		14.0	2.5	blank	1.0	112.63836097717285	
16	91.8077118396759	movie	1		300	14.0	2.5	blank	1.0	113.45479989051819	2.500102996826172
16	92.59135603904724	pulse	1	t		14.0	2.5	blank	1.0	114.23844408988953	
16	94.19125604629517	pulse	1	t		14.0	2.5	blank	1.0	115.83834409713745	
16	94.30781483650208	fix_post	2		12	14.0	2.5	blank	1.0	115.95490288734436	0.10000300407409668
17	94.40781784057617	fix_pre	0		120	15.0	2.5	/experiments/AOT/AOT_stimuli/rescaled_final/2107_fw.mp4	0.0	116.05490589141846	1.000014066696167
17	95.40783190727234	movie	1		247	15.0	2.5	/experiments/AOT/AOT_stimuli/rescaled_final/2107_fw.mp4	0.0	117.05491995811462	2.4999959468841553
17	95.7908148765564	pulse	1	t		15.0	2.5	/experiments/AOT/AOT_stimuli/rescaled_final/2107_fw.mp4	0.0	117.43790292739868	
17	97.39121294021606	pulse	1	t		15.0	2.5	/experiments/AOT/AOT_stimuli/rescaled_final/2107_fw.mp4	0.0	119.03830099105835	
17	97.9078278541565	fix_post	2		12	15.0	2.5	/experiments/AOT/AOT_stimuli/rescaled_final/2107_fw.mp4	0.0	119.55491590499878	0.10001802444458008
18	98.00784587860107	fix_pre	0		119	16.0	2.5	/experiments/AOT/AOT_stimuli/rescaled_final/0687_fw.mp4	0.0	119.65493392944336	0.9916629791259766
18	98.99126100540161	pulse	0	t		16.0	2.5	/experiments/AOT/AOT_stimuli/rescaled_final/0687_fw.mp4	0.0	120.6383490562439	
18	98.99950885772705	movie	1		245	16.0	2.5	/experiments/AOT/AOT_stimuli/rescaled_final/0687_fw.mp4	0.0	120.64659690856934	2.508213996887207
18	100.59112095832825	pulse	1	t		16.0	2.5	/experiments/AOT/AOT_stimuli/rescaled_final/0687_fw.mp4	0.0	122.23820900917053	
18	101.50772285461426	fix_post	2		12	16.0	2.5	/experiments/AOT/AOT_stimuli/rescaled_final/0687_fw.mp4	0.0	123.15481090545654	0.1000211238861084
19	101.60774397850037	fix_pre	0		120	17.0	2.5	/experiments/AOT/AOT_stimuli/rescaled_final/1093_rv.mp4	0.0	123.25483202934265	1.0000109672546387
19	102.1912670135498	pulse	0	t		17.0	2.5	/experiments/AOT/AOT_stimuli/rescaled_final/1093_rv.mp4	0.0	123.83835506439209	
19	102.607754945755	movie	1		244	17.0	2.5	/experiments/AOT/AOT_stimuli/rescaled_final/1093_rv.mp4	0.0	124.25484299659729	2.5001139640808105
19	103.7913019657135	pulse	1	t		17.0	2.5	/experiments/AOT/AOT_stimuli/rescaled_final/1093_rv.mp4	0.0	125.43839001655579	
19	105.10786890983582	fix_post	2		12	17.0	2.5	/experiments/AOT/AOT_stimuli/rescaled_final/1093_rv.mp4	0.0	126.7549569606781	0.09994006156921387
20	105.20780897140503	fix_pre	0		120	18.0	2.5	/experiments/AOT/AOT_stimuli/rescaled_final/0145_fw.mp4	0.0	126.85489702224731	0.9999270439147949
20	105.39121794700623	pulse	0	t		18.0	2.5	/experiments/AOT/AOT_stimuli/rescaled_final/0145_fw.mp4	0.0	127.03830599784851	
20	106.20773601531982	movie	1		245	18.0	2.5	/experiments/AOT/AOT_stimuli/rescaled_final/0145_fw.mp4	0.0	127.85482406616211	2.4998979568481445
20	106.99077892303467	pulse	1	t		18.0	2.5	/experiments/AOT/AOT_stimuli/rescaled_final/0145_fw.mp4	0.0	128.63786697387695	
20	108.58932995796204	pulse	1	t		18.0	2.5	/experiments/AOT/AOT_stimuli/rescaled_final/0145_fw.mp4	0.0	130.23641800880432	
20	108.70763397216797	fix_post	2		12	18.0	2.5	/experiments/AOT/AOT_stimuli/rescaled_final/0145_fw.mp4	0.0	130.35472202301025	0.10031390190124512
21	108.80794787406921	fix_pre	0		120	19.0	2.5	blank	1.0	130.4550359249115	0.9993319511413574
21	109.80727982521057	movie	1		300	19.0	2.5	blank	1.0	131.45436787605286	2.500523090362549
21	110.19138789176941	pulse	1	t		19.0	2.5	blank	1.0	131.8384759426117	
21	111.79117798805237	pulse	1	t		19.0	2.5	blank	1.0	133.43826603889465	
21	112.30780291557312	fix_post	2		12	19.0	2.5	blank	1.0	133.9548909664154	0.09993410110473633
22	112.40773701667786	fix_pre	0		119	20.0	2.5	/experiments/AOT/AOT_stimuli/rescaled_final/0124_rv.mp4	0.0	134.05482506752014	0.9916768074035645
22	113.39131283760071	pulse	0	t		20.0	2.5	/experiments/AOT/AOT_stimuli/rescaled_final/0124_rv.mp4	0.0	135.038400888443	
22	113.39941382408142	movie	1		245	20.0	2.5	/experiments/AOT/AOT_stimuli/rescaled_final/0124_rv.mp4	0.0	135.0465018749237	2.5078630447387695
22	114.99222183227539	pulse	1	t		20.0	2.5	/experiments/AOT/AOT_stimuli/rescaled_final/0124_rv.mp4	0.0	136.63930988311768	
22	115.90727686882019	fix_post	2		12	20.0	2.5	/experiments/AOT/AOT_stimuli/rescaled_final/0124_rv.mp4	0.0	137.55436491966248	0.1003870964050293
23	116.00766396522522	fix_pre	0		120	21.0	2.5	/experiments/AOT/AOT_stimuli/rescaled_final/0540_rv.mp4	0.0	137.6547520160675	0.9999630451202393
23	116.59114289283752	pulse	0	t		21.0	2.5	/experiments/AOT/AOT_stimuli/rescaled_final/0540_rv.mp4	0.0	138.2382309436798	
23	117.00762701034546	movie	1		247	21.0	2.5	/experiments/AOT/AOT_stimuli/rescaled_final/0540_rv.mp4	0.0	138.65471506118774	2.5001299381256104
23	118.19131684303284	pulse	1	t		21.0	2.5	/experiments/AOT/AOT_stimuli/rescaled_final/0540_rv.mp4	0.0	139.83840489387512	
23	119.50775694847107	fix_post	2		12	21.0	2.5	/experiments/AOT/AOT_stimuli/rescaled_final/0540_rv.mp4	0.0	141.15484499931335	0.09992194175720215
24	119.60767889022827	fix_pre	0		120	22.0	2.5	/experiments/AOT/AOT_stimuli/rescaled_final/0336_fw.mp4	0.0	141.25476694107056	0.9999780654907227
24	119.79114985466003	pulse	0	t		22.0	2.5	/experiments/AOT/AOT_stimuli/rescaled_final/0336_fw.mp4	0.0	141.43823790550232	
24	120.607656955719	movie	1		244	22.0	2.5	/experiments/AOT/AOT_stimuli/rescaled_final/0336_fw.mp4	0.0	142.25474500656128	2.500011920928955
24	121.39116382598877	pulse	1	t		22.0	2.5	/experiments/AOT/AOT_stimuli/rescaled_final/0336_fw.mp4	0.0	143.03825187683105	
24	122.98939204216003	pulse	1	t		22.0	2.5	/experiments/AOT/AOT_stimuli/rescaled_final/0336_fw.mp4	0.0	144.63648009300232	
24	123.10766887664795	fix_post	2		12	22.0	2.5	/experiments/AOT/AOT_stimuli/rescaled_final/0336_fw.mp4	0.0	144.75475692749023	0.09995508193969727
25	123.20762395858765	fix_pre	0		120	23.0	2.5	/experiments/AOT/AOT_stimuli/rescaled_final/0998_fw.mp4	0.0	144.85471200942993	1.0000669956207275
25	124.20769095420837	movie	1		246	23.0	2.5	/experiments/AOT/AOT_stimuli/rescaled_final/0998_fw.mp4	0.0	145.85477900505066	2.4996280670166016
25	124.59071397781372	pulse	1	t		23.0	2.5	/experiments/AOT/AOT_stimuli/rescaled_final/0998_fw.mp4	0.0	146.237802028656	
25	126.19119787216187	pulse	1	t		23.0	2.5	/experiments/AOT/AOT_stimuli/rescaled_final/0998_fw.mp4	0.0	147.83828592300415	
25	126.70731902122498	fix_post	2		12	23.0	2.5	/experiments/AOT/AOT_stimuli/rescaled_final/0998_fw.mp4	0.0	148.35440707206726	0.1003119945526123
26	126.80763101577759	fix_pre	0		119	24.0	2.5	/experiments/AOT/AOT_stimuli/rescaled_final/0344_fw.mp4	0.0	148.45471906661987	0.9917118549346924
26	127.79117798805237	pulse	0	t		24.0	2.5	/experiments/AOT/AOT_stimuli/rescaled_final/0344_fw.mp4	0.0	149.43826603889465	
26	127.79934287071228	movie	1		245	24.0	2.5	/experiments/AOT/AOT_stimuli/rescaled_final/0344_fw.mp4	0.0	149.44643092155457	2.508226156234741
26	129.39050602912903	pulse	1	t		24.0	2.5	/experiments/AOT/AOT_stimuli/rescaled_final/0344_fw.mp4	0.0	151.0375940799713	
26	130.30756902694702	fix_post	2		12	24.0	2.5	/experiments/AOT/AOT_stimuli/rescaled_final/0344_fw.mp4	0.0	151.9546570777893	0.09996891021728516
27	130.4075379371643	fix_pre	0		120	25.0	2.5	/experiments/AOT/AOT_stimuli/rescaled_final/0809_fw.mp4	0.0	152.0546259880066	1.0000629425048828
27	130.99111986160278	pulse	0	t		25.0	2.5	/experiments/AOT/AOT_stimuli/rescaled_final/0809_fw.mp4	0.0	152.63820791244507	
27	131.4076008796692	movie	1		243	25.0	2.5	/experiments/AOT/AOT_stimuli/rescaled_final/0809_fw.mp4	0.0	153.05468893051147	2.500020980834961
27	132.59115886688232	pulse	1	t		25.0	2.5	/experiments/AOT/AOT_stimuli/rescaled_final/0809_fw.mp4	0.0	154.2382469177246	
27	133.90762186050415	fix_post	2		12	25.0	2.5	/experiments/AOT/AOT_stimuli/rescaled_final/0809_fw.mp4	0.0	155.55470991134644	0.10003805160522461
28	134.00765991210938	fix_pre	0		120	26.0	2.5	blank	1.0	155.65474796295166	0.9998669624328613
28	134.19110488891602	pulse	0	t		26.0	2.5	blank	1.0	155.8381929397583	
28	135.00752687454224	movie	1		300	26.0	2.5	blank	1.0	156.65461492538452	2.5001001358032227
28	135.7910749912262	pulse	1	t		26.0	2.5	blank	1.0	157.43816304206848	
28	137.39100098609924	pulse	1	t		26.0	2.5	blank	1.0	159.03808903694153	
28	137.50762701034546	fix_post	2		12	26.0	2.5	blank	1.0	159.15471506118774	0.09995698928833008
29	137.6075839996338	fix_pre	0		120	27.0	2.5	/experiments/AOT/AOT_stimuli/rescaled_final/0787_fw.mp4	0.0	159.25467205047607	1.0
29	138.6075839996338	movie	1		246	27.0	2.5	/experiments/AOT/AOT_stimuli/rescaled_final/0787_fw.mp4	0.0	160.25467205047607	2.4999608993530273
29	138.99080991744995	pulse	1	t		27.0	2.5	/experiments/AOT/AOT_stimuli/rescaled_final/0787_fw.mp4	0.0	160.63789796829224	
29	140.59106302261353	pulse	1	t		27.0	2.5	/experiments/AOT/AOT_stimuli/rescaled_final/0787_fw.mp4	0.0	162.2381510734558	
29	141.10754489898682	fix_post	2		12	27.0	2.5	/experiments/AOT/AOT_stimuli/rescaled_final/0787_fw.mp4	0.0	162.7546329498291	0.09999299049377441
30	141.2075378894806	fix_pre	0		119	28.0	2.5	/experiments/AOT/AOT_stimuli/rescaled_final/0603_rv.mp4	0.0	162.85462594032288	0.9916610717773438
30	142.19108605384827	pulse	0	t		28.0	2.5	/experiments/AOT/AOT_stimuli/rescaled_final/0603_rv.mp4	0.0	163.83817410469055	
30	142.19919896125793	movie	1		245	28.0	2.5	/experiments/AOT/AOT_stimuli/rescaled_final/0603_rv.mp4	0.0	163.84628701210022	2.5083889961242676
30	143.79085493087769	pulse	1	t		28.0	2.5	/experiments/AOT/AOT_stimuli/rescaled_final/0603_rv.mp4	0.0	165.43794298171997	
30	144.7075879573822	fix_post	2		12	28.0	2.5	/experiments/AOT/AOT_stimuli/rescaled_final/0603_rv.mp4	0.0	166.3546760082245	0.0995490550994873
31	144.8071370124817	fix_pre	0		120	29.0	2.5	/experiments/AOT/AOT_stimuli/rescaled_final/0042_fw.mp4	0.0	166.45422506332397	1.0004010200500488
31	145.3910539150238	pulse	0	t		29.0	2.5	/experiments/AOT/AOT_stimuli/rescaled_final/0042_fw.mp4	0.0	167.0381419658661	
31	145.80753803253174	movie	1		247	29.0	2.5	/experiments/AOT/AOT_stimuli/rescaled_final/0042_fw.mp4	0.0	167.45462608337402	2.4999258518218994
31	146.99113488197327	pulse	1	t		29.0	2.5	/experiments/AOT/AOT_stimuli/rescaled_final/0042_fw.mp4	0.0	168.63822293281555	
31	148.30746388435364	fix_post	2		12	29.0	2.5	/experiments/AOT/AOT_stimuli/rescaled_final/0042_fw.mp4	0.0	169.95455193519592	0.09998011589050293
32	148.40744400024414	fix_pre	0		120	30.0	2.5	/experiments/AOT/AOT_stimuli/rescaled_final/2061_fw.mp4	0.0	170.05453205108643	0.99971604347229
32	148.5910038948059	pulse	0	t		30.0	2.5	/experiments/AOT/AOT_stimuli/rescaled_final/2061_fw.mp4	0.0	170.2380919456482	
32	149.40716004371643	movie	1		242	30.0	2.5	/experiments/AOT/AOT_stimuli/rescaled_final/2061_fw.mp4	0.0	171.05424809455872	2.4999969005584717
32	150.19101095199585	pulse	1	t		30.0	2.5	/experiments/AOT/AOT_stimuli/rescaled_final/2061_fw.mp4	0.0	171.83809900283813	
32	151.78931188583374	pulse	1	t		30.0	2.5	/experiments/AOT/AOT_stimuli/rescaled_final/2061_fw.mp4	0.0	173.43639993667603	
32	151.9071569442749	fix_post	2		12	30.0	2.5	/experiments/AOT/AOT_stimuli/rescaled_final/2061_fw.mp4	0.0	173.5542449951172	0.10033488273620605
33	152.0074918270111	fix_pre	0		120	31.0	2.5	/experiments/AOT/AOT_stimuli/rescaled_final/1554_rv.mp4	0.0	173.6545798778534	1.0000090599060059
33	153.00750088691711	movie	1		244	31.0	2.5	/experiments/AOT/AOT_stimuli/rescaled_final/1554_rv.mp4	0.0	174.6545889377594	2.5000200271606445
33	153.390606880188	pulse	1	t		31.0	2.5	/experiments/AOT/AOT_stimuli/rescaled_final/1554_rv.mp4	0.0	175.03769493103027	
33	154.99098300933838	pulse	1	t		31.0	2.5	/experiments/AOT/AOT_stimuli/rescaled_final/1554_rv.mp4	0.0	176.63807106018066	
33	155.50752091407776	fix_post	2		12	31.0	2.5	/experiments/AOT/AOT_stimuli/rescaled_final/1554_rv.mp4	0.0	177.15460896492004	0.10016012191772461
34	155.60768103599548	fix_pre	0		119	32.0	2.5	/experiments/AOT/AOT_stimuli/rescaled_final/1554_fw.mp4	0.0	177.25476908683777	0.9914689064025879
34	156.59103393554688	pulse	0	t		32.0	2.5	/experiments/AOT/AOT_stimuli/rescaled_final/1554_fw.mp4	0.0	178.23812198638916	
34	156.59914994239807	movie	1		245	32.0	2.5	/experiments/AOT/AOT_stimuli/rescaled_final/1554_fw.mp4	0.0	178.24623799324036	2.508297920227051
34	158.19211196899414	pulse	1	t		32.0	2.5	/experiments/AOT/AOT_stimuli/rescaled_final/1554_fw.mp4	0.0	179.83920001983643	
34	159.10744786262512	fix_post	2		12	32.0	2.5	/experiments/AOT/AOT_stimuli/rescaled_final/1554_fw.mp4	0.0	180.7545359134674	0.10002398490905762
35	159.20747184753418	fix_pre	0		120	33.0	2.5	/experiments/AOT/AOT_stimuli/rescaled_final/0815_rv.mp4	0.0	180.85455989837646	0.9999990463256836
35	159.79097390174866	pulse	0	t		33.0	2.5	/experiments/AOT/AOT_stimuli/rescaled_final/0815_rv.mp4	0.0	181.43806195259094	
35	160.20747089385986	movie	1		245	33.0	2.5	/experiments/AOT/AOT_stimuli/rescaled_final/0815_rv.mp4	0.0	181.85455894470215	2.5000669956207275
35	161.39109802246094	pulse	1	t		33.0	2.5	/experiments/AOT/AOT_stimuli/rescaled_final/0815_rv.mp4	0.0	183.03818607330322	
35	162.7075378894806	fix_post	2		12	33.0	2.5	/experiments/AOT/AOT_stimuli/rescaled_final/0815_rv.mp4	0.0	184.35462594032288	0.09998798370361328
36	162.8075258731842	fix_pre	0		120	34.0	2.5	/experiments/AOT/AOT_stimuli/rescaled_final/0914_rv.mp4	0.0	184.4546139240265	0.9996910095214844
36	162.99063301086426	pulse	0	t		34.0	2.5	/experiments/AOT/AOT_stimuli/rescaled_final/0914_rv.mp4	0.0	184.63772106170654	
36	163.8072168827057	movie	1		246	34.0	2.5	/experiments/AOT/AOT_stimuli/rescaled_final/0914_rv.mp4	0.0	185.45430493354797	2.5002901554107666
36	164.59077095985413	pulse	1	t		34.0	2.5	/experiments/AOT/AOT_stimuli/rescaled_final/0914_rv.mp4	0.0	186.2378590106964	
36	166.19102096557617	pulse	1	t		34.0	2.5	/experiments/AOT/AOT_stimuli/rescaled_final/0914_rv.mp4	0.0	187.83810901641846	
36	166.30750703811646	fix_post	2		12	34.0	2.5	/experiments/AOT/AOT_stimuli/rescaled_final/0914_rv.mp4	0.0	187.95459508895874	0.09995388984680176
37	166.40746092796326	fix_pre	0		120	35.0	2.5	blank	1.0	188.05454897880554	0.9995501041412354
37	167.4070110321045	movie	1		300	35.0	2.5	blank	1.0	189.05409908294678	2.500377893447876
37	167.79093599319458	pulse	1	t		35.0	2.5	blank	1.0	189.43802404403687	
37	169.39087891578674	pulse	1	t		35.0	2.5	blank	1.0	191.03796696662903	
37	169.90738892555237	fix_post	2		12	35.0	2.5	blank	1.0	191.55447697639465	0.09998512268066406
38	170.00737404823303	fix_pre	0		119	36.0	2.5	/experiments/AOT/AOT_stimuli/rescaled_final/2077_fw.mp4	0.0	191.65446209907532	0.9917049407958984
38	170.99087595939636	pulse	0	t		36.0	2.5	/experiments/AOT/AOT_stimuli/rescaled_final/2077_fw.mp4	0.0	192.63796401023865	
38	170.99907898902893	movie	1		245	36.0	2.5	/experiments/AOT/AOT_stimuli/rescaled_final/2077_fw.mp4	0.0	192.64616703987122	2.507946014404297
38	172.59120798110962	pulse	1	t		36.0	2.5	/experiments/AOT/AOT_stimuli/rescaled_final/2077_fw.mp4	0.0	194.2382960319519	
38	173.50702500343323	fix_post	2		12	36.0	2.5	/experiments/AOT/AOT_stimuli/rescaled_final/2077_fw.mp4	0.0	195.1541130542755	0.10033297538757324
39	173.6073579788208	fix_pre	0		120	37.0	2.5	/experiments/AOT/AOT_stimuli/rescaled_final/1797_rv.mp4	0.0	195.2544460296631	1.0000228881835938
39	174.19084286689758	pulse	0	t		37.0	2.5	/experiments/AOT/AOT_stimuli/rescaled_final/1797_rv.mp4	0.0	195.83793091773987	
39	174.6073808670044	movie	1		246	37.0	2.5	/experiments/AOT/AOT_stimuli/rescaled_final/1797_rv.mp4	0.0	196.25446891784668	2.499606132507324
39	175.79095888137817	pulse	1	t		37.0	2.5	/experiments/AOT/AOT_stimuli/rescaled_final/1797_rv.mp4	0.0	197.43804693222046	
39	177.10698699951172	fix_post	2		12	37.0	2.5	/experiments/AOT/AOT_stimuli/rescaled_final/1797_rv.mp4	0.0	198.754075050354	0.10033702850341797
40	177.20732402801514	fix_pre	0		120	38.0	2.5	/experiments/AOT/AOT_stimuli/rescaled_final/1638_fw.mp4	0.0	198.85441207885742	1.000020980834961
40	177.39084196090698	pulse	0	t		38.0	2.5	/experiments/AOT/AOT_stimuli/rescaled_final/1638_fw.mp4	0.0	199.03793001174927	
40	178.2073450088501	movie	1		244	38.0	2.5	/experiments/AOT/AOT_stimuli/rescaled_final/1638_fw.mp4	0.0	199.85443305969238	2.4995980262756348
40	178.9909029006958	pulse	1	t		38.0	2.5	/experiments/AOT/AOT_stimuli/rescaled_final/1638_fw.mp4	0.0	200.6379909515381	
40	180.58934497833252	pulse	1	t		38.0	2.5	/experiments/AOT/AOT_stimuli/rescaled_final/1638_fw.mp4	0.0	202.2364330291748	
40	180.70694303512573	fix_post	2		12	38.0	2.5	/experiments/AOT/AOT_stimuli/rescaled_final/1638_fw.mp4	0.0	202.35403108596802	0.10040593147277832
41	180.8073489665985	fix_pre	0		120	39.0	2.5	/experiments/AOT/AOT_stimuli/rescaled_final/1878_fw.mp4	0.0	202.4544370174408	0.9997100830078125
41	181.80705904960632	movie	1		244	39.0	2.5	/experiments/AOT/AOT_stimuli/rescaled_final/1878_fw.mp4	0.0	203.4541471004486	2.5002429485321045
41	182.1904058456421	pulse	1	t		39.0	2.5	/experiments/AOT/AOT_stimuli/rescaled_final/1878_fw.mp4	0.0	203.83749389648438	
41	183.79084300994873	pulse	1	t		39.0	2.5	/experiments/AOT/AOT_stimuli/rescaled_final/1878_fw.mp4	0.0	205.43793106079102	
41	184.30730199813843	fix_post	2		12	39.0	2.5	/experiments/AOT/AOT_stimuli/rescaled_final/1878_fw.mp4	0.0	205.9543900489807	0.10001492500305176
42	184.40731692314148	fix_pre	0		119	40.0	2.5	/experiments/AOT/AOT_stimuli/rescaled_final/1102_rv.mp4	0.0	206.05440497398376	0.9917209148406982
42	185.3908338546753	pulse	0	t		40.0	2.5	/experiments/AOT/AOT_stimuli/rescaled_final/1102_rv.mp4	0.0	207.03792190551758	
42	185.39903783798218	movie	1		244	40.0	2.5	/experiments/AOT/AOT_stimuli/rescaled_final/1102_rv.mp4	0.0	207.04612588882446	2.5082061290740967
42	186.99067783355713	pulse	1	t		40.0	2.5	/experiments/AOT/AOT_stimuli/rescaled_final/1102_rv.mp4	0.0	208.6377658843994	
42	187.90724396705627	fix_post	2		12	40.0	2.5	/experiments/AOT/AOT_stimuli/rescaled_final/1102_rv.mp4	0.0	209.55433201789856	0.10004091262817383
43	188.00728487968445	fix_pre	0		120	41.0	2.5	/experiments/AOT/AOT_stimuli/rescaled_final/1204_fw.mp4	0.0	209.65437293052673	1.0000941753387451
43	188.59079790115356	pulse	0	t		41.0	2.5	/experiments/AOT/AOT_stimuli/rescaled_final/1204_fw.mp4	0.0	210.23788595199585	
43	189.0073790550232	movie	1		245	41.0	2.5	/experiments/AOT/AOT_stimuli/rescaled_final/1204_fw.mp4	0.0	210.65446710586548	2.4995229244232178
43	190.19087290763855	pulse	1	t		41.0	2.5	/experiments/AOT/AOT_stimuli/rescaled_final/1204_fw.mp4	0.0	211.83796095848083	
43	191.5069019794464	fix_post	2		12	41.0	2.5	/experiments/AOT/AOT_stimuli/rescaled_final/1204_fw.mp4	0.0	213.1539900302887	0.1004328727722168
44	191.60733485221863	fix_pre	0		120	42.0	2.5	blank	1.0	213.2544229030609	1.0000410079956055
44	191.79074001312256	pulse	0	t		42.0	2.5	blank	1.0	213.43782806396484	
44	192.60737586021423	movie	1		300	42.0	2.5	blank	1.0	214.25446391105652	2.4999070167541504
44	193.3908360004425	pulse	1	t		42.0	2.5	blank	1.0	215.0379240512848	
44	194.99080991744995	pulse	1	t		42.0	2.5	blank	1.0	216.63789796829224	
44	195.10728287696838	fix_post	2		12	42.0	2.5	blank	1.0	216.75437092781067	0.10001516342163086
45	195.20729804039001	fix_pre	0		120	43.0	2.5	/experiments/AOT/AOT_stimuli/rescaled_final/0089_rv.mp4	0.0	216.8543860912323	0.9999837875366211
45	196.20728182792664	movie	1		246	43.0	2.5	/experiments/AOT/AOT_stimuli/rescaled_final/0089_rv.mp4	0.0	217.85436987876892	2.5000832080841064
45	196.59058785438538	pulse	1	t		43.0	2.5	/experiments/AOT/AOT_stimuli/rescaled_final/0089_rv.mp4	0.0	218.23767590522766	
45	198.19081687927246	pulse	1	t		43.0	2.5	/experiments/AOT/AOT_stimuli/rescaled_final/0089_rv.mp4	0.0	219.83790493011475	
45	198.70736503601074	fix_post	2		12	43.0	2.5	/experiments/AOT/AOT_stimuli/rescaled_final/0089_rv.mp4	0.0	220.35445308685303	0.09994792938232422
46	198.80731296539307	fix_pre	0		119	44.0	2.5	/experiments/AOT/AOT_stimuli/rescaled_final/1385_rv.mp4	0.0	220.45440101623535	0.9915890693664551
46	199.79085898399353	pulse	0	t		44.0	2.5	/experiments/AOT/AOT_stimuli/rescaled_final/1385_rv.mp4	0.0	221.43794703483582	
46	199.79890203475952	movie	1		245	44.0	2.5	/experiments/AOT/AOT_stimuli/rescaled_final/1385_rv.mp4	0.0	221.4459900856018	2.508327007293701
46	201.39196801185608	pulse	1	t		44.0	2.5	/experiments/AOT/AOT_stimuli/rescaled_final/1385_rv.mp4	0.0	223.03905606269836	
46	202.30722904205322	fix_post	2		12	44.0	2.5	/experiments/AOT/AOT_stimuli/rescaled_final/1385_rv.mp4	0.0	223.9543170928955	0.10012292861938477
47	202.4073519706726	fix_pre	0		120	45.0	2.5	/experiments/AOT/AOT_stimuli/rescaled_final/1204_rv.mp4	0.0	224.0544400215149	0.9999299049377441
47	202.9907660484314	pulse	0	t		45.0	2.5	/experiments/AOT/AOT_stimuli/rescaled_final/1204_rv.mp4	0.0	224.63785409927368	
47	203.40728187561035	movie	1		244	45.0	2.5	/experiments/AOT/AOT_stimuli/rescaled_final/1204_rv.mp4	0.0	225.05436992645264	2.499998092651367
47	204.59085392951965	pulse	1	t		45.0	2.5	/experiments/AOT/AOT_stimuli/rescaled_final/1204_rv.mp4	0.0	226.23794198036194	
47	205.90727996826172	fix_post	2		12	45.0	2.5	/experiments/AOT/AOT_stimuli/rescaled_final/1204_rv.mp4	0.0	227.554368019104	0.10003995895385742
48	206.00731992721558	fix_pre	0		120	46.0	2.5	/experiments/AOT/AOT_stimuli/rescaled_final/1208_rv.mp4	0.0	227.65440797805786	0.9999730587005615
48	206.19076704978943	pulse	0	t		46.0	2.5	/experiments/AOT/AOT_stimuli/rescaled_final/1208_rv.mp4	0.0	227.8378551006317	
48	207.00729298591614	movie	1		244	46.0	2.5	/experiments/AOT/AOT_stimuli/rescaled_final/1208_rv.mp4	0.0	228.65438103675842	2.4995639324188232
48	207.79077100753784	pulse	1	t		46.0	2.5	/experiments/AOT/AOT_stimuli/rescaled_final/1208_rv.mp4	0.0	229.43785905838013	
48	209.3892478942871	pulse	1	t		46.0	2.5	/experiments/AOT/AOT_stimuli/rescaled_final/1208_rv.mp4	0.0	231.0363359451294	
48	209.50685691833496	fix_post	2		12	46.0	2.5	/experiments/AOT/AOT_stimuli/rescaled_final/1208_rv.mp4	0.0	231.15394496917725	0.10039401054382324
49	209.60725092887878	fix_pre	0		120	47.0	2.5	blank	1.0	231.25433897972107	1.000035047531128
49	210.6072859764099	movie	1		300	47.0	2.5	blank	1.0	232.2543740272522	2.4999618530273438
49	210.9907660484314	pulse	1	t		47.0	2.5	blank	1.0	232.63785409927368	
49	212.59074997901917	pulse	1	t		47.0	2.5	blank	1.0	234.23783802986145	
49	213.10724782943726	fix_post	2		12	47.0	2.5	blank	1.0	234.75433588027954	0.10004019737243652
50	213.2072880268097	fix_pre	0		119	48.0	2.5	/experiments/AOT/AOT_stimuli/rescaled_final/1173_fw.mp4	0.0	234.85437607765198	0.991804838180542
50	214.1907458305359	pulse	0	t		48.0	2.5	/experiments/AOT/AOT_stimuli/rescaled_final/1173_fw.mp4	0.0	235.83783388137817	
50	214.19909286499023	movie	1		246	48.0	2.5	/experiments/AOT/AOT_stimuli/rescaled_final/1173_fw.mp4	0.0	235.84618091583252	2.508291006088257
50	215.7905888557434	pulse	1	t		48.0	2.5	/experiments/AOT/AOT_stimuli/rescaled_final/1173_fw.mp4	0.0	237.4376769065857	
50	216.7073838710785	fix_post	2		12	48.0	2.5	/experiments/AOT/AOT_stimuli/rescaled_final/1173_fw.mp4	0.0	238.35447192192078	0.09996795654296875
51	216.80735182762146	fix_pre	0		120	49.0	2.5	/experiments/AOT/AOT_stimuli/rescaled_final/1422_rv.mp4	0.0	238.45443987846375	0.9994330406188965
51	217.39023995399475	pulse	0	t		49.0	2.5	/experiments/AOT/AOT_stimuli/rescaled_final/1422_rv.mp4	0.0	239.03732800483704	
51	217.80678486824036	movie	1		245	49.0	2.5	/experiments/AOT/AOT_stimuli/rescaled_final/1422_rv.mp4	0.0	239.45387291908264	2.5002400875091553
51	218.99039483070374	pulse	1	t		49.0	2.5	/experiments/AOT/AOT_stimuli/rescaled_final/1422_rv.mp4	0.0	240.63748288154602	
51	220.3070249557495	fix_post	2		12	49.0	2.5	/experiments/AOT/AOT_stimuli/rescaled_final/1422_rv.mp4	0.0	241.9541130065918	0.09999299049377441
52	220.4070179462433	fix_pre	0		120	50.0	2.5	/experiments/AOT/AOT_stimuli/rescaled_final/1961_fw.mp4	0.0	242.05410599708557	1.0002789497375488
52	220.5909559726715	pulse	0	t		50.0	2.5	/experiments/AOT/AOT_stimuli/rescaled_final/1961_fw.mp4	0.0	242.2380440235138	
52	221.40729689598083	movie	1		244	50.0	2.5	/experiments/AOT/AOT_stimuli/rescaled_final/1961_fw.mp4	0.0	243.05438494682312	2.4998719692230225
52	222.19063591957092	pulse	1	t		50.0	2.5	/experiments/AOT/AOT_stimuli/rescaled_final/1961_fw.mp4	0.0	243.8377239704132	
52	223.789293050766	pulse	1	t		50.0	2.5	/experiments/AOT/AOT_stimuli/rescaled_final/1961_fw.mp4	0.0	245.43638110160828	
52	223.90716886520386	fix_post	2		12	50.0	2.5	/experiments/AOT/AOT_stimuli/rescaled_final/1961_fw.mp4	0.0	245.55425691604614	0.09998202323913574
53	224.007150888443	fix_pre	0		120	51.0	2.5	/experiments/AOT/AOT_stimuli/rescaled_final/0244_fw.mp4	0.0	245.65423893928528	1.0000340938568115
53	225.0071849822998	movie	1		245	51.0	2.5	/experiments/AOT/AOT_stimuli/rescaled_final/0244_fw.mp4	0.0	246.6542730331421	2.499927043914795
53	225.39039587974548	pulse	1	t		51.0	2.5	/experiments/AOT/AOT_stimuli/rescaled_final/0244_fw.mp4	0.0	247.03748393058777	
53	226.99055695533752	pulse	1	t		51.0	2.5	/experiments/AOT/AOT_stimuli/rescaled_final/0244_fw.mp4	0.0	248.6376450061798	
53	227.5071120262146	fix_post	2		12	51.0	2.5	/experiments/AOT/AOT_stimuli/rescaled_final/0244_fw.mp4	0.0	249.15420007705688	0.10004591941833496
54	227.60715794563293	fix_pre	0		119	52.0	2.5	/experiments/AOT/AOT_stimuli/rescaled_final/0145_rv.mp4	0.0	249.25424599647522	0.9915831089019775
54	228.59062886238098	pulse	0	t		52.0	2.5	/experiments/AOT/AOT_stimuli/rescaled_final/0145_rv.mp4	0.0	250.23771691322327	
54	228.5987410545349	movie	1		243	52.0	2.5	/experiments/AOT/AOT_stimuli/rescaled_final/0145_rv.mp4	0.0	250.2458291053772	2.5079047679901123
54	230.19173002243042	pulse	1	t		52.0	2.5	/experiments/AOT/AOT_stimuli/rescaled_final/0145_rv.mp4	0.0	251.8388180732727	
54	231.10664582252502	fix_post	2		12	52.0	2.5	/experiments/AOT/AOT_stimuli/rescaled_final/0145_rv.mp4	0.0	252.7537338733673	0.10045599937438965
55	231.2071018218994	fix_pre	0		120	53.0	2.5	/experiments/AOT/AOT_stimuli/rescaled_final/0213_fw.mp4	0.0	252.8541898727417	0.9999401569366455
55	231.79060697555542	pulse	0	t		53.0	2.5	/experiments/AOT/AOT_stimuli/rescaled_final/0213_fw.mp4	0.0	253.4376950263977	
55	232.20704197883606	movie	1		247	53.0	2.5	/experiments/AOT/AOT_stimuli/rescaled_final/0213_fw.mp4	0.0	253.85413002967834	2.499748945236206
55	233.3906810283661	pulse	1	t		53.0	2.5	/experiments/AOT/AOT_stimuli/rescaled_final/0213_fw.mp4	0.0	255.03776907920837	
55	234.70679092407227	fix_post	2		12	53.0	2.5	/experiments/AOT/AOT_stimuli/rescaled_final/0213_fw.mp4	0.0	256.35387897491455	0.10032200813293457
56	234.8071129322052	fix_pre	0		120	54.0	2.5	/experiments/AOT/AOT_stimuli/rescaled_final/2024_fw.mp4	0.0	256.4542009830475	1.0000040531158447
56	234.9907169342041	pulse	0	t		54.0	2.5	/experiments/AOT/AOT_stimuli/rescaled_final/2024_fw.mp4	0.0	256.6378049850464	
56	235.80711698532104	movie	1		247	54.0	2.5	/experiments/AOT/AOT_stimuli/rescaled_final/2024_fw.mp4	0.0	257.45420503616333	2.5000250339508057
56	236.59059286117554	pulse	1	t		54.0	2.5	/experiments/AOT/AOT_stimuli/rescaled_final/2024_fw.mp4	0.0	258.2376809120178	
56	238.19018387794495	pulse	1	t		54.0	2.5	/experiments/AOT/AOT_stimuli/rescaled_final/2024_fw.mp4	0.0	259.83727192878723	
56	238.30714201927185	fix_post	2		12	54.0	2.5	/experiments/AOT/AOT_stimuli/rescaled_final/2024_fw.mp4	0.0	259.95423007011414	0.09993791580200195
57	238.40707993507385	fix_pre	0		120	55.0	2.5	blank	1.0	260.05416798591614	1.000046968460083
57	239.40712690353394	movie	1		300	55.0	2.5	blank	1.0	261.0542149543762	2.4998860359191895
57	239.79056882858276	pulse	1	t		55.0	2.5	blank	1.0	261.43765687942505	
57	241.39051795005798	pulse	1	t		55.0	2.5	blank	1.0	263.03760600090027	
57	241.90701293945312	fix_post	2		12	55.0	2.5	blank	1.0	263.5541009902954	0.10004305839538574
58	242.0070559978485	fix_pre	0		119	56.0	2.5	/experiments/AOT/AOT_stimuli/rescaled_final/2079_rv.mp4	0.0	263.6541440486908	0.9916589260101318
58	242.99062705039978	pulse	0	t		56.0	2.5	/experiments/AOT/AOT_stimuli/rescaled_final/2079_rv.mp4	0.0	264.63771510124207	
58	242.99871492385864	movie	1		245	56.0	2.5	/experiments/AOT/AOT_stimuli/rescaled_final/2079_rv.mp4	0.0	264.6458029747009	2.5084309577941895
58	244.59017992019653	pulse	1	t		56.0	2.5	/experiments/AOT/AOT_stimuli/rescaled_final/2079_rv.mp4	0.0	266.2372679710388	
58	245.50714588165283	fix_post	2		12	56.0	2.5	/experiments/AOT/AOT_stimuli/rescaled_final/2079_rv.mp4	0.0	267.1542339324951	0.10001516342163086
59	245.60716104507446	fix_pre	0		120	57.0	2.5	/experiments/AOT/AOT_stimuli/rescaled_final/1588_rv.mp4	0.0	267.25424909591675	0.9999499320983887
59	246.19051384925842	pulse	0	t		57.0	2.5	/experiments/AOT/AOT_stimuli/rescaled_final/1588_rv.mp4	0.0	267.8376019001007	
59	246.60711097717285	movie	1		244	57.0	2.5	/experiments/AOT/AOT_stimuli/rescaled_final/1588_rv.mp4	0.0	268.25419902801514	2.5000228881835938
59	247.79054999351501	pulse	1	t		57.0	2.5	/experiments/AOT/AOT_stimuli/rescaled_final/1588_rv.mp4	0.0	269.4376380443573	
59	249.10713386535645	fix_post	2		12	57.0	2.5	/experiments/AOT/AOT_stimuli/rescaled_final/1588_rv.mp4	0.0	270.75422191619873	0.09997105598449707
60	249.20710492134094	fix_pre	0		120	58.0	2.5	/experiments/AOT/AOT_stimuli/rescaled_final/0603_fw.mp4	0.0	270.8541929721832	0.9999659061431885
60	249.39055490493774	pulse	0	t		58.0	2.5	/experiments/AOT/AOT_stimuli/rescaled_final/0603_fw.mp4	0.0	271.03764295578003	
60	250.20707082748413	movie	1		243	58.0	2.5	/experiments/AOT/AOT_stimuli/rescaled_final/0603_fw.mp4	0.0	271.8541588783264	2.499913215637207
60	250.99050903320312	pulse	1	t		58.0	2.5	/experiments/AOT/AOT_stimuli/rescaled_final/0603_fw.mp4	0.0	272.6375970840454	
60	252.58885097503662	pulse	1	t		58.0	2.5	/experiments/AOT/AOT_stimuli/rescaled_final/0603_fw.mp4	0.0	274.2359390258789	
60	252.70698404312134	fix_post	2		12	58.0	2.5	/experiments/AOT/AOT_stimuli/rescaled_final/0603_fw.mp4	0.0	274.3540720939636	0.10007691383361816
61	252.80706095695496	fix_pre	0		120	59.0	2.5	/experiments/AOT/AOT_stimuli/rescaled_final/0091_fw.mp4	0.0	274.45414900779724	0.9999599456787109
61	253.80702090263367	movie	1		249	59.0	2.5	/experiments/AOT/AOT_stimuli/rescaled_final/0091_fw.mp4	0.0	275.45410895347595	2.499998092651367
61	254.19019293785095	pulse	1	t		59.0	2.5	/experiments/AOT/AOT_stimuli/rescaled_final/0091_fw.mp4	0.0	275.83728098869324	
61	255.79050588607788	pulse	1	t		59.0	2.5	/experiments/AOT/AOT_stimuli/rescaled_final/0091_fw.mp4	0.0	277.43759393692017	
61	256.30701899528503	fix_post	2		12	59.0	2.5	/experiments/AOT/AOT_stimuli/rescaled_final/0091_fw.mp4	0.0	277.9541070461273	0.09996986389160156
62	256.40698885917664	fix_pre	0		119	60.0	2.5	/experiments/AOT/AOT_stimuli/rescaled_final/0797_rv.mp4	0.0	278.0540769100189	0.9916620254516602
62	257.390585899353	pulse	0	t		60.0	2.5	/experiments/AOT/AOT_stimuli/rescaled_final/0797_rv.mp4	0.0	279.0376739501953	
62	257.3986508846283	movie	1		247	60.0	2.5	/experiments/AOT/AOT_stimuli/rescaled_final/0797_rv.mp4	0.0	279.0457389354706	2.5083870887756348
62	258.9900789260864	pulse	1	t		60.0	2.5	/experiments/AOT/AOT_stimuli/rescaled_final/0797_rv.mp4	0.0	280.6371669769287	
62	259.90703797340393	fix_post	2		12	60.0	2.5	/experiments/AOT/AOT_stimuli/rescaled_final/0797_rv.mp4	0.0	281.5541260242462	0.09992194175720215
63	260.00695991516113	fix_pre	0		120	61.0	2.5	blank	1.0	281.6540479660034	1.0000030994415283
63	260.590430021286	pulse	0	t		61.0	2.5	blank	1.0	282.2375180721283	
63	261.00696301460266	movie	1		300	61.0	2.5	blank	1.0	282.65405106544495	2.500041961669922
63	262.1905038356781	pulse	1	t		61.0	2.5	blank	1.0	283.8375918865204	
63	263.5070049762726	fix_post	2		12	61.0	2.5	blank	1.0	285.15409302711487	0.09996700286865234
64	263.60697197914124	fix_pre	0		120	62.0	2.5	/experiments/AOT/AOT_stimuli/rescaled_final/1876_rv.mp4	0.0	285.2540600299835	0.9999780654907227
64	263.79050183296204	pulse	0	t		62.0	2.5	/experiments/AOT/AOT_stimuli/rescaled_final/1876_rv.mp4	0.0	285.4375898838043	
64	264.60695004463196	movie	1		245	62.0	2.5	/experiments/AOT/AOT_stimuli/rescaled_final/1876_rv.mp4	0.0	286.25403809547424	2.4999887943267822
64	265.3905029296875	pulse	1	t		62.0	2.5	/experiments/AOT/AOT_stimuli/rescaled_final/1876_rv.mp4	0.0	287.0375909805298	
64	266.98906898498535	pulse	1	t		62.0	2.5	/experiments/AOT/AOT_stimuli/rescaled_final/1876_rv.mp4	0.0	288.63615703582764	
64	267.10693883895874	fix_post	2		12	62.0	2.5	/experiments/AOT/AOT_stimuli/rescaled_final/1876_rv.mp4	0.0	288.754026889801	0.10009098052978516
65	267.2070298194885	fix_pre	0		120	63.0	2.5	/experiments/AOT/AOT_stimuli/rescaled_final/2079_fw.mp4	0.0	288.8541178703308	0.9998841285705566
65	268.2069139480591	movie	1		244	63.0	2.5	/experiments/AOT/AOT_stimuli/rescaled_final/2079_fw.mp4	0.0	289.85400199890137	2.500020980834961
65	268.59000396728516	pulse	1	t		63.0	2.5	/experiments/AOT/AOT_stimuli/rescaled_final/2079_fw.mp4	0.0	290.23709201812744	
65	270.19039392471313	pulse	1	t		63.0	2.5	/experiments/AOT/AOT_stimuli/rescaled_final/2079_fw.mp4	0.0	291.8374819755554	
65	270.70693492889404	fix_post	2		12	63.0	2.5	/experiments/AOT/AOT_stimuli/rescaled_final/2079_fw.mp4	0.0	292.3540229797363	0.09998607635498047
66	270.806921005249	fix_pre	0		119	64.0	2.5	/experiments/AOT/AOT_stimuli/rescaled_final/0687_rv.mp4	0.0	292.4540090560913	0.991696834564209
66	271.79053497314453	pulse	0	t		64.0	2.5	/experiments/AOT/AOT_stimuli/rescaled_final/0687_rv.mp4	0.0	293.4376230239868	
66	271.79861783981323	movie	1		244	64.0	2.5	/experiments/AOT/AOT_stimuli/rescaled_final/0687_rv.mp4	0.0	293.4457058906555	2.508692979812622
66	273.38954305648804	pulse	1	t		64.0	2.5	/experiments/AOT/AOT_stimuli/rescaled_final/0687_rv.mp4	0.0	295.0366311073303	
66	274.30731081962585	fix_post	2		12	64.0	2.5	/experiments/AOT/AOT_stimuli/rescaled_final/0687_rv.mp4	0.0	295.95439887046814	0.09927010536193848
67	274.4065809249878	fix_pre	0		120	65.0	2.5	/experiments/AOT/AOT_stimuli/rescaled_final/1181_fw.mp4	0.0	296.0536689758301	0.9999949932098389
67	274.99011182785034	pulse	0	t		65.0	2.5	/experiments/AOT/AOT_stimuli/rescaled_final/1181_fw.mp4	0.0	296.6371998786926	
67	275.40657591819763	movie	1		244	65.0	2.5	/experiments/AOT/AOT_stimuli/rescaled_final/1181_fw.mp4	0.0	297.0536639690399	2.499903917312622
67	276.5903480052948	pulse	1	t		65.0	2.5	/experiments/AOT/AOT_stimuli/rescaled_final/1181_fw.mp4	0.0	298.2374360561371	
67	277.90647983551025	fix_post	2		12	65.0	2.5	/experiments/AOT/AOT_stimuli/rescaled_final/1181_fw.mp4	0.0	299.55356788635254	0.10039114952087402
68	278.0068709850311	fix_pre	0		120	66.0	2.5	/experiments/AOT/AOT_stimuli/rescaled_final/2070_fw.mp4	0.0	299.6539590358734	1.0000510215759277
68	278.19038796424866	pulse	0	t		66.0	2.5	/experiments/AOT/AOT_stimuli/rescaled_final/2070_fw.mp4	0.0	299.83747601509094	
68	279.00692200660706	movie	1		247	66.0	2.5	/experiments/AOT/AOT_stimuli/rescaled_final/2070_fw.mp4	0.0	300.65401005744934	2.499908924102783
68	279.7903289794922	pulse	1	t		66.0	2.5	/experiments/AOT/AOT_stimuli/rescaled_final/2070_fw.mp4	0.0	301.4374170303345	
68	281.38638496398926	pulse	1	t		66.0	2.5	/experiments/AOT/AOT_stimuli/rescaled_final/2070_fw.mp4	0.0	303.03347301483154	
68	281.50683093070984	fix_post	2		12	66.0	2.5	/experiments/AOT/AOT_stimuli/rescaled_final/2070_fw.mp4	0.0	303.1539189815521	0.10000991821289062
69	281.60684084892273	fix_pre	0		120	67.0	2.5	/experiments/AOT/AOT_stimuli/rescaled_final/0815_fw.mp4	0.0	303.253928899765	1.0000371932983398
69	282.60687804222107	movie	1		244	67.0	2.5	/experiments/AOT/AOT_stimuli/rescaled_final/0815_fw.mp4	0.0	304.25396609306335	2.499555826187134
69	282.990110874176	pulse	1	t		67.0	2.5	/experiments/AOT/AOT_stimuli/rescaled_final/0815_fw.mp4	0.0	304.6371989250183	
69	284.59030199050903	pulse	1	t		67.0	2.5	/experiments/AOT/AOT_stimuli/rescaled_final/0815_fw.mp4	0.0	306.2373900413513	
69	285.1064338684082	fix_post	2		12	67.0	2.5	/experiments/AOT/AOT_stimuli/rescaled_final/0815_fw.mp4	0.0	306.7535219192505	0.1003570556640625
70	285.20679092407227	fix_pre	0		119	68.0	2.5	blank	1.0	306.85387897491455	0.9917149543762207
70	286.1903989315033	pulse	0	t		68.0	2.5	blank	1.0	307.8374869823456	
70	286.1985058784485	movie	1		301	68.0	2.5	blank	1.0	307.84559392929077	2.5083131790161133
70	287.79034304618835	pulse	1	t		68.0	2.5	blank	1.0	309.43743109703064	
70	288.7068190574646	fix_post	2		12	68.0	2.5	blank	1.0	310.3539071083069	0.10003399848937988
71	288.806853055954	fix_pre	0		120	69.0	2.5	/experiments/AOT/AOT_stimuli/rescaled_final/0738_rv.mp4	0.0	310.45394110679626	0.9999899864196777
71	289.3904130458832	pulse	0	t		69.0	2.5	/experiments/AOT/AOT_stimuli/rescaled_final/0738_rv.mp4	0.0	311.03750109672546	
71	289.80684304237366	movie	1		244	69.0	2.5	/experiments/AOT/AOT_stimuli/rescaled_final/0738_rv.mp4	0.0	311.45393109321594	2.5000388622283936
71	290.9903769493103	pulse	1	t		69.0	2.5	/experiments/AOT/AOT_stimuli/rescaled_final/0738_rv.mp4	0.0	312.6374650001526	
71	292.30688190460205	fix_post	2		12	69.0	2.5	/experiments/AOT/AOT_stimuli/rescaled_final/0738_rv.mp4	0.0	313.95396995544434	0.09992694854736328
72	292.4068088531494	fix_pre	0		120	70.0	2.5	/experiments/AOT/AOT_stimuli/rescaled_final/0274_fw.mp4	0.0	314.0538969039917	1.0000782012939453
72	292.59034299850464	pulse	0	t		70.0	2.5	/experiments/AOT/AOT_stimuli/rescaled_final/0274_fw.mp4	0.0	314.2374310493469	
72	293.40688705444336	movie	1		244	70.0	2.5	/experiments/AOT/AOT_stimuli/rescaled_final/0274_fw.mp4	0.0	315.05397510528564	2.4994819164276123
72	294.1903760433197	pulse	1	t		70.0	2.5	/experiments/AOT/AOT_stimuli/rescaled_final/0274_fw.mp4	0.0	315.837464094162	
72	295.7890000343323	pulse	1	t		70.0	2.5	/experiments/AOT/AOT_stimuli/rescaled_final/0274_fw.mp4	0.0	317.43608808517456	
72	295.906368970871	fix_post	2		12	70.0	2.5	/experiments/AOT/AOT_stimuli/rescaled_final/0274_fw.mp4	0.0	317.55345702171326	0.1004018783569336
73	296.0067708492279	fix_pre	0		120	71.0	2.5	/experiments/AOT/AOT_stimuli/rescaled_final/0304_rv.mp4	0.0	317.6538589000702	1.000042200088501
73	297.0068130493164	movie	1		245	71.0	2.5	/experiments/AOT/AOT_stimuli/rescaled_final/0304_rv.mp4	0.0	318.6539011001587	2.5000228881835938
73	297.39059495925903	pulse	1	t		71.0	2.5	/experiments/AOT/AOT_stimuli/rescaled_final/0304_rv.mp4	0.0	319.0376830101013	
73	298.99027490615845	pulse	1	t		71.0	2.5	/experiments/AOT/AOT_stimuli/rescaled_final/0304_rv.mp4	0.0	320.63736295700073	
73	299.5068359375	fix_post	2		12	71.0	2.5	/experiments/AOT/AOT_stimuli/rescaled_final/0304_rv.mp4	0.0	321.1539239883423	0.09986090660095215
74	299.60669684410095	fix_pre	0		119	72.0	2.5	/experiments/AOT/AOT_stimuli/rescaled_final/0326_rv.mp4	0.0	321.25378489494324	0.9918150901794434
74	300.5902988910675	pulse	0	t		72.0	2.5	/experiments/AOT/AOT_stimuli/rescaled_final/0326_rv.mp4	0.0	322.2373869419098	
74	300.5985119342804	movie	1		248	72.0	2.5	/experiments/AOT/AOT_stimuli/rescaled_final/0326_rv.mp4	0.0	322.2455999851227	2.5082080364227295
74	302.19000005722046	pulse	1	t		72.0	2.5	/experiments/AOT/AOT_stimuli/rescaled_final/0326_rv.mp4	0.0	323.83708810806274	
74	303.1067199707031	fix_post	2		12	72.0	2.5	/experiments/AOT/AOT_stimuli/rescaled_final/0326_rv.mp4	0.0	324.7538080215454	0.10004591941833496
75	303.20676589012146	fix_pre	0		120	73.0	2.5	/experiments/AOT/AOT_stimuli/rescaled_final/0064_fw.mp4	0.0	324.85385394096375	0.9999740123748779
75	303.79033493995667	pulse	0	t		73.0	2.5	/experiments/AOT/AOT_stimuli/rescaled_final/0064_fw.mp4	0.0	325.43742299079895	
75	304.20673990249634	movie	1		249	73.0	2.5	/experiments/AOT/AOT_stimuli/rescaled_final/0064_fw.mp4	0.0	325.8538279533386	2.5000839233398438
75	305.3903329372406	pulse	1	t		73.0	2.5	/experiments/AOT/AOT_stimuli/rescaled_final/0064_fw.mp4	0.0	327.0374209880829	
75	306.7068238258362	fix_post	2		12	73.0	2.5	/experiments/AOT/AOT_stimuli/rescaled_final/0064_fw.mp4	0.0	328.35391187667847	0.09996604919433594
76	306.8067898750305	fix_pre	0		120	74.0	2.5	/experiments/AOT/AOT_stimuli/rescaled_final/1961_fw.mp4	0.0	328.4538779258728	1.0000340938568115
76	306.99028396606445	pulse	0	t		74.0	2.5	/experiments/AOT/AOT_stimuli/rescaled_final/1961_fw.mp4	0.0	328.63737201690674	
76	307.80682396888733	movie	1		245	74.0	2.5	/experiments/AOT/AOT_stimuli/rescaled_final/1961_fw.mp4	0.0	329.4539120197296	2.499958038330078
76	308.5902109146118	pulse	1	t		74.0	2.5	/experiments/AOT/AOT_stimuli/rescaled_final/1961_fw.mp4	0.0	330.2372989654541	
76	310.1887550354004	pulse	1	t		74.0	2.5	/experiments/AOT/AOT_stimuli/rescaled_final/1961_fw.mp4	0.0	331.8358430862427	
76	310.3067820072174	fix_post	2		12	74.0	2.5	/experiments/AOT/AOT_stimuli/rescaled_final/1961_fw.mp4	0.0	331.9538700580597	0.09992098808288574
77	310.4067029953003	fix_pre	0		120	75.0	2.5	blank	1.0	332.0537910461426	1.0000789165496826
77	311.40678191185	movie	1		300	75.0	2.5	blank	1.0	333.05386996269226	2.4999310970306396
77	311.790256023407	pulse	1	t		75.0	2.5	blank	1.0	333.43734407424927	
77	313.39020705223083	pulse	1	t		75.0	2.5	blank	1.0	335.0372951030731	
77	313.9067130088806	fix_post	2		12	75.0	2.5	blank	1.0	335.5538010597229	0.09996199607849121
78	314.0066750049591	fix_pre	0		119	76.0	2.5	/experiments/AOT/AOT_stimuli/rescaled_final/1297_fw.mp4	0.0	335.6537630558014	0.9916589260101318
78	314.9901809692383	pulse	0	t		76.0	2.5	/experiments/AOT/AOT_stimuli/rescaled_final/1297_fw.mp4	0.0	336.63726902008057	
78	314.99833393096924	movie	1		244	76.0	2.5	/experiments/AOT/AOT_stimuli/rescaled_final/1297_fw.mp4	0.0	336.6454219818115	2.5079801082611084
78	316.58981490135193	pulse	1	t		76.0	2.5	/experiments/AOT/AOT_stimuli/rescaled_final/1297_fw.mp4	0.0	338.2369029521942	
78	317.50631403923035	fix_post	2		12	76.0	2.5	/experiments/AOT/AOT_stimuli/rescaled_final/1297_fw.mp4	0.0	339.15340209007263	0.10039591789245605
79	317.6067099571228	fix_pre	0		120	77.0	2.5	/experiments/AOT/AOT_stimuli/rescaled_final/1310_rv.mp4	0.0	339.2537980079651	1.0000040531158447
79	318.1902630329132	pulse	0	t		77.0	2.5	/experiments/AOT/AOT_stimuli/rescaled_final/1310_rv.mp4	0.0	339.8373510837555	
79	318.60671401023865	movie	1		244	77.0	2.5	/experiments/AOT/AOT_stimuli/rescaled_final/1310_rv.mp4	0.0	340.25380206108093	2.499640941619873
79	319.7902338504791	pulse	1	t		77.0	2.5	/experiments/AOT/AOT_stimuli/rescaled_final/1310_rv.mp4	0.0	341.4373219013214	
79	321.1063549518585	fix_post	2		12	77.0	2.5	/experiments/AOT/AOT_stimuli/rescaled_final/1310_rv.mp4	0.0	342.7534430027008	0.10027694702148438
80	321.20663189888	fix_pre	0		120	78.0	2.5	/experiments/AOT/AOT_stimuli/rescaled_final/0300_rv.mp4	0.0	342.8537199497223	1.0000629425048828
80	321.3902118206024	pulse	0	t		78.0	2.5	/experiments/AOT/AOT_stimuli/rescaled_final/0300_rv.mp4	0.0	343.0372998714447	
80	322.2066948413849	movie	1		245	78.0	2.5	/experiments/AOT/AOT_stimuli/rescaled_final/0300_rv.mp4	0.0	343.8537828922272	2.499936103820801
80	322.99017691612244	pulse	1	t		78.0	2.5	/experiments/AOT/AOT_stimuli/rescaled_final/0300_rv.mp4	0.0	344.6372649669647	
80	324.58628582954407	pulse	1	t		78.0	2.5	/experiments/AOT/AOT_stimuli/rescaled_final/0300_rv.mp4	0.0	346.23337388038635	
80	324.7066309452057	fix_post	2		12	78.0	2.5	/experiments/AOT/AOT_stimuli/rescaled_final/0300_rv.mp4	0.0	346.353718996048	0.10010004043579102
81	324.8067309856415	fix_pre	0		120	79.0	2.5	/experiments/AOT/AOT_stimuli/rescaled_final/2024_rv.mp4	0.0	346.45381903648376	0.9999759197235107
81	325.806706905365	movie	1		245	79.0	2.5	/experiments/AOT/AOT_stimuli/rescaled_final/2024_rv.mp4	0.0	347.4537949562073	2.5000479221343994
81	326.18999004364014	pulse	1	t		79.0	2.5	/experiments/AOT/AOT_stimuli/rescaled_final/2024_rv.mp4	0.0	347.8370780944824	
81	327.7902090549469	pulse	1	t		79.0	2.5	/experiments/AOT/AOT_stimuli/rescaled_final/2024_rv.mp4	0.0	349.4372971057892	
81	328.3067548274994	fix_post	2		12	79.0	2.5	/experiments/AOT/AOT_stimuli/rescaled_final/2024_rv.mp4	0.0	349.9538428783417	0.09989619255065918
82	328.40665102005005	fix_pre	0		119	80.0	2.5	/experiments/AOT/AOT_stimuli/rescaled_final/1428_rv.mp4	0.0	350.05373907089233	0.9916789531707764
82	329.38968896865845	pulse	0	t		80.0	2.5	/experiments/AOT/AOT_stimuli/rescaled_final/1428_rv.mp4	0.0	351.03677701950073	
82	329.3983299732208	movie	1		251	80.0	2.5	/experiments/AOT/AOT_stimuli/rescaled_final/1428_rv.mp4	0.0	351.0454180240631	2.508513927459717
82	330.989266872406	pulse	1	t		80.0	2.5	/experiments/AOT/AOT_stimuli/rescaled_final/1428_rv.mp4	0.0	352.6363549232483	
82	331.90684390068054	fix_post	2		12	80.0	2.5	/experiments/AOT/AOT_stimuli/rescaled_final/1428_rv.mp4	0.0	353.5539319515228	0.10009098052978516
83	332.0069348812103	fix_pre	0		120	81.0	2.5	/experiments/AOT/AOT_stimuli/rescaled_final/1274_fw.mp4	0.0	353.6540229320526	0.9993109703063965
83	332.590078830719	pulse	0	t		81.0	2.5	/experiments/AOT/AOT_stimuli/rescaled_final/1274_fw.mp4	0.0	354.2371668815613	
83	333.0062458515167	movie	1		245	81.0	2.5	/experiments/AOT/AOT_stimuli/rescaled_final/1274_fw.mp4	0.0	354.653333902359	2.5003421306610107
83	334.1901469230652	pulse	1	t		81.0	2.5	/experiments/AOT/AOT_stimuli/rescaled_final/1274_fw.mp4	0.0	355.83723497390747	
83	335.50658798217773	fix_post	2		12	81.0	2.5	/experiments/AOT/AOT_stimuli/rescaled_final/1274_fw.mp4	0.0	357.15367603302	0.10004997253417969
84	335.6066379547119	fix_pre	0		120	82.0	2.5	/experiments/AOT/AOT_stimuli/rescaled_final/0757_rv.mp4	0.0	357.2537260055542	1.000096082687378
84	335.79013204574585	pulse	0	t		82.0	2.5	/experiments/AOT/AOT_stimuli/rescaled_final/0757_rv.mp4	0.0	357.43722009658813	
84	336.6067340373993	movie	1		245	82.0	2.5	/experiments/AOT/AOT_stimuli/rescaled_final/0757_rv.mp4	0.0	358.2538220882416	2.499851942062378
84	337.39006304740906	pulse	1	t		82.0	2.5	/experiments/AOT/AOT_stimuli/rescaled_final/0757_rv.mp4	0.0	359.03715109825134	
84	338.98596596717834	pulse	1	t		82.0	2.5	/experiments/AOT/AOT_stimuli/rescaled_final/0757_rv.mp4	0.0	360.63305401802063	
84	339.10658597946167	fix_post	2		12	82.0	2.5	/experiments/AOT/AOT_stimuli/rescaled_final/0757_rv.mp4	0.0	360.75367403030396	0.10000491142272949
85	339.2065908908844	fix_pre	0		120	83.0	2.5	blank	1.0	360.8536789417267	1.000002145767212
85	340.2065930366516	movie	1		300	83.0	2.5	blank	1.0	361.8536810874939	2.4999899864196777
85	340.59005188941956	pulse	1	t		83.0	2.5	blank	1.0	362.23713994026184	
85	342.190052986145	pulse	1	t		83.0	2.5	blank	1.0	363.8371410369873	
85	342.7065830230713	fix_post	2		12	83.0	2.5	blank	1.0	364.3536710739136	0.09993696212768555
87	342.806519985199	stim	0		1716					364.45360803604126	14.300008058547974
87	343.7900719642639	pulse	0	t						365.4371600151062	
87	345.39010787010193	pulse	0	t						367.0371959209442	
87	346.9899640083313	pulse	0	t						368.6370520591736	
87	348.59011793136597	pulse	0	t						370.23720598220825	
87	350.1900279521942	pulse	0	t						371.8371160030365	
87	351.78997898101807	pulse	0	t						373.43706703186035	
87	353.3901059627533	pulse	0	t						375.0371940135956	
87	354.9900279045105	pulse	0	t						376.6371159553528	
87	356.589980840683	pulse	0	t						378.23706889152527	
