trial_nr	onset	event_type	phase	response	nr_frames	movie_index	movie_duration	movie_file	blank	onset_abs	duration
0	0.20827198028564453	stim	0		143					27.87739610671997	1.1917688846588135
0	1.3919458389282227	response	0	space						29.06106996536255	
1	1.400040864944458	stim	0		5349					29.069164991378784	44.592041969299316
1	45.98202300071716	pulse	0	t						73.65114712715149	
1	45.992082834243774	stim	1		1715					73.6612069606781	14.300055027008057
1	47.57389783859253	pulse	1	t						75.24302196502686	
1	49.174017906188965	pulse	1	t						76.84314203262329	
1	50.77426195144653	pulse	1	t						78.44338607788086	
1	52.37446594238281	pulse	1	t						80.04359006881714	
1	53.97468090057373	pulse	1	t						81.64380502700806	
1	55.57502889633179	pulse	1	t						83.24415302276611	
1	57.175267934799194	pulse	1	t						84.84439206123352	
1	58.77538084983826	pulse	1	t						86.44450497627258	
2	60.29213786125183	fix_pre	0		11	0.0	2.5	/experiments/knapen_AOT/AOT_stimuli/rescaled_final/0930_fw.mp4	0.0	87.96126198768616	0.09170103073120117
2	60.37569284439087	pulse	0	t		0.0	2.5	/experiments/knapen_AOT/AOT_stimuli/rescaled_final/0930_fw.mp4	0.0	88.0448169708252	
2	60.38383889198303	movie	1		243	0.0	2.5	/experiments/knapen_AOT/AOT_stimuli/rescaled_final/0930_fw.mp4	0.0	88.05296301841736	2.508695125579834
2	61.97725296020508	pulse	1	t		0.0	2.5	/experiments/knapen_AOT/AOT_stimuli/rescaled_final/0930_fw.mp4	0.0	89.6463770866394	
2	62.892534017562866	fix_post	2		12	0.0	2.5	/experiments/knapen_AOT/AOT_stimuli/rescaled_final/0930_fw.mp4	0.0	90.56165814399719	0.10001993179321289
3	62.99255394935608	fix_pre	0		120	1.0	2.5	/experiments/knapen_AOT/AOT_stimuli/rescaled_final/1683_rv.mp4	0.0	90.6616780757904	1.000166893005371
3	63.5762460231781	pulse	0	t		1.0	2.5	/experiments/knapen_AOT/AOT_stimuli/rescaled_final/1683_rv.mp4	0.0	91.24537014961243	
3	63.99272084236145	movie	1		244	1.0	2.5	/experiments/knapen_AOT/AOT_stimuli/rescaled_final/1683_rv.mp4	0.0	91.66184496879578	2.500394105911255
3	65.17203378677368	pulse	1	t		1.0	2.5	/experiments/knapen_AOT/AOT_stimuli/rescaled_final/1683_rv.mp4	0.0	92.84115791320801	
3	66.4931149482727	fix_post	2		12	1.0	2.5	/experiments/knapen_AOT/AOT_stimuli/rescaled_final/1683_rv.mp4	0.0	94.16223907470703	0.10003185272216797
4	66.59314680099487	fix_pre	0		120	2.0	2.5	/experiments/knapen_AOT/AOT_stimuli/rescaled_final/1338_fw.mp4	0.0	94.2622709274292	1.0001192092895508
4	66.77661895751953	pulse	0	t		2.0	2.5	/experiments/knapen_AOT/AOT_stimuli/rescaled_final/1338_fw.mp4	0.0	94.44574308395386	
4	67.59326601028442	movie	1		243	2.0	2.5	/experiments/knapen_AOT/AOT_stimuli/rescaled_final/1338_fw.mp4	0.0	95.26239013671875	2.5003528594970703
4	68.3769199848175	pulse	1	t		2.0	2.5	/experiments/knapen_AOT/AOT_stimuli/rescaled_final/1338_fw.mp4	0.0	96.04604411125183	
4	69.97704482078552	pulse	1	t		2.0	2.5	/experiments/knapen_AOT/AOT_stimuli/rescaled_final/1338_fw.mp4	0.0	97.64616894721985	
4	70.0936188697815	fix_post	2		12	2.0	2.5	/experiments/knapen_AOT/AOT_stimuli/rescaled_final/1338_fw.mp4	0.0	97.76274299621582	0.10001611709594727
5	70.19363498687744	fix_pre	0		120	3.0	2.5	/experiments/knapen_AOT/AOT_stimuli/rescaled_final/1744_rv.mp4	0.0	97.86275911331177	1.0001499652862549
5	71.1937849521637	movie	1		243	3.0	2.5	/experiments/knapen_AOT/AOT_stimuli/rescaled_final/1744_rv.mp4	0.0	98.86290907859802	2.4920289516448975
5	71.57788395881653	pulse	1	t		3.0	2.5	/experiments/knapen_AOT/AOT_stimuli/rescaled_final/1744_rv.mp4	0.0	99.24700808525085	
5	73.17761993408203	pulse	1	t		3.0	2.5	/experiments/knapen_AOT/AOT_stimuli/rescaled_final/1744_rv.mp4	0.0	100.84674406051636	
5	73.6858139038086	fix_post	2		12	3.0	2.5	/experiments/knapen_AOT/AOT_stimuli/rescaled_final/1744_rv.mp4	0.0	101.35493803024292	0.1000521183013916
6	73.78586602210999	fix_pre	0		120	4.0	2.5	/experiments/knapen_AOT/AOT_stimuli/rescaled_final/2080_fw.mp4	0.0	101.45499014854431	1.0001227855682373
6	74.77789402008057	pulse	0	t		4.0	2.5	/experiments/knapen_AOT/AOT_stimuli/rescaled_final/2080_fw.mp4	0.0	102.44701814651489	
6	74.78598880767822	movie	1		245	4.0	2.5	/experiments/knapen_AOT/AOT_stimuli/rescaled_final/2080_fw.mp4	0.0	102.45511293411255	2.5086960792541504
6	76.38230800628662	pulse	1	t		4.0	2.5	/experiments/knapen_AOT/AOT_stimuli/rescaled_final/2080_fw.mp4	0.0	104.05143213272095	
6	77.29468488693237	fix_post	2		12	4.0	2.5	/experiments/knapen_AOT/AOT_stimuli/rescaled_final/2080_fw.mp4	0.0	104.9638090133667	0.10006308555603027
7	77.3947479724884	fix_pre	0		120	5.0	2.5	blank	1.0	105.06387209892273	1.0001049041748047
7	77.97836899757385	pulse	0	t		5.0	2.5	blank	1.0	105.64749312400818	
7	78.39485287666321	movie	1		300	5.0	2.5	blank	1.0	106.06397700309753	2.500383138656616
7	79.57865381240845	pulse	1	t		5.0	2.5	blank	1.0	107.24777793884277	
7	80.89523601531982	fix_post	2		12	5.0	2.5	blank	1.0	108.56436014175415	0.10004496574401855
8	80.99528098106384	fix_pre	0		120	6.0	2.5	/experiments/knapen_AOT/AOT_stimuli/rescaled_final/1818_rv.mp4	0.0	108.66440510749817	1.0001749992370605
8	81.17881393432617	pulse	0	t		6.0	2.5	/experiments/knapen_AOT/AOT_stimuli/rescaled_final/1818_rv.mp4	0.0	108.8479380607605	
8	81.9954559803009	movie	1		243	6.0	2.5	/experiments/knapen_AOT/AOT_stimuli/rescaled_final/1818_rv.mp4	0.0	109.66458010673523	2.5003249645233154
8	82.7791600227356	pulse	1	t		6.0	2.5	/experiments/knapen_AOT/AOT_stimuli/rescaled_final/1818_rv.mp4	0.0	110.44828414916992	
8	84.37940788269043	pulse	1	t		6.0	2.5	/experiments/knapen_AOT/AOT_stimuli/rescaled_final/1818_rv.mp4	0.0	112.04853200912476	
8	84.49578094482422	fix_post	2		12	6.0	2.5	/experiments/knapen_AOT/AOT_stimuli/rescaled_final/1818_rv.mp4	0.0	112.16490507125854	0.1000220775604248
9	84.59580302238464	fix_pre	0		120	7.0	2.5	/experiments/knapen_AOT/AOT_stimuli/rescaled_final/0283_rv.mp4	0.0	112.26492714881897	1.0001778602600098
9	85.59598088264465	movie	1		243	7.0	2.5	/experiments/knapen_AOT/AOT_stimuli/rescaled_final/0283_rv.mp4	0.0	113.26510500907898	2.4920151233673096
9	85.98006296157837	pulse	1	t		7.0	2.5	/experiments/knapen_AOT/AOT_stimuli/rescaled_final/0283_rv.mp4	0.0	113.6491870880127	
9	87.57260584831238	pulse	1	t		7.0	2.5	/experiments/knapen_AOT/AOT_stimuli/rescaled_final/0283_rv.mp4	0.0	115.2417299747467	
9	88.08799600601196	fix_post	2		12	7.0	2.5	/experiments/knapen_AOT/AOT_stimuli/rescaled_final/0283_rv.mp4	0.0	115.75712013244629	0.09997391700744629
10	88.18796992301941	fix_pre	0		119	8.0	2.5	/experiments/knapen_AOT/AOT_stimuli/rescaled_final/1338_rv.mp4	0.0	115.85709404945374	0.9918279647827148
10	89.17168498039246	pulse	0	t		8.0	2.5	/experiments/knapen_AOT/AOT_stimuli/rescaled_final/1338_rv.mp4	0.0	116.84080910682678	
10	89.17979788780212	movie	1		244	8.0	2.5	/experiments/knapen_AOT/AOT_stimuli/rescaled_final/1338_rv.mp4	0.0	116.84892201423645	2.5087199211120605
10	90.77273201942444	pulse	1	t		8.0	2.5	/experiments/knapen_AOT/AOT_stimuli/rescaled_final/1338_rv.mp4	0.0	118.44185614585876	
10	91.68851780891418	fix_post	2		12	8.0	2.5	/experiments/knapen_AOT/AOT_stimuli/rescaled_final/1338_rv.mp4	0.0	119.35764193534851	0.0999910831451416
11	91.78850889205933	fix_pre	0		120	9.0	2.5	/experiments/knapen_AOT/AOT_stimuli/rescaled_final/1992_rv.mp4	0.0	119.45763301849365	1.0001640319824219
11	92.37213897705078	pulse	0	t		9.0	2.5	/experiments/knapen_AOT/AOT_stimuli/rescaled_final/1992_rv.mp4	0.0	120.04126310348511	
11	92.78867292404175	movie	1		245	9.0	2.5	/experiments/knapen_AOT/AOT_stimuli/rescaled_final/1992_rv.mp4	0.0	120.45779705047607	2.5003628730773926
11	93.97241687774658	pulse	1	t		9.0	2.5	/experiments/knapen_AOT/AOT_stimuli/rescaled_final/1992_rv.mp4	0.0	121.64154100418091	
11	95.28903579711914	fix_post	2		12	9.0	2.5	/experiments/knapen_AOT/AOT_stimuli/rescaled_final/1992_rv.mp4	0.0	122.95815992355347	0.10004305839538574
12	95.38907885551453	fix_pre	0		120	10.0	2.5	/experiments/knapen_AOT/AOT_stimuli/rescaled_final/0822_rv.mp4	0.0	123.05820298194885	1.000148057937622
12	95.57259893417358	pulse	0	t		10.0	2.5	/experiments/knapen_AOT/AOT_stimuli/rescaled_final/0822_rv.mp4	0.0	123.24172306060791	
12	96.38922691345215	movie	1		244	10.0	2.5	/experiments/knapen_AOT/AOT_stimuli/rescaled_final/0822_rv.mp4	0.0	124.05835103988647	2.500375986099243
12	97.17299485206604	pulse	1	t		10.0	2.5	/experiments/knapen_AOT/AOT_stimuli/rescaled_final/0822_rv.mp4	0.0	124.84211897850037	
12	98.77317595481873	pulse	1	t		10.0	2.5	/experiments/knapen_AOT/AOT_stimuli/rescaled_final/0822_rv.mp4	0.0	126.44230008125305	
12	98.88960289955139	fix_post	2		12	10.0	2.5	/experiments/knapen_AOT/AOT_stimuli/rescaled_final/0822_rv.mp4	0.0	126.55872702598572	0.100006103515625
13	98.98960900306702	fix_pre	0		120	11.0	2.5	/experiments/knapen_AOT/AOT_stimuli/rescaled_final/0196_fw.mp4	0.0	126.65873312950134	1.000128984451294
13	99.98973798751831	movie	1		243	11.0	2.5	/experiments/knapen_AOT/AOT_stimuli/rescaled_final/0196_fw.mp4	0.0	127.65886211395264	2.4920918941497803
13	100.37402296066284	pulse	1	t		11.0	2.5	/experiments/knapen_AOT/AOT_stimuli/rescaled_final/0196_fw.mp4	0.0	128.04314708709717	
13	101.97361588478088	pulse	1	t		11.0	2.5	/experiments/knapen_AOT/AOT_stimuli/rescaled_final/0196_fw.mp4	0.0	129.6427400112152	
13	102.48182988166809	fix_post	2		12	11.0	2.5	/experiments/knapen_AOT/AOT_stimuli/rescaled_final/0196_fw.mp4	0.0	130.15095400810242	0.09995913505554199
14	102.58178901672363	fix_pre	0		120	12.0	2.5	/experiments/knapen_AOT/AOT_stimuli/rescaled_final/2038_rv.mp4	0.0	130.25091314315796	1.0001769065856934
14	103.5739529132843	pulse	0	t		12.0	2.5	/experiments/knapen_AOT/AOT_stimuli/rescaled_final/2038_rv.mp4	0.0	131.24307703971863	
14	103.58196592330933	movie	1		248	12.0	2.5	/experiments/knapen_AOT/AOT_stimuli/rescaled_final/2038_rv.mp4	0.0	131.25109004974365	2.508768081665039
14	105.17518186569214	pulse	1	t		12.0	2.5	/experiments/knapen_AOT/AOT_stimuli/rescaled_final/2038_rv.mp4	0.0	132.84430599212646	
14	106.09073400497437	fix_post	2		9	12.0	2.5	/experiments/knapen_AOT/AOT_stimuli/rescaled_final/2038_rv.mp4	0.0	133.7598581314087	0.09999394416809082
15	106.19072794914246	fix_pre	0		120	13.0	2.5	blank	1.0	133.85985207557678	1.000126838684082
15	106.77429795265198	pulse	0	t		13.0	2.5	blank	1.0	134.4434220790863	
15	107.19085478782654	movie	1		300	13.0	2.5	blank	1.0	134.85997891426086	2.500361204147339
15	108.37450981140137	pulse	1	t		13.0	2.5	blank	1.0	136.0436339378357	
15	109.69121599197388	fix_post	2		12	13.0	2.5	blank	1.0	137.3603401184082	0.10001492500305176
16	109.79123091697693	fix_pre	0		120	14.0	2.5	/experiments/knapen_AOT/AOT_stimuli/rescaled_final/1959_fw.mp4	0.0	137.46035504341125	1.0001280307769775
16	109.9748969078064	pulse	0	t		14.0	2.5	/experiments/knapen_AOT/AOT_stimuli/rescaled_final/1959_fw.mp4	0.0	137.64402103424072	
16	110.7913589477539	movie	1		243	14.0	2.5	/experiments/knapen_AOT/AOT_stimuli/rescaled_final/1959_fw.mp4	0.0	138.46048307418823	2.5003750324249268
16	111.57514095306396	pulse	1	t		14.0	2.5	/experiments/knapen_AOT/AOT_stimuli/rescaled_final/1959_fw.mp4	0.0	139.2442650794983	
16	113.17524695396423	pulse	1	t		14.0	2.5	/experiments/knapen_AOT/AOT_stimuli/rescaled_final/1959_fw.mp4	0.0	140.84437108039856	
16	113.29173398017883	fix_post	2		12	14.0	2.5	/experiments/knapen_AOT/AOT_stimuli/rescaled_final/1959_fw.mp4	0.0	140.96085810661316	0.10003781318664551
17	113.39177179336548	fix_pre	0		120	15.0	2.5	/experiments/knapen_AOT/AOT_stimuli/rescaled_final/0910_rv.mp4	0.0	141.0608959197998	1.0001440048217773
17	114.39191579818726	movie	1		242	15.0	2.5	/experiments/knapen_AOT/AOT_stimuli/rescaled_final/0910_rv.mp4	0.0	142.06103992462158	2.4920501708984375
17	114.7760648727417	pulse	1	t		15.0	2.5	/experiments/knapen_AOT/AOT_stimuli/rescaled_final/0910_rv.mp4	0.0	142.44518899917603	
17	116.37567782402039	pulse	1	t		15.0	2.5	/experiments/knapen_AOT/AOT_stimuli/rescaled_final/0910_rv.mp4	0.0	144.0448019504547	
17	116.8839659690857	fix_post	2		12	15.0	2.5	/experiments/knapen_AOT/AOT_stimuli/rescaled_final/0910_rv.mp4	0.0	144.55309009552002	0.09999799728393555
18	116.98396396636963	fix_pre	0		120	16.0	2.5	/experiments/knapen_AOT/AOT_stimuli/rescaled_final/0518_rv.mp4	0.0	144.65308809280396	1.000143051147461
18	117.9760468006134	pulse	0	t		16.0	2.5	/experiments/knapen_AOT/AOT_stimuli/rescaled_final/0518_rv.mp4	0.0	145.64517092704773	
18	117.98410701751709	movie	1		245	16.0	2.5	/experiments/knapen_AOT/AOT_stimuli/rescaled_final/0518_rv.mp4	0.0	145.65323114395142	2.5087108612060547
18	119.58180379867554	pulse	1	t		16.0	2.5	/experiments/knapen_AOT/AOT_stimuli/rescaled_final/0518_rv.mp4	0.0	147.25092792510986	
18	120.49281787872314	fix_post	2		12	16.0	2.5	/experiments/knapen_AOT/AOT_stimuli/rescaled_final/0518_rv.mp4	0.0	148.16194200515747	0.1000220775604248
19	120.59283995628357	fix_pre	0		120	17.0	2.5	/experiments/knapen_AOT/AOT_stimuli/rescaled_final/0824_fw.mp4	0.0	148.2619640827179	1.0001530647277832
19	121.17639899253845	pulse	0	t		17.0	2.5	/experiments/knapen_AOT/AOT_stimuli/rescaled_final/0824_fw.mp4	0.0	148.84552311897278	
19	121.59299302101135	movie	1		245	17.0	2.5	/experiments/knapen_AOT/AOT_stimuli/rescaled_final/0824_fw.mp4	0.0	149.26211714744568	2.500356912612915
19	122.77685189247131	pulse	1	t		17.0	2.5	/experiments/knapen_AOT/AOT_stimuli/rescaled_final/0824_fw.mp4	0.0	150.44597601890564	
19	124.09334993362427	fix_post	2		12	17.0	2.5	/experiments/knapen_AOT/AOT_stimuli/rescaled_final/0824_fw.mp4	0.0	151.7624740600586	0.10000896453857422
20	124.19335889816284	fix_pre	0		120	18.0	2.5	/experiments/knapen_AOT/AOT_stimuli/rescaled_final/1650_rv.mp4	0.0	151.86248302459717	1.0001530647277832
20	124.37706780433655	pulse	0	t		18.0	2.5	/experiments/knapen_AOT/AOT_stimuli/rescaled_final/1650_rv.mp4	0.0	152.04619193077087	
20	125.19351196289062	movie	1		244	18.0	2.5	/experiments/knapen_AOT/AOT_stimuli/rescaled_final/1650_rv.mp4	0.0	152.86263608932495	2.5003929138183594
20	125.97724986076355	pulse	1	t		18.0	2.5	/experiments/knapen_AOT/AOT_stimuli/rescaled_final/1650_rv.mp4	0.0	153.64637398719788	
20	127.57736682891846	pulse	1	t		18.0	2.5	/experiments/knapen_AOT/AOT_stimuli/rescaled_final/1650_rv.mp4	0.0	155.24649095535278	
20	127.69390487670898	fix_post	2		12	18.0	2.5	/experiments/knapen_AOT/AOT_stimuli/rescaled_final/1650_rv.mp4	0.0	155.3630290031433	0.10001206398010254
21	127.79391694068909	fix_pre	0		120	19.0	2.5	blank	1.0	155.4630410671234	1.0001399517059326
21	128.79405689239502	movie	1		299	19.0	2.5	blank	1.0	156.46318101882935	2.4920639991760254
21	129.17771100997925	pulse	1	t		19.0	2.5	blank	1.0	156.84683513641357	
21	130.77795886993408	pulse	1	t		19.0	2.5	blank	1.0	158.4470829963684	
21	131.28612089157104	fix_post	2		12	19.0	2.5	blank	1.0	158.95524501800537	0.1000220775604248
22	131.38614296913147	fix_pre	0		120	20.0	2.5	/experiments/knapen_AOT/AOT_stimuli/rescaled_final/1057_fw.mp4	0.0	159.0552670955658	1.0001499652862549
22	132.37819695472717	pulse	0	t		20.0	2.5	/experiments/knapen_AOT/AOT_stimuli/rescaled_final/1057_fw.mp4	0.0	160.0473210811615	
22	132.38629293441772	movie	1		245	20.0	2.5	/experiments/knapen_AOT/AOT_stimuli/rescaled_final/1057_fw.mp4	0.0	160.05541706085205	2.5087358951568604
22	133.98244285583496	pulse	1	t		20.0	2.5	/experiments/knapen_AOT/AOT_stimuli/rescaled_final/1057_fw.mp4	0.0	161.6515669822693	
22	134.89502882957458	fix_post	2		12	20.0	2.5	/experiments/knapen_AOT/AOT_stimuli/rescaled_final/1057_fw.mp4	0.0	162.5641529560089	0.10005617141723633
23	134.99508500099182	fix_pre	0		120	21.0	2.5	/experiments/knapen_AOT/AOT_stimuli/rescaled_final/0222_rv.mp4	0.0	162.66420912742615	1.000058889389038
23	135.57859301567078	pulse	0	t		21.0	2.5	/experiments/knapen_AOT/AOT_stimuli/rescaled_final/0222_rv.mp4	0.0	163.2477171421051	
23	135.99514389038086	movie	1		245	21.0	2.5	/experiments/knapen_AOT/AOT_stimuli/rescaled_final/0222_rv.mp4	0.0	163.66426801681519	2.5003910064697266
23	137.1790018081665	pulse	1	t		21.0	2.5	/experiments/knapen_AOT/AOT_stimuli/rescaled_final/0222_rv.mp4	0.0	164.84812593460083	
23	138.4955348968506	fix_post	2		12	21.0	2.5	/experiments/knapen_AOT/AOT_stimuli/rescaled_final/0222_rv.mp4	0.0	166.1646590232849	0.10004091262817383
24	138.59557580947876	fix_pre	0		120	22.0	2.5	/experiments/knapen_AOT/AOT_stimuli/rescaled_final/1355_rv.mp4	0.0	166.2646999359131	1.0001091957092285
24	138.7716770172119	pulse	0	t		22.0	2.5	/experiments/knapen_AOT/AOT_stimuli/rescaled_final/1355_rv.mp4	0.0	166.44080114364624	
24	139.595685005188	movie	1		244	22.0	2.5	/experiments/knapen_AOT/AOT_stimuli/rescaled_final/1355_rv.mp4	0.0	167.26480913162231	2.5004749298095703
24	140.37195682525635	pulse	1	t		22.0	2.5	/experiments/knapen_AOT/AOT_stimuli/rescaled_final/1355_rv.mp4	0.0	168.04108095169067	
24	141.979642868042	pulse	1	t		22.0	2.5	/experiments/knapen_AOT/AOT_stimuli/rescaled_final/1355_rv.mp4	0.0	169.64876699447632	
24	142.09615993499756	fix_post	2		12	22.0	2.5	/experiments/knapen_AOT/AOT_stimuli/rescaled_final/1355_rv.mp4	0.0	169.76528406143188	0.0999000072479248
25	142.19605994224548	fix_pre	0		120	23.0	2.5	/experiments/knapen_AOT/AOT_stimuli/rescaled_final/0236_rv.mp4	0.0	169.8651840686798	1.0001449584960938
25	143.19620490074158	movie	1		244	23.0	2.5	/experiments/knapen_AOT/AOT_stimuli/rescaled_final/0236_rv.mp4	0.0	170.8653290271759	2.492043972015381
25	143.58024096488953	pulse	1	t		23.0	2.5	/experiments/knapen_AOT/AOT_stimuli/rescaled_final/0236_rv.mp4	0.0	171.24936509132385	
25	145.1718819141388	pulse	1	t		23.0	2.5	/experiments/knapen_AOT/AOT_stimuli/rescaled_final/0236_rv.mp4	0.0	172.84100604057312	
25	145.68824887275696	fix_post	2		12	23.0	2.5	/experiments/knapen_AOT/AOT_stimuli/rescaled_final/0236_rv.mp4	0.0	173.35737299919128	0.10001707077026367
26	145.78826594352722	fix_pre	0		119	24.0	2.5	/experiments/knapen_AOT/AOT_stimuli/rescaled_final/0603_fw.mp4	0.0	173.45739006996155	0.9918129444122314
26	146.7719008922577	pulse	0	t		24.0	2.5	/experiments/knapen_AOT/AOT_stimuli/rescaled_final/0603_fw.mp4	0.0	174.44102501869202	
26	146.78007888793945	movie	1		244	24.0	2.5	/experiments/knapen_AOT/AOT_stimuli/rescaled_final/0603_fw.mp4	0.0	174.44920301437378	2.508744955062866
26	148.37287783622742	pulse	1	t		24.0	2.5	/experiments/knapen_AOT/AOT_stimuli/rescaled_final/0603_fw.mp4	0.0	176.04200196266174	
26	149.28882384300232	fix_post	2		12	24.0	2.5	/experiments/knapen_AOT/AOT_stimuli/rescaled_final/0603_fw.mp4	0.0	176.95794796943665	0.09997916221618652
27	149.3888030052185	fix_pre	0		120	25.0	2.5	/experiments/knapen_AOT/AOT_stimuli/rescaled_final/1940_fw.mp4	0.0	177.05792713165283	1.0001609325408936
27	149.97238898277283	pulse	0	t		25.0	2.5	/experiments/knapen_AOT/AOT_stimuli/rescaled_final/1940_fw.mp4	0.0	177.64151310920715	
27	150.3889639377594	movie	1		244	25.0	2.5	/experiments/knapen_AOT/AOT_stimuli/rescaled_final/1940_fw.mp4	0.0	178.05808806419373	2.500347852706909
27	151.57274198532104	pulse	1	t		25.0	2.5	/experiments/knapen_AOT/AOT_stimuli/rescaled_final/1940_fw.mp4	0.0	179.24186611175537	
27	152.8893117904663	fix_post	2		12	25.0	2.5	/experiments/knapen_AOT/AOT_stimuli/rescaled_final/1940_fw.mp4	0.0	180.55843591690063	0.10001516342163086
28	152.98932695388794	fix_pre	0		120	26.0	2.5	/experiments/knapen_AOT/AOT_stimuli/rescaled_final/0081_rv.mp4	0.0	180.65845108032227	1.0001578330993652
28	153.1730408668518	pulse	0	t		26.0	2.5	/experiments/knapen_AOT/AOT_stimuli/rescaled_final/0081_rv.mp4	0.0	180.84216499328613	
28	153.9894847869873	movie	1		243	26.0	2.5	/experiments/knapen_AOT/AOT_stimuli/rescaled_final/0081_rv.mp4	0.0	181.65860891342163	2.500401020050049
28	154.77314591407776	pulse	1	t		26.0	2.5	/experiments/knapen_AOT/AOT_stimuli/rescaled_final/0081_rv.mp4	0.0	182.44227004051208	
28	156.37333393096924	pulse	1	t		26.0	2.5	/experiments/knapen_AOT/AOT_stimuli/rescaled_final/0081_rv.mp4	0.0	184.04245805740356	
28	156.48988580703735	fix_post	2		12	26.0	2.5	/experiments/knapen_AOT/AOT_stimuli/rescaled_final/0081_rv.mp4	0.0	184.15900993347168	0.09998703002929688
29	156.58987283706665	fix_pre	0		120	27.0	2.5	/experiments/knapen_AOT/AOT_stimuli/rescaled_final/0781_fw.mp4	0.0	184.25899696350098	1.0001599788665771
29	157.59003281593323	movie	1		244	27.0	2.5	/experiments/knapen_AOT/AOT_stimuli/rescaled_final/0781_fw.mp4	0.0	185.25915694236755	2.492025136947632
29	157.9741849899292	pulse	1	t		27.0	2.5	/experiments/knapen_AOT/AOT_stimuli/rescaled_final/0781_fw.mp4	0.0	185.64330911636353	
29	159.57383799552917	pulse	1	t		27.0	2.5	/experiments/knapen_AOT/AOT_stimuli/rescaled_final/0781_fw.mp4	0.0	187.2429621219635	
29	160.08205795288086	fix_post	2		12	27.0	2.5	/experiments/knapen_AOT/AOT_stimuli/rescaled_final/0781_fw.mp4	0.0	187.75118207931519	0.10005784034729004
30	160.18211579322815	fix_pre	0		120	28.0	2.5	blank	1.0	187.85123991966248	1.0001251697540283
30	161.17421197891235	pulse	0	t		28.0	2.5	blank	1.0	188.84333610534668	
30	161.18224096298218	movie	1		301	28.0	2.5	blank	1.0	188.8513650894165	2.508685827255249
30	162.77430701255798	pulse	1	t		28.0	2.5	blank	1.0	190.4434311389923	
30	163.69092679023743	fix_post	2		12	28.0	2.5	blank	1.0	191.36005091667175	0.09998917579650879
31	163.79091596603394	fix_pre	0		120	29.0	2.5	/experiments/knapen_AOT/AOT_stimuli/rescaled_final/1612_fw.mp4	0.0	191.46004009246826	1.0002169609069824
31	164.37459683418274	pulse	0	t		29.0	2.5	/experiments/knapen_AOT/AOT_stimuli/rescaled_final/1612_fw.mp4	0.0	192.04372096061707	
31	164.79113292694092	movie	1		242	29.0	2.5	/experiments/knapen_AOT/AOT_stimuli/rescaled_final/1612_fw.mp4	0.0	192.46025705337524	2.5003368854522705
31	165.97492289543152	pulse	1	t		29.0	2.5	/experiments/knapen_AOT/AOT_stimuli/rescaled_final/1612_fw.mp4	0.0	193.64404702186584	
31	167.2914698123932	fix_post	2		12	29.0	2.5	/experiments/knapen_AOT/AOT_stimuli/rescaled_final/1612_fw.mp4	0.0	194.96059393882751	0.10006403923034668
32	167.39153385162354	fix_pre	0		120	30.0	2.5	/experiments/knapen_AOT/AOT_stimuli/rescaled_final/0781_rv.mp4	0.0	195.06065797805786	1.0000910758972168
32	167.57512784004211	pulse	0	t		30.0	2.5	/experiments/knapen_AOT/AOT_stimuli/rescaled_final/0781_rv.mp4	0.0	195.24425196647644	
32	168.39162492752075	movie	1		245	30.0	2.5	/experiments/knapen_AOT/AOT_stimuli/rescaled_final/0781_rv.mp4	0.0	196.06074905395508	2.5003950595855713
32	169.1753008365631	pulse	1	t		30.0	2.5	/experiments/knapen_AOT/AOT_stimuli/rescaled_final/0781_rv.mp4	0.0	196.84442496299744	
32	170.7730839252472	pulse	1	t		30.0	2.5	/experiments/knapen_AOT/AOT_stimuli/rescaled_final/0781_rv.mp4	0.0	198.44220805168152	
32	170.89201998710632	fix_post	2		12	30.0	2.5	/experiments/knapen_AOT/AOT_stimuli/rescaled_final/0781_rv.mp4	0.0	198.56114411354065	0.10001587867736816
33	170.9920358657837	fix_pre	0		120	31.0	2.5	/experiments/knapen_AOT/AOT_stimuli/rescaled_final/1245_fw.mp4	0.0	198.66115999221802	1.0001270771026611
33	171.99216294288635	movie	1		242	31.0	2.5	/experiments/knapen_AOT/AOT_stimuli/rescaled_final/1245_fw.mp4	0.0	199.66128706932068	2.492039918899536
33	172.38033390045166	pulse	1	t		31.0	2.5	/experiments/knapen_AOT/AOT_stimuli/rescaled_final/1245_fw.mp4	0.0	200.049458026886	
33	173.97609686851501	pulse	1	t		31.0	2.5	/experiments/knapen_AOT/AOT_stimuli/rescaled_final/1245_fw.mp4	0.0	201.64522099494934	
33	174.4842028617859	fix_post	2		12	31.0	2.5	/experiments/knapen_AOT/AOT_stimuli/rescaled_final/1245_fw.mp4	0.0	202.15332698822021	0.10003399848937988
34	174.58423686027527	fix_pre	0		120	32.0	2.5	/experiments/knapen_AOT/AOT_stimuli/rescaled_final/0195_rv.mp4	0.0	202.2533609867096	1.0001370906829834
34	175.57627987861633	pulse	0	t		32.0	2.5	/experiments/knapen_AOT/AOT_stimuli/rescaled_final/0195_rv.mp4	0.0	203.24540400505066	
34	175.58437395095825	movie	1		245	32.0	2.5	/experiments/knapen_AOT/AOT_stimuli/rescaled_final/0195_rv.mp4	0.0	203.25349807739258	2.508741855621338
34	177.17868089675903	pulse	1	t		32.0	2.5	/experiments/knapen_AOT/AOT_stimuli/rescaled_final/0195_rv.mp4	0.0	204.84780502319336	
34	178.0931158065796	fix_post	2		12	32.0	2.5	/experiments/knapen_AOT/AOT_stimuli/rescaled_final/0195_rv.mp4	0.0	205.76223993301392	0.09999608993530273
35	178.1931118965149	fix_pre	0		120	33.0	2.5	blank	1.0	205.86223602294922	1.0001370906829834
35	178.77680683135986	pulse	0	t		33.0	2.5	blank	1.0	206.4459309577942	
35	179.19324898719788	movie	1		300	33.0	2.5	blank	1.0	206.8623731136322	2.500365972518921
35	180.3770568370819	pulse	1	t		33.0	2.5	blank	1.0	208.04618096351624	
35	181.6936149597168	fix_post	2		12	33.0	2.5	blank	1.0	209.36273908615112	0.10004591941833496
36	181.79366087913513	fix_pre	0		120	34.0	2.5	/experiments/knapen_AOT/AOT_stimuli/rescaled_final/0081_rv.mp4	0.0	209.46278500556946	1.0001280307769775
36	181.9773108959198	pulse	0	t		34.0	2.5	/experiments/knapen_AOT/AOT_stimuli/rescaled_final/0081_rv.mp4	0.0	209.64643502235413	
36	182.7937889099121	movie	1		243	34.0	2.5	/experiments/knapen_AOT/AOT_stimuli/rescaled_final/0081_rv.mp4	0.0	210.46291303634644	2.500370979309082
36	183.57740187644958	pulse	1	t		34.0	2.5	/experiments/knapen_AOT/AOT_stimuli/rescaled_final/0081_rv.mp4	0.0	211.2465260028839	
36	185.17763900756836	pulse	1	t		34.0	2.5	/experiments/knapen_AOT/AOT_stimuli/rescaled_final/0081_rv.mp4	0.0	212.84676313400269	
36	185.2941598892212	fix_post	2		12	34.0	2.5	/experiments/knapen_AOT/AOT_stimuli/rescaled_final/0081_rv.mp4	0.0	212.96328401565552	0.10002994537353516
37	185.39418983459473	fix_pre	0		120	35.0	2.5	/experiments/knapen_AOT/AOT_stimuli/rescaled_final/2125_rv.mp4	0.0	213.06331396102905	1.0001351833343506
37	186.39432501792908	movie	1		244	35.0	2.5	/experiments/knapen_AOT/AOT_stimuli/rescaled_final/2125_rv.mp4	0.0	214.0634491443634	2.492041826248169
37	186.7784128189087	pulse	1	t		35.0	2.5	/experiments/knapen_AOT/AOT_stimuli/rescaled_final/2125_rv.mp4	0.0	214.44753694534302	
37	188.37813591957092	pulse	1	t		35.0	2.5	/experiments/knapen_AOT/AOT_stimuli/rescaled_final/2125_rv.mp4	0.0	216.04726004600525	
37	188.88636684417725	fix_post	2		12	35.0	2.5	/experiments/knapen_AOT/AOT_stimuli/rescaled_final/2125_rv.mp4	0.0	216.55549097061157	0.09998917579650879
38	188.98635601997375	fix_pre	0		120	36.0	2.5	/experiments/knapen_AOT/AOT_stimuli/rescaled_final/0963_rv.mp4	0.0	216.65548014640808	1.000199794769287
38	189.97836899757385	pulse	0	t		36.0	2.5	/experiments/knapen_AOT/AOT_stimuli/rescaled_final/0963_rv.mp4	0.0	217.64749312400818	
38	189.98655581474304	movie	1		245	36.0	2.5	/experiments/knapen_AOT/AOT_stimuli/rescaled_final/0963_rv.mp4	0.0	217.65567994117737	2.508674144744873
38	191.5794358253479	pulse	1	t		36.0	2.5	/experiments/knapen_AOT/AOT_stimuli/rescaled_final/0963_rv.mp4	0.0	219.24855995178223	
38	192.49522995948792	fix_post	2		12	36.0	2.5	/experiments/knapen_AOT/AOT_stimuli/rescaled_final/0963_rv.mp4	0.0	220.16435408592224	0.10001397132873535
39	192.59524393081665	fix_pre	0		120	37.0	2.5	/experiments/knapen_AOT/AOT_stimuli/rescaled_final/1995_fw.mp4	0.0	220.26436805725098	1.0001590251922607
39	193.17137789726257	pulse	0	t		37.0	2.5	/experiments/knapen_AOT/AOT_stimuli/rescaled_final/1995_fw.mp4	0.0	220.8405020236969	
39	193.5954029560089	movie	1		246	37.0	2.5	/experiments/knapen_AOT/AOT_stimuli/rescaled_final/1995_fw.mp4	0.0	221.26452708244324	2.5004069805145264
39	194.7713108062744	pulse	1	t		37.0	2.5	/experiments/knapen_AOT/AOT_stimuli/rescaled_final/1995_fw.mp4	0.0	222.44043493270874	
39	196.09580993652344	fix_post	2		12	37.0	2.5	/experiments/knapen_AOT/AOT_stimuli/rescaled_final/1995_fw.mp4	0.0	223.76493406295776	0.1000359058380127
40	196.19584584236145	fix_pre	0		120	38.0	2.5	/experiments/knapen_AOT/AOT_stimuli/rescaled_final/1050_fw.mp4	0.0	223.86496996879578	1.0000710487365723
40	196.3717999458313	pulse	0	t		38.0	2.5	/experiments/knapen_AOT/AOT_stimuli/rescaled_final/1050_fw.mp4	0.0	224.04092407226562	
40	197.19591689109802	movie	1		243	38.0	2.5	/experiments/knapen_AOT/AOT_stimuli/rescaled_final/1050_fw.mp4	0.0	224.86504101753235	2.500391960144043
40	197.97151589393616	pulse	1	t		38.0	2.5	/experiments/knapen_AOT/AOT_stimuli/rescaled_final/1050_fw.mp4	0.0	225.64064002037048	
40	199.57144784927368	pulse	1	t		38.0	2.5	/experiments/knapen_AOT/AOT_stimuli/rescaled_final/1050_fw.mp4	0.0	227.240571975708	
40	199.69630885124207	fix_post	2		12	38.0	2.5	/experiments/knapen_AOT/AOT_stimuli/rescaled_final/1050_fw.mp4	0.0	227.3654329776764	0.10001897811889648
41	199.79632782936096	fix_pre	0		119	39.0	2.5	/experiments/knapen_AOT/AOT_stimuli/rescaled_final/1716_rv.mp4	0.0	227.4654519557953	0.9918031692504883
41	200.78813099861145	movie	1		243	39.0	2.5	/experiments/knapen_AOT/AOT_stimuli/rescaled_final/1716_rv.mp4	0.0	228.45725512504578	2.5004239082336426
41	201.1722469329834	pulse	1	t		39.0	2.5	/experiments/knapen_AOT/AOT_stimuli/rescaled_final/1716_rv.mp4	0.0	228.84137105941772	
41	202.77203392982483	pulse	1	t		39.0	2.5	/experiments/knapen_AOT/AOT_stimuli/rescaled_final/1716_rv.mp4	0.0	230.44115805625916	
41	203.2885549068451	fix_post	2		12	39.0	2.5	/experiments/knapen_AOT/AOT_stimuli/rescaled_final/1716_rv.mp4	0.0	230.95767903327942	0.09998607635498047
42	203.38854098320007	fix_pre	0		119	40.0	2.5	/experiments/knapen_AOT/AOT_stimuli/rescaled_final/1057_fw.mp4	0.0	231.0576651096344	0.9918179512023926
42	204.3722529411316	pulse	0	t		40.0	2.5	/experiments/knapen_AOT/AOT_stimuli/rescaled_final/1057_fw.mp4	0.0	232.04137706756592	
42	204.38035893440247	movie	1		244	40.0	2.5	/experiments/knapen_AOT/AOT_stimuli/rescaled_final/1057_fw.mp4	0.0	232.0494830608368	2.508734941482544
42	205.9736659526825	pulse	1	t		40.0	2.5	/experiments/knapen_AOT/AOT_stimuli/rescaled_final/1057_fw.mp4	0.0	233.64279007911682	
42	206.889093875885	fix_post	2		12	40.0	2.5	/experiments/knapen_AOT/AOT_stimuli/rescaled_final/1057_fw.mp4	0.0	234.55821800231934	0.09997797012329102
43	206.9890718460083	fix_pre	0		120	41.0	2.5	blank	1.0	234.65819597244263	1.00018310546875
43	207.57271194458008	pulse	0	t		41.0	2.5	blank	1.0	235.2418360710144	
43	207.98925495147705	movie	1		300	41.0	2.5	blank	1.0	235.65837907791138	2.5003578662872314
43	209.17289781570435	pulse	1	t		41.0	2.5	blank	1.0	236.84202194213867	
43	210.48961281776428	fix_post	2		12	41.0	2.5	blank	1.0	238.1587369441986	0.10001397132873535
44	210.58962678909302	fix_pre	0		120	42.0	2.5	/experiments/knapen_AOT/AOT_stimuli/rescaled_final/0033_fw.mp4	0.0	238.25875091552734	1.0001749992370605
44	210.77322602272034	pulse	0	t		42.0	2.5	/experiments/knapen_AOT/AOT_stimuli/rescaled_final/0033_fw.mp4	0.0	238.44235014915466	
44	211.58980178833008	movie	1		246	42.0	2.5	/experiments/knapen_AOT/AOT_stimuli/rescaled_final/0033_fw.mp4	0.0	239.2589259147644	2.50032114982605
44	212.3733630180359	pulse	1	t		42.0	2.5	/experiments/knapen_AOT/AOT_stimuli/rescaled_final/0033_fw.mp4	0.0	240.04248714447021	
44	213.97372579574585	pulse	1	t		42.0	2.5	/experiments/knapen_AOT/AOT_stimuli/rescaled_final/0033_fw.mp4	0.0	241.64284992218018	
44	214.09012293815613	fix_post	2		12	42.0	2.5	/experiments/knapen_AOT/AOT_stimuli/rescaled_final/0033_fw.mp4	0.0	241.75924706459045	0.10000395774841309
45	214.19012689590454	fix_pre	0		119	43.0	2.5	/experiments/knapen_AOT/AOT_stimuli/rescaled_final/1039_rv.mp4	0.0	241.85925102233887	0.9918279647827148
45	215.18195486068726	movie	1		244	43.0	2.5	/experiments/knapen_AOT/AOT_stimuli/rescaled_final/1039_rv.mp4	0.0	242.85107898712158	2.500399112701416
45	215.57404780387878	pulse	1	t		43.0	2.5	/experiments/knapen_AOT/AOT_stimuli/rescaled_final/1039_rv.mp4	0.0	243.2431719303131	
45	217.17413687705994	pulse	1	t		43.0	2.5	/experiments/knapen_AOT/AOT_stimuli/rescaled_final/1039_rv.mp4	0.0	244.84326100349426	
45	217.68235397338867	fix_post	2		12	43.0	2.5	/experiments/knapen_AOT/AOT_stimuli/rescaled_final/1039_rv.mp4	0.0	245.351478099823	0.10004591941833496
46	217.782399892807	fix_pre	0		120	44.0	2.5	/experiments/knapen_AOT/AOT_stimuli/rescaled_final/0105_fw.mp4	0.0	245.45152401924133	1.0001559257507324
46	218.7743799686432	pulse	0	t		44.0	2.5	/experiments/knapen_AOT/AOT_stimuli/rescaled_final/0105_fw.mp4	0.0	246.44350409507751	
46	218.78255581855774	movie	1		246	44.0	2.5	/experiments/knapen_AOT/AOT_stimuli/rescaled_final/0105_fw.mp4	0.0	246.45167994499207	2.508665084838867
46	220.37558579444885	pulse	1	t		44.0	2.5	/experiments/knapen_AOT/AOT_stimuli/rescaled_final/0105_fw.mp4	0.0	248.04470992088318	
46	221.2912209033966	fix_post	2		12	44.0	2.5	/experiments/knapen_AOT/AOT_stimuli/rescaled_final/0105_fw.mp4	0.0	248.96034502983093	0.09999608993530273
47	221.3912169933319	fix_pre	0		120	45.0	2.5	/experiments/knapen_AOT/AOT_stimuli/rescaled_final/1790_rv.mp4	0.0	249.06034111976624	1.0002028942108154
47	221.9748888015747	pulse	0	t		45.0	2.5	/experiments/knapen_AOT/AOT_stimuli/rescaled_final/1790_rv.mp4	0.0	249.64401292800903	
47	222.39141988754272	movie	1		244	45.0	2.5	/experiments/knapen_AOT/AOT_stimuli/rescaled_final/1790_rv.mp4	0.0	250.06054401397705	2.5003509521484375
47	223.57522892951965	pulse	1	t		45.0	2.5	/experiments/knapen_AOT/AOT_stimuli/rescaled_final/1790_rv.mp4	0.0	251.24435305595398	
47	224.89177083969116	fix_post	2		12	45.0	2.5	/experiments/knapen_AOT/AOT_stimuli/rescaled_final/1790_rv.mp4	0.0	252.5608949661255	0.09998416900634766
48	224.9917550086975	fix_pre	0		120	46.0	2.5	/experiments/knapen_AOT/AOT_stimuli/rescaled_final/1224_rv.mp4	0.0	252.66087913513184	1.0001678466796875
48	225.17533683776855	pulse	0	t		46.0	2.5	/experiments/knapen_AOT/AOT_stimuli/rescaled_final/1224_rv.mp4	0.0	252.84446096420288	
48	225.9919228553772	movie	1		242	46.0	2.5	/experiments/knapen_AOT/AOT_stimuli/rescaled_final/1224_rv.mp4	0.0	253.66104698181152	2.5003700256347656
48	226.77554988861084	pulse	1	t		46.0	2.5	/experiments/knapen_AOT/AOT_stimuli/rescaled_final/1224_rv.mp4	0.0	254.44467401504517	
48	228.376060962677	pulse	1	t		46.0	2.5	/experiments/knapen_AOT/AOT_stimuli/rescaled_final/1224_rv.mp4	0.0	256.0451850891113	
48	228.49229288101196	fix_post	2		12	46.0	2.5	/experiments/knapen_AOT/AOT_stimuli/rescaled_final/1224_rv.mp4	0.0	256.1614170074463	0.10000205039978027
49	228.59229493141174	fix_pre	0		119	47.0	2.5	/experiments/knapen_AOT/AOT_stimuli/rescaled_final/1507_fw.mp4	0.0	256.26141905784607	0.9918169975280762
49	229.58411192893982	movie	1		245	47.0	2.5	/experiments/knapen_AOT/AOT_stimuli/rescaled_final/1507_fw.mp4	0.0	257.25323605537415	2.500408887863159
49	229.97617387771606	pulse	1	t		47.0	2.5	/experiments/knapen_AOT/AOT_stimuli/rescaled_final/1507_fw.mp4	0.0	257.6452980041504	
49	231.57644891738892	pulse	1	t		47.0	2.5	/experiments/knapen_AOT/AOT_stimuli/rescaled_final/1507_fw.mp4	0.0	259.24557304382324	
49	232.08452081680298	fix_post	2		12	47.0	2.5	/experiments/knapen_AOT/AOT_stimuli/rescaled_final/1507_fw.mp4	0.0	259.7536449432373	0.09996819496154785
50	232.18448901176453	fix_pre	0		120	48.0	2.5	blank	1.0	259.85361313819885	1.0001559257507324
50	233.1765158176422	pulse	0	t		48.0	2.5	blank	1.0	260.84563994407654	
50	233.18464493751526	movie	1		301	48.0	2.5	blank	1.0	260.8537690639496	2.5087099075317383
50	234.77687883377075	pulse	1	t		48.0	2.5	blank	1.0	262.4460029602051	
50	235.693354845047	fix_post	2		12	48.0	2.5	blank	1.0	263.3624789714813	0.1000051498413086
51	235.7933599948883	fix_pre	0		120	49.0	2.5	/experiments/knapen_AOT/AOT_stimuli/rescaled_final/2027_fw.mp4	0.0	263.46248412132263	1.000173807144165
51	236.37699389457703	pulse	0	t		49.0	2.5	/experiments/knapen_AOT/AOT_stimuli/rescaled_final/2027_fw.mp4	0.0	264.04611802101135	
51	236.79353380203247	movie	1		244	49.0	2.5	/experiments/knapen_AOT/AOT_stimuli/rescaled_final/2027_fw.mp4	0.0	264.4626579284668	2.500349998474121
51	237.973219871521	pulse	1	t		49.0	2.5	/experiments/knapen_AOT/AOT_stimuli/rescaled_final/2027_fw.mp4	0.0	265.6423439979553	
51	239.2938838005066	fix_post	2		12	49.0	2.5	/experiments/knapen_AOT/AOT_stimuli/rescaled_final/2027_fw.mp4	0.0	266.9630079269409	0.10002303123474121
52	239.39390683174133	fix_pre	0		120	50.0	2.5	/experiments/knapen_AOT/AOT_stimuli/rescaled_final/0308_rv.mp4	0.0	267.06303095817566	1.0001740455627441
52	239.57744193077087	pulse	0	t		50.0	2.5	/experiments/knapen_AOT/AOT_stimuli/rescaled_final/0308_rv.mp4	0.0	267.2465660572052	
52	240.39408087730408	movie	1		244	50.0	2.5	/experiments/knapen_AOT/AOT_stimuli/rescaled_final/0308_rv.mp4	0.0	268.0632050037384	2.5003559589385986
52	241.1776888370514	pulse	1	t		50.0	2.5	/experiments/knapen_AOT/AOT_stimuli/rescaled_final/0308_rv.mp4	0.0	268.8468129634857	
52	242.7780158519745	pulse	1	t		50.0	2.5	/experiments/knapen_AOT/AOT_stimuli/rescaled_final/0308_rv.mp4	0.0	270.4471399784088	
52	242.89443683624268	fix_post	2		12	50.0	2.5	/experiments/knapen_AOT/AOT_stimuli/rescaled_final/0308_rv.mp4	0.0	270.563560962677	0.10001206398010254
53	242.99444890022278	fix_pre	0		120	51.0	2.5	/experiments/knapen_AOT/AOT_stimuli/rescaled_final/1867_fw.mp4	0.0	270.6635730266571	1.0001740455627441
53	243.99462294578552	movie	1		244	51.0	2.5	/experiments/knapen_AOT/AOT_stimuli/rescaled_final/1867_fw.mp4	0.0	271.66374707221985	2.4920289516448975
53	244.37879180908203	pulse	1	t		51.0	2.5	/experiments/knapen_AOT/AOT_stimuli/rescaled_final/1867_fw.mp4	0.0	272.04791593551636	
53	245.97838687896729	pulse	1	t		51.0	2.5	/experiments/knapen_AOT/AOT_stimuli/rescaled_final/1867_fw.mp4	0.0	273.6475110054016	
53	246.48665189743042	fix_post	2		12	51.0	2.5	/experiments/knapen_AOT/AOT_stimuli/rescaled_final/1867_fw.mp4	0.0	274.15577602386475	0.1000521183013916
54	246.5867040157318	fix_pre	0		120	52.0	2.5	/experiments/knapen_AOT/AOT_stimuli/rescaled_final/0353_fw.mp4	0.0	274.25582814216614	1.0000898838043213
54	247.57863879203796	pulse	0	t		52.0	2.5	/experiments/knapen_AOT/AOT_stimuli/rescaled_final/0353_fw.mp4	0.0	275.2477629184723	
54	247.58679389953613	movie	1		246	52.0	2.5	/experiments/knapen_AOT/AOT_stimuli/rescaled_final/0353_fw.mp4	0.0	275.25591802597046	2.5087239742279053
54	249.18318390846252	pulse	1	t		52.0	2.5	/experiments/knapen_AOT/AOT_stimuli/rescaled_final/0353_fw.mp4	0.0	276.85230803489685	
54	250.09551787376404	fix_post	2		12	52.0	2.5	/experiments/knapen_AOT/AOT_stimuli/rescaled_final/0353_fw.mp4	0.0	277.76464200019836	0.1000051498413086
55	250.19552302360535	fix_pre	0		120	53.0	2.5	/experiments/knapen_AOT/AOT_stimuli/rescaled_final/1095_rv.mp4	0.0	277.8646471500397	1.000175952911377
55	250.77921390533447	pulse	0	t		53.0	2.5	/experiments/knapen_AOT/AOT_stimuli/rescaled_final/1095_rv.mp4	0.0	278.4483380317688	
55	251.19569897651672	movie	1		245	53.0	2.5	/experiments/knapen_AOT/AOT_stimuli/rescaled_final/1095_rv.mp4	0.0	278.86482310295105	2.500432014465332
55	252.37947797775269	pulse	1	t		53.0	2.5	/experiments/knapen_AOT/AOT_stimuli/rescaled_final/1095_rv.mp4	0.0	280.048602104187	
55	253.69613099098206	fix_post	2		12	53.0	2.5	/experiments/knapen_AOT/AOT_stimuli/rescaled_final/1095_rv.mp4	0.0	281.3652551174164	0.09996390342712402
56	253.79609489440918	fix_pre	0		120	54.0	2.5	blank	1.0	281.4652190208435	1.0001089572906494
56	253.97215795516968	pulse	0	t		54.0	2.5	blank	1.0	281.641282081604	
56	254.79620385169983	movie	1		300	54.0	2.5	blank	1.0	282.46532797813416	2.5003740787506104
56	255.57226300239563	pulse	1	t		54.0	2.5	blank	1.0	283.24138712882996	
56	257.17267894744873	pulse	1	t		54.0	2.5	blank	1.0	284.84180307388306	
56	257.29657793045044	fix_post	2		12	54.0	2.5	blank	1.0	284.96570205688477	0.10003495216369629
57	257.39661288261414	fix_pre	0		120	55.0	2.5	/experiments/knapen_AOT/AOT_stimuli/rescaled_final/0495_rv.mp4	0.0	285.06573700904846	1.00018310546875
57	258.3967959880829	movie	1		244	55.0	2.5	/experiments/knapen_AOT/AOT_stimuli/rescaled_final/0495_rv.mp4	0.0	286.0659201145172	2.492003917694092
57	258.7721529006958	pulse	1	t		55.0	2.5	/experiments/knapen_AOT/AOT_stimuli/rescaled_final/0495_rv.mp4	0.0	286.4412770271301	
57	260.3722698688507	pulse	1	t		55.0	2.5	/experiments/knapen_AOT/AOT_stimuli/rescaled_final/0495_rv.mp4	0.0	288.04139399528503	
57	260.888799905777	fix_post	2		12	55.0	2.5	/experiments/knapen_AOT/AOT_stimuli/rescaled_final/0495_rv.mp4	0.0	288.5579240322113	0.09999203681945801
58	260.98879194259644	fix_pre	0		119	56.0	2.5	/experiments/knapen_AOT/AOT_stimuli/rescaled_final/1710_rv.mp4	0.0	288.65791606903076	0.9918370246887207
58	261.97241592407227	pulse	0	t		56.0	2.5	/experiments/knapen_AOT/AOT_stimuli/rescaled_final/1710_rv.mp4	0.0	289.6415400505066	
58	261.98062896728516	movie	1		246	56.0	2.5	/experiments/knapen_AOT/AOT_stimuli/rescaled_final/1710_rv.mp4	0.0	289.6497530937195	2.508702039718628
58	263.57348585128784	pulse	1	t		56.0	2.5	/experiments/knapen_AOT/AOT_stimuli/rescaled_final/1710_rv.mp4	0.0	291.24260997772217	
58	264.4893310070038	fix_post	2		12	56.0	2.5	/experiments/knapen_AOT/AOT_stimuli/rescaled_final/1710_rv.mp4	0.0	292.1584551334381	0.10001587867736816
59	264.58934688568115	fix_pre	0		120	57.0	2.5	/experiments/knapen_AOT/AOT_stimuli/rescaled_final/2067_fw.mp4	0.0	292.2584710121155	1.0001499652862549
59	265.1729779243469	pulse	0	t		57.0	2.5	/experiments/knapen_AOT/AOT_stimuli/rescaled_final/2067_fw.mp4	0.0	292.84210205078125	
59	265.5894968509674	movie	1		245	57.0	2.5	/experiments/knapen_AOT/AOT_stimuli/rescaled_final/2067_fw.mp4	0.0	293.25862097740173	2.5003559589385986
59	266.77329182624817	pulse	1	t		57.0	2.5	/experiments/knapen_AOT/AOT_stimuli/rescaled_final/2067_fw.mp4	0.0	294.4424159526825	
59	268.089852809906	fix_post	2		12	57.0	2.5	/experiments/knapen_AOT/AOT_stimuli/rescaled_final/2067_fw.mp4	0.0	295.75897693634033	0.10001897811889648
60	268.1898717880249	fix_pre	0		120	58.0	2.5	/experiments/knapen_AOT/AOT_stimuli/rescaled_final/0541_rv.mp4	0.0	295.85899591445923	1.000197172164917
60	268.37338185310364	pulse	0	t		58.0	2.5	/experiments/knapen_AOT/AOT_stimuli/rescaled_final/0541_rv.mp4	0.0	296.04250597953796	
60	269.1900689601898	movie	1		246	58.0	2.5	/experiments/knapen_AOT/AOT_stimuli/rescaled_final/0541_rv.mp4	0.0	296.85919308662415	2.500330924987793
60	269.9736759662628	pulse	1	t		58.0	2.5	/experiments/knapen_AOT/AOT_stimuli/rescaled_final/0541_rv.mp4	0.0	297.64280009269714	
60	271.5739858150482	pulse	1	t		58.0	2.5	/experiments/knapen_AOT/AOT_stimuli/rescaled_final/0541_rv.mp4	0.0	299.24310994148254	
60	271.6903998851776	fix_post	2		12	58.0	2.5	/experiments/knapen_AOT/AOT_stimuli/rescaled_final/0541_rv.mp4	0.0	299.35952401161194	0.1000220775604248
61	271.79042196273804	fix_pre	0		120	59.0	2.5	/experiments/knapen_AOT/AOT_stimuli/rescaled_final/0495_rv.mp4	0.0	299.45954608917236	1.0001490116119385
61	272.79057097435	movie	1		244	59.0	2.5	/experiments/knapen_AOT/AOT_stimuli/rescaled_final/0495_rv.mp4	0.0	300.4596951007843	2.492043972015381
61	273.17493081092834	pulse	1	t		59.0	2.5	/experiments/knapen_AOT/AOT_stimuli/rescaled_final/0495_rv.mp4	0.0	300.84405493736267	
61	274.7743589878082	pulse	1	t		59.0	2.5	/experiments/knapen_AOT/AOT_stimuli/rescaled_final/0495_rv.mp4	0.0	302.44348311424255	
61	275.28261494636536	fix_post	2		12	59.0	2.5	/experiments/knapen_AOT/AOT_stimuli/rescaled_final/0495_rv.mp4	0.0	302.9517390727997	0.10000896453857422
62	275.38262391090393	fix_pre	0		120	60.0	2.5	/experiments/knapen_AOT/AOT_stimuli/rescaled_final/0324_rv.mp4	0.0	303.05174803733826	1.000135898590088
62	276.37463998794556	pulse	0	t		60.0	2.5	/experiments/knapen_AOT/AOT_stimuli/rescaled_final/0324_rv.mp4	0.0	304.0437641143799	
62	276.382759809494	movie	1		245	60.0	2.5	/experiments/knapen_AOT/AOT_stimuli/rescaled_final/0324_rv.mp4	0.0	304.05188393592834	2.5087711811065674
62	277.97542691230774	pulse	1	t		60.0	2.5	/experiments/knapen_AOT/AOT_stimuli/rescaled_final/0324_rv.mp4	0.0	305.64455103874207	
62	278.8915309906006	fix_post	2		12	60.0	2.5	/experiments/knapen_AOT/AOT_stimuli/rescaled_final/0324_rv.mp4	0.0	306.5606551170349	0.09996485710144043
63	278.991495847702	fix_pre	0		120	61.0	2.5	blank	1.0	306.66061997413635	1.0001471042633057
63	279.57513785362244	pulse	0	t		61.0	2.5	blank	1.0	307.24426198005676	
63	279.99164295196533	movie	1		300	61.0	2.5	blank	1.0	307.66076707839966	2.5004189014434814
63	281.1753079891205	pulse	1	t		61.0	2.5	blank	1.0	308.8444321155548	
63	282.4920618534088	fix_post	2		12	61.0	2.5	blank	1.0	310.16118597984314	0.0999901294708252
64	282.59205198287964	fix_pre	0		120	62.0	2.5	/experiments/knapen_AOT/AOT_stimuli/rescaled_final/1634_rv.mp4	0.0	310.26117610931396	1.0001230239868164
64	282.7756359577179	pulse	0	t		62.0	2.5	/experiments/knapen_AOT/AOT_stimuli/rescaled_final/1634_rv.mp4	0.0	310.4447600841522	
64	283.59217500686646	movie	1		246	62.0	2.5	/experiments/knapen_AOT/AOT_stimuli/rescaled_final/1634_rv.mp4	0.0	311.2612991333008	2.5003697872161865
64	284.37596797943115	pulse	1	t		62.0	2.5	/experiments/knapen_AOT/AOT_stimuli/rescaled_final/1634_rv.mp4	0.0	312.0450921058655	
64	285.97618985176086	pulse	1	t		62.0	2.5	/experiments/knapen_AOT/AOT_stimuli/rescaled_final/1634_rv.mp4	0.0	313.6453139781952	
64	286.09254479408264	fix_post	2		12	62.0	2.5	/experiments/knapen_AOT/AOT_stimuli/rescaled_final/1634_rv.mp4	0.0	313.76166892051697	0.10000801086425781
65	286.1925528049469	fix_pre	0		117	63.0	2.5	/experiments/knapen_AOT/AOT_stimuli/rescaled_final/1856_fw.mp4	0.0	313.8616769313812	1.000169038772583
65	287.1927218437195	movie	1		242	63.0	2.5	/experiments/knapen_AOT/AOT_stimuli/rescaled_final/1856_fw.mp4	0.0	314.8618459701538	2.4920551776885986
65	287.58069801330566	pulse	1	t		63.0	2.5	/experiments/knapen_AOT/AOT_stimuli/rescaled_final/1856_fw.mp4	0.0	315.24982213974	
65	289.1765179634094	pulse	1	t		63.0	2.5	/experiments/knapen_AOT/AOT_stimuli/rescaled_final/1856_fw.mp4	0.0	316.84564208984375	
65	289.6847770214081	fix_post	2		12	63.0	2.5	/experiments/knapen_AOT/AOT_stimuli/rescaled_final/1856_fw.mp4	0.0	317.3539011478424	0.09997797012329102
66	289.7847549915314	fix_pre	0		120	64.0	2.5	/experiments/knapen_AOT/AOT_stimuli/rescaled_final/1190_rv.mp4	0.0	317.4538791179657	1.0002357959747314
66	290.77685594558716	pulse	0	t		64.0	2.5	/experiments/knapen_AOT/AOT_stimuli/rescaled_final/1190_rv.mp4	0.0	318.4459800720215	
66	290.7849907875061	movie	1		245	64.0	2.5	/experiments/knapen_AOT/AOT_stimuli/rescaled_final/1190_rv.mp4	0.0	318.45411491394043	2.5086960792541504
66	292.3778419494629	pulse	1	t		64.0	2.5	/experiments/knapen_AOT/AOT_stimuli/rescaled_final/1190_rv.mp4	0.0	320.0469660758972	
66	293.29368686676025	fix_post	2		12	64.0	2.5	/experiments/knapen_AOT/AOT_stimuli/rescaled_final/1190_rv.mp4	0.0	320.9628109931946	0.09995007514953613
67	293.3936369419098	fix_pre	0		120	65.0	2.5	/experiments/knapen_AOT/AOT_stimuli/rescaled_final/2135_rv.mp4	0.0	321.0627610683441	1.000169038772583
67	293.9772238731384	pulse	0	t		65.0	2.5	/experiments/knapen_AOT/AOT_stimuli/rescaled_final/2135_rv.mp4	0.0	321.64634799957275	
67	294.3938059806824	movie	1		245	65.0	2.5	/experiments/knapen_AOT/AOT_stimuli/rescaled_final/2135_rv.mp4	0.0	322.0629301071167	2.500358819961548
67	295.5775589942932	pulse	1	t		65.0	2.5	/experiments/knapen_AOT/AOT_stimuli/rescaled_final/2135_rv.mp4	0.0	323.24668312072754	
67	296.8941648006439	fix_post	2		12	65.0	2.5	/experiments/knapen_AOT/AOT_stimuli/rescaled_final/2135_rv.mp4	0.0	324.56328892707825	0.1000070571899414
68	296.99417185783386	fix_pre	0		120	66.0	2.5	/experiments/knapen_AOT/AOT_stimuli/rescaled_final/0710_fw.mp4	0.0	324.6632959842682	1.0001599788665771
68	297.17784881591797	pulse	0	t		66.0	2.5	/experiments/knapen_AOT/AOT_stimuli/rescaled_final/0710_fw.mp4	0.0	324.8469729423523	
68	297.99433183670044	movie	1		244	66.0	2.5	/experiments/knapen_AOT/AOT_stimuli/rescaled_final/0710_fw.mp4	0.0	325.66345596313477	2.500365972518921
68	298.7781298160553	pulse	1	t		66.0	2.5	/experiments/knapen_AOT/AOT_stimuli/rescaled_final/0710_fw.mp4	0.0	326.4472539424896	
68	300.37842893600464	pulse	1	t		66.0	2.5	/experiments/knapen_AOT/AOT_stimuli/rescaled_final/0710_fw.mp4	0.0	328.04755306243896	
68	300.49469780921936	fix_post	2		12	66.0	2.5	/experiments/knapen_AOT/AOT_stimuli/rescaled_final/0710_fw.mp4	0.0	328.1638219356537	0.10001611709594727
69	300.5947139263153	fix_pre	0		120	67.0	2.5	/experiments/knapen_AOT/AOT_stimuli/rescaled_final/2014_rv.mp4	0.0	328.26383805274963	1.0002179145812988
69	301.5949318408966	movie	1		246	67.0	2.5	/experiments/knapen_AOT/AOT_stimuli/rescaled_final/2014_rv.mp4	0.0	329.26405596733093	2.492002010345459
69	301.9790108203888	pulse	1	t		67.0	2.5	/experiments/knapen_AOT/AOT_stimuli/rescaled_final/2014_rv.mp4	0.0	329.6481349468231	
69	303.5788369178772	pulse	1	t		67.0	2.5	/experiments/knapen_AOT/AOT_stimuli/rescaled_final/2014_rv.mp4	0.0	331.2479610443115	
69	304.08693385124207	fix_post	2		12	67.0	2.5	/experiments/knapen_AOT/AOT_stimuli/rescaled_final/2014_rv.mp4	0.0	331.7560579776764	0.09998297691345215
70	304.1869168281555	fix_pre	0		120	68.0	2.5	/experiments/knapen_AOT/AOT_stimuli/rescaled_final/0352_rv.mp4	0.0	331.85604095458984	1.0001850128173828
70	305.1715598106384	pulse	0	t		68.0	2.5	/experiments/knapen_AOT/AOT_stimuli/rescaled_final/0352_rv.mp4	0.0	332.84068393707275	
70	305.1871018409729	movie	1		245	68.0	2.5	/experiments/knapen_AOT/AOT_stimuli/rescaled_final/0352_rv.mp4	0.0	332.8562259674072	2.5086829662323
70	306.7798659801483	pulse	1	t		68.0	2.5	/experiments/knapen_AOT/AOT_stimuli/rescaled_final/0352_rv.mp4	0.0	334.44899010658264	
70	307.6957848072052	fix_post	2		12	68.0	2.5	/experiments/knapen_AOT/AOT_stimuli/rescaled_final/0352_rv.mp4	0.0	335.3649089336395	0.10001015663146973
71	307.79579496383667	fix_pre	0		120	69.0	2.5	blank	1.0	335.464919090271	1.000175952911377
71	308.3718719482422	pulse	0	t		69.0	2.5	blank	1.0	336.0409960746765	
71	308.79597091674805	movie	1		300	69.0	2.5	blank	1.0	336.4650950431824	2.500351905822754
71	309.9721028804779	pulse	1	t		69.0	2.5	blank	1.0	337.64122700691223	
71	311.2963228225708	fix_post	2		12	69.0	2.5	blank	1.0	338.9654469490051	0.10002708435058594
72	311.3963499069214	fix_pre	0		120	70.0	2.5	/experiments/knapen_AOT/AOT_stimuli/rescaled_final/1558_fw.mp4	0.0	339.0654740333557	1.0001749992370605
72	311.5716459751129	pulse	0	t		70.0	2.5	/experiments/knapen_AOT/AOT_stimuli/rescaled_final/1558_fw.mp4	0.0	339.24077010154724	
72	312.39652490615845	movie	1		245	70.0	2.5	/experiments/knapen_AOT/AOT_stimuli/rescaled_final/1558_fw.mp4	0.0	340.0656490325928	2.5003230571746826
72	313.17178201675415	pulse	1	t		70.0	2.5	/experiments/knapen_AOT/AOT_stimuli/rescaled_final/1558_fw.mp4	0.0	340.8409061431885	
72	314.7720248699188	pulse	1	t		70.0	2.5	/experiments/knapen_AOT/AOT_stimuli/rescaled_final/1558_fw.mp4	0.0	342.44114899635315	
72	314.89684796333313	fix_post	2		12	70.0	2.5	/experiments/knapen_AOT/AOT_stimuli/rescaled_final/1558_fw.mp4	0.0	342.56597208976746	0.10001802444458008
73	314.9968659877777	fix_pre	0		119	71.0	2.5	/experiments/knapen_AOT/AOT_stimuli/rescaled_final/2076_rv.mp4	0.0	342.66599011421204	0.9918088912963867
73	315.9886748790741	movie	1		245	71.0	2.5	/experiments/knapen_AOT/AOT_stimuli/rescaled_final/2076_rv.mp4	0.0	343.6577990055084	2.50040602684021
73	316.37364387512207	pulse	1	t		71.0	2.5	/experiments/knapen_AOT/AOT_stimuli/rescaled_final/2076_rv.mp4	0.0	344.0427680015564	
73	317.97251892089844	pulse	1	t		71.0	2.5	/experiments/knapen_AOT/AOT_stimuli/rescaled_final/2076_rv.mp4	0.0	345.64164304733276	
73	318.4890809059143	fix_post	2		12	71.0	2.5	/experiments/knapen_AOT/AOT_stimuli/rescaled_final/2076_rv.mp4	0.0	346.15820503234863	0.09999394416809082
74	318.5890748500824	fix_pre	0		119	72.0	2.5	/experiments/knapen_AOT/AOT_stimuli/rescaled_final/1566_fw.mp4	0.0	346.2581989765167	0.9918439388275146
74	319.57281279563904	pulse	0	t		72.0	2.5	/experiments/knapen_AOT/AOT_stimuli/rescaled_final/1566_fw.mp4	0.0	347.24193692207336	
74	319.5809187889099	movie	1		245	72.0	2.5	/experiments/knapen_AOT/AOT_stimuli/rescaled_final/1566_fw.mp4	0.0	347.25004291534424	2.508693218231201
74	321.1736710071564	pulse	1	t		72.0	2.5	/experiments/knapen_AOT/AOT_stimuli/rescaled_final/1566_fw.mp4	0.0	348.8427951335907	
74	322.0896120071411	fix_post	2		12	72.0	2.5	/experiments/knapen_AOT/AOT_stimuli/rescaled_final/1566_fw.mp4	0.0	349.75873613357544	0.10001397132873535
75	322.18962597846985	fix_pre	0		120	73.0	2.5	/experiments/knapen_AOT/AOT_stimuli/rescaled_final/1104_rv.mp4	0.0	349.8587501049042	1.000133991241455
75	322.77322793006897	pulse	0	t		73.0	2.5	/experiments/knapen_AOT/AOT_stimuli/rescaled_final/1104_rv.mp4	0.0	350.4423520565033	
75	323.1897599697113	movie	1		244	73.0	2.5	/experiments/knapen_AOT/AOT_stimuli/rescaled_final/1104_rv.mp4	0.0	350.85888409614563	2.5004098415374756
75	324.3735349178314	pulse	1	t		73.0	2.5	/experiments/knapen_AOT/AOT_stimuli/rescaled_final/1104_rv.mp4	0.0	352.04265904426575	
75	325.6901698112488	fix_post	2		12	73.0	2.5	/experiments/knapen_AOT/AOT_stimuli/rescaled_final/1104_rv.mp4	0.0	353.3592939376831	0.09997701644897461
76	325.79014682769775	fix_pre	0		120	74.0	2.5	/experiments/knapen_AOT/AOT_stimuli/rescaled_final/0541_fw.mp4	0.0	353.4592709541321	1.0001771450042725
76	325.97371101379395	pulse	0	t		74.0	2.5	/experiments/knapen_AOT/AOT_stimuli/rescaled_final/0541_fw.mp4	0.0	353.64283514022827	
76	326.790323972702	movie	1		246	74.0	2.5	/experiments/knapen_AOT/AOT_stimuli/rescaled_final/0541_fw.mp4	0.0	354.45944809913635	2.5003509521484375
76	327.57405185699463	pulse	1	t		74.0	2.5	/experiments/knapen_AOT/AOT_stimuli/rescaled_final/0541_fw.mp4	0.0	355.24317598342896	
76	329.1743619441986	pulse	1	t		74.0	2.5	/experiments/knapen_AOT/AOT_stimuli/rescaled_final/0541_fw.mp4	0.0	356.84348607063293	
76	329.29067492485046	fix_post	2		12	74.0	2.5	/experiments/knapen_AOT/AOT_stimuli/rescaled_final/0541_fw.mp4	0.0	356.9597990512848	0.1000370979309082
77	329.3907120227814	fix_pre	0		120	75.0	2.5	/experiments/knapen_AOT/AOT_stimuli/rescaled_final/1959_rv.mp4	0.0	357.0598361492157	1.0001459121704102
77	330.3908579349518	movie	1		242	75.0	2.5	/experiments/knapen_AOT/AOT_stimuli/rescaled_final/1959_rv.mp4	0.0	358.0599820613861	2.49200701713562
77	330.77509784698486	pulse	1	t		75.0	2.5	/experiments/knapen_AOT/AOT_stimuli/rescaled_final/1959_rv.mp4	0.0	358.4442219734192	
77	332.3747057914734	pulse	1	t		75.0	2.5	/experiments/knapen_AOT/AOT_stimuli/rescaled_final/1959_rv.mp4	0.0	360.0438299179077	
77	332.8828649520874	fix_post	2		12	75.0	2.5	/experiments/knapen_AOT/AOT_stimuli/rescaled_final/1959_rv.mp4	0.0	360.55198907852173	0.10003805160522461
78	332.9829030036926	fix_pre	0		120	76.0	2.5	/experiments/knapen_AOT/AOT_stimuli/rescaled_final/1949_rv.mp4	0.0	360.65202713012695	1.0001778602600098
78	333.9750180244446	pulse	0	t		76.0	2.5	/experiments/knapen_AOT/AOT_stimuli/rescaled_final/1949_rv.mp4	0.0	361.6441421508789	
78	333.98308086395264	movie	1		246	76.0	2.5	/experiments/knapen_AOT/AOT_stimuli/rescaled_final/1949_rv.mp4	0.0	361.65220499038696	2.5087080001831055
78	335.57534193992615	pulse	1	t		76.0	2.5	/experiments/knapen_AOT/AOT_stimuli/rescaled_final/1949_rv.mp4	0.0	363.2444660663605	
78	336.49178886413574	fix_post	2		12	76.0	2.5	/experiments/knapen_AOT/AOT_stimuli/rescaled_final/1949_rv.mp4	0.0	364.16091299057007	0.10002899169921875
79	336.59181785583496	fix_pre	0		120	77.0	2.5	blank	1.0	364.2609419822693	1.0001139640808105
79	337.1754038333893	pulse	0	t		77.0	2.5	blank	1.0	364.8445279598236	
79	337.59193181991577	movie	1		300	77.0	2.5	blank	1.0	365.2610559463501	2.500365972518921
79	338.7756199836731	pulse	1	t		77.0	2.5	blank	1.0	366.4447441101074	
79	340.0922977924347	fix_post	2		12	77.0	2.5	blank	1.0	367.761421918869	0.10004019737243652
80	340.19233798980713	fix_pre	0		120	78.0	2.5	/experiments/knapen_AOT/AOT_stimuli/rescaled_final/1531_rv.mp4	0.0	367.86146211624146	1.000114917755127
80	340.3759570121765	pulse	0	t		78.0	2.5	/experiments/knapen_AOT/AOT_stimuli/rescaled_final/1531_rv.mp4	0.0	368.04508113861084	
80	341.19245290756226	movie	1		245	78.0	2.5	/experiments/knapen_AOT/AOT_stimuli/rescaled_final/1531_rv.mp4	0.0	368.8615770339966	2.5003550052642822
80	341.9761869907379	pulse	1	t		78.0	2.5	/experiments/knapen_AOT/AOT_stimuli/rescaled_final/1531_rv.mp4	0.0	369.64531111717224	
80	343.57423400878906	pulse	1	t		78.0	2.5	/experiments/knapen_AOT/AOT_stimuli/rescaled_final/1531_rv.mp4	0.0	371.2433581352234	
80	343.69280791282654	fix_post	2		12	78.0	2.5	/experiments/knapen_AOT/AOT_stimuli/rescaled_final/1531_rv.mp4	0.0	371.36193203926086	0.10006999969482422
81	343.79287791252136	fix_pre	0		120	79.0	2.5	/experiments/knapen_AOT/AOT_stimuli/rescaled_final/0375_fw.mp4	0.0	371.4620020389557	1.0001220703125
81	344.79299998283386	movie	1		240	79.0	2.5	/experiments/knapen_AOT/AOT_stimuli/rescaled_final/0375_fw.mp4	0.0	372.4621241092682	2.4920220375061035
81	345.1775507926941	pulse	1	t		79.0	2.5	/experiments/knapen_AOT/AOT_stimuli/rescaled_final/0375_fw.mp4	0.0	372.8466749191284	
81	346.77688694000244	pulse	1	t		79.0	2.5	/experiments/knapen_AOT/AOT_stimuli/rescaled_final/0375_fw.mp4	0.0	374.44601106643677	
81	347.28502202033997	fix_post	2		12	79.0	2.5	/experiments/knapen_AOT/AOT_stimuli/rescaled_final/0375_fw.mp4	0.0	374.9541461467743	0.1000368595123291
82	347.3850588798523	fix_pre	0		120	80.0	2.5	/experiments/knapen_AOT/AOT_stimuli/rescaled_final/1057_rv.mp4	0.0	375.0541830062866	1.0001320838928223
82	348.37710881233215	pulse	0	t		80.0	2.5	/experiments/knapen_AOT/AOT_stimuli/rescaled_final/1057_rv.mp4	0.0	376.0462329387665	
82	348.3851909637451	movie	1		245	80.0	2.5	/experiments/knapen_AOT/AOT_stimuli/rescaled_final/1057_rv.mp4	0.0	376.05431509017944	2.5086829662323
82	349.9819300174713	pulse	1	t		80.0	2.5	/experiments/knapen_AOT/AOT_stimuli/rescaled_final/1057_rv.mp4	0.0	377.65105414390564	
82	350.8938739299774	fix_post	2		12	80.0	2.5	/experiments/knapen_AOT/AOT_stimuli/rescaled_final/1057_rv.mp4	0.0	378.56299805641174	0.10004997253417969
83	350.9939239025116	fix_pre	0		120	81.0	2.5	/experiments/knapen_AOT/AOT_stimuli/rescaled_final/0353_rv.mp4	0.0	378.6630480289459	1.0001599788665771
83	351.57761693000793	pulse	0	t		81.0	2.5	/experiments/knapen_AOT/AOT_stimuli/rescaled_final/0353_rv.mp4	0.0	379.24674105644226	
83	351.9940838813782	movie	1		245	81.0	2.5	/experiments/knapen_AOT/AOT_stimuli/rescaled_final/0353_rv.mp4	0.0	379.6632080078125	2.500343084335327
83	353.17309284210205	pulse	1	t		81.0	2.5	/experiments/knapen_AOT/AOT_stimuli/rescaled_final/0353_rv.mp4	0.0	380.8422169685364	
83	354.4944269657135	fix_post	2		12	81.0	2.5	/experiments/knapen_AOT/AOT_stimuli/rescaled_final/0353_rv.mp4	0.0	382.1635510921478	0.10004997253417969
84	354.5944769382477	fix_pre	0		120	82.0	2.5	/experiments/knapen_AOT/AOT_stimuli/rescaled_final/1372_fw.mp4	0.0	382.263601064682	1.0001270771026611
84	354.7781219482422	pulse	0	t		82.0	2.5	/experiments/knapen_AOT/AOT_stimuli/rescaled_final/1372_fw.mp4	0.0	382.4472460746765	
84	355.59460401535034	movie	1		244	82.0	2.5	/experiments/knapen_AOT/AOT_stimuli/rescaled_final/1372_fw.mp4	0.0	383.26372814178467	2.5003418922424316
84	356.3784148693085	pulse	1	t		82.0	2.5	/experiments/knapen_AOT/AOT_stimuli/rescaled_final/1372_fw.mp4	0.0	384.0475389957428	
84	357.97855496406555	pulse	1	t		82.0	2.5	/experiments/knapen_AOT/AOT_stimuli/rescaled_final/1372_fw.mp4	0.0	385.6476790904999	
84	358.0949459075928	fix_post	2		12	82.0	2.5	/experiments/knapen_AOT/AOT_stimuli/rescaled_final/1372_fw.mp4	0.0	385.7640700340271	0.10004591941833496
85	358.1949918270111	fix_pre	0		120	83.0	2.5	blank	1.0	385.86411595344543	1.0001490116119385
85	359.19514083862305	movie	1		299	83.0	2.5	blank	1.0	386.8642649650574	2.492072105407715
85	359.57884097099304	pulse	1	t		83.0	2.5	blank	1.0	387.24796509742737	
85	361.1789848804474	pulse	1	t		83.0	2.5	blank	1.0	388.8481090068817	
85	361.68721294403076	fix_post	2		12	83.0	2.5	blank	1.0	389.3563370704651	0.09997701644897461
87	361.78718996047974	stim	0		1716					389.45631408691406	14.30220103263855
87	362.7792568206787	pulse	0	t						390.44838094711304	
87	364.379390001297	pulse	0	t						392.0485141277313	
87	365.97225880622864	pulse	0	t						393.64138293266296	
87	367.57257199287415	pulse	0	t						395.2416961193085	
87	369.17284893989563	pulse	0	t						396.84197306632996	
87	370.77295899391174	pulse	0	t						398.44208312034607	
87	372.37222599983215	pulse	0	t						400.0413501262665	
87	373.97244000434875	pulse	0	t						401.6415641307831	
87	375.572714805603	pulse	0	t						403.24183893203735	
