trial_nr	onset	event_type	phase	response	nr_frames	movie_index	movie_duration	movie_file	blank	onset_abs	duration
0	0.14999008178710938	stim	0		183					21.44154119491577	1.5249359607696533
0	1.6670188903808594	response	0	space						22.95857000350952	
1	1.6749260425567627	stim	0		4513					22.966477155685425	37.607625007629395
1	39.27979588508606	pulse	0	t						60.57134699821472	
1	39.28255105018616	stim	1		1717					60.57410216331482	14.30872893333435
1	40.87494492530823	pulse	1	t						62.16649603843689	
1	42.47482395172119	pulse	1	t						63.76637506484985	
1	44.07483196258545	pulse	1	t						65.36638307571411	
1	45.67485809326172	pulse	1	t						66.96640920639038	
1	47.274882078170776	pulse	1	t						68.56643319129944	
1	48.874736070632935	pulse	1	t						70.1662871837616	
1	50.47473406791687	pulse	1	t						71.76628518104553	
1	52.074865102767944	pulse	1	t						73.3664162158966	
2	53.59127998352051	fix_pre	0		11	0.0	2.5	/experiments/AOT/AOT_stimuli/rescaled_final/0379_rv.mp4	0.0	74.88283109664917	0.09177088737487793
2	53.674866914749146	pulse	0	t		0.0	2.5	/experiments/AOT/AOT_stimuli/rescaled_final/0379_rv.mp4	0.0	74.96641802787781	
2	53.683050870895386	movie	1		243	0.0	2.5	/experiments/AOT/AOT_stimuli/rescaled_final/0379_rv.mp4	0.0	74.97460198402405	2.5082051753997803
2	55.283267974853516	pulse	1	t		0.0	2.5	/experiments/AOT/AOT_stimuli/rescaled_final/0379_rv.mp4	0.0	76.57481908798218	
2	56.191256046295166	fix_post	2		12	0.0	2.5	/experiments/AOT/AOT_stimuli/rescaled_final/0379_rv.mp4	0.0	77.48280715942383	0.09998393058776855
3	56.291239976882935	fix_pre	0		120	1.0	2.5	/experiments/AOT/AOT_stimuli/rescaled_final/0533_fw.mp4	0.0	77.5827910900116	1.0000770092010498
3	56.87477493286133	pulse	0	t		1.0	2.5	/experiments/AOT/AOT_stimuli/rescaled_final/0533_fw.mp4	0.0	78.16632604598999	
3	57.291316986083984	movie	1		244	1.0	2.5	/experiments/AOT/AOT_stimuli/rescaled_final/0533_fw.mp4	0.0	78.58286809921265	2.5000219345092773
3	58.474831104278564	pulse	1	t		1.0	2.5	/experiments/AOT/AOT_stimuli/rescaled_final/0533_fw.mp4	0.0	79.76638221740723	
3	59.79133892059326	fix_post	2		12	1.0	2.5	/experiments/AOT/AOT_stimuli/rescaled_final/0533_fw.mp4	0.0	81.08289003372192	0.1000051498413086
4	59.89134407043457	fix_pre	0		120	2.0	2.5	/experiments/AOT/AOT_stimuli/rescaled_final/2135_rv.mp4	0.0	81.18289518356323	0.9999208450317383
4	60.07483696937561	pulse	0	t		2.0	2.5	/experiments/AOT/AOT_stimuli/rescaled_final/2135_rv.mp4	0.0	81.36638808250427	
4	60.89126491546631	movie	1		245	2.0	2.5	/experiments/AOT/AOT_stimuli/rescaled_final/2135_rv.mp4	0.0	82.18281602859497	2.499967098236084
4	61.67487287521362	pulse	1	t		2.0	2.5	/experiments/AOT/AOT_stimuli/rescaled_final/2135_rv.mp4	0.0	82.96642398834229	
4	63.28314709663391	pulse	1	t		2.0	2.5	/experiments/AOT/AOT_stimuli/rescaled_final/2135_rv.mp4	0.0	84.57469820976257	
4	63.39123201370239	fix_post	2		12	2.0	2.5	/experiments/AOT/AOT_stimuli/rescaled_final/2135_rv.mp4	0.0	84.68278312683105	0.09960198402404785
5	63.49083399772644	fix_pre	0		120	3.0	2.5	/experiments/AOT/AOT_stimuli/rescaled_final/1451_fw.mp4	0.0	84.7823851108551	1.000441074371338
5	64.49127507209778	movie	1		245	3.0	2.5	/experiments/AOT/AOT_stimuli/rescaled_final/1451_fw.mp4	0.0	85.78282618522644	2.499929904937744
5	64.88328504562378	pulse	1	t		3.0	2.5	/experiments/AOT/AOT_stimuli/rescaled_final/1451_fw.mp4	0.0	86.17483615875244	
5	66.47481894493103	pulse	1	t		3.0	2.5	/experiments/AOT/AOT_stimuli/rescaled_final/1451_fw.mp4	0.0	87.76637005805969	
5	66.99120497703552	fix_post	2		12	3.0	2.5	/experiments/AOT/AOT_stimuli/rescaled_final/1451_fw.mp4	0.0	88.28275609016418	0.10016393661499023
6	67.09136891365051	fix_pre	0		119	4.0	2.5	/experiments/AOT/AOT_stimuli/rescaled_final/0788_fw.mp4	0.0	88.38292002677917	0.9915461540222168
6	68.07476592063904	pulse	0	t		4.0	2.5	/experiments/AOT/AOT_stimuli/rescaled_final/0788_fw.mp4	0.0	89.3663170337677	
6	68.08291506767273	movie	1		245	4.0	2.5	/experiments/AOT/AOT_stimuli/rescaled_final/0788_fw.mp4	0.0	89.37446618080139	2.5079360008239746
6	69.67541289329529	pulse	1	t		4.0	2.5	/experiments/AOT/AOT_stimuli/rescaled_final/0788_fw.mp4	0.0	90.96696400642395	
6	70.5908510684967	fix_post	2		12	4.0	2.5	/experiments/AOT/AOT_stimuli/rescaled_final/0788_fw.mp4	0.0	91.88240218162537	0.10033893585205078
7	70.69119000434875	fix_pre	0		120	5.0	2.5	/experiments/AOT/AOT_stimuli/rescaled_final/0956_fw.mp4	0.0	91.98274111747742	1.0000910758972168
7	71.27474188804626	pulse	0	t		5.0	2.5	/experiments/AOT/AOT_stimuli/rescaled_final/0956_fw.mp4	0.0	92.56629300117493	
7	71.69128108024597	movie	1		244	5.0	2.5	/experiments/AOT/AOT_stimuli/rescaled_final/0956_fw.mp4	0.0	92.98283219337463	2.499555826187134
7	72.87478995323181	pulse	1	t		5.0	2.5	/experiments/AOT/AOT_stimuli/rescaled_final/0956_fw.mp4	0.0	94.16634106636047	
7	74.1908369064331	fix_post	2		12	5.0	2.5	/experiments/AOT/AOT_stimuli/rescaled_final/0956_fw.mp4	0.0	95.48238801956177	0.10034704208374023
8	74.29118394851685	fix_pre	0		120	6.0	2.5	/experiments/AOT/AOT_stimuli/rescaled_final/1567_fw.mp4	0.0	95.58273506164551	1.0001461505889893
8	74.47470903396606	pulse	0	t		6.0	2.5	/experiments/AOT/AOT_stimuli/rescaled_final/1567_fw.mp4	0.0	95.76626014709473	
8	75.29133009910583	movie	1		244	6.0	2.5	/experiments/AOT/AOT_stimuli/rescaled_final/1567_fw.mp4	0.0	96.5828812122345	2.499898910522461
8	76.07500505447388	pulse	1	t		6.0	2.5	/experiments/AOT/AOT_stimuli/rescaled_final/1567_fw.mp4	0.0	97.36655616760254	
8	77.68306708335876	pulse	1	t		6.0	2.5	/experiments/AOT/AOT_stimuli/rescaled_final/1567_fw.mp4	0.0	98.97461819648743	
8	77.7912290096283	fix_post	2		12	6.0	2.5	/experiments/AOT/AOT_stimuli/rescaled_final/1567_fw.mp4	0.0	99.08278012275696	0.09998798370361328
9	77.89121699333191	fix_pre	0		120	7.0	2.5	blank	1.0	99.18276810646057	0.9999721050262451
9	78.89118909835815	movie	1		300	7.0	2.5	blank	1.0	100.18274021148682	2.5000178813934326
9	79.27545189857483	pulse	1	t		7.0	2.5	blank	1.0	100.56700301170349	
9	80.8754620552063	pulse	1	t		7.0	2.5	blank	1.0	102.16701316833496	
9	81.39120697975159	fix_post	2		12	7.0	2.5	blank	1.0	102.68275809288025	0.10002589225769043
10	81.49123287200928	fix_pre	0		119	8.0	2.5	/experiments/AOT/AOT_stimuli/rescaled_final/1386_fw.mp4	0.0	102.78278398513794	0.9916331768035889
10	82.47473001480103	pulse	0	t		8.0	2.5	/experiments/AOT/AOT_stimuli/rescaled_final/1386_fw.mp4	0.0	103.76628112792969	
10	82.48286604881287	movie	1		244	8.0	2.5	/experiments/AOT/AOT_stimuli/rescaled_final/1386_fw.mp4	0.0	103.77441716194153	2.508333921432495
10	84.07480001449585	pulse	1	t		8.0	2.5	/experiments/AOT/AOT_stimuli/rescaled_final/1386_fw.mp4	0.0	105.36635112762451	
10	84.99119997024536	fix_post	2		12	8.0	2.5	/experiments/AOT/AOT_stimuli/rescaled_final/1386_fw.mp4	0.0	106.28275108337402	0.10004401206970215
11	85.09124398231506	fix_pre	0		120	9.0	2.5	/experiments/AOT/AOT_stimuli/rescaled_final/2130_rv.mp4	0.0	106.38279509544373	1.0000231266021729
11	85.67469906806946	pulse	0	t		9.0	2.5	/experiments/AOT/AOT_stimuli/rescaled_final/2130_rv.mp4	0.0	106.96625018119812	
11	86.09126710891724	movie	1		245	9.0	2.5	/experiments/AOT/AOT_stimuli/rescaled_final/2130_rv.mp4	0.0	107.3828182220459	2.4999327659606934
11	87.27475190162659	pulse	1	t		9.0	2.5	/experiments/AOT/AOT_stimuli/rescaled_final/2130_rv.mp4	0.0	108.56630301475525	
11	88.59119987487793	fix_post	2		12	9.0	2.5	/experiments/AOT/AOT_stimuli/rescaled_final/2130_rv.mp4	0.0	109.88275098800659	0.10006213188171387
12	88.69126200675964	fix_pre	0		120	10.0	2.5	/experiments/AOT/AOT_stimuli/rescaled_final/0069_fw.mp4	0.0	109.9828131198883	1.0000200271606445
12	88.87469291687012	pulse	0	t		10.0	2.5	/experiments/AOT/AOT_stimuli/rescaled_final/0069_fw.mp4	0.0	110.16624402999878	
12	89.69128203392029	movie	1		248	10.0	2.5	/experiments/AOT/AOT_stimuli/rescaled_final/0069_fw.mp4	0.0	110.98283314704895	2.4996938705444336
12	90.47516393661499	pulse	1	t		10.0	2.5	/experiments/AOT/AOT_stimuli/rescaled_final/0069_fw.mp4	0.0	111.76671504974365	
12	92.07911896705627	pulse	1	t		10.0	2.5	/experiments/AOT/AOT_stimuli/rescaled_final/0069_fw.mp4	0.0	113.37067008018494	
12	92.19097590446472	fix_post	2		12	10.0	2.5	/experiments/AOT/AOT_stimuli/rescaled_final/0069_fw.mp4	0.0	113.48252701759338	0.1004180908203125
13	92.29139399528503	fix_pre	0		120	11.0	2.5	/experiments/AOT/AOT_stimuli/rescaled_final/0859_rv.mp4	0.0	113.5829451084137	0.9997560977935791
13	93.29115009307861	movie	1		243	11.0	2.5	/experiments/AOT/AOT_stimuli/rescaled_final/0859_rv.mp4	0.0	114.58270120620728	2.500027894973755
13	93.67412805557251	pulse	1	t		11.0	2.5	/experiments/AOT/AOT_stimuli/rescaled_final/0859_rv.mp4	0.0	114.96567916870117	
13	95.2754590511322	pulse	1	t		11.0	2.5	/experiments/AOT/AOT_stimuli/rescaled_final/0859_rv.mp4	0.0	116.56701016426086	
13	95.79117798805237	fix_post	2		12	11.0	2.5	/experiments/AOT/AOT_stimuli/rescaled_final/0859_rv.mp4	0.0	117.08272910118103	0.10000491142272949
14	95.8911828994751	fix_pre	0		120	12.0	2.5	/experiments/AOT/AOT_stimuli/rescaled_final/1616_fw.mp4	0.0	117.18273401260376	0.9999220371246338
14	96.87543296813965	pulse	0	t		12.0	2.5	/experiments/AOT/AOT_stimuli/rescaled_final/1616_fw.mp4	0.0	118.16698408126831	
14	96.89110493659973	movie	1		244	12.0	2.5	/experiments/AOT/AOT_stimuli/rescaled_final/1616_fw.mp4	0.0	118.1826560497284	2.508319139480591
14	98.48268795013428	pulse	1	t		12.0	2.5	/experiments/AOT/AOT_stimuli/rescaled_final/1616_fw.mp4	0.0	119.77423906326294	
14	99.39942407608032	fix_post	2		12	12.0	2.5	/experiments/AOT/AOT_stimuli/rescaled_final/1616_fw.mp4	0.0	120.69097518920898	0.0999898910522461
15	99.49941396713257	fix_pre	0		120	13.0	2.5	blank	1.0	120.79096508026123	1.0000479221343994
15	100.07544589042664	pulse	0	t		13.0	2.5	blank	1.0	121.3669970035553	
15	100.49946188926697	movie	1		300	13.0	2.5	blank	1.0	121.79101300239563	2.499913215637207
15	101.6746289730072	pulse	1	t		13.0	2.5	blank	1.0	122.96618008613586	
15	102.99937510490417	fix_post	2		12	13.0	2.5	blank	1.0	124.29092621803284	0.10007882118225098
16	103.09945392608643	fix_pre	0		120	14.0	2.5	/experiments/AOT/AOT_stimuli/rescaled_final/1845_rv.mp4	0.0	124.39100503921509	0.9999489784240723
16	103.27453303337097	pulse	0	t		14.0	2.5	/experiments/AOT/AOT_stimuli/rescaled_final/1845_rv.mp4	0.0	124.56608414649963	
16	104.0994029045105	movie	1		244	14.0	2.5	/experiments/AOT/AOT_stimuli/rescaled_final/1845_rv.mp4	0.0	125.39095401763916	2.500005006790161
16	104.87449097633362	pulse	1	t		14.0	2.5	/experiments/AOT/AOT_stimuli/rescaled_final/1845_rv.mp4	0.0	126.16604208946228	
16	106.47442293167114	pulse	1	t		14.0	2.5	/experiments/AOT/AOT_stimuli/rescaled_final/1845_rv.mp4	0.0	127.7659740447998	
16	106.59940791130066	fix_post	2		12	14.0	2.5	/experiments/AOT/AOT_stimuli/rescaled_final/1845_rv.mp4	0.0	127.89095902442932	0.09999608993530273
17	106.69940400123596	fix_pre	0		120	15.0	2.5	/experiments/AOT/AOT_stimuli/rescaled_final/1251_fw.mp4	0.0	127.99095511436462	0.999967098236084
17	107.69937109947205	movie	1		245	15.0	2.5	/experiments/AOT/AOT_stimuli/rescaled_final/1251_fw.mp4	0.0	128.9909222126007	2.4999887943267822
17	108.07450008392334	pulse	1	t		15.0	2.5	/experiments/AOT/AOT_stimuli/rescaled_final/1251_fw.mp4	0.0	129.366051197052	
17	109.67474889755249	pulse	1	t		15.0	2.5	/experiments/AOT/AOT_stimuli/rescaled_final/1251_fw.mp4	0.0	130.96630001068115	
17	110.19935989379883	fix_post	2		12	15.0	2.5	/experiments/AOT/AOT_stimuli/rescaled_final/1251_fw.mp4	0.0	131.4909110069275	0.10012412071228027
18	110.29948401451111	fix_pre	0		119	16.0	2.5	/experiments/AOT/AOT_stimuli/rescaled_final/1719_rv.mp4	0.0	131.59103512763977	0.9915010929107666
18	111.27535605430603	pulse	0	t		16.0	2.5	/experiments/AOT/AOT_stimuli/rescaled_final/1719_rv.mp4	0.0	132.5669071674347	
18	111.29098510742188	movie	1		245	16.0	2.5	/experiments/AOT/AOT_stimuli/rescaled_final/1719_rv.mp4	0.0	132.58253622055054	2.508358955383301
18	112.88227701187134	pulse	1	t		16.0	2.5	/experiments/AOT/AOT_stimuli/rescaled_final/1719_rv.mp4	0.0	134.173828125	
18	113.79934406280518	fix_post	2		12	16.0	2.5	/experiments/AOT/AOT_stimuli/rescaled_final/1719_rv.mp4	0.0	135.09089517593384	0.10007286071777344
19	113.89941692352295	fix_pre	0		120	17.0	2.5	/experiments/AOT/AOT_stimuli/rescaled_final/1435_rv.mp4	0.0	135.1909680366516	0.9999639987945557
19	114.47533702850342	pulse	0	t		17.0	2.5	/experiments/AOT/AOT_stimuli/rescaled_final/1435_rv.mp4	0.0	135.76688814163208	
19	114.8993809223175	movie	1		243	17.0	2.5	/experiments/AOT/AOT_stimuli/rescaled_final/1435_rv.mp4	0.0	136.19093203544617	2.499932050704956
19	116.08295798301697	pulse	1	t		17.0	2.5	/experiments/AOT/AOT_stimuli/rescaled_final/1435_rv.mp4	0.0	137.37450909614563	
19	117.39931297302246	fix_post	2		12	17.0	2.5	/experiments/AOT/AOT_stimuli/rescaled_final/1435_rv.mp4	0.0	138.69086408615112	0.10004496574401855
20	117.49935793876648	fix_pre	0		120	18.0	2.5	/experiments/AOT/AOT_stimuli/rescaled_final/1556_rv.mp4	0.0	138.79090905189514	0.9999539852142334
20	117.67531108856201	pulse	0	t		18.0	2.5	/experiments/AOT/AOT_stimuli/rescaled_final/1556_rv.mp4	0.0	138.96686220169067	
20	118.49931192398071	movie	1		245	18.0	2.5	/experiments/AOT/AOT_stimuli/rescaled_final/1556_rv.mp4	0.0	139.79086303710938	2.500019073486328
20	119.27540993690491	pulse	1	t		18.0	2.5	/experiments/AOT/AOT_stimuli/rescaled_final/1556_rv.mp4	0.0	140.56696105003357	
20	120.87456488609314	pulse	1	t		18.0	2.5	/experiments/AOT/AOT_stimuli/rescaled_final/1556_rv.mp4	0.0	142.1661159992218	
20	120.99933099746704	fix_post	2		12	18.0	2.5	/experiments/AOT/AOT_stimuli/rescaled_final/1556_rv.mp4	0.0	142.2908821105957	0.10003995895385742
21	121.0993709564209	fix_pre	0		120	19.0	2.5	blank	1.0	142.39092206954956	0.9999520778656006
21	122.0993230342865	movie	1		300	19.0	2.5	blank	1.0	143.39087414741516	2.499994993209839
21	122.47453188896179	pulse	1	t		19.0	2.5	blank	1.0	143.76608300209045	
21	124.07450103759766	pulse	1	t		19.0	2.5	blank	1.0	145.36605215072632	
21	124.59931802749634	fix_post	2		12	19.0	2.5	blank	1.0	145.890869140625	0.09997797012329102
22	124.69929599761963	fix_pre	0		118	20.0	2.5	/experiments/AOT/AOT_stimuli/rescaled_final/1122_rv.mp4	0.0	145.9908471107483	0.9833779335021973
22	125.67446398735046	pulse	0	t		20.0	2.5	/experiments/AOT/AOT_stimuli/rescaled_final/1122_rv.mp4	0.0	146.96601510047913	
22	125.68267393112183	movie	1		246	20.0	2.5	/experiments/AOT/AOT_stimuli/rescaled_final/1122_rv.mp4	0.0	146.9742250442505	2.5083911418914795
22	127.28294706344604	pulse	1	t		20.0	2.5	/experiments/AOT/AOT_stimuli/rescaled_final/1122_rv.mp4	0.0	148.5744981765747	
22	128.1910650730133	fix_post	2		12	20.0	2.5	/experiments/AOT/AOT_stimuli/rescaled_final/1122_rv.mp4	0.0	149.48261618614197	0.10000395774841309
23	128.29106903076172	fix_pre	0		120	21.0	2.5	/experiments/AOT/AOT_stimuli/rescaled_final/0910_rv.mp4	0.0	149.58262014389038	0.9999830722808838
23	128.87532687187195	pulse	0	t		21.0	2.5	/experiments/AOT/AOT_stimuli/rescaled_final/0910_rv.mp4	0.0	150.1668779850006	
23	129.2910521030426	movie	1		243	21.0	2.5	/experiments/AOT/AOT_stimuli/rescaled_final/0910_rv.mp4	0.0	150.58260321617126	2.4995779991149902
23	130.47550892829895	pulse	1	t		21.0	2.5	/experiments/AOT/AOT_stimuli/rescaled_final/0910_rv.mp4	0.0	151.7670600414276	
23	131.7906301021576	fix_post	2		12	21.0	2.5	/experiments/AOT/AOT_stimuli/rescaled_final/0910_rv.mp4	0.0	153.08218121528625	0.10037779808044434
24	131.89100790023804	fix_pre	0		120	22.0	2.5	/experiments/AOT/AOT_stimuli/rescaled_final/0991_fw.mp4	0.0	153.1825590133667	0.9999511241912842
24	132.07530093193054	pulse	0	t		22.0	2.5	/experiments/AOT/AOT_stimuli/rescaled_final/0991_fw.mp4	0.0	153.3668520450592	
24	132.89095902442932	movie	1		243	22.0	2.5	/experiments/AOT/AOT_stimuli/rescaled_final/0991_fw.mp4	0.0	154.18251013755798	2.4999358654022217
24	133.67533087730408	pulse	1	t		22.0	2.5	/experiments/AOT/AOT_stimuli/rescaled_final/0991_fw.mp4	0.0	154.96688199043274	
24	135.28285908699036	pulse	1	t		22.0	2.5	/experiments/AOT/AOT_stimuli/rescaled_final/0991_fw.mp4	0.0	156.57441020011902	
24	135.39089488983154	fix_post	2		12	22.0	2.5	/experiments/AOT/AOT_stimuli/rescaled_final/0991_fw.mp4	0.0	156.6824460029602	0.09999203681945801
25	135.490886926651	fix_pre	0		120	23.0	2.5	/experiments/AOT/AOT_stimuli/rescaled_final/2050_rv.mp4	0.0	156.78243803977966	1.0000879764556885
25	136.4909749031067	movie	1		244	23.0	2.5	/experiments/AOT/AOT_stimuli/rescaled_final/2050_rv.mp4	0.0	157.78252601623535	2.4999539852142334
25	136.88275694847107	pulse	1	t		23.0	2.5	/experiments/AOT/AOT_stimuli/rescaled_final/2050_rv.mp4	0.0	158.17430806159973	
25	138.47445702552795	pulse	1	t		23.0	2.5	/experiments/AOT/AOT_stimuli/rescaled_final/2050_rv.mp4	0.0	159.76600813865662	
25	138.99092888832092	fix_post	2		12	23.0	2.5	/experiments/AOT/AOT_stimuli/rescaled_final/2050_rv.mp4	0.0	160.28248000144958	0.0999760627746582
26	139.09090495109558	fix_pre	0		119	24.0	2.5	/experiments/AOT/AOT_stimuli/rescaled_final/1216_fw.mp4	0.0	160.38245606422424	0.99173903465271
26	140.07449007034302	pulse	0	t		24.0	2.5	/experiments/AOT/AOT_stimuli/rescaled_final/1216_fw.mp4	0.0	161.36604118347168	
26	140.0826439857483	movie	1		244	24.0	2.5	/experiments/AOT/AOT_stimuli/rescaled_final/1216_fw.mp4	0.0	161.37419509887695	2.50817608833313
26	141.6744508743286	pulse	1	t		24.0	2.5	/experiments/AOT/AOT_stimuli/rescaled_final/1216_fw.mp4	0.0	162.96600198745728	
26	142.59082007408142	fix_post	2		12	24.0	2.5	/experiments/AOT/AOT_stimuli/rescaled_final/1216_fw.mp4	0.0	163.88237118721008	0.10007190704345703
27	142.69089198112488	fix_pre	0		120	25.0	2.5	/experiments/AOT/AOT_stimuli/rescaled_final/0823_rv.mp4	0.0	163.98244309425354	1.0000090599060059
27	143.2752640247345	pulse	0	t		25.0	2.5	/experiments/AOT/AOT_stimuli/rescaled_final/0823_rv.mp4	0.0	164.56681513786316	
27	143.69090104103088	movie	1		244	25.0	2.5	/experiments/AOT/AOT_stimuli/rescaled_final/0823_rv.mp4	0.0	164.98245215415955	2.4996118545532227
27	144.87555193901062	pulse	1	t		25.0	2.5	/experiments/AOT/AOT_stimuli/rescaled_final/0823_rv.mp4	0.0	166.16710305213928	
27	146.1905128955841	fix_post	2		12	25.0	2.5	/experiments/AOT/AOT_stimuli/rescaled_final/0823_rv.mp4	0.0	167.48206400871277	0.10037803649902344
28	146.29089093208313	fix_pre	0		120	26.0	2.5	/experiments/AOT/AOT_stimuli/rescaled_final/0667_fw.mp4	0.0	167.5824420452118	0.9997451305389404
28	146.48231291770935	pulse	0	t		26.0	2.5	/experiments/AOT/AOT_stimuli/rescaled_final/0667_fw.mp4	0.0	167.773864030838	
28	147.29063606262207	movie	1		243	26.0	2.5	/experiments/AOT/AOT_stimuli/rescaled_final/0667_fw.mp4	0.0	168.58218717575073	2.500229835510254
28	148.07539987564087	pulse	1	t		26.0	2.5	/experiments/AOT/AOT_stimuli/rescaled_final/0667_fw.mp4	0.0	169.36695098876953	
28	149.68274807929993	pulse	1	t		26.0	2.5	/experiments/AOT/AOT_stimuli/rescaled_final/0667_fw.mp4	0.0	170.9742991924286	
28	149.79086589813232	fix_post	2		12	26.0	2.5	/experiments/AOT/AOT_stimuli/rescaled_final/0667_fw.mp4	0.0	171.082417011261	0.10007214546203613
29	149.89093804359436	fix_pre	0		120	27.0	2.5	/experiments/AOT/AOT_stimuli/rescaled_final/0237_rv.mp4	0.0	171.18248915672302	0.9999208450317383
29	150.8908588886261	movie	1		244	27.0	2.5	/experiments/AOT/AOT_stimuli/rescaled_final/0237_rv.mp4	0.0	172.18241000175476	2.5000030994415283
29	151.2752320766449	pulse	1	t		27.0	2.5	/experiments/AOT/AOT_stimuli/rescaled_final/0237_rv.mp4	0.0	172.56678318977356	
29	152.87517404556274	pulse	1	t		27.0	2.5	/experiments/AOT/AOT_stimuli/rescaled_final/0237_rv.mp4	0.0	174.1667251586914	
29	153.39086198806763	fix_post	2		12	27.0	2.5	/experiments/AOT/AOT_stimuli/rescaled_final/0237_rv.mp4	0.0	174.6824131011963	0.09999394416809082
30	153.49085593223572	fix_pre	0		119	28.0	2.5	blank	1.0	174.78240704536438	0.9916541576385498
30	154.47431302070618	pulse	0	t		28.0	2.5	blank	1.0	175.76586413383484	
30	154.48251008987427	movie	1		301	28.0	2.5	blank	1.0	175.77406120300293	2.5082969665527344
30	156.0743899345398	pulse	1	t		28.0	2.5	blank	1.0	177.36594104766846	
30	156.990807056427	fix_post	2		12	28.0	2.5	blank	1.0	178.28235816955566	0.1000208854675293
31	157.09082794189453	fix_pre	0		120	29.0	2.5	/experiments/AOT/AOT_stimuli/rescaled_final/1699_rv.mp4	0.0	178.3823790550232	0.9999821186065674
31	157.6742808818817	pulse	0	t		29.0	2.5	/experiments/AOT/AOT_stimuli/rescaled_final/1699_rv.mp4	0.0	178.96583199501038	
31	158.0908100605011	movie	1		245	29.0	2.5	/experiments/AOT/AOT_stimuli/rescaled_final/1699_rv.mp4	0.0	179.38236117362976	2.49995493888855
31	159.27530097961426	pulse	1	t		29.0	2.5	/experiments/AOT/AOT_stimuli/rescaled_final/1699_rv.mp4	0.0	180.56685209274292	
31	160.59076499938965	fix_post	2		12	29.0	2.5	/experiments/AOT/AOT_stimuli/rescaled_final/1699_rv.mp4	0.0	181.8823161125183	0.10006904602050781
32	160.69083404541016	fix_pre	0		120	30.0	2.5	/experiments/AOT/AOT_stimuli/rescaled_final/1756_fw.mp4	0.0	181.98238515853882	0.9999790191650391
32	160.8750879764557	pulse	0	t		30.0	2.5	/experiments/AOT/AOT_stimuli/rescaled_final/1756_fw.mp4	0.0	182.16663908958435	
32	161.6908130645752	movie	1		243	30.0	2.5	/experiments/AOT/AOT_stimuli/rescaled_final/1756_fw.mp4	0.0	182.98236417770386	2.4999289512634277
32	162.4752070903778	pulse	1	t		30.0	2.5	/experiments/AOT/AOT_stimuli/rescaled_final/1756_fw.mp4	0.0	183.76675820350647	
32	164.08269906044006	pulse	1	t		30.0	2.5	/experiments/AOT/AOT_stimuli/rescaled_final/1756_fw.mp4	0.0	185.37425017356873	
32	164.19074201583862	fix_post	2		12	30.0	2.5	/experiments/AOT/AOT_stimuli/rescaled_final/1756_fw.mp4	0.0	185.48229312896729	0.10002398490905762
33	164.29076600074768	fix_pre	0		120	31.0	2.5	/experiments/AOT/AOT_stimuli/rescaled_final/0955_rv.mp4	0.0	185.58231711387634	0.9999690055847168
33	165.2907350063324	movie	1		244	31.0	2.5	/experiments/AOT/AOT_stimuli/rescaled_final/0955_rv.mp4	0.0	186.58228611946106	2.5000078678131104
33	165.68269205093384	pulse	1	t		31.0	2.5	/experiments/AOT/AOT_stimuli/rescaled_final/0955_rv.mp4	0.0	186.9742431640625	
33	167.27515697479248	pulse	1	t		31.0	2.5	/experiments/AOT/AOT_stimuli/rescaled_final/0955_rv.mp4	0.0	188.56670808792114	
33	167.7907428741455	fix_post	2		12	31.0	2.5	/experiments/AOT/AOT_stimuli/rescaled_final/0955_rv.mp4	0.0	189.08229398727417	0.1000661849975586
34	167.89080905914307	fix_pre	0		120	32.0	2.5	/experiments/AOT/AOT_stimuli/rescaled_final/0807_rv.mp4	0.0	189.18236017227173	0.999953031539917
34	168.87504410743713	pulse	0	t		32.0	2.5	/experiments/AOT/AOT_stimuli/rescaled_final/0807_rv.mp4	0.0	190.1665952205658	
34	168.89076209068298	movie	1		244	32.0	2.5	/experiments/AOT/AOT_stimuli/rescaled_final/0807_rv.mp4	0.0	190.18231320381165	2.5084228515625
34	170.48210191726685	pulse	1	t		32.0	2.5	/experiments/AOT/AOT_stimuli/rescaled_final/0807_rv.mp4	0.0	191.7736530303955	
34	171.39918494224548	fix_post	2		12	32.0	2.5	/experiments/AOT/AOT_stimuli/rescaled_final/0807_rv.mp4	0.0	192.69073605537415	0.1000370979309082
35	171.4992220401764	fix_pre	0		120	33.0	2.5	/experiments/AOT/AOT_stimuli/rescaled_final/1786_fw.mp4	0.0	192.79077315330505	1.0000419616699219
35	172.07425808906555	pulse	0	t		33.0	2.5	/experiments/AOT/AOT_stimuli/rescaled_final/1786_fw.mp4	0.0	193.3658092021942	
35	172.4992640018463	movie	1		244	33.0	2.5	/experiments/AOT/AOT_stimuli/rescaled_final/1786_fw.mp4	0.0	193.79081511497498	2.499774932861328
35	173.67554593086243	pulse	1	t		33.0	2.5	/experiments/AOT/AOT_stimuli/rescaled_final/1786_fw.mp4	0.0	194.9670970439911	
35	174.99903893470764	fix_post	2		12	33.0	2.5	/experiments/AOT/AOT_stimuli/rescaled_final/1786_fw.mp4	0.0	196.2905900478363	0.10004615783691406
36	175.09908509254456	fix_pre	0		120	34.0	2.5	/experiments/AOT/AOT_stimuli/rescaled_final/0889_rv.mp4	0.0	196.39063620567322	1.0000228881835938
36	175.28262591362	pulse	0	t		34.0	2.5	/experiments/AOT/AOT_stimuli/rescaled_final/0889_rv.mp4	0.0	196.57417702674866	
36	176.09910798072815	movie	1		245	34.0	2.5	/experiments/AOT/AOT_stimuli/rescaled_final/0889_rv.mp4	0.0	197.3906590938568	2.500014066696167
36	176.87510991096497	pulse	1	t		34.0	2.5	/experiments/AOT/AOT_stimuli/rescaled_final/0889_rv.mp4	0.0	198.16666102409363	
36	178.48074889183044	pulse	1	t		34.0	2.5	/experiments/AOT/AOT_stimuli/rescaled_final/0889_rv.mp4	0.0	199.7723000049591	
36	178.59912204742432	fix_post	2		12	34.0	2.5	/experiments/AOT/AOT_stimuli/rescaled_final/0889_rv.mp4	0.0	199.89067316055298	0.09988999366760254
37	178.69901204109192	fix_pre	0		120	35.0	2.5	blank	1.0	199.99056315422058	1.0001029968261719
37	179.6991150379181	movie	1		300	35.0	2.5	blank	1.0	200.99066615104675	2.499976873397827
37	180.07499599456787	pulse	1	t		35.0	2.5	blank	1.0	201.36654710769653	
37	181.6749770641327	pulse	1	t		35.0	2.5	blank	1.0	202.96652817726135	
37	182.19909191131592	fix_post	2		12	35.0	2.5	blank	1.0	203.49064302444458	0.09998106956481934
38	182.29907298088074	fix_pre	0		119	36.0	2.5	/experiments/AOT/AOT_stimuli/rescaled_final/0429_rv.mp4	0.0	203.5906240940094	0.991692066192627
38	183.27496004104614	pulse	0	t		36.0	2.5	/experiments/AOT/AOT_stimuli/rescaled_final/0429_rv.mp4	0.0	204.5665111541748	
38	183.29076504707336	movie	1		244	36.0	2.5	/experiments/AOT/AOT_stimuli/rescaled_final/0429_rv.mp4	0.0	204.58231616020203	2.5082218647003174
38	184.88271594047546	pulse	1	t		36.0	2.5	/experiments/AOT/AOT_stimuli/rescaled_final/0429_rv.mp4	0.0	206.17426705360413	
38	185.79898691177368	fix_post	2		12	36.0	2.5	/experiments/AOT/AOT_stimuli/rescaled_final/0429_rv.mp4	0.0	207.09053802490234	0.10008716583251953
39	185.8990740776062	fix_pre	0		120	37.0	2.5	/experiments/AOT/AOT_stimuli/rescaled_final/2095_fw.mp4	0.0	207.19062519073486	0.9999899864196777
39	186.4749300479889	pulse	0	t		37.0	2.5	/experiments/AOT/AOT_stimuli/rescaled_final/2095_fw.mp4	0.0	207.76648116111755	
39	186.89906406402588	movie	1		244	37.0	2.5	/experiments/AOT/AOT_stimuli/rescaled_final/2095_fw.mp4	0.0	208.19061517715454	2.500005006790161
39	188.08260893821716	pulse	1	t		37.0	2.5	/experiments/AOT/AOT_stimuli/rescaled_final/2095_fw.mp4	0.0	209.37416005134583	
39	189.39906907081604	fix_post	2		12	37.0	2.5	/experiments/AOT/AOT_stimuli/rescaled_final/2095_fw.mp4	0.0	210.6906201839447	0.09988689422607422
40	189.49895596504211	fix_pre	0		120	38.0	2.5	/experiments/AOT/AOT_stimuli/rescaled_final/0497_rv.mp4	0.0	210.79050707817078	1.0000989437103271
40	189.67492508888245	pulse	0	t		38.0	2.5	/experiments/AOT/AOT_stimuli/rescaled_final/0497_rv.mp4	0.0	210.9664762020111	
40	190.49905490875244	movie	1		244	38.0	2.5	/experiments/AOT/AOT_stimuli/rescaled_final/0497_rv.mp4	0.0	211.7906060218811	2.4999091625213623
40	191.28251791000366	pulse	1	t		38.0	2.5	/experiments/AOT/AOT_stimuli/rescaled_final/0497_rv.mp4	0.0	212.57406902313232	
40	192.8810269832611	pulse	1	t		38.0	2.5	/experiments/AOT/AOT_stimuli/rescaled_final/0497_rv.mp4	0.0	214.17257809638977	
40	192.9989640712738	fix_post	2		12	38.0	2.5	/experiments/AOT/AOT_stimuli/rescaled_final/0497_rv.mp4	0.0	214.29051518440247	0.10006380081176758
41	193.09902787208557	fix_pre	0		120	39.0	2.5	/experiments/AOT/AOT_stimuli/rescaled_final/2112_rv.mp4	0.0	214.39057898521423	0.9999780654907227
41	194.0990059375763	movie	1		246	39.0	2.5	/experiments/AOT/AOT_stimuli/rescaled_final/2112_rv.mp4	0.0	215.39055705070496	2.5000269412994385
41	194.4821629524231	pulse	1	t		39.0	2.5	/experiments/AOT/AOT_stimuli/rescaled_final/2112_rv.mp4	0.0	215.77371406555176	
41	196.07527089118958	pulse	1	t		39.0	2.5	/experiments/AOT/AOT_stimuli/rescaled_final/2112_rv.mp4	0.0	217.36682200431824	
41	196.59903287887573	fix_post	2		12	39.0	2.5	/experiments/AOT/AOT_stimuli/rescaled_final/2112_rv.mp4	0.0	217.8905839920044	0.0999751091003418
42	196.69900798797607	fix_pre	0		119	40.0	2.5	/experiments/AOT/AOT_stimuli/rescaled_final/0072_rv.mp4	0.0	217.99055910110474	0.9915549755096436
42	197.67492389678955	pulse	0	t		40.0	2.5	/experiments/AOT/AOT_stimuli/rescaled_final/0072_rv.mp4	0.0	218.9664750099182	
42	197.69056296348572	movie	1		245	40.0	2.5	/experiments/AOT/AOT_stimuli/rescaled_final/0072_rv.mp4	0.0	218.98211407661438	2.5084750652313232
42	199.2820279598236	pulse	1	t		40.0	2.5	/experiments/AOT/AOT_stimuli/rescaled_final/0072_rv.mp4	0.0	220.57357907295227	
42	200.19903802871704	fix_post	2		12	40.0	2.5	/experiments/AOT/AOT_stimuli/rescaled_final/0072_rv.mp4	0.0	221.4905891418457	0.09995603561401367
43	200.29899406433105	fix_pre	0		120	41.0	2.5	/experiments/AOT/AOT_stimuli/rescaled_final/0105_rv.mp4	0.0	221.59054517745972	0.9999468326568604
43	200.87493896484375	pulse	0	t		41.0	2.5	/experiments/AOT/AOT_stimuli/rescaled_final/0105_rv.mp4	0.0	222.1664900779724	
43	201.29894089698792	movie	1		245	41.0	2.5	/experiments/AOT/AOT_stimuli/rescaled_final/0105_rv.mp4	0.0	222.59049201011658	2.500265121459961
43	202.48203587532043	pulse	1	t		41.0	2.5	/experiments/AOT/AOT_stimuli/rescaled_final/0105_rv.mp4	0.0	223.7735869884491	
43	203.79920601844788	fix_post	2		12	41.0	2.5	/experiments/AOT/AOT_stimuli/rescaled_final/0105_rv.mp4	0.0	225.09075713157654	0.1000208854675293
44	203.8992269039154	fix_pre	0		120	42.0	2.5	blank	1.0	225.19077801704407	0.9997060298919678
44	204.07476496696472	pulse	0	t		42.0	2.5	blank	1.0	225.36631608009338	
44	204.89893293380737	movie	1		300	42.0	2.5	blank	1.0	226.19048404693604	2.5000290870666504
44	205.67504405975342	pulse	1	t		42.0	2.5	blank	1.0	226.96659517288208	
44	207.28245306015015	pulse	1	t		42.0	2.5	blank	1.0	228.5740041732788	
44	207.39896202087402	fix_post	2		12	42.0	2.5	blank	1.0	228.69051313400269	0.1000058650970459
45	207.49896788597107	fix_pre	0		120	43.0	2.5	/experiments/AOT/AOT_stimuli/rescaled_final/0016_rv.mp4	0.0	228.79051899909973	0.9999539852142334
45	208.4989218711853	movie	1		244	43.0	2.5	/experiments/AOT/AOT_stimuli/rescaled_final/0016_rv.mp4	0.0	229.79047298431396	2.499986171722412
45	208.8822090625763	pulse	1	t		43.0	2.5	/experiments/AOT/AOT_stimuli/rescaled_final/0016_rv.mp4	0.0	230.17376017570496	
45	210.4750189781189	pulse	1	t		43.0	2.5	/experiments/AOT/AOT_stimuli/rescaled_final/0016_rv.mp4	0.0	231.76657009124756	
45	210.99890804290771	fix_post	2		12	43.0	2.5	/experiments/AOT/AOT_stimuli/rescaled_final/0016_rv.mp4	0.0	232.29045915603638	0.10000491142272949
46	211.09891295433044	fix_pre	0		119	44.0	2.5	/experiments/AOT/AOT_stimuli/rescaled_final/0807_fw.mp4	0.0	232.3904640674591	0.9916291236877441
46	212.07484602928162	pulse	0	t		44.0	2.5	/experiments/AOT/AOT_stimuli/rescaled_final/0807_fw.mp4	0.0	233.36639714241028	
46	212.0905420780182	movie	1		244	44.0	2.5	/experiments/AOT/AOT_stimuli/rescaled_final/0807_fw.mp4	0.0	233.38209319114685	2.5083320140838623
46	213.682030916214	pulse	1	t		44.0	2.5	/experiments/AOT/AOT_stimuli/rescaled_final/0807_fw.mp4	0.0	234.97358202934265	
46	214.59887409210205	fix_post	2		12	44.0	2.5	/experiments/AOT/AOT_stimuli/rescaled_final/0807_fw.mp4	0.0	235.8904252052307	0.09998798370361328
47	214.69886207580566	fix_pre	0		120	45.0	2.5	/experiments/AOT/AOT_stimuli/rescaled_final/1225_fw.mp4	0.0	235.99041318893433	1.0000319480895996
47	215.2748498916626	pulse	0	t		45.0	2.5	/experiments/AOT/AOT_stimuli/rescaled_final/1225_fw.mp4	0.0	236.56640100479126	
47	215.69889402389526	movie	1		244	45.0	2.5	/experiments/AOT/AOT_stimuli/rescaled_final/1225_fw.mp4	0.0	236.99044513702393	2.5000269412994385
47	216.8824770450592	pulse	1	t		45.0	2.5	/experiments/AOT/AOT_stimuli/rescaled_final/1225_fw.mp4	0.0	238.17402815818787	
47	218.1989209651947	fix_post	2		12	45.0	2.5	/experiments/AOT/AOT_stimuli/rescaled_final/1225_fw.mp4	0.0	239.49047207832336	0.09999608993530273
48	218.29891705513	fix_pre	0		120	46.0	2.5	/experiments/AOT/AOT_stimuli/rescaled_final/0269_fw.mp4	0.0	239.59046816825867	0.9999740123748779
48	218.47485089302063	pulse	0	t		46.0	2.5	/experiments/AOT/AOT_stimuli/rescaled_final/0269_fw.mp4	0.0	239.7664020061493	
48	219.29889106750488	movie	1		246	46.0	2.5	/experiments/AOT/AOT_stimuli/rescaled_final/0269_fw.mp4	0.0	240.59044218063354	2.5000319480895996
48	220.07487297058105	pulse	1	t		46.0	2.5	/experiments/AOT/AOT_stimuli/rescaled_final/0269_fw.mp4	0.0	241.36642408370972	
48	221.67854595184326	pulse	1	t		46.0	2.5	/experiments/AOT/AOT_stimuli/rescaled_final/0269_fw.mp4	0.0	242.97009706497192	
48	221.79892301559448	fix_post	2		12	46.0	2.5	/experiments/AOT/AOT_stimuli/rescaled_final/0269_fw.mp4	0.0	243.09047412872314	0.09996795654296875
49	221.89889097213745	fix_pre	0		120	47.0	2.5	/experiments/AOT/AOT_stimuli/rescaled_final/0944_rv.mp4	0.0	243.1904420852661	0.9996390342712402
49	222.8985300064087	movie	1		245	47.0	2.5	/experiments/AOT/AOT_stimuli/rescaled_final/0944_rv.mp4	0.0	244.19008111953735	2.4999780654907227
49	223.28182888031006	pulse	1	t		47.0	2.5	/experiments/AOT/AOT_stimuli/rescaled_final/0944_rv.mp4	0.0	244.57337999343872	
49	224.8823869228363	pulse	1	t		47.0	2.5	/experiments/AOT/AOT_stimuli/rescaled_final/0944_rv.mp4	0.0	246.17393803596497	
49	225.3985080718994	fix_post	2		12	47.0	2.5	/experiments/AOT/AOT_stimuli/rescaled_final/0944_rv.mp4	0.0	246.69005918502808	0.10042881965637207
50	225.4989368915558	fix_pre	0		119	48.0	2.5	/experiments/AOT/AOT_stimuli/rescaled_final/0645_fw.mp4	0.0	246.79048800468445	0.9915831089019775
50	226.48233294487	pulse	0	t		48.0	2.5	/experiments/AOT/AOT_stimuli/rescaled_final/0645_fw.mp4	0.0	247.77388405799866	
50	226.49052000045776	movie	1		246	48.0	2.5	/experiments/AOT/AOT_stimuli/rescaled_final/0645_fw.mp4	0.0	247.78207111358643	2.508363962173462
50	228.08203506469727	pulse	1	t		48.0	2.5	/experiments/AOT/AOT_stimuli/rescaled_final/0645_fw.mp4	0.0	249.37358617782593	
50	228.99888396263123	fix_post	2		12	48.0	2.5	/experiments/AOT/AOT_stimuli/rescaled_final/0645_fw.mp4	0.0	250.2904350757599	0.10002899169921875
51	229.09891295433044	fix_pre	0		120	49.0	2.5	blank	1.0	250.3904640674591	1.0000040531158447
51	229.67479491233826	pulse	0	t		49.0	2.5	blank	1.0	250.96634602546692	
51	230.0989170074463	movie	1		300	49.0	2.5	blank	1.0	251.39046812057495	2.499985933303833
51	231.27483201026917	pulse	1	t		49.0	2.5	blank	1.0	252.56638312339783	
51	232.59890294075012	fix_post	2		12	49.0	2.5	blank	1.0	253.89045405387878	0.10000109672546387
52	232.6989040374756	fix_pre	0		120	50.0	2.5	/experiments/AOT/AOT_stimuli/rescaled_final/1466_rv.mp4	0.0	253.99045515060425	0.9999070167541504
52	232.87480902671814	pulse	0	t		50.0	2.5	/experiments/AOT/AOT_stimuli/rescaled_final/1466_rv.mp4	0.0	254.1663601398468	
52	233.69881105422974	movie	1		243	50.0	2.5	/experiments/AOT/AOT_stimuli/rescaled_final/1466_rv.mp4	0.0	254.9903621673584	2.5000758171081543
52	234.47490406036377	pulse	1	t		50.0	2.5	/experiments/AOT/AOT_stimuli/rescaled_final/1466_rv.mp4	0.0	255.76645517349243	
52	236.08072209358215	pulse	1	t		50.0	2.5	/experiments/AOT/AOT_stimuli/rescaled_final/1466_rv.mp4	0.0	257.3722732067108	
52	236.1988868713379	fix_post	2		12	50.0	2.5	/experiments/AOT/AOT_stimuli/rescaled_final/1466_rv.mp4	0.0	257.49043798446655	0.0999140739440918
53	236.29880094528198	fix_pre	0		120	51.0	2.5	/experiments/AOT/AOT_stimuli/rescaled_final/0647_fw.mp4	0.0	257.59035205841064	0.999985933303833
53	237.29878687858582	movie	1		245	51.0	2.5	/experiments/AOT/AOT_stimuli/rescaled_final/0647_fw.mp4	0.0	258.5903379917145	2.5000040531158447
53	237.68163394927979	pulse	1	t		51.0	2.5	/experiments/AOT/AOT_stimuli/rescaled_final/0647_fw.mp4	0.0	258.97318506240845	
53	239.28220200538635	pulse	1	t		51.0	2.5	/experiments/AOT/AOT_stimuli/rescaled_final/0647_fw.mp4	0.0	260.573753118515	
53	239.79879093170166	fix_post	2		12	51.0	2.5	/experiments/AOT/AOT_stimuli/rescaled_final/0647_fw.mp4	0.0	261.0903420448303	0.10013198852539062
54	239.89892292022705	fix_pre	0		119	52.0	2.5	/experiments/AOT/AOT_stimuli/rescaled_final/0069_fw.mp4	0.0	261.1904740333557	0.9914760589599609
54	240.88231301307678	pulse	0	t		52.0	2.5	/experiments/AOT/AOT_stimuli/rescaled_final/0069_fw.mp4	0.0	262.17386412620544	
54	240.890398979187	movie	1		249	52.0	2.5	/experiments/AOT/AOT_stimuli/rescaled_final/0069_fw.mp4	0.0	262.1819500923157	2.508328914642334
54	242.48196506500244	pulse	1	t		52.0	2.5	/experiments/AOT/AOT_stimuli/rescaled_final/0069_fw.mp4	0.0	263.7735161781311	
54	243.39872789382935	fix_post	2		12	52.0	2.5	/experiments/AOT/AOT_stimuli/rescaled_final/0069_fw.mp4	0.0	264.690279006958	0.1000361442565918
55	243.49876403808594	fix_pre	0		120	53.0	2.5	/experiments/AOT/AOT_stimuli/rescaled_final/0292_rv.mp4	0.0	264.7903151512146	0.9999730587005615
55	244.08349800109863	pulse	0	t		53.0	2.5	/experiments/AOT/AOT_stimuli/rescaled_final/0292_rv.mp4	0.0	265.3750491142273	
55	244.4987370967865	movie	1		246	53.0	2.5	/experiments/AOT/AOT_stimuli/rescaled_final/0292_rv.mp4	0.0	265.79028820991516	2.500060796737671
55	245.68235397338867	pulse	1	t		53.0	2.5	/experiments/AOT/AOT_stimuli/rescaled_final/0292_rv.mp4	0.0	266.97390508651733	
55	246.99879789352417	fix_post	2		12	53.0	2.5	/experiments/AOT/AOT_stimuli/rescaled_final/0292_rv.mp4	0.0	268.29034900665283	0.10005497932434082
56	247.0988528728485	fix_pre	0		120	54.0	2.5	/experiments/AOT/AOT_stimuli/rescaled_final/1948_rv.mp4	0.0	268.3904039859772	0.9999871253967285
56	247.2747631072998	pulse	0	t		54.0	2.5	/experiments/AOT/AOT_stimuli/rescaled_final/1948_rv.mp4	0.0	268.56631422042847	
56	248.09883999824524	movie	1		244	54.0	2.5	/experiments/AOT/AOT_stimuli/rescaled_final/1948_rv.mp4	0.0	269.3903911113739	2.4999170303344727
56	248.87478709220886	pulse	1	t		54.0	2.5	/experiments/AOT/AOT_stimuli/rescaled_final/1948_rv.mp4	0.0	270.1663382053375	
56	250.47823095321655	pulse	1	t		54.0	2.5	/experiments/AOT/AOT_stimuli/rescaled_final/1948_rv.mp4	0.0	271.7697820663452	
56	250.5987570285797	fix_post	2		12	54.0	2.5	/experiments/AOT/AOT_stimuli/rescaled_final/1948_rv.mp4	0.0	271.8903081417084	0.09998893737792969
57	250.69874596595764	fix_pre	0		120	55.0	2.5	blank	1.0	271.9902970790863	1.0000369548797607
57	251.6987829208374	movie	1		300	55.0	2.5	blank	1.0	272.99033403396606	2.500033140182495
57	252.07470297813416	pulse	1	t		55.0	2.5	blank	1.0	273.3662540912628	
57	253.6746370792389	pulse	1	t		55.0	2.5	blank	1.0	274.96618819236755	
57	254.1988160610199	fix_post	2		12	55.0	2.5	blank	1.0	275.49036717414856	0.09998798370361328
58	254.2988040447235	fix_pre	0		119	56.0	2.5	/experiments/AOT/AOT_stimuli/rescaled_final/1434_fw.mp4	0.0	275.5903551578522	0.9916520118713379
58	255.28225207328796	pulse	0	t		56.0	2.5	/experiments/AOT/AOT_stimuli/rescaled_final/1434_fw.mp4	0.0	276.5738031864166	
58	255.29045605659485	movie	1		248	56.0	2.5	/experiments/AOT/AOT_stimuli/rescaled_final/1434_fw.mp4	0.0	276.5820071697235	2.507843017578125
58	256.88221406936646	pulse	1	t		56.0	2.5	/experiments/AOT/AOT_stimuli/rescaled_final/1434_fw.mp4	0.0	278.1737651824951	
58	257.798299074173	fix_post	2		12	56.0	2.5	/experiments/AOT/AOT_stimuli/rescaled_final/1434_fw.mp4	0.0	279.08985018730164	0.10044980049133301
59	257.8987488746643	fix_pre	0		120	57.0	2.5	/experiments/AOT/AOT_stimuli/rescaled_final/1899_fw.mp4	0.0	279.19029998779297	0.9999761581420898
59	258.48185110092163	pulse	0	t		57.0	2.5	/experiments/AOT/AOT_stimuli/rescaled_final/1899_fw.mp4	0.0	279.7734022140503	
59	258.8987250328064	movie	1		244	57.0	2.5	/experiments/AOT/AOT_stimuli/rescaled_final/1899_fw.mp4	0.0	280.19027614593506	2.500062942504883
59	260.08206510543823	pulse	1	t		57.0	2.5	/experiments/AOT/AOT_stimuli/rescaled_final/1899_fw.mp4	0.0	281.3736162185669	
59	261.3987879753113	fix_post	2		12	57.0	2.5	/experiments/AOT/AOT_stimuli/rescaled_final/1899_fw.mp4	0.0	282.69033908843994	0.09997391700744629
60	261.4987618923187	fix_pre	0		120	58.0	2.5	/experiments/AOT/AOT_stimuli/rescaled_final/1786_rv.mp4	0.0	282.7903130054474	0.9999639987945557
60	261.6822850704193	pulse	0	t		58.0	2.5	/experiments/AOT/AOT_stimuli/rescaled_final/1786_rv.mp4	0.0	282.973836183548	
60	262.4987258911133	movie	1		247	58.0	2.5	/experiments/AOT/AOT_stimuli/rescaled_final/1786_rv.mp4	0.0	283.79027700424194	2.499953031539917
60	263.28215503692627	pulse	1	t		58.0	2.5	/experiments/AOT/AOT_stimuli/rescaled_final/1786_rv.mp4	0.0	284.57370615005493	
60	264.8781909942627	pulse	1	t		58.0	2.5	/experiments/AOT/AOT_stimuli/rescaled_final/1786_rv.mp4	0.0	286.16974210739136	
60	264.9986789226532	fix_post	2		12	58.0	2.5	/experiments/AOT/AOT_stimuli/rescaled_final/1786_rv.mp4	0.0	286.29023003578186	0.10005712509155273
61	265.09873604774475	fix_pre	0		120	59.0	2.5	/experiments/AOT/AOT_stimuli/rescaled_final/0505_rv.mp4	0.0	286.3902871608734	0.9999198913574219
61	266.0986559391022	movie	1		247	59.0	2.5	/experiments/AOT/AOT_stimuli/rescaled_final/0505_rv.mp4	0.0	287.39020705223083	2.499667167663574
61	266.4817659854889	pulse	1	t		59.0	2.5	/experiments/AOT/AOT_stimuli/rescaled_final/0505_rv.mp4	0.0	287.77331709861755	
61	268.0748190879822	pulse	1	t		59.0	2.5	/experiments/AOT/AOT_stimuli/rescaled_final/0505_rv.mp4	0.0	289.36637020111084	
61	268.59832310676575	fix_post	2		12	59.0	2.5	/experiments/AOT/AOT_stimuli/rescaled_final/0505_rv.mp4	0.0	289.8898742198944	0.10030889511108398
62	268.69863200187683	fix_pre	0		119	60.0	2.5	/experiments/AOT/AOT_stimuli/rescaled_final/0063_fw.mp4	0.0	289.9901831150055	0.9917070865631104
62	269.67460894584656	pulse	0	t		60.0	2.5	/experiments/AOT/AOT_stimuli/rescaled_final/0063_fw.mp4	0.0	290.9661600589752	
62	269.69033908843994	movie	1		247	60.0	2.5	/experiments/AOT/AOT_stimuli/rescaled_final/0063_fw.mp4	0.0	290.9818902015686	2.5079338550567627
62	271.28177404403687	pulse	1	t		60.0	2.5	/experiments/AOT/AOT_stimuli/rescaled_final/0063_fw.mp4	0.0	292.5733251571655	
62	272.1982729434967	fix_post	2		12	60.0	2.5	/experiments/AOT/AOT_stimuli/rescaled_final/0063_fw.mp4	0.0	293.48982405662537	0.10039901733398438
63	272.2986719608307	fix_pre	0		120	61.0	2.5	blank	1.0	293.59022307395935	0.9999721050262451
63	272.8821310997009	pulse	0	t		61.0	2.5	blank	1.0	294.1736822128296	
63	273.29864406585693	movie	1		300	61.0	2.5	blank	1.0	294.5901951789856	2.5000228881835938
63	274.48206090927124	pulse	1	t		61.0	2.5	blank	1.0	295.7736120223999	
63	275.7986669540405	fix_post	2		12	61.0	2.5	blank	1.0	297.0902180671692	0.09997391700744629
64	275.898640871048	fix_pre	0		120	62.0	2.5	/experiments/AOT/AOT_stimuli/rescaled_final/0105_fw.mp4	0.0	297.19019198417664	0.9999260902404785
64	276.0821969509125	pulse	0	t		62.0	2.5	/experiments/AOT/AOT_stimuli/rescaled_final/0105_fw.mp4	0.0	297.37374806404114	
64	276.89856696128845	movie	1		243	62.0	2.5	/experiments/AOT/AOT_stimuli/rescaled_final/0105_fw.mp4	0.0	298.1901180744171	2.5001161098480225
64	277.68213987350464	pulse	1	t		62.0	2.5	/experiments/AOT/AOT_stimuli/rescaled_final/0105_fw.mp4	0.0	298.9736909866333	
64	279.2807378768921	pulse	1	t		62.0	2.5	/experiments/AOT/AOT_stimuli/rescaled_final/0105_fw.mp4	0.0	300.57228899002075	
64	279.3986830711365	fix_post	2		12	62.0	2.5	/experiments/AOT/AOT_stimuli/rescaled_final/0105_fw.mp4	0.0	300.69023418426514	0.10008382797241211
65	279.4987668991089	fix_pre	0		120	63.0	2.5	/experiments/AOT/AOT_stimuli/rescaled_final/0527_rv.mp4	0.0	300.79031801223755	0.999885082244873
65	280.49865198135376	movie	1		243	63.0	2.5	/experiments/AOT/AOT_stimuli/rescaled_final/0527_rv.mp4	0.0	301.7902030944824	2.4999990463256836
65	280.88234305381775	pulse	1	t		63.0	2.5	/experiments/AOT/AOT_stimuli/rescaled_final/0527_rv.mp4	0.0	302.1738941669464	
65	282.4747109413147	pulse	1	t		63.0	2.5	/experiments/AOT/AOT_stimuli/rescaled_final/0527_rv.mp4	0.0	303.76626205444336	
65	282.99865102767944	fix_post	2		12	63.0	2.5	/experiments/AOT/AOT_stimuli/rescaled_final/0527_rv.mp4	0.0	304.2902021408081	0.09994697570800781
66	283.09859800338745	fix_pre	0		119	64.0	2.5	/experiments/AOT/AOT_stimuli/rescaled_final/1756_rv.mp4	0.0	304.3901491165161	0.9915869235992432
66	284.0746560096741	pulse	0	t		64.0	2.5	/experiments/AOT/AOT_stimuli/rescaled_final/1756_rv.mp4	0.0	305.36620712280273	
66	284.0901849269867	movie	1		245	64.0	2.5	/experiments/AOT/AOT_stimuli/rescaled_final/1756_rv.mp4	0.0	305.38173604011536	2.508315086364746
66	285.68157291412354	pulse	1	t		64.0	2.5	/experiments/AOT/AOT_stimuli/rescaled_final/1756_rv.mp4	0.0	306.9731240272522	
66	286.59850001335144	fix_post	2		12	64.0	2.5	/experiments/AOT/AOT_stimuli/rescaled_final/1756_rv.mp4	0.0	307.8900511264801	0.10007190704345703
67	286.6985719203949	fix_pre	0		120	65.0	2.5	/experiments/AOT/AOT_stimuli/rescaled_final/1225_rv.mp4	0.0	307.99012303352356	0.9999351501464844
67	287.28203892707825	pulse	0	t		65.0	2.5	/experiments/AOT/AOT_stimuli/rescaled_final/1225_rv.mp4	0.0	308.5735900402069	
67	287.6985070705414	movie	1		247	65.0	2.5	/experiments/AOT/AOT_stimuli/rescaled_final/1225_rv.mp4	0.0	308.99005818367004	2.5001330375671387
67	288.8821918964386	pulse	1	t		65.0	2.5	/experiments/AOT/AOT_stimuli/rescaled_final/1225_rv.mp4	0.0	310.17374300956726	
67	290.1986401081085	fix_post	2		12	65.0	2.5	/experiments/AOT/AOT_stimuli/rescaled_final/1225_rv.mp4	0.0	311.4901912212372	0.0998988151550293
68	290.29853892326355	fix_pre	0		120	66.0	2.5	/experiments/AOT/AOT_stimuli/rescaled_final/2078_rv.mp4	0.0	311.5900900363922	1.000025987625122
68	290.48199009895325	pulse	0	t		66.0	2.5	/experiments/AOT/AOT_stimuli/rescaled_final/2078_rv.mp4	0.0	311.7735412120819	
68	291.2985649108887	movie	1		244	66.0	2.5	/experiments/AOT/AOT_stimuli/rescaled_final/2078_rv.mp4	0.0	312.59011602401733	2.4999799728393555
68	292.08198595046997	pulse	1	t		66.0	2.5	/experiments/AOT/AOT_stimuli/rescaled_final/2078_rv.mp4	0.0	313.37353706359863	
68	293.6806609630585	pulse	1	t		66.0	2.5	/experiments/AOT/AOT_stimuli/rescaled_final/2078_rv.mp4	0.0	314.97221207618713	
68	293.798544883728	fix_post	2		12	66.0	2.5	/experiments/AOT/AOT_stimuli/rescaled_final/2078_rv.mp4	0.0	315.0900959968567	0.10013198852539062
69	293.8986768722534	fix_pre	0		120	67.0	2.5	/experiments/AOT/AOT_stimuli/rescaled_final/1701_fw.mp4	0.0	315.1902279853821	0.9997811317443848
69	294.8984580039978	movie	1		244	67.0	2.5	/experiments/AOT/AOT_stimuli/rescaled_final/1701_fw.mp4	0.0	316.19000911712646	2.5000669956207275
69	295.28166007995605	pulse	1	t		67.0	2.5	/experiments/AOT/AOT_stimuli/rescaled_final/1701_fw.mp4	0.0	316.5732111930847	
69	296.87479305267334	pulse	1	t		67.0	2.5	/experiments/AOT/AOT_stimuli/rescaled_final/1701_fw.mp4	0.0	318.166344165802	
69	297.39852499961853	fix_post	2		12	67.0	2.5	/experiments/AOT/AOT_stimuli/rescaled_final/1701_fw.mp4	0.0	318.6900761127472	0.10002493858337402
70	297.4985499382019	fix_pre	0		119	68.0	2.5	blank	1.0	318.79010105133057	0.9915800094604492
70	298.48197388648987	pulse	0	t		68.0	2.5	blank	1.0	319.77352499961853	
70	298.49012994766235	movie	1		301	68.0	2.5	blank	1.0	319.781681060791	2.508410930633545
70	300.07453203201294	pulse	1	t		68.0	2.5	blank	1.0	321.3660831451416	
70	300.9985408782959	fix_post	2		12	68.0	2.5	blank	1.0	322.29009199142456	0.09992814064025879
71	301.09846901893616	fix_pre	0		120	69.0	2.5	/experiments/AOT/AOT_stimuli/rescaled_final/0966_rv.mp4	0.0	322.3900201320648	1.0000600814819336
71	301.68201899528503	pulse	0	t		69.0	2.5	/experiments/AOT/AOT_stimuli/rescaled_final/0966_rv.mp4	0.0	322.9735701084137	
71	302.0985291004181	movie	1		244	69.0	2.5	/experiments/AOT/AOT_stimuli/rescaled_final/0966_rv.mp4	0.0	323.39008021354675	2.499994993209839
71	303.28207087516785	pulse	1	t		69.0	2.5	/experiments/AOT/AOT_stimuli/rescaled_final/0966_rv.mp4	0.0	324.5736219882965	
71	304.59852409362793	fix_post	2		12	69.0	2.5	/experiments/AOT/AOT_stimuli/rescaled_final/0966_rv.mp4	0.0	325.8900752067566	0.09998679161071777
72	304.69851088523865	fix_pre	0		120	70.0	2.5	/experiments/AOT/AOT_stimuli/rescaled_final/0110_fw.mp4	0.0	325.9900619983673	0.9999480247497559
72	304.8820240497589	pulse	0	t		70.0	2.5	/experiments/AOT/AOT_stimuli/rescaled_final/0110_fw.mp4	0.0	326.1735751628876	
72	305.6984589099884	movie	1		243	70.0	2.5	/experiments/AOT/AOT_stimuli/rescaled_final/0110_fw.mp4	0.0	326.99001002311707	2.4995920658111572
72	306.48203206062317	pulse	1	t		70.0	2.5	/experiments/AOT/AOT_stimuli/rescaled_final/0110_fw.mp4	0.0	327.77358317375183	
72	308.08043694496155	pulse	1	t		70.0	2.5	/experiments/AOT/AOT_stimuli/rescaled_final/0110_fw.mp4	0.0	329.3719880580902	
72	308.19805097579956	fix_post	2		12	70.0	2.5	/experiments/AOT/AOT_stimuli/rescaled_final/0110_fw.mp4	0.0	329.4896020889282	0.1004021167755127
73	308.2984530925751	fix_pre	0		120	71.0	2.5	/experiments/AOT/AOT_stimuli/rescaled_final/2075_fw.mp4	0.0	329.59000420570374	1.0000379085540771
73	309.29849100112915	movie	1		244	71.0	2.5	/experiments/AOT/AOT_stimuli/rescaled_final/2075_fw.mp4	0.0	330.5900421142578	2.500011920928955
73	309.6817090511322	pulse	1	t		71.0	2.5	/experiments/AOT/AOT_stimuli/rescaled_final/2075_fw.mp4	0.0	330.97326016426086	
73	311.28206396102905	pulse	1	t		71.0	2.5	/experiments/AOT/AOT_stimuli/rescaled_final/2075_fw.mp4	0.0	332.5736150741577	
73	311.7985029220581	fix_post	2		12	71.0	2.5	/experiments/AOT/AOT_stimuli/rescaled_final/2075_fw.mp4	0.0	333.09005403518677	0.09998106956481934
74	311.8984839916229	fix_pre	0		119	72.0	2.5	/experiments/AOT/AOT_stimuli/rescaled_final/0554_fw.mp4	0.0	333.1900351047516	0.9917058944702148
74	312.88198494911194	pulse	0	t		72.0	2.5	/experiments/AOT/AOT_stimuli/rescaled_final/0554_fw.mp4	0.0	334.1735360622406	
74	312.89018988609314	movie	1		247	72.0	2.5	/experiments/AOT/AOT_stimuli/rescaled_final/0554_fw.mp4	0.0	334.1817409992218	2.5080649852752686
74	314.48110008239746	pulse	1	t		72.0	2.5	/experiments/AOT/AOT_stimuli/rescaled_final/0554_fw.mp4	0.0	335.7726511955261	
74	315.3982548713684	fix_post	2		12	72.0	2.5	/experiments/AOT/AOT_stimuli/rescaled_final/0554_fw.mp4	0.0	336.68980598449707	0.09995722770690918
75	315.4982120990753	fix_pre	0		120	73.0	2.5	/experiments/AOT/AOT_stimuli/rescaled_final/0785_rv.mp4	0.0	336.789763212204	1.000194787979126
75	316.0818181037903	pulse	0	t		73.0	2.5	/experiments/AOT/AOT_stimuli/rescaled_final/0785_rv.mp4	0.0	337.37336921691895	
75	316.49840688705444	movie	1		244	73.0	2.5	/experiments/AOT/AOT_stimuli/rescaled_final/0785_rv.mp4	0.0	337.7899580001831	2.5000171661376953
75	317.68206787109375	pulse	1	t		73.0	2.5	/experiments/AOT/AOT_stimuli/rescaled_final/0785_rv.mp4	0.0	338.9736189842224	
75	318.99842405319214	fix_post	2		12	73.0	2.5	/experiments/AOT/AOT_stimuli/rescaled_final/0785_rv.mp4	0.0	340.2899751663208	0.10002493858337402
76	319.0984489917755	fix_pre	0		120	74.0	2.5	/experiments/AOT/AOT_stimuli/rescaled_final/0346_rv.mp4	0.0	340.3900001049042	0.9999799728393555
76	319.2819550037384	pulse	0	t		74.0	2.5	/experiments/AOT/AOT_stimuli/rescaled_final/0346_rv.mp4	0.0	340.57350611686707	
76	320.09842896461487	movie	1		246	74.0	2.5	/experiments/AOT/AOT_stimuli/rescaled_final/0346_rv.mp4	0.0	341.38998007774353	2.500041961669922
76	320.8818619251251	pulse	1	t		74.0	2.5	/experiments/AOT/AOT_stimuli/rescaled_final/0346_rv.mp4	0.0	342.1734130382538	
76	322.478080034256	pulse	1	t		74.0	2.5	/experiments/AOT/AOT_stimuli/rescaled_final/0346_rv.mp4	0.0	343.76963114738464	
76	322.5984709262848	fix_post	2		12	74.0	2.5	/experiments/AOT/AOT_stimuli/rescaled_final/0346_rv.mp4	0.0	343.89002203941345	0.0999000072479248
77	322.6983709335327	fix_pre	0		120	75.0	2.5	/experiments/AOT/AOT_stimuli/rescaled_final/1605_rv.mp4	0.0	343.9899220466614	1.0000340938568115
77	323.6984050273895	movie	1		244	75.0	2.5	/experiments/AOT/AOT_stimuli/rescaled_final/1605_rv.mp4	0.0	344.9899561405182	2.4999539852142334
77	324.0816628932953	pulse	1	t		75.0	2.5	/experiments/AOT/AOT_stimuli/rescaled_final/1605_rv.mp4	0.0	345.37321400642395	
77	325.6818640232086	pulse	1	t		75.0	2.5	/experiments/AOT/AOT_stimuli/rescaled_final/1605_rv.mp4	0.0	346.9734151363373	
77	326.19835901260376	fix_post	2		12	75.0	2.5	/experiments/AOT/AOT_stimuli/rescaled_final/1605_rv.mp4	0.0	347.4899101257324	0.1000509262084961
78	326.29840993881226	fix_pre	0		119	76.0	2.5	/experiments/AOT/AOT_stimuli/rescaled_final/0269_rv.mp4	0.0	347.5899610519409	0.991685152053833
78	327.2818920612335	pulse	0	t		76.0	2.5	/experiments/AOT/AOT_stimuli/rescaled_final/0269_rv.mp4	0.0	348.5734431743622	
78	327.2900950908661	movie	1		246	76.0	2.5	/experiments/AOT/AOT_stimuli/rescaled_final/0269_rv.mp4	0.0	348.58164620399475	2.508328914642334
78	328.8815848827362	pulse	1	t		76.0	2.5	/experiments/AOT/AOT_stimuli/rescaled_final/0269_rv.mp4	0.0	350.17313599586487	
78	329.7984240055084	fix_post	2		12	76.0	2.5	/experiments/AOT/AOT_stimuli/rescaled_final/0269_rv.mp4	0.0	351.0899751186371	0.09995794296264648
79	329.89838194847107	fix_pre	0		120	77.0	2.5	blank	1.0	351.18993306159973	1.0001709461212158
79	330.4818720817566	pulse	0	t		77.0	2.5	blank	1.0	351.77342319488525	
79	330.8985528945923	movie	1		300	77.0	2.5	blank	1.0	352.19010400772095	2.499433994293213
79	332.0819048881531	pulse	1	t		77.0	2.5	blank	1.0	353.37345600128174	
79	333.3979868888855	fix_post	2		12	77.0	2.5	blank	1.0	354.68953800201416	0.1004171371459961
80	333.4984040260315	fix_pre	0		120	78.0	2.5	/experiments/AOT/AOT_stimuli/rescaled_final/0645_rv.mp4	0.0	354.78995513916016	1.0000388622283936
80	333.6819350719452	pulse	0	t		78.0	2.5	/experiments/AOT/AOT_stimuli/rescaled_final/0645_rv.mp4	0.0	354.97348618507385	
80	334.4984428882599	movie	1		247	78.0	2.5	/experiments/AOT/AOT_stimuli/rescaled_final/0645_rv.mp4	0.0	355.78999400138855	2.5
80	335.28186106681824	pulse	1	t		78.0	2.5	/experiments/AOT/AOT_stimuli/rescaled_final/0645_rv.mp4	0.0	356.5734121799469	
80	336.87780499458313	pulse	1	t		78.0	2.5	/experiments/AOT/AOT_stimuli/rescaled_final/0645_rv.mp4	0.0	358.1693561077118	
80	336.9984428882599	fix_post	2		12	78.0	2.5	/experiments/AOT/AOT_stimuli/rescaled_final/0645_rv.mp4	0.0	358.28999400138855	0.09990406036376953
81	337.09834694862366	fix_pre	0		120	79.0	2.5	/experiments/AOT/AOT_stimuli/rescaled_final/0667_rv.mp4	0.0	358.3898980617523	1.0000839233398438
81	338.0984308719635	movie	1		243	79.0	2.5	/experiments/AOT/AOT_stimuli/rescaled_final/0667_rv.mp4	0.0	359.38998198509216	2.4999771118164062
81	338.4815170764923	pulse	1	t		79.0	2.5	/experiments/AOT/AOT_stimuli/rescaled_final/0667_rv.mp4	0.0	359.773068189621	
81	340.081759929657	pulse	1	t		79.0	2.5	/experiments/AOT/AOT_stimuli/rescaled_final/0667_rv.mp4	0.0	361.37331104278564	
81	340.5984079837799	fix_post	2		12	79.0	2.5	/experiments/AOT/AOT_stimuli/rescaled_final/0667_rv.mp4	0.0	361.88995909690857	0.10002589225769043
82	340.6984338760376	fix_pre	0		119	80.0	2.5	/experiments/AOT/AOT_stimuli/rescaled_final/0864_rv.mp4	0.0	361.98998498916626	0.9915142059326172
82	341.6817729473114	pulse	0	t		80.0	2.5	/experiments/AOT/AOT_stimuli/rescaled_final/0864_rv.mp4	0.0	362.97332406044006	
82	341.6899480819702	movie	1		244	80.0	2.5	/experiments/AOT/AOT_stimuli/rescaled_final/0864_rv.mp4	0.0	362.9814991950989	2.508366823196411
82	343.2816309928894	pulse	1	t		80.0	2.5	/experiments/AOT/AOT_stimuli/rescaled_final/0864_rv.mp4	0.0	364.57318210601807	
82	344.1983149051666	fix_post	2		12	80.0	2.5	/experiments/AOT/AOT_stimuli/rescaled_final/0864_rv.mp4	0.0	365.4898660182953	0.09999203681945801
83	344.2983069419861	fix_pre	0		120	81.0	2.5	/experiments/AOT/AOT_stimuli/rescaled_final/1434_rv.mp4	0.0	365.58985805511475	1.0000650882720947
83	344.881756067276	pulse	0	t		81.0	2.5	/experiments/AOT/AOT_stimuli/rescaled_final/1434_rv.mp4	0.0	366.17330718040466	
83	345.2983720302582	movie	1		244	81.0	2.5	/experiments/AOT/AOT_stimuli/rescaled_final/1434_rv.mp4	0.0	366.58992314338684	2.4999358654022217
83	346.48188996315	pulse	1	t		81.0	2.5	/experiments/AOT/AOT_stimuli/rescaled_final/1434_rv.mp4	0.0	367.7734410762787	
83	347.7983078956604	fix_post	2		12	81.0	2.5	/experiments/AOT/AOT_stimuli/rescaled_final/1434_rv.mp4	0.0	369.08985900878906	0.09997415542602539
84	347.8982820510864	fix_pre	0		120	82.0	2.5	blank	1.0	369.1898331642151	1.000074863433838
84	348.0818169116974	pulse	0	t		82.0	2.5	blank	1.0	369.37336802482605	
84	348.89835691452026	movie	1		300	82.0	2.5	blank	1.0	370.1899080276489	2.499981164932251
84	349.68176889419556	pulse	1	t		82.0	2.5	blank	1.0	370.9733200073242	
84	351.28176498413086	pulse	1	t		82.0	2.5	blank	1.0	372.5733160972595	
84	351.3983380794525	fix_post	2		12	82.0	2.5	blank	1.0	372.6898891925812	0.09997797012329102
85	351.4983160495758	fix_pre	0		120	83.0	2.5	/experiments/AOT/AOT_stimuli/rescaled_final/1987_rv.mp4	0.0	372.78986716270447	1.0000388622283936
85	352.4983549118042	movie	1		245	83.0	2.5	/experiments/AOT/AOT_stimuli/rescaled_final/1987_rv.mp4	0.0	373.78990602493286	2.499986171722412
85	352.8828589916229	pulse	1	t		83.0	2.5	/experiments/AOT/AOT_stimuli/rescaled_final/1987_rv.mp4	0.0	374.1744101047516	
85	354.48178005218506	pulse	1	t		83.0	2.5	/experiments/AOT/AOT_stimuli/rescaled_final/1987_rv.mp4	0.0	375.7733311653137	
85	354.9983410835266	fix_post	2		12	83.0	2.5	/experiments/AOT/AOT_stimuli/rescaled_final/1987_rv.mp4	0.0	376.2898921966553	0.09993195533752441
87	355.09827303886414	stim	0		1716					376.3898241519928	14.29954195022583
87	356.0817539691925	pulse	0	t						377.37330508232117	
87	357.6817469596863	pulse	0	t						378.97329807281494	
87	359.28169989585876	pulse	0	t						380.5732510089874	
87	360.881737947464	pulse	0	t						382.17328906059265	
87	362.4816930294037	pulse	0	t						383.77324414253235	
87	364.0816259384155	pulse	0	t						385.3731770515442	
87	365.68174290657043	pulse	0	t						386.9732940196991	
87	367.28168201446533	pulse	0	t						388.573233127594	
87	368.8816750049591	pulse	0	t						390.17322611808777	
