trial_nr	onset	event_type	phase	response	nr_frames	movie_index	movie_duration	movie_file	blank	onset_abs	duration
0	0.1504058837890625	stim	0		115					30.619999885559082	0.9584369659423828
0	1.100843906402588	response	0	space						31.570437908172607	
1	1.1088428497314453	stim	0		3788					31.578436851501465	31.5662260055542
1	32.671496868133545	pulse	0	t						63.141090869903564	
1	32.675068855285645	stim	1		1717					63.144662857055664	14.308313131332397
1	34.26702404022217	pulse	1	t						64.73661804199219	
1	35.86693787574768	pulse	1	t						66.3365318775177	
1	37.46691703796387	pulse	1	t						67.93651103973389	
1	39.0670428276062	pulse	1	t						69.53663682937622	
1	40.66680693626404	pulse	1	t						71.13640093803406	
1	42.26688599586487	pulse	1	t						72.73647999763489	
1	43.866858959198	pulse	1	t						74.33645296096802	
1	45.466877937316895	pulse	1	t						75.93647193908691	
2	46.98338198661804	fix_pre	0		11	0.0	2.5	/experiments/AOT/AOT_stimuli/rescaled_final/1970_fw.mp4	0.0	77.45297598838806	0.09168386459350586
2	47.06687688827515	pulse	0	t		0.0	2.5	/experiments/AOT/AOT_stimuli/rescaled_final/1970_fw.mp4	0.0	77.53647089004517	
2	47.07506585121155	movie	1		243	0.0	2.5	/experiments/AOT/AOT_stimuli/rescaled_final/1970_fw.mp4	0.0	77.54465985298157	2.5084071159362793
2	48.667726039886475	pulse	1	t		0.0	2.5	/experiments/AOT/AOT_stimuli/rescaled_final/1970_fw.mp4	0.0	79.1373200416565	
2	49.58347296714783	fix_post	2		12	0.0	2.5	/experiments/AOT/AOT_stimuli/rescaled_final/1970_fw.mp4	0.0	80.05306696891785	0.1000058650970459
3	49.68347883224487	fix_pre	0		120	1.0	2.5	/experiments/AOT/AOT_stimuli/rescaled_final/1905_rv.mp4	0.0	80.15307283401489	0.9999840259552002
3	50.26688194274902	pulse	0	t		1.0	2.5	/experiments/AOT/AOT_stimuli/rescaled_final/1905_rv.mp4	0.0	80.73647594451904	
3	50.68346285820007	movie	1		242	1.0	2.5	/experiments/AOT/AOT_stimuli/rescaled_final/1905_rv.mp4	0.0	81.15305685997009	2.4998891353607178
3	51.866994857788086	pulse	1	t		1.0	2.5	/experiments/AOT/AOT_stimuli/rescaled_final/1905_rv.mp4	0.0	82.3365888595581	
3	53.18335199356079	fix_post	2		12	1.0	2.5	/experiments/AOT/AOT_stimuli/rescaled_final/1905_rv.mp4	0.0	83.65294599533081	0.10004687309265137
4	53.28339886665344	fix_pre	0		120	2.0	2.5	/experiments/AOT/AOT_stimuli/rescaled_final/1089_fw.mp4	0.0	83.75299286842346	1.0000171661376953
4	53.46699094772339	pulse	0	t		2.0	2.5	/experiments/AOT/AOT_stimuli/rescaled_final/1089_fw.mp4	0.0	83.93658494949341	
4	54.28341603279114	movie	1		245	2.0	2.5	/experiments/AOT/AOT_stimuli/rescaled_final/1089_fw.mp4	0.0	84.75301003456116	2.4996249675750732
4	55.0669469833374	pulse	1	t		2.0	2.5	/experiments/AOT/AOT_stimuli/rescaled_final/1089_fw.mp4	0.0	85.53654098510742	
4	56.6651668548584	pulse	1	t		2.0	2.5	/experiments/AOT/AOT_stimuli/rescaled_final/1089_fw.mp4	0.0	87.13476085662842	
4	56.78304100036621	fix_post	2		12	2.0	2.5	/experiments/AOT/AOT_stimuli/rescaled_final/1089_fw.mp4	0.0	87.25263500213623	0.10007405281066895
5	56.88311505317688	fix_pre	0		120	3.0	2.5	/experiments/AOT/AOT_stimuli/rescaled_final/1337_fw.mp4	0.0	87.3527090549469	1.0001189708709717
5	57.88323402404785	movie	1		243	3.0	2.5	/experiments/AOT/AOT_stimuli/rescaled_final/1337_fw.mp4	0.0	88.35282802581787	2.500221014022827
5	58.26628303527832	pulse	1	t		3.0	2.5	/experiments/AOT/AOT_stimuli/rescaled_final/1337_fw.mp4	0.0	88.73587703704834	
5	59.866811990737915	pulse	1	t		3.0	2.5	/experiments/AOT/AOT_stimuli/rescaled_final/1337_fw.mp4	0.0	90.33640599250793	
5	60.38345503807068	fix_post	2		12	3.0	2.5	/experiments/AOT/AOT_stimuli/rescaled_final/1337_fw.mp4	0.0	90.8530490398407	0.09990882873535156
6	60.48336386680603	fix_pre	0		119	4.0	2.5	/experiments/AOT/AOT_stimuli/rescaled_final/2068_fw.mp4	0.0	90.95295786857605	0.9916269779205322
6	61.46686291694641	pulse	0	t		4.0	2.5	/experiments/AOT/AOT_stimuli/rescaled_final/2068_fw.mp4	0.0	91.93645691871643	
6	61.47499084472656	movie	1		244	4.0	2.5	/experiments/AOT/AOT_stimuli/rescaled_final/2068_fw.mp4	0.0	91.94458484649658	2.5082740783691406
6	63.0669219493866	pulse	1	t		4.0	2.5	/experiments/AOT/AOT_stimuli/rescaled_final/2068_fw.mp4	0.0	93.53651595115662	
6	63.9832649230957	fix_post	2		12	4.0	2.5	/experiments/AOT/AOT_stimuli/rescaled_final/2068_fw.mp4	0.0	94.45285892486572	0.10005807876586914
7	64.08332300186157	fix_pre	0		120	5.0	2.5	blank	1.0	94.55291700363159	1.0000150203704834
7	64.66676783561707	pulse	0	t		5.0	2.5	blank	1.0	95.13636183738708	
7	65.08333802223206	movie	1		300	5.0	2.5	blank	1.0	95.55293202400208	2.4998679161071777
7	66.26676392555237	pulse	1	t		5.0	2.5	blank	1.0	96.73635792732239	
7	67.58320593833923	fix_post	2		12	5.0	2.5	blank	1.0	98.05279994010925	0.10006093978881836
8	67.68326687812805	fix_pre	0		120	6.0	2.5	/experiments/AOT/AOT_stimuli/rescaled_final/0092_fw.mp4	0.0	98.15286087989807	1.0000109672546387
8	67.86678385734558	pulse	0	t		6.0	2.5	/experiments/AOT/AOT_stimuli/rescaled_final/0092_fw.mp4	0.0	98.3363778591156	
8	68.68327784538269	movie	1		244	6.0	2.5	/experiments/AOT/AOT_stimuli/rescaled_final/0092_fw.mp4	0.0	99.15287184715271	2.4999871253967285
8	69.46680283546448	pulse	1	t		6.0	2.5	/experiments/AOT/AOT_stimuli/rescaled_final/0092_fw.mp4	0.0	99.9363968372345	
8	71.06505990028381	pulse	1	t		6.0	2.5	/experiments/AOT/AOT_stimuli/rescaled_final/0092_fw.mp4	0.0	101.53465390205383	
8	71.18326497077942	fix_post	2		12	6.0	2.5	/experiments/AOT/AOT_stimuli/rescaled_final/0092_fw.mp4	0.0	101.65285897254944	0.09992504119873047
9	71.28319001197815	fix_pre	0		120	7.0	2.5	/experiments/AOT/AOT_stimuli/rescaled_final/2042_rv.mp4	0.0	101.75278401374817	1.0001039505004883
9	72.28329396247864	movie	1		247	7.0	2.5	/experiments/AOT/AOT_stimuli/rescaled_final/2042_rv.mp4	0.0	102.75288796424866	2.4999399185180664
9	72.66670298576355	pulse	1	t		7.0	2.5	/experiments/AOT/AOT_stimuli/rescaled_final/2042_rv.mp4	0.0	103.13629698753357	
9	74.26678800582886	pulse	1	t		7.0	2.5	/experiments/AOT/AOT_stimuli/rescaled_final/2042_rv.mp4	0.0	104.73638200759888	
9	74.7832338809967	fix_post	2		12	7.0	2.5	/experiments/AOT/AOT_stimuli/rescaled_final/2042_rv.mp4	0.0	105.25282788276672	0.09996604919433594
10	74.88319993019104	fix_pre	0		119	8.0	2.5	/experiments/AOT/AOT_stimuli/rescaled_final/0517_rv.mp4	0.0	105.35279393196106	0.991710901260376
10	75.86680102348328	pulse	0	t		8.0	2.5	/experiments/AOT/AOT_stimuli/rescaled_final/0517_rv.mp4	0.0	106.3363950252533	
10	75.87491083145142	movie	1		245	8.0	2.5	/experiments/AOT/AOT_stimuli/rescaled_final/0517_rv.mp4	0.0	106.34450483322144	2.508390188217163
10	77.46794700622559	pulse	1	t		8.0	2.5	/experiments/AOT/AOT_stimuli/rescaled_final/0517_rv.mp4	0.0	107.9375410079956	
10	78.38330101966858	fix_post	2		12	8.0	2.5	/experiments/AOT/AOT_stimuli/rescaled_final/0517_rv.mp4	0.0	108.8528950214386	0.09992289543151855
11	78.4832239151001	fix_pre	0		120	9.0	2.5	/experiments/AOT/AOT_stimuli/rescaled_final/0087_rv.mp4	0.0	108.95281791687012	0.9999680519104004
11	79.06669187545776	pulse	0	t		9.0	2.5	/experiments/AOT/AOT_stimuli/rescaled_final/0087_rv.mp4	0.0	109.53628587722778	
11	79.4831919670105	movie	1		243	9.0	2.5	/experiments/AOT/AOT_stimuli/rescaled_final/0087_rv.mp4	0.0	109.95278596878052	2.5000128746032715
11	80.66680002212524	pulse	1	t		9.0	2.5	/experiments/AOT/AOT_stimuli/rescaled_final/0087_rv.mp4	0.0	111.13639402389526	
11	81.98320484161377	fix_post	2		12	9.0	2.5	/experiments/AOT/AOT_stimuli/rescaled_final/0087_rv.mp4	0.0	112.45279884338379	0.09998822212219238
12	82.08319306373596	fix_pre	0		120	10.0	2.5	/experiments/AOT/AOT_stimuli/rescaled_final/2160_rv.mp4	0.0	112.55278706550598	1.000025987625122
12	82.26676797866821	pulse	0	t		10.0	2.5	/experiments/AOT/AOT_stimuli/rescaled_final/2160_rv.mp4	0.0	112.73636198043823	
12	83.08321905136108	movie	1		244	10.0	2.5	/experiments/AOT/AOT_stimuli/rescaled_final/2160_rv.mp4	0.0	113.5528130531311	2.5000228881835938
12	83.86667799949646	pulse	1	t		10.0	2.5	/experiments/AOT/AOT_stimuli/rescaled_final/2160_rv.mp4	0.0	114.33627200126648	
12	85.46263194084167	pulse	1	t		10.0	2.5	/experiments/AOT/AOT_stimuli/rescaled_final/2160_rv.mp4	0.0	115.9322259426117	
12	85.58324193954468	fix_post	2		12	10.0	2.5	/experiments/AOT/AOT_stimuli/rescaled_final/2160_rv.mp4	0.0	116.0528359413147	0.09997701644897461
13	85.68321895599365	fix_pre	0		120	11.0	2.5	/experiments/AOT/AOT_stimuli/rescaled_final/0920_fw.mp4	0.0	116.15281295776367	1.0000700950622559
13	86.68328905105591	movie	1		243	11.0	2.5	/experiments/AOT/AOT_stimuli/rescaled_final/0920_fw.mp4	0.0	117.15288305282593	2.499882936477661
13	87.06676006317139	pulse	1	t		11.0	2.5	/experiments/AOT/AOT_stimuli/rescaled_final/0920_fw.mp4	0.0	117.5363540649414	
13	88.66672205924988	pulse	1	t		11.0	2.5	/experiments/AOT/AOT_stimuli/rescaled_final/0920_fw.mp4	0.0	119.1363160610199	
13	89.18317198753357	fix_post	2		12	11.0	2.5	/experiments/AOT/AOT_stimuli/rescaled_final/0920_fw.mp4	0.0	119.65276598930359	0.10007905960083008
14	89.2832510471344	fix_pre	0		119	12.0	2.5	blank	1.0	119.75284504890442	0.9916348457336426
14	90.26672291755676	pulse	0	t		12.0	2.5	blank	1.0	120.73631691932678	
14	90.27488589286804	movie	1		301	12.0	2.5	blank	1.0	120.74447989463806	2.508316993713379
14	91.86670398712158	pulse	1	t		12.0	2.5	blank	1.0	122.3362979888916	
14	92.78320288658142	fix_post	2		12	12.0	2.5	blank	1.0	123.25279688835144	0.09995007514953613
15	92.88315296173096	fix_pre	0		120	13.0	2.5	/experiments/AOT/AOT_stimuli/rescaled_final/0655_rv.mp4	0.0	123.35274696350098	1.0001060962677002
15	93.46666193008423	pulse	0	t		13.0	2.5	/experiments/AOT/AOT_stimuli/rescaled_final/0655_rv.mp4	0.0	123.93625593185425	
15	93.88325905799866	movie	1		245	13.0	2.5	/experiments/AOT/AOT_stimuli/rescaled_final/0655_rv.mp4	0.0	124.35285305976868	2.4999499320983887
15	95.06682300567627	pulse	1	t		13.0	2.5	/experiments/AOT/AOT_stimuli/rescaled_final/0655_rv.mp4	0.0	125.53641700744629	
15	96.38320899009705	fix_post	2		12	13.0	2.5	/experiments/AOT/AOT_stimuli/rescaled_final/0655_rv.mp4	0.0	126.85280299186707	0.09999704360961914
16	96.48320603370667	fix_pre	0		120	14.0	2.5	/experiments/AOT/AOT_stimuli/rescaled_final/0967_rv.mp4	0.0	126.95280003547668	1.0000100135803223
16	96.66672801971436	pulse	0	t		14.0	2.5	/experiments/AOT/AOT_stimuli/rescaled_final/0967_rv.mp4	0.0	127.13632202148438	
16	97.48321604728699	movie	1		245	14.0	2.5	/experiments/AOT/AOT_stimuli/rescaled_final/0967_rv.mp4	0.0	127.952810049057	2.4999148845672607
16	98.26666784286499	pulse	1	t		14.0	2.5	/experiments/AOT/AOT_stimuli/rescaled_final/0967_rv.mp4	0.0	128.736261844635	
16	99.8663649559021	pulse	1	t		14.0	2.5	/experiments/AOT/AOT_stimuli/rescaled_final/0967_rv.mp4	0.0	130.33595895767212	
16	99.98313093185425	fix_post	2		12	14.0	2.5	/experiments/AOT/AOT_stimuli/rescaled_final/0967_rv.mp4	0.0	130.45272493362427	0.10009598731994629
17	100.0832269191742	fix_pre	0		120	15.0	2.5	/experiments/AOT/AOT_stimuli/rescaled_final/0925_fw.mp4	0.0	130.5528209209442	0.9998819828033447
17	101.08310890197754	movie	1		244	15.0	2.5	/experiments/AOT/AOT_stimuli/rescaled_final/0925_fw.mp4	0.0	131.55270290374756	2.5000860691070557
17	101.4667649269104	pulse	1	t		15.0	2.5	/experiments/AOT/AOT_stimuli/rescaled_final/0925_fw.mp4	0.0	131.93635892868042	
17	103.06650185585022	pulse	1	t		15.0	2.5	/experiments/AOT/AOT_stimuli/rescaled_final/0925_fw.mp4	0.0	133.53609585762024	
17	103.5831949710846	fix_post	2		12	15.0	2.5	/experiments/AOT/AOT_stimuli/rescaled_final/0925_fw.mp4	0.0	134.05278897285461	0.10001707077026367
18	103.68321204185486	fix_pre	0		119	16.0	2.5	/experiments/AOT/AOT_stimuli/rescaled_final/1154_rv.mp4	0.0	134.15280604362488	0.991675853729248
18	104.6666989326477	pulse	0	t		16.0	2.5	/experiments/AOT/AOT_stimuli/rescaled_final/1154_rv.mp4	0.0	135.13629293441772	
18	104.6748878955841	movie	1		244	16.0	2.5	/experiments/AOT/AOT_stimuli/rescaled_final/1154_rv.mp4	0.0	135.14448189735413	2.5082919597625732
18	106.26644086837769	pulse	1	t		16.0	2.5	/experiments/AOT/AOT_stimuli/rescaled_final/1154_rv.mp4	0.0	136.7360348701477	
18	107.18317985534668	fix_post	2		12	16.0	2.5	/experiments/AOT/AOT_stimuli/rescaled_final/1154_rv.mp4	0.0	137.6527738571167	0.10001611709594727
19	107.28319597244263	fix_pre	0		120	17.0	2.5	/experiments/AOT/AOT_stimuli/rescaled_final/0130_fw.mp4	0.0	137.75278997421265	0.9999239444732666
19	107.86652302742004	pulse	0	t		17.0	2.5	/experiments/AOT/AOT_stimuli/rescaled_final/0130_fw.mp4	0.0	138.33611702919006	
19	108.2831199169159	movie	1		243	17.0	2.5	/experiments/AOT/AOT_stimuli/rescaled_final/0130_fw.mp4	0.0	138.7527139186859	2.4995510578155518
19	109.46660089492798	pulse	1	t		17.0	2.5	/experiments/AOT/AOT_stimuli/rescaled_final/0130_fw.mp4	0.0	139.936194896698	
19	110.78267097473145	fix_post	2		12	17.0	2.5	/experiments/AOT/AOT_stimuli/rescaled_final/0130_fw.mp4	0.0	141.25226497650146	0.09999895095825195
20	110.8826699256897	fix_pre	0		120	18.0	2.5	/experiments/AOT/AOT_stimuli/rescaled_final/0485_fw.mp4	0.0	141.35226392745972	1.0000150203704834
20	111.06615686416626	pulse	0	t		18.0	2.5	/experiments/AOT/AOT_stimuli/rescaled_final/0485_fw.mp4	0.0	141.53575086593628	
20	111.88268494606018	movie	1		245	18.0	2.5	/experiments/AOT/AOT_stimuli/rescaled_final/0485_fw.mp4	0.0	142.3522789478302	2.500399112701416
20	112.66625094413757	pulse	1	t		18.0	2.5	/experiments/AOT/AOT_stimuli/rescaled_final/0485_fw.mp4	0.0	143.1358449459076	
20	114.2649998664856	pulse	1	t		18.0	2.5	/experiments/AOT/AOT_stimuli/rescaled_final/0485_fw.mp4	0.0	144.73459386825562	
20	114.3830840587616	fix_post	2		12	18.0	2.5	/experiments/AOT/AOT_stimuli/rescaled_final/0485_fw.mp4	0.0	144.85267806053162	0.1000058650970459
21	114.48308992385864	fix_pre	0		120	19.0	2.5	blank	1.0	144.95268392562866	0.9999649524688721
21	115.48305487632751	movie	1		300	19.0	2.5	blank	1.0	145.95264887809753	2.500030040740967
21	115.86660599708557	pulse	1	t		19.0	2.5	blank	1.0	146.3361999988556	
21	117.4665219783783	pulse	1	t		19.0	2.5	blank	1.0	147.93611598014832	
21	117.98308491706848	fix_post	2		12	19.0	2.5	blank	1.0	148.4526789188385	0.10007905960083008
22	118.08316397666931	fix_pre	0		119	20.0	2.5	/experiments/AOT/AOT_stimuli/rescaled_final/0703_fw.mp4	0.0	148.55275797843933	0.991487979888916
22	119.06650805473328	pulse	0	t		20.0	2.5	/experiments/AOT/AOT_stimuli/rescaled_final/0703_fw.mp4	0.0	149.5361020565033	
22	119.07465195655823	movie	1		245	20.0	2.5	/experiments/AOT/AOT_stimuli/rescaled_final/0703_fw.mp4	0.0	149.54424595832825	2.508065938949585
22	120.66677403450012	pulse	1	t		20.0	2.5	/experiments/AOT/AOT_stimuli/rescaled_final/0703_fw.mp4	0.0	151.13636803627014	
22	121.58271789550781	fix_post	2		12	20.0	2.5	/experiments/AOT/AOT_stimuli/rescaled_final/0703_fw.mp4	0.0	152.05231189727783	0.10028696060180664
23	121.68300485610962	fix_pre	0		120	21.0	2.5	/experiments/AOT/AOT_stimuli/rescaled_final/2146_rv.mp4	0.0	152.15259885787964	0.9995741844177246
23	122.2664909362793	pulse	0	t		21.0	2.5	/experiments/AOT/AOT_stimuli/rescaled_final/2146_rv.mp4	0.0	152.73608493804932	
23	122.68257904052734	movie	1		245	21.0	2.5	/experiments/AOT/AOT_stimuli/rescaled_final/2146_rv.mp4	0.0	153.15217304229736	2.5004220008850098
23	123.86657404899597	pulse	1	t		21.0	2.5	/experiments/AOT/AOT_stimuli/rescaled_final/2146_rv.mp4	0.0	154.336168050766	
23	125.18300104141235	fix_post	2		12	21.0	2.5	/experiments/AOT/AOT_stimuli/rescaled_final/2146_rv.mp4	0.0	155.65259504318237	0.09999680519104004
24	125.2829978466034	fix_pre	0		120	22.0	2.5	/experiments/AOT/AOT_stimuli/rescaled_final/0591_fw.mp4	0.0	155.7525918483734	1.0000741481781006
24	125.46651196479797	pulse	0	t		22.0	2.5	/experiments/AOT/AOT_stimuli/rescaled_final/0591_fw.mp4	0.0	155.936105966568	
24	126.2830719947815	movie	1		243	22.0	2.5	/experiments/AOT/AOT_stimuli/rescaled_final/0591_fw.mp4	0.0	156.7526659965515	2.4999780654907227
24	127.06648087501526	pulse	1	t		22.0	2.5	/experiments/AOT/AOT_stimuli/rescaled_final/0591_fw.mp4	0.0	157.53607487678528	
24	128.66506505012512	pulse	1	t		22.0	2.5	/experiments/AOT/AOT_stimuli/rescaled_final/0591_fw.mp4	0.0	159.13465905189514	
24	128.78305006027222	fix_post	2		12	22.0	2.5	/experiments/AOT/AOT_stimuli/rescaled_final/0591_fw.mp4	0.0	159.25264406204224	0.09988999366760254
25	128.88294005393982	fix_pre	0		120	23.0	2.5	/experiments/AOT/AOT_stimuli/rescaled_final/2053_fw.mp4	0.0	159.35253405570984	1.0000388622283936
25	129.8829789161682	movie	1		244	23.0	2.5	/experiments/AOT/AOT_stimuli/rescaled_final/2053_fw.mp4	0.0	160.35257291793823	2.499946117401123
25	130.26591205596924	pulse	1	t		23.0	2.5	/experiments/AOT/AOT_stimuli/rescaled_final/2053_fw.mp4	0.0	160.73550605773926	
25	131.86646795272827	pulse	1	t		23.0	2.5	/experiments/AOT/AOT_stimuli/rescaled_final/2053_fw.mp4	0.0	162.3360619544983	
25	132.38292503356934	fix_post	2		12	23.0	2.5	/experiments/AOT/AOT_stimuli/rescaled_final/2053_fw.mp4	0.0	162.85251903533936	0.10003089904785156
26	132.4829559326172	fix_pre	0		119	24.0	2.5	/experiments/AOT/AOT_stimuli/rescaled_final/1011_fw.mp4	0.0	162.9525499343872	0.9916601181030273
26	133.46648597717285	pulse	0	t		24.0	2.5	/experiments/AOT/AOT_stimuli/rescaled_final/1011_fw.mp4	0.0	163.93607997894287	
26	133.47461605072021	movie	1		245	24.0	2.5	/experiments/AOT/AOT_stimuli/rescaled_final/1011_fw.mp4	0.0	163.94421005249023	2.507957935333252
26	135.06606888771057	pulse	1	t		24.0	2.5	/experiments/AOT/AOT_stimuli/rescaled_final/1011_fw.mp4	0.0	165.5356628894806	
26	135.98257398605347	fix_post	2		12	24.0	2.5	/experiments/AOT/AOT_stimuli/rescaled_final/1011_fw.mp4	0.0	166.4521679878235	0.10045099258422852
27	136.0830249786377	fix_pre	0		120	25.0	2.5	/experiments/AOT/AOT_stimuli/rescaled_final/1601_fw.mp4	0.0	166.55261898040771	0.9998998641967773
27	136.66649103164673	pulse	0	t		25.0	2.5	/experiments/AOT/AOT_stimuli/rescaled_final/1601_fw.mp4	0.0	167.13608503341675	
27	137.08292484283447	movie	1		244	25.0	2.5	/experiments/AOT/AOT_stimuli/rescaled_final/1601_fw.mp4	0.0	167.5525188446045	2.500075101852417
27	138.26655888557434	pulse	1	t		25.0	2.5	/experiments/AOT/AOT_stimuli/rescaled_final/1601_fw.mp4	0.0	168.73615288734436	
27	139.5829999446869	fix_post	2		12	25.0	2.5	/experiments/AOT/AOT_stimuli/rescaled_final/1601_fw.mp4	0.0	170.0525939464569	0.09997105598449707
28	139.6829710006714	fix_pre	0		120	26.0	2.5	/experiments/AOT/AOT_stimuli/rescaled_final/0897_fw.mp4	0.0	170.1525650024414	0.9999809265136719
28	139.86645793914795	pulse	0	t		26.0	2.5	/experiments/AOT/AOT_stimuli/rescaled_final/0897_fw.mp4	0.0	170.33605194091797	
28	140.68295192718506	movie	1		244	26.0	2.5	/experiments/AOT/AOT_stimuli/rescaled_final/0897_fw.mp4	0.0	171.15254592895508	2.499985933303833
28	141.4664659500122	pulse	1	t		26.0	2.5	/experiments/AOT/AOT_stimuli/rescaled_final/0897_fw.mp4	0.0	171.93605995178223	
28	143.0650019645691	pulse	1	t		26.0	2.5	/experiments/AOT/AOT_stimuli/rescaled_final/0897_fw.mp4	0.0	173.5345959663391	
28	143.1829378604889	fix_post	2		12	26.0	2.5	/experiments/AOT/AOT_stimuli/rescaled_final/0897_fw.mp4	0.0	173.6525318622589	0.10000014305114746
29	143.28293800354004	fix_pre	0		120	27.0	2.5	blank	1.0	173.75253200531006	0.9999949932098389
29	144.28293299674988	movie	1		300	27.0	2.5	blank	1.0	174.7525269985199	2.499958038330078
29	144.66640400886536	pulse	1	t		27.0	2.5	blank	1.0	175.13599801063538	
29	146.26636004447937	pulse	1	t		27.0	2.5	blank	1.0	176.7359540462494	
29	146.78289103507996	fix_post	2		12	27.0	2.5	blank	1.0	177.25248503684998	0.09967994689941406
30	146.88257098197937	fix_pre	0		119	28.0	2.5	/experiments/AOT/AOT_stimuli/rescaled_final/1650_rv.mp4	0.0	177.3521649837494	0.9919660091400146
30	147.86641097068787	pulse	0	t		28.0	2.5	/experiments/AOT/AOT_stimuli/rescaled_final/1650_rv.mp4	0.0	178.33600497245789	
30	147.87453699111938	movie	1		243	28.0	2.5	/experiments/AOT/AOT_stimuli/rescaled_final/1650_rv.mp4	0.0	178.3441309928894	2.5084009170532227
30	149.46752285957336	pulse	1	t		28.0	2.5	/experiments/AOT/AOT_stimuli/rescaled_final/1650_rv.mp4	0.0	179.93711686134338	
30	150.3829379081726	fix_post	2		12	28.0	2.5	/experiments/AOT/AOT_stimuli/rescaled_final/1650_rv.mp4	0.0	180.85253190994263	0.09992814064025879
31	150.48286604881287	fix_pre	0		120	29.0	2.5	/experiments/AOT/AOT_stimuli/rescaled_final/0315_fw.mp4	0.0	180.95246005058289	1.000018835067749
31	151.06643295288086	pulse	0	t		29.0	2.5	/experiments/AOT/AOT_stimuli/rescaled_final/0315_fw.mp4	0.0	181.53602695465088	
31	151.48288488388062	movie	1		244	29.0	2.5	/experiments/AOT/AOT_stimuli/rescaled_final/0315_fw.mp4	0.0	181.95247888565063	2.5000619888305664
31	152.6665289402008	pulse	1	t		29.0	2.5	/experiments/AOT/AOT_stimuli/rescaled_final/0315_fw.mp4	0.0	183.13612294197083	
31	153.98294687271118	fix_post	2		12	29.0	2.5	/experiments/AOT/AOT_stimuli/rescaled_final/0315_fw.mp4	0.0	184.4525408744812	0.09992504119873047
32	154.0828719139099	fix_pre	0		120	30.0	2.5	/experiments/AOT/AOT_stimuli/rescaled_final/1675_fw.mp4	0.0	184.55246591567993	1.0000340938568115
32	154.2663869857788	pulse	0	t		30.0	2.5	/experiments/AOT/AOT_stimuli/rescaled_final/1675_fw.mp4	0.0	184.73598098754883	
32	155.08290600776672	movie	1		243	30.0	2.5	/experiments/AOT/AOT_stimuli/rescaled_final/1675_fw.mp4	0.0	185.55250000953674	2.49995493888855
32	155.86631393432617	pulse	1	t		30.0	2.5	/experiments/AOT/AOT_stimuli/rescaled_final/1675_fw.mp4	0.0	186.3359079360962	
32	157.46501398086548	pulse	1	t		30.0	2.5	/experiments/AOT/AOT_stimuli/rescaled_final/1675_fw.mp4	0.0	187.9346079826355	
32	157.58286094665527	fix_post	2		12	30.0	2.5	/experiments/AOT/AOT_stimuli/rescaled_final/1675_fw.mp4	0.0	188.0524549484253	0.10004091262817383
33	157.68290185928345	fix_pre	0		120	31.0	2.5	/experiments/AOT/AOT_stimuli/rescaled_final/1228_rv.mp4	0.0	188.15249586105347	0.999920129776001
33	158.68282198905945	movie	1		243	31.0	2.5	/experiments/AOT/AOT_stimuli/rescaled_final/1228_rv.mp4	0.0	189.15241599082947	2.500108003616333
33	159.06580305099487	pulse	1	t		31.0	2.5	/experiments/AOT/AOT_stimuli/rescaled_final/1228_rv.mp4	0.0	189.5353970527649	
33	160.66632199287415	pulse	1	t		31.0	2.5	/experiments/AOT/AOT_stimuli/rescaled_final/1228_rv.mp4	0.0	191.13591599464417	
33	161.18292999267578	fix_post	2		12	31.0	2.5	/experiments/AOT/AOT_stimuli/rescaled_final/1228_rv.mp4	0.0	191.6525239944458	0.09990096092224121
34	161.28283095359802	fix_pre	0		119	32.0	2.5	/experiments/AOT/AOT_stimuli/rescaled_final/0912_fw.mp4	0.0	191.75242495536804	0.9916689395904541
34	162.2664029598236	pulse	0	t		32.0	2.5	/experiments/AOT/AOT_stimuli/rescaled_final/0912_fw.mp4	0.0	192.73599696159363	
34	162.27449989318848	movie	1		246	32.0	2.5	/experiments/AOT/AOT_stimuli/rescaled_final/0912_fw.mp4	0.0	192.7440938949585	2.5078840255737305
34	163.86732697486877	pulse	1	t		32.0	2.5	/experiments/AOT/AOT_stimuli/rescaled_final/0912_fw.mp4	0.0	194.3369209766388	
34	164.7823839187622	fix_post	2		12	32.0	2.5	/experiments/AOT/AOT_stimuli/rescaled_final/0912_fw.mp4	0.0	195.25197792053223	0.10053610801696777
35	164.88292002677917	fix_pre	0		120	33.0	2.5	/experiments/AOT/AOT_stimuli/rescaled_final/2068_rv.mp4	0.0	195.3525140285492	0.9999368190765381
35	165.4663209915161	pulse	0	t		33.0	2.5	/experiments/AOT/AOT_stimuli/rescaled_final/2068_rv.mp4	0.0	195.93591499328613	
35	165.8828568458557	movie	1		245	33.0	2.5	/experiments/AOT/AOT_stimuli/rescaled_final/2068_rv.mp4	0.0	196.35245084762573	2.499763011932373
35	167.06641697883606	pulse	1	t		33.0	2.5	/experiments/AOT/AOT_stimuli/rescaled_final/2068_rv.mp4	0.0	197.53601098060608	
35	168.3826198577881	fix_post	2		12	33.0	2.5	/experiments/AOT/AOT_stimuli/rescaled_final/2068_rv.mp4	0.0	198.8522138595581	0.09991717338562012
36	168.4825370311737	fix_pre	0		120	34.0	2.5	/experiments/AOT/AOT_stimuli/rescaled_final/1617_rv.mp4	0.0	198.95213103294373	1.0002589225769043
36	168.66641783714294	pulse	0	t		34.0	2.5	/experiments/AOT/AOT_stimuli/rescaled_final/1617_rv.mp4	0.0	199.13601183891296	
36	169.4827959537506	movie	1		244	34.0	2.5	/experiments/AOT/AOT_stimuli/rescaled_final/1617_rv.mp4	0.0	199.95238995552063	2.5001730918884277
36	170.26624703407288	pulse	1	t		34.0	2.5	/experiments/AOT/AOT_stimuli/rescaled_final/1617_rv.mp4	0.0	200.7358410358429	
36	171.86475896835327	pulse	1	t		34.0	2.5	/experiments/AOT/AOT_stimuli/rescaled_final/1617_rv.mp4	0.0	202.3343529701233	
36	171.98296904563904	fix_post	2		12	34.0	2.5	/experiments/AOT/AOT_stimuli/rescaled_final/1617_rv.mp4	0.0	202.45256304740906	0.09989690780639648
37	172.08286595344543	fix_pre	0		120	35.0	2.5	blank	1.0	202.55245995521545	0.9999098777770996
37	173.08277583122253	movie	1		300	35.0	2.5	blank	1.0	203.55236983299255	2.500047206878662
37	173.46622896194458	pulse	1	t		35.0	2.5	blank	1.0	203.9358229637146	
37	175.06621193885803	pulse	1	t		35.0	2.5	blank	1.0	205.53580594062805	
37	175.5828230381012	fix_post	2		12	35.0	2.5	blank	1.0	206.05241703987122	0.09991884231567383
38	175.68274188041687	fix_pre	0		119	36.0	2.5	/experiments/AOT/AOT_stimuli/rescaled_final/1838_fw.mp4	0.0	206.1523358821869	0.9916911125183105
38	176.66624283790588	pulse	0	t		36.0	2.5	/experiments/AOT/AOT_stimuli/rescaled_final/1838_fw.mp4	0.0	207.1358368396759	
38	176.67443299293518	movie	1		244	36.0	2.5	/experiments/AOT/AOT_stimuli/rescaled_final/1838_fw.mp4	0.0	207.1440269947052	2.5084469318389893
38	178.26619696617126	pulse	1	t		36.0	2.5	/experiments/AOT/AOT_stimuli/rescaled_final/1838_fw.mp4	0.0	208.73579096794128	
38	179.18287992477417	fix_post	2		12	36.0	2.5	/experiments/AOT/AOT_stimuli/rescaled_final/1838_fw.mp4	0.0	209.6524739265442	0.09989404678344727
39	179.28277397155762	fix_pre	0		120	37.0	2.5	/experiments/AOT/AOT_stimuli/rescaled_final/0282_fw.mp4	0.0	209.75236797332764	1.0000200271606445
39	179.86632990837097	pulse	0	t		37.0	2.5	/experiments/AOT/AOT_stimuli/rescaled_final/0282_fw.mp4	0.0	210.335923910141	
39	180.28279399871826	movie	1		245	37.0	2.5	/experiments/AOT/AOT_stimuli/rescaled_final/0282_fw.mp4	0.0	210.75238800048828	2.499950885772705
39	181.46625685691833	pulse	1	t		37.0	2.5	/experiments/AOT/AOT_stimuli/rescaled_final/0282_fw.mp4	0.0	211.93585085868835	
39	182.78274488449097	fix_post	2		12	37.0	2.5	/experiments/AOT/AOT_stimuli/rescaled_final/0282_fw.mp4	0.0	213.252338886261	0.09998297691345215
40	182.88272786140442	fix_pre	0		120	38.0	2.5	/experiments/AOT/AOT_stimuli/rescaled_final/0730_rv.mp4	0.0	213.35232186317444	1.0000200271606445
40	183.0661518573761	pulse	0	t		38.0	2.5	/experiments/AOT/AOT_stimuli/rescaled_final/0730_rv.mp4	0.0	213.53574585914612	
40	183.88274788856506	movie	1		243	38.0	2.5	/experiments/AOT/AOT_stimuli/rescaled_final/0730_rv.mp4	0.0	214.35234189033508	2.499530076980591
40	184.666198015213	pulse	1	t		38.0	2.5	/experiments/AOT/AOT_stimuli/rescaled_final/0730_rv.mp4	0.0	215.13579201698303	
40	186.26451587677002	pulse	1	t		38.0	2.5	/experiments/AOT/AOT_stimuli/rescaled_final/0730_rv.mp4	0.0	216.73410987854004	
40	186.38227796554565	fix_post	2		12	38.0	2.5	/experiments/AOT/AOT_stimuli/rescaled_final/0730_rv.mp4	0.0	216.85187196731567	0.10056304931640625
41	186.48284101486206	fix_pre	0		120	39.0	2.5	/experiments/AOT/AOT_stimuli/rescaled_final/1696_rv.mp4	0.0	216.95243501663208	0.9995079040527344
41	187.4823489189148	movie	1		245	39.0	2.5	/experiments/AOT/AOT_stimuli/rescaled_final/1696_rv.mp4	0.0	217.95194292068481	2.500396966934204
41	187.86590886116028	pulse	1	t		39.0	2.5	/experiments/AOT/AOT_stimuli/rescaled_final/1696_rv.mp4	0.0	218.3355028629303	
41	189.46622896194458	pulse	1	t		39.0	2.5	/experiments/AOT/AOT_stimuli/rescaled_final/1696_rv.mp4	0.0	219.9358229637146	
41	189.982745885849	fix_post	2		12	39.0	2.5	/experiments/AOT/AOT_stimuli/rescaled_final/1696_rv.mp4	0.0	220.45233988761902	0.099945068359375
42	190.08269095420837	fix_pre	0		119	40.0	2.5	/experiments/AOT/AOT_stimuli/rescaled_final/1450_rv.mp4	0.0	220.5522849559784	0.991645097732544
42	191.0662009716034	pulse	0	t		40.0	2.5	/experiments/AOT/AOT_stimuli/rescaled_final/1450_rv.mp4	0.0	221.5357949733734	
42	191.07433605194092	movie	1		244	40.0	2.5	/experiments/AOT/AOT_stimuli/rescaled_final/1450_rv.mp4	0.0	221.54393005371094	2.5082428455352783
42	192.6659848690033	pulse	1	t		40.0	2.5	/experiments/AOT/AOT_stimuli/rescaled_final/1450_rv.mp4	0.0	223.13557887077332	
42	193.5825788974762	fix_post	2		12	40.0	2.5	/experiments/AOT/AOT_stimuli/rescaled_final/1450_rv.mp4	0.0	224.05217289924622	0.10004615783691406
43	193.6826250553131	fix_pre	0		120	41.0	2.5	blank	1.0	224.15221905708313	1.0000059604644775
43	194.2661600112915	pulse	0	t		41.0	2.5	blank	1.0	224.73575401306152	
43	194.6826310157776	movie	1		300	41.0	2.5	blank	1.0	225.1522250175476	2.500098943710327
43	195.86616587638855	pulse	1	t		41.0	2.5	blank	1.0	226.33575987815857	
43	197.18272995948792	fix_post	2		12	41.0	2.5	blank	1.0	227.65232396125793	0.09992194175720215
44	197.28265190124512	fix_pre	0		120	42.0	2.5	/experiments/AOT/AOT_stimuli/rescaled_final/0922_rv.mp4	0.0	227.75224590301514	0.9999699592590332
44	197.46614289283752	pulse	0	t		42.0	2.5	/experiments/AOT/AOT_stimuli/rescaled_final/0922_rv.mp4	0.0	227.93573689460754	
44	198.28262186050415	movie	1		244	42.0	2.5	/experiments/AOT/AOT_stimuli/rescaled_final/0922_rv.mp4	0.0	228.75221586227417	2.4995551109313965
44	199.06618094444275	pulse	1	t		42.0	2.5	/experiments/AOT/AOT_stimuli/rescaled_final/0922_rv.mp4	0.0	229.53577494621277	
44	200.66463899612427	pulse	1	t		42.0	2.5	/experiments/AOT/AOT_stimuli/rescaled_final/0922_rv.mp4	0.0	231.1342329978943	
44	200.78217697143555	fix_post	2		12	42.0	2.5	/experiments/AOT/AOT_stimuli/rescaled_final/0922_rv.mp4	0.0	231.25177097320557	0.10048389434814453
45	200.8826608657837	fix_pre	0		120	43.0	2.5	/experiments/AOT/AOT_stimuli/rescaled_final/1555_rv.mp4	0.0	231.3522548675537	0.9999291896820068
45	201.8825900554657	movie	1		244	43.0	2.5	/experiments/AOT/AOT_stimuli/rescaled_final/1555_rv.mp4	0.0	232.35218405723572	2.4996399879455566
45	202.26600289344788	pulse	1	t		43.0	2.5	/experiments/AOT/AOT_stimuli/rescaled_final/1555_rv.mp4	0.0	232.7355968952179	
45	203.8661458492279	pulse	1	t		43.0	2.5	/experiments/AOT/AOT_stimuli/rescaled_final/1555_rv.mp4	0.0	234.33573985099792	
45	204.38223004341125	fix_post	2		12	43.0	2.5	/experiments/AOT/AOT_stimuli/rescaled_final/1555_rv.mp4	0.0	234.85182404518127	0.1005258560180664
46	204.48275589942932	fix_pre	0		119	44.0	2.5	/experiments/AOT/AOT_stimuli/rescaled_final/0375_fw.mp4	0.0	234.95234990119934	0.9915549755096436
46	205.466148853302	pulse	0	t		44.0	2.5	/experiments/AOT/AOT_stimuli/rescaled_final/0375_fw.mp4	0.0	235.93574285507202	
46	205.47431087493896	movie	1		247	44.0	2.5	/experiments/AOT/AOT_stimuli/rescaled_final/0375_fw.mp4	0.0	235.94390487670898	2.50832200050354
46	207.06571102142334	pulse	1	t		44.0	2.5	/experiments/AOT/AOT_stimuli/rescaled_final/0375_fw.mp4	0.0	237.53530502319336	
46	207.9826328754425	fix_post	2		12	44.0	2.5	/experiments/AOT/AOT_stimuli/rescaled_final/0375_fw.mp4	0.0	238.45222687721252	0.09996914863586426
47	208.08260202407837	fix_pre	0		120	45.0	2.5	/experiments/AOT/AOT_stimuli/rescaled_final/1089_rv.mp4	0.0	238.5521960258484	1.000013828277588
47	208.66611099243164	pulse	0	t		45.0	2.5	/experiments/AOT/AOT_stimuli/rescaled_final/1089_rv.mp4	0.0	239.13570499420166	
47	209.08261585235596	movie	1		246	45.0	2.5	/experiments/AOT/AOT_stimuli/rescaled_final/1089_rv.mp4	0.0	239.55220985412598	2.4999840259552
47	210.2662479877472	pulse	1	t		45.0	2.5	/experiments/AOT/AOT_stimuli/rescaled_final/1089_rv.mp4	0.0	240.7358419895172	
47	211.58259987831116	fix_post	2		12	45.0	2.5	/experiments/AOT/AOT_stimuli/rescaled_final/1089_rv.mp4	0.0	242.05219388008118	0.10000801086425781
48	211.68260788917542	fix_pre	0		120	46.0	2.5	/experiments/AOT/AOT_stimuli/rescaled_final/1789_rv.mp4	0.0	242.15220189094543	0.9999711513519287
48	211.86602783203125	pulse	0	t		46.0	2.5	/experiments/AOT/AOT_stimuli/rescaled_final/1789_rv.mp4	0.0	242.33562183380127	
48	212.68257904052734	movie	1		245	46.0	2.5	/experiments/AOT/AOT_stimuli/rescaled_final/1789_rv.mp4	0.0	243.15217304229736	2.4999899864196777
48	213.46616983413696	pulse	1	t		46.0	2.5	/experiments/AOT/AOT_stimuli/rescaled_final/1789_rv.mp4	0.0	243.93576383590698	
48	215.06222987174988	pulse	1	t		46.0	2.5	/experiments/AOT/AOT_stimuli/rescaled_final/1789_rv.mp4	0.0	245.5318238735199	
48	215.18256902694702	fix_post	2		12	46.0	2.5	/experiments/AOT/AOT_stimuli/rescaled_final/1789_rv.mp4	0.0	245.65216302871704	0.1000208854675293
49	215.28258991241455	fix_pre	0		120	47.0	2.5	blank	1.0	245.75218391418457	0.9999880790710449
49	216.2825779914856	movie	1		300	47.0	2.5	blank	1.0	246.75217199325562	2.4999799728393555
49	216.6660840511322	pulse	1	t		47.0	2.5	blank	1.0	247.13567805290222	
49	218.26618194580078	pulse	1	t		47.0	2.5	blank	1.0	248.7357759475708	
49	218.78255796432495	fix_post	2		12	47.0	2.5	blank	1.0	249.25215196609497	0.09997987747192383
50	218.88253784179688	fix_pre	0		119	48.0	2.5	/experiments/AOT/AOT_stimuli/rescaled_final/1813_fw.mp4	0.0	249.3521318435669	0.9918091297149658
50	219.86608505249023	pulse	0	t		48.0	2.5	/experiments/AOT/AOT_stimuli/rescaled_final/1813_fw.mp4	0.0	250.33567905426025	
50	219.87434697151184	movie	1		245	48.0	2.5	/experiments/AOT/AOT_stimuli/rescaled_final/1813_fw.mp4	0.0	250.34394097328186	2.5082759857177734
50	221.4657280445099	pulse	1	t		48.0	2.5	/experiments/AOT/AOT_stimuli/rescaled_final/1813_fw.mp4	0.0	251.9353220462799	
50	222.38262295722961	fix_post	2		12	48.0	2.5	/experiments/AOT/AOT_stimuli/rescaled_final/1813_fw.mp4	0.0	252.85221695899963	0.09989094734191895
51	222.48251390457153	fix_pre	0		120	49.0	2.5	/experiments/AOT/AOT_stimuli/rescaled_final/1452_fw.mp4	0.0	252.95210790634155	1.0001020431518555
51	223.06555485725403	pulse	0	t		49.0	2.5	/experiments/AOT/AOT_stimuli/rescaled_final/1452_fw.mp4	0.0	253.53514885902405	
51	223.4826159477234	movie	1		245	49.0	2.5	/experiments/AOT/AOT_stimuli/rescaled_final/1452_fw.mp4	0.0	253.9522099494934	2.499859094619751
51	224.66620087623596	pulse	1	t		49.0	2.5	/experiments/AOT/AOT_stimuli/rescaled_final/1452_fw.mp4	0.0	255.13579487800598	
51	225.98247504234314	fix_post	2		12	49.0	2.5	/experiments/AOT/AOT_stimuli/rescaled_final/1452_fw.mp4	0.0	256.45206904411316	0.10006999969482422
52	226.08254504203796	fix_pre	0		120	50.0	2.5	/experiments/AOT/AOT_stimuli/rescaled_final/2160_fw.mp4	0.0	256.552139043808	1.0000388622283936
52	226.26609992980957	pulse	0	t		50.0	2.5	/experiments/AOT/AOT_stimuli/rescaled_final/2160_fw.mp4	0.0	256.7356939315796	
52	227.08258390426636	movie	1		246	50.0	2.5	/experiments/AOT/AOT_stimuli/rescaled_final/2160_fw.mp4	0.0	257.5521779060364	2.4998960494995117
52	227.86595106124878	pulse	1	t		50.0	2.5	/experiments/AOT/AOT_stimuli/rescaled_final/2160_fw.mp4	0.0	258.3355450630188	
52	229.46490383148193	pulse	1	t		50.0	2.5	/experiments/AOT/AOT_stimuli/rescaled_final/2160_fw.mp4	0.0	259.93449783325195	
52	229.58247995376587	fix_post	2		12	50.0	2.5	/experiments/AOT/AOT_stimuli/rescaled_final/2160_fw.mp4	0.0	260.0520739555359	0.09998106956481934
53	229.6824610233307	fix_pre	0		120	51.0	2.5	/experiments/AOT/AOT_stimuli/rescaled_final/0422_fw.mp4	0.0	260.1520550251007	1.0000998973846436
53	230.68256092071533	movie	1		244	51.0	2.5	/experiments/AOT/AOT_stimuli/rescaled_final/0422_fw.mp4	0.0	261.15215492248535	2.4999420642852783
53	231.06518292427063	pulse	1	t		51.0	2.5	/experiments/AOT/AOT_stimuli/rescaled_final/0422_fw.mp4	0.0	261.53477692604065	
53	232.66589283943176	pulse	1	t		51.0	2.5	/experiments/AOT/AOT_stimuli/rescaled_final/0422_fw.mp4	0.0	263.1354868412018	
53	233.1825029850006	fix_post	2		12	51.0	2.5	/experiments/AOT/AOT_stimuli/rescaled_final/0422_fw.mp4	0.0	263.65209698677063	0.10002398490905762
54	233.28252696990967	fix_pre	0		119	52.0	2.5	/experiments/AOT/AOT_stimuli/rescaled_final/1094_fw.mp4	0.0	263.7521209716797	0.9915850162506104
54	234.26591300964355	pulse	0	t		52.0	2.5	/experiments/AOT/AOT_stimuli/rescaled_final/1094_fw.mp4	0.0	264.7355070114136	
54	234.27411198616028	movie	1		245	52.0	2.5	/experiments/AOT/AOT_stimuli/rescaled_final/1094_fw.mp4	0.0	264.7437059879303	2.508394956588745
54	235.8656039237976	pulse	1	t		52.0	2.5	/experiments/AOT/AOT_stimuli/rescaled_final/1094_fw.mp4	0.0	266.3351979255676	
54	236.78250694274902	fix_post	2		12	52.0	2.5	/experiments/AOT/AOT_stimuli/rescaled_final/1094_fw.mp4	0.0	267.25210094451904	0.09998703002929688
55	236.88249397277832	fix_pre	0		120	53.0	2.5	/experiments/AOT/AOT_stimuli/rescaled_final/1999_fw.mp4	0.0	267.35208797454834	0.9999570846557617
55	237.4659059047699	pulse	0	t		53.0	2.5	/experiments/AOT/AOT_stimuli/rescaled_final/1999_fw.mp4	0.0	267.9354999065399	
55	237.88245105743408	movie	1		243	53.0	2.5	/experiments/AOT/AOT_stimuli/rescaled_final/1999_fw.mp4	0.0	268.3520450592041	2.5000247955322266
55	239.06600189208984	pulse	1	t		53.0	2.5	/experiments/AOT/AOT_stimuli/rescaled_final/1999_fw.mp4	0.0	269.53559589385986	
55	240.3824758529663	fix_post	2		12	53.0	2.5	/experiments/AOT/AOT_stimuli/rescaled_final/1999_fw.mp4	0.0	270.8520698547363	0.09999608993530273
56	240.4824719429016	fix_pre	0		120	54.0	2.5	/experiments/AOT/AOT_stimuli/rescaled_final/1617_fw.mp4	0.0	270.95206594467163	0.9999680519104004
56	240.66589784622192	pulse	0	t		54.0	2.5	/experiments/AOT/AOT_stimuli/rescaled_final/1617_fw.mp4	0.0	271.13549184799194	
56	241.482439994812	movie	1		243	54.0	2.5	/experiments/AOT/AOT_stimuli/rescaled_final/1617_fw.mp4	0.0	271.95203399658203	2.5
56	242.26587295532227	pulse	1	t		54.0	2.5	/experiments/AOT/AOT_stimuli/rescaled_final/1617_fw.mp4	0.0	272.7354669570923	
56	243.86439204216003	pulse	1	t		54.0	2.5	/experiments/AOT/AOT_stimuli/rescaled_final/1617_fw.mp4	0.0	274.33398604393005	
56	243.982439994812	fix_post	2		12	54.0	2.5	/experiments/AOT/AOT_stimuli/rescaled_final/1617_fw.mp4	0.0	274.45203399658203	0.10002398490905762
57	244.08246397972107	fix_pre	0		120	55.0	2.5	/experiments/AOT/AOT_stimuli/rescaled_final/0602_fw.mp4	0.0	274.5520579814911	0.9995439052581787
57	245.08200788497925	movie	1		244	55.0	2.5	/experiments/AOT/AOT_stimuli/rescaled_final/0602_fw.mp4	0.0	275.55160188674927	2.5004279613494873
57	245.46561098098755	pulse	1	t		55.0	2.5	/experiments/AOT/AOT_stimuli/rescaled_final/0602_fw.mp4	0.0	275.93520498275757	
57	247.06588196754456	pulse	1	t		55.0	2.5	/experiments/AOT/AOT_stimuli/rescaled_final/0602_fw.mp4	0.0	277.5354759693146	
57	247.58243584632874	fix_post	2		12	55.0	2.5	/experiments/AOT/AOT_stimuli/rescaled_final/0602_fw.mp4	0.0	278.05202984809875	0.09998917579650879
58	247.68242502212524	fix_pre	0		119	56.0	2.5	blank	1.0	278.15201902389526	0.9916260242462158
58	248.6659529209137	pulse	0	t		56.0	2.5	blank	1.0	279.1355469226837	
58	248.67405104637146	movie	1		301	56.0	2.5	blank	1.0	279.1436450481415	2.507948875427246
58	250.26591801643372	pulse	1	t		56.0	2.5	blank	1.0	280.73551201820374	
58	251.1819999217987	fix_post	2		12	56.0	2.5	blank	1.0	281.6515939235687	0.10035300254821777
59	251.28235292434692	fix_pre	0		120	57.0	2.5	/experiments/AOT/AOT_stimuli/rescaled_final/1089_rv.mp4	0.0	281.75194692611694	1.0001020431518555
59	251.86591601371765	pulse	0	t		57.0	2.5	/experiments/AOT/AOT_stimuli/rescaled_final/1089_rv.mp4	0.0	282.33551001548767	
59	252.28245496749878	movie	1		247	57.0	2.5	/experiments/AOT/AOT_stimuli/rescaled_final/1089_rv.mp4	0.0	282.7520489692688	2.4999210834503174
59	253.46601104736328	pulse	1	t		57.0	2.5	/experiments/AOT/AOT_stimuli/rescaled_final/1089_rv.mp4	0.0	283.9356050491333	
59	254.7823760509491	fix_post	2		12	57.0	2.5	/experiments/AOT/AOT_stimuli/rescaled_final/1089_rv.mp4	0.0	285.2519700527191	0.09993886947631836
60	254.88231492042542	fix_pre	0		120	58.0	2.5	/experiments/AOT/AOT_stimuli/rescaled_final/1798_rv.mp4	0.0	285.35190892219543	0.999985933303833
60	255.06583786010742	pulse	0	t		58.0	2.5	/experiments/AOT/AOT_stimuli/rescaled_final/1798_rv.mp4	0.0	285.53543186187744	
60	255.88230085372925	movie	1		243	58.0	2.5	/experiments/AOT/AOT_stimuli/rescaled_final/1798_rv.mp4	0.0	286.35189485549927	2.5000782012939453
60	256.6658899784088	pulse	1	t		58.0	2.5	/experiments/AOT/AOT_stimuli/rescaled_final/1798_rv.mp4	0.0	287.13548398017883	
60	258.2643370628357	pulse	1	t		58.0	2.5	/experiments/AOT/AOT_stimuli/rescaled_final/1798_rv.mp4	0.0	288.7339310646057	
60	258.3823790550232	fix_post	2		12	58.0	2.5	/experiments/AOT/AOT_stimuli/rescaled_final/1798_rv.mp4	0.0	288.8519730567932	0.10001993179321289
61	258.4823989868164	fix_pre	0		120	59.0	2.5	/experiments/AOT/AOT_stimuli/rescaled_final/1238_fw.mp4	0.0	288.9519929885864	0.9999849796295166
61	259.4823839664459	movie	1		243	59.0	2.5	/experiments/AOT/AOT_stimuli/rescaled_final/1238_fw.mp4	0.0	289.95197796821594	2.4999759197235107
61	259.86587285995483	pulse	1	t		59.0	2.5	/experiments/AOT/AOT_stimuli/rescaled_final/1238_fw.mp4	0.0	290.33546686172485	
61	261.46582984924316	pulse	1	t		59.0	2.5	/experiments/AOT/AOT_stimuli/rescaled_final/1238_fw.mp4	0.0	291.9354238510132	
61	261.98235988616943	fix_post	2		12	59.0	2.5	/experiments/AOT/AOT_stimuli/rescaled_final/1238_fw.mp4	0.0	292.45195388793945	0.09994316101074219
62	262.0823030471802	fix_pre	0		119	60.0	2.5	/experiments/AOT/AOT_stimuli/rescaled_final/1228_fw.mp4	0.0	292.5518970489502	0.9917089939117432
62	263.0658428668976	pulse	0	t		60.0	2.5	/experiments/AOT/AOT_stimuli/rescaled_final/1228_fw.mp4	0.0	293.5354368686676	
62	263.0740120410919	movie	1		244	60.0	2.5	/experiments/AOT/AOT_stimuli/rescaled_final/1228_fw.mp4	0.0	293.54360604286194	2.5083858966827393
62	264.6655218601227	pulse	1	t		60.0	2.5	/experiments/AOT/AOT_stimuli/rescaled_final/1228_fw.mp4	0.0	295.1351158618927	
62	265.58239793777466	fix_post	2		12	60.0	2.5	/experiments/AOT/AOT_stimuli/rescaled_final/1228_fw.mp4	0.0	296.0519919395447	0.10001111030578613
63	265.68240904808044	fix_pre	0		120	61.0	2.5	blank	1.0	296.15200304985046	0.9999837875366211
63	266.265830039978	pulse	0	t		61.0	2.5	blank	1.0	296.73542404174805	
63	266.68239283561707	movie	1		300	61.0	2.5	blank	1.0	297.1519868373871	2.4999520778656006
63	267.86583399772644	pulse	1	t		61.0	2.5	blank	1.0	298.33542799949646	
63	269.18234491348267	fix_post	2		12	61.0	2.5	blank	1.0	299.6519389152527	0.1000521183013916
64	269.28239703178406	fix_pre	0		120	62.0	2.5	/experiments/AOT/AOT_stimuli/rescaled_final/0473_fw.mp4	0.0	299.7519910335541	0.9999408721923828
64	269.46578884124756	pulse	0	t		62.0	2.5	/experiments/AOT/AOT_stimuli/rescaled_final/0473_fw.mp4	0.0	299.9353828430176	
64	270.28233790397644	movie	1		244	62.0	2.5	/experiments/AOT/AOT_stimuli/rescaled_final/0473_fw.mp4	0.0	300.75193190574646	2.4999301433563232
64	271.0657980442047	pulse	1	t		62.0	2.5	/experiments/AOT/AOT_stimuli/rescaled_final/0473_fw.mp4	0.0	301.53539204597473	
64	272.6645739078522	pulse	1	t		62.0	2.5	/experiments/AOT/AOT_stimuli/rescaled_final/0473_fw.mp4	0.0	303.1341679096222	
64	272.78226804733276	fix_post	2		12	62.0	2.5	/experiments/AOT/AOT_stimuli/rescaled_final/0473_fw.mp4	0.0	303.2518620491028	0.1000819206237793
65	272.88234996795654	fix_pre	0		120	63.0	2.5	/experiments/AOT/AOT_stimuli/rescaled_final/0942_fw.mp4	0.0	303.35194396972656	0.9999110698699951
65	273.88226103782654	movie	1		242	63.0	2.5	/experiments/AOT/AOT_stimuli/rescaled_final/0942_fw.mp4	0.0	304.35185503959656	2.4997057914733887
65	274.2668159008026	pulse	1	t		63.0	2.5	/experiments/AOT/AOT_stimuli/rescaled_final/0942_fw.mp4	0.0	304.73640990257263	
65	275.86577105522156	pulse	1	t		63.0	2.5	/experiments/AOT/AOT_stimuli/rescaled_final/0942_fw.mp4	0.0	306.3353650569916	
65	276.3819668292999	fix_post	2		12	63.0	2.5	/experiments/AOT/AOT_stimuli/rescaled_final/0942_fw.mp4	0.0	306.85156083106995	0.10025310516357422
66	276.4822199344635	fix_pre	0		119	64.0	2.5	/experiments/AOT/AOT_stimuli/rescaled_final/0140_fw.mp4	0.0	306.9518139362335	0.9917891025543213
66	277.46584606170654	pulse	0	t		64.0	2.5	/experiments/AOT/AOT_stimuli/rescaled_final/0140_fw.mp4	0.0	307.93544006347656	
66	277.4740090370178	movie	1		247	64.0	2.5	/experiments/AOT/AOT_stimuli/rescaled_final/0140_fw.mp4	0.0	307.94360303878784	2.5083279609680176
66	279.0649869441986	pulse	1	t		64.0	2.5	/experiments/AOT/AOT_stimuli/rescaled_final/0140_fw.mp4	0.0	309.5345809459686	
66	279.98233699798584	fix_post	2		12	64.0	2.5	/experiments/AOT/AOT_stimuli/rescaled_final/0140_fw.mp4	0.0	310.45193099975586	0.09962105751037598
67	280.0819580554962	fix_pre	0		120	65.0	2.5	/experiments/AOT/AOT_stimuli/rescaled_final/1872_fw.mp4	0.0	310.55155205726624	1.0005419254302979
67	280.6659450531006	pulse	0	t		65.0	2.5	/experiments/AOT/AOT_stimuli/rescaled_final/1872_fw.mp4	0.0	311.1355390548706	
67	281.0824999809265	movie	1		244	65.0	2.5	/experiments/AOT/AOT_stimuli/rescaled_final/1872_fw.mp4	0.0	311.55209398269653	2.4997918605804443
67	282.2657878398895	pulse	1	t		65.0	2.5	/experiments/AOT/AOT_stimuli/rescaled_final/1872_fw.mp4	0.0	312.73538184165955	
67	283.58229184150696	fix_post	2		12	65.0	2.5	/experiments/AOT/AOT_stimuli/rescaled_final/1872_fw.mp4	0.0	314.051885843277	0.09996509552001953
68	283.682256937027	fix_pre	0		120	66.0	2.5	/experiments/AOT/AOT_stimuli/rescaled_final/1521_fw.mp4	0.0	314.151850938797	0.9999980926513672
68	283.86573004722595	pulse	0	t		66.0	2.5	/experiments/AOT/AOT_stimuli/rescaled_final/1521_fw.mp4	0.0	314.335324048996	
68	284.68225502967834	movie	1		244	66.0	2.5	/experiments/AOT/AOT_stimuli/rescaled_final/1521_fw.mp4	0.0	315.15184903144836	2.4995508193969727
68	285.46570086479187	pulse	1	t		66.0	2.5	/experiments/AOT/AOT_stimuli/rescaled_final/1521_fw.mp4	0.0	315.9352948665619	
68	287.0656440258026	pulse	1	t		66.0	2.5	/experiments/AOT/AOT_stimuli/rescaled_final/1521_fw.mp4	0.0	317.53523802757263	
68	287.1818058490753	fix_post	2		12	66.0	2.5	/experiments/AOT/AOT_stimuli/rescaled_final/1521_fw.mp4	0.0	317.65139985084534	0.10054516792297363
69	287.2823510169983	fix_pre	0		120	67.0	2.5	/experiments/AOT/AOT_stimuli/rescaled_final/2030_fw.mp4	0.0	317.7519450187683	0.9999289512634277
69	288.2822799682617	movie	1		243	67.0	2.5	/experiments/AOT/AOT_stimuli/rescaled_final/2030_fw.mp4	0.0	318.75187397003174	2.4999589920043945
69	288.665678024292	pulse	1	t		67.0	2.5	/experiments/AOT/AOT_stimuli/rescaled_final/2030_fw.mp4	0.0	319.135272026062	
69	290.2657039165497	pulse	1	t		67.0	2.5	/experiments/AOT/AOT_stimuli/rescaled_final/2030_fw.mp4	0.0	320.7352979183197	
69	290.7822389602661	fix_post	2		12	67.0	2.5	/experiments/AOT/AOT_stimuli/rescaled_final/2030_fw.mp4	0.0	321.25183296203613	0.099945068359375
70	290.8821840286255	fix_pre	0		119	68.0	2.5	/experiments/AOT/AOT_stimuli/rescaled_final/0992_rv.mp4	0.0	321.3517780303955	0.9916329383850098
70	291.8655970096588	pulse	0	t		68.0	2.5	/experiments/AOT/AOT_stimuli/rescaled_final/0992_rv.mp4	0.0	322.33519101142883	
70	291.8738169670105	movie	1		245	68.0	2.5	/experiments/AOT/AOT_stimuli/rescaled_final/0992_rv.mp4	0.0	322.3434109687805	2.508375883102417
70	293.4656128883362	pulse	1	t		68.0	2.5	/experiments/AOT/AOT_stimuli/rescaled_final/0992_rv.mp4	0.0	323.9352068901062	
70	294.3821928501129	fix_post	2		12	68.0	2.5	/experiments/AOT/AOT_stimuli/rescaled_final/0992_rv.mp4	0.0	324.85178685188293	0.10002899169921875
71	294.48222184181213	fix_pre	0		120	69.0	2.5	/experiments/AOT/AOT_stimuli/rescaled_final/2148_fw.mp4	0.0	324.95181584358215	0.9999911785125732
71	295.0657980442047	pulse	0	t		69.0	2.5	/experiments/AOT/AOT_stimuli/rescaled_final/2148_fw.mp4	0.0	325.53539204597473	
71	295.4822130203247	movie	1		245	69.0	2.5	/experiments/AOT/AOT_stimuli/rescaled_final/2148_fw.mp4	0.0	325.9518070220947	2.5000479221343994
71	296.6657249927521	pulse	1	t		69.0	2.5	/experiments/AOT/AOT_stimuli/rescaled_final/2148_fw.mp4	0.0	327.1353189945221	
71	297.9822609424591	fix_post	2		12	69.0	2.5	/experiments/AOT/AOT_stimuli/rescaled_final/2148_fw.mp4	0.0	328.4518549442291	0.09992790222167969
72	298.0821888446808	fix_pre	0		120	70.0	2.5	blank	1.0	328.5517828464508	1.0001380443572998
72	298.2657108306885	pulse	0	t		70.0	2.5	blank	1.0	328.7353048324585	
72	299.0823268890381	movie	1		300	70.0	2.5	blank	1.0	329.5519208908081	2.49977707862854
72	299.8657319545746	pulse	1	t		70.0	2.5	blank	1.0	330.3353259563446	
72	301.4656009674072	pulse	1	t		70.0	2.5	blank	1.0	331.93519496917725	
72	301.5821039676666	fix_post	2		12	70.0	2.5	blank	1.0	332.05169796943665	0.10003995895385742
73	301.6821439266205	fix_pre	0		120	71.0	2.5	/experiments/AOT/AOT_stimuli/rescaled_final/0688_rv.mp4	0.0	332.1517379283905	1.0000779628753662
73	302.68222188949585	movie	1		243	71.0	2.5	/experiments/AOT/AOT_stimuli/rescaled_final/0688_rv.mp4	0.0	333.15181589126587	2.499917984008789
73	303.0660569667816	pulse	1	t		71.0	2.5	/experiments/AOT/AOT_stimuli/rescaled_final/0688_rv.mp4	0.0	333.53565096855164	
73	304.6656198501587	pulse	1	t		71.0	2.5	/experiments/AOT/AOT_stimuli/rescaled_final/0688_rv.mp4	0.0	335.1352138519287	
73	305.18213987350464	fix_post	2		12	71.0	2.5	/experiments/AOT/AOT_stimuli/rescaled_final/0688_rv.mp4	0.0	335.65173387527466	0.0999910831451416
74	305.2821309566498	fix_pre	0		119	72.0	2.5	/experiments/AOT/AOT_stimuli/rescaled_final/2170_fw.mp4	0.0	335.7517249584198	0.9916579723358154
74	306.2656500339508	pulse	0	t		72.0	2.5	/experiments/AOT/AOT_stimuli/rescaled_final/2170_fw.mp4	0.0	336.7352440357208	
74	306.2737889289856	movie	1		245	72.0	2.5	/experiments/AOT/AOT_stimuli/rescaled_final/2170_fw.mp4	0.0	336.7433829307556	2.508280038833618
74	307.8653600215912	pulse	1	t		72.0	2.5	/experiments/AOT/AOT_stimuli/rescaled_final/2170_fw.mp4	0.0	338.3349540233612	
74	308.7820689678192	fix_post	2		12	72.0	2.5	/experiments/AOT/AOT_stimuli/rescaled_final/2170_fw.mp4	0.0	339.25166296958923	0.10007190704345703
75	308.88214087486267	fix_pre	0		120	73.0	2.5	/experiments/AOT/AOT_stimuli/rescaled_final/1329_fw.mp4	0.0	339.3517348766327	0.9999539852142334
75	309.46560502052307	pulse	0	t		73.0	2.5	/experiments/AOT/AOT_stimuli/rescaled_final/1329_fw.mp4	0.0	339.9351990222931	
75	309.8820948600769	movie	1		243	73.0	2.5	/experiments/AOT/AOT_stimuli/rescaled_final/1329_fw.mp4	0.0	340.3516888618469	2.5000011920928955
75	311.0656650066376	pulse	1	t		73.0	2.5	/experiments/AOT/AOT_stimuli/rescaled_final/1329_fw.mp4	0.0	341.5352590084076	
75	312.3820960521698	fix_post	2		12	73.0	2.5	/experiments/AOT/AOT_stimuli/rescaled_final/1329_fw.mp4	0.0	342.8516900539398	0.10009384155273438
76	312.48218989372253	fix_pre	0		120	74.0	2.5	/experiments/AOT/AOT_stimuli/rescaled_final/0140_fw.mp4	0.0	342.95178389549255	1.0000159740447998
76	312.665668964386	pulse	0	t		74.0	2.5	/experiments/AOT/AOT_stimuli/rescaled_final/0140_fw.mp4	0.0	343.135262966156	
76	313.48220586776733	movie	1		244	74.0	2.5	/experiments/AOT/AOT_stimuli/rescaled_final/0140_fw.mp4	0.0	343.95179986953735	2.499876022338867
76	314.265606880188	pulse	1	t		74.0	2.5	/experiments/AOT/AOT_stimuli/rescaled_final/0140_fw.mp4	0.0	344.735200881958	
76	315.864217042923	pulse	1	t		74.0	2.5	/experiments/AOT/AOT_stimuli/rescaled_final/0140_fw.mp4	0.0	346.333811044693	
76	315.9820818901062	fix_post	2		12	74.0	2.5	/experiments/AOT/AOT_stimuli/rescaled_final/0140_fw.mp4	0.0	346.4516758918762	0.09994316101074219
77	316.08202505111694	fix_pre	0		120	75.0	2.5	blank	1.0	346.55161905288696	1.0000579357147217
77	317.08208298683167	movie	1		300	75.0	2.5	blank	1.0	347.5516769886017	2.5000219345092773
77	317.46560192108154	pulse	1	t		75.0	2.5	blank	1.0	347.93519592285156	
77	319.06556701660156	pulse	1	t		75.0	2.5	blank	1.0	349.5351610183716	
77	319.58210492134094	fix_post	2		12	75.0	2.5	blank	1.0	350.05169892311096	0.1000359058380127
78	319.68214082717896	fix_pre	0		119	76.0	2.5	/experiments/AOT/AOT_stimuli/rescaled_final/1089_fw.mp4	0.0	350.151734828949	0.9915511608123779
78	320.6655879020691	pulse	0	t		76.0	2.5	/experiments/AOT/AOT_stimuli/rescaled_final/1089_fw.mp4	0.0	351.1351819038391	
78	320.67369198799133	movie	1		248	76.0	2.5	/experiments/AOT/AOT_stimuli/rescaled_final/1089_fw.mp4	0.0	351.14328598976135	2.508470058441162
78	322.2650640010834	pulse	1	t		76.0	2.5	/experiments/AOT/AOT_stimuli/rescaled_final/1089_fw.mp4	0.0	352.7346580028534	
78	323.1821620464325	fix_post	2		12	76.0	2.5	/experiments/AOT/AOT_stimuli/rescaled_final/1089_fw.mp4	0.0	353.6517560482025	0.10001182556152344
79	323.282173871994	fix_pre	0		120	77.0	2.5	/experiments/AOT/AOT_stimuli/rescaled_final/1970_rv.mp4	0.0	353.75176787376404	0.9998781681060791
79	323.86551690101624	pulse	0	t		77.0	2.5	/experiments/AOT/AOT_stimuli/rescaled_final/1970_rv.mp4	0.0	354.33511090278625	
79	324.2820520401001	movie	1		245	77.0	2.5	/experiments/AOT/AOT_stimuli/rescaled_final/1970_rv.mp4	0.0	354.7516460418701	2.4999217987060547
79	325.4656138420105	pulse	1	t		77.0	2.5	/experiments/AOT/AOT_stimuli/rescaled_final/1970_rv.mp4	0.0	355.9352078437805	
79	326.78197383880615	fix_post	2		12	77.0	2.5	/experiments/AOT/AOT_stimuli/rescaled_final/1970_rv.mp4	0.0	357.2515678405762	0.1000661849975586
80	326.8820400238037	fix_pre	0		120	78.0	2.5	/experiments/AOT/AOT_stimuli/rescaled_final/0282_rv.mp4	0.0	357.35163402557373	0.9999358654022217
80	327.06553387641907	pulse	0	t		78.0	2.5	/experiments/AOT/AOT_stimuli/rescaled_final/0282_rv.mp4	0.0	357.5351278781891	
80	327.88197588920593	movie	1		243	78.0	2.5	/experiments/AOT/AOT_stimuli/rescaled_final/0282_rv.mp4	0.0	358.35156989097595	2.500051975250244
80	328.6656458377838	pulse	1	t		78.0	2.5	/experiments/AOT/AOT_stimuli/rescaled_final/0282_rv.mp4	0.0	359.13523983955383	
80	330.26381182670593	pulse	1	t		78.0	2.5	/experiments/AOT/AOT_stimuli/rescaled_final/0282_rv.mp4	0.0	360.73340582847595	
80	330.3820278644562	fix_post	2		12	78.0	2.5	/experiments/AOT/AOT_stimuli/rescaled_final/0282_rv.mp4	0.0	360.8516218662262	0.09997010231018066
81	330.48199796676636	fix_pre	0		120	79.0	2.5	/experiments/AOT/AOT_stimuli/rescaled_final/1384_fw.mp4	0.0	360.9515919685364	1.000079870223999
81	331.48207783699036	movie	1		245	79.0	2.5	/experiments/AOT/AOT_stimuli/rescaled_final/1384_fw.mp4	0.0	361.9516718387604	2.499913215637207
81	331.86500787734985	pulse	1	t		79.0	2.5	/experiments/AOT/AOT_stimuli/rescaled_final/1384_fw.mp4	0.0	362.3346018791199	
81	333.46548891067505	pulse	1	t		79.0	2.5	/experiments/AOT/AOT_stimuli/rescaled_final/1384_fw.mp4	0.0	363.93508291244507	
81	333.98199105262756	fix_post	2		12	79.0	2.5	/experiments/AOT/AOT_stimuli/rescaled_final/1384_fw.mp4	0.0	364.4515850543976	0.10001397132873535
82	334.0820050239563	fix_pre	0		119	80.0	2.5	/experiments/AOT/AOT_stimuli/rescaled_final/1789_rv.mp4	0.0	364.5515990257263	0.9916849136352539
82	335.06505489349365	pulse	0	t		80.0	2.5	/experiments/AOT/AOT_stimuli/rescaled_final/1789_rv.mp4	0.0	365.5346488952637	
82	335.07368993759155	movie	1		246	80.0	2.5	/experiments/AOT/AOT_stimuli/rescaled_final/1789_rv.mp4	0.0	365.5432839393616	2.50826096534729
82	336.66556787490845	pulse	1	t		80.0	2.5	/experiments/AOT/AOT_stimuli/rescaled_final/1789_rv.mp4	0.0	367.13516187667847	
82	337.58195090293884	fix_post	2		12	80.0	2.5	/experiments/AOT/AOT_stimuli/rescaled_final/1789_rv.mp4	0.0	368.05154490470886	0.10007214546203613
83	337.6820230484009	fix_pre	0		120	81.0	2.5	/experiments/AOT/AOT_stimuli/rescaled_final/0688_fw.mp4	0.0	368.1516170501709	0.9999628067016602
83	338.26553297042847	pulse	0	t		81.0	2.5	/experiments/AOT/AOT_stimuli/rescaled_final/0688_fw.mp4	0.0	368.7351269721985	
83	338.68198585510254	movie	1		244	81.0	2.5	/experiments/AOT/AOT_stimuli/rescaled_final/0688_fw.mp4	0.0	369.15157985687256	2.4996211528778076
83	339.86553597450256	pulse	1	t		81.0	2.5	/experiments/AOT/AOT_stimuli/rescaled_final/0688_fw.mp4	0.0	370.3351299762726	
83	341.18160700798035	fix_post	2		12	81.0	2.5	/experiments/AOT/AOT_stimuli/rescaled_final/0688_fw.mp4	0.0	371.65120100975037	0.10035395622253418
84	341.2819609642029	fix_pre	0		120	82.0	2.5	blank	1.0	371.7515549659729	0.9999599456787109
84	341.4654748439789	pulse	0	t		82.0	2.5	blank	1.0	371.9350688457489	
84	342.2819209098816	movie	1		300	82.0	2.5	blank	1.0	372.7515149116516	2.500005006790161
84	343.0657298564911	pulse	1	t		82.0	2.5	blank	1.0	373.5353238582611	
84	344.66538190841675	pulse	1	t		82.0	2.5	blank	1.0	375.13497591018677	
84	344.78192591667175	fix_post	2		12	82.0	2.5	blank	1.0	375.2515199184418	0.09998512268066406
85	344.8819110393524	fix_pre	0		120	83.0	2.5	/experiments/AOT/AOT_stimuli/rescaled_final/1675_fw.mp4	0.0	375.35150504112244	0.9999740123748779
85	345.8818850517273	movie	1		244	83.0	2.5	/experiments/AOT/AOT_stimuli/rescaled_final/1675_fw.mp4	0.0	376.3514790534973	2.4999899864196777
85	346.265172958374	pulse	1	t		83.0	2.5	/experiments/AOT/AOT_stimuli/rescaled_final/1675_fw.mp4	0.0	376.73476696014404	
85	347.86541986465454	pulse	1	t		83.0	2.5	/experiments/AOT/AOT_stimuli/rescaled_final/1675_fw.mp4	0.0	378.33501386642456	
85	348.381875038147	fix_post	2		12	83.0	2.5	/experiments/AOT/AOT_stimuli/rescaled_final/1675_fw.mp4	0.0	378.851469039917	0.10003280639648438
87	348.48190784454346	stim	0		1716					378.9515018463135	14.299962043762207
87	349.4654309749603	pulse	0	t						379.93502497673035	
87	351.06538105010986	pulse	0	t						381.5349750518799	
87	352.6652958393097	pulse	0	t						383.1348898410797	
87	354.26545000076294	pulse	0	t						384.73504400253296	
87	355.86530590057373	pulse	0	t						386.33489990234375	
87	357.4653060436249	pulse	0	t						387.9349000453949	
87	359.06529998779297	pulse	0	t						389.534893989563	
87	360.66533398628235	pulse	0	t						391.13492798805237	
87	362.2653570175171	pulse	0	t						392.7349510192871	
