trial_nr	onset	event_type	phase	response	nr_frames	movie_index	movie_duration	movie_file	blank	onset_abs	duration
0	0.1498708724975586	stim	0		177					20.80497694015503	1.4749951362609863
0	1.6167469024658203	response	0	space						22.27185297012329	
1	1.624866008758545	stim	0		4763					22.279972076416016	39.69154596328735
1	41.31209182739258	pulse	0	t						61.96719789505005	
1	41.3164119720459	stim	1		1717					61.97151803970337	14.308238983154297
1	42.90829801559448	pulse	1	t						63.56340408325195	
1	44.50824999809265	pulse	1	t						65.16335606575012	
1	46.107765913009644	pulse	1	t						66.76287198066711	
1	47.7079598903656	pulse	1	t						68.36306595802307	
1	49.30819296836853	pulse	1	t						69.963299036026	
1	50.9081449508667	pulse	1	t						71.56325101852417	
1	52.50819182395935	pulse	1	t						73.16329789161682	
1	54.10808491706848	pulse	1	t						74.76319098472595	
2	55.624650955200195	fix_pre	0		11	0.0	2.5	/experiments/aot/R_S_yt-BAQ3Xhm_PPE_23.mp4	0.0	76.27975702285767	0.09172797203063965
2	55.70813989639282	pulse	0	t		0.0	2.5	/experiments/aot/R_S_yt-BAQ3Xhm_PPE_23.mp4	0.0	76.3632459640503	
2	55.716378927230835	movie	1		299	0.0	2.5	/experiments/aot/R_S_yt-BAQ3Xhm_PPE_23.mp4	0.0	76.3714849948883	2.508347988128662
2	57.30380082130432	pulse	1	t		0.0	2.5	/experiments/aot/R_S_yt-BAQ3Xhm_PPE_23.mp4	0.0	77.95890688896179	
2	58.2247269153595	fix_post	2		12	0.0	2.5	/experiments/aot/R_S_yt-BAQ3Xhm_PPE_23.mp4	0.0	78.87983298301697	0.0999140739440918
3	58.32464098930359	fix_pre	0		120	1.0	2.5	/experiments/aot/S_production_ID_4707837.mp4	0.0	78.97974705696106	0.9999978542327881
3	58.90808391571045	pulse	0	t		1.0	2.5	/experiments/aot/S_production_ID_4707837.mp4	0.0	79.56318998336792	
3	59.32463884353638	movie	1		159	1.0	2.5	/experiments/aot/S_production_ID_4707837.mp4	0.0	79.97974491119385	2.4999210834503174
3	60.507635831832886	pulse	1	t		1.0	2.5	/experiments/aot/S_production_ID_4707837.mp4	0.0	81.16274189949036	
3	61.824559926986694	fix_post	2		12	1.0	2.5	/experiments/aot/S_production_ID_4707837.mp4	0.0	82.47966599464417	0.09998488426208496
4	61.92454481124878	fix_pre	0		120	2.0	2.5	/experiments/aot/S_yt-P8vJa4YVcGU_488.mp4	0.0	82.57965087890625	1.0000200271606445
4	62.10816478729248	pulse	0	t		2.0	2.5	/experiments/aot/S_yt-P8vJa4YVcGU_488.mp4	0.0	82.76327085494995	
4	62.924564838409424	movie	1		299	2.0	2.5	/experiments/aot/S_yt-P8vJa4YVcGU_488.mp4	0.0	83.5796709060669	2.5000181198120117
4	63.708093881607056	pulse	1	t		2.0	2.5	/experiments/aot/S_yt-P8vJa4YVcGU_488.mp4	0.0	84.36319994926453	
4	65.3080677986145	pulse	1	t		2.0	2.5	/experiments/aot/S_yt-P8vJa4YVcGU_488.mp4	0.0	85.96317386627197	
4	65.42458295822144	fix_post	2		12	2.0	2.5	/experiments/aot/S_yt-P8vJa4YVcGU_488.mp4	0.0	86.0796890258789	0.0999760627746582
5	65.5245590209961	fix_pre	0		120	3.0	2.5	/experiments/aot/S_yt-LUIvP_NDWAs_45.mp4	0.0	86.17966508865356	1.0000147819519043
5	66.524573802948	movie	1		299	3.0	2.5	/experiments/aot/S_yt-LUIvP_NDWAs_45.mp4	0.0	87.17967987060547	2.4999802112579346
5	66.90798497200012	pulse	1	t		3.0	2.5	/experiments/aot/S_yt-LUIvP_NDWAs_45.mp4	0.0	87.56309103965759	
5	68.50808501243591	pulse	1	t		3.0	2.5	/experiments/aot/S_yt-LUIvP_NDWAs_45.mp4	0.0	89.16319108009338	
5	69.02455401420593	fix_post	2		12	3.0	2.5	/experiments/aot/S_yt-LUIvP_NDWAs_45.mp4	0.0	89.6796600818634	0.10000085830688477
6	69.12455487251282	fix_pre	0		119	4.0	2.5	/experiments/aot/R_S_video_inspire_texas_austin_oct2019_evening_00085.1080-h264.mp4	0.0	89.77966094017029	0.9916839599609375
6	70.10805702209473	pulse	0	t		4.0	2.5	/experiments/aot/R_S_video_inspire_texas_austin_oct2019_evening_00085.1080-h264.mp4	0.0	90.7631630897522	
6	70.11623883247375	movie	1		166	4.0	2.5	/experiments/aot/R_S_video_inspire_texas_austin_oct2019_evening_00085.1080-h264.mp4	0.0	90.77134490013123	2.508358955383301
6	71.70845079421997	pulse	1	t		4.0	2.5	/experiments/aot/R_S_video_inspire_texas_austin_oct2019_evening_00085.1080-h264.mp4	0.0	92.36355686187744	
6	72.62459778785706	fix_post	2		12	4.0	2.5	/experiments/aot/R_S_video_inspire_texas_austin_oct2019_evening_00085.1080-h264.mp4	0.0	93.27970385551453	0.10001802444458008
7	72.72461581230164	fix_pre	0		120	5.0	2.5	/experiments/aot/S_yt-2V2tq9-O_Nc_1669.mp4	0.0	93.3797218799591	0.9999451637268066
7	73.30800986289978	pulse	0	t		5.0	2.5	/experiments/aot/S_yt-2V2tq9-O_Nc_1669.mp4	0.0	93.96311593055725	
7	73.72456097602844	movie	1		300	5.0	2.5	/experiments/aot/S_yt-2V2tq9-O_Nc_1669.mp4	0.0	94.37966704368591	2.499969959259033
7	74.90809798240662	pulse	1	t		5.0	2.5	/experiments/aot/S_yt-2V2tq9-O_Nc_1669.mp4	0.0	95.56320405006409	
7	76.22453093528748	fix_post	2		12	5.0	2.5	/experiments/aot/S_yt-2V2tq9-O_Nc_1669.mp4	0.0	96.87963700294495	0.09995508193969727
8	76.32448601722717	fix_pre	0		120	6.0	2.5	blank	1.0	96.97959208488464	1.0000638961791992
8	76.50802898406982	pulse	0	t		6.0	2.5	blank	1.0	97.1631350517273	
8	77.32454991340637	movie	1		300	6.0	2.5	blank	1.0	97.97965598106384	2.4999630451202393
8	78.1079638004303	pulse	1	t		6.0	2.5	blank	1.0	98.76306986808777	
8	79.70792984962463	pulse	1	t		6.0	2.5	blank	1.0	100.3630359172821	
8	79.82451295852661	fix_post	2		12	6.0	2.5	blank	1.0	100.47961902618408	0.10001492500305176
9	79.92452788352966	fix_pre	0		120	7.0	2.5	/experiments/aot/R_S_yt-3NMDWrZr1Z4_255.mp4	0.0	100.57963395118713	0.9999589920043945
9	80.92448687553406	movie	1		300	7.0	2.5	/experiments/aot/R_S_yt-3NMDWrZr1Z4_255.mp4	0.0	101.57959294319153	2.499985933303833
9	81.30807590484619	pulse	1	t		7.0	2.5	/experiments/aot/R_S_yt-3NMDWrZr1Z4_255.mp4	0.0	101.96318197250366	
9	82.90797400474548	pulse	1	t		7.0	2.5	/experiments/aot/R_S_yt-3NMDWrZr1Z4_255.mp4	0.0	103.56308007240295	
9	83.42447280883789	fix_post	2		12	7.0	2.5	/experiments/aot/R_S_yt-3NMDWrZr1Z4_255.mp4	0.0	104.07957887649536	0.10004210472106934
10	83.52451491355896	fix_pre	0		119	8.0	2.5	/experiments/aot/S_yt-IDpUZ2NWBUY_60.mp4	0.0	104.17962098121643	0.9917490482330322
10	84.50806379318237	pulse	0	t		8.0	2.5	/experiments/aot/S_yt-IDpUZ2NWBUY_60.mp4	0.0	105.16316986083984	
10	84.51626396179199	movie	1		301	8.0	2.5	/experiments/aot/S_yt-IDpUZ2NWBUY_60.mp4	0.0	105.17137002944946	2.508178949356079
10	86.10404086112976	pulse	1	t		8.0	2.5	/experiments/aot/S_yt-IDpUZ2NWBUY_60.mp4	0.0	106.75914692878723	
10	87.02444291114807	fix_post	2		12	8.0	2.5	/experiments/aot/S_yt-IDpUZ2NWBUY_60.mp4	0.0	107.67954897880554	0.10007691383361816
11	87.12451982498169	fix_pre	0		120	9.0	2.5	/experiments/aot/S_yt--5ls65Ue1RA_52.mp4	0.0	107.77962589263916	0.9995319843292236
11	87.70794486999512	pulse	0	t		9.0	2.5	/experiments/aot/S_yt--5ls65Ue1RA_52.mp4	0.0	108.36305093765259	
11	88.12405180931091	movie	1		300	9.0	2.5	/experiments/aot/S_yt--5ls65Ue1RA_52.mp4	0.0	108.77915787696838	2.5003650188446045
11	89.30801892280579	pulse	1	t		9.0	2.5	/experiments/aot/S_yt--5ls65Ue1RA_52.mp4	0.0	109.96312499046326	
11	90.62441682815552	fix_post	2		12	9.0	2.5	/experiments/aot/S_yt--5ls65Ue1RA_52.mp4	0.0	111.27952289581299	0.1000680923461914
12	90.72448492050171	fix_pre	0		120	10.0	2.5	/experiments/aot/R_S_IrGYVLkWeQs_9.mp4	0.0	111.37959098815918	1.0000460147857666
12	90.90805292129517	pulse	0	t		10.0	2.5	/experiments/aot/R_S_IrGYVLkWeQs_9.mp4	0.0	111.56315898895264	
12	91.72453093528748	movie	1		300	10.0	2.5	/experiments/aot/R_S_IrGYVLkWeQs_9.mp4	0.0	112.37963700294495	2.4999070167541504
12	92.50793290138245	pulse	1	t		10.0	2.5	/experiments/aot/R_S_IrGYVLkWeQs_9.mp4	0.0	113.16303896903992	
12	94.10237193107605	pulse	1	t		10.0	2.5	/experiments/aot/R_S_IrGYVLkWeQs_9.mp4	0.0	114.75747799873352	
12	94.22443795204163	fix_post	2		12	10.0	2.5	/experiments/aot/R_S_IrGYVLkWeQs_9.mp4	0.0	114.8795440196991	0.09999990463256836
13	94.3244378566742	fix_pre	0		120	11.0	2.5	/experiments/aot/R_S_yt-6mRpmfIvdew_1435.mp4	0.0	114.97954392433167	0.9996659755706787
13	95.32410383224487	movie	1		300	11.0	2.5	/experiments/aot/R_S_yt-6mRpmfIvdew_1435.mp4	0.0	115.97920989990234	2.500349998474121
13	95.70793390274048	pulse	1	t		11.0	2.5	/experiments/aot/R_S_yt-6mRpmfIvdew_1435.mp4	0.0	116.36303997039795	
13	97.30800795555115	pulse	1	t		11.0	2.5	/experiments/aot/R_S_yt-6mRpmfIvdew_1435.mp4	0.0	117.96311402320862	
13	97.824453830719	fix_post	2		12	11.0	2.5	/experiments/aot/R_S_yt-6mRpmfIvdew_1435.mp4	0.0	118.47955989837646	0.09999203681945801
14	97.92444586753845	fix_pre	0		119	12.0	2.5	/experiments/aot/S_yt-uSHBdUi8_V0_24.mp4	0.0	118.57955193519592	0.9917011260986328
14	98.90799188613892	pulse	0	t		12.0	2.5	/experiments/aot/S_yt-uSHBdUi8_V0_24.mp4	0.0	119.56309795379639	
14	98.91614699363708	movie	1		301	12.0	2.5	/experiments/aot/S_yt-uSHBdUi8_V0_24.mp4	0.0	119.57125306129456	2.507913827896118
14	100.50338196754456	pulse	1	t		12.0	2.5	/experiments/aot/S_yt-uSHBdUi8_V0_24.mp4	0.0	121.15848803520203	
14	101.4240608215332	fix_post	2		12	12.0	2.5	/experiments/aot/S_yt-uSHBdUi8_V0_24.mp4	0.0	122.07916688919067	0.10037517547607422
15	101.52443599700928	fix_pre	0		120	13.0	2.5	/experiments/aot/S_yt-B8Sy53C6Pxw_8.mp4	0.0	122.17954206466675	0.9997649192810059
15	102.10758590698242	pulse	0	t		13.0	2.5	/experiments/aot/S_yt-B8Sy53C6Pxw_8.mp4	0.0	122.76269197463989	
15	102.52420091629028	movie	1		300	13.0	2.5	/experiments/aot/S_yt-B8Sy53C6Pxw_8.mp4	0.0	123.17930698394775	2.500277042388916
15	103.7081618309021	pulse	1	t		13.0	2.5	/experiments/aot/S_yt-B8Sy53C6Pxw_8.mp4	0.0	124.36326789855957	
15	105.0244779586792	fix_post	2		12	13.0	2.5	/experiments/aot/S_yt-B8Sy53C6Pxw_8.mp4	0.0	125.67958402633667	0.0999448299407959
16	105.12442278862	fix_pre	0		120	14.0	2.5	blank	1.0	125.77952885627747	0.9999861717224121
16	105.3079628944397	pulse	0	t		14.0	2.5	blank	1.0	125.96306896209717	
16	106.12440896034241	movie	1		300	14.0	2.5	blank	1.0	126.77951502799988	2.4999818801879883
16	106.90793585777283	pulse	1	t		14.0	2.5	blank	1.0	127.5630419254303	
16	108.50787496566772	pulse	1	t		14.0	2.5	blank	1.0	129.1629810333252	
16	108.6243908405304	fix_post	2		12	14.0	2.5	blank	1.0	129.27949690818787	0.10004115104675293
17	108.72443199157715	fix_pre	0		120	15.0	2.5	/experiments/aot/S_yt-kINZMjys3O4_112.mp4	0.0	129.37953805923462	0.9994959831237793
17	109.72392797470093	movie	1		299	15.0	2.5	/experiments/aot/S_yt-kINZMjys3O4_112.mp4	0.0	130.3790340423584	2.5000128746032715
17	110.10784101486206	pulse	1	t		15.0	2.5	/experiments/aot/S_yt-kINZMjys3O4_112.mp4	0.0	130.76294708251953	
17	111.7077648639679	pulse	1	t		15.0	2.5	/experiments/aot/S_yt-kINZMjys3O4_112.mp4	0.0	132.36287093162537	
17	112.2239408493042	fix_post	2		12	15.0	2.5	/experiments/aot/S_yt-kINZMjys3O4_112.mp4	0.0	132.87904691696167	0.10039210319519043
18	112.32433295249939	fix_pre	0		119	16.0	2.5	/experiments/aot/R_S_yt-xqjVM0Vj4mI_161.mp4	0.0	132.97943902015686	0.9916698932647705
18	113.30787086486816	pulse	0	t		16.0	2.5	/experiments/aot/R_S_yt-xqjVM0Vj4mI_161.mp4	0.0	133.96297693252563	
18	113.31600284576416	movie	1		301	16.0	2.5	/experiments/aot/R_S_yt-xqjVM0Vj4mI_161.mp4	0.0	133.97110891342163	2.508315086364746
18	114.90392684936523	pulse	1	t		16.0	2.5	/experiments/aot/R_S_yt-xqjVM0Vj4mI_161.mp4	0.0	135.5590329170227	
18	115.8243179321289	fix_post	2		12	16.0	2.5	/experiments/aot/R_S_yt-xqjVM0Vj4mI_161.mp4	0.0	136.47942399978638	0.10005903244018555
19	115.92437696456909	fix_pre	0		120	17.0	2.5	/experiments/aot/R_S_production_ID_3944248.mp4	0.0	136.57948303222656	0.9999668598175049
19	116.50775599479675	pulse	0	t		17.0	2.5	/experiments/aot/R_S_production_ID_3944248.mp4	0.0	137.16286206245422	
19	116.9243438243866	movie	1		159	17.0	2.5	/experiments/aot/R_S_production_ID_3944248.mp4	0.0	137.57944989204407	2.5001251697540283
19	118.1078519821167	pulse	1	t		17.0	2.5	/experiments/aot/R_S_production_ID_3944248.mp4	0.0	138.76295804977417	
19	119.42446899414062	fix_post	2		12	17.0	2.5	/experiments/aot/R_S_production_ID_3944248.mp4	0.0	140.0795750617981	0.09954285621643066
20	119.52401185035706	fix_pre	0		120	18.0	2.5	/experiments/aot/S_yt-KpOAdMtPGFs_17.mp4	0.0	140.17911791801453	1.0003149509429932
20	119.70775985717773	pulse	0	t		18.0	2.5	/experiments/aot/S_yt-KpOAdMtPGFs_17.mp4	0.0	140.3628659248352	
20	120.52432680130005	movie	1		300	18.0	2.5	/experiments/aot/S_yt-KpOAdMtPGFs_17.mp4	0.0	141.17943286895752	2.499620199203491
20	121.30777597427368	pulse	1	t		18.0	2.5	/experiments/aot/S_yt-KpOAdMtPGFs_17.mp4	0.0	141.96288204193115	
20	122.90779781341553	pulse	1	t		18.0	2.5	/experiments/aot/S_yt-KpOAdMtPGFs_17.mp4	0.0	143.562903881073	
20	123.02394700050354	fix_post	2		12	18.0	2.5	/experiments/aot/S_yt-KpOAdMtPGFs_17.mp4	0.0	143.679053068161	0.1004638671875
21	123.12441086769104	fix_pre	0		120	19.0	2.5	/experiments/aot/S_yt-0xzYSBvVfYM_197.mp4	0.0	143.7795169353485	0.9999289512634277
21	124.12433981895447	movie	1		300	19.0	2.5	/experiments/aot/S_yt-0xzYSBvVfYM_197.mp4	0.0	144.77944588661194	2.499575138092041
21	124.50776696205139	pulse	1	t		19.0	2.5	/experiments/aot/S_yt-0xzYSBvVfYM_197.mp4	0.0	145.16287302970886	
21	126.10775995254517	pulse	1	t		19.0	2.5	/experiments/aot/S_yt-0xzYSBvVfYM_197.mp4	0.0	146.76286602020264	
21	126.62391495704651	fix_post	2		12	19.0	2.5	/experiments/aot/S_yt-0xzYSBvVfYM_197.mp4	0.0	147.27902102470398	0.10042786598205566
22	126.72434282302856	fix_pre	0		119	20.0	2.5	blank	1.0	147.37944889068604	0.9915821552276611
22	127.70775985717773	pulse	0	t		20.0	2.5	blank	1.0	148.3628659248352	
22	127.71592497825623	movie	1		301	20.0	2.5	blank	1.0	148.3710310459137	2.5084140300750732
22	129.3078157901764	pulse	1	t		20.0	2.5	blank	1.0	149.96292185783386	
22	130.2243390083313	fix_post	2		12	20.0	2.5	blank	1.0	150.87944507598877	0.0999608039855957
23	130.3242998123169	fix_pre	0		120	21.0	2.5	/experiments/aot/S_yt-a0axt7n0GuQ_19.mp4	0.0	150.97940587997437	1.000143051147461
23	130.90778398513794	pulse	0	t		21.0	2.5	/experiments/aot/S_yt-a0axt7n0GuQ_19.mp4	0.0	151.5628900527954	
23	131.32444286346436	movie	1		300	21.0	2.5	/experiments/aot/S_yt-a0axt7n0GuQ_19.mp4	0.0	151.97954893112183	2.499424934387207
23	132.50773000717163	pulse	1	t		21.0	2.5	/experiments/aot/S_yt-a0axt7n0GuQ_19.mp4	0.0	153.1628360748291	
23	133.82386779785156	fix_post	2		12	21.0	2.5	/experiments/aot/S_yt-a0axt7n0GuQ_19.mp4	0.0	154.47897386550903	0.10042214393615723
24	133.92428994178772	fix_pre	0		120	22.0	2.5	/experiments/aot/R_S_ILSVRC2015_train_00165012.mp4	0.0	154.5793960094452	1.0000300407409668
24	134.10773491859436	pulse	0	t		22.0	2.5	/experiments/aot/R_S_ILSVRC2015_train_00165012.mp4	0.0	154.76284098625183	
24	134.9243199825287	movie	1		300	22.0	2.5	/experiments/aot/R_S_ILSVRC2015_train_00165012.mp4	0.0	155.57942605018616	2.4995179176330566
24	135.7077980041504	pulse	1	t		22.0	2.5	/experiments/aot/R_S_ILSVRC2015_train_00165012.mp4	0.0	156.36290407180786	
24	137.3072168827057	pulse	1	t		22.0	2.5	/experiments/aot/R_S_ILSVRC2015_train_00165012.mp4	0.0	157.96232295036316	
24	137.42383790016174	fix_post	2		12	22.0	2.5	/experiments/aot/R_S_ILSVRC2015_train_00165012.mp4	0.0	158.0789439678192	0.10046792030334473
25	137.5243058204651	fix_pre	0		120	23.0	2.5	/experiments/aot/S_yt-wnQFgNEnHUI_109.mp4	0.0	158.17941188812256	0.9999740123748779
25	138.52427983283997	movie	1		300	23.0	2.5	/experiments/aot/S_yt-wnQFgNEnHUI_109.mp4	0.0	159.17938590049744	2.499983072280884
25	138.90776586532593	pulse	1	t		23.0	2.5	/experiments/aot/S_yt-wnQFgNEnHUI_109.mp4	0.0	159.5628719329834	
25	140.50776600837708	pulse	1	t		23.0	2.5	/experiments/aot/S_yt-wnQFgNEnHUI_109.mp4	0.0	161.16287207603455	
25	141.02426290512085	fix_post	2		12	23.0	2.5	/experiments/aot/S_yt-wnQFgNEnHUI_109.mp4	0.0	161.67936897277832	0.09955406188964844
26	141.1238169670105	fix_pre	0		119	24.0	2.5	/experiments/aot/S_bing-www_dailymotion_com_video_x4kcklg_53.mp4	0.0	161.77892303466797	0.9920449256896973
26	142.10768795013428	pulse	0	t		24.0	2.5	/experiments/aot/S_bing-www_dailymotion_com_video_x4kcklg_53.mp4	0.0	162.76279401779175	
26	142.1158618927002	movie	1		160	24.0	2.5	/experiments/aot/S_bing-www_dailymotion_com_video_x4kcklg_53.mp4	0.0	162.77096796035767	2.508450984954834
26	143.7078058719635	pulse	1	t		24.0	2.5	/experiments/aot/S_bing-www_dailymotion_com_video_x4kcklg_53.mp4	0.0	164.36291193962097	
26	144.62431287765503	fix_post	2		12	24.0	2.5	/experiments/aot/S_bing-www_dailymotion_com_video_x4kcklg_53.mp4	0.0	165.2794189453125	0.09989094734191895
27	144.72420382499695	fix_pre	0		120	25.0	2.5	/experiments/aot/R_S_yt-dO0OuozAgt0_225.mp4	0.0	165.37930989265442	0.9999940395355225
27	145.30774784088135	pulse	0	t		25.0	2.5	/experiments/aot/R_S_yt-dO0OuozAgt0_225.mp4	0.0	165.96285390853882	
27	145.72419786453247	movie	1		300	25.0	2.5	/experiments/aot/R_S_yt-dO0OuozAgt0_225.mp4	0.0	166.37930393218994	2.5000550746917725
27	146.907732963562	pulse	1	t		25.0	2.5	/experiments/aot/R_S_yt-dO0OuozAgt0_225.mp4	0.0	167.56283903121948	
27	148.22425293922424	fix_post	2		12	25.0	2.5	/experiments/aot/R_S_yt-dO0OuozAgt0_225.mp4	0.0	168.8793590068817	0.09992384910583496
28	148.32417678833008	fix_pre	0		120	26.0	2.5	/experiments/aot/S_yt-sPhtPyQM00c_106.mp4	0.0	168.97928285598755	1.000016212463379
28	148.5077087879181	pulse	0	t		26.0	2.5	/experiments/aot/S_yt-sPhtPyQM00c_106.mp4	0.0	169.16281485557556	
28	149.32419300079346	movie	1		300	26.0	2.5	/experiments/aot/S_yt-sPhtPyQM00c_106.mp4	0.0	169.97929906845093	2.500016927719116
28	150.10774993896484	pulse	1	t		26.0	2.5	/experiments/aot/S_yt-sPhtPyQM00c_106.mp4	0.0	170.76285600662231	
28	151.7076690196991	pulse	1	t		26.0	2.5	/experiments/aot/S_yt-sPhtPyQM00c_106.mp4	0.0	172.36277508735657	
28	151.82420992851257	fix_post	2		12	26.0	2.5	/experiments/aot/S_yt-sPhtPyQM00c_106.mp4	0.0	172.47931599617004	0.09993791580200195
29	151.92414784431458	fix_pre	0		120	27.0	2.5	/experiments/aot/R_S_comp_L007_C007_PS_v01_SDR_PS_20180925_SDR_2K_AVC.mp4	0.0	172.57925391197205	1.0000841617584229
29	152.924232006073	movie	1		167	27.0	2.5	/experiments/aot/R_S_comp_L007_C007_PS_v01_SDR_PS_20180925_SDR_2K_AVC.mp4	0.0	173.57933807373047	2.5000569820404053
29	153.3079059123993	pulse	1	t		27.0	2.5	/experiments/aot/R_S_comp_L007_C007_PS_v01_SDR_PS_20180925_SDR_2K_AVC.mp4	0.0	173.96301198005676	
29	154.9076898097992	pulse	1	t		27.0	2.5	/experiments/aot/R_S_comp_L007_C007_PS_v01_SDR_PS_20180925_SDR_2K_AVC.mp4	0.0	175.56279587745667	
29	155.4242889881134	fix_post	2		12	27.0	2.5	/experiments/aot/R_S_comp_L007_C007_PS_v01_SDR_PS_20180925_SDR_2K_AVC.mp4	0.0	176.07939505577087	0.09997391700744629
30	155.52426290512085	fix_pre	0		119	28.0	2.5	blank	1.0	176.17936897277832	0.9915521144866943
30	156.50727891921997	pulse	0	t		28.0	2.5	blank	1.0	177.16238498687744	
30	156.51581501960754	movie	1		301	28.0	2.5	blank	1.0	177.17092108726501	2.508126974105835
30	158.10730600357056	pulse	1	t		28.0	2.5	blank	1.0	178.76241207122803	
30	159.02394199371338	fix_post	2		12	28.0	2.5	blank	1.0	179.67904806137085	0.1005239486694336
31	159.1244659423828	fix_pre	0		120	29.0	2.5	/experiments/aot/R_S_yt-K-iCphzt_RE_17.mp4	0.0	179.77957201004028	0.9997098445892334
31	159.707594871521	pulse	0	t		29.0	2.5	/experiments/aot/R_S_yt-K-iCphzt_RE_17.mp4	0.0	180.36270093917847	
31	160.12417578697205	movie	1		300	29.0	2.5	/experiments/aot/R_S_yt-K-iCphzt_RE_17.mp4	0.0	180.77928185462952	2.5000200271606445
31	161.30766701698303	pulse	1	t		29.0	2.5	/experiments/aot/R_S_yt-K-iCphzt_RE_17.mp4	0.0	181.9627730846405	
31	162.6241958141327	fix_post	2		12	29.0	2.5	/experiments/aot/R_S_yt-K-iCphzt_RE_17.mp4	0.0	183.27930188179016	0.09997010231018066
32	162.72416591644287	fix_pre	0		120	30.0	2.5	/experiments/aot/R_S_yt-P8vJa4YVcGU_488.mp4	0.0	183.37927198410034	1.0001049041748047
32	162.90764784812927	pulse	0	t		30.0	2.5	/experiments/aot/R_S_yt-P8vJa4YVcGU_488.mp4	0.0	183.56275391578674	
32	163.72427082061768	movie	1		299	30.0	2.5	/experiments/aot/R_S_yt-P8vJa4YVcGU_488.mp4	0.0	184.37937688827515	2.499495029449463
32	164.5075809955597	pulse	1	t		30.0	2.5	/experiments/aot/R_S_yt-P8vJa4YVcGU_488.mp4	0.0	185.16268706321716	
32	166.1075677871704	pulse	1	t		30.0	2.5	/experiments/aot/R_S_yt-P8vJa4YVcGU_488.mp4	0.0	186.76267385482788	
32	166.22376585006714	fix_post	2		12	30.0	2.5	/experiments/aot/R_S_yt-P8vJa4YVcGU_488.mp4	0.0	186.8788719177246	0.09997105598449707
33	166.32373690605164	fix_pre	0		120	31.0	2.5	/experiments/aot/R_S_ILSVRC2015_train_00425000.mp4	0.0	186.9788429737091	1.0004329681396484
33	167.32416987419128	movie	1		300	31.0	2.5	/experiments/aot/R_S_ILSVRC2015_train_00425000.mp4	0.0	187.97927594184875	2.4999001026153564
33	167.70759201049805	pulse	1	t		31.0	2.5	/experiments/aot/R_S_ILSVRC2015_train_00425000.mp4	0.0	188.36269807815552	
33	169.3076388835907	pulse	1	t		31.0	2.5	/experiments/aot/R_S_ILSVRC2015_train_00425000.mp4	0.0	189.96274495124817	
33	169.82406997680664	fix_post	2		12	31.0	2.5	/experiments/aot/R_S_ILSVRC2015_train_00425000.mp4	0.0	190.4791760444641	0.10004091262817383
34	169.92411088943481	fix_pre	0		119	32.0	2.5	/experiments/aot/R_S_pexels-tima-miroshnichenko-8724308.mp4	0.0	190.57921695709229	0.9916501045227051
34	170.90761995315552	pulse	0	t		32.0	2.5	/experiments/aot/R_S_pexels-tima-miroshnichenko-8724308.mp4	0.0	191.562726020813	
34	170.91576099395752	movie	1		162	32.0	2.5	/experiments/aot/R_S_pexels-tima-miroshnichenko-8724308.mp4	0.0	191.570867061615	2.507917881011963
34	172.50689792633057	pulse	1	t		32.0	2.5	/experiments/aot/R_S_pexels-tima-miroshnichenko-8724308.mp4	0.0	193.16200399398804	
34	173.42367887496948	fix_post	2		12	32.0	2.5	/experiments/aot/R_S_pexels-tima-miroshnichenko-8724308.mp4	0.0	194.07878494262695	0.10039997100830078
35	173.52407884597778	fix_pre	0		120	33.0	2.5	/experiments/aot/R_S_ILSVRC2015_train_00165009.mp4	0.0	194.17918491363525	0.9999639987945557
35	174.10761284828186	pulse	0	t		33.0	2.5	/experiments/aot/R_S_ILSVRC2015_train_00165009.mp4	0.0	194.76271891593933	
35	174.52404284477234	movie	1		299	33.0	2.5	/experiments/aot/R_S_ILSVRC2015_train_00165009.mp4	0.0	195.1791489124298	2.50004506111145
35	175.7076678276062	pulse	1	t		33.0	2.5	/experiments/aot/R_S_ILSVRC2015_train_00165009.mp4	0.0	196.36277389526367	
35	177.0240879058838	fix_post	2		12	33.0	2.5	/experiments/aot/R_S_ILSVRC2015_train_00165009.mp4	0.0	197.67919397354126	0.09961605072021484
36	177.123703956604	fix_pre	0		120	34.0	2.5	blank	1.0	197.77881002426147	1.0003869533538818
36	177.30759692192078	pulse	0	t		34.0	2.5	blank	1.0	197.96270298957825	
36	178.12409090995789	movie	1		300	34.0	2.5	blank	1.0	198.77919697761536	2.499972105026245
36	178.90761494636536	pulse	1	t		34.0	2.5	blank	1.0	199.56272101402283	
36	180.50753688812256	pulse	1	t		34.0	2.5	blank	1.0	201.16264295578003	
36	180.62406301498413	fix_post	2		12	34.0	2.5	blank	1.0	201.2791690826416	0.09991598129272461
37	180.72397899627686	fix_pre	0		120	35.0	2.5	/experiments/aot/S_pexels-tima-miroshnichenko-8724308.mp4	0.0	201.37908506393433	0.9996998310089111
37	181.72367882728577	movie	1		161	35.0	2.5	/experiments/aot/S_pexels-tima-miroshnichenko-8724308.mp4	0.0	202.37878489494324	2.5003771781921387
37	182.10760498046875	pulse	1	t		35.0	2.5	/experiments/aot/S_pexels-tima-miroshnichenko-8724308.mp4	0.0	202.76271104812622	
37	183.70760798454285	pulse	1	t		35.0	2.5	/experiments/aot/S_pexels-tima-miroshnichenko-8724308.mp4	0.0	204.36271405220032	
37	184.2240560054779	fix_post	2		12	35.0	2.5	/experiments/aot/S_pexels-tima-miroshnichenko-8724308.mp4	0.0	204.87916207313538	0.09996294975280762
38	184.3240189552307	fix_pre	0		119	36.0	2.5	/experiments/aot/S_ILSVRC2015_train_00743006.mp4	0.0	204.97912502288818	0.9916689395904541
38	185.30756878852844	pulse	0	t		36.0	2.5	/experiments/aot/S_ILSVRC2015_train_00743006.mp4	0.0	205.9626748561859	
38	185.31568789482117	movie	1		301	36.0	2.5	/experiments/aot/S_ILSVRC2015_train_00743006.mp4	0.0	205.97079396247864	2.508373975753784
38	186.90331888198853	pulse	1	t		36.0	2.5	/experiments/aot/S_ILSVRC2015_train_00743006.mp4	0.0	207.558424949646	
38	187.82406187057495	fix_post	2		12	36.0	2.5	/experiments/aot/S_ILSVRC2015_train_00743006.mp4	0.0	208.47916793823242	0.09959602355957031
39	187.92365789413452	fix_pre	0		120	37.0	2.5	/experiments/aot/S_ILSVRC2015_train_00569006.mp4	0.0	208.578763961792	1.0003149509429932
39	188.50753784179688	pulse	0	t		37.0	2.5	/experiments/aot/S_ILSVRC2015_train_00569006.mp4	0.0	209.16264390945435	
39	188.92397284507751	movie	1		300	37.0	2.5	/experiments/aot/S_ILSVRC2015_train_00569006.mp4	0.0	209.57907891273499	2.4996249675750732
39	190.10752296447754	pulse	1	t		37.0	2.5	/experiments/aot/S_ILSVRC2015_train_00569006.mp4	0.0	210.762629032135	
39	191.4235978126526	fix_post	2		12	37.0	2.5	/experiments/aot/S_ILSVRC2015_train_00569006.mp4	0.0	212.07870388031006	0.10042619705200195
40	191.5240240097046	fix_pre	0		120	38.0	2.5	/experiments/aot/R_S_production_ID_4707837.mp4	0.0	212.17913007736206	1.0000178813934326
40	191.7075319290161	pulse	0	t		38.0	2.5	/experiments/aot/R_S_production_ID_4707837.mp4	0.0	212.36263799667358	
40	192.52404189109802	movie	1		161	38.0	2.5	/experiments/aot/R_S_production_ID_4707837.mp4	0.0	213.1791479587555	2.499526023864746
40	193.30757689476013	pulse	1	t		38.0	2.5	/experiments/aot/R_S_production_ID_4707837.mp4	0.0	213.9626829624176	
40	194.90754890441895	pulse	1	t		38.0	2.5	/experiments/aot/R_S_production_ID_4707837.mp4	0.0	215.56265497207642	
40	195.02356791496277	fix_post	2		12	38.0	2.5	/experiments/aot/R_S_production_ID_4707837.mp4	0.0	215.67867398262024	0.10044097900390625
41	195.12400889396667	fix_pre	0		120	39.0	2.5	/experiments/aot/S_yt-kYMffy4hTMo_107.mp4	0.0	215.77911496162415	0.9995450973510742
41	196.12355399131775	movie	1		300	39.0	2.5	/experiments/aot/S_yt-kYMffy4hTMo_107.mp4	0.0	216.77866005897522	2.5004799365997314
41	196.50746488571167	pulse	1	t		39.0	2.5	/experiments/aot/S_yt-kYMffy4hTMo_107.mp4	0.0	217.16257095336914	
41	198.10745000839233	pulse	1	t		39.0	2.5	/experiments/aot/S_yt-kYMffy4hTMo_107.mp4	0.0	218.7625560760498	
41	198.62403392791748	fix_post	2		12	39.0	2.5	/experiments/aot/S_yt-kYMffy4hTMo_107.mp4	0.0	219.27913999557495	0.09947490692138672
42	198.72350883483887	fix_pre	0		119	40.0	2.5	/experiments/aot/S_video-11.mp4	0.0	219.37861490249634	0.9921231269836426
42	199.70745992660522	pulse	0	t		40.0	2.5	/experiments/aot/S_video-11.mp4	0.0	220.3625659942627	
42	199.7156319618225	movie	1		162	40.0	2.5	/experiments/aot/S_video-11.mp4	0.0	220.37073802947998	2.5083658695220947
42	201.30787682533264	pulse	1	t		40.0	2.5	/experiments/aot/S_video-11.mp4	0.0	221.9629828929901	
42	202.2239978313446	fix_post	2		12	40.0	2.5	/experiments/aot/S_video-11.mp4	0.0	222.87910389900208	0.09957313537597656
43	202.32357096672058	fix_pre	0		120	41.0	2.5	blank	1.0	222.97867703437805	1.0004429817199707
43	202.90745091438293	pulse	0	t		41.0	2.5	blank	1.0	223.5625569820404	
43	203.32401394844055	movie	1		300	41.0	2.5	blank	1.0	223.97912001609802	2.499501943588257
43	204.5074918270111	pulse	1	t		41.0	2.5	blank	1.0	225.16259789466858	
43	205.8235158920288	fix_post	2		12	41.0	2.5	blank	1.0	226.47862195968628	0.10048699378967285
44	205.92400288581848	fix_pre	0		120	42.0	2.5	/experiments/aot/R_S_yt-nYi_FfCjepk_74.mp4	0.0	226.57910895347595	0.9999129772186279
44	206.10749292373657	pulse	0	t		42.0	2.5	/experiments/aot/R_S_yt-nYi_FfCjepk_74.mp4	0.0	226.76259899139404	
44	206.9239158630371	movie	1		300	42.0	2.5	/experiments/aot/R_S_yt-nYi_FfCjepk_74.mp4	0.0	227.57902193069458	2.4997339248657227
44	207.70743894577026	pulse	1	t		42.0	2.5	/experiments/aot/R_S_yt-nYi_FfCjepk_74.mp4	0.0	228.36254501342773	
44	209.30743885040283	pulse	1	t		42.0	2.5	/experiments/aot/R_S_yt-nYi_FfCjepk_74.mp4	0.0	229.9625449180603	
44	209.42364978790283	fix_post	2		12	42.0	2.5	/experiments/aot/R_S_yt-nYi_FfCjepk_74.mp4	0.0	230.0787558555603	0.10031914710998535
45	209.52396893501282	fix_pre	0		120	43.0	2.5	/experiments/aot/R_S_yt-fA0nOetbOJY_580.mp4	0.0	230.1790750026703	1.000119924545288
45	210.5240888595581	movie	1		299	43.0	2.5	/experiments/aot/R_S_yt-fA0nOetbOJY_580.mp4	0.0	231.17919492721558	2.4994890689849854
45	210.90742683410645	pulse	1	t		43.0	2.5	/experiments/aot/R_S_yt-fA0nOetbOJY_580.mp4	0.0	231.56253290176392	
45	212.50734901428223	pulse	1	t		43.0	2.5	/experiments/aot/R_S_yt-fA0nOetbOJY_580.mp4	0.0	233.1624550819397	
45	213.0235779285431	fix_post	2		12	43.0	2.5	/experiments/aot/R_S_yt-fA0nOetbOJY_580.mp4	0.0	233.67868399620056	0.10033297538757324
46	213.12391090393066	fix_pre	0		119	44.0	2.5	/experiments/aot/R_S_yt-zh2yLr-o_8A_953.mp4	0.0	233.77901697158813	0.991753101348877
46	214.1070899963379	pulse	0	t		44.0	2.5	/experiments/aot/R_S_yt-zh2yLr-o_8A_953.mp4	0.0	234.76219606399536	
46	214.11566400527954	movie	1		299	44.0	2.5	/experiments/aot/R_S_yt-zh2yLr-o_8A_953.mp4	0.0	234.770770072937	2.507889986038208
46	215.70377588272095	pulse	1	t		44.0	2.5	/experiments/aot/R_S_yt-zh2yLr-o_8A_953.mp4	0.0	236.35888195037842	
46	216.62355399131775	fix_post	2		12	44.0	2.5	/experiments/aot/R_S_yt-zh2yLr-o_8A_953.mp4	0.0	237.27866005897522	0.10041999816894531
47	216.7239739894867	fix_pre	0		120	45.0	2.5	/experiments/aot/R_S_yt-IDpUZ2NWBUY_60.mp4	0.0	237.37908005714417	0.9999430179595947
47	217.30743598937988	pulse	0	t		45.0	2.5	/experiments/aot/R_S_yt-IDpUZ2NWBUY_60.mp4	0.0	237.96254205703735	
47	217.7239170074463	movie	1		300	45.0	2.5	/experiments/aot/R_S_yt-IDpUZ2NWBUY_60.mp4	0.0	238.37902307510376	2.4995169639587402
47	218.90737986564636	pulse	1	t		45.0	2.5	/experiments/aot/R_S_yt-IDpUZ2NWBUY_60.mp4	0.0	239.56248593330383	
47	220.22343397140503	fix_post	2		12	45.0	2.5	/experiments/aot/R_S_yt-IDpUZ2NWBUY_60.mp4	0.0	240.8785400390625	0.10043191909790039
48	220.32386589050293	fix_pre	0		120	46.0	2.5	/experiments/aot/R_S_yt--5ls65Ue1RA_52.mp4	0.0	240.9789719581604	1.0002059936523438
48	220.50736093521118	pulse	0	t		46.0	2.5	/experiments/aot/R_S_yt--5ls65Ue1RA_52.mp4	0.0	241.16246700286865	
48	221.32407188415527	movie	1		300	46.0	2.5	/experiments/aot/R_S_yt--5ls65Ue1RA_52.mp4	0.0	241.97917795181274	2.4997880458831787
48	222.10746383666992	pulse	1	t		46.0	2.5	/experiments/aot/R_S_yt--5ls65Ue1RA_52.mp4	0.0	242.7625699043274	
48	223.70694494247437	pulse	1	t		46.0	2.5	/experiments/aot/R_S_yt--5ls65Ue1RA_52.mp4	0.0	244.36205101013184	
48	223.82385993003845	fix_post	2		12	46.0	2.5	/experiments/aot/R_S_yt--5ls65Ue1RA_52.mp4	0.0	244.47896599769592	0.0995779037475586
49	223.923437833786	fix_pre	0		120	47.0	2.5	/experiments/aot/S_yt-Ev39pXXfr1Y_152.mp4	0.0	244.57854390144348	1.0000250339508057
49	224.92346286773682	movie	1		299	47.0	2.5	/experiments/aot/S_yt-Ev39pXXfr1Y_152.mp4	0.0	245.5785689353943	2.499911069869995
49	225.30733489990234	pulse	1	t		47.0	2.5	/experiments/aot/S_yt-Ev39pXXfr1Y_152.mp4	0.0	245.96244096755981	
49	226.90726780891418	pulse	1	t		47.0	2.5	/experiments/aot/S_yt-Ev39pXXfr1Y_152.mp4	0.0	247.56237387657166	
49	227.4233739376068	fix_post	2		12	47.0	2.5	/experiments/aot/S_yt-Ev39pXXfr1Y_152.mp4	0.0	248.07848000526428	0.10048699378967285
50	227.52386093139648	fix_pre	0		119	48.0	2.5	/experiments/aot/S_yt-ThT8utBaywI_68.mp4	0.0	248.17896699905396	0.9916379451751709
50	228.50731086730957	pulse	0	t		48.0	2.5	/experiments/aot/S_yt-ThT8utBaywI_68.mp4	0.0	249.16241693496704	
50	228.51549887657166	movie	1		301	48.0	2.5	/experiments/aot/S_yt-ThT8utBaywI_68.mp4	0.0	249.17060494422913	2.5082690715789795
50	230.10301184654236	pulse	1	t		48.0	2.5	/experiments/aot/S_yt-ThT8utBaywI_68.mp4	0.0	250.75811791419983	
50	231.02376794815063	fix_post	2		12	48.0	2.5	/experiments/aot/S_yt-ThT8utBaywI_68.mp4	0.0	251.6788740158081	0.10001802444458008
51	231.12378597259521	fix_pre	0		120	49.0	2.5	blank	1.0	251.77889204025269	1.0000269412994385
51	231.70726895332336	pulse	0	t		49.0	2.5	blank	1.0	252.36237502098083	
51	232.12381291389465	movie	1		300	49.0	2.5	blank	1.0	252.77891898155212	2.4999709129333496
51	233.30725598335266	pulse	1	t		49.0	2.5	blank	1.0	253.96236205101013	
51	234.623783826828	fix_post	2		12	49.0	2.5	blank	1.0	255.27888989448547	0.09965300559997559
52	234.72343683242798	fix_pre	0		120	50.0	2.5	/experiments/aot/S_yt-uE9XoCLZlFo_1.mp4	0.0	255.37854290008545	1.00034499168396
52	234.90734887123108	pulse	0	t		50.0	2.5	/experiments/aot/S_yt-uE9XoCLZlFo_1.mp4	0.0	255.56245493888855	
52	235.72378182411194	movie	1		300	50.0	2.5	/experiments/aot/S_yt-uE9XoCLZlFo_1.mp4	0.0	256.3788878917694	2.5000321865081787
52	236.50728392601013	pulse	1	t		50.0	2.5	/experiments/aot/S_yt-uE9XoCLZlFo_1.mp4	0.0	257.1623899936676	
52	238.10730695724487	pulse	1	t		50.0	2.5	/experiments/aot/S_yt-uE9XoCLZlFo_1.mp4	0.0	258.76241302490234	
52	238.22381401062012	fix_post	2		12	50.0	2.5	/experiments/aot/S_yt-uE9XoCLZlFo_1.mp4	0.0	258.8789200782776	0.09996294975280762
53	238.32377696037292	fix_pre	0		120	51.0	2.5	/experiments/aot/S_yt-wEbfIR14zZ8_7.mp4	0.0	258.9788830280304	0.9999599456787109
53	239.32373690605164	movie	1		299	51.0	2.5	/experiments/aot/S_yt-wEbfIR14zZ8_7.mp4	0.0	259.9788429737091	2.4996120929718018
53	239.70732283592224	pulse	1	t		51.0	2.5	/experiments/aot/S_yt-wEbfIR14zZ8_7.mp4	0.0	260.3624289035797	
53	241.30731391906738	pulse	1	t		51.0	2.5	/experiments/aot/S_yt-wEbfIR14zZ8_7.mp4	0.0	261.96241998672485	
53	241.82334899902344	fix_post	2		12	51.0	2.5	/experiments/aot/S_yt-wEbfIR14zZ8_7.mp4	0.0	262.4784550666809	0.10039591789245605
54	241.9237449169159	fix_pre	0		119	52.0	2.5	/experiments/aot/S_ILSVRC2015_train_00165009.mp4	0.0	262.57885098457336	0.9916870594024658
54	242.907292842865	pulse	0	t		52.0	2.5	/experiments/aot/S_ILSVRC2015_train_00165009.mp4	0.0	263.56239891052246	
54	242.91543197631836	movie	1		301	52.0	2.5	/experiments/aot/S_ILSVRC2015_train_00165009.mp4	0.0	263.57053804397583	2.5082828998565674
54	244.50413489341736	pulse	1	t		52.0	2.5	/experiments/aot/S_ILSVRC2015_train_00165009.mp4	0.0	265.15924096107483	
54	245.42371487617493	fix_post	2		12	52.0	2.5	/experiments/aot/S_ILSVRC2015_train_00165009.mp4	0.0	266.0788209438324	0.09999895095825195
55	245.52371382713318	fix_pre	0		120	53.0	2.5	/experiments/aot/R_S_yt-7W50lcw5FCo_37.mp4	0.0	266.17881989479065	1.000025987625122
55	246.10725498199463	pulse	0	t		53.0	2.5	/experiments/aot/R_S_yt-7W50lcw5FCo_37.mp4	0.0	266.7623610496521	
55	246.5237398147583	movie	1		300	53.0	2.5	/experiments/aot/R_S_yt-7W50lcw5FCo_37.mp4	0.0	267.17884588241577	2.4995551109313965
55	247.7072229385376	pulse	1	t		53.0	2.5	/experiments/aot/R_S_yt-7W50lcw5FCo_37.mp4	0.0	268.36232900619507	
55	249.0232949256897	fix_post	2		12	53.0	2.5	/experiments/aot/R_S_yt-7W50lcw5FCo_37.mp4	0.0	269.67840099334717	0.10039591789245605
56	249.12369084358215	fix_pre	0		120	54.0	2.5	/experiments/aot/R_S_yt-uWeU2s6JYyk_10.mp4	0.0	269.7787969112396	0.9999880790710449
56	249.30739784240723	pulse	0	t		54.0	2.5	/experiments/aot/R_S_yt-uWeU2s6JYyk_10.mp4	0.0	269.9625039100647	
56	250.1236789226532	movie	1		300	54.0	2.5	/experiments/aot/R_S_yt-uWeU2s6JYyk_10.mp4	0.0	270.77878499031067	2.4999918937683105
56	250.90716791152954	pulse	1	t		54.0	2.5	/experiments/aot/R_S_yt-uWeU2s6JYyk_10.mp4	0.0	271.562273979187	
56	252.50677680969238	pulse	1	t		54.0	2.5	/experiments/aot/R_S_yt-uWeU2s6JYyk_10.mp4	0.0	273.16188287734985	
56	252.6236708164215	fix_post	2		12	54.0	2.5	/experiments/aot/R_S_yt-uWeU2s6JYyk_10.mp4	0.0	273.278776884079	0.1000370979309082
57	252.72370791435242	fix_pre	0		120	55.0	2.5	blank	1.0	273.3788139820099	0.9999899864196777
57	253.7236979007721	movie	1		300	55.0	2.5	blank	1.0	274.37880396842957	2.499933958053589
57	254.10724687576294	pulse	1	t		55.0	2.5	blank	1.0	274.7623529434204	
57	255.70724296569824	pulse	1	t		55.0	2.5	blank	1.0	276.3623490333557	
57	256.2236318588257	fix_post	2		12	55.0	2.5	blank	1.0	276.87873792648315	0.1000370979309082
58	256.3236689567566	fix_pre	0		119	56.0	2.5	/experiments/aot/S_yt-_7HJhRPVmHw_255.mp4	0.0	276.97877502441406	0.9917478561401367
58	257.3071839809418	pulse	0	t		56.0	2.5	/experiments/aot/S_yt-_7HJhRPVmHw_255.mp4	0.0	277.96229004859924	
58	257.31541681289673	movie	1		301	56.0	2.5	/experiments/aot/S_yt-_7HJhRPVmHw_255.mp4	0.0	277.9705228805542	2.508277177810669
58	258.90395188331604	pulse	1	t		56.0	2.5	/experiments/aot/S_yt-_7HJhRPVmHw_255.mp4	0.0	279.5590579509735	
58	259.8236939907074	fix_post	2		12	56.0	2.5	/experiments/aot/S_yt-_7HJhRPVmHw_255.mp4	0.0	280.47880005836487	0.09954690933227539
59	259.9232409000397	fix_pre	0		120	57.0	2.5	/experiments/aot/R_S_ILSVRC2015_train_00584001.mp4	0.0	280.57834696769714	1.0005249977111816
59	260.50718879699707	pulse	0	t		57.0	2.5	/experiments/aot/R_S_ILSVRC2015_train_00584001.mp4	0.0	281.16229486465454	
59	260.92376589775085	movie	1		300	57.0	2.5	/experiments/aot/R_S_ILSVRC2015_train_00584001.mp4	0.0	281.5788719654083	2.499469041824341
59	262.1072099208832	pulse	1	t		57.0	2.5	/experiments/aot/R_S_ILSVRC2015_train_00584001.mp4	0.0	282.76231598854065	
59	263.4232349395752	fix_post	2		12	57.0	2.5	/experiments/aot/R_S_ILSVRC2015_train_00584001.mp4	0.0	284.07834100723267	0.10039901733398438
60	263.5236339569092	fix_pre	0		120	58.0	2.5	/experiments/aot/S_yt-uWeU2s6JYyk_10.mp4	0.0	284.17874002456665	1.0000450611114502
60	263.70715594291687	pulse	0	t		58.0	2.5	/experiments/aot/S_yt-uWeU2s6JYyk_10.mp4	0.0	284.36226201057434	
60	264.52367901802063	movie	1		299	58.0	2.5	/experiments/aot/S_yt-uWeU2s6JYyk_10.mp4	0.0	285.1787850856781	2.4996259212493896
60	265.3072419166565	pulse	1	t		58.0	2.5	/experiments/aot/S_yt-uWeU2s6JYyk_10.mp4	0.0	285.96234798431396	
60	266.9071578979492	pulse	1	t		58.0	2.5	/experiments/aot/S_yt-uWeU2s6JYyk_10.mp4	0.0	287.5622639656067	
60	267.02330493927	fix_post	2		12	58.0	2.5	/experiments/aot/S_yt-uWeU2s6JYyk_10.mp4	0.0	287.6784110069275	0.10038304328918457
61	267.1236879825592	fix_pre	0		120	59.0	2.5	/experiments/aot/S_ILSVRC2015_train_00689000.mp4	0.0	287.7787940502167	1.000072956085205
61	268.1237609386444	movie	1		300	59.0	2.5	/experiments/aot/S_ILSVRC2015_train_00689000.mp4	0.0	288.7788670063019	2.4997270107269287
61	268.5072178840637	pulse	1	t		59.0	2.5	/experiments/aot/S_ILSVRC2015_train_00689000.mp4	0.0	289.1623239517212	
61	270.1072618961334	pulse	1	t		59.0	2.5	/experiments/aot/S_ILSVRC2015_train_00689000.mp4	0.0	290.7623679637909	
61	270.62348794937134	fix_post	2		12	59.0	2.5	/experiments/aot/S_ILSVRC2015_train_00689000.mp4	0.0	291.2785940170288	0.1001288890838623
62	270.7236168384552	fix_pre	0		119	60.0	2.5	/experiments/aot/R_S_yt-GVaF4tmJBZE_253.mp4	0.0	291.37872290611267	0.9917089939117432
62	271.70715379714966	pulse	0	t		60.0	2.5	/experiments/aot/R_S_yt-GVaF4tmJBZE_253.mp4	0.0	292.36225986480713	
62	271.71532583236694	movie	1		301	60.0	2.5	/experiments/aot/R_S_yt-GVaF4tmJBZE_253.mp4	0.0	292.3704319000244	2.508388042449951
62	273.3030138015747	pulse	1	t		60.0	2.5	/experiments/aot/R_S_yt-GVaF4tmJBZE_253.mp4	0.0	293.9581198692322	
62	274.2237138748169	fix_post	2		12	60.0	2.5	/experiments/aot/R_S_yt-GVaF4tmJBZE_253.mp4	0.0	294.87881994247437	0.09996294975280762
63	274.3236768245697	fix_pre	0		120	61.0	2.5	/experiments/aot/S_yt-kkbtZP78JxQ_96.mp4	0.0	294.9787828922272	0.999953031539917
63	274.90712094306946	pulse	0	t		61.0	2.5	/experiments/aot/S_yt-kkbtZP78JxQ_96.mp4	0.0	295.56222701072693	
63	275.3236298561096	movie	1		300	61.0	2.5	/experiments/aot/S_yt-kkbtZP78JxQ_96.mp4	0.0	295.9787359237671	2.4999821186065674
63	276.5070638656616	pulse	1	t		61.0	2.5	/experiments/aot/S_yt-kkbtZP78JxQ_96.mp4	0.0	297.1621699333191	
63	277.8236119747162	fix_post	2		12	61.0	2.5	/experiments/aot/S_yt-kkbtZP78JxQ_96.mp4	0.0	298.47871804237366	0.10001301765441895
64	277.9236249923706	fix_pre	0		120	62.0	2.5	/experiments/aot/R_S_yt-hyZEDFkh49w_196.mp4	0.0	298.5787310600281	1.0000429153442383
64	278.1070599555969	pulse	0	t		62.0	2.5	/experiments/aot/R_S_yt-hyZEDFkh49w_196.mp4	0.0	298.7621660232544	
64	278.92366790771484	movie	1		300	62.0	2.5	/experiments/aot/R_S_yt-hyZEDFkh49w_196.mp4	0.0	299.5787739753723	2.4999608993530273
64	279.70707297325134	pulse	1	t		62.0	2.5	/experiments/aot/R_S_yt-hyZEDFkh49w_196.mp4	0.0	300.3621790409088	
64	281.30665397644043	pulse	1	t		62.0	2.5	/experiments/aot/R_S_yt-hyZEDFkh49w_196.mp4	0.0	301.9617600440979	
64	281.42362880706787	fix_post	2		12	62.0	2.5	/experiments/aot/R_S_yt-hyZEDFkh49w_196.mp4	0.0	302.07873487472534	0.09997010231018066
65	281.52359890937805	fix_pre	0		120	63.0	2.5	blank	1.0	302.1787049770355	1.0000030994415283
65	282.5236020088196	movie	1		300	63.0	2.5	blank	1.0	303.17870807647705	2.499941825866699
65	282.9071009159088	pulse	1	t		63.0	2.5	blank	1.0	303.5622069835663	
65	284.5070459842682	pulse	1	t		63.0	2.5	blank	1.0	305.16215205192566	
65	285.0235438346863	fix_post	2		12	63.0	2.5	blank	1.0	305.67864990234375	0.10005307197570801
66	285.123596906662	fix_pre	0		119	64.0	2.5	/experiments/aot/S_yt-9EnchawJ3pA_90.mp4	0.0	305.77870297431946	0.9917299747467041
66	286.10702896118164	pulse	0	t		64.0	2.5	/experiments/aot/S_yt-9EnchawJ3pA_90.mp4	0.0	306.7621350288391	
66	286.1153268814087	movie	1		301	64.0	2.5	/experiments/aot/S_yt-9EnchawJ3pA_90.mp4	0.0	306.77043294906616	2.508249044418335
66	287.7029650211334	pulse	1	t		64.0	2.5	/experiments/aot/S_yt-9EnchawJ3pA_90.mp4	0.0	308.3580710887909	
66	288.623575925827	fix_post	2		12	64.0	2.5	/experiments/aot/S_yt-9EnchawJ3pA_90.mp4	0.0	309.2786819934845	0.09994006156921387
67	288.72351598739624	fix_pre	0		120	65.0	2.5	/experiments/aot/R_S_yt-2OoHcgS8sss_7.mp4	0.0	309.3786220550537	1.0000548362731934
67	289.3070340156555	pulse	0	t		65.0	2.5	/experiments/aot/R_S_yt-2OoHcgS8sss_7.mp4	0.0	309.962140083313	
67	289.72357082366943	movie	1		300	65.0	2.5	/experiments/aot/R_S_yt-2OoHcgS8sss_7.mp4	0.0	310.3786768913269	2.4998810291290283
67	290.90704798698425	pulse	1	t		65.0	2.5	/experiments/aot/R_S_yt-2OoHcgS8sss_7.mp4	0.0	311.5621540546417	
67	292.22345185279846	fix_post	2		12	65.0	2.5	/experiments/aot/R_S_yt-2OoHcgS8sss_7.mp4	0.0	312.87855792045593	0.1000070571899414
68	292.3234589099884	fix_pre	0		120	66.0	2.5	/experiments/aot/S_pexels-cottonbro-5310858.mp4	0.0	312.9785649776459	1.0001139640808105
68	292.5070888996124	pulse	0	t		66.0	2.5	/experiments/aot/S_pexels-cottonbro-5310858.mp4	0.0	313.1621949672699	
68	293.3235728740692	movie	1		160	66.0	2.5	/experiments/aot/S_pexels-cottonbro-5310858.mp4	0.0	313.9786789417267	2.4999029636383057
68	294.10707783699036	pulse	1	t		66.0	2.5	/experiments/aot/S_pexels-cottonbro-5310858.mp4	0.0	314.7621839046478	
68	295.7069799900055	pulse	1	t		66.0	2.5	/experiments/aot/S_pexels-cottonbro-5310858.mp4	0.0	316.36208605766296	
68	295.8234758377075	fix_post	2		12	66.0	2.5	/experiments/aot/S_pexels-cottonbro-5310858.mp4	0.0	316.478581905365	0.09958004951477051
69	295.9230558872223	fix_pre	0		120	67.0	2.5	/experiments/aot/R_S_yt-GaJaxp546lc_22.mp4	0.0	316.57816195487976	1.0004830360412598
69	296.92353892326355	movie	1		300	67.0	2.5	/experiments/aot/R_S_yt-GaJaxp546lc_22.mp4	0.0	317.578644990921	2.49950909614563
69	297.3071939945221	pulse	1	t		67.0	2.5	/experiments/aot/R_S_yt-GaJaxp546lc_22.mp4	0.0	317.96230006217957	
69	298.90699887275696	pulse	1	t		67.0	2.5	/experiments/aot/R_S_yt-GaJaxp546lc_22.mp4	0.0	319.56210494041443	
69	299.4230480194092	fix_post	2		12	67.0	2.5	/experiments/aot/R_S_yt-GaJaxp546lc_22.mp4	0.0	320.07815408706665	0.10047483444213867
70	299.5235228538513	fix_pre	0		119	68.0	2.5	/experiments/aot/R_S_yt-wrfAMDCg93Y_8.mp4	0.0	320.1786289215088	0.9916951656341553
70	300.50700187683105	pulse	0	t		68.0	2.5	/experiments/aot/R_S_yt-wrfAMDCg93Y_8.mp4	0.0	321.1621079444885	
70	300.5152180194855	movie	1		301	68.0	2.5	/experiments/aot/R_S_yt-wrfAMDCg93Y_8.mp4	0.0	321.17032408714294	2.5082509517669678
70	302.10263180732727	pulse	1	t		68.0	2.5	/experiments/aot/R_S_yt-wrfAMDCg93Y_8.mp4	0.0	322.75773787498474	
70	303.02346897125244	fix_post	2		12	68.0	2.5	/experiments/aot/R_S_yt-wrfAMDCg93Y_8.mp4	0.0	323.6785750389099	0.09991884231567383
71	303.1233878135681	fix_pre	0		120	69.0	2.5	blank	1.0	323.7784938812256	0.9997491836547852
71	303.70705699920654	pulse	0	t		69.0	2.5	blank	1.0	324.362163066864	
71	304.1231369972229	movie	1		300	69.0	2.5	blank	1.0	324.77824306488037	2.5002989768981934
71	305.30698895454407	pulse	1	t		69.0	2.5	blank	1.0	325.96209502220154	
71	306.6234359741211	fix_post	2		12	69.0	2.5	blank	1.0	327.27854204177856	0.10009002685546875
72	306.72352600097656	fix_pre	0		120	70.0	2.5	/experiments/aot/R_S_yt-F3hhts3bwWg_25.mp4	0.0	327.37863206863403	0.9998898506164551
72	306.9069848060608	pulse	0	t		70.0	2.5	/experiments/aot/R_S_yt-F3hhts3bwWg_25.mp4	0.0	327.56209087371826	
72	307.723415851593	movie	1		300	70.0	2.5	/experiments/aot/R_S_yt-F3hhts3bwWg_25.mp4	0.0	328.3785219192505	2.500014066696167
72	308.50699496269226	pulse	1	t		70.0	2.5	/experiments/aot/R_S_yt-F3hhts3bwWg_25.mp4	0.0	329.16210103034973	
72	310.10695791244507	pulse	1	t		70.0	2.5	/experiments/aot/R_S_yt-F3hhts3bwWg_25.mp4	0.0	330.76206398010254	
72	310.2234299182892	fix_post	2		12	70.0	2.5	/experiments/aot/R_S_yt-F3hhts3bwWg_25.mp4	0.0	330.87853598594666	0.09999489784240723
73	310.3234248161316	fix_pre	0		120	71.0	2.5	/experiments/aot/R_S_yt-IDpUZ2NWBUY_60.mp4	0.0	330.97853088378906	0.9999899864196777
73	311.32341480255127	movie	1		299	71.0	2.5	/experiments/aot/R_S_yt-IDpUZ2NWBUY_60.mp4	0.0	331.97852087020874	2.500113010406494
73	311.706818819046	pulse	1	t		71.0	2.5	/experiments/aot/R_S_yt-IDpUZ2NWBUY_60.mp4	0.0	332.3619248867035	
73	313.3068878650665	pulse	1	t		71.0	2.5	/experiments/aot/R_S_yt-IDpUZ2NWBUY_60.mp4	0.0	333.961993932724	
73	313.82352781295776	fix_post	2		12	71.0	2.5	/experiments/aot/R_S_yt-IDpUZ2NWBUY_60.mp4	0.0	334.47863388061523	0.09945511817932129
74	313.9229829311371	fix_pre	0		119	72.0	2.5	/experiments/aot/S_yt-fQgLKiz2tuM_14.mp4	0.0	334.57808899879456	0.9921488761901855
74	314.9068748950958	pulse	0	t		72.0	2.5	/experiments/aot/S_yt-fQgLKiz2tuM_14.mp4	0.0	335.5619809627533	
74	314.91513180732727	movie	1		301	72.0	2.5	/experiments/aot/S_yt-fQgLKiz2tuM_14.mp4	0.0	335.57023787498474	2.5082831382751465
74	316.5028169155121	pulse	1	t		72.0	2.5	/experiments/aot/S_yt-fQgLKiz2tuM_14.mp4	0.0	337.15792298316956	
74	317.4234149456024	fix_post	2		12	72.0	2.5	/experiments/aot/S_yt-fQgLKiz2tuM_14.mp4	0.0	338.0785210132599	0.1000058650970459
75	317.52342081069946	fix_pre	0		120	73.0	2.5	/experiments/aot/R_S_yt-uE9XoCLZlFo_1.mp4	0.0	338.17852687835693	0.9999871253967285
75	318.10690999031067	pulse	0	t		73.0	2.5	/experiments/aot/R_S_yt-uE9XoCLZlFo_1.mp4	0.0	338.76201605796814	
75	318.5234079360962	movie	1		299	73.0	2.5	/experiments/aot/R_S_yt-uE9XoCLZlFo_1.mp4	0.0	339.17851400375366	2.4995620250701904
75	319.7069048881531	pulse	1	t		73.0	2.5	/experiments/aot/R_S_yt-uE9XoCLZlFo_1.mp4	0.0	340.36201095581055	
75	321.0229699611664	fix_post	2		12	73.0	2.5	/experiments/aot/R_S_yt-uE9XoCLZlFo_1.mp4	0.0	341.67807602882385	0.10045599937438965
76	321.12342596054077	fix_pre	0		120	74.0	2.5	/experiments/aot/R_S_yt-LUIvP_NDWAs_45.mp4	0.0	341.77853202819824	0.999539852142334
76	321.30687189102173	pulse	0	t		74.0	2.5	/experiments/aot/R_S_yt-LUIvP_NDWAs_45.mp4	0.0	341.9619779586792	
76	322.1229658126831	movie	1		300	74.0	2.5	/experiments/aot/R_S_yt-LUIvP_NDWAs_45.mp4	0.0	342.7780718803406	2.500054121017456
76	322.90702080726624	pulse	1	t		74.0	2.5	/experiments/aot/R_S_yt-LUIvP_NDWAs_45.mp4	0.0	343.5621268749237	
76	324.5067539215088	pulse	1	t		74.0	2.5	/experiments/aot/R_S_yt-LUIvP_NDWAs_45.mp4	0.0	345.16185998916626	
76	324.62301993370056	fix_post	2		12	74.0	2.5	/experiments/aot/R_S_yt-LUIvP_NDWAs_45.mp4	0.0	345.27812600135803	0.0999898910522461
77	324.7230098247528	fix_pre	0		120	75.0	2.5	/experiments/aot/R_S_yt-OdTWn1U1mO4_68.mp4	0.0	345.3781158924103	1.00018310546875
77	325.72319293022156	movie	1		300	75.0	2.5	/experiments/aot/R_S_yt-OdTWn1U1mO4_68.mp4	0.0	346.378298997879	2.500105857849121
77	326.106910943985	pulse	1	t		75.0	2.5	/experiments/aot/R_S_yt-OdTWn1U1mO4_68.mp4	0.0	346.76201701164246	
77	327.7068119049072	pulse	1	t		75.0	2.5	/experiments/aot/R_S_yt-OdTWn1U1mO4_68.mp4	0.0	348.3619179725647	
77	328.2232987880707	fix_post	2		12	75.0	2.5	/experiments/aot/R_S_yt-OdTWn1U1mO4_68.mp4	0.0	348.87840485572815	0.10004806518554688
78	328.3233468532562	fix_pre	0		119	76.0	2.5	/experiments/aot/S_comp_DB_D002_C003_PSNK_v04_SDR_PS_20180914_SDR_2K_AVC.mp4	0.0	348.9784529209137	0.9916870594024658
78	329.3067829608917	pulse	0	t		76.0	2.5	/experiments/aot/S_comp_DB_D002_C003_PSNK_v04_SDR_PS_20180914_SDR_2K_AVC.mp4	0.0	349.9618890285492	
78	329.3150339126587	movie	1		164	76.0	2.5	/experiments/aot/S_comp_DB_D002_C003_PSNK_v04_SDR_PS_20180914_SDR_2K_AVC.mp4	0.0	349.97013998031616	2.5083019733428955
78	330.9065179824829	pulse	1	t		76.0	2.5	/experiments/aot/S_comp_DB_D002_C003_PSNK_v04_SDR_PS_20180914_SDR_2K_AVC.mp4	0.0	351.5616240501404	
78	331.8233358860016	fix_post	2		12	76.0	2.5	/experiments/aot/S_comp_DB_D002_C003_PSNK_v04_SDR_PS_20180914_SDR_2K_AVC.mp4	0.0	352.47844195365906	0.10006213188171387
79	331.9233980178833	fix_pre	0		120	77.0	2.5	blank	1.0	352.57850408554077	0.9999468326568604
79	332.5067307949066	pulse	0	t		77.0	2.5	blank	1.0	353.1618368625641	
79	332.92334485054016	movie	1		300	77.0	2.5	blank	1.0	353.57845091819763	2.5000319480895996
79	334.1067268848419	pulse	1	t		77.0	2.5	blank	1.0	354.7618329524994	
79	335.42337679862976	fix_post	2		12	77.0	2.5	blank	1.0	356.07848286628723	0.09992313385009766
80	335.52329993247986	fix_pre	0		120	78.0	2.5	/experiments/aot/R_S_yt-7lULOC_rSE0_747.mp4	0.0	356.17840600013733	1.0000150203704834
80	335.7067449092865	pulse	0	t		78.0	2.5	/experiments/aot/R_S_yt-7lULOC_rSE0_747.mp4	0.0	356.36185097694397	
80	336.52331495285034	movie	1		300	78.0	2.5	/experiments/aot/R_S_yt-7lULOC_rSE0_747.mp4	0.0	357.1784210205078	2.5001449584960938
80	337.3067739009857	pulse	1	t		78.0	2.5	/experiments/aot/R_S_yt-7lULOC_rSE0_747.mp4	0.0	357.9618799686432	
80	338.90674901008606	pulse	1	t		78.0	2.5	/experiments/aot/R_S_yt-7lULOC_rSE0_747.mp4	0.0	359.56185507774353	
80	339.02345991134644	fix_post	2		12	78.0	2.5	/experiments/aot/R_S_yt-7lULOC_rSE0_747.mp4	0.0	359.6785659790039	0.09986400604248047
81	339.1233239173889	fix_pre	0		120	79.0	2.5	/experiments/aot/R_S_yt-sTBOjPxix5c_1072.mp4	0.0	359.7784299850464	0.9995629787445068
81	340.1228868961334	movie	1		300	79.0	2.5	/experiments/aot/R_S_yt-sTBOjPxix5c_1072.mp4	0.0	360.7779929637909	2.5004401206970215
81	340.506817817688	pulse	1	t		79.0	2.5	/experiments/aot/R_S_yt-sTBOjPxix5c_1072.mp4	0.0	361.16192388534546	
81	342.106764793396	pulse	1	t		79.0	2.5	/experiments/aot/R_S_yt-sTBOjPxix5c_1072.mp4	0.0	362.76187086105347	
81	342.62332701683044	fix_post	2		12	79.0	2.5	/experiments/aot/R_S_yt-sTBOjPxix5c_1072.mp4	0.0	363.2784330844879	0.09998393058776855
82	342.7233109474182	fix_pre	0		119	80.0	2.5	/experiments/aot/S_ILSVRC2015_train_00569006.mp4	0.0	363.3784170150757	0.9916749000549316
82	343.7067358493805	pulse	0	t		80.0	2.5	/experiments/aot/S_ILSVRC2015_train_00569006.mp4	0.0	364.36184191703796	
82	343.71498584747314	movie	1		301	80.0	2.5	/experiments/aot/S_ILSVRC2015_train_00569006.mp4	0.0	364.3700919151306	2.5083279609680176
82	345.30268383026123	pulse	1	t		80.0	2.5	/experiments/aot/S_ILSVRC2015_train_00569006.mp4	0.0	365.9577898979187	
82	346.22331380844116	fix_post	2		12	80.0	2.5	/experiments/aot/S_ILSVRC2015_train_00569006.mp4	0.0	366.87841987609863	0.0999610424041748
83	346.32327485084534	fix_pre	0		120	81.0	2.5	/experiments/aot/R_S_video.mp4	0.0	366.9783809185028	0.9999680519104004
83	346.9067327976227	pulse	0	t		81.0	2.5	/experiments/aot/R_S_video.mp4	0.0	367.56183886528015	
83	347.32324290275574	movie	1		163	81.0	2.5	/experiments/aot/R_S_video.mp4	0.0	367.9783489704132	2.50006103515625
83	348.50686287879944	pulse	1	t		81.0	2.5	/experiments/aot/R_S_video.mp4	0.0	369.1619689464569	
83	349.823303937912	fix_post	2		12	81.0	2.5	/experiments/aot/R_S_video.mp4	0.0	370.47841000556946	0.10002303123474121
84	349.92332696914673	fix_pre	0		120	82.0	2.5	/experiments/aot/R_S_yt-EAMpitsjbbA_153.mp4	0.0	370.5784330368042	0.9999039173126221
84	350.10680890083313	pulse	0	t		82.0	2.5	/experiments/aot/R_S_yt-EAMpitsjbbA_153.mp4	0.0	370.7619149684906	
84	350.92323088645935	movie	1		300	82.0	2.5	/experiments/aot/R_S_yt-EAMpitsjbbA_153.mp4	0.0	371.5783369541168	2.4996120929718018
84	351.70666790008545	pulse	1	t		82.0	2.5	/experiments/aot/R_S_yt-EAMpitsjbbA_153.mp4	0.0	372.3617739677429	
84	353.3071458339691	pulse	1	t		82.0	2.5	/experiments/aot/R_S_yt-EAMpitsjbbA_153.mp4	0.0	373.9622519016266	
84	353.42284297943115	fix_post	2		12	82.0	2.5	/experiments/aot/R_S_yt-EAMpitsjbbA_153.mp4	0.0	374.0779490470886	0.10031700134277344
85	353.5231599807739	fix_pre	0		120	83.0	2.5	blank	1.0	374.1782660484314	1.000114917755127
85	354.52327489852905	movie	1		300	83.0	2.5	blank	1.0	375.1783809661865	2.499980926513672
85	354.90679001808167	pulse	1	t		83.0	2.5	blank	1.0	375.56189608573914	
85	356.50677585601807	pulse	1	t		83.0	2.5	blank	1.0	377.16188192367554	
85	357.0232558250427	fix_post	2		12	83.0	2.5	blank	1.0	377.6783618927002	0.09998917579650879
87	357.12324500083923	stim	0		1716					377.7783510684967	14.299973011016846
87	358.106684923172	pulse	0	t						378.76179099082947	
87	359.70661783218384	pulse	0	t						380.3617238998413	
87	361.30675196647644	pulse	0	t						381.9618580341339	
87	362.90669989585876	pulse	0	t						383.56180596351624	
87	364.50665497779846	pulse	0	t						385.16176104545593	
87	366.1066520214081	pulse	0	t						386.76175808906555	
87	367.706622838974	pulse	0	t						388.36172890663147	
87	369.30663800239563	pulse	0	t						389.9617440700531	
87	370.90661001205444	pulse	0	t						391.5617160797119	
