trial_nr	onset	event_type	phase	response	nr_frames	movie_index	movie_duration	movie_file	blank	onset_abs	duration
0	0.1831519603729248	stim	0		181					28.802193880081177	1.5084631443023682
0	1.6837129592895508	response	0	space						30.302754878997803	
1	1.691615104675293	stim	0		5060					30.310657024383545	42.17293691635132
1	43.85870099067688	pulse	0	t						72.47774291038513	
1	43.86455202102661	stim	1		1714					72.48359394073486	14.310537099838257
1	45.45666813850403	pulse	1	t						74.07571005821228	
1	47.05696415901184	pulse	1	t						75.67600607872009	
1	48.65720009803772	pulse	1	t						77.27624201774597	
1	50.257392168045044	pulse	1	t						78.8764340877533	
1	51.85766410827637	pulse	1	t						80.47670602798462	
1	53.45043897628784	pulse	1	t						82.0694808959961	
1	55.058096170425415	pulse	1	t						83.67713809013367	
1	56.65082311630249	pulse	1	t						85.26986503601074	
2	58.17508912086487	fix_pre	0		11	0.0	2.5	/experiments/knapen_AOT/AOT_stimuli/rescaled_final/1965_rv.mp4	0.0	86.79413104057312	0.10021591186523438
2	58.25112295150757	pulse	0	t		0.0	2.5	/experiments/knapen_AOT/AOT_stimuli/rescaled_final/1965_rv.mp4	0.0	86.87016487121582	
2	58.2753050327301	movie	1		241	0.0	2.5	/experiments/knapen_AOT/AOT_stimuli/rescaled_final/1965_rv.mp4	0.0	86.89434695243835	2.500157117843628
2	59.862828969955444	pulse	1	t		0.0	2.5	/experiments/knapen_AOT/AOT_stimuli/rescaled_final/1965_rv.mp4	0.0	88.4818708896637	
2	60.77546215057373	fix_post	2		12	0.0	2.5	/experiments/knapen_AOT/AOT_stimuli/rescaled_final/1965_rv.mp4	0.0	89.39450407028198	0.10001397132873535
3	60.875476121902466	fix_pre	0		120	1.0	2.5	/experiments/knapen_AOT/AOT_stimuli/rescaled_final/1536_rv.mp4	0.0	89.49451804161072	1.0002050399780273
3	61.451502084732056	pulse	0	t		1.0	2.5	/experiments/knapen_AOT/AOT_stimuli/rescaled_final/1536_rv.mp4	0.0	90.07054400444031	
3	61.87568116188049	movie	1		245	1.0	2.5	/experiments/knapen_AOT/AOT_stimuli/rescaled_final/1536_rv.mp4	0.0	90.49472308158875	2.500324010848999
3	63.05163311958313	pulse	1	t		1.0	2.5	/experiments/knapen_AOT/AOT_stimuli/rescaled_final/1536_rv.mp4	0.0	91.67067503929138	
3	64.37600517272949	fix_post	2		12	1.0	2.5	/experiments/knapen_AOT/AOT_stimuli/rescaled_final/1536_rv.mp4	0.0	92.99504709243774	0.10003399848937988
4	64.47603917121887	fix_pre	0		120	2.0	2.5	/experiments/knapen_AOT/AOT_stimuli/rescaled_final/0580_fw.mp4	0.0	93.09508109092712	1.0001459121704102
4	64.6512610912323	pulse	0	t		2.0	2.5	/experiments/knapen_AOT/AOT_stimuli/rescaled_final/0580_fw.mp4	0.0	93.27030301094055	
4	65.47618508338928	movie	1		243	2.0	2.5	/experiments/knapen_AOT/AOT_stimuli/rescaled_final/0580_fw.mp4	0.0	94.09522700309753	2.50034499168396
4	66.25141906738281	pulse	1	t		2.0	2.5	/experiments/knapen_AOT/AOT_stimuli/rescaled_final/0580_fw.mp4	0.0	94.87046098709106	
4	67.85183501243591	pulse	1	t		2.0	2.5	/experiments/knapen_AOT/AOT_stimuli/rescaled_final/0580_fw.mp4	0.0	96.47087693214417	
4	67.97653007507324	fix_post	2		12	2.0	2.5	/experiments/knapen_AOT/AOT_stimuli/rescaled_final/0580_fw.mp4	0.0	96.5955719947815	0.10002303123474121
5	68.07655310630798	fix_pre	0		119	3.0	2.5	/experiments/knapen_AOT/AOT_stimuli/rescaled_final/1588_rv.mp4	0.0	96.69559502601624	0.9918248653411865
5	69.06837797164917	movie	1		246	3.0	2.5	/experiments/knapen_AOT/AOT_stimuli/rescaled_final/1588_rv.mp4	0.0	97.68741989135742	2.5003490447998047
5	69.45267009735107	pulse	1	t		3.0	2.5	/experiments/knapen_AOT/AOT_stimuli/rescaled_final/1588_rv.mp4	0.0	98.07171201705933	
5	71.05224895477295	pulse	1	t		3.0	2.5	/experiments/knapen_AOT/AOT_stimuli/rescaled_final/1588_rv.mp4	0.0	99.6712908744812	
5	71.56872701644897	fix_post	2		12	3.0	2.5	/experiments/knapen_AOT/AOT_stimuli/rescaled_final/1588_rv.mp4	0.0	100.18776893615723	0.10006594657897949
6	71.66879296302795	fix_pre	0		119	4.0	2.5	/experiments/knapen_AOT/AOT_stimuli/rescaled_final/1847_fw.mp4	0.0	100.2878348827362	0.991793155670166
6	72.65241813659668	pulse	0	t		4.0	2.5	/experiments/knapen_AOT/AOT_stimuli/rescaled_final/1847_fw.mp4	0.0	101.27146005630493	
6	72.66058611869812	movie	1		244	4.0	2.5	/experiments/knapen_AOT/AOT_stimuli/rescaled_final/1847_fw.mp4	0.0	101.27962803840637	2.508687973022461
6	74.25315308570862	pulse	1	t		4.0	2.5	/experiments/knapen_AOT/AOT_stimuli/rescaled_final/1847_fw.mp4	0.0	102.87219500541687	
6	75.16927409172058	fix_post	2		12	4.0	2.5	/experiments/knapen_AOT/AOT_stimuli/rescaled_final/1847_fw.mp4	0.0	103.78831601142883	0.10005998611450195
7	75.26933407783508	fix_pre	0		120	5.0	2.5	/experiments/knapen_AOT/AOT_stimuli/rescaled_final/1493_fw.mp4	0.0	103.88837599754333	1.0001239776611328
7	75.85298895835876	pulse	0	t		5.0	2.5	/experiments/knapen_AOT/AOT_stimuli/rescaled_final/1493_fw.mp4	0.0	104.47203087806702	
7	76.26945805549622	movie	1		244	5.0	2.5	/experiments/knapen_AOT/AOT_stimuli/rescaled_final/1493_fw.mp4	0.0	104.88849997520447	2.500380039215088
7	77.45320415496826	pulse	1	t		5.0	2.5	/experiments/knapen_AOT/AOT_stimuli/rescaled_final/1493_fw.mp4	0.0	106.07224607467651	
7	78.7698380947113	fix_post	2		12	5.0	2.5	/experiments/knapen_AOT/AOT_stimuli/rescaled_final/1493_fw.mp4	0.0	107.38888001441956	0.09999203681945801
8	78.86983013153076	fix_pre	0		120	6.0	2.5	/experiments/knapen_AOT/AOT_stimuli/rescaled_final/0397_fw.mp4	0.0	107.48887205123901	1.0001609325408936
8	79.05336904525757	pulse	0	t		6.0	2.5	/experiments/knapen_AOT/AOT_stimuli/rescaled_final/0397_fw.mp4	0.0	107.67241096496582	
8	79.86999106407166	movie	1		244	6.0	2.5	/experiments/knapen_AOT/AOT_stimuli/rescaled_final/0397_fw.mp4	0.0	108.48903298377991	2.5004189014434814
8	80.65371417999268	pulse	1	t		6.0	2.5	/experiments/knapen_AOT/AOT_stimuli/rescaled_final/0397_fw.mp4	0.0	109.27275609970093	
8	82.25405812263489	pulse	1	t		6.0	2.5	/experiments/knapen_AOT/AOT_stimuli/rescaled_final/0397_fw.mp4	0.0	110.87310004234314	
8	82.37040996551514	fix_post	2		12	6.0	2.5	/experiments/knapen_AOT/AOT_stimuli/rescaled_final/0397_fw.mp4	0.0	110.98945188522339	0.09992218017578125
9	82.47033214569092	fix_pre	0		120	7.0	2.5	blank	1.0	111.08937406539917	1.0002129077911377
9	83.47054505348206	movie	1		299	7.0	2.5	blank	1.0	112.08958697319031	2.4920780658721924
9	83.85410809516907	pulse	1	t		7.0	2.5	blank	1.0	112.47315001487732	
9	85.45432710647583	pulse	1	t		7.0	2.5	blank	1.0	114.07336902618408	
9	85.96262311935425	fix_post	2		12	7.0	2.5	blank	1.0	114.5816650390625	0.0999748706817627
10	86.06259799003601	fix_pre	0		120	8.0	2.5	/experiments/knapen_AOT/AOT_stimuli/rescaled_final/1839_fw.mp4	0.0	114.68163990974426	1.0001220703125
10	87.05465698242188	pulse	0	t		8.0	2.5	/experiments/knapen_AOT/AOT_stimuli/rescaled_final/1839_fw.mp4	0.0	115.67369890213013	
10	87.06272006034851	movie	1		244	8.0	2.5	/experiments/knapen_AOT/AOT_stimuli/rescaled_final/1839_fw.mp4	0.0	115.68176198005676	2.508742094039917
10	88.65589308738708	pulse	1	t		8.0	2.5	/experiments/knapen_AOT/AOT_stimuli/rescaled_final/1839_fw.mp4	0.0	117.27493500709534	
10	89.57146215438843	fix_post	2		12	8.0	2.5	/experiments/knapen_AOT/AOT_stimuli/rescaled_final/1839_fw.mp4	0.0	118.19050407409668	0.1000058650970459
11	89.67146801948547	fix_pre	0		120	9.0	2.5	/experiments/knapen_AOT/AOT_stimuli/rescaled_final/1790_fw.mp4	0.0	118.29050993919373	1.000128984451294
11	90.2551109790802	pulse	0	t		9.0	2.5	/experiments/knapen_AOT/AOT_stimuli/rescaled_final/1790_fw.mp4	0.0	118.87415289878845	
11	90.67159700393677	movie	1		244	9.0	2.5	/experiments/knapen_AOT/AOT_stimuli/rescaled_final/1790_fw.mp4	0.0	119.29063892364502	2.500394105911255
11	91.85535311698914	pulse	1	t		9.0	2.5	/experiments/knapen_AOT/AOT_stimuli/rescaled_final/1790_fw.mp4	0.0	120.47439503669739	
11	93.17199110984802	fix_post	2		12	9.0	2.5	/experiments/knapen_AOT/AOT_stimuli/rescaled_final/1790_fw.mp4	0.0	121.79103302955627	0.10000991821289062
12	93.27200102806091	fix_pre	0		120	10.0	2.5	/experiments/knapen_AOT/AOT_stimuli/rescaled_final/0065_rv.mp4	0.0	121.89104294776917	1.0001540184020996
12	93.45561218261719	pulse	0	t		10.0	2.5	/experiments/knapen_AOT/AOT_stimuli/rescaled_final/0065_rv.mp4	0.0	122.07465410232544	
12	94.27215504646301	movie	1		243	10.0	2.5	/experiments/knapen_AOT/AOT_stimuli/rescaled_final/0065_rv.mp4	0.0	122.89119696617126	2.5003459453582764
12	95.05586409568787	pulse	1	t		10.0	2.5	/experiments/knapen_AOT/AOT_stimuli/rescaled_final/0065_rv.mp4	0.0	123.67490601539612	
12	96.65598702430725	pulse	1	t		10.0	2.5	/experiments/knapen_AOT/AOT_stimuli/rescaled_final/0065_rv.mp4	0.0	125.2750289440155	
12	96.77250099182129	fix_post	2		12	10.0	2.5	/experiments/knapen_AOT/AOT_stimuli/rescaled_final/0065_rv.mp4	0.0	125.39154291152954	0.10005807876586914
13	96.87255907058716	fix_pre	0		120	11.0	2.5	/experiments/knapen_AOT/AOT_stimuli/rescaled_final/0810_fw.mp4	0.0	125.49160099029541	1.0001130104064941
13	97.87267208099365	movie	1		241	11.0	2.5	/experiments/knapen_AOT/AOT_stimuli/rescaled_final/0810_fw.mp4	0.0	126.4917140007019	2.492076873779297
13	98.2568199634552	pulse	1	t		11.0	2.5	/experiments/knapen_AOT/AOT_stimuli/rescaled_final/0810_fw.mp4	0.0	126.87586188316345	
13	99.85658001899719	pulse	1	t		11.0	2.5	/experiments/knapen_AOT/AOT_stimuli/rescaled_final/0810_fw.mp4	0.0	128.47562193870544	
13	100.36474895477295	fix_post	2		12	11.0	2.5	/experiments/knapen_AOT/AOT_stimuli/rescaled_final/0810_fw.mp4	0.0	128.9837908744812	0.09997916221618652
14	100.46472811698914	fix_pre	0		120	12.0	2.5	blank	1.0	129.0837700366974	1.000135898590088
14	101.45678496360779	pulse	0	t		12.0	2.5	blank	1.0	130.07582688331604	
14	101.46486401557922	movie	1		301	12.0	2.5	blank	1.0	130.08390593528748	2.508751153945923
14	103.05709195137024	pulse	1	t		12.0	2.5	blank	1.0	131.6761338710785	
14	103.97361516952515	fix_post	2		12	12.0	2.5	blank	1.0	132.5926570892334	0.10001897811889648
15	104.07363414764404	fix_pre	0		120	13.0	2.5	/experiments/knapen_AOT/AOT_stimuli/rescaled_final/1045_rv.mp4	0.0	132.6926760673523	1.000180959701538
15	104.65723609924316	pulse	0	t		13.0	2.5	/experiments/knapen_AOT/AOT_stimuli/rescaled_final/1045_rv.mp4	0.0	133.27627801895142	
15	105.07381510734558	movie	1		244	13.0	2.5	/experiments/knapen_AOT/AOT_stimuli/rescaled_final/1045_rv.mp4	0.0	133.69285702705383	2.50032901763916
15	106.25760102272034	pulse	1	t		13.0	2.5	/experiments/knapen_AOT/AOT_stimuli/rescaled_final/1045_rv.mp4	0.0	134.8766429424286	
15	107.57414412498474	fix_post	2		12	13.0	2.5	/experiments/knapen_AOT/AOT_stimuli/rescaled_final/1045_rv.mp4	0.0	136.193186044693	0.09999895095825195
16	107.674143075943	fix_pre	0		120	14.0	2.5	/experiments/knapen_AOT/AOT_stimuli/rescaled_final/1341_fw.mp4	0.0	136.29318499565125	1.0001490116119385
16	107.85773396492004	pulse	0	t		14.0	2.5	/experiments/knapen_AOT/AOT_stimuli/rescaled_final/1341_fw.mp4	0.0	136.4767758846283	
16	108.67429208755493	movie	1		244	14.0	2.5	/experiments/knapen_AOT/AOT_stimuli/rescaled_final/1341_fw.mp4	0.0	137.29333400726318	2.5003809928894043
16	109.45803499221802	pulse	1	t		14.0	2.5	/experiments/knapen_AOT/AOT_stimuli/rescaled_final/1341_fw.mp4	0.0	138.07707691192627	
16	111.0583860874176	pulse	1	t		14.0	2.5	/experiments/knapen_AOT/AOT_stimuli/rescaled_final/1341_fw.mp4	0.0	139.67742800712585	
16	111.17467308044434	fix_post	2		12	14.0	2.5	/experiments/knapen_AOT/AOT_stimuli/rescaled_final/1341_fw.mp4	0.0	139.7937150001526	0.10006499290466309
17	111.274738073349	fix_pre	0		120	15.0	2.5	/experiments/knapen_AOT/AOT_stimuli/rescaled_final/0080_fw.mp4	0.0	139.89377999305725	1.0000560283660889
17	112.27479410171509	movie	1		244	15.0	2.5	/experiments/knapen_AOT/AOT_stimuli/rescaled_final/0080_fw.mp4	0.0	140.89383602142334	2.492055892944336
17	112.65902018547058	pulse	1	t		15.0	2.5	/experiments/knapen_AOT/AOT_stimuli/rescaled_final/0080_fw.mp4	0.0	141.27806210517883	
17	114.25861096382141	pulse	1	t		15.0	2.5	/experiments/knapen_AOT/AOT_stimuli/rescaled_final/0080_fw.mp4	0.0	142.87765288352966	
17	114.76684999465942	fix_post	2		12	15.0	2.5	/experiments/knapen_AOT/AOT_stimuli/rescaled_final/0080_fw.mp4	0.0	143.38589191436768	0.10016202926635742
18	114.86701202392578	fix_pre	0		120	16.0	2.5	/experiments/knapen_AOT/AOT_stimuli/rescaled_final/0410_rv.mp4	0.0	143.48605394363403	1.000046968460083
18	115.85142207145691	pulse	0	t		16.0	2.5	/experiments/knapen_AOT/AOT_stimuli/rescaled_final/0410_rv.mp4	0.0	144.47046399116516	
18	115.86705899238586	movie	1		246	16.0	2.5	/experiments/knapen_AOT/AOT_stimuli/rescaled_final/0410_rv.mp4	0.0	144.48610091209412	2.508635997772217
18	117.46336102485657	pulse	1	t		16.0	2.5	/experiments/knapen_AOT/AOT_stimuli/rescaled_final/0410_rv.mp4	0.0	146.08240294456482	
18	118.37569499015808	fix_post	2		12	16.0	2.5	/experiments/knapen_AOT/AOT_stimuli/rescaled_final/0410_rv.mp4	0.0	146.99473690986633	0.1000680923461914
19	118.47576308250427	fix_pre	0		120	17.0	2.5	/experiments/knapen_AOT/AOT_stimuli/rescaled_final/1952_rv.mp4	0.0	147.09480500221252	1.0001590251922607
19	119.05200409889221	pulse	0	t		17.0	2.5	/experiments/knapen_AOT/AOT_stimuli/rescaled_final/1952_rv.mp4	0.0	147.67104601860046	
19	119.47592210769653	movie	1		245	17.0	2.5	/experiments/knapen_AOT/AOT_stimuli/rescaled_final/1952_rv.mp4	0.0	148.09496402740479	2.50034499168396
19	120.65185499191284	pulse	1	t		17.0	2.5	/experiments/knapen_AOT/AOT_stimuli/rescaled_final/1952_rv.mp4	0.0	149.2708969116211	
19	121.9762670993805	fix_post	2		12	17.0	2.5	/experiments/knapen_AOT/AOT_stimuli/rescaled_final/1952_rv.mp4	0.0	150.59530901908875	0.10001587867736816
20	122.07628297805786	fix_pre	0		120	18.0	2.5	/experiments/knapen_AOT/AOT_stimuli/rescaled_final/0202_fw.mp4	0.0	150.6953248977661	1.0001530647277832
20	122.25161218643188	pulse	0	t		18.0	2.5	/experiments/knapen_AOT/AOT_stimuli/rescaled_final/0202_fw.mp4	0.0	150.87065410614014	
20	123.07643604278564	movie	1		245	18.0	2.5	/experiments/knapen_AOT/AOT_stimuli/rescaled_final/0202_fw.mp4	0.0	151.6954779624939	2.500333070755005
20	123.85183596611023	pulse	1	t		18.0	2.5	/experiments/knapen_AOT/AOT_stimuli/rescaled_final/0202_fw.mp4	0.0	152.47087788581848	
20	125.45200395584106	pulse	1	t		18.0	2.5	/experiments/knapen_AOT/AOT_stimuli/rescaled_final/0202_fw.mp4	0.0	154.07104587554932	
20	125.57676911354065	fix_post	2		12	18.0	2.5	/experiments/knapen_AOT/AOT_stimuli/rescaled_final/0202_fw.mp4	0.0	154.1958110332489	0.10001492500305176
21	125.6767840385437	fix_pre	0		119	19.0	2.5	blank	1.0	154.29582595825195	0.9918289184570312
21	126.66861295700073	movie	1		300	19.0	2.5	blank	1.0	155.28765487670898	2.5004091262817383
21	127.0522620677948	pulse	1	t		19.0	2.5	blank	1.0	155.67130398750305	
21	128.6523790359497	pulse	1	t		19.0	2.5	blank	1.0	157.27142095565796	
21	129.16902208328247	fix_post	2		12	19.0	2.5	blank	1.0	157.78806400299072	0.10004091262817383
22	129.26906299591064	fix_pre	0		119	20.0	2.5	/experiments/knapen_AOT/AOT_stimuli/rescaled_final/1101_rv.mp4	0.0	157.8881049156189	0.9917740821838379
22	130.2527461051941	pulse	0	t		20.0	2.5	/experiments/knapen_AOT/AOT_stimuli/rescaled_final/1101_rv.mp4	0.0	158.87178802490234	
22	130.26083707809448	movie	1		244	20.0	2.5	/experiments/knapen_AOT/AOT_stimuli/rescaled_final/1101_rv.mp4	0.0	158.87987899780273	2.5087549686431885
22	131.85411596298218	pulse	1	t		20.0	2.5	/experiments/knapen_AOT/AOT_stimuli/rescaled_final/1101_rv.mp4	0.0	160.47315788269043	
22	132.76959204673767	fix_post	2		12	20.0	2.5	/experiments/knapen_AOT/AOT_stimuli/rescaled_final/1101_rv.mp4	0.0	161.38863396644592	0.09998297691345215
23	132.86957502365112	fix_pre	0		120	21.0	2.5	/experiments/knapen_AOT/AOT_stimuli/rescaled_final/0022_rv.mp4	0.0	161.48861694335938	1.0001261234283447
23	133.45315718650818	pulse	0	t		21.0	2.5	/experiments/knapen_AOT/AOT_stimuli/rescaled_final/0022_rv.mp4	0.0	162.07219910621643	
23	133.86970114707947	movie	1		246	21.0	2.5	/experiments/knapen_AOT/AOT_stimuli/rescaled_final/0022_rv.mp4	0.0	162.48874306678772	2.500417947769165
23	135.05349016189575	pulse	1	t		21.0	2.5	/experiments/knapen_AOT/AOT_stimuli/rescaled_final/0022_rv.mp4	0.0	163.672532081604	
23	136.37011909484863	fix_post	2		12	21.0	2.5	/experiments/knapen_AOT/AOT_stimuli/rescaled_final/0022_rv.mp4	0.0	164.98916101455688	0.09998488426208496
24	136.47010397911072	fix_pre	0		120	22.0	2.5	/experiments/knapen_AOT/AOT_stimuli/rescaled_final/1401_rv.mp4	0.0	165.08914589881897	1.0001850128173828
24	136.65368795394897	pulse	0	t		22.0	2.5	/experiments/knapen_AOT/AOT_stimuli/rescaled_final/1401_rv.mp4	0.0	165.27272987365723	
24	137.4702889919281	movie	1		243	22.0	2.5	/experiments/knapen_AOT/AOT_stimuli/rescaled_final/1401_rv.mp4	0.0	166.08933091163635	2.5003161430358887
24	138.25392818450928	pulse	1	t		22.0	2.5	/experiments/knapen_AOT/AOT_stimuli/rescaled_final/1401_rv.mp4	0.0	166.87297010421753	
24	139.8540210723877	pulse	1	t		22.0	2.5	/experiments/knapen_AOT/AOT_stimuli/rescaled_final/1401_rv.mp4	0.0	168.47306299209595	
24	139.970605134964	fix_post	2		12	22.0	2.5	/experiments/knapen_AOT/AOT_stimuli/rescaled_final/1401_rv.mp4	0.0	168.58964705467224	0.10003185272216797
25	140.07063698768616	fix_pre	0		120	23.0	2.5	/experiments/knapen_AOT/AOT_stimuli/rescaled_final/1279_rv.mp4	0.0	168.6896789073944	1.0001909732818604
25	141.07082796096802	movie	1		244	23.0	2.5	/experiments/knapen_AOT/AOT_stimuli/rescaled_final/1279_rv.mp4	0.0	169.68986988067627	2.4919822216033936
25	141.45497012138367	pulse	1	t		23.0	2.5	/experiments/knapen_AOT/AOT_stimuli/rescaled_final/1279_rv.mp4	0.0	170.07401204109192	
25	143.05469417572021	pulse	1	t		23.0	2.5	/experiments/knapen_AOT/AOT_stimuli/rescaled_final/1279_rv.mp4	0.0	171.67373609542847	
25	143.5628101825714	fix_post	2		12	23.0	2.5	/experiments/knapen_AOT/AOT_stimuli/rescaled_final/1279_rv.mp4	0.0	172.18185210227966	0.10005378723144531
26	143.66286396980286	fix_pre	0		120	24.0	2.5	/experiments/knapen_AOT/AOT_stimuli/rescaled_final/0373_fw.mp4	0.0	172.2819058895111	1.0001680850982666
26	144.6548969745636	pulse	0	t		24.0	2.5	/experiments/knapen_AOT/AOT_stimuli/rescaled_final/0373_fw.mp4	0.0	173.27393889427185	
26	144.66303205490112	movie	1		246	24.0	2.5	/experiments/knapen_AOT/AOT_stimuli/rescaled_final/0373_fw.mp4	0.0	173.28207397460938	2.508655071258545
26	146.25558495521545	pulse	1	t		24.0	2.5	/experiments/knapen_AOT/AOT_stimuli/rescaled_final/0373_fw.mp4	0.0	174.8746268749237	
26	147.17168712615967	fix_post	2		12	24.0	2.5	/experiments/knapen_AOT/AOT_stimuli/rescaled_final/0373_fw.mp4	0.0	175.79072904586792	0.1000509262084961
27	147.27173805236816	fix_pre	0		120	25.0	2.5	/experiments/knapen_AOT/AOT_stimuli/rescaled_final/1262_rv.mp4	0.0	175.89077997207642	1.0001790523529053
27	147.85530018806458	pulse	0	t		25.0	2.5	/experiments/knapen_AOT/AOT_stimuli/rescaled_final/1262_rv.mp4	0.0	176.47434210777283	
27	148.27191710472107	movie	1		245	25.0	2.5	/experiments/knapen_AOT/AOT_stimuli/rescaled_final/1262_rv.mp4	0.0	176.89095902442932	2.500293016433716
27	149.4556450843811	pulse	1	t		25.0	2.5	/experiments/knapen_AOT/AOT_stimuli/rescaled_final/1262_rv.mp4	0.0	178.07468700408936	
27	150.77221012115479	fix_post	2		12	25.0	2.5	/experiments/knapen_AOT/AOT_stimuli/rescaled_final/1262_rv.mp4	0.0	179.39125204086304	0.1000528335571289
28	150.8722629547119	fix_pre	0		120	26.0	2.5	/experiments/knapen_AOT/AOT_stimuli/rescaled_final/0009_rv.mp4	0.0	179.49130487442017	1.0002200603485107
28	151.05583310127258	pulse	0	t		26.0	2.5	/experiments/knapen_AOT/AOT_stimuli/rescaled_final/0009_rv.mp4	0.0	179.67487502098083	
28	151.87248301506042	movie	1		243	26.0	2.5	/experiments/knapen_AOT/AOT_stimuli/rescaled_final/0009_rv.mp4	0.0	180.49152493476868	2.500339984893799
28	152.65616011619568	pulse	1	t		26.0	2.5	/experiments/knapen_AOT/AOT_stimuli/rescaled_final/0009_rv.mp4	0.0	181.27520203590393	
28	154.25630497932434	pulse	1	t		26.0	2.5	/experiments/knapen_AOT/AOT_stimuli/rescaled_final/0009_rv.mp4	0.0	182.8753468990326	
28	154.37282299995422	fix_post	2		12	26.0	2.5	/experiments/knapen_AOT/AOT_stimuli/rescaled_final/0009_rv.mp4	0.0	182.99186491966248	0.09997701644897461
29	154.4728000164032	fix_pre	0		120	27.0	2.5	blank	1.0	183.09184193611145	1.0001671314239502
29	155.47296714782715	movie	1		299	27.0	2.5	blank	1.0	184.0920090675354	2.4922618865966797
29	155.85656213760376	pulse	1	t		27.0	2.5	blank	1.0	184.475604057312	
29	157.45678305625916	pulse	1	t		27.0	2.5	blank	1.0	186.0758249759674	
29	157.96522903442383	fix_post	2		9	27.0	2.5	blank	1.0	186.58427095413208	0.09980106353759766
30	158.06503009796143	fix_pre	0		120	28.0	2.5	/experiments/knapen_AOT/AOT_stimuli/rescaled_final/1334_fw.mp4	0.0	186.68407201766968	1.000135898590088
30	159.05699801445007	pulse	0	t		28.0	2.5	/experiments/knapen_AOT/AOT_stimuli/rescaled_final/1334_fw.mp4	0.0	187.67603993415833	
30	159.0651659965515	movie	1		245	28.0	2.5	/experiments/knapen_AOT/AOT_stimuli/rescaled_final/1334_fw.mp4	0.0	187.68420791625977	2.5087599754333496
30	160.65840315818787	pulse	1	t		28.0	2.5	/experiments/knapen_AOT/AOT_stimuli/rescaled_final/1334_fw.mp4	0.0	189.27744507789612	
30	161.57392597198486	fix_post	2		12	28.0	2.5	/experiments/knapen_AOT/AOT_stimuli/rescaled_final/1334_fw.mp4	0.0	190.19296789169312	0.0999460220336914
31	161.67387199401855	fix_pre	0		120	29.0	2.5	/experiments/knapen_AOT/AOT_stimuli/rescaled_final/1965_fw.mp4	0.0	190.2929139137268	1.000133991241455
31	162.2575080394745	pulse	0	t		29.0	2.5	/experiments/knapen_AOT/AOT_stimuli/rescaled_final/1965_fw.mp4	0.0	190.87654995918274	
31	162.67400598526	movie	1		245	29.0	2.5	/experiments/knapen_AOT/AOT_stimuli/rescaled_final/1965_fw.mp4	0.0	191.29304790496826	2.50040602684021
31	163.85789108276367	pulse	1	t		29.0	2.5	/experiments/knapen_AOT/AOT_stimuli/rescaled_final/1965_fw.mp4	0.0	192.47693300247192	
31	165.17441201210022	fix_post	2		12	29.0	2.5	/experiments/knapen_AOT/AOT_stimuli/rescaled_final/1965_fw.mp4	0.0	193.79345393180847	0.1000680923461914
32	165.2744801044464	fix_pre	0		120	30.0	2.5	/experiments/knapen_AOT/AOT_stimuli/rescaled_final/1004_rv.mp4	0.0	193.89352202415466	1.0001049041748047
32	165.45804810523987	pulse	0	t		30.0	2.5	/experiments/knapen_AOT/AOT_stimuli/rescaled_final/1004_rv.mp4	0.0	194.07709002494812	
32	166.27458500862122	movie	1		244	30.0	2.5	/experiments/knapen_AOT/AOT_stimuli/rescaled_final/1004_rv.mp4	0.0	194.89362692832947	2.500434160232544
32	167.0581979751587	pulse	1	t		30.0	2.5	/experiments/knapen_AOT/AOT_stimuli/rescaled_final/1004_rv.mp4	0.0	195.67723989486694	
32	168.65598106384277	pulse	1	t		30.0	2.5	/experiments/knapen_AOT/AOT_stimuli/rescaled_final/1004_rv.mp4	0.0	197.27502298355103	
32	168.77501916885376	fix_post	2		12	30.0	2.5	/experiments/knapen_AOT/AOT_stimuli/rescaled_final/1004_rv.mp4	0.0	197.394061088562	0.09992694854736328
33	168.87494611740112	fix_pre	0		119	31.0	2.5	/experiments/knapen_AOT/AOT_stimuli/rescaled_final/0562_fw.mp4	0.0	197.49398803710938	0.9919099807739258
33	169.86685609817505	movie	1		244	31.0	2.5	/experiments/knapen_AOT/AOT_stimuli/rescaled_final/0562_fw.mp4	0.0	198.4858980178833	2.500304937362671
33	170.25880599021912	pulse	1	t		31.0	2.5	/experiments/knapen_AOT/AOT_stimuli/rescaled_final/0562_fw.mp4	0.0	198.87784790992737	
33	171.85155200958252	pulse	1	t		31.0	2.5	/experiments/knapen_AOT/AOT_stimuli/rescaled_final/0562_fw.mp4	0.0	200.47059392929077	
33	172.36716103553772	fix_post	2		12	31.0	2.5	/experiments/knapen_AOT/AOT_stimuli/rescaled_final/0562_fw.mp4	0.0	200.98620295524597	0.10001707077026367
34	172.46717810630798	fix_pre	0		120	32.0	2.5	/experiments/knapen_AOT/AOT_stimuli/rescaled_final/0938_fw.mp4	0.0	201.08622002601624	1.0001270771026611
34	173.4517970085144	pulse	0	t		32.0	2.5	/experiments/knapen_AOT/AOT_stimuli/rescaled_final/0938_fw.mp4	0.0	202.07083892822266	
34	173.46730518341064	movie	1		244	32.0	2.5	/experiments/knapen_AOT/AOT_stimuli/rescaled_final/0938_fw.mp4	0.0	202.0863471031189	2.5087249279022217
34	175.05988717079163	pulse	1	t		32.0	2.5	/experiments/knapen_AOT/AOT_stimuli/rescaled_final/0938_fw.mp4	0.0	203.67892909049988	
34	175.97603011131287	fix_post	2		12	32.0	2.5	/experiments/knapen_AOT/AOT_stimuli/rescaled_final/0938_fw.mp4	0.0	204.59507203102112	0.09999895095825195
35	176.07602906227112	fix_pre	0		120	33.0	2.5	blank	1.0	204.69507098197937	1.0001521110534668
35	176.65140295028687	pulse	0	t		33.0	2.5	blank	1.0	205.27044486999512	
35	177.07618117332458	movie	1		300	33.0	2.5	blank	1.0	205.69522309303284	2.5004069805145264
35	178.2515320777893	pulse	1	t		33.0	2.5	blank	1.0	206.87057399749756	
35	179.5765881538391	fix_post	2		12	33.0	2.5	blank	1.0	208.19563007354736	0.09998297691345215
36	179.67657113075256	fix_pre	0		120	34.0	2.5	/experiments/knapen_AOT/AOT_stimuli/rescaled_final/1792_rv.mp4	0.0	208.29561305046082	1.000154972076416
36	179.8518500328064	pulse	0	t		34.0	2.5	/experiments/knapen_AOT/AOT_stimuli/rescaled_final/1792_rv.mp4	0.0	208.47089195251465	
36	180.67672610282898	movie	1		245	34.0	2.5	/experiments/knapen_AOT/AOT_stimuli/rescaled_final/1792_rv.mp4	0.0	209.29576802253723	2.5003790855407715
36	181.45207905769348	pulse	1	t		34.0	2.5	/experiments/knapen_AOT/AOT_stimuli/rescaled_final/1792_rv.mp4	0.0	210.07112097740173	
36	183.05239295959473	pulse	1	t		34.0	2.5	/experiments/knapen_AOT/AOT_stimuli/rescaled_final/1792_rv.mp4	0.0	211.67143487930298	
36	183.17710518836975	fix_post	2		12	34.0	2.5	/experiments/knapen_AOT/AOT_stimuli/rescaled_final/1792_rv.mp4	0.0	211.796147108078	0.10003781318664551
37	183.2771430015564	fix_pre	0		119	35.0	2.5	/experiments/knapen_AOT/AOT_stimuli/rescaled_final/1115_rv.mp4	0.0	211.89618492126465	0.9918220043182373
37	184.26896500587463	movie	1		243	35.0	2.5	/experiments/knapen_AOT/AOT_stimuli/rescaled_final/1115_rv.mp4	0.0	212.88800692558289	2.500310182571411
37	184.65308499336243	pulse	1	t		35.0	2.5	/experiments/knapen_AOT/AOT_stimuli/rescaled_final/1115_rv.mp4	0.0	213.27212691307068	
37	186.25273418426514	pulse	1	t		35.0	2.5	/experiments/knapen_AOT/AOT_stimuli/rescaled_final/1115_rv.mp4	0.0	214.8717761039734	
37	186.76927518844604	fix_post	2		12	35.0	2.5	/experiments/knapen_AOT/AOT_stimuli/rescaled_final/1115_rv.mp4	0.0	215.3883171081543	0.1000208854675293
38	186.86929607391357	fix_pre	0		119	36.0	2.5	/experiments/knapen_AOT/AOT_stimuli/rescaled_final/0405_fw.mp4	0.0	215.48833799362183	0.9918289184570312
38	187.85298609733582	pulse	0	t		36.0	2.5	/experiments/knapen_AOT/AOT_stimuli/rescaled_final/0405_fw.mp4	0.0	216.47202801704407	
38	187.8611249923706	movie	1		245	36.0	2.5	/experiments/knapen_AOT/AOT_stimuli/rescaled_final/0405_fw.mp4	0.0	216.48016691207886	2.5087411403656006
38	189.4545931816101	pulse	1	t		36.0	2.5	/experiments/knapen_AOT/AOT_stimuli/rescaled_final/0405_fw.mp4	0.0	218.07363510131836	
38	190.3698661327362	fix_post	2		12	36.0	2.5	/experiments/knapen_AOT/AOT_stimuli/rescaled_final/0405_fw.mp4	0.0	218.98890805244446	0.09999489784240723
39	190.4698610305786	fix_pre	0		120	37.0	2.5	/experiments/knapen_AOT/AOT_stimuli/rescaled_final/1348_fw.mp4	0.0	219.08890295028687	1.0001261234283447
39	191.05345702171326	pulse	0	t		37.0	2.5	/experiments/knapen_AOT/AOT_stimuli/rescaled_final/1348_fw.mp4	0.0	219.6724989414215	
39	191.46998715400696	movie	1		244	37.0	2.5	/experiments/knapen_AOT/AOT_stimuli/rescaled_final/1348_fw.mp4	0.0	220.0890290737152	2.500412940979004
39	192.65383315086365	pulse	1	t		37.0	2.5	/experiments/knapen_AOT/AOT_stimuli/rescaled_final/1348_fw.mp4	0.0	221.2728750705719	
39	193.97040009498596	fix_post	2		12	37.0	2.5	/experiments/knapen_AOT/AOT_stimuli/rescaled_final/1348_fw.mp4	0.0	222.5894420146942	0.10004305839538574
40	194.07044315338135	fix_pre	0		120	38.0	2.5	/experiments/knapen_AOT/AOT_stimuli/rescaled_final/1322_rv.mp4	0.0	222.6894850730896	1.0001378059387207
40	194.25396418571472	pulse	0	t		38.0	2.5	/experiments/knapen_AOT/AOT_stimuli/rescaled_final/1322_rv.mp4	0.0	222.87300610542297	
40	195.07058095932007	movie	1		245	38.0	2.5	/experiments/knapen_AOT/AOT_stimuli/rescaled_final/1322_rv.mp4	0.0	223.68962287902832	2.5003600120544434
40	195.85427904129028	pulse	1	t		38.0	2.5	/experiments/knapen_AOT/AOT_stimuli/rescaled_final/1322_rv.mp4	0.0	224.47332096099854	
40	197.452152967453	pulse	1	t		38.0	2.5	/experiments/knapen_AOT/AOT_stimuli/rescaled_final/1322_rv.mp4	0.0	226.07119488716125	
40	197.5709409713745	fix_post	2		12	38.0	2.5	/experiments/knapen_AOT/AOT_stimuli/rescaled_final/1322_rv.mp4	0.0	226.18998289108276	0.1000211238861084
41	197.67096209526062	fix_pre	0		119	39.0	2.5	/experiments/knapen_AOT/AOT_stimuli/rescaled_final/0370_rv.mp4	0.0	226.29000401496887	0.9918169975280762
41	198.6627790927887	movie	1		245	39.0	2.5	/experiments/knapen_AOT/AOT_stimuli/rescaled_final/0370_rv.mp4	0.0	227.28182101249695	2.5003349781036377
41	199.0547890663147	pulse	1	t		39.0	2.5	/experiments/knapen_AOT/AOT_stimuli/rescaled_final/0370_rv.mp4	0.0	227.67383098602295	
41	200.6550259590149	pulse	1	t		39.0	2.5	/experiments/knapen_AOT/AOT_stimuli/rescaled_final/0370_rv.mp4	0.0	229.27406787872314	
41	201.16311407089233	fix_post	2		12	39.0	2.5	/experiments/knapen_AOT/AOT_stimuli/rescaled_final/0370_rv.mp4	0.0	229.7821559906006	0.10003805160522461
42	201.26315212249756	fix_pre	0		120	40.0	2.5	/experiments/knapen_AOT/AOT_stimuli/rescaled_final/1564_fw.mp4	0.0	229.8821940422058	1.000121831893921
42	202.2551829814911	pulse	0	t		40.0	2.5	/experiments/knapen_AOT/AOT_stimuli/rescaled_final/1564_fw.mp4	0.0	230.87422490119934	
42	202.26327395439148	movie	1		245	40.0	2.5	/experiments/knapen_AOT/AOT_stimuli/rescaled_final/1564_fw.mp4	0.0	230.88231587409973	2.508751153945923
42	203.8562240600586	pulse	1	t		40.0	2.5	/experiments/knapen_AOT/AOT_stimuli/rescaled_final/1564_fw.mp4	0.0	232.47526597976685	
42	204.7720251083374	fix_post	2		12	40.0	2.5	/experiments/knapen_AOT/AOT_stimuli/rescaled_final/1564_fw.mp4	0.0	233.39106702804565	0.0999898910522461
43	204.87201499938965	fix_pre	0		120	41.0	2.5	/experiments/knapen_AOT/AOT_stimuli/rescaled_final/0994_fw.mp4	0.0	233.4910569190979	1.0001740455627441
43	205.45568895339966	pulse	0	t		41.0	2.5	/experiments/knapen_AOT/AOT_stimuli/rescaled_final/0994_fw.mp4	0.0	234.0747308731079	
43	205.8721890449524	movie	1		244	41.0	2.5	/experiments/knapen_AOT/AOT_stimuli/rescaled_final/0994_fw.mp4	0.0	234.49123096466064	2.5003609657287598
43	207.0559720993042	pulse	1	t		41.0	2.5	/experiments/knapen_AOT/AOT_stimuli/rescaled_final/0994_fw.mp4	0.0	235.67501401901245	
43	208.37255001068115	fix_post	2		12	41.0	2.5	/experiments/knapen_AOT/AOT_stimuli/rescaled_final/0994_fw.mp4	0.0	236.9915919303894	0.10007905960083008
44	208.47262907028198	fix_pre	0		120	42.0	2.5	blank	1.0	237.09167098999023	1.0000851154327393
44	208.65616297721863	pulse	0	t		42.0	2.5	blank	1.0	237.27520489692688	
44	209.47271418571472	movie	1		300	42.0	2.5	blank	1.0	238.09175610542297	2.500403881072998
44	210.25636315345764	pulse	1	t		42.0	2.5	blank	1.0	238.8754050731659	
44	211.85654306411743	pulse	1	t		42.0	2.5	blank	1.0	240.47558498382568	
44	211.97311806678772	fix_post	2		12	42.0	2.5	blank	1.0	240.59215998649597	0.0999600887298584
45	212.07307815551758	fix_pre	0		120	43.0	2.5	/experiments/knapen_AOT/AOT_stimuli/rescaled_final/0796_fw.mp4	0.0	240.69212007522583	1.0001919269561768
45	213.07327008247375	movie	1		240	43.0	2.5	/experiments/knapen_AOT/AOT_stimuli/rescaled_final/0796_fw.mp4	0.0	241.692312002182	2.5005390644073486
45	213.4573621749878	pulse	1	t		43.0	2.5	/experiments/knapen_AOT/AOT_stimuli/rescaled_final/0796_fw.mp4	0.0	242.07640409469604	
45	215.0571551322937	pulse	1	t		43.0	2.5	/experiments/knapen_AOT/AOT_stimuli/rescaled_final/0796_fw.mp4	0.0	243.67619705200195	
45	215.5738091468811	fix_post	2		11	43.0	2.5	/experiments/knapen_AOT/AOT_stimuli/rescaled_final/0796_fw.mp4	0.0	244.19285106658936	0.09150195121765137
46	215.66531109809875	fix_pre	0		120	44.0	2.5	/experiments/knapen_AOT/AOT_stimuli/rescaled_final/1869_fw.mp4	0.0	244.284353017807	1.000135898590088
46	216.6572790145874	pulse	0	t		44.0	2.5	/experiments/knapen_AOT/AOT_stimuli/rescaled_final/1869_fw.mp4	0.0	245.27632093429565	
46	216.66544699668884	movie	1		245	44.0	2.5	/experiments/knapen_AOT/AOT_stimuli/rescaled_final/1869_fw.mp4	0.0	245.2844889163971	2.5087931156158447
46	218.25815296173096	pulse	1	t		44.0	2.5	/experiments/knapen_AOT/AOT_stimuli/rescaled_final/1869_fw.mp4	0.0	246.8771948814392	
46	219.1742401123047	fix_post	2		12	44.0	2.5	/experiments/knapen_AOT/AOT_stimuli/rescaled_final/1869_fw.mp4	0.0	247.79328203201294	0.09993886947631836
47	219.274178981781	fix_pre	0		120	45.0	2.5	/experiments/knapen_AOT/AOT_stimuli/rescaled_final/1112_fw.mp4	0.0	247.89322090148926	1.0001420974731445
47	219.85783505439758	pulse	0	t		45.0	2.5	/experiments/knapen_AOT/AOT_stimuli/rescaled_final/1112_fw.mp4	0.0	248.47687697410583	
47	220.27432107925415	movie	1		244	45.0	2.5	/experiments/knapen_AOT/AOT_stimuli/rescaled_final/1112_fw.mp4	0.0	248.8933629989624	2.500354051589966
47	221.4582359790802	pulse	1	t		45.0	2.5	/experiments/knapen_AOT/AOT_stimuli/rescaled_final/1112_fw.mp4	0.0	250.07727789878845	
47	222.77467513084412	fix_post	2		12	45.0	2.5	/experiments/knapen_AOT/AOT_stimuli/rescaled_final/1112_fw.mp4	0.0	251.39371705055237	0.09999704360961914
48	222.87467217445374	fix_pre	0		120	46.0	2.5	/experiments/knapen_AOT/AOT_stimuli/rescaled_final/0587_fw.mp4	0.0	251.493714094162	1.0001838207244873
48	223.05082416534424	pulse	0	t		46.0	2.5	/experiments/knapen_AOT/AOT_stimuli/rescaled_final/0587_fw.mp4	0.0	251.6698660850525	
48	223.87485599517822	movie	1		244	46.0	2.5	/experiments/knapen_AOT/AOT_stimuli/rescaled_final/0587_fw.mp4	0.0	252.49389791488647	2.500387191772461
48	224.65851306915283	pulse	1	t		46.0	2.5	/experiments/knapen_AOT/AOT_stimuli/rescaled_final/0587_fw.mp4	0.0	253.27755498886108	
48	226.25863003730774	pulse	1	t		46.0	2.5	/experiments/knapen_AOT/AOT_stimuli/rescaled_final/0587_fw.mp4	0.0	254.877671957016	
48	226.37524318695068	fix_post	2		12	46.0	2.5	/experiments/knapen_AOT/AOT_stimuli/rescaled_final/0587_fw.mp4	0.0	254.99428510665894	0.09999895095825195
49	226.47524213790894	fix_pre	0		120	47.0	2.5	blank	1.0	255.0942840576172	1.000147819519043
49	227.47538995742798	movie	1		299	47.0	2.5	blank	1.0	256.09443187713623	2.4920451641082764
49	227.8514211177826	pulse	1	t		47.0	2.5	blank	1.0	256.47046303749084	
49	229.45100903511047	pulse	1	t		47.0	2.5	blank	1.0	258.0700509548187	
49	229.96743512153625	fix_post	2		12	47.0	2.5	blank	1.0	258.5864770412445	0.10000395774841309
50	230.06743907928467	fix_pre	0		119	48.0	2.5	/experiments/knapen_AOT/AOT_stimuli/rescaled_final/2055_fw.mp4	0.0	258.6864809989929	0.9918200969696045
50	231.05113911628723	pulse	0	t		48.0	2.5	/experiments/knapen_AOT/AOT_stimuli/rescaled_final/2055_fw.mp4	0.0	259.6701810359955	
50	231.05925917625427	movie	1		246	48.0	2.5	/experiments/knapen_AOT/AOT_stimuli/rescaled_final/2055_fw.mp4	0.0	259.6783010959625	2.5086779594421387
50	232.65206217765808	pulse	1	t		48.0	2.5	/experiments/knapen_AOT/AOT_stimuli/rescaled_final/2055_fw.mp4	0.0	261.27110409736633	
50	233.5679371356964	fix_post	2		12	48.0	2.5	/experiments/knapen_AOT/AOT_stimuli/rescaled_final/2055_fw.mp4	0.0	262.18697905540466	0.10004687309265137
51	233.66798400878906	fix_pre	0		120	49.0	2.5	/experiments/knapen_AOT/AOT_stimuli/rescaled_final/0242_fw.mp4	0.0	262.2870259284973	1.0001521110534668
51	234.25176215171814	pulse	0	t		49.0	2.5	/experiments/knapen_AOT/AOT_stimuli/rescaled_final/0242_fw.mp4	0.0	262.8708040714264	
51	234.66813611984253	movie	1		245	49.0	2.5	/experiments/knapen_AOT/AOT_stimuli/rescaled_final/0242_fw.mp4	0.0	263.2871780395508	2.5003929138183594
51	235.8518581390381	pulse	1	t		49.0	2.5	/experiments/knapen_AOT/AOT_stimuli/rescaled_final/0242_fw.mp4	0.0	264.47090005874634	
51	237.1685290336609	fix_post	2		12	49.0	2.5	/experiments/knapen_AOT/AOT_stimuli/rescaled_final/0242_fw.mp4	0.0	265.78757095336914	0.09999203681945801
52	237.26852107048035	fix_pre	0		120	50.0	2.5	/experiments/knapen_AOT/AOT_stimuli/rescaled_final/0718_fw.mp4	0.0	265.8875629901886	1.0001471042633057
52	237.4521369934082	pulse	0	t		50.0	2.5	/experiments/knapen_AOT/AOT_stimuli/rescaled_final/0718_fw.mp4	0.0	266.07117891311646	
52	238.26866817474365	movie	1		246	50.0	2.5	/experiments/knapen_AOT/AOT_stimuli/rescaled_final/0718_fw.mp4	0.0	266.8877100944519	2.5003578662872314
52	239.0522391796112	pulse	1	t		50.0	2.5	/experiments/knapen_AOT/AOT_stimuli/rescaled_final/0718_fw.mp4	0.0	267.67128109931946	
52	240.6525731086731	pulse	1	t		50.0	2.5	/experiments/knapen_AOT/AOT_stimuli/rescaled_final/0718_fw.mp4	0.0	269.27161502838135	
52	240.76902604103088	fix_post	2		12	50.0	2.5	/experiments/knapen_AOT/AOT_stimuli/rescaled_final/0718_fw.mp4	0.0	269.38806796073914	0.10004997253417969
53	240.86907601356506	fix_pre	0		120	51.0	2.5	/experiments/knapen_AOT/AOT_stimuli/rescaled_final/0370_rv.mp4	0.0	269.4881179332733	1.0001139640808105
53	241.86918997764587	movie	1		245	51.0	2.5	/experiments/knapen_AOT/AOT_stimuli/rescaled_final/0370_rv.mp4	0.0	270.4882318973541	2.492072105407715
53	242.25341701507568	pulse	1	t		51.0	2.5	/experiments/knapen_AOT/AOT_stimuli/rescaled_final/0370_rv.mp4	0.0	270.87245893478394	
53	243.85300207138062	pulse	1	t		51.0	2.5	/experiments/knapen_AOT/AOT_stimuli/rescaled_final/0370_rv.mp4	0.0	272.47204399108887	
53	244.3612620830536	fix_post	2		12	51.0	2.5	/experiments/knapen_AOT/AOT_stimuli/rescaled_final/0370_rv.mp4	0.0	272.98030400276184	0.09998703002929688
54	244.46124911308289	fix_pre	0		120	52.0	2.5	/experiments/knapen_AOT/AOT_stimuli/rescaled_final/1099_rv.mp4	0.0	273.08029103279114	1.0001678466796875
54	245.45328998565674	pulse	0	t		52.0	2.5	/experiments/knapen_AOT/AOT_stimuli/rescaled_final/1099_rv.mp4	0.0	274.072331905365	
54	245.46141695976257	movie	1		245	52.0	2.5	/experiments/knapen_AOT/AOT_stimuli/rescaled_final/1099_rv.mp4	0.0	274.0804588794708	2.5087101459503174
54	247.0546760559082	pulse	1	t		52.0	2.5	/experiments/knapen_AOT/AOT_stimuli/rescaled_final/1099_rv.mp4	0.0	275.67371797561646	
54	247.9701271057129	fix_post	2		12	52.0	2.5	/experiments/knapen_AOT/AOT_stimuli/rescaled_final/1099_rv.mp4	0.0	276.58916902542114	0.0999898910522461
55	248.07011699676514	fix_pre	0		120	53.0	2.5	/experiments/knapen_AOT/AOT_stimuli/rescaled_final/0580_fw.mp4	0.0	276.6891589164734	1.0001699924468994
55	248.65383911132812	pulse	0	t		53.0	2.5	/experiments/knapen_AOT/AOT_stimuli/rescaled_final/0580_fw.mp4	0.0	277.2728810310364	
55	249.07028698921204	movie	1		243	53.0	2.5	/experiments/knapen_AOT/AOT_stimuli/rescaled_final/0580_fw.mp4	0.0	277.6893289089203	2.500394105911255
55	250.25411701202393	pulse	1	t		53.0	2.5	/experiments/knapen_AOT/AOT_stimuli/rescaled_final/0580_fw.mp4	0.0	278.8731589317322	
55	251.5706810951233	fix_post	2		12	53.0	2.5	/experiments/knapen_AOT/AOT_stimuli/rescaled_final/0580_fw.mp4	0.0	280.18972301483154	0.09998106956481934
56	251.6706621646881	fix_pre	0		120	54.0	2.5	/experiments/knapen_AOT/AOT_stimuli/rescaled_final/1813_rv.mp4	0.0	280.28970408439636	1.0001378059387207
56	251.8542239665985	pulse	0	t		54.0	2.5	/experiments/knapen_AOT/AOT_stimuli/rescaled_final/1813_rv.mp4	0.0	280.47326588630676	
56	252.67079997062683	movie	1		244	54.0	2.5	/experiments/knapen_AOT/AOT_stimuli/rescaled_final/1813_rv.mp4	0.0	281.2898418903351	2.500413179397583
56	253.45455598831177	pulse	1	t		54.0	2.5	/experiments/knapen_AOT/AOT_stimuli/rescaled_final/1813_rv.mp4	0.0	282.07359790802	
56	255.05474305152893	pulse	1	t		54.0	2.5	/experiments/knapen_AOT/AOT_stimuli/rescaled_final/1813_rv.mp4	0.0	283.6737849712372	
56	255.1712131500244	fix_post	2		12	54.0	2.5	/experiments/knapen_AOT/AOT_stimuli/rescaled_final/1813_rv.mp4	0.0	283.79025506973267	0.10001182556152344
57	255.27122497558594	fix_pre	0		120	55.0	2.5	/experiments/knapen_AOT/AOT_stimuli/rescaled_final/1952_fw.mp4	0.0	283.8902668952942	1.0001680850982666
57	256.2713930606842	movie	1		244	55.0	2.5	/experiments/knapen_AOT/AOT_stimuli/rescaled_final/1952_fw.mp4	0.0	284.89043498039246	2.4920248985290527
57	256.65544605255127	pulse	1	t		55.0	2.5	/experiments/knapen_AOT/AOT_stimuli/rescaled_final/1952_fw.mp4	0.0	285.2744879722595	
57	258.2552101612091	pulse	1	t		55.0	2.5	/experiments/knapen_AOT/AOT_stimuli/rescaled_final/1952_fw.mp4	0.0	286.87425208091736	
57	258.76341795921326	fix_post	2		12	55.0	2.5	/experiments/knapen_AOT/AOT_stimuli/rescaled_final/1952_fw.mp4	0.0	287.3824598789215	0.09996509552001953
58	258.8633830547333	fix_pre	0		120	56.0	2.5	blank	1.0	287.4824249744415	1.0001859664916992
58	259.855504989624	pulse	0	t		56.0	2.5	blank	1.0	288.4745469093323	
58	259.863569021225	movie	1		301	56.0	2.5	blank	1.0	288.4826109409332	2.508742094039917
58	261.4557161331177	pulse	1	t		56.0	2.5	blank	1.0	290.0747580528259	
58	262.3723111152649	fix_post	2		12	56.0	2.5	blank	1.0	290.99135303497314	0.09995603561401367
59	262.4722671508789	fix_pre	0		120	57.0	2.5	/experiments/knapen_AOT/AOT_stimuli/rescaled_final/0193_fw.mp4	0.0	291.09130907058716	1.0001609325408936
59	263.05596804618835	pulse	0	t		57.0	2.5	/experiments/knapen_AOT/AOT_stimuli/rescaled_final/0193_fw.mp4	0.0	291.6750099658966	
59	263.4724280834198	movie	1		246	57.0	2.5	/experiments/knapen_AOT/AOT_stimuli/rescaled_final/0193_fw.mp4	0.0	292.09147000312805	2.5004189014434814
59	264.6562149524689	pulse	1	t		57.0	2.5	/experiments/knapen_AOT/AOT_stimuli/rescaled_final/0193_fw.mp4	0.0	293.2752568721771	
59	265.9728469848633	fix_post	2		12	57.0	2.5	/experiments/knapen_AOT/AOT_stimuli/rescaled_final/0193_fw.mp4	0.0	294.59188890457153	0.10000300407409668
60	266.0728499889374	fix_pre	0		120	58.0	2.5	/experiments/knapen_AOT/AOT_stimuli/rescaled_final/1037_fw.mp4	0.0	294.69189190864563	1.0001270771026611
60	266.2564640045166	pulse	0	t		58.0	2.5	/experiments/knapen_AOT/AOT_stimuli/rescaled_final/1037_fw.mp4	0.0	294.87550592422485	
60	267.07297706604004	movie	1		244	58.0	2.5	/experiments/knapen_AOT/AOT_stimuli/rescaled_final/1037_fw.mp4	0.0	295.6920189857483	2.500408887863159
60	267.8566780090332	pulse	1	t		58.0	2.5	/experiments/knapen_AOT/AOT_stimuli/rescaled_final/1037_fw.mp4	0.0	296.47571992874146	
60	269.4570300579071	pulse	1	t		58.0	2.5	/experiments/knapen_AOT/AOT_stimuli/rescaled_final/1037_fw.mp4	0.0	298.07607197761536	
60	269.5733859539032	fix_post	2		12	58.0	2.5	/experiments/knapen_AOT/AOT_stimuli/rescaled_final/1037_fw.mp4	0.0	298.19242787361145	0.09995317459106445
61	269.67333912849426	fix_pre	0		120	59.0	2.5	/experiments/knapen_AOT/AOT_stimuli/rescaled_final/1813_fw.mp4	0.0	298.2923810482025	1.000180959701538
61	270.6735200881958	movie	1		244	59.0	2.5	/experiments/knapen_AOT/AOT_stimuli/rescaled_final/1813_fw.mp4	0.0	299.29256200790405	2.4920010566711426
61	271.05774903297424	pulse	1	t		59.0	2.5	/experiments/knapen_AOT/AOT_stimuli/rescaled_final/1813_fw.mp4	0.0	299.6767909526825	
61	272.657418012619	pulse	1	t		59.0	2.5	/experiments/knapen_AOT/AOT_stimuli/rescaled_final/1813_fw.mp4	0.0	301.27645993232727	
61	273.16552114486694	fix_post	2		12	59.0	2.5	/experiments/knapen_AOT/AOT_stimuli/rescaled_final/1813_fw.mp4	0.0	301.7845630645752	0.10001182556152344
62	273.26553297042847	fix_pre	0		120	60.0	2.5	/experiments/knapen_AOT/AOT_stimuli/rescaled_final/0700_fw.mp4	0.0	301.8845748901367	1.0001730918884277
62	274.25758695602417	pulse	0	t		60.0	2.5	/experiments/knapen_AOT/AOT_stimuli/rescaled_final/0700_fw.mp4	0.0	302.8766288757324	
62	274.2657060623169	movie	1		241	60.0	2.5	/experiments/knapen_AOT/AOT_stimuli/rescaled_final/0700_fw.mp4	0.0	302.88474798202515	2.508723020553589
62	275.8582081794739	pulse	1	t		60.0	2.5	/experiments/knapen_AOT/AOT_stimuli/rescaled_final/0700_fw.mp4	0.0	304.47725009918213	
62	276.7744290828705	fix_post	2		12	60.0	2.5	/experiments/knapen_AOT/AOT_stimuli/rescaled_final/0700_fw.mp4	0.0	305.39347100257874	0.10008907318115234
63	276.87451815605164	fix_pre	0		120	61.0	2.5	blank	1.0	305.4935600757599	1.0000619888305664
63	277.45812916755676	pulse	0	t		61.0	2.5	blank	1.0	306.077171087265	
63	277.8745801448822	movie	1		300	61.0	2.5	blank	1.0	306.49362206459045	2.5004069805145264
63	279.0582890510559	pulse	1	t		61.0	2.5	blank	1.0	307.67733097076416	
63	280.37498712539673	fix_post	2		12	61.0	2.5	blank	1.0	308.994029045105	0.09998297691345215
64	280.4749701023102	fix_pre	0		120	62.0	2.5	/experiments/knapen_AOT/AOT_stimuli/rescaled_final/1950_rv.mp4	0.0	309.09401202201843	1.000143051147461
64	280.65862011909485	pulse	0	t		62.0	2.5	/experiments/knapen_AOT/AOT_stimuli/rescaled_final/1950_rv.mp4	0.0	309.2776620388031	
64	281.47511315345764	movie	1		245	62.0	2.5	/experiments/knapen_AOT/AOT_stimuli/rescaled_final/1950_rv.mp4	0.0	310.0941550731659	2.5003459453582764
64	282.2513749599457	pulse	1	t		62.0	2.5	/experiments/knapen_AOT/AOT_stimuli/rescaled_final/1950_rv.mp4	0.0	310.87041687965393	
64	283.8566529750824	pulse	1	t		62.0	2.5	/experiments/knapen_AOT/AOT_stimuli/rescaled_final/1950_rv.mp4	0.0	312.47569489479065	
64	283.9754590988159	fix_post	2		12	62.0	2.5	/experiments/knapen_AOT/AOT_stimuli/rescaled_final/1950_rv.mp4	0.0	312.59450101852417	0.10011601448059082
65	284.0755751132965	fix_pre	0		120	63.0	2.5	/experiments/knapen_AOT/AOT_stimuli/rescaled_final/0994_fw.mp4	0.0	312.69461703300476	1.0001170635223389
65	285.07569217681885	movie	1		243	63.0	2.5	/experiments/knapen_AOT/AOT_stimuli/rescaled_final/0994_fw.mp4	0.0	313.6947340965271	2.492034912109375
65	285.4604561328888	pulse	1	t		63.0	2.5	/experiments/knapen_AOT/AOT_stimuli/rescaled_final/0994_fw.mp4	0.0	314.07949805259705	
65	287.0522141456604	pulse	1	t		63.0	2.5	/experiments/knapen_AOT/AOT_stimuli/rescaled_final/0994_fw.mp4	0.0	315.67125606536865	
65	287.5677270889282	fix_post	2		12	63.0	2.5	/experiments/knapen_AOT/AOT_stimuli/rescaled_final/0994_fw.mp4	0.0	316.1867690086365	0.09998393058776855
66	287.667711019516	fix_pre	0		119	64.0	2.5	/experiments/knapen_AOT/AOT_stimuli/rescaled_final/0943_rv.mp4	0.0	316.28675293922424	0.99180006980896
66	288.6516411304474	pulse	0	t		64.0	2.5	/experiments/knapen_AOT/AOT_stimuli/rescaled_final/0943_rv.mp4	0.0	317.27068305015564	
66	288.65951108932495	movie	1		244	64.0	2.5	/experiments/knapen_AOT/AOT_stimuli/rescaled_final/0943_rv.mp4	0.0	317.2785530090332	2.5087649822235107
66	290.25489711761475	pulse	1	t		64.0	2.5	/experiments/knapen_AOT/AOT_stimuli/rescaled_final/0943_rv.mp4	0.0	318.873939037323	
66	291.16827607154846	fix_post	2		12	64.0	2.5	/experiments/knapen_AOT/AOT_stimuli/rescaled_final/0943_rv.mp4	0.0	319.7873179912567	0.09994697570800781
67	291.26822304725647	fix_pre	0		120	65.0	2.5	/experiments/knapen_AOT/AOT_stimuli/rescaled_final/1004_fw.mp4	0.0	319.8872649669647	1.0001749992370605
67	291.8518240451813	pulse	0	t		65.0	2.5	/experiments/knapen_AOT/AOT_stimuli/rescaled_final/1004_fw.mp4	0.0	320.4708659648895	
67	292.26839804649353	movie	1		245	65.0	2.5	/experiments/knapen_AOT/AOT_stimuli/rescaled_final/1004_fw.mp4	0.0	320.8874399662018	2.5004141330718994
67	293.4521601200104	pulse	1	t		65.0	2.5	/experiments/knapen_AOT/AOT_stimuli/rescaled_final/1004_fw.mp4	0.0	322.0712020397186	
67	294.76881217956543	fix_post	2		12	65.0	2.5	/experiments/knapen_AOT/AOT_stimuli/rescaled_final/1004_fw.mp4	0.0	323.3878540992737	0.09998583793640137
68	294.86879801750183	fix_pre	0		120	66.0	2.5	/experiments/knapen_AOT/AOT_stimuli/rescaled_final/1665_fw.mp4	0.0	323.4878399372101	1.000157117843628
68	295.052325963974	pulse	0	t		66.0	2.5	/experiments/knapen_AOT/AOT_stimuli/rescaled_final/1665_fw.mp4	0.0	323.67136788368225	
68	295.86895513534546	movie	1		244	66.0	2.5	/experiments/knapen_AOT/AOT_stimuli/rescaled_final/1665_fw.mp4	0.0	324.4879970550537	2.500375986099243
68	296.6525421142578	pulse	1	t		66.0	2.5	/experiments/knapen_AOT/AOT_stimuli/rescaled_final/1665_fw.mp4	0.0	325.27158403396606	
68	298.25307297706604	pulse	1	t		66.0	2.5	/experiments/knapen_AOT/AOT_stimuli/rescaled_final/1665_fw.mp4	0.0	326.8721148967743	
68	298.3693311214447	fix_post	2		12	66.0	2.5	/experiments/knapen_AOT/AOT_stimuli/rescaled_final/1665_fw.mp4	0.0	326.98837304115295	0.09998297691345215
69	298.46931409835815	fix_pre	0		120	67.0	2.5	/experiments/knapen_AOT/AOT_stimuli/rescaled_final/1752_fw.mp4	0.0	327.0883560180664	1.000196933746338
69	299.4695110321045	movie	1		244	67.0	2.5	/experiments/knapen_AOT/AOT_stimuli/rescaled_final/1752_fw.mp4	0.0	328.08855295181274	2.5003440380096436
69	299.853502035141	pulse	1	t		67.0	2.5	/experiments/knapen_AOT/AOT_stimuli/rescaled_final/1752_fw.mp4	0.0	328.47254395484924	
69	301.4533259868622	pulse	1	t		67.0	2.5	/experiments/knapen_AOT/AOT_stimuli/rescaled_final/1752_fw.mp4	0.0	330.07236790657043	
69	301.96985507011414	fix_post	2		11	67.0	2.5	/experiments/knapen_AOT/AOT_stimuli/rescaled_final/1752_fw.mp4	0.0	330.5888969898224	0.09166908264160156
70	302.06152415275574	fix_pre	0		120	68.0	2.5	/experiments/knapen_AOT/AOT_stimuli/rescaled_final/2055_rv.mp4	0.0	330.680566072464	1.0001659393310547
70	303.05356097221375	pulse	0	t		68.0	2.5	/experiments/knapen_AOT/AOT_stimuli/rescaled_final/2055_rv.mp4	0.0	331.672602891922	
70	303.0616900920868	movie	1		245	68.0	2.5	/experiments/knapen_AOT/AOT_stimuli/rescaled_final/2055_rv.mp4	0.0	331.68073201179504	2.508715867996216
70	304.6543459892273	pulse	1	t		68.0	2.5	/experiments/knapen_AOT/AOT_stimuli/rescaled_final/2055_rv.mp4	0.0	333.27338790893555	
70	305.570405960083	fix_post	2		12	68.0	2.5	/experiments/knapen_AOT/AOT_stimuli/rescaled_final/2055_rv.mp4	0.0	334.18944787979126	0.09996604919433594
71	305.67037200927734	fix_pre	0		120	69.0	2.5	/experiments/knapen_AOT/AOT_stimuli/rescaled_final/0623_fw.mp4	0.0	334.2894139289856	1.0001661777496338
71	306.25408911705017	pulse	0	t		69.0	2.5	/experiments/knapen_AOT/AOT_stimuli/rescaled_final/0623_fw.mp4	0.0	334.8731310367584	
71	306.670538187027	movie	1		244	69.0	2.5	/experiments/knapen_AOT/AOT_stimuli/rescaled_final/0623_fw.mp4	0.0	335.28958010673523	2.5004868507385254
71	307.85434317588806	pulse	1	t		69.0	2.5	/experiments/knapen_AOT/AOT_stimuli/rescaled_final/0623_fw.mp4	0.0	336.4733850955963	
71	309.1710250377655	fix_post	2		12	69.0	2.5	/experiments/knapen_AOT/AOT_stimuli/rescaled_final/0623_fw.mp4	0.0	337.79006695747375	0.09995293617248535
72	309.270977973938	fix_pre	0		120	70.0	2.5	blank	1.0	337.89001989364624	1.000087022781372
72	309.45457696914673	pulse	0	t		70.0	2.5	blank	1.0	338.073618888855	
72	310.27106499671936	movie	1		300	70.0	2.5	blank	1.0	338.8901069164276	2.5004160404205322
72	311.05471205711365	pulse	1	t		70.0	2.5	blank	1.0	339.6737539768219	
72	312.6549470424652	pulse	1	t		70.0	2.5	blank	1.0	341.27398896217346	
72	312.7714810371399	fix_post	2		12	70.0	2.5	blank	1.0	341.39052295684814	0.09996509552001953
73	312.8714461326599	fix_pre	0		120	71.0	2.5	/experiments/knapen_AOT/AOT_stimuli/rescaled_final/0859_rv.mp4	0.0	341.49048805236816	1.0001819133758545
73	313.87162804603577	movie	1		243	71.0	2.5	/experiments/knapen_AOT/AOT_stimuli/rescaled_final/0859_rv.mp4	0.0	342.490669965744	2.492077112197876
73	314.256667137146	pulse	1	t		71.0	2.5	/experiments/knapen_AOT/AOT_stimuli/rescaled_final/0859_rv.mp4	0.0	342.87570905685425	
73	315.85552406311035	pulse	1	t		71.0	2.5	/experiments/knapen_AOT/AOT_stimuli/rescaled_final/0859_rv.mp4	0.0	344.4745659828186	
73	316.36370515823364	fix_post	2		12	71.0	2.5	/experiments/knapen_AOT/AOT_stimuli/rescaled_final/0859_rv.mp4	0.0	344.9827470779419	0.09995698928833008
74	316.463662147522	fix_pre	0		120	72.0	2.5	/experiments/knapen_AOT/AOT_stimuli/rescaled_final/0520_rv.mp4	0.0	345.0827040672302	1.0001819133758545
74	317.4557249546051	pulse	0	t		72.0	2.5	/experiments/knapen_AOT/AOT_stimuli/rescaled_final/0520_rv.mp4	0.0	346.07476687431335	
74	317.4638440608978	movie	1		245	72.0	2.5	/experiments/knapen_AOT/AOT_stimuli/rescaled_final/0520_rv.mp4	0.0	346.0828859806061	2.5087099075317383
74	319.05709314346313	pulse	1	t		72.0	2.5	/experiments/knapen_AOT/AOT_stimuli/rescaled_final/0520_rv.mp4	0.0	347.6761350631714	
74	319.97255396842957	fix_post	2		12	72.0	2.5	/experiments/knapen_AOT/AOT_stimuli/rescaled_final/0520_rv.mp4	0.0	348.5915958881378	0.10001516342163086
75	320.0725691318512	fix_pre	0		120	73.0	2.5	/experiments/knapen_AOT/AOT_stimuli/rescaled_final/1112_rv.mp4	0.0	348.69161105155945	1.0001609325408936
75	320.6562421321869	pulse	0	t		73.0	2.5	/experiments/knapen_AOT/AOT_stimuli/rescaled_final/1112_rv.mp4	0.0	349.27528405189514	
75	321.0727300643921	movie	1		244	73.0	2.5	/experiments/knapen_AOT/AOT_stimuli/rescaled_final/1112_rv.mp4	0.0	349.69177198410034	2.500317096710205
75	322.2565381526947	pulse	1	t		73.0	2.5	/experiments/knapen_AOT/AOT_stimuli/rescaled_final/1112_rv.mp4	0.0	350.87558007240295	
75	323.5730471611023	fix_post	2		12	73.0	2.5	/experiments/knapen_AOT/AOT_stimuli/rescaled_final/1112_rv.mp4	0.0	352.19208908081055	0.10005784034729004
76	323.6731050014496	fix_pre	0		120	74.0	2.5	/experiments/knapen_AOT/AOT_stimuli/rescaled_final/0116_fw.mp4	0.0	352.29214692115784	1.000157117843628
76	323.856721162796	pulse	0	t		74.0	2.5	/experiments/knapen_AOT/AOT_stimuli/rescaled_final/0116_fw.mp4	0.0	352.4757630825043	
76	324.6732621192932	movie	1		246	74.0	2.5	/experiments/knapen_AOT/AOT_stimuli/rescaled_final/0116_fw.mp4	0.0	353.29230403900146	2.5003368854522705
76	325.4570381641388	pulse	1	t		74.0	2.5	/experiments/knapen_AOT/AOT_stimuli/rescaled_final/0116_fw.mp4	0.0	354.07608008384705	
76	327.05711102485657	pulse	1	t		74.0	2.5	/experiments/knapen_AOT/AOT_stimuli/rescaled_final/0116_fw.mp4	0.0	355.6761529445648	
76	327.1735990047455	fix_post	2		12	74.0	2.5	/experiments/knapen_AOT/AOT_stimuli/rescaled_final/0116_fw.mp4	0.0	355.79264092445374	0.09999704360961914
77	327.2735960483551	fix_pre	0		120	75.0	2.5	/experiments/knapen_AOT/AOT_stimuli/rescaled_final/0010_fw.mp4	0.0	355.89263796806335	1.0002450942993164
77	328.2738411426544	movie	1		244	75.0	2.5	/experiments/knapen_AOT/AOT_stimuli/rescaled_final/0010_fw.mp4	0.0	356.89288306236267	2.491956949234009
77	328.657751083374	pulse	1	t		75.0	2.5	/experiments/knapen_AOT/AOT_stimuli/rescaled_final/0010_fw.mp4	0.0	357.2767930030823	
77	330.2576229572296	pulse	1	t		75.0	2.5	/experiments/knapen_AOT/AOT_stimuli/rescaled_final/0010_fw.mp4	0.0	358.87666487693787	
77	330.7657980918884	fix_post	2		12	75.0	2.5	/experiments/knapen_AOT/AOT_stimuli/rescaled_final/0010_fw.mp4	0.0	359.3848400115967	0.10002803802490234
78	330.86582612991333	fix_pre	0		120	76.0	2.5	blank	1.0	359.4848680496216	1.0001859664916992
78	331.85788202285767	pulse	0	t		76.0	2.5	blank	1.0	360.4769239425659	
78	331.86601209640503	movie	1		301	76.0	2.5	blank	1.0	360.4850540161133	2.5086889266967773
78	333.4579830169678	pulse	1	t		76.0	2.5	blank	1.0	362.077024936676	
78	334.3747010231018	fix_post	2		12	76.0	2.5	blank	1.0	362.99374294281006	0.09997797012329102
79	334.4746789932251	fix_pre	0		120	77.0	2.5	/experiments/knapen_AOT/AOT_stimuli/rescaled_final/1389_rv.mp4	0.0	363.09372091293335	1.0002691745758057
79	335.0582790374756	pulse	0	t		77.0	2.5	/experiments/knapen_AOT/AOT_stimuli/rescaled_final/1389_rv.mp4	0.0	363.67732095718384	
79	335.4749481678009	movie	1		241	77.0	2.5	/experiments/knapen_AOT/AOT_stimuli/rescaled_final/1389_rv.mp4	0.0	364.09399008750916	2.500276803970337
79	336.6587030887604	pulse	1	t		77.0	2.5	/experiments/knapen_AOT/AOT_stimuli/rescaled_final/1389_rv.mp4	0.0	365.2777450084686	
79	337.97522497177124	fix_post	2		12	77.0	2.5	/experiments/knapen_AOT/AOT_stimuli/rescaled_final/1389_rv.mp4	0.0	366.5942668914795	0.10001111030578613
80	338.075236082077	fix_pre	0		120	78.0	2.5	/experiments/knapen_AOT/AOT_stimuli/rescaled_final/2044_rv.mp4	0.0	366.6942780017853	1.000154972076416
80	338.2512650489807	pulse	0	t		78.0	2.5	/experiments/knapen_AOT/AOT_stimuli/rescaled_final/2044_rv.mp4	0.0	366.87030696868896	
80	339.07539105415344	movie	1		245	78.0	2.5	/experiments/knapen_AOT/AOT_stimuli/rescaled_final/2044_rv.mp4	0.0	367.6944329738617	2.5004119873046875
80	339.85171604156494	pulse	1	t		78.0	2.5	/experiments/knapen_AOT/AOT_stimuli/rescaled_final/2044_rv.mp4	0.0	368.4707579612732	
80	341.4569330215454	pulse	1	t		78.0	2.5	/experiments/knapen_AOT/AOT_stimuli/rescaled_final/2044_rv.mp4	0.0	370.07597494125366	
80	341.57580304145813	fix_post	2		12	78.0	2.5	/experiments/knapen_AOT/AOT_stimuli/rescaled_final/2044_rv.mp4	0.0	370.1948449611664	0.09998703002929688
81	341.6757900714874	fix_pre	0		120	79.0	2.5	/experiments/knapen_AOT/AOT_stimuli/rescaled_final/1464_rv.mp4	0.0	370.2948319911957	1.0001189708709717
81	342.6759090423584	movie	1		245	79.0	2.5	/experiments/knapen_AOT/AOT_stimuli/rescaled_final/1464_rv.mp4	0.0	371.29495096206665	2.4920620918273926
81	343.0513770580292	pulse	1	t		79.0	2.5	/experiments/knapen_AOT/AOT_stimuli/rescaled_final/1464_rv.mp4	0.0	371.6704189777374	
81	344.6514701843262	pulse	1	t		79.0	2.5	/experiments/knapen_AOT/AOT_stimuli/rescaled_final/1464_rv.mp4	0.0	373.2705121040344	
81	345.1679711341858	fix_post	2		12	79.0	2.5	/experiments/knapen_AOT/AOT_stimuli/rescaled_final/1464_rv.mp4	0.0	373.78701305389404	0.09999394416809082
82	345.2679650783539	fix_pre	0		119	80.0	2.5	/experiments/knapen_AOT/AOT_stimuli/rescaled_final/1070_rv.mp4	0.0	373.88700699806213	0.9918498992919922
82	346.25161600112915	pulse	0	t		80.0	2.5	/experiments/knapen_AOT/AOT_stimuli/rescaled_final/1070_rv.mp4	0.0	374.8706579208374	
82	346.2598149776459	movie	1		244	80.0	2.5	/experiments/knapen_AOT/AOT_stimuli/rescaled_final/1070_rv.mp4	0.0	374.8788568973541	2.508716106414795
82	347.8523449897766	pulse	1	t		80.0	2.5	/experiments/knapen_AOT/AOT_stimuli/rescaled_final/1070_rv.mp4	0.0	376.47138690948486	
82	348.76853108406067	fix_post	2		12	80.0	2.5	/experiments/knapen_AOT/AOT_stimuli/rescaled_final/1070_rv.mp4	0.0	377.3875730037689	0.09996700286865234
83	348.8684980869293	fix_pre	0		120	81.0	2.5	/experiments/knapen_AOT/AOT_stimuli/rescaled_final/0822_rv.mp4	0.0	377.4875400066376	1.0002079010009766
83	349.4521219730377	pulse	0	t		81.0	2.5	/experiments/knapen_AOT/AOT_stimuli/rescaled_final/0822_rv.mp4	0.0	378.071163892746	
83	349.8687059879303	movie	1		245	81.0	2.5	/experiments/knapen_AOT/AOT_stimuli/rescaled_final/0822_rv.mp4	0.0	378.48774790763855	2.500368118286133
83	351.0525109767914	pulse	1	t		81.0	2.5	/experiments/knapen_AOT/AOT_stimuli/rescaled_final/0822_rv.mp4	0.0	379.67155289649963	
83	352.36907410621643	fix_post	2		12	81.0	2.5	/experiments/knapen_AOT/AOT_stimuli/rescaled_final/0822_rv.mp4	0.0	380.9881160259247	0.1000509262084961
84	352.4691250324249	fix_pre	0		120	82.0	2.5	/experiments/knapen_AOT/AOT_stimuli/rescaled_final/1547_fw.mp4	0.0	381.0881669521332	1.0000619888305664
84	352.65265107154846	pulse	0	t		82.0	2.5	/experiments/knapen_AOT/AOT_stimuli/rescaled_final/1547_fw.mp4	0.0	381.2716929912567	
84	353.4691870212555	movie	1		246	82.0	2.5	/experiments/knapen_AOT/AOT_stimuli/rescaled_final/1547_fw.mp4	0.0	382.08822894096375	2.5003719329833984
84	354.252916097641	pulse	1	t		82.0	2.5	/experiments/knapen_AOT/AOT_stimuli/rescaled_final/1547_fw.mp4	0.0	382.87195801734924	
84	355.8531970977783	pulse	1	t		82.0	2.5	/experiments/knapen_AOT/AOT_stimuli/rescaled_final/1547_fw.mp4	0.0	384.4722390174866	
84	355.9695589542389	fix_post	2		12	82.0	2.5	/experiments/knapen_AOT/AOT_stimuli/rescaled_final/1547_fw.mp4	0.0	384.58860087394714	0.10004711151123047
85	356.0696060657501	fix_pre	0		120	83.0	2.5	blank	1.0	384.6886479854584	1.0001189708709717
85	357.0697250366211	movie	1		299	83.0	2.5	blank	1.0	385.68876695632935	2.4921250343322754
85	357.45329999923706	pulse	1	t		83.0	2.5	blank	1.0	386.0723419189453	
85	359.05360198020935	pulse	1	t		83.0	2.5	blank	1.0	387.6726438999176	
85	359.56185007095337	fix_post	2		12	83.0	2.5	blank	1.0	388.1808919906616	0.09994196891784668
87	359.6617920398712	stim	0		1716					388.28083395957947	14.302238941192627
87	360.6538190841675	pulse	0	t						389.27286100387573	
87	362.25424814224243	pulse	0	t						390.8732900619507	
87	363.8542730808258	pulse	0	t						392.47331500053406	
87	365.4545531272888	pulse	0	t						394.07359504699707	
87	367.05481696128845	pulse	0	t						395.6738588809967	
87	368.6550531387329	pulse	0	t						397.27409505844116	
87	370.25523114204407	pulse	0	t						398.8742730617523	
87	371.85541701316833	pulse	0	t						400.4744589328766	
87	373.45576000213623	pulse	0	t						402.0748019218445	
