trial_nr	onset	event_type	phase	response	nr_frames	movie_index	movie_duration	movie_file	blank	onset_abs	duration
0	0.15830707550048828	stim	0		123					91.65336012840271	1.0250778198242188
0	1.1678738594055176	response	0	space						92.66292691230774	
1	1.183384895324707	stim	0		4834					92.67843794822693	40.30202317237854
1	41.4706289768219	pulse	0	t						132.96568202972412	
1	41.48540806770325	stim	1		1715					132.98046112060547	14.297878980636597
1	43.06482696533203	pulse	1	t						134.55988001823425	
1	44.665030002593994	pulse	1	t						136.16008305549622	
1	46.265284061431885	pulse	1	t						137.7603371143341	
1	47.86563491821289	pulse	1	t						139.3606879711151	
1	49.46587300300598	pulse	1	t						140.9609260559082	
1	51.06594204902649	pulse	1	t						142.5609951019287	
1	52.66626191139221	pulse	1	t						144.16131496429443	
1	54.266557931900024	pulse	1	t						145.76161098480225	
2	55.783287048339844	fix_pre	0		11	0.0	2.5	/experiments/knapen_AOT/AOT_stimuli/rescaled_final/1989_rv.mp4	0.0	147.27834010124207	0.09161782264709473
2	55.86676597595215	pulse	0	t		0.0	2.5	/experiments/knapen_AOT/AOT_stimuli/rescaled_final/1989_rv.mp4	0.0	147.36181902885437	
2	55.87490487098694	movie	1		246	0.0	2.5	/experiments/knapen_AOT/AOT_stimuli/rescaled_final/1989_rv.mp4	0.0	147.36995792388916	2.508679151535034
2	57.467450857162476	pulse	1	t		0.0	2.5	/experiments/knapen_AOT/AOT_stimuli/rescaled_final/1989_rv.mp4	0.0	148.9625039100647	
2	58.38358402252197	fix_post	2		12	0.0	2.5	/experiments/knapen_AOT/AOT_stimuli/rescaled_final/1989_rv.mp4	0.0	149.8786370754242	0.10002803802490234
3	58.483612060546875	fix_pre	0		120	1.0	2.5	/experiments/knapen_AOT/AOT_stimuli/rescaled_final/1480_rv.mp4	0.0	149.9786651134491	1.0002598762512207
3	59.06718707084656	pulse	0	t		1.0	2.5	/experiments/knapen_AOT/AOT_stimuli/rescaled_final/1480_rv.mp4	0.0	150.56224012374878	
3	59.483871936798096	movie	1		244	1.0	2.5	/experiments/knapen_AOT/AOT_stimuli/rescaled_final/1480_rv.mp4	0.0	150.97892498970032	2.5002729892730713
3	60.66758990287781	pulse	1	t		1.0	2.5	/experiments/knapen_AOT/AOT_stimuli/rescaled_final/1480_rv.mp4	0.0	152.16264295578003	
3	61.98414492607117	fix_post	2		12	1.0	2.5	/experiments/knapen_AOT/AOT_stimuli/rescaled_final/1480_rv.mp4	0.0	153.4791979789734	0.10000205039978027
4	62.08414697647095	fix_pre	0		120	2.0	2.5	/experiments/knapen_AOT/AOT_stimuli/rescaled_final/0190_rv.mp4	0.0	153.57920002937317	1.0001490116119385
4	62.26775503158569	pulse	0	t		2.0	2.5	/experiments/knapen_AOT/AOT_stimuli/rescaled_final/0190_rv.mp4	0.0	153.76280808448792	
4	63.084295988082886	movie	1		243	2.0	2.5	/experiments/knapen_AOT/AOT_stimuli/rescaled_final/0190_rv.mp4	0.0	154.5793490409851	2.500380039215088
4	63.8606538772583	pulse	1	t		2.0	2.5	/experiments/knapen_AOT/AOT_stimuli/rescaled_final/0190_rv.mp4	0.0	155.35570693016052	
4	65.46823501586914	pulse	1	t		2.0	2.5	/experiments/knapen_AOT/AOT_stimuli/rescaled_final/0190_rv.mp4	0.0	156.96328806877136	
4	65.58467602729797	fix_post	2		12	2.0	2.5	/experiments/knapen_AOT/AOT_stimuli/rescaled_final/0190_rv.mp4	0.0	157.0797290802002	0.10001301765441895
5	65.68468904495239	fix_pre	0		120	3.0	2.5	/experiments/knapen_AOT/AOT_stimuli/rescaled_final/2102_rv.mp4	0.0	157.17974209785461	1.0001349449157715
5	66.68482398986816	movie	1		243	3.0	2.5	/experiments/knapen_AOT/AOT_stimuli/rescaled_final/2102_rv.mp4	0.0	158.17987704277039	2.4920170307159424
5	67.06953597068787	pulse	1	t		3.0	2.5	/experiments/knapen_AOT/AOT_stimuli/rescaled_final/2102_rv.mp4	0.0	158.5645890235901	
5	68.66123294830322	pulse	1	t		3.0	2.5	/experiments/knapen_AOT/AOT_stimuli/rescaled_final/2102_rv.mp4	0.0	160.15628600120544	
5	69.1768410205841	fix_post	2		12	3.0	2.5	/experiments/knapen_AOT/AOT_stimuli/rescaled_final/2102_rv.mp4	0.0	160.67189407348633	0.10002803802490234
6	69.27686905860901	fix_pre	0		119	4.0	2.5	/experiments/knapen_AOT/AOT_stimuli/rescaled_final/0317_fw.mp4	0.0	160.77192211151123	0.9918279647827148
6	70.26052188873291	pulse	0	t		4.0	2.5	/experiments/knapen_AOT/AOT_stimuli/rescaled_final/0317_fw.mp4	0.0	161.75557494163513	
6	70.26869702339172	movie	1		246	4.0	2.5	/experiments/knapen_AOT/AOT_stimuli/rescaled_final/0317_fw.mp4	0.0	161.76375007629395	2.508780002593994
6	71.86143398284912	pulse	1	t		4.0	2.5	/experiments/knapen_AOT/AOT_stimuli/rescaled_final/0317_fw.mp4	0.0	163.35648703575134	
6	72.77747702598572	fix_post	2		12	4.0	2.5	/experiments/knapen_AOT/AOT_stimuli/rescaled_final/0317_fw.mp4	0.0	164.27253007888794	0.09999203681945801
7	72.87746906280518	fix_pre	0		120	5.0	2.5	blank	1.0	164.3725221157074	1.00010085105896
7	73.46102690696716	pulse	0	t		5.0	2.5	blank	1.0	164.95607995986938	
7	73.87756991386414	movie	1		300	5.0	2.5	blank	1.0	165.37262296676636	2.5004119873046875
7	75.06133890151978	pulse	1	t		5.0	2.5	blank	1.0	166.556391954422	
7	76.37798190116882	fix_post	2		12	5.0	2.5	blank	1.0	167.87303495407104	0.10002398490905762
8	76.47800588607788	fix_pre	0		120	6.0	2.5	/experiments/knapen_AOT/AOT_stimuli/rescaled_final/1854_fw.mp4	0.0	167.9730589389801	1.0000941753387451
8	76.66150999069214	pulse	0	t		6.0	2.5	/experiments/knapen_AOT/AOT_stimuli/rescaled_final/1854_fw.mp4	0.0	168.15656304359436	
8	77.47810006141663	movie	1		243	6.0	2.5	/experiments/knapen_AOT/AOT_stimuli/rescaled_final/1854_fw.mp4	0.0	168.97315311431885	2.500408887863159
8	78.26177191734314	pulse	1	t		6.0	2.5	/experiments/knapen_AOT/AOT_stimuli/rescaled_final/1854_fw.mp4	0.0	169.75682497024536	
8	79.86197590827942	pulse	1	t		6.0	2.5	/experiments/knapen_AOT/AOT_stimuli/rescaled_final/1854_fw.mp4	0.0	171.35702896118164	
8	79.97850894927979	fix_post	2		12	6.0	2.5	/experiments/knapen_AOT/AOT_stimuli/rescaled_final/1854_fw.mp4	0.0	171.473562002182	0.09998297691345215
9	80.07849192619324	fix_pre	0		119	7.0	2.5	/experiments/knapen_AOT/AOT_stimuli/rescaled_final/0696_fw.mp4	0.0	171.57354497909546	0.9918460845947266
9	81.07033801078796	movie	1		243	7.0	2.5	/experiments/knapen_AOT/AOT_stimuli/rescaled_final/0696_fw.mp4	0.0	172.56539106369019	2.5003340244293213
9	81.46241807937622	pulse	1	t		7.0	2.5	/experiments/knapen_AOT/AOT_stimuli/rescaled_final/0696_fw.mp4	0.0	172.95747113227844	
9	83.06248497962952	pulse	1	t		7.0	2.5	/experiments/knapen_AOT/AOT_stimuli/rescaled_final/0696_fw.mp4	0.0	174.55753803253174	
9	83.57067203521729	fix_post	2		12	7.0	2.5	/experiments/knapen_AOT/AOT_stimuli/rescaled_final/0696_fw.mp4	0.0	175.0657250881195	0.10001087188720703
10	83.67068290710449	fix_pre	0		120	8.0	2.5	/experiments/knapen_AOT/AOT_stimuli/rescaled_final/0664_fw.mp4	0.0	175.1657359600067	1.0001540184020996
10	84.6627140045166	pulse	0	t		8.0	2.5	/experiments/knapen_AOT/AOT_stimuli/rescaled_final/0664_fw.mp4	0.0	176.15776705741882	
10	84.67083692550659	movie	1		245	8.0	2.5	/experiments/knapen_AOT/AOT_stimuli/rescaled_final/0664_fw.mp4	0.0	176.1658899784088	2.508708953857422
10	86.2634379863739	pulse	1	t		8.0	2.5	/experiments/knapen_AOT/AOT_stimuli/rescaled_final/0664_fw.mp4	0.0	177.75849103927612	
10	87.17954587936401	fix_post	2		12	8.0	2.5	/experiments/knapen_AOT/AOT_stimuli/rescaled_final/0664_fw.mp4	0.0	178.67459893226624	0.10002303123474121
11	87.27956891059875	fix_pre	0		120	9.0	2.5	/experiments/knapen_AOT/AOT_stimuli/rescaled_final/0158_rv.mp4	0.0	178.77462196350098	1.0001399517059326
11	87.86331701278687	pulse	0	t		9.0	2.5	/experiments/knapen_AOT/AOT_stimuli/rescaled_final/0158_rv.mp4	0.0	179.3583700656891	
11	88.27970886230469	movie	1		243	9.0	2.5	/experiments/knapen_AOT/AOT_stimuli/rescaled_final/0158_rv.mp4	0.0	179.7747619152069	2.500394105911255
11	89.46355485916138	pulse	1	t		9.0	2.5	/experiments/knapen_AOT/AOT_stimuli/rescaled_final/0158_rv.mp4	0.0	180.9586079120636	
11	90.78010296821594	fix_post	2		12	9.0	2.5	/experiments/knapen_AOT/AOT_stimuli/rescaled_final/0158_rv.mp4	0.0	182.27515602111816	0.10000896453857422
12	90.88011193275452	fix_pre	0		120	10.0	2.5	/experiments/knapen_AOT/AOT_stimuli/rescaled_final/0241_rv.mp4	0.0	182.37516498565674	1.000136137008667
12	91.06365585327148	pulse	0	t		10.0	2.5	/experiments/knapen_AOT/AOT_stimuli/rescaled_final/0241_rv.mp4	0.0	182.5587089061737	
12	91.88024806976318	movie	1		244	10.0	2.5	/experiments/knapen_AOT/AOT_stimuli/rescaled_final/0241_rv.mp4	0.0	183.3753011226654	2.500351905822754
12	92.66388392448425	pulse	1	t		10.0	2.5	/experiments/knapen_AOT/AOT_stimuli/rescaled_final/0241_rv.mp4	0.0	184.15893697738647	
12	94.26714992523193	pulse	1	t		10.0	2.5	/experiments/knapen_AOT/AOT_stimuli/rescaled_final/0241_rv.mp4	0.0	185.76220297813416	
12	94.38059997558594	fix_post	2		12	10.0	2.5	/experiments/knapen_AOT/AOT_stimuli/rescaled_final/0241_rv.mp4	0.0	185.87565302848816	0.10006594657897949
13	94.48066592216492	fix_pre	0		119	11.0	2.5	/experiments/knapen_AOT/AOT_stimuli/rescaled_final/1817_fw.mp4	0.0	185.97571897506714	0.9917800426483154
13	95.47244596481323	movie	1		245	11.0	2.5	/experiments/knapen_AOT/AOT_stimuli/rescaled_final/1817_fw.mp4	0.0	186.96749901771545	2.50144100189209
13	95.86450791358948	pulse	1	t		11.0	2.5	/experiments/knapen_AOT/AOT_stimuli/rescaled_final/1817_fw.mp4	0.0	187.3595609664917	
13	97.46462988853455	pulse	1	t		11.0	2.5	/experiments/knapen_AOT/AOT_stimuli/rescaled_final/1817_fw.mp4	0.0	188.95968294143677	
13	97.97388696670532	fix_post	2		9	11.0	2.5	/experiments/knapen_AOT/AOT_stimuli/rescaled_final/1817_fw.mp4	0.0	189.46894001960754	0.09896993637084961
14	98.07285690307617	fix_pre	0		120	12.0	2.5	/experiments/knapen_AOT/AOT_stimuli/rescaled_final/0268_fw.mp4	0.0	189.5679099559784	1.0001471042633057
14	99.06493806838989	pulse	0	t		12.0	2.5	/experiments/knapen_AOT/AOT_stimuli/rescaled_final/0268_fw.mp4	0.0	190.55999112129211	
14	99.07300400733948	movie	1		245	12.0	2.5	/experiments/knapen_AOT/AOT_stimuli/rescaled_final/0268_fw.mp4	0.0	190.5680570602417	2.5086898803710938
14	100.66528296470642	pulse	1	t		12.0	2.5	/experiments/knapen_AOT/AOT_stimuli/rescaled_final/0268_fw.mp4	0.0	192.16033601760864	
14	101.58169388771057	fix_post	2		12	12.0	2.5	/experiments/knapen_AOT/AOT_stimuli/rescaled_final/0268_fw.mp4	0.0	193.0767469406128	0.10000801086425781
15	101.68170189857483	fix_pre	0		120	13.0	2.5	/experiments/knapen_AOT/AOT_stimuli/rescaled_final/0755_fw.mp4	0.0	193.17675495147705	1.000148057937622
15	102.26542901992798	pulse	0	t		13.0	2.5	/experiments/knapen_AOT/AOT_stimuli/rescaled_final/0755_fw.mp4	0.0	193.7604820728302	
15	102.68184995651245	movie	1		245	13.0	2.5	/experiments/knapen_AOT/AOT_stimuli/rescaled_final/0755_fw.mp4	0.0	194.17690300941467	2.5003550052642822
15	103.86570501327515	pulse	1	t		13.0	2.5	/experiments/knapen_AOT/AOT_stimuli/rescaled_final/0755_fw.mp4	0.0	195.36075806617737	
15	105.18220496177673	fix_post	2		12	13.0	2.5	/experiments/knapen_AOT/AOT_stimuli/rescaled_final/0755_fw.mp4	0.0	196.67725801467896	0.10003805160522461
16	105.28224301338196	fix_pre	0		120	14.0	2.5	blank	1.0	196.77729606628418	1.0001509189605713
16	105.4657690525055	pulse	0	t		14.0	2.5	blank	1.0	196.96082210540771	
16	106.28239393234253	movie	1		300	14.0	2.5	blank	1.0	197.77744698524475	2.5003890991210938
16	107.06601405143738	pulse	1	t		14.0	2.5	blank	1.0	198.5610671043396	
16	108.66637587547302	pulse	1	t		14.0	2.5	blank	1.0	200.16142892837524	
16	108.78278303146362	fix_post	2		12	14.0	2.5	blank	1.0	200.27783608436584	0.10003495216369629
17	108.88281798362732	fix_pre	0		120	15.0	2.5	/experiments/knapen_AOT/AOT_stimuli/rescaled_final/0064_fw.mp4	0.0	200.37787103652954	1.0001509189605713
17	109.88296890258789	movie	1		246	15.0	2.5	/experiments/knapen_AOT/AOT_stimuli/rescaled_final/0064_fw.mp4	0.0	201.3780219554901	2.491995096206665
17	110.26692605018616	pulse	1	t		15.0	2.5	/experiments/knapen_AOT/AOT_stimuli/rescaled_final/0064_fw.mp4	0.0	201.76197910308838	
17	111.86676692962646	pulse	1	t		15.0	2.5	/experiments/knapen_AOT/AOT_stimuli/rescaled_final/0064_fw.mp4	0.0	203.3618199825287	
17	112.37496399879456	fix_post	2		12	15.0	2.5	/experiments/knapen_AOT/AOT_stimuli/rescaled_final/0064_fw.mp4	0.0	203.87001705169678	0.10001802444458008
18	112.47498202323914	fix_pre	0		120	16.0	2.5	/experiments/knapen_AOT/AOT_stimuli/rescaled_final/1707_fw.mp4	0.0	203.97003507614136	1.00016188621521
18	113.46701288223267	pulse	0	t		16.0	2.5	/experiments/knapen_AOT/AOT_stimuli/rescaled_final/1707_fw.mp4	0.0	204.9620659351349	
18	113.47514390945435	movie	1		245	16.0	2.5	/experiments/knapen_AOT/AOT_stimuli/rescaled_final/1707_fw.mp4	0.0	204.97019696235657	2.508754014968872
18	115.06763005256653	pulse	1	t		16.0	2.5	/experiments/knapen_AOT/AOT_stimuli/rescaled_final/1707_fw.mp4	0.0	206.56268310546875	
18	115.98389792442322	fix_post	2		12	16.0	2.5	/experiments/knapen_AOT/AOT_stimuli/rescaled_final/1707_fw.mp4	0.0	207.47895097732544	0.09997415542602539
19	116.08387207984924	fix_pre	0		120	17.0	2.5	/experiments/knapen_AOT/AOT_stimuli/rescaled_final/0026_rv.mp4	0.0	207.57892513275146	1.0001699924468994
19	116.66011190414429	pulse	0	t		17.0	2.5	/experiments/knapen_AOT/AOT_stimuli/rescaled_final/0026_rv.mp4	0.0	208.1551649570465	
19	117.08404207229614	movie	1		244	17.0	2.5	/experiments/knapen_AOT/AOT_stimuli/rescaled_final/0026_rv.mp4	0.0	208.57909512519836	2.500408887863159
19	118.26042604446411	pulse	1	t		17.0	2.5	/experiments/knapen_AOT/AOT_stimuli/rescaled_final/0026_rv.mp4	0.0	209.75547909736633	
19	119.5844509601593	fix_post	2		12	17.0	2.5	/experiments/knapen_AOT/AOT_stimuli/rescaled_final/0026_rv.mp4	0.0	211.07950401306152	0.09995102882385254
20	119.68440198898315	fix_pre	0		120	18.0	2.5	/experiments/knapen_AOT/AOT_stimuli/rescaled_final/0152_rv.mp4	0.0	211.17945504188538	1.0001919269561768
20	119.86051607131958	pulse	0	t		18.0	2.5	/experiments/knapen_AOT/AOT_stimuli/rescaled_final/0152_rv.mp4	0.0	211.3555691242218	
20	120.68459391593933	movie	1		244	18.0	2.5	/experiments/knapen_AOT/AOT_stimuli/rescaled_final/0152_rv.mp4	0.0	212.17964696884155	2.5003349781036377
20	121.46070098876953	pulse	1	t		18.0	2.5	/experiments/knapen_AOT/AOT_stimuli/rescaled_final/0152_rv.mp4	0.0	212.95575404167175	
20	123.06015396118164	pulse	1	t		18.0	2.5	/experiments/knapen_AOT/AOT_stimuli/rescaled_final/0152_rv.mp4	0.0	214.55520701408386	
20	123.18492889404297	fix_post	2		12	18.0	2.5	/experiments/knapen_AOT/AOT_stimuli/rescaled_final/0152_rv.mp4	0.0	214.6799819469452	0.10008502006530762
21	123.28501391410828	fix_pre	0		120	19.0	2.5	/experiments/knapen_AOT/AOT_stimuli/rescaled_final/0030_fw.mp4	0.0	214.7800669670105	1.0000650882720947
21	124.28507900238037	movie	1		245	19.0	2.5	/experiments/knapen_AOT/AOT_stimuli/rescaled_final/0030_fw.mp4	0.0	215.7801320552826	2.4921679496765137
21	124.66029691696167	pulse	1	t		19.0	2.5	/experiments/knapen_AOT/AOT_stimuli/rescaled_final/0030_fw.mp4	0.0	216.1553499698639	
21	126.26063394546509	pulse	1	t		19.0	2.5	/experiments/knapen_AOT/AOT_stimuli/rescaled_final/0030_fw.mp4	0.0	217.7556869983673	
21	126.77724695205688	fix_post	2		12	19.0	2.5	/experiments/knapen_AOT/AOT_stimuli/rescaled_final/0030_fw.mp4	0.0	218.2723000049591	0.09990906715393066
22	126.87715601921082	fix_pre	0		119	20.0	2.5	blank	1.0	218.37220907211304	0.9918439388275146
22	127.86082601547241	pulse	0	t		20.0	2.5	blank	1.0	219.35587906837463	
22	127.86899995803833	movie	1		301	20.0	2.5	blank	1.0	219.36405301094055	2.5086541175842285
22	129.46106791496277	pulse	1	t		20.0	2.5	blank	1.0	220.956120967865	
22	130.37765407562256	fix_post	2		12	20.0	2.5	blank	1.0	221.87270712852478	0.1000368595123291
23	130.4776909351349	fix_pre	0		120	21.0	2.5	/experiments/knapen_AOT/AOT_stimuli/rescaled_final/1863_rv.mp4	0.0	221.9727439880371	1.0001180171966553
23	131.0613729953766	pulse	0	t		21.0	2.5	/experiments/knapen_AOT/AOT_stimuli/rescaled_final/1863_rv.mp4	0.0	222.5564260482788	
23	131.47780895233154	movie	1		245	21.0	2.5	/experiments/knapen_AOT/AOT_stimuli/rescaled_final/1863_rv.mp4	0.0	222.97286200523376	2.500351905822754
23	132.66164207458496	pulse	1	t		21.0	2.5	/experiments/knapen_AOT/AOT_stimuli/rescaled_final/1863_rv.mp4	0.0	224.15669512748718	
23	133.9781608581543	fix_post	2		12	21.0	2.5	/experiments/knapen_AOT/AOT_stimuli/rescaled_final/1863_rv.mp4	0.0	225.47321391105652	0.10004210472106934
24	134.07820296287537	fix_pre	0		120	22.0	2.5	/experiments/knapen_AOT/AOT_stimuli/rescaled_final/0900_rv.mp4	0.0	225.5732560157776	1.0001790523529053
24	134.2618179321289	pulse	0	t		22.0	2.5	/experiments/knapen_AOT/AOT_stimuli/rescaled_final/0900_rv.mp4	0.0	225.75687098503113	
24	135.07838201522827	movie	1		246	22.0	2.5	/experiments/knapen_AOT/AOT_stimuli/rescaled_final/0900_rv.mp4	0.0	226.5734350681305	2.5003468990325928
24	135.8619830608368	pulse	1	t		22.0	2.5	/experiments/knapen_AOT/AOT_stimuli/rescaled_final/0900_rv.mp4	0.0	227.357036113739	
24	137.46234607696533	pulse	1	t		22.0	2.5	/experiments/knapen_AOT/AOT_stimuli/rescaled_final/0900_rv.mp4	0.0	228.95739912986755	
24	137.57872891426086	fix_post	2		12	22.0	2.5	/experiments/knapen_AOT/AOT_stimuli/rescaled_final/0900_rv.mp4	0.0	229.0737819671631	0.1000211238861084
25	137.67875003814697	fix_pre	0		119	23.0	2.5	/experiments/knapen_AOT/AOT_stimuli/rescaled_final/0529_fw.mp4	0.0	229.1738030910492	0.9918320178985596
25	138.67058205604553	movie	1		244	23.0	2.5	/experiments/knapen_AOT/AOT_stimuli/rescaled_final/0529_fw.mp4	0.0	230.16563510894775	2.5003628730773926
25	139.0626540184021	pulse	1	t		23.0	2.5	/experiments/knapen_AOT/AOT_stimuli/rescaled_final/0529_fw.mp4	0.0	230.55770707130432	
25	140.66290402412415	pulse	1	t		23.0	2.5	/experiments/knapen_AOT/AOT_stimuli/rescaled_final/0529_fw.mp4	0.0	232.15795707702637	
25	141.17094492912292	fix_post	2		12	23.0	2.5	/experiments/knapen_AOT/AOT_stimuli/rescaled_final/0529_fw.mp4	0.0	232.66599798202515	0.10003399848937988
26	141.2709789276123	fix_pre	0		120	24.0	2.5	/experiments/knapen_AOT/AOT_stimuli/rescaled_final/0361_rv.mp4	0.0	232.76603198051453	1.0001299381256104
26	142.2629668712616	pulse	0	t		24.0	2.5	/experiments/knapen_AOT/AOT_stimuli/rescaled_final/0361_rv.mp4	0.0	233.75801992416382	
26	142.27110886573792	movie	1		246	24.0	2.5	/experiments/knapen_AOT/AOT_stimuli/rescaled_final/0361_rv.mp4	0.0	233.76616191864014	2.508709192276001
26	143.8642919063568	pulse	1	t		24.0	2.5	/experiments/knapen_AOT/AOT_stimuli/rescaled_final/0361_rv.mp4	0.0	235.35934495925903	
26	144.77981805801392	fix_post	2		12	24.0	2.5	/experiments/knapen_AOT/AOT_stimuli/rescaled_final/0361_rv.mp4	0.0	236.27487111091614	0.10001301765441895
27	144.87983107566833	fix_pre	0		120	25.0	2.5	/experiments/knapen_AOT/AOT_stimuli/rescaled_final/1174_rv.mp4	0.0	236.37488412857056	1.0001628398895264
27	145.46354603767395	pulse	0	t		25.0	2.5	/experiments/knapen_AOT/AOT_stimuli/rescaled_final/1174_rv.mp4	0.0	236.95859909057617	
27	145.87999391555786	movie	1		243	25.0	2.5	/experiments/knapen_AOT/AOT_stimuli/rescaled_final/1174_rv.mp4	0.0	237.37504696846008	2.5003650188446045
27	147.06381487846375	pulse	1	t		25.0	2.5	/experiments/knapen_AOT/AOT_stimuli/rescaled_final/1174_rv.mp4	0.0	238.55886793136597	
27	148.38035893440247	fix_post	2		12	25.0	2.5	/experiments/knapen_AOT/AOT_stimuli/rescaled_final/1174_rv.mp4	0.0	239.8754119873047	0.09999704360961914
28	148.48035597801208	fix_pre	0		120	26.0	2.5	/experiments/knapen_AOT/AOT_stimuli/rescaled_final/1226_rv.mp4	0.0	239.9754090309143	1.0001540184020996
28	148.66393494606018	pulse	0	t		26.0	2.5	/experiments/knapen_AOT/AOT_stimuli/rescaled_final/1226_rv.mp4	0.0	240.1589879989624	
28	149.48050999641418	movie	1		244	26.0	2.5	/experiments/knapen_AOT/AOT_stimuli/rescaled_final/1226_rv.mp4	0.0	240.9755630493164	2.5003750324249268
28	150.26421904563904	pulse	1	t		26.0	2.5	/experiments/knapen_AOT/AOT_stimuli/rescaled_final/1226_rv.mp4	0.0	241.75927209854126	
28	151.86193799972534	pulse	1	t		26.0	2.5	/experiments/knapen_AOT/AOT_stimuli/rescaled_final/1226_rv.mp4	0.0	243.35699105262756	
28	151.9808850288391	fix_post	2		12	26.0	2.5	/experiments/knapen_AOT/AOT_stimuli/rescaled_final/1226_rv.mp4	0.0	243.47593808174133	0.09999990463256836
29	152.08088493347168	fix_pre	0		119	27.0	2.5	blank	1.0	243.5759379863739	0.9918639659881592
29	153.07274889945984	movie	1		300	27.0	2.5	blank	1.0	244.56780195236206	2.500347137451172
29	153.46475791931152	pulse	1	t		27.0	2.5	blank	1.0	244.95981097221375	
29	155.06490993499756	pulse	1	t		27.0	2.5	blank	1.0	246.55996298789978	
29	155.573096036911	fix_post	2		12	27.0	2.5	blank	1.0	247.06814908981323	0.10001492500305176
30	155.67311096191406	fix_pre	0		120	28.0	2.5	/experiments/knapen_AOT/AOT_stimuli/rescaled_final/1535_fw.mp4	0.0	247.16816401481628	1.0001471042633057
30	156.66519594192505	pulse	0	t		28.0	2.5	/experiments/knapen_AOT/AOT_stimuli/rescaled_final/1535_fw.mp4	0.0	248.16024899482727	
30	156.67325806617737	movie	1		244	28.0	2.5	/experiments/knapen_AOT/AOT_stimuli/rescaled_final/1535_fw.mp4	0.0	248.1683111190796	2.508739948272705
30	158.26675987243652	pulse	1	t		28.0	2.5	/experiments/knapen_AOT/AOT_stimuli/rescaled_final/1535_fw.mp4	0.0	249.76181292533875	
30	159.18199801445007	fix_post	2		12	28.0	2.5	/experiments/knapen_AOT/AOT_stimuli/rescaled_final/1535_fw.mp4	0.0	250.6770510673523	0.1000218391418457
31	159.28201985359192	fix_pre	0		120	29.0	2.5	/experiments/knapen_AOT/AOT_stimuli/rescaled_final/1825_rv.mp4	0.0	250.77707290649414	1.0001270771026611
31	159.86564898490906	pulse	0	t		29.0	2.5	/experiments/knapen_AOT/AOT_stimuli/rescaled_final/1825_rv.mp4	0.0	251.36070203781128	
31	160.28214693069458	movie	1		244	29.0	2.5	/experiments/knapen_AOT/AOT_stimuli/rescaled_final/1825_rv.mp4	0.0	251.7771999835968	2.5004069805145264
31	161.46590495109558	pulse	1	t		29.0	2.5	/experiments/knapen_AOT/AOT_stimuli/rescaled_final/1825_rv.mp4	0.0	252.9609580039978	
31	162.7825539112091	fix_post	2		12	29.0	2.5	/experiments/knapen_AOT/AOT_stimuli/rescaled_final/1825_rv.mp4	0.0	254.27760696411133	0.09998798370361328
32	162.88254189491272	fix_pre	0		120	30.0	2.5	/experiments/knapen_AOT/AOT_stimuli/rescaled_final/1140_rv.mp4	0.0	254.37759494781494	1.0001301765441895
32	163.06610703468323	pulse	0	t		30.0	2.5	/experiments/knapen_AOT/AOT_stimuli/rescaled_final/1140_rv.mp4	0.0	254.56116008758545	
32	163.8826720714569	movie	1		243	30.0	2.5	/experiments/knapen_AOT/AOT_stimuli/rescaled_final/1140_rv.mp4	0.0	255.37772512435913	2.5004138946533203
32	164.66630291938782	pulse	1	t		30.0	2.5	/experiments/knapen_AOT/AOT_stimuli/rescaled_final/1140_rv.mp4	0.0	256.16135597229004	
32	166.2666940689087	pulse	1	t		30.0	2.5	/experiments/knapen_AOT/AOT_stimuli/rescaled_final/1140_rv.mp4	0.0	257.7617471218109	
32	166.38308596611023	fix_post	2		12	30.0	2.5	/experiments/knapen_AOT/AOT_stimuli/rescaled_final/1140_rv.mp4	0.0	257.87813901901245	0.09996604919433594
33	166.48305201530457	fix_pre	0		120	31.0	2.5	/experiments/knapen_AOT/AOT_stimuli/rescaled_final/0312_rv.mp4	0.0	257.9781050682068	1.0001490116119385
33	167.4832010269165	movie	1		243	31.0	2.5	/experiments/knapen_AOT/AOT_stimuli/rescaled_final/0312_rv.mp4	0.0	258.9782540798187	2.492079973220825
33	167.86720085144043	pulse	1	t		31.0	2.5	/experiments/knapen_AOT/AOT_stimuli/rescaled_final/0312_rv.mp4	0.0	259.36225390434265	
33	169.46705198287964	pulse	1	t		31.0	2.5	/experiments/knapen_AOT/AOT_stimuli/rescaled_final/0312_rv.mp4	0.0	260.96210503578186	
33	169.97528100013733	fix_post	2		12	31.0	2.5	/experiments/knapen_AOT/AOT_stimuli/rescaled_final/0312_rv.mp4	0.0	261.47033405303955	0.09997391700744629
34	170.07525491714478	fix_pre	0		120	32.0	2.5	/experiments/knapen_AOT/AOT_stimuli/rescaled_final/0884_rv.mp4	0.0	261.570307970047	1.0002939701080322
34	171.06741404533386	pulse	0	t		32.0	2.5	/experiments/knapen_AOT/AOT_stimuli/rescaled_final/0884_rv.mp4	0.0	262.5624670982361	
34	171.0755488872528	movie	1		246	32.0	2.5	/experiments/knapen_AOT/AOT_stimuli/rescaled_final/0884_rv.mp4	0.0	262.57060194015503	2.5085930824279785
34	172.6685779094696	pulse	1	t		32.0	2.5	/experiments/knapen_AOT/AOT_stimuli/rescaled_final/0884_rv.mp4	0.0	264.1636309623718	
34	173.5841419696808	fix_post	2		12	32.0	2.5	/experiments/knapen_AOT/AOT_stimuli/rescaled_final/0884_rv.mp4	0.0	265.079195022583	0.09999489784240723
35	173.6841368675232	fix_pre	0		120	33.0	2.5	/experiments/knapen_AOT/AOT_stimuli/rescaled_final/0227_fw.mp4	0.0	265.1791899204254	1.000171184539795
35	174.2677960395813	pulse	0	t		33.0	2.5	/experiments/knapen_AOT/AOT_stimuli/rescaled_final/0227_fw.mp4	0.0	265.7628490924835	
35	174.684308052063	movie	1		244	33.0	2.5	/experiments/knapen_AOT/AOT_stimuli/rescaled_final/0227_fw.mp4	0.0	266.1793611049652	2.5003859996795654
35	175.86095190048218	pulse	1	t		33.0	2.5	/experiments/knapen_AOT/AOT_stimuli/rescaled_final/0227_fw.mp4	0.0	267.3560049533844	
35	177.18469405174255	fix_post	2		12	33.0	2.5	/experiments/knapen_AOT/AOT_stimuli/rescaled_final/0227_fw.mp4	0.0	268.6797471046448	0.09998202323913574
36	177.2846760749817	fix_pre	0		120	34.0	2.5	blank	1.0	268.7797291278839	1.0001518726348877
36	177.46065187454224	pulse	0	t		34.0	2.5	blank	1.0	268.95570492744446	
36	178.28482794761658	movie	1		300	34.0	2.5	blank	1.0	269.7798810005188	2.5004401206970215
36	179.06097197532654	pulse	1	t		34.0	2.5	blank	1.0	270.55602502822876	
36	180.66127800941467	pulse	1	t		34.0	2.5	blank	1.0	272.1563310623169	
36	180.7852680683136	fix_post	2		12	34.0	2.5	blank	1.0	272.2803211212158	0.09992194175720215
37	180.8851900100708	fix_pre	0		120	35.0	2.5	/experiments/knapen_AOT/AOT_stimuli/rescaled_final/2078_fw.mp4	0.0	272.380243062973	1.0002038478851318
37	181.88539385795593	movie	1		242	35.0	2.5	/experiments/knapen_AOT/AOT_stimuli/rescaled_final/2078_fw.mp4	0.0	273.38044691085815	2.492094039916992
37	182.26927399635315	pulse	1	t		35.0	2.5	/experiments/knapen_AOT/AOT_stimuli/rescaled_final/2078_fw.mp4	0.0	273.76432704925537	
37	183.86100101470947	pulse	1	t		35.0	2.5	/experiments/knapen_AOT/AOT_stimuli/rescaled_final/2078_fw.mp4	0.0	275.3560540676117	
37	184.37748789787292	fix_post	2		12	35.0	2.5	/experiments/knapen_AOT/AOT_stimuli/rescaled_final/2078_fw.mp4	0.0	275.87254095077515	0.0999441146850586
38	184.47743201255798	fix_pre	0		119	36.0	2.5	/experiments/knapen_AOT/AOT_stimuli/rescaled_final/0333_fw.mp4	0.0	275.9724850654602	0.9918699264526367
38	185.4610149860382	pulse	0	t		36.0	2.5	/experiments/knapen_AOT/AOT_stimuli/rescaled_final/0333_fw.mp4	0.0	276.95606803894043	
38	185.46930193901062	movie	1		245	36.0	2.5	/experiments/knapen_AOT/AOT_stimuli/rescaled_final/0333_fw.mp4	0.0	276.96435499191284	2.5086469650268555
38	187.06170797348022	pulse	1	t		36.0	2.5	/experiments/knapen_AOT/AOT_stimuli/rescaled_final/0333_fw.mp4	0.0	278.55676102638245	
38	187.97794890403748	fix_post	2		12	36.0	2.5	/experiments/knapen_AOT/AOT_stimuli/rescaled_final/0333_fw.mp4	0.0	279.4730019569397	0.10006904602050781
39	188.07801795005798	fix_pre	0		120	37.0	2.5	/experiments/knapen_AOT/AOT_stimuli/rescaled_final/1825_rv.mp4	0.0	279.5730710029602	1.0000851154327393
39	188.66158890724182	pulse	0	t		37.0	2.5	/experiments/knapen_AOT/AOT_stimuli/rescaled_final/1825_rv.mp4	0.0	280.15664196014404	
39	189.07810306549072	movie	1		244	37.0	2.5	/experiments/knapen_AOT/AOT_stimuli/rescaled_final/1825_rv.mp4	0.0	280.57315611839294	2.5004098415374756
39	190.26189994812012	pulse	1	t		37.0	2.5	/experiments/knapen_AOT/AOT_stimuli/rescaled_final/1825_rv.mp4	0.0	281.75695300102234	
39	191.5785129070282	fix_post	2		12	37.0	2.5	/experiments/knapen_AOT/AOT_stimuli/rescaled_final/1825_rv.mp4	0.0	283.0735659599304	0.09999203681945801
40	191.67850494384766	fix_pre	0		120	38.0	2.5	/experiments/knapen_AOT/AOT_stimuli/rescaled_final/0268_fw.mp4	0.0	283.1735579967499	1.0001780986785889
40	191.86204600334167	pulse	0	t		38.0	2.5	/experiments/knapen_AOT/AOT_stimuli/rescaled_final/0268_fw.mp4	0.0	283.3570990562439	
40	192.67868304252625	movie	1		244	38.0	2.5	/experiments/knapen_AOT/AOT_stimuli/rescaled_final/0268_fw.mp4	0.0	284.17373609542847	2.5003538131713867
40	193.46237301826477	pulse	1	t		38.0	2.5	/experiments/knapen_AOT/AOT_stimuli/rescaled_final/0268_fw.mp4	0.0	284.957426071167	
40	195.06270694732666	pulse	1	t		38.0	2.5	/experiments/knapen_AOT/AOT_stimuli/rescaled_final/0268_fw.mp4	0.0	286.5577600002289	
40	195.17903685569763	fix_post	2		12	38.0	2.5	/experiments/knapen_AOT/AOT_stimuli/rescaled_final/0268_fw.mp4	0.0	286.67408990859985	0.0999901294708252
41	195.27902698516846	fix_pre	0		120	39.0	2.5	/experiments/knapen_AOT/AOT_stimuli/rescaled_final/0090_rv.mp4	0.0	286.7740800380707	1.0001790523529053
41	196.27920603752136	movie	1		244	39.0	2.5	/experiments/knapen_AOT/AOT_stimuli/rescaled_final/0090_rv.mp4	0.0	287.7742590904236	2.491994857788086
41	196.66387104988098	pulse	1	t		39.0	2.5	/experiments/knapen_AOT/AOT_stimuli/rescaled_final/0090_rv.mp4	0.0	288.1589241027832	
41	198.26299500465393	pulse	1	t		39.0	2.5	/experiments/knapen_AOT/AOT_stimuli/rescaled_final/0090_rv.mp4	0.0	289.75804805755615	
41	198.77120089530945	fix_post	2		12	39.0	2.5	/experiments/knapen_AOT/AOT_stimuli/rescaled_final/0090_rv.mp4	0.0	290.26625394821167	0.10004997253417969
42	198.87125086784363	fix_pre	0		120	40.0	2.5	/experiments/knapen_AOT/AOT_stimuli/rescaled_final/1430_fw.mp4	0.0	290.36630392074585	1.00018310546875
42	199.8633098602295	pulse	0	t		40.0	2.5	/experiments/knapen_AOT/AOT_stimuli/rescaled_final/1430_fw.mp4	0.0	291.3583629131317	
42	199.87143397331238	movie	1		245	40.0	2.5	/experiments/knapen_AOT/AOT_stimuli/rescaled_final/1430_fw.mp4	0.0	291.3664870262146	2.5086419582366943
42	201.46388387680054	pulse	1	t		40.0	2.5	/experiments/knapen_AOT/AOT_stimuli/rescaled_final/1430_fw.mp4	0.0	292.95893692970276	
42	202.38007593154907	fix_post	2		12	40.0	2.5	/experiments/knapen_AOT/AOT_stimuli/rescaled_final/1430_fw.mp4	0.0	293.8751289844513	0.10002398490905762
43	202.48009991645813	fix_pre	0		120	41.0	2.5	blank	1.0	293.97515296936035	1.0001461505889893
43	203.06378197669983	pulse	0	t		41.0	2.5	blank	1.0	294.55883502960205	
43	203.48024606704712	movie	1		300	41.0	2.5	blank	1.0	294.97529911994934	2.5003719329833984
43	204.66398906707764	pulse	1	t		41.0	2.5	blank	1.0	296.15904211997986	
43	205.98061800003052	fix_post	2		12	41.0	2.5	blank	1.0	297.47567105293274	0.0999908447265625
44	206.08060884475708	fix_pre	0		120	42.0	2.5	/experiments/knapen_AOT/AOT_stimuli/rescaled_final/1318_fw.mp4	0.0	297.5756618976593	1.0001780986785889
44	206.2643060684204	pulse	0	t		42.0	2.5	/experiments/knapen_AOT/AOT_stimuli/rescaled_final/1318_fw.mp4	0.0	297.75935912132263	
44	207.08078694343567	movie	1		244	42.0	2.5	/experiments/knapen_AOT/AOT_stimuli/rescaled_final/1318_fw.mp4	0.0	298.5758399963379	2.5003929138183594
44	207.86454892158508	pulse	1	t		42.0	2.5	/experiments/knapen_AOT/AOT_stimuli/rescaled_final/1318_fw.mp4	0.0	299.3596019744873	
44	209.46474885940552	pulse	1	t		42.0	2.5	/experiments/knapen_AOT/AOT_stimuli/rescaled_final/1318_fw.mp4	0.0	300.95980191230774	
44	209.58117985725403	fix_post	2		12	42.0	2.5	/experiments/knapen_AOT/AOT_stimuli/rescaled_final/1318_fw.mp4	0.0	301.07623291015625	0.09998321533203125
45	209.68116307258606	fix_pre	0		120	43.0	2.5	/experiments/knapen_AOT/AOT_stimuli/rescaled_final/1741_fw.mp4	0.0	301.1762161254883	1.000187873840332
45	210.6813509464264	movie	1		242	43.0	2.5	/experiments/knapen_AOT/AOT_stimuli/rescaled_final/1741_fw.mp4	0.0	302.1764039993286	2.49212908744812
45	211.065288066864	pulse	1	t		43.0	2.5	/experiments/knapen_AOT/AOT_stimuli/rescaled_final/1741_fw.mp4	0.0	302.56034111976624	
45	212.665118932724	pulse	1	t		43.0	2.5	/experiments/knapen_AOT/AOT_stimuli/rescaled_final/1741_fw.mp4	0.0	304.1601719856262	
45	213.1734800338745	fix_post	2		12	43.0	2.5	/experiments/knapen_AOT/AOT_stimuli/rescaled_final/1741_fw.mp4	0.0	304.66853308677673	0.09992694854736328
46	213.27340698242188	fix_pre	0		120	44.0	2.5	/experiments/knapen_AOT/AOT_stimuli/rescaled_final/2132_fw.mp4	0.0	304.7684600353241	1.0001170635223389
46	214.26547408103943	pulse	0	t		44.0	2.5	/experiments/knapen_AOT/AOT_stimuli/rescaled_final/2132_fw.mp4	0.0	305.76052713394165	
46	214.2735240459442	movie	1		244	44.0	2.5	/experiments/knapen_AOT/AOT_stimuli/rescaled_final/2132_fw.mp4	0.0	305.76857709884644	2.5087130069732666
46	215.8698799610138	pulse	1	t		44.0	2.5	/experiments/knapen_AOT/AOT_stimuli/rescaled_final/2132_fw.mp4	0.0	307.364933013916	
46	216.78223705291748	fix_post	2		12	44.0	2.5	/experiments/knapen_AOT/AOT_stimuli/rescaled_final/2132_fw.mp4	0.0	308.2772901058197	0.1000678539276123
47	216.8823049068451	fix_pre	0		120	45.0	2.5	/experiments/knapen_AOT/AOT_stimuli/rescaled_final/0968_rv.mp4	0.0	308.3773579597473	1.0001490116119385
47	217.46582698822021	pulse	0	t		45.0	2.5	/experiments/knapen_AOT/AOT_stimuli/rescaled_final/0968_rv.mp4	0.0	308.96088004112244	
47	217.88245391845703	movie	1		244	45.0	2.5	/experiments/knapen_AOT/AOT_stimuli/rescaled_final/0968_rv.mp4	0.0	309.37750697135925	2.500357151031494
47	219.066251039505	pulse	1	t		45.0	2.5	/experiments/knapen_AOT/AOT_stimuli/rescaled_final/0968_rv.mp4	0.0	310.5613040924072	
47	220.38281106948853	fix_post	2		12	45.0	2.5	/experiments/knapen_AOT/AOT_stimuli/rescaled_final/0968_rv.mp4	0.0	311.87786412239075	0.09998798370361328
48	220.48279905319214	fix_pre	0		118	46.0	2.5	/experiments/knapen_AOT/AOT_stimuli/rescaled_final/1481_rv.mp4	0.0	311.97785210609436	1.0001599788665771
48	220.66639685630798	pulse	0	t		46.0	2.5	/experiments/knapen_AOT/AOT_stimuli/rescaled_final/1481_rv.mp4	0.0	312.1614499092102	
48	221.48295903205872	movie	1		243	46.0	2.5	/experiments/knapen_AOT/AOT_stimuli/rescaled_final/1481_rv.mp4	0.0	312.97801208496094	2.500339984893799
48	222.26664400100708	pulse	1	t		46.0	2.5	/experiments/knapen_AOT/AOT_stimuli/rescaled_final/1481_rv.mp4	0.0	313.7616970539093	
48	223.86682295799255	pulse	1	t		46.0	2.5	/experiments/knapen_AOT/AOT_stimuli/rescaled_final/1481_rv.mp4	0.0	315.3618760108948	
48	223.98329901695251	fix_post	2		12	46.0	2.5	/experiments/knapen_AOT/AOT_stimuli/rescaled_final/1481_rv.mp4	0.0	315.47835206985474	0.1000359058380127
49	224.08333492279053	fix_pre	0		120	47.0	2.5	/experiments/knapen_AOT/AOT_stimuli/rescaled_final/1621_rv.mp4	0.0	315.57838797569275	1.0001249313354492
49	225.08345985412598	movie	1		242	47.0	2.5	/experiments/knapen_AOT/AOT_stimuli/rescaled_final/1621_rv.mp4	0.0	316.5785129070282	2.492051124572754
49	225.47164607048035	pulse	1	t		47.0	2.5	/experiments/knapen_AOT/AOT_stimuli/rescaled_final/1621_rv.mp4	0.0	316.96669912338257	
49	227.06737399101257	pulse	1	t		47.0	2.5	/experiments/knapen_AOT/AOT_stimuli/rescaled_final/1621_rv.mp4	0.0	318.5624270439148	
49	227.57551097869873	fix_post	2		12	47.0	2.5	/experiments/knapen_AOT/AOT_stimuli/rescaled_final/1621_rv.mp4	0.0	319.07056403160095	0.10002994537353516
50	227.67554092407227	fix_pre	0		120	48.0	2.5	blank	1.0	319.1705939769745	1.0002069473266602
50	228.6676468849182	pulse	0	t		48.0	2.5	blank	1.0	320.16269993782043	
50	228.67574787139893	movie	1		301	48.0	2.5	blank	1.0	320.17080092430115	2.508674144744873
50	230.26027703285217	pulse	1	t		48.0	2.5	blank	1.0	321.7553300857544	
50	231.1844220161438	fix_post	2		12	48.0	2.5	blank	1.0	322.679475069046	0.09994983673095703
51	231.28437185287476	fix_pre	0		120	49.0	2.5	/experiments/knapen_AOT/AOT_stimuli/rescaled_final/0053_rv.mp4	0.0	322.779424905777	1.000176191329956
51	231.86041688919067	pulse	0	t		49.0	2.5	/experiments/knapen_AOT/AOT_stimuli/rescaled_final/0053_rv.mp4	0.0	323.3554699420929	
51	232.2845480442047	movie	1		244	49.0	2.5	/experiments/knapen_AOT/AOT_stimuli/rescaled_final/0053_rv.mp4	0.0	323.77960109710693	2.5003650188446045
51	233.460599899292	pulse	1	t		49.0	2.5	/experiments/knapen_AOT/AOT_stimuli/rescaled_final/0053_rv.mp4	0.0	324.9556529521942	
51	234.78491306304932	fix_post	2		12	49.0	2.5	/experiments/knapen_AOT/AOT_stimuli/rescaled_final/0053_rv.mp4	0.0	326.27996611595154	0.10001301765441895
52	234.88492608070374	fix_pre	0		120	50.0	2.5	/experiments/knapen_AOT/AOT_stimuli/rescaled_final/0641_fw.mp4	0.0	326.37997913360596	1.0001869201660156
52	235.0609278678894	pulse	0	t		50.0	2.5	/experiments/knapen_AOT/AOT_stimuli/rescaled_final/0641_fw.mp4	0.0	326.5559809207916	
52	235.88511300086975	movie	1		244	50.0	2.5	/experiments/knapen_AOT/AOT_stimuli/rescaled_final/0641_fw.mp4	0.0	327.380166053772	2.500398874282837
52	236.66053891181946	pulse	1	t		50.0	2.5	/experiments/knapen_AOT/AOT_stimuli/rescaled_final/0641_fw.mp4	0.0	328.1555919647217	
52	238.26066994667053	pulse	1	t		50.0	2.5	/experiments/knapen_AOT/AOT_stimuli/rescaled_final/0641_fw.mp4	0.0	329.75572299957275	
52	238.3855118751526	fix_post	2		12	50.0	2.5	/experiments/knapen_AOT/AOT_stimuli/rescaled_final/0641_fw.mp4	0.0	329.8805649280548	0.0999760627746582
53	238.48548793792725	fix_pre	0		120	51.0	2.5	/experiments/knapen_AOT/AOT_stimuli/rescaled_final/0064_rv.mp4	0.0	329.98054099082947	1.000114917755127
53	239.48560285568237	movie	1		245	51.0	2.5	/experiments/knapen_AOT/AOT_stimuli/rescaled_final/0064_rv.mp4	0.0	330.9806559085846	2.4920661449432373
53	239.86085987091064	pulse	1	t		51.0	2.5	/experiments/knapen_AOT/AOT_stimuli/rescaled_final/0064_rv.mp4	0.0	331.35591292381287	
53	241.46125102043152	pulse	1	t		51.0	2.5	/experiments/knapen_AOT/AOT_stimuli/rescaled_final/0064_rv.mp4	0.0	332.95630407333374	
53	241.9776690006256	fix_post	2		12	51.0	2.5	/experiments/knapen_AOT/AOT_stimuli/rescaled_final/0064_rv.mp4	0.0	333.47272205352783	0.10000085830688477
54	242.0776698589325	fix_pre	0		119	52.0	2.5	/experiments/knapen_AOT/AOT_stimuli/rescaled_final/1456_rv.mp4	0.0	333.5727229118347	0.9918320178985596
54	243.0613329410553	pulse	0	t		52.0	2.5	/experiments/knapen_AOT/AOT_stimuli/rescaled_final/1456_rv.mp4	0.0	334.5563859939575	
54	243.06950187683105	movie	1		245	52.0	2.5	/experiments/knapen_AOT/AOT_stimuli/rescaled_final/1456_rv.mp4	0.0	334.5645549297333	2.508664131164551
54	244.66207885742188	pulse	1	t		52.0	2.5	/experiments/knapen_AOT/AOT_stimuli/rescaled_final/1456_rv.mp4	0.0	336.1571319103241	
54	245.5781660079956	fix_post	2		12	52.0	2.5	/experiments/knapen_AOT/AOT_stimuli/rescaled_final/1456_rv.mp4	0.0	337.0732190608978	0.1000509262084961
55	245.6782169342041	fix_pre	0		120	53.0	2.5	/experiments/knapen_AOT/AOT_stimuli/rescaled_final/0316_rv.mp4	0.0	337.1732699871063	1.0001459121704102
55	246.26181507110596	pulse	0	t		53.0	2.5	/experiments/knapen_AOT/AOT_stimuli/rescaled_final/0316_rv.mp4	0.0	337.7568681240082	
55	246.6783628463745	movie	1		245	53.0	2.5	/experiments/knapen_AOT/AOT_stimuli/rescaled_final/0316_rv.mp4	0.0	338.17341589927673	2.5003550052642822
55	247.86214399337769	pulse	1	t		53.0	2.5	/experiments/knapen_AOT/AOT_stimuli/rescaled_final/0316_rv.mp4	0.0	339.3571970462799	
55	249.1787178516388	fix_post	2		12	53.0	2.5	/experiments/knapen_AOT/AOT_stimuli/rescaled_final/0316_rv.mp4	0.0	340.673770904541	0.1000370979309082
56	249.2787549495697	fix_pre	0		120	54.0	2.5	/experiments/knapen_AOT/AOT_stimuli/rescaled_final/2102_rv.mp4	0.0	340.7738080024719	1.0001330375671387
56	249.46230506896973	pulse	0	t		54.0	2.5	/experiments/knapen_AOT/AOT_stimuli/rescaled_final/2102_rv.mp4	0.0	340.95735812187195	
56	250.27888798713684	movie	1		244	54.0	2.5	/experiments/knapen_AOT/AOT_stimuli/rescaled_final/2102_rv.mp4	0.0	341.77394104003906	2.500441074371338
56	251.0625560283661	pulse	1	t		54.0	2.5	/experiments/knapen_AOT/AOT_stimuli/rescaled_final/2102_rv.mp4	0.0	342.5576090812683	
56	252.66268587112427	pulse	1	t		54.0	2.5	/experiments/knapen_AOT/AOT_stimuli/rescaled_final/2102_rv.mp4	0.0	344.1577389240265	
56	252.77932906150818	fix_post	2		12	54.0	2.5	/experiments/knapen_AOT/AOT_stimuli/rescaled_final/2102_rv.mp4	0.0	344.2743821144104	0.09998297691345215
57	252.87931203842163	fix_pre	0		120	55.0	2.5	blank	1.0	344.37436509132385	1.0001599788665771
57	253.8794720172882	movie	1		299	55.0	2.5	blank	1.0	345.37452507019043	2.492034912109375
57	254.2630009651184	pulse	1	t		55.0	2.5	blank	1.0	345.75805401802063	
57	255.86330604553223	pulse	1	t		55.0	2.5	blank	1.0	347.35835909843445	
57	256.3715069293976	fix_post	2		12	55.0	2.5	blank	1.0	347.8665599822998	0.10004806518554688
58	256.47155499458313	fix_pre	0		120	56.0	2.5	/experiments/knapen_AOT/AOT_stimuli/rescaled_final/0469_rv.mp4	0.0	347.96660804748535	1.0001130104064941
58	257.46351289749146	pulse	0	t		56.0	2.5	/experiments/knapen_AOT/AOT_stimuli/rescaled_final/0469_rv.mp4	0.0	348.9585659503937	
58	257.4716680049896	movie	1		245	56.0	2.5	/experiments/knapen_AOT/AOT_stimuli/rescaled_final/0469_rv.mp4	0.0	348.96672105789185	2.5086610317230225
58	259.0650088787079	pulse	1	t		56.0	2.5	/experiments/knapen_AOT/AOT_stimuli/rescaled_final/0469_rv.mp4	0.0	350.5600619316101	
58	259.98032903671265	fix_post	2		12	56.0	2.5	/experiments/knapen_AOT/AOT_stimuli/rescaled_final/0469_rv.mp4	0.0	351.47538208961487	0.10001993179321289
59	260.08034896850586	fix_pre	0		120	57.0	2.5	/experiments/knapen_AOT/AOT_stimuli/rescaled_final/0679_fw.mp4	0.0	351.5754020214081	1.0002129077911377
59	260.6640110015869	pulse	0	t		57.0	2.5	/experiments/knapen_AOT/AOT_stimuli/rescaled_final/0679_fw.mp4	0.0	352.15906405448914	
59	261.080561876297	movie	1		244	57.0	2.5	/experiments/knapen_AOT/AOT_stimuli/rescaled_final/0679_fw.mp4	0.0	352.5756149291992	2.500312089920044
59	262.2644259929657	pulse	1	t		57.0	2.5	/experiments/knapen_AOT/AOT_stimuli/rescaled_final/0679_fw.mp4	0.0	353.7594790458679	
59	263.58087396621704	fix_post	2		12	57.0	2.5	/experiments/knapen_AOT/AOT_stimuli/rescaled_final/0679_fw.mp4	0.0	355.07592701911926	0.10001397132873535
60	263.6808879375458	fix_pre	0		120	58.0	2.5	/experiments/knapen_AOT/AOT_stimuli/rescaled_final/0225_rv.mp4	0.0	355.175940990448	1.0001699924468994
60	263.86448788642883	pulse	0	t		58.0	2.5	/experiments/knapen_AOT/AOT_stimuli/rescaled_final/0225_rv.mp4	0.0	355.35954093933105	
60	264.6810579299927	movie	1		243	58.0	2.5	/experiments/knapen_AOT/AOT_stimuli/rescaled_final/0225_rv.mp4	0.0	356.1761109828949	2.5003490447998047
60	265.4647319316864	pulse	1	t		58.0	2.5	/experiments/knapen_AOT/AOT_stimuli/rescaled_final/0225_rv.mp4	0.0	356.9597849845886	
60	267.0649290084839	pulse	1	t		58.0	2.5	/experiments/knapen_AOT/AOT_stimuli/rescaled_final/0225_rv.mp4	0.0	358.5599820613861	
60	267.1814069747925	fix_post	2		12	58.0	2.5	/experiments/knapen_AOT/AOT_stimuli/rescaled_final/0225_rv.mp4	0.0	358.6764600276947	0.10003495216369629
61	267.2814419269562	fix_pre	0		120	59.0	2.5	/experiments/knapen_AOT/AOT_stimuli/rescaled_final/0679_fw.mp4	0.0	358.7764949798584	1.0001530647277832
61	268.28159499168396	movie	1		243	59.0	2.5	/experiments/knapen_AOT/AOT_stimuli/rescaled_final/0679_fw.mp4	0.0	359.7766480445862	2.4920570850372314
61	268.66949796676636	pulse	1	t		59.0	2.5	/experiments/knapen_AOT/AOT_stimuli/rescaled_final/0679_fw.mp4	0.0	360.1645510196686	
61	270.2654778957367	pulse	1	t		59.0	2.5	/experiments/knapen_AOT/AOT_stimuli/rescaled_final/0679_fw.mp4	0.0	361.7605309486389	
61	270.7736520767212	fix_post	2		12	59.0	2.5	/experiments/knapen_AOT/AOT_stimuli/rescaled_final/0679_fw.mp4	0.0	362.2687051296234	0.10001492500305176
62	270.87366700172424	fix_pre	0		120	60.0	2.5	/experiments/knapen_AOT/AOT_stimuli/rescaled_final/1071_rv.mp4	0.0	362.36872005462646	1.0001440048217773
62	271.86562991142273	pulse	0	t		60.0	2.5	/experiments/knapen_AOT/AOT_stimuli/rescaled_final/1071_rv.mp4	0.0	363.36068296432495	
62	271.873811006546	movie	1		245	60.0	2.5	/experiments/knapen_AOT/AOT_stimuli/rescaled_final/1071_rv.mp4	0.0	363.36886405944824	2.50875186920166
62	273.4663999080658	pulse	1	t		60.0	2.5	/experiments/knapen_AOT/AOT_stimuli/rescaled_final/1071_rv.mp4	0.0	364.961452960968	
62	274.3825628757477	fix_post	2		12	60.0	2.5	/experiments/knapen_AOT/AOT_stimuli/rescaled_final/1071_rv.mp4	0.0	365.8776159286499	0.09997200965881348
63	274.4825348854065	fix_pre	0		120	61.0	2.5	blank	1.0	365.9775879383087	1.0001220703125
63	275.06619000434875	pulse	0	t		61.0	2.5	blank	1.0	366.561243057251	
63	275.482656955719	movie	1		300	61.0	2.5	blank	1.0	366.9777100086212	2.500391960144043
63	276.6664299964905	pulse	1	t		61.0	2.5	blank	1.0	368.1614830493927	
63	277.98304891586304	fix_post	2		12	61.0	2.5	blank	1.0	369.47810196876526	0.10004210472106934
64	278.0830910205841	fix_pre	0		120	62.0	2.5	/experiments/knapen_AOT/AOT_stimuli/rescaled_final/0437_fw.mp4	0.0	369.5781440734863	1.0000958442687988
64	278.26667499542236	pulse	0	t		62.0	2.5	/experiments/knapen_AOT/AOT_stimuli/rescaled_final/0437_fw.mp4	0.0	369.7617280483246	
64	279.0831868648529	movie	1		243	62.0	2.5	/experiments/knapen_AOT/AOT_stimuli/rescaled_final/0437_fw.mp4	0.0	370.5782399177551	2.5003881454467773
64	279.86681294441223	pulse	1	t		62.0	2.5	/experiments/knapen_AOT/AOT_stimuli/rescaled_final/0437_fw.mp4	0.0	371.36186599731445	
64	281.46686601638794	pulse	1	t		62.0	2.5	/experiments/knapen_AOT/AOT_stimuli/rescaled_final/0437_fw.mp4	0.0	372.96191906929016	
64	281.5835750102997	fix_post	2		12	62.0	2.5	/experiments/knapen_AOT/AOT_stimuli/rescaled_final/0437_fw.mp4	0.0	373.0786280632019	0.10001587867736816
65	281.68359088897705	fix_pre	0		120	63.0	2.5	/experiments/knapen_AOT/AOT_stimuli/rescaled_final/0469_rv.mp4	0.0	373.1786439418793	1.000136137008667
65	282.6837270259857	movie	1		242	63.0	2.5	/experiments/knapen_AOT/AOT_stimuli/rescaled_final/0469_rv.mp4	0.0	374.17878007888794	2.492053985595703
65	283.067754983902	pulse	1	t		63.0	2.5	/experiments/knapen_AOT/AOT_stimuli/rescaled_final/0469_rv.mp4	0.0	374.5628080368042	
65	284.66022086143494	pulse	1	t		63.0	2.5	/experiments/knapen_AOT/AOT_stimuli/rescaled_final/0469_rv.mp4	0.0	376.15527391433716	
65	285.1757810115814	fix_post	2		12	63.0	2.5	/experiments/knapen_AOT/AOT_stimuli/rescaled_final/0469_rv.mp4	0.0	376.67083406448364	0.10001993179321289
66	285.27580094337463	fix_pre	0		116	64.0	2.5	/experiments/knapen_AOT/AOT_stimuli/rescaled_final/1844_rv.mp4	0.0	376.77085399627686	1.0001640319824219
66	286.26046895980835	pulse	0	t		64.0	2.5	/experiments/knapen_AOT/AOT_stimuli/rescaled_final/1844_rv.mp4	0.0	377.75552201271057	
66	286.27596497535706	movie	1		248	64.0	2.5	/experiments/knapen_AOT/AOT_stimuli/rescaled_final/1844_rv.mp4	0.0	377.7710180282593	2.508655071258545
66	287.86840987205505	pulse	1	t		64.0	2.5	/experiments/knapen_AOT/AOT_stimuli/rescaled_final/1844_rv.mp4	0.0	379.3634629249573	
66	288.7846200466156	fix_post	2		12	64.0	2.5	/experiments/knapen_AOT/AOT_stimuli/rescaled_final/1844_rv.mp4	0.0	380.2796730995178	0.10005998611450195
67	288.8846800327301	fix_pre	0		120	65.0	2.5	/experiments/knapen_AOT/AOT_stimuli/rescaled_final/0227_rv.mp4	0.0	380.3797330856323	1.000128984451294
67	289.4600739479065	pulse	0	t		65.0	2.5	/experiments/knapen_AOT/AOT_stimuli/rescaled_final/0227_rv.mp4	0.0	380.9551270008087	
67	289.8848090171814	movie	1		246	65.0	2.5	/experiments/knapen_AOT/AOT_stimuli/rescaled_final/0227_rv.mp4	0.0	381.3798620700836	2.500349998474121
67	291.0607509613037	pulse	1	t		65.0	2.5	/experiments/knapen_AOT/AOT_stimuli/rescaled_final/0227_rv.mp4	0.0	382.55580401420593	
67	292.3851590156555	fix_post	2		12	65.0	2.5	/experiments/knapen_AOT/AOT_stimuli/rescaled_final/0227_rv.mp4	0.0	383.88021206855774	0.1000528335571289
68	292.48521184921265	fix_pre	0		120	66.0	2.5	/experiments/knapen_AOT/AOT_stimuli/rescaled_final/1989_fw.mp4	0.0	383.98026490211487	1.0001451969146729
68	292.66048288345337	pulse	0	t		66.0	2.5	/experiments/knapen_AOT/AOT_stimuli/rescaled_final/1989_fw.mp4	0.0	384.1555359363556	
68	293.4853570461273	movie	1		248	66.0	2.5	/experiments/knapen_AOT/AOT_stimuli/rescaled_final/1989_fw.mp4	0.0	384.98041009902954	2.5003459453582764
68	294.2607078552246	pulse	1	t		66.0	2.5	/experiments/knapen_AOT/AOT_stimuli/rescaled_final/1989_fw.mp4	0.0	385.75576090812683	
68	295.860976934433	pulse	1	t		66.0	2.5	/experiments/knapen_AOT/AOT_stimuli/rescaled_final/1989_fw.mp4	0.0	387.3560299873352	
68	295.9857029914856	fix_post	2		11	66.0	2.5	/experiments/knapen_AOT/AOT_stimuli/rescaled_final/1989_fw.mp4	0.0	387.4807560443878	0.09168696403503418
69	296.07738995552063	fix_pre	0		120	67.0	2.5	/experiments/knapen_AOT/AOT_stimuli/rescaled_final/0483_rv.mp4	0.0	387.57244300842285	1.0001931190490723
69	297.0775830745697	movie	1		244	67.0	2.5	/experiments/knapen_AOT/AOT_stimuli/rescaled_final/0483_rv.mp4	0.0	388.5726361274719	2.5003418922424316
69	297.46137285232544	pulse	1	t		67.0	2.5	/experiments/knapen_AOT/AOT_stimuli/rescaled_final/0483_rv.mp4	0.0	388.95642590522766	
69	299.06145000457764	pulse	1	t		67.0	2.5	/experiments/knapen_AOT/AOT_stimuli/rescaled_final/0483_rv.mp4	0.0	390.55650305747986	
69	299.57792496681213	fix_post	2		12	67.0	2.5	/experiments/knapen_AOT/AOT_stimuli/rescaled_final/0483_rv.mp4	0.0	391.07297801971436	0.1000208854675293
70	299.67794585227966	fix_pre	0		119	68.0	2.5	/experiments/knapen_AOT/AOT_stimuli/rescaled_final/0293_fw.mp4	0.0	391.1729989051819	0.991814136505127
70	300.6616220474243	pulse	0	t		68.0	2.5	/experiments/knapen_AOT/AOT_stimuli/rescaled_final/0293_fw.mp4	0.0	392.15667510032654	
70	300.6697599887848	movie	1		244	68.0	2.5	/experiments/knapen_AOT/AOT_stimuli/rescaled_final/0293_fw.mp4	0.0	392.164813041687	2.5086770057678223
70	302.2623770236969	pulse	1	t		68.0	2.5	/experiments/knapen_AOT/AOT_stimuli/rescaled_final/0293_fw.mp4	0.0	393.7574300765991	
70	303.1784369945526	fix_post	2		12	68.0	2.5	/experiments/knapen_AOT/AOT_stimuli/rescaled_final/0293_fw.mp4	0.0	394.67349004745483	0.10004997253417969
71	303.2784869670868	fix_pre	0		120	69.0	2.5	/experiments/knapen_AOT/AOT_stimuli/rescaled_final/1469_rv.mp4	0.0	394.773540019989	1.0001568794250488
71	303.86223697662354	pulse	0	t		69.0	2.5	/experiments/knapen_AOT/AOT_stimuli/rescaled_final/1469_rv.mp4	0.0	395.35729002952576	
71	304.27864384651184	movie	1		243	69.0	2.5	/experiments/knapen_AOT/AOT_stimuli/rescaled_final/1469_rv.mp4	0.0	395.77369689941406	2.5003561973571777
71	305.4625549316406	pulse	1	t		69.0	2.5	/experiments/knapen_AOT/AOT_stimuli/rescaled_final/1469_rv.mp4	0.0	396.95760798454285	
71	306.779000043869	fix_post	2		12	69.0	2.5	/experiments/knapen_AOT/AOT_stimuli/rescaled_final/1469_rv.mp4	0.0	398.27405309677124	0.10004401206970215
72	306.8790440559387	fix_pre	0		120	70.0	2.5	blank	1.0	398.37409710884094	1.00016188621521
72	307.06262707710266	pulse	0	t		70.0	2.5	blank	1.0	398.5576801300049	
72	307.87920594215393	movie	1		300	70.0	2.5	blank	1.0	399.37425899505615	2.5004019737243652
72	308.66282987594604	pulse	1	t		70.0	2.5	blank	1.0	400.15788292884827	
72	310.2630319595337	pulse	1	t		70.0	2.5	blank	1.0	401.7580850124359	
72	310.3796079158783	fix_post	2		12	70.0	2.5	blank	1.0	401.8746609687805	0.0999460220336914
73	310.479553937912	fix_pre	0		119	71.0	2.5	/experiments/knapen_AOT/AOT_stimuli/rescaled_final/1535_rv.mp4	0.0	401.9746069908142	0.9918060302734375
73	311.4713599681854	movie	1		244	71.0	2.5	/experiments/knapen_AOT/AOT_stimuli/rescaled_final/1535_rv.mp4	0.0	402.96641302108765	2.5004000663757324
73	311.86334586143494	pulse	1	t		71.0	2.5	/experiments/knapen_AOT/AOT_stimuli/rescaled_final/1535_rv.mp4	0.0	403.35839891433716	
73	313.4636960029602	pulse	1	t		71.0	2.5	/experiments/knapen_AOT/AOT_stimuli/rescaled_final/1535_rv.mp4	0.0	404.9587490558624	
73	313.97176003456116	fix_post	2		12	71.0	2.5	/experiments/knapen_AOT/AOT_stimuli/rescaled_final/1535_rv.mp4	0.0	405.4668130874634	0.09999799728393555
74	314.0717580318451	fix_pre	0		120	72.0	2.5	/experiments/knapen_AOT/AOT_stimuli/rescaled_final/0329_rv.mp4	0.0	405.5668110847473	1.0001399517059326
74	315.0638258457184	pulse	0	t		72.0	2.5	/experiments/knapen_AOT/AOT_stimuli/rescaled_final/0329_rv.mp4	0.0	406.5588788986206	
74	315.071897983551	movie	1		244	72.0	2.5	/experiments/knapen_AOT/AOT_stimuli/rescaled_final/0329_rv.mp4	0.0	406.56695103645325	2.508694887161255
74	316.6652150154114	pulse	1	t		72.0	2.5	/experiments/knapen_AOT/AOT_stimuli/rescaled_final/0329_rv.mp4	0.0	408.1602680683136	
74	317.5805928707123	fix_post	2		12	72.0	2.5	/experiments/knapen_AOT/AOT_stimuli/rescaled_final/0329_rv.mp4	0.0	409.0756459236145	0.10003519058227539
75	317.68062806129456	fix_pre	0		120	73.0	2.5	/experiments/knapen_AOT/AOT_stimuli/rescaled_final/1825_fw.mp4	0.0	409.1756811141968	1.0001468658447266
75	318.2643029689789	pulse	0	t		73.0	2.5	/experiments/knapen_AOT/AOT_stimuli/rescaled_final/1825_fw.mp4	0.0	409.7593560218811	
75	318.6807749271393	movie	1		244	73.0	2.5	/experiments/knapen_AOT/AOT_stimuli/rescaled_final/1825_fw.mp4	0.0	410.1758279800415	2.500422954559326
75	319.86458587646484	pulse	1	t		73.0	2.5	/experiments/knapen_AOT/AOT_stimuli/rescaled_final/1825_fw.mp4	0.0	411.35963892936707	
75	321.1811978816986	fix_post	2		12	73.0	2.5	/experiments/knapen_AOT/AOT_stimuli/rescaled_final/1825_fw.mp4	0.0	412.67625093460083	0.0999901294708252
76	321.28118801116943	fix_pre	0		120	74.0	2.5	/experiments/knapen_AOT/AOT_stimuli/rescaled_final/0613_rv.mp4	0.0	412.77624106407166	1.0001308917999268
76	321.4648439884186	pulse	0	t		74.0	2.5	/experiments/knapen_AOT/AOT_stimuli/rescaled_final/0613_rv.mp4	0.0	412.9598970413208	
76	322.28131890296936	movie	1		244	74.0	2.5	/experiments/knapen_AOT/AOT_stimuli/rescaled_final/0613_rv.mp4	0.0	413.7763719558716	2.5003890991210938
76	323.0649859905243	pulse	1	t		74.0	2.5	/experiments/knapen_AOT/AOT_stimuli/rescaled_final/0613_rv.mp4	0.0	414.5600390434265	
76	324.6651818752289	pulse	1	t		74.0	2.5	/experiments/knapen_AOT/AOT_stimuli/rescaled_final/0613_rv.mp4	0.0	416.1602349281311	
76	324.78170800209045	fix_post	2		12	74.0	2.5	/experiments/knapen_AOT/AOT_stimuli/rescaled_final/0613_rv.mp4	0.0	416.2767610549927	0.10000085830688477
77	324.88170886039734	fix_pre	0		120	75.0	2.5	/experiments/knapen_AOT/AOT_stimuli/rescaled_final/1335_fw.mp4	0.0	416.37676191329956	1.0001540184020996
77	325.88186287879944	movie	1		243	75.0	2.5	/experiments/knapen_AOT/AOT_stimuli/rescaled_final/1335_fw.mp4	0.0	417.37691593170166	2.4920151233673096
77	326.26581287384033	pulse	1	t		75.0	2.5	/experiments/knapen_AOT/AOT_stimuli/rescaled_final/1335_fw.mp4	0.0	417.76086592674255	
77	327.865779876709	pulse	1	t		75.0	2.5	/experiments/knapen_AOT/AOT_stimuli/rescaled_final/1335_fw.mp4	0.0	419.3608329296112	
77	328.37387800216675	fix_post	2		12	75.0	2.5	/experiments/knapen_AOT/AOT_stimuli/rescaled_final/1335_fw.mp4	0.0	419.86893105506897	0.10002303123474121
78	328.4739010334015	fix_pre	0		120	76.0	2.5	/experiments/knapen_AOT/AOT_stimuli/rescaled_final/0755_rv.mp4	0.0	419.9689540863037	1.000169038772583
78	329.4659068584442	pulse	0	t		76.0	2.5	/experiments/knapen_AOT/AOT_stimuli/rescaled_final/0755_rv.mp4	0.0	420.96095991134644	
78	329.4740700721741	movie	1		246	76.0	2.5	/experiments/knapen_AOT/AOT_stimuli/rescaled_final/0755_rv.mp4	0.0	420.9691231250763	2.50870680809021
78	331.06665086746216	pulse	1	t		76.0	2.5	/experiments/knapen_AOT/AOT_stimuli/rescaled_final/0755_rv.mp4	0.0	422.5617039203644	
78	331.9827768802643	fix_post	2		12	76.0	2.5	/experiments/knapen_AOT/AOT_stimuli/rescaled_final/0755_rv.mp4	0.0	423.4778299331665	0.10001015663146973
79	332.08278703689575	fix_pre	0		120	77.0	2.5	blank	1.0	423.577840089798	1.0001518726348877
79	332.6663830280304	pulse	0	t		77.0	2.5	blank	1.0	424.1614360809326	
79	333.08293890953064	movie	1		300	77.0	2.5	blank	1.0	424.57799196243286	2.5004000663757324
79	334.26672291755676	pulse	1	t		77.0	2.5	blank	1.0	425.761775970459	
79	335.5833389759064	fix_post	2		12	77.0	2.5	blank	1.0	427.0783920288086	0.09998106956481934
80	335.6833200454712	fix_pre	0		120	78.0	2.5	/experiments/knapen_AOT/AOT_stimuli/rescaled_final/0316_fw.mp4	0.0	427.1783730983734	1.0001280307769775
80	335.8668818473816	pulse	0	t		78.0	2.5	/experiments/knapen_AOT/AOT_stimuli/rescaled_final/0316_fw.mp4	0.0	427.3619349002838	
80	336.68344807624817	movie	1		246	78.0	2.5	/experiments/knapen_AOT/AOT_stimuli/rescaled_final/0316_fw.mp4	0.0	428.1785011291504	2.5003859996795654
80	337.4672338962555	pulse	1	t		78.0	2.5	/experiments/knapen_AOT/AOT_stimuli/rescaled_final/0316_fw.mp4	0.0	428.9622869491577	
80	339.0674319267273	pulse	1	t		78.0	2.5	/experiments/knapen_AOT/AOT_stimuli/rescaled_final/0316_fw.mp4	0.0	430.5624849796295	
80	339.18383407592773	fix_post	2		12	78.0	2.5	/experiments/knapen_AOT/AOT_stimuli/rescaled_final/0316_fw.mp4	0.0	430.67888712882996	0.10002589225769043
81	339.2838599681854	fix_pre	0		120	79.0	2.5	/experiments/knapen_AOT/AOT_stimuli/rescaled_final/2044_rv.mp4	0.0	430.77891302108765	1.0001380443572998
81	340.2839980125427	movie	1		244	79.0	2.5	/experiments/knapen_AOT/AOT_stimuli/rescaled_final/2044_rv.mp4	0.0	431.77905106544495	2.4921109676361084
81	340.6724920272827	pulse	1	t		79.0	2.5	/experiments/knapen_AOT/AOT_stimuli/rescaled_final/2044_rv.mp4	0.0	432.16754508018494	
81	342.26783895492554	pulse	1	t		79.0	2.5	/experiments/knapen_AOT/AOT_stimuli/rescaled_final/2044_rv.mp4	0.0	433.76289200782776	
81	342.77610898017883	fix_post	2		9	79.0	2.5	/experiments/knapen_AOT/AOT_stimuli/rescaled_final/2044_rv.mp4	0.0	434.27116203308105	0.09995603561401367
82	342.87606501579285	fix_pre	0		120	80.0	2.5	/experiments/knapen_AOT/AOT_stimuli/rescaled_final/1007_rv.mp4	0.0	434.37111806869507	1.0001389980316162
82	343.8680908679962	pulse	0	t		80.0	2.5	/experiments/knapen_AOT/AOT_stimuli/rescaled_final/1007_rv.mp4	0.0	435.36314392089844	
82	343.87620401382446	movie	1		246	80.0	2.5	/experiments/knapen_AOT/AOT_stimuli/rescaled_final/1007_rv.mp4	0.0	435.3712570667267	2.5087039470672607
82	345.46942687034607	pulse	1	t		80.0	2.5	/experiments/knapen_AOT/AOT_stimuli/rescaled_final/1007_rv.mp4	0.0	436.9644799232483	
82	346.3849079608917	fix_post	2		12	80.0	2.5	/experiments/knapen_AOT/AOT_stimuli/rescaled_final/1007_rv.mp4	0.0	437.87996101379395	0.10003805160522461
83	346.48494601249695	fix_pre	0		120	81.0	2.5	/experiments/knapen_AOT/AOT_stimuli/rescaled_final/0158_fw.mp4	0.0	437.97999906539917	1.0001399517059326
83	347.06106305122375	pulse	0	t		81.0	2.5	/experiments/knapen_AOT/AOT_stimuli/rescaled_final/0158_fw.mp4	0.0	438.556116104126	
83	347.4850859642029	movie	1		244	81.0	2.5	/experiments/knapen_AOT/AOT_stimuli/rescaled_final/0158_fw.mp4	0.0	438.9801390171051	2.5004169940948486
83	348.6610679626465	pulse	1	t		81.0	2.5	/experiments/knapen_AOT/AOT_stimuli/rescaled_final/0158_fw.mp4	0.0	440.1561210155487	
83	349.98550295829773	fix_post	2		12	81.0	2.5	/experiments/knapen_AOT/AOT_stimuli/rescaled_final/0158_fw.mp4	0.0	441.48055601119995	0.09997797012329102
84	350.085480928421	fix_pre	0		120	82.0	2.5	/experiments/knapen_AOT/AOT_stimuli/rescaled_final/0090_fw.mp4	0.0	441.58053398132324	1.000196933746338
84	350.26085090637207	pulse	0	t		82.0	2.5	/experiments/knapen_AOT/AOT_stimuli/rescaled_final/0090_fw.mp4	0.0	441.7559039592743	
84	351.08567786216736	movie	1		247	82.0	2.5	/experiments/knapen_AOT/AOT_stimuli/rescaled_final/0090_fw.mp4	0.0	442.5807309150696	2.5003461837768555
84	351.8608920574188	pulse	1	t		82.0	2.5	/experiments/knapen_AOT/AOT_stimuli/rescaled_final/0090_fw.mp4	0.0	443.35594511032104	
84	353.46112990379333	pulse	1	t		82.0	2.5	/experiments/knapen_AOT/AOT_stimuli/rescaled_final/0090_fw.mp4	0.0	444.95618295669556	
84	353.5860240459442	fix_post	2		12	82.0	2.5	/experiments/knapen_AOT/AOT_stimuli/rescaled_final/0090_fw.mp4	0.0	445.08107709884644	0.10000491142272949
85	353.68602895736694	fix_pre	0		120	83.0	2.5	blank	1.0	445.18108201026917	1.0001070499420166
85	354.68613600730896	movie	1		299	83.0	2.5	blank	1.0	446.1811890602112	2.4920899868011475
85	355.0614719390869	pulse	1	t		83.0	2.5	blank	1.0	446.55652499198914	
85	356.6616220474243	pulse	1	t		83.0	2.5	blank	1.0	448.15667510032654	
85	357.1782259941101	fix_post	2		12	83.0	2.5	blank	1.0	448.67327904701233	0.0999748706817627
87	357.27820086479187	stim	0		1716					448.7732539176941	14.302273035049438
87	358.2618429660797	pulse	0	t						449.75689601898193	
87	359.86206793785095	pulse	0	t						451.3571209907532	
87	361.462434053421	pulse	0	t						452.95748710632324	
87	363.06263303756714	pulse	0	t						454.55768609046936	
87	364.6628210544586	pulse	0	t						456.15787410736084	
87	366.26306891441345	pulse	0	t						457.7581219673157	
87	367.8632788658142	pulse	0	t						459.35833191871643	
87	369.46357107162476	pulse	0	t						460.958624124527	
87	371.06371998786926	pulse	0	t						462.5587730407715	
