trial_nr	onset	event_type	phase	response	nr_frames	movie_index	movie_duration	movie_file	blank	onset_abs	duration
0	0.20829200744628906	stim	0		21					18.059603929519653	0.17491602897644043
0	0.3752720355987549	response	0	space						18.22658395767212	
1	0.3832080364227295	stim	0		4619					18.234519958496094	38.50865197181702
1	38.88193917274475	pulse	0	t						56.733251094818115	
1	38.891860008239746	stim	1		1715					56.74317193031311	14.299206972122192
1	40.472798109054565	pulse	1	t						58.32411003112793	
1	42.07301616668701	pulse	1	t						59.924328088760376	
1	43.665600061416626	pulse	1	t						61.51691198348999	
1	45.265849113464355	pulse	1	t						63.11716103553772	
1	46.86607217788696	pulse	1	t						64.71738409996033	
1	48.46629214286804	pulse	1	t						66.3176040649414	
1	50.06569218635559	pulse	1	t						67.91700410842896	
1	51.66601514816284	pulse	1	t						69.5173270702362	
2	53.19106698036194	fix_pre	0		10	0.0	2.5	/experiments/knapen_AOT/AOT_stimuli/rescaled_final/0565_fw.mp4	0.0	71.0423789024353	0.09179902076721191
2	53.266221046447754	pulse	0	t		0.0	2.5	/experiments/knapen_AOT/AOT_stimuli/rescaled_final/0565_fw.mp4	0.0	71.11753296852112	
2	53.28286600112915	movie	1		241	0.0	2.5	/experiments/knapen_AOT/AOT_stimuli/rescaled_final/0565_fw.mp4	0.0	71.13417792320251	2.5002970695495605
2	54.86798310279846	pulse	1	t		0.0	2.5	/experiments/knapen_AOT/AOT_stimuli/rescaled_final/0565_fw.mp4	0.0	72.71929502487183	
2	55.78316307067871	fix_post	2		12	0.0	2.5	/experiments/knapen_AOT/AOT_stimuli/rescaled_final/0565_fw.mp4	0.0	73.63447499275208	0.0999600887298584
3	55.88312315940857	fix_pre	0		120	1.0	2.5	/experiments/knapen_AOT/AOT_stimuli/rescaled_final/0238_rv.mp4	0.0	73.73443508148193	1.0001578330993652
3	56.46674418449402	pulse	0	t		1.0	2.5	/experiments/knapen_AOT/AOT_stimuli/rescaled_final/0238_rv.mp4	0.0	74.31805610656738	
3	56.883280992507935	movie	1		243	1.0	2.5	/experiments/knapen_AOT/AOT_stimuli/rescaled_final/0238_rv.mp4	0.0	74.7345929145813	2.5005171298980713
3	58.06713318824768	pulse	1	t		1.0	2.5	/experiments/knapen_AOT/AOT_stimuli/rescaled_final/0238_rv.mp4	0.0	75.91844511032104	
3	59.383798122406006	fix_post	2		12	1.0	2.5	/experiments/knapen_AOT/AOT_stimuli/rescaled_final/0238_rv.mp4	0.0	77.23511004447937	0.09987902641296387
4	59.48367714881897	fix_pre	0		120	2.0	2.5	/experiments/knapen_AOT/AOT_stimuli/rescaled_final/0003_rv.mp4	0.0	77.33498907089233	1.000128984451294
4	59.667190074920654	pulse	0	t		2.0	2.5	/experiments/knapen_AOT/AOT_stimuli/rescaled_final/0003_rv.mp4	0.0	77.51850199699402	
4	60.483806133270264	movie	1		243	2.0	2.5	/experiments/knapen_AOT/AOT_stimuli/rescaled_final/0003_rv.mp4	0.0	78.33511805534363	2.500532865524292
4	61.26756405830383	pulse	1	t		2.0	2.5	/experiments/knapen_AOT/AOT_stimuli/rescaled_final/0003_rv.mp4	0.0	79.1188759803772	
4	62.86767315864563	pulse	1	t		2.0	2.5	/experiments/knapen_AOT/AOT_stimuli/rescaled_final/0003_rv.mp4	0.0	80.718985080719	
4	62.984338998794556	fix_post	2		12	2.0	2.5	/experiments/knapen_AOT/AOT_stimuli/rescaled_final/0003_rv.mp4	0.0	80.83565092086792	0.0999000072479248
5	63.08423900604248	fix_pre	0		120	3.0	2.5	/experiments/knapen_AOT/AOT_stimuli/rescaled_final/1456_fw.mp4	0.0	80.93555092811584	1.0001490116119385
5	64.08438801765442	movie	1		241	3.0	2.5	/experiments/knapen_AOT/AOT_stimuli/rescaled_final/1456_fw.mp4	0.0	81.93569993972778	2.492130994796753
5	64.46797204017639	pulse	1	t		3.0	2.5	/experiments/knapen_AOT/AOT_stimuli/rescaled_final/1456_fw.mp4	0.0	82.31928396224976	
5	66.06824707984924	pulse	1	t		3.0	2.5	/experiments/knapen_AOT/AOT_stimuli/rescaled_final/1456_fw.mp4	0.0	83.91955900192261	
5	66.57651901245117	fix_post	2		12	3.0	2.5	/experiments/knapen_AOT/AOT_stimuli/rescaled_final/1456_fw.mp4	0.0	84.42783093452454	0.09995818138122559
6	66.6764771938324	fix_pre	0		120	4.0	2.5	/experiments/knapen_AOT/AOT_stimuli/rescaled_final/1904_fw.mp4	0.0	84.52778911590576	1.0000998973846436
6	67.66851615905762	pulse	0	t		4.0	2.5	/experiments/knapen_AOT/AOT_stimuli/rescaled_final/1904_fw.mp4	0.0	85.51982808113098	
6	67.67657709121704	movie	1		243	4.0	2.5	/experiments/knapen_AOT/AOT_stimuli/rescaled_final/1904_fw.mp4	0.0	85.5278890132904	2.50874400138855
6	69.26967120170593	pulse	1	t		4.0	2.5	/experiments/knapen_AOT/AOT_stimuli/rescaled_final/1904_fw.mp4	0.0	87.1209831237793	
6	70.18532109260559	fix_post	2		12	4.0	2.5	/experiments/knapen_AOT/AOT_stimuli/rescaled_final/1904_fw.mp4	0.0	88.03663301467896	0.09999704360961914
7	70.28531813621521	fix_pre	0		120	5.0	2.5	blank	1.0	88.13663005828857	1.0001518726348877
7	70.86890506744385	pulse	0	t		5.0	2.5	blank	1.0	88.72021698951721	
7	71.2854700088501	movie	1		300	5.0	2.5	blank	1.0	89.13678193092346	2.50034499168396
7	72.46916508674622	pulse	1	t		5.0	2.5	blank	1.0	90.32047700881958	
7	73.78581500053406	fix_post	2		12	5.0	2.5	blank	1.0	91.63712692260742	0.10002803802490234
8	73.88584303855896	fix_pre	0		120	6.0	2.5	/experiments/knapen_AOT/AOT_stimuli/rescaled_final/0862_fw.mp4	0.0	91.73715496063232	1.0001490116119385
8	74.06938910484314	pulse	0	t		6.0	2.5	/experiments/knapen_AOT/AOT_stimuli/rescaled_final/0862_fw.mp4	0.0	91.9207010269165	
8	74.8859920501709	movie	1		242	6.0	2.5	/experiments/knapen_AOT/AOT_stimuli/rescaled_final/0862_fw.mp4	0.0	92.73730397224426	2.5005850791931152
8	75.66968107223511	pulse	1	t		6.0	2.5	/experiments/knapen_AOT/AOT_stimuli/rescaled_final/0862_fw.mp4	0.0	93.52099299430847	
8	77.26989603042603	pulse	1	t		6.0	2.5	/experiments/knapen_AOT/AOT_stimuli/rescaled_final/0862_fw.mp4	0.0	95.12120795249939	
8	77.38657712936401	fix_post	2		12	6.0	2.5	/experiments/knapen_AOT/AOT_stimuli/rescaled_final/0862_fw.mp4	0.0	95.23788905143738	0.09981489181518555
9	77.4863920211792	fix_pre	0		120	7.0	2.5	/experiments/knapen_AOT/AOT_stimuli/rescaled_final/1012_fw.mp4	0.0	95.33770394325256	1.0001280307769775
9	78.48652005195618	movie	1		241	7.0	2.5	/experiments/knapen_AOT/AOT_stimuli/rescaled_final/1012_fw.mp4	0.0	96.33783197402954	2.492115020751953
9	78.87074899673462	pulse	1	t		7.0	2.5	/experiments/knapen_AOT/AOT_stimuli/rescaled_final/1012_fw.mp4	0.0	96.72206091880798	
9	80.470468044281	pulse	1	t		7.0	2.5	/experiments/knapen_AOT/AOT_stimuli/rescaled_final/1012_fw.mp4	0.0	98.32177996635437	
9	80.97863507270813	fix_post	2		12	7.0	2.5	/experiments/knapen_AOT/AOT_stimuli/rescaled_final/1012_fw.mp4	0.0	98.8299469947815	0.09995412826538086
10	81.07858920097351	fix_pre	0		120	8.0	2.5	/experiments/knapen_AOT/AOT_stimuli/rescaled_final/1678_fw.mp4	0.0	98.92990112304688	1.0001468658447266
10	82.07066297531128	pulse	0	t		8.0	2.5	/experiments/knapen_AOT/AOT_stimuli/rescaled_final/1678_fw.mp4	0.0	99.92197489738464	
10	82.07873606681824	movie	1		243	8.0	2.5	/experiments/knapen_AOT/AOT_stimuli/rescaled_final/1678_fw.mp4	0.0	99.9300479888916	2.5087621212005615
10	83.67157697677612	pulse	1	t		8.0	2.5	/experiments/knapen_AOT/AOT_stimuli/rescaled_final/1678_fw.mp4	0.0	101.52288889884949	
10	84.5874981880188	fix_post	2		12	8.0	2.5	/experiments/knapen_AOT/AOT_stimuli/rescaled_final/1678_fw.mp4	0.0	102.43881011009216	0.09998583793640137
11	84.6874840259552	fix_pre	0		120	9.0	2.5	/experiments/knapen_AOT/AOT_stimuli/rescaled_final/0604_rv.mp4	0.0	102.53879594802856	1.000169038772583
11	85.27107810974121	pulse	0	t		9.0	2.5	/experiments/knapen_AOT/AOT_stimuli/rescaled_final/0604_rv.mp4	0.0	103.12239003181458	
11	85.68765306472778	movie	1		244	9.0	2.5	/experiments/knapen_AOT/AOT_stimuli/rescaled_final/0604_rv.mp4	0.0	103.53896498680115	2.5003349781036377
11	86.87133598327637	pulse	1	t		9.0	2.5	/experiments/knapen_AOT/AOT_stimuli/rescaled_final/0604_rv.mp4	0.0	104.72264790534973	
11	88.18798804283142	fix_post	2		12	9.0	2.5	/experiments/knapen_AOT/AOT_stimuli/rescaled_final/0604_rv.mp4	0.0	106.03929996490479	0.0999760627746582
12	88.28796410560608	fix_pre	0		120	10.0	2.5	/experiments/knapen_AOT/AOT_stimuli/rescaled_final/2019_rv.mp4	0.0	106.13927602767944	1.000169038772583
12	88.47161817550659	pulse	0	t		10.0	2.5	/experiments/knapen_AOT/AOT_stimuli/rescaled_final/2019_rv.mp4	0.0	106.32293009757996	
12	89.28813314437866	movie	1		241	10.0	2.5	/experiments/knapen_AOT/AOT_stimuli/rescaled_final/2019_rv.mp4	0.0	107.13944506645203	2.500393867492676
12	90.07184219360352	pulse	1	t		10.0	2.5	/experiments/knapen_AOT/AOT_stimuli/rescaled_final/2019_rv.mp4	0.0	107.92315411567688	
12	91.67223405838013	pulse	1	t		10.0	2.5	/experiments/knapen_AOT/AOT_stimuli/rescaled_final/2019_rv.mp4	0.0	109.52354598045349	
12	91.78852701187134	fix_post	2		12	10.0	2.5	/experiments/knapen_AOT/AOT_stimuli/rescaled_final/2019_rv.mp4	0.0	109.6398389339447	0.10004615783691406
13	91.88857316970825	fix_pre	0		120	11.0	2.5	/experiments/knapen_AOT/AOT_stimuli/rescaled_final/0994_fw.mp4	0.0	109.73988509178162	1.0001139640808105
13	92.88868713378906	movie	1		241	11.0	2.5	/experiments/knapen_AOT/AOT_stimuli/rescaled_final/0994_fw.mp4	0.0	110.73999905586243	2.4922280311584473
13	93.2729880809784	pulse	1	t		11.0	2.5	/experiments/knapen_AOT/AOT_stimuli/rescaled_final/0994_fw.mp4	0.0	111.12430000305176	
13	94.87258815765381	pulse	1	t		11.0	2.5	/experiments/knapen_AOT/AOT_stimuli/rescaled_final/0994_fw.mp4	0.0	112.72390007972717	
13	95.38091516494751	fix_post	2		12	11.0	2.5	/experiments/knapen_AOT/AOT_stimuli/rescaled_final/0994_fw.mp4	0.0	113.23222708702087	0.09982800483703613
14	95.48074316978455	fix_pre	0		120	12.0	2.5	/experiments/knapen_AOT/AOT_stimuli/rescaled_final/0527_rv.mp4	0.0	113.33205509185791	1.0001850128173828
14	96.472825050354	pulse	0	t		12.0	2.5	/experiments/knapen_AOT/AOT_stimuli/rescaled_final/0527_rv.mp4	0.0	114.32413697242737	
14	96.48092818260193	movie	1		243	12.0	2.5	/experiments/knapen_AOT/AOT_stimuli/rescaled_final/0527_rv.mp4	0.0	114.3322401046753	2.508754014968872
14	98.07374215126038	pulse	1	t		12.0	2.5	/experiments/knapen_AOT/AOT_stimuli/rescaled_final/0527_rv.mp4	0.0	115.92505407333374	
14	98.9896821975708	fix_post	2		12	12.0	2.5	/experiments/knapen_AOT/AOT_stimuli/rescaled_final/0527_rv.mp4	0.0	116.84099411964417	0.09992098808288574
15	99.08960318565369	fix_pre	0		120	13.0	2.5	blank	1.0	116.94091510772705	1.0001578330993652
15	99.67326712608337	pulse	0	t		13.0	2.5	blank	1.0	117.52457904815674	
15	100.08976101875305	movie	1		300	13.0	2.5	blank	1.0	117.94107294082642	2.5003859996795654
15	101.2735641002655	pulse	1	t		13.0	2.5	blank	1.0	119.12487602233887	
15	102.59014701843262	fix_post	2		12	13.0	2.5	blank	1.0	120.44145894050598	0.09998512268066406
16	102.69013214111328	fix_pre	0		120	14.0	2.5	/experiments/knapen_AOT/AOT_stimuli/rescaled_final/1933_fw.mp4	0.0	120.54144406318665	1.000143051147461
16	102.86627697944641	pulse	0	t		14.0	2.5	/experiments/knapen_AOT/AOT_stimuli/rescaled_final/1933_fw.mp4	0.0	120.71758890151978	
16	103.69027519226074	movie	1		243	14.0	2.5	/experiments/knapen_AOT/AOT_stimuli/rescaled_final/1933_fw.mp4	0.0	121.5415871143341	2.5006048679351807
16	104.46654415130615	pulse	1	t		14.0	2.5	/experiments/knapen_AOT/AOT_stimuli/rescaled_final/1933_fw.mp4	0.0	122.31785607337952	
16	106.07410216331482	pulse	1	t		14.0	2.5	/experiments/knapen_AOT/AOT_stimuli/rescaled_final/1933_fw.mp4	0.0	123.92541408538818	
16	106.19088006019592	fix_post	2		12	14.0	2.5	/experiments/knapen_AOT/AOT_stimuli/rescaled_final/1933_fw.mp4	0.0	124.04219198226929	0.0998220443725586
17	106.29070210456848	fix_pre	0		120	15.0	2.5	/experiments/knapen_AOT/AOT_stimuli/rescaled_final/2056_fw.mp4	0.0	124.14201402664185	1.0001111030578613
17	107.29081320762634	movie	1		241	15.0	2.5	/experiments/knapen_AOT/AOT_stimuli/rescaled_final/2056_fw.mp4	0.0	125.1421251296997	2.4921557903289795
17	107.67882919311523	pulse	1	t		15.0	2.5	/experiments/knapen_AOT/AOT_stimuli/rescaled_final/2056_fw.mp4	0.0	125.5301411151886	
17	109.26664519309998	pulse	1	t		15.0	2.5	/experiments/knapen_AOT/AOT_stimuli/rescaled_final/2056_fw.mp4	0.0	127.11795711517334	
17	109.78296899795532	fix_post	2		12	15.0	2.5	/experiments/knapen_AOT/AOT_stimuli/rescaled_final/2056_fw.mp4	0.0	127.63428092002869	0.09995007514953613
18	109.88291907310486	fix_pre	0		119	16.0	2.5	/experiments/knapen_AOT/AOT_stimuli/rescaled_final/0140_fw.mp4	0.0	127.73423099517822	0.9917750358581543
18	110.86661100387573	pulse	0	t		16.0	2.5	/experiments/knapen_AOT/AOT_stimuli/rescaled_final/0140_fw.mp4	0.0	128.7179229259491	
18	110.87469410896301	movie	1		244	16.0	2.5	/experiments/knapen_AOT/AOT_stimuli/rescaled_final/0140_fw.mp4	0.0	128.72600603103638	2.5087080001831055
18	112.46743297576904	pulse	1	t		16.0	2.5	/experiments/knapen_AOT/AOT_stimuli/rescaled_final/0140_fw.mp4	0.0	130.3187448978424	
18	113.38340210914612	fix_post	2		12	16.0	2.5	/experiments/knapen_AOT/AOT_stimuli/rescaled_final/0140_fw.mp4	0.0	131.23471403121948	0.10006093978881836
19	113.48346304893494	fix_pre	0		120	17.0	2.5	/experiments/knapen_AOT/AOT_stimuli/rescaled_final/1848_fw.mp4	0.0	131.3347749710083	1.0001389980316162
19	114.06704115867615	pulse	0	t		17.0	2.5	/experiments/knapen_AOT/AOT_stimuli/rescaled_final/1848_fw.mp4	0.0	131.9183530807495	
19	114.48360204696655	movie	1		242	17.0	2.5	/experiments/knapen_AOT/AOT_stimuli/rescaled_final/1848_fw.mp4	0.0	132.33491396903992	2.50057315826416
19	115.66732001304626	pulse	1	t		17.0	2.5	/experiments/knapen_AOT/AOT_stimuli/rescaled_final/1848_fw.mp4	0.0	133.51863193511963	
19	116.98417520523071	fix_post	2		12	17.0	2.5	/experiments/knapen_AOT/AOT_stimuli/rescaled_final/1848_fw.mp4	0.0	134.83548712730408	0.0998377799987793
20	117.08401298522949	fix_pre	0		120	18.0	2.5	/experiments/knapen_AOT/AOT_stimuli/rescaled_final/0231_fw.mp4	0.0	134.93532490730286	1.0000970363616943
20	117.26752519607544	pulse	0	t		18.0	2.5	/experiments/knapen_AOT/AOT_stimuli/rescaled_final/0231_fw.mp4	0.0	135.1188371181488	
20	118.08411002159119	movie	1		243	18.0	2.5	/experiments/knapen_AOT/AOT_stimuli/rescaled_final/0231_fw.mp4	0.0	135.93542194366455	2.500396966934204
20	118.86782312393188	pulse	1	t		18.0	2.5	/experiments/knapen_AOT/AOT_stimuli/rescaled_final/0231_fw.mp4	0.0	136.71913504600525	
20	120.46786713600159	pulse	1	t		18.0	2.5	/experiments/knapen_AOT/AOT_stimuli/rescaled_final/0231_fw.mp4	0.0	138.31917905807495	
20	120.58450698852539	fix_post	2		12	18.0	2.5	/experiments/knapen_AOT/AOT_stimuli/rescaled_final/0231_fw.mp4	0.0	138.43581891059875	0.09998512268066406
21	120.68449211120605	fix_pre	0		120	19.0	2.5	/experiments/knapen_AOT/AOT_stimuli/rescaled_final/1241_rv.mp4	0.0	138.53580403327942	1.0001468658447266
21	121.68463897705078	movie	1		242	19.0	2.5	/experiments/knapen_AOT/AOT_stimuli/rescaled_final/1241_rv.mp4	0.0	139.53595089912415	2.492263078689575
21	122.06952404975891	pulse	1	t		19.0	2.5	/experiments/knapen_AOT/AOT_stimuli/rescaled_final/1241_rv.mp4	0.0	139.92083597183228	
21	123.66849303245544	pulse	1	t		19.0	2.5	/experiments/knapen_AOT/AOT_stimuli/rescaled_final/1241_rv.mp4	0.0	141.5198049545288	
21	124.17690205574036	fix_post	2		12	19.0	2.5	/experiments/knapen_AOT/AOT_stimuli/rescaled_final/1241_rv.mp4	0.0	142.02821397781372	0.09980893135070801
22	124.27671098709106	fix_pre	0		120	20.0	2.5	/experiments/knapen_AOT/AOT_stimuli/rescaled_final/1599_rv.mp4	0.0	142.12802290916443	1.0001130104064941
22	125.2687680721283	pulse	0	t		20.0	2.5	/experiments/knapen_AOT/AOT_stimuli/rescaled_final/1599_rv.mp4	0.0	143.12007999420166	
22	125.27682399749756	movie	1		243	20.0	2.5	/experiments/knapen_AOT/AOT_stimuli/rescaled_final/1599_rv.mp4	0.0	143.12813591957092	2.5089261531829834
22	126.86949300765991	pulse	1	t		20.0	2.5	/experiments/knapen_AOT/AOT_stimuli/rescaled_final/1599_rv.mp4	0.0	144.72080492973328	
22	127.78575015068054	fix_post	2		12	20.0	2.5	/experiments/knapen_AOT/AOT_stimuli/rescaled_final/1599_rv.mp4	0.0	145.6370620727539	0.09981489181518555
23	127.88556504249573	fix_pre	0		120	21.0	2.5	blank	1.0	145.7368769645691	1.0001671314239502
23	128.46915411949158	pulse	0	t		21.0	2.5	blank	1.0	146.32046604156494	
23	128.88573217391968	movie	1		300	21.0	2.5	blank	1.0	146.73704409599304	2.5003838539123535
23	130.06937909126282	pulse	1	t		21.0	2.5	blank	1.0	147.92069101333618	
23	131.38611602783203	fix_post	2		12	21.0	2.5	blank	1.0	149.2374279499054	0.09999418258666992
24	131.4861102104187	fix_pre	0		120	22.0	2.5	/experiments/knapen_AOT/AOT_stimuli/rescaled_final/1789_fw.mp4	0.0	149.33742213249207	1.0001399517059326
24	131.66963815689087	pulse	0	t		22.0	2.5	/experiments/knapen_AOT/AOT_stimuli/rescaled_final/1789_fw.mp4	0.0	149.52095007896423	
24	132.48625016212463	movie	1		244	22.0	2.5	/experiments/knapen_AOT/AOT_stimuli/rescaled_final/1789_fw.mp4	0.0	150.337562084198	2.5003809928894043
24	133.27001118659973	pulse	1	t		22.0	2.5	/experiments/knapen_AOT/AOT_stimuli/rescaled_final/1789_fw.mp4	0.0	151.1213231086731	
24	134.8702690601349	pulse	1	t		22.0	2.5	/experiments/knapen_AOT/AOT_stimuli/rescaled_final/1789_fw.mp4	0.0	152.72158098220825	
24	134.98663115501404	fix_post	2		12	22.0	2.5	/experiments/knapen_AOT/AOT_stimuli/rescaled_final/1789_fw.mp4	0.0	152.8379430770874	0.10005784034729004
25	135.08668899536133	fix_pre	0		120	23.0	2.5	/experiments/knapen_AOT/AOT_stimuli/rescaled_final/1998_fw.mp4	0.0	152.9380009174347	1.000176191329956
25	136.08686518669128	movie	1		241	23.0	2.5	/experiments/knapen_AOT/AOT_stimuli/rescaled_final/1998_fw.mp4	0.0	153.93817710876465	2.492133855819702
25	136.47117805480957	pulse	1	t		23.0	2.5	/experiments/knapen_AOT/AOT_stimuli/rescaled_final/1998_fw.mp4	0.0	154.32248997688293	
25	138.070659160614	pulse	1	t		23.0	2.5	/experiments/knapen_AOT/AOT_stimuli/rescaled_final/1998_fw.mp4	0.0	155.92197108268738	
25	138.578999042511	fix_post	2		12	23.0	2.5	/experiments/knapen_AOT/AOT_stimuli/rescaled_final/1998_fw.mp4	0.0	156.43031096458435	0.0998990535736084
26	138.6788980960846	fix_pre	0		120	24.0	2.5	/experiments/knapen_AOT/AOT_stimuli/rescaled_final/1563_fw.mp4	0.0	156.53021001815796	1.0001258850097656
26	139.67088103294373	pulse	0	t		24.0	2.5	/experiments/knapen_AOT/AOT_stimuli/rescaled_final/1563_fw.mp4	0.0	157.5221929550171	
26	139.67902398109436	movie	1		244	24.0	2.5	/experiments/knapen_AOT/AOT_stimuli/rescaled_final/1563_fw.mp4	0.0	157.53033590316772	2.508754014968872
26	141.27172112464905	pulse	1	t		24.0	2.5	/experiments/knapen_AOT/AOT_stimuli/rescaled_final/1563_fw.mp4	0.0	159.1230330467224	
26	142.18777799606323	fix_post	2		12	24.0	2.5	/experiments/knapen_AOT/AOT_stimuli/rescaled_final/1563_fw.mp4	0.0	160.0390899181366	0.09998703002929688
27	142.28776502609253	fix_pre	0		120	25.0	2.5	/experiments/knapen_AOT/AOT_stimuli/rescaled_final/0784_fw.mp4	0.0	160.1390769481659	1.0001399517059326
27	142.87132620811462	pulse	0	t		25.0	2.5	/experiments/knapen_AOT/AOT_stimuli/rescaled_final/0784_fw.mp4	0.0	160.722638130188	
27	143.28790497779846	movie	1		243	25.0	2.5	/experiments/knapen_AOT/AOT_stimuli/rescaled_final/0784_fw.mp4	0.0	161.13921689987183	2.50045108795166
27	144.4717390537262	pulse	1	t		25.0	2.5	/experiments/knapen_AOT/AOT_stimuli/rescaled_final/0784_fw.mp4	0.0	162.32305097579956	
27	145.78835606575012	fix_post	2		12	25.0	2.5	/experiments/knapen_AOT/AOT_stimuli/rescaled_final/0784_fw.mp4	0.0	163.6396679878235	0.0999150276184082
28	145.88827109336853	fix_pre	0		120	26.0	2.5	/experiments/knapen_AOT/AOT_stimuli/rescaled_final/1166_fw.mp4	0.0	163.7395830154419	1.000169038772583
28	146.07177901268005	pulse	0	t		26.0	2.5	/experiments/knapen_AOT/AOT_stimuli/rescaled_final/1166_fw.mp4	0.0	163.92309093475342	
28	146.8884401321411	movie	1		243	26.0	2.5	/experiments/knapen_AOT/AOT_stimuli/rescaled_final/1166_fw.mp4	0.0	164.73975205421448	2.5005319118499756
28	147.67221403121948	pulse	1	t		26.0	2.5	/experiments/knapen_AOT/AOT_stimuli/rescaled_final/1166_fw.mp4	0.0	165.52352595329285	
28	149.27249312400818	pulse	1	t		26.0	2.5	/experiments/knapen_AOT/AOT_stimuli/rescaled_final/1166_fw.mp4	0.0	167.12380504608154	
28	149.3889720439911	fix_post	2		12	26.0	2.5	/experiments/knapen_AOT/AOT_stimuli/rescaled_final/1166_fw.mp4	0.0	167.24028396606445	0.09984898567199707
29	149.4888210296631	fix_pre	0		119	27.0	2.5	/experiments/knapen_AOT/AOT_stimuli/rescaled_final/0232_rv.mp4	0.0	167.34013295173645	0.9918210506439209
29	150.480642080307	movie	1		242	27.0	2.5	/experiments/knapen_AOT/AOT_stimuli/rescaled_final/0232_rv.mp4	0.0	168.33195400238037	2.5005369186401367
29	150.87266612052917	pulse	1	t		27.0	2.5	/experiments/knapen_AOT/AOT_stimuli/rescaled_final/0232_rv.mp4	0.0	168.72397804260254	
29	152.47285199165344	pulse	1	t		27.0	2.5	/experiments/knapen_AOT/AOT_stimuli/rescaled_final/0232_rv.mp4	0.0	170.3241639137268	
29	152.98117899894714	fix_post	2		10	27.0	2.5	/experiments/knapen_AOT/AOT_stimuli/rescaled_final/0232_rv.mp4	0.0	170.8324909210205	0.09983706474304199
30	153.08101606369019	fix_pre	0		120	28.0	2.5	blank	1.0	170.93232798576355	1.0001649856567383
30	154.0730140209198	pulse	0	t		28.0	2.5	blank	1.0	171.92432594299316	
30	154.08118104934692	movie	1		301	28.0	2.5	blank	1.0	171.9324929714203	2.5086920261383057
30	155.67323398590088	pulse	1	t		28.0	2.5	blank	1.0	173.52454590797424	
30	156.58987307548523	fix_post	2		12	28.0	2.5	blank	1.0	174.4411849975586	0.10001301765441895
31	156.68988609313965	fix_pre	0		120	29.0	2.5	/experiments/knapen_AOT/AOT_stimuli/rescaled_final/0826_rv.mp4	0.0	174.541198015213	1.0001420974731445
31	157.26606512069702	pulse	0	t		29.0	2.5	/experiments/knapen_AOT/AOT_stimuli/rescaled_final/0826_rv.mp4	0.0	175.11737704277039	
31	157.6900281906128	movie	1		243	29.0	2.5	/experiments/knapen_AOT/AOT_stimuli/rescaled_final/0826_rv.mp4	0.0	175.54134011268616	2.500588893890381
31	158.86676502227783	pulse	1	t		29.0	2.5	/experiments/knapen_AOT/AOT_stimuli/rescaled_final/0826_rv.mp4	0.0	176.7180769443512	
31	160.19061708450317	fix_post	2		12	29.0	2.5	/experiments/knapen_AOT/AOT_stimuli/rescaled_final/0826_rv.mp4	0.0	178.04192900657654	0.09984898567199707
32	160.29046607017517	fix_pre	0		120	30.0	2.5	/experiments/knapen_AOT/AOT_stimuli/rescaled_final/1425_rv.mp4	0.0	178.14177799224854	1.0001051425933838
32	160.46651220321655	pulse	0	t		30.0	2.5	/experiments/knapen_AOT/AOT_stimuli/rescaled_final/1425_rv.mp4	0.0	178.31782412528992	
32	161.29057121276855	movie	1		246	30.0	2.5	/experiments/knapen_AOT/AOT_stimuli/rescaled_final/1425_rv.mp4	0.0	179.14188313484192	2.5003907680511475
32	162.06680011749268	pulse	1	t		30.0	2.5	/experiments/knapen_AOT/AOT_stimuli/rescaled_final/1425_rv.mp4	0.0	179.91811203956604	
32	163.66622114181519	pulse	1	t		30.0	2.5	/experiments/knapen_AOT/AOT_stimuli/rescaled_final/1425_rv.mp4	0.0	181.51753306388855	
32	163.7909619808197	fix_post	2		12	30.0	2.5	/experiments/knapen_AOT/AOT_stimuli/rescaled_final/1425_rv.mp4	0.0	181.64227390289307	0.100006103515625
33	163.89096808433533	fix_pre	0		120	31.0	2.5	/experiments/knapen_AOT/AOT_stimuli/rescaled_final/1290_fw.mp4	0.0	181.7422800064087	1.000128984451294
33	164.89109706878662	movie	1		242	31.0	2.5	/experiments/knapen_AOT/AOT_stimuli/rescaled_final/1290_fw.mp4	0.0	182.74240899085999	2.4922540187835693
33	165.2663221359253	pulse	1	t		31.0	2.5	/experiments/knapen_AOT/AOT_stimuli/rescaled_final/1290_fw.mp4	0.0	183.11763405799866	
33	166.86664414405823	pulse	1	t		31.0	2.5	/experiments/knapen_AOT/AOT_stimuli/rescaled_final/1290_fw.mp4	0.0	184.7179560661316	
33	167.3833510875702	fix_post	2		12	31.0	2.5	/experiments/knapen_AOT/AOT_stimuli/rescaled_final/1290_fw.mp4	0.0	185.23466300964355	0.0998380184173584
34	167.48318910598755	fix_pre	0		119	32.0	2.5	/experiments/knapen_AOT/AOT_stimuli/rescaled_final/1000_fw.mp4	0.0	185.3345010280609	0.9918138980865479
34	168.46691298484802	pulse	0	t		32.0	2.5	/experiments/knapen_AOT/AOT_stimuli/rescaled_final/1000_fw.mp4	0.0	186.3182249069214	
34	168.4750030040741	movie	1		244	32.0	2.5	/experiments/knapen_AOT/AOT_stimuli/rescaled_final/1000_fw.mp4	0.0	186.32631492614746	2.5087740421295166
34	170.06795120239258	pulse	1	t		32.0	2.5	/experiments/knapen_AOT/AOT_stimuli/rescaled_final/1000_fw.mp4	0.0	187.91926312446594	
34	170.9837770462036	fix_post	2		12	32.0	2.5	/experiments/knapen_AOT/AOT_stimuli/rescaled_final/1000_fw.mp4	0.0	188.83508896827698	0.09997105598449707
35	171.0837481021881	fix_pre	0		120	33.0	2.5	blank	1.0	188.93506002426147	1.0001130104064941
35	171.66736602783203	pulse	0	t		33.0	2.5	blank	1.0	189.5186779499054	
35	172.0838611125946	movie	1		300	33.0	2.5	blank	1.0	189.93517303466797	2.5004348754882812
35	173.26755118370056	pulse	1	t		33.0	2.5	blank	1.0	191.11886310577393	
35	174.58429598808289	fix_post	2		12	33.0	2.5	blank	1.0	192.43560791015625	0.09995007514953613
36	174.68424606323242	fix_pre	0		120	34.0	2.5	/experiments/knapen_AOT/AOT_stimuli/rescaled_final/1878_fw.mp4	0.0	192.5355579853058	1.0001790523529053
36	174.86773419380188	pulse	0	t		34.0	2.5	/experiments/knapen_AOT/AOT_stimuli/rescaled_final/1878_fw.mp4	0.0	192.71904611587524	
36	175.68442511558533	movie	1		244	34.0	2.5	/experiments/knapen_AOT/AOT_stimuli/rescaled_final/1878_fw.mp4	0.0	193.5357370376587	2.500359058380127
36	176.46811199188232	pulse	1	t		34.0	2.5	/experiments/knapen_AOT/AOT_stimuli/rescaled_final/1878_fw.mp4	0.0	194.3194239139557	
36	178.0684289932251	pulse	1	t		34.0	2.5	/experiments/knapen_AOT/AOT_stimuli/rescaled_final/1878_fw.mp4	0.0	195.91974091529846	
36	178.18478417396545	fix_post	2		12	34.0	2.5	/experiments/knapen_AOT/AOT_stimuli/rescaled_final/1878_fw.mp4	0.0	196.03609609603882	0.0999898910522461
37	178.2847740650177	fix_pre	0		120	35.0	2.5	/experiments/knapen_AOT/AOT_stimuli/rescaled_final/1326_fw.mp4	0.0	196.13608598709106	1.0001740455627441
37	179.28494811058044	movie	1		241	35.0	2.5	/experiments/knapen_AOT/AOT_stimuli/rescaled_final/1326_fw.mp4	0.0	197.1362600326538	2.492095947265625
37	179.66919016838074	pulse	1	t		35.0	2.5	/experiments/knapen_AOT/AOT_stimuli/rescaled_final/1326_fw.mp4	0.0	197.5205020904541	
37	181.26878118515015	pulse	1	t		35.0	2.5	/experiments/knapen_AOT/AOT_stimuli/rescaled_final/1326_fw.mp4	0.0	199.1200931072235	
37	181.77704405784607	fix_post	2		12	35.0	2.5	/experiments/knapen_AOT/AOT_stimuli/rescaled_final/1326_fw.mp4	0.0	199.62835597991943	0.0999610424041748
38	181.87700510025024	fix_pre	0		120	36.0	2.5	/experiments/knapen_AOT/AOT_stimuli/rescaled_final/1543_rv.mp4	0.0	199.7283170223236	1.0001349449157715
38	182.86903715133667	pulse	0	t		36.0	2.5	/experiments/knapen_AOT/AOT_stimuli/rescaled_final/1543_rv.mp4	0.0	200.72034907341003	
38	182.87714004516602	movie	1		243	36.0	2.5	/experiments/knapen_AOT/AOT_stimuli/rescaled_final/1543_rv.mp4	0.0	200.72845196723938	2.5087881088256836
38	184.4698669910431	pulse	1	t		36.0	2.5	/experiments/knapen_AOT/AOT_stimuli/rescaled_final/1543_rv.mp4	0.0	202.32117891311646	
38	185.3859281539917	fix_post	2		12	36.0	2.5	/experiments/knapen_AOT/AOT_stimuli/rescaled_final/1543_rv.mp4	0.0	203.23724007606506	0.09995293617248535
39	185.48588109016418	fix_pre	0		120	37.0	2.5	/experiments/knapen_AOT/AOT_stimuli/rescaled_final/0358_fw.mp4	0.0	203.33719301223755	1.000135898590088
39	186.06956315040588	pulse	0	t		37.0	2.5	/experiments/knapen_AOT/AOT_stimuli/rescaled_final/0358_fw.mp4	0.0	203.92087507247925	
39	186.48601698875427	movie	1		243	37.0	2.5	/experiments/knapen_AOT/AOT_stimuli/rescaled_final/0358_fw.mp4	0.0	204.33732891082764	2.500580072402954
39	187.66987013816833	pulse	1	t		37.0	2.5	/experiments/knapen_AOT/AOT_stimuli/rescaled_final/0358_fw.mp4	0.0	205.5211820602417	
39	188.98659706115723	fix_post	2		12	37.0	2.5	/experiments/knapen_AOT/AOT_stimuli/rescaled_final/0358_fw.mp4	0.0	206.8379089832306	0.0998220443725586
40	189.08641910552979	fix_pre	0		120	38.0	2.5	/experiments/knapen_AOT/AOT_stimuli/rescaled_final/0398_rv.mp4	0.0	206.93773102760315	1.000133991241455
40	189.269935131073	pulse	0	t		38.0	2.5	/experiments/knapen_AOT/AOT_stimuli/rescaled_final/0398_rv.mp4	0.0	207.12124705314636	
40	190.08655309677124	movie	1		243	38.0	2.5	/experiments/knapen_AOT/AOT_stimuli/rescaled_final/0398_rv.mp4	0.0	207.9378650188446	2.5005569458007812
40	190.87022709846497	pulse	1	t		38.0	2.5	/experiments/knapen_AOT/AOT_stimuli/rescaled_final/0398_rv.mp4	0.0	208.72153902053833	
40	192.47035813331604	pulse	1	t		38.0	2.5	/experiments/knapen_AOT/AOT_stimuli/rescaled_final/0398_rv.mp4	0.0	210.3216700553894	
40	192.58711004257202	fix_post	2		12	38.0	2.5	/experiments/knapen_AOT/AOT_stimuli/rescaled_final/0398_rv.mp4	0.0	210.43842196464539	0.0998389720916748
41	192.6869490146637	fix_pre	0		120	39.0	2.5	/experiments/knapen_AOT/AOT_stimuli/rescaled_final/1637_rv.mp4	0.0	210.53826093673706	1.0001270771026611
41	193.68707609176636	movie	1		242	39.0	2.5	/experiments/knapen_AOT/AOT_stimuli/rescaled_final/1637_rv.mp4	0.0	211.53838801383972	2.4920499324798584
41	194.0752170085907	pulse	1	t		39.0	2.5	/experiments/knapen_AOT/AOT_stimuli/rescaled_final/1637_rv.mp4	0.0	211.92652893066406	
41	195.67100310325623	pulse	1	t		39.0	2.5	/experiments/knapen_AOT/AOT_stimuli/rescaled_final/1637_rv.mp4	0.0	213.5223150253296	
41	196.17912602424622	fix_post	2		12	39.0	2.5	/experiments/knapen_AOT/AOT_stimuli/rescaled_final/1637_rv.mp4	0.0	214.03043794631958	0.10000109672546387
42	196.27912712097168	fix_pre	0		120	40.0	2.5	/experiments/knapen_AOT/AOT_stimuli/rescaled_final/0532_rv.mp4	0.0	214.13043904304504	1.0002338886260986
42	197.27124905586243	pulse	0	t		40.0	2.5	/experiments/knapen_AOT/AOT_stimuli/rescaled_final/0532_rv.mp4	0.0	215.1225609779358	
42	197.27936100959778	movie	1		245	40.0	2.5	/experiments/knapen_AOT/AOT_stimuli/rescaled_final/0532_rv.mp4	0.0	215.13067293167114	2.5086112022399902
42	198.87208008766174	pulse	1	t		40.0	2.5	/experiments/knapen_AOT/AOT_stimuli/rescaled_final/0532_rv.mp4	0.0	216.7233920097351	
42	199.78797221183777	fix_post	2		12	40.0	2.5	/experiments/knapen_AOT/AOT_stimuli/rescaled_final/0532_rv.mp4	0.0	217.63928413391113	0.10002589225769043
43	199.88799810409546	fix_pre	0		120	41.0	2.5	/experiments/knapen_AOT/AOT_stimuli/rescaled_final/1459_rv.mp4	0.0	217.73931002616882	1.000154972076416
43	200.47168517112732	pulse	0	t		41.0	2.5	/experiments/knapen_AOT/AOT_stimuli/rescaled_final/1459_rv.mp4	0.0	218.32299709320068	
43	200.88815307617188	movie	1		243	41.0	2.5	/experiments/knapen_AOT/AOT_stimuli/rescaled_final/1459_rv.mp4	0.0	218.73946499824524	2.5005741119384766
43	202.07201313972473	pulse	1	t		41.0	2.5	/experiments/knapen_AOT/AOT_stimuli/rescaled_final/1459_rv.mp4	0.0	219.9233250617981	
43	203.38872718811035	fix_post	2		12	41.0	2.5	/experiments/knapen_AOT/AOT_stimuli/rescaled_final/1459_rv.mp4	0.0	221.24003911018372	0.09983181953430176
44	203.48855900764465	fix_pre	0		120	42.0	2.5	blank	1.0	221.33987092971802	1.0001490116119385
44	203.67219805717468	pulse	0	t		42.0	2.5	blank	1.0	221.52350997924805	
44	204.4887080192566	movie	1		300	42.0	2.5	blank	1.0	222.34001994132996	2.5003671646118164
44	205.2724301815033	pulse	1	t		42.0	2.5	blank	1.0	223.12374210357666	
44	206.87263798713684	pulse	1	t		42.0	2.5	blank	1.0	224.7239499092102	
44	206.9890751838684	fix_post	2		12	42.0	2.5	blank	1.0	224.84038710594177	0.10001802444458008
45	207.089093208313	fix_pre	0		120	43.0	2.5	/experiments/knapen_AOT/AOT_stimuli/rescaled_final/0493_rv.mp4	0.0	224.94040513038635	1.0001327991485596
45	208.08922600746155	movie	1		241	43.0	2.5	/experiments/knapen_AOT/AOT_stimuli/rescaled_final/0493_rv.mp4	0.0	225.9405379295349	2.4921720027923584
45	208.47729110717773	pulse	1	t		43.0	2.5	/experiments/knapen_AOT/AOT_stimuli/rescaled_final/0493_rv.mp4	0.0	226.3286030292511	
45	210.07314205169678	pulse	1	t		43.0	2.5	/experiments/knapen_AOT/AOT_stimuli/rescaled_final/0493_rv.mp4	0.0	227.92445397377014	
45	210.5813980102539	fix_post	2		12	43.0	2.5	/experiments/knapen_AOT/AOT_stimuli/rescaled_final/0493_rv.mp4	0.0	228.43270993232727	0.09990310668945312
46	210.68130111694336	fix_pre	0		120	44.0	2.5	/experiments/knapen_AOT/AOT_stimuli/rescaled_final/1649_fw.mp4	0.0	228.53261303901672	1.0001680850982666
46	211.67325401306152	pulse	0	t		44.0	2.5	/experiments/knapen_AOT/AOT_stimuli/rescaled_final/1649_fw.mp4	0.0	229.5245659351349	
46	211.68146920204163	movie	1		244	44.0	2.5	/experiments/knapen_AOT/AOT_stimuli/rescaled_final/1649_fw.mp4	0.0	229.532781124115	2.508739948272705
46	213.27485299110413	pulse	1	t		44.0	2.5	/experiments/knapen_AOT/AOT_stimuli/rescaled_final/1649_fw.mp4	0.0	231.1261649131775	
46	214.19020915031433	fix_post	2		12	44.0	2.5	/experiments/knapen_AOT/AOT_stimuli/rescaled_final/1649_fw.mp4	0.0	232.0415210723877	0.0999460220336914
47	214.29015517234802	fix_pre	0		118	45.0	2.5	/experiments/knapen_AOT/AOT_stimuli/rescaled_final/1028_fw.mp4	0.0	232.1414670944214	1.0002338886260986
47	214.87375807762146	pulse	0	t		45.0	2.5	/experiments/knapen_AOT/AOT_stimuli/rescaled_final/1028_fw.mp4	0.0	232.72506999969482	
47	215.29038906097412	movie	1		246	45.0	2.5	/experiments/knapen_AOT/AOT_stimuli/rescaled_final/1028_fw.mp4	0.0	233.14170098304749	2.500309944152832
47	216.4740982055664	pulse	1	t		45.0	2.5	/experiments/knapen_AOT/AOT_stimuli/rescaled_final/1028_fw.mp4	0.0	234.32541012763977	
47	217.79069900512695	fix_post	2		12	45.0	2.5	/experiments/knapen_AOT/AOT_stimuli/rescaled_final/1028_fw.mp4	0.0	235.64201092720032	0.10000300407409668
48	217.89070200920105	fix_pre	0		120	46.0	2.5	/experiments/knapen_AOT/AOT_stimuli/rescaled_final/1814_rv.mp4	0.0	235.7420139312744	1.0001540184020996
48	218.06678104400635	pulse	0	t		46.0	2.5	/experiments/knapen_AOT/AOT_stimuli/rescaled_final/1814_rv.mp4	0.0	235.9180929660797	
48	218.89085602760315	movie	1		242	46.0	2.5	/experiments/knapen_AOT/AOT_stimuli/rescaled_final/1814_rv.mp4	0.0	236.7421679496765	2.492269992828369
48	219.66709899902344	pulse	1	t		46.0	2.5	/experiments/knapen_AOT/AOT_stimuli/rescaled_final/1814_rv.mp4	0.0	237.5184109210968	
48	221.27466702461243	pulse	1	t		46.0	2.5	/experiments/knapen_AOT/AOT_stimuli/rescaled_final/1814_rv.mp4	0.0	239.1259789466858	
48	221.38312602043152	fix_post	2		13	46.0	2.5	/experiments/knapen_AOT/AOT_stimuli/rescaled_final/1814_rv.mp4	0.0	239.23443794250488	0.1081380844116211
49	221.49126410484314	fix_pre	0		119	47.0	2.5	/experiments/knapen_AOT/AOT_stimuli/rescaled_final/1318_rv.mp4	0.0	239.3425760269165	0.9917728900909424
49	222.48303699493408	movie	1		242	47.0	2.5	/experiments/knapen_AOT/AOT_stimuli/rescaled_final/1318_rv.mp4	0.0	240.33434891700745	2.5005781650543213
49	222.86724710464478	pulse	1	t		47.0	2.5	/experiments/knapen_AOT/AOT_stimuli/rescaled_final/1318_rv.mp4	0.0	240.71855902671814	
49	224.46697521209717	pulse	1	t		47.0	2.5	/experiments/knapen_AOT/AOT_stimuli/rescaled_final/1318_rv.mp4	0.0	242.31828713417053	
49	224.9836151599884	fix_post	2		12	47.0	2.5	/experiments/knapen_AOT/AOT_stimuli/rescaled_final/1318_rv.mp4	0.0	242.83492708206177	0.09982085227966309
50	225.08343601226807	fix_pre	0		119	48.0	2.5	blank	1.0	242.93474793434143	0.9918169975280762
50	226.06710004806519	pulse	0	t		48.0	2.5	blank	1.0	243.91841197013855	
50	226.07525300979614	movie	1		301	48.0	2.5	blank	1.0	243.9265649318695	2.508733034133911
50	227.66730999946594	pulse	1	t		48.0	2.5	blank	1.0	245.5186219215393	
50	228.58398604393005	fix_post	2		12	48.0	2.5	blank	1.0	246.43529796600342	0.09997105598449707
51	228.68395709991455	fix_pre	0		120	49.0	2.5	/experiments/knapen_AOT/AOT_stimuli/rescaled_final/2090_fw.mp4	0.0	246.53526902198792	1.0002319812774658
51	229.26756501197815	pulse	0	t		49.0	2.5	/experiments/knapen_AOT/AOT_stimuli/rescaled_final/2090_fw.mp4	0.0	247.1188769340515	
51	229.68418908119202	movie	1		243	49.0	2.5	/experiments/knapen_AOT/AOT_stimuli/rescaled_final/2090_fw.mp4	0.0	247.53550100326538	2.5003631114959717
51	230.867928981781	pulse	1	t		49.0	2.5	/experiments/knapen_AOT/AOT_stimuli/rescaled_final/2090_fw.mp4	0.0	248.71924090385437	
51	232.184552192688	fix_post	2		12	49.0	2.5	/experiments/knapen_AOT/AOT_stimuli/rescaled_final/2090_fw.mp4	0.0	250.03586411476135	0.09995293617248535
52	232.28450512886047	fix_pre	0		120	50.0	2.5	/experiments/knapen_AOT/AOT_stimuli/rescaled_final/2011_rv.mp4	0.0	250.13581705093384	1.0001568794250488
52	232.46810507774353	pulse	0	t		50.0	2.5	/experiments/knapen_AOT/AOT_stimuli/rescaled_final/2011_rv.mp4	0.0	250.3194169998169	
52	233.28466200828552	movie	1		244	50.0	2.5	/experiments/knapen_AOT/AOT_stimuli/rescaled_final/2011_rv.mp4	0.0	251.1359739303589	2.500364065170288
52	234.0683012008667	pulse	1	t		50.0	2.5	/experiments/knapen_AOT/AOT_stimuli/rescaled_final/2011_rv.mp4	0.0	251.91961312294006	
52	235.66867399215698	pulse	1	t		50.0	2.5	/experiments/knapen_AOT/AOT_stimuli/rescaled_final/2011_rv.mp4	0.0	253.51998591423035	
52	235.7850260734558	fix_post	2		12	50.0	2.5	/experiments/knapen_AOT/AOT_stimuli/rescaled_final/2011_rv.mp4	0.0	253.63633799552917	0.10006308555603027
53	235.88508915901184	fix_pre	0		120	51.0	2.5	/experiments/knapen_AOT/AOT_stimuli/rescaled_final/1694_fw.mp4	0.0	253.7364010810852	1.0001049041748047
53	236.88519406318665	movie	1		241	51.0	2.5	/experiments/knapen_AOT/AOT_stimuli/rescaled_final/1694_fw.mp4	0.0	254.73650598526	2.492138147354126
53	237.26944518089294	pulse	1	t		51.0	2.5	/experiments/knapen_AOT/AOT_stimuli/rescaled_final/1694_fw.mp4	0.0	255.1207571029663	
53	238.8691051006317	pulse	1	t		51.0	2.5	/experiments/knapen_AOT/AOT_stimuli/rescaled_final/1694_fw.mp4	0.0	256.7204170227051	
53	239.37733221054077	fix_post	2		12	51.0	2.5	/experiments/knapen_AOT/AOT_stimuli/rescaled_final/1694_fw.mp4	0.0	257.22864413261414	0.09995388984680176
54	239.47728610038757	fix_pre	0		120	52.0	2.5	/experiments/knapen_AOT/AOT_stimuli/rescaled_final/0826_fw.mp4	0.0	257.32859802246094	1.0001459121704102
54	240.46923208236694	pulse	0	t		52.0	2.5	/experiments/knapen_AOT/AOT_stimuli/rescaled_final/0826_fw.mp4	0.0	258.3205440044403	
54	240.47743201255798	movie	1		244	52.0	2.5	/experiments/knapen_AOT/AOT_stimuli/rescaled_final/0826_fw.mp4	0.0	258.32874393463135	2.5087790489196777
54	242.07356905937195	pulse	1	t		52.0	2.5	/experiments/knapen_AOT/AOT_stimuli/rescaled_final/0826_fw.mp4	0.0	259.9248809814453	
54	242.98621106147766	fix_post	2		12	52.0	2.5	/experiments/knapen_AOT/AOT_stimuli/rescaled_final/0826_fw.mp4	0.0	260.837522983551	0.0999290943145752
55	243.08614015579224	fix_pre	0		120	53.0	2.5	/experiments/knapen_AOT/AOT_stimuli/rescaled_final/2011_fw.mp4	0.0	260.9374520778656	1.0001640319824219
55	243.66975903511047	pulse	0	t		53.0	2.5	/experiments/knapen_AOT/AOT_stimuli/rescaled_final/2011_fw.mp4	0.0	261.52107095718384	
55	244.08630418777466	movie	1		244	53.0	2.5	/experiments/knapen_AOT/AOT_stimuli/rescaled_final/2011_fw.mp4	0.0	261.937616109848	2.500365972518921
55	245.27013611793518	pulse	1	t		53.0	2.5	/experiments/knapen_AOT/AOT_stimuli/rescaled_final/2011_fw.mp4	0.0	263.12144804000854	
55	246.58667016029358	fix_post	2		12	53.0	2.5	/experiments/knapen_AOT/AOT_stimuli/rescaled_final/2011_fw.mp4	0.0	264.43798208236694	0.10001587867736816
56	246.68668603897095	fix_pre	0		120	54.0	2.5	/experiments/knapen_AOT/AOT_stimuli/rescaled_final/0991_fw.mp4	0.0	264.5379979610443	1.0001740455627441
56	246.87027406692505	pulse	0	t		54.0	2.5	/experiments/knapen_AOT/AOT_stimuli/rescaled_final/0991_fw.mp4	0.0	264.7215859889984	
56	247.6868600845337	movie	1		242	54.0	2.5	/experiments/knapen_AOT/AOT_stimuli/rescaled_final/0991_fw.mp4	0.0	265.53817200660706	2.500617027282715
56	248.47056818008423	pulse	1	t		54.0	2.5	/experiments/knapen_AOT/AOT_stimuli/rescaled_final/0991_fw.mp4	0.0	266.3218801021576	
56	250.0705771446228	pulse	1	t		54.0	2.5	/experiments/knapen_AOT/AOT_stimuli/rescaled_final/0991_fw.mp4	0.0	267.92188906669617	
56	250.1874771118164	fix_post	2		12	54.0	2.5	/experiments/knapen_AOT/AOT_stimuli/rescaled_final/0991_fw.mp4	0.0	268.03878903388977	0.0997769832611084
57	250.28725409507751	fix_pre	0		120	55.0	2.5	blank	1.0	268.1385660171509	1.0001211166381836
57	251.2873752117157	movie	1		299	55.0	2.5	blank	1.0	269.13868713378906	2.492055892944336
57	251.6709589958191	pulse	1	t		55.0	2.5	blank	1.0	269.52227091789246	
57	253.27112102508545	pulse	1	t		55.0	2.5	blank	1.0	271.1224329471588	
57	253.77943110466003	fix_post	2		12	55.0	2.5	blank	1.0	271.6307430267334	0.10006308555603027
58	253.87949419021606	fix_pre	0		120	56.0	2.5	/experiments/knapen_AOT/AOT_stimuli/rescaled_final/0358_fw.mp4	0.0	271.73080611228943	1.0000879764556885
58	254.87152314186096	pulse	0	t		56.0	2.5	/experiments/knapen_AOT/AOT_stimuli/rescaled_final/0358_fw.mp4	0.0	272.7228350639343	
58	254.87958216667175	movie	1		244	56.0	2.5	/experiments/knapen_AOT/AOT_stimuli/rescaled_final/0358_fw.mp4	0.0	272.7308940887451	2.508704900741577
58	256.472913980484	pulse	1	t		56.0	2.5	/experiments/knapen_AOT/AOT_stimuli/rescaled_final/0358_fw.mp4	0.0	274.3242259025574	
58	257.38828706741333	fix_post	2		12	56.0	2.5	/experiments/knapen_AOT/AOT_stimuli/rescaled_final/0358_fw.mp4	0.0	275.2395989894867	0.10005402565002441
59	257.48834109306335	fix_pre	0		120	57.0	2.5	/experiments/knapen_AOT/AOT_stimuli/rescaled_final/0578_rv.mp4	0.0	275.3396530151367	1.0001280307769775
59	258.072026014328	pulse	0	t		57.0	2.5	/experiments/knapen_AOT/AOT_stimuli/rescaled_final/0578_rv.mp4	0.0	275.92333793640137	
59	258.48846912384033	movie	1		242	57.0	2.5	/experiments/knapen_AOT/AOT_stimuli/rescaled_final/0578_rv.mp4	0.0	276.3397810459137	2.500372886657715
59	259.6722722053528	pulse	1	t		57.0	2.5	/experiments/knapen_AOT/AOT_stimuli/rescaled_final/0578_rv.mp4	0.0	277.52358412742615	
59	260.98884201049805	fix_post	2		12	57.0	2.5	/experiments/knapen_AOT/AOT_stimuli/rescaled_final/0578_rv.mp4	0.0	278.8401539325714	0.10001516342163086
60	261.0888571739197	fix_pre	0		120	58.0	2.5	/experiments/knapen_AOT/AOT_stimuli/rescaled_final/1153_fw.mp4	0.0	278.94016909599304	1.0001180171966553
60	261.2723731994629	pulse	0	t		58.0	2.5	/experiments/knapen_AOT/AOT_stimuli/rescaled_final/1153_fw.mp4	0.0	279.12368512153625	
60	262.08897519111633	movie	1		243	58.0	2.5	/experiments/knapen_AOT/AOT_stimuli/rescaled_final/1153_fw.mp4	0.0	279.9402871131897	2.5005908012390137
60	262.8726770877838	pulse	1	t		58.0	2.5	/experiments/knapen_AOT/AOT_stimuli/rescaled_final/1153_fw.mp4	0.0	280.7239890098572	
60	264.47331619262695	pulse	1	t		58.0	2.5	/experiments/knapen_AOT/AOT_stimuli/rescaled_final/1153_fw.mp4	0.0	282.3246281147003	
60	264.58956599235535	fix_post	2		12	58.0	2.5	/experiments/knapen_AOT/AOT_stimuli/rescaled_final/1153_fw.mp4	0.0	282.4408779144287	0.0998220443725586
61	264.6893880367279	fix_pre	0		120	59.0	2.5	/experiments/knapen_AOT/AOT_stimuli/rescaled_final/0406_rv.mp4	0.0	282.54069995880127	1.0001730918884277
61	265.68956112861633	movie	1		242	59.0	2.5	/experiments/knapen_AOT/AOT_stimuli/rescaled_final/0406_rv.mp4	0.0	283.5408730506897	2.492249011993408
61	266.0737659931183	pulse	1	t		59.0	2.5	/experiments/knapen_AOT/AOT_stimuli/rescaled_final/0406_rv.mp4	0.0	283.92507791519165	
61	267.673406124115	pulse	1	t		59.0	2.5	/experiments/knapen_AOT/AOT_stimuli/rescaled_final/0406_rv.mp4	0.0	285.52471804618835	
61	268.18181014060974	fix_post	2		12	59.0	2.5	/experiments/knapen_AOT/AOT_stimuli/rescaled_final/0406_rv.mp4	0.0	286.0331220626831	0.09976792335510254
62	268.28157806396484	fix_pre	0		120	60.0	2.5	/experiments/knapen_AOT/AOT_stimuli/rescaled_final/0717_rv.mp4	0.0	286.1328899860382	1.0001411437988281
62	269.27364015579224	pulse	0	t		60.0	2.5	/experiments/knapen_AOT/AOT_stimuli/rescaled_final/0717_rv.mp4	0.0	287.1249520778656	
62	269.2817192077637	movie	1		245	60.0	2.5	/experiments/knapen_AOT/AOT_stimuli/rescaled_final/0717_rv.mp4	0.0	287.13303112983704	2.508701801300049
62	270.875107049942	pulse	1	t		60.0	2.5	/experiments/knapen_AOT/AOT_stimuli/rescaled_final/0717_rv.mp4	0.0	288.7264189720154	
62	271.7904210090637	fix_post	2		12	60.0	2.5	/experiments/knapen_AOT/AOT_stimuli/rescaled_final/0717_rv.mp4	0.0	289.6417329311371	0.10002899169921875
63	271.89045000076294	fix_pre	0		120	61.0	2.5	/experiments/knapen_AOT/AOT_stimuli/rescaled_final/1318_fw.mp4	0.0	289.7417619228363	1.0001490116119385
63	272.46667218208313	pulse	0	t		61.0	2.5	/experiments/knapen_AOT/AOT_stimuli/rescaled_final/1318_fw.mp4	0.0	290.3179841041565	
63	272.8905990123749	movie	1		242	61.0	2.5	/experiments/knapen_AOT/AOT_stimuli/rescaled_final/1318_fw.mp4	0.0	290.74191093444824	2.500491142272949
63	274.07067012786865	pulse	1	t		61.0	2.5	/experiments/knapen_AOT/AOT_stimuli/rescaled_final/1318_fw.mp4	0.0	291.921982049942	
63	275.3910901546478	fix_post	2		12	61.0	2.5	/experiments/knapen_AOT/AOT_stimuli/rescaled_final/1318_fw.mp4	0.0	293.2424020767212	0.09989500045776367
64	275.4909851551056	fix_pre	0		120	62.0	2.5	/experiments/knapen_AOT/AOT_stimuli/rescaled_final/1344_rv.mp4	0.0	293.34229707717896	1.000148057937622
64	275.6670241355896	pulse	0	t		62.0	2.5	/experiments/knapen_AOT/AOT_stimuli/rescaled_final/1344_rv.mp4	0.0	293.51833605766296	
64	276.4911332130432	movie	1		238	62.0	2.5	/experiments/knapen_AOT/AOT_stimuli/rescaled_final/1344_rv.mp4	0.0	294.3424451351166	2.500600814819336
64	277.26651310920715	pulse	1	t		62.0	2.5	/experiments/knapen_AOT/AOT_stimuli/rescaled_final/1344_rv.mp4	0.0	295.1178250312805	
64	278.86666917800903	pulse	1	t		62.0	2.5	/experiments/knapen_AOT/AOT_stimuli/rescaled_final/1344_rv.mp4	0.0	296.7179811000824	
64	278.99173402786255	fix_post	2		12	62.0	2.5	/experiments/knapen_AOT/AOT_stimuli/rescaled_final/1344_rv.mp4	0.0	296.8430459499359	0.09979796409606934
65	279.0915319919586	fix_pre	0		120	63.0	2.5	blank	1.0	296.942843914032	1.0001552104949951
65	280.0916872024536	movie	1		300	63.0	2.5	blank	1.0	297.942999124527	2.5003538131713867
65	280.46688199043274	pulse	1	t		63.0	2.5	blank	1.0	298.3181939125061	
65	282.0671241283417	pulse	1	t		63.0	2.5	blank	1.0	299.91843605041504	
65	282.592041015625	fix_post	2		12	63.0	2.5	blank	1.0	300.44335293769836	0.10001111030578613
66	282.6920521259308	fix_pre	0		118	64.0	2.5	/experiments/knapen_AOT/AOT_stimuli/rescaled_final/0862_rv.mp4	0.0	300.54336404800415	0.9835178852081299
66	283.66733407974243	pulse	0	t		64.0	2.5	/experiments/knapen_AOT/AOT_stimuli/rescaled_final/0862_rv.mp4	0.0	301.5186460018158	
66	283.6755700111389	movie	1		243	64.0	2.5	/experiments/knapen_AOT/AOT_stimuli/rescaled_final/0862_rv.mp4	0.0	301.5268819332123	2.508695125579834
66	285.2681701183319	pulse	1	t		64.0	2.5	/experiments/knapen_AOT/AOT_stimuli/rescaled_final/0862_rv.mp4	0.0	303.1194820404053	
66	286.18426513671875	fix_post	2		12	64.0	2.5	/experiments/knapen_AOT/AOT_stimuli/rescaled_final/0862_rv.mp4	0.0	304.0355770587921	0.10000896453857422
67	286.2842741012573	fix_pre	0		120	65.0	2.5	/experiments/knapen_AOT/AOT_stimuli/rescaled_final/0463_fw.mp4	0.0	304.1355860233307	1.0001111030578613
67	286.867888212204	pulse	0	t		65.0	2.5	/experiments/knapen_AOT/AOT_stimuli/rescaled_final/0463_fw.mp4	0.0	304.71920013427734	
67	287.2843852043152	movie	1		242	65.0	2.5	/experiments/knapen_AOT/AOT_stimuli/rescaled_final/0463_fw.mp4	0.0	305.13569712638855	2.5006539821624756
67	288.4682240486145	pulse	1	t		65.0	2.5	/experiments/knapen_AOT/AOT_stimuli/rescaled_final/0463_fw.mp4	0.0	306.31953597068787	
67	289.78503918647766	fix_post	2		12	65.0	2.5	/experiments/knapen_AOT/AOT_stimuli/rescaled_final/0463_fw.mp4	0.0	307.636351108551	0.09974098205566406
68	289.8847801685333	fix_pre	0		120	66.0	2.5	/experiments/knapen_AOT/AOT_stimuli/rescaled_final/1174_fw.mp4	0.0	307.7360920906067	1.0001909732818604
68	290.068323135376	pulse	0	t		66.0	2.5	/experiments/knapen_AOT/AOT_stimuli/rescaled_final/1174_fw.mp4	0.0	307.91963505744934	
68	290.8849711418152	movie	1		242	66.0	2.5	/experiments/knapen_AOT/AOT_stimuli/rescaled_final/1174_fw.mp4	0.0	308.73628306388855	2.500511884689331
68	291.66867899894714	pulse	1	t		66.0	2.5	/experiments/knapen_AOT/AOT_stimuli/rescaled_final/1174_fw.mp4	0.0	309.5199909210205	
68	293.2687041759491	pulse	1	t		66.0	2.5	/experiments/knapen_AOT/AOT_stimuli/rescaled_final/1174_fw.mp4	0.0	311.12001609802246	
68	293.3854830265045	fix_post	2		12	66.0	2.5	/experiments/knapen_AOT/AOT_stimuli/rescaled_final/1174_fw.mp4	0.0	311.2367949485779	0.09990501403808594
69	293.4853880405426	fix_pre	0		120	67.0	2.5	/experiments/knapen_AOT/AOT_stimuli/rescaled_final/0163_rv.mp4	0.0	311.33669996261597	1.0001721382141113
69	294.4855601787567	movie	1		241	67.0	2.5	/experiments/knapen_AOT/AOT_stimuli/rescaled_final/0163_rv.mp4	0.0	312.3368721008301	2.492144823074341
69	294.8735411167145	pulse	1	t		67.0	2.5	/experiments/knapen_AOT/AOT_stimuli/rescaled_final/0163_rv.mp4	0.0	312.72485303878784	
69	296.46929907798767	pulse	1	t		67.0	2.5	/experiments/knapen_AOT/AOT_stimuli/rescaled_final/0163_rv.mp4	0.0	314.32061100006104	
69	296.97770500183105	fix_post	2		12	67.0	2.5	/experiments/knapen_AOT/AOT_stimuli/rescaled_final/0163_rv.mp4	0.0	314.8290169239044	0.09988903999328613
70	297.07759404182434	fix_pre	0		120	68.0	2.5	/experiments/knapen_AOT/AOT_stimuli/rescaled_final/0221_fw.mp4	0.0	314.9289059638977	1.000101089477539
70	298.06956601142883	pulse	0	t		68.0	2.5	/experiments/knapen_AOT/AOT_stimuli/rescaled_final/0221_fw.mp4	0.0	315.9208779335022	
70	298.0776951313019	movie	1		243	68.0	2.5	/experiments/knapen_AOT/AOT_stimuli/rescaled_final/0221_fw.mp4	0.0	315.92900705337524	2.5087828636169434
70	299.6703372001648	pulse	1	t		68.0	2.5	/experiments/knapen_AOT/AOT_stimuli/rescaled_final/0221_fw.mp4	0.0	317.52164912223816	
70	300.5864779949188	fix_post	2		12	68.0	2.5	/experiments/knapen_AOT/AOT_stimuli/rescaled_final/0221_fw.mp4	0.0	318.4377899169922	0.09994316101074219
71	300.68642115592957	fix_pre	0		120	69.0	2.5	blank	1.0	318.53773307800293	1.0001389980316162
71	301.27011799812317	pulse	0	t		69.0	2.5	blank	1.0	319.12142992019653	
71	301.6865601539612	movie	1		300	69.0	2.5	blank	1.0	319.53787207603455	2.5003998279571533
71	302.8702611923218	pulse	1	t		69.0	2.5	blank	1.0	320.72157311439514	
71	304.18695998191833	fix_post	2		12	69.0	2.5	blank	1.0	322.0382719039917	0.10002923011779785
72	304.28698921203613	fix_pre	0		120	70.0	2.5	/experiments/knapen_AOT/AOT_stimuli/rescaled_final/0326_fw.mp4	0.0	322.1383011341095	1.0001609325408936
72	304.47052907943726	pulse	0	t		70.0	2.5	/experiments/knapen_AOT/AOT_stimuli/rescaled_final/0326_fw.mp4	0.0	322.3218410015106	
72	305.287150144577	movie	1		244	70.0	2.5	/experiments/knapen_AOT/AOT_stimuli/rescaled_final/0326_fw.mp4	0.0	323.1384620666504	2.5003139972686768
72	306.07073402404785	pulse	1	t		70.0	2.5	/experiments/knapen_AOT/AOT_stimuli/rescaled_final/0326_fw.mp4	0.0	323.9220459461212	
72	307.6710891723633	pulse	1	t		70.0	2.5	/experiments/knapen_AOT/AOT_stimuli/rescaled_final/0326_fw.mp4	0.0	325.52240109443665	
72	307.7874641418457	fix_post	2		12	70.0	2.5	/experiments/knapen_AOT/AOT_stimuli/rescaled_final/0326_fw.mp4	0.0	325.63877606391907	0.1000368595123291
73	307.88750100135803	fix_pre	0		120	71.0	2.5	/experiments/knapen_AOT/AOT_stimuli/rescaled_final/0891_rv.mp4	0.0	325.7388129234314	1.000096082687378
73	308.8875970840454	movie	1		241	71.0	2.5	/experiments/knapen_AOT/AOT_stimuli/rescaled_final/0891_rv.mp4	0.0	326.7389090061188	2.4922940731048584
73	309.27594804763794	pulse	1	t		71.0	2.5	/experiments/knapen_AOT/AOT_stimuli/rescaled_final/0891_rv.mp4	0.0	327.1272599697113	
73	310.87151312828064	pulse	1	t		71.0	2.5	/experiments/knapen_AOT/AOT_stimuli/rescaled_final/0891_rv.mp4	0.0	328.722825050354	
73	311.37989115715027	fix_post	2		12	71.0	2.5	/experiments/knapen_AOT/AOT_stimuli/rescaled_final/0891_rv.mp4	0.0	329.23120307922363	0.09984993934631348
74	311.4797410964966	fix_pre	0		120	72.0	2.5	/experiments/knapen_AOT/AOT_stimuli/rescaled_final/1803_fw.mp4	0.0	329.33105301856995	1.0001349449157715
74	312.4717171192169	pulse	0	t		72.0	2.5	/experiments/knapen_AOT/AOT_stimuli/rescaled_final/1803_fw.mp4	0.0	330.3230290412903	
74	312.47987604141235	movie	1		243	72.0	2.5	/experiments/knapen_AOT/AOT_stimuli/rescaled_final/1803_fw.mp4	0.0	330.3311879634857	2.508805990219116
74	314.07264518737793	pulse	1	t		72.0	2.5	/experiments/knapen_AOT/AOT_stimuli/rescaled_final/1803_fw.mp4	0.0	331.9239571094513	
74	314.98868203163147	fix_post	2		12	72.0	2.5	/experiments/knapen_AOT/AOT_stimuli/rescaled_final/1803_fw.mp4	0.0	332.83999395370483	0.09988117218017578
75	315.08856320381165	fix_pre	0		120	73.0	2.5	/experiments/knapen_AOT/AOT_stimuli/rescaled_final/0266_fw.mp4	0.0	332.939875125885	1.0002148151397705
75	315.67218708992004	pulse	0	t		73.0	2.5	/experiments/knapen_AOT/AOT_stimuli/rescaled_final/0266_fw.mp4	0.0	333.5234990119934	
75	316.0887780189514	movie	1		244	73.0	2.5	/experiments/knapen_AOT/AOT_stimuli/rescaled_final/0266_fw.mp4	0.0	333.9400899410248	2.5003111362457275
75	317.272509098053	pulse	1	t		73.0	2.5	/experiments/knapen_AOT/AOT_stimuli/rescaled_final/0266_fw.mp4	0.0	335.12382102012634	
75	318.58908915519714	fix_post	2		12	73.0	2.5	/experiments/knapen_AOT/AOT_stimuli/rescaled_final/0266_fw.mp4	0.0	336.4404010772705	0.09999394416809082
76	318.68908309936523	fix_pre	0		120	74.0	2.5	/experiments/knapen_AOT/AOT_stimuli/rescaled_final/0961_rv.mp4	0.0	336.5403950214386	1.0001990795135498
76	318.87270498275757	pulse	0	t		74.0	2.5	/experiments/knapen_AOT/AOT_stimuli/rescaled_final/0961_rv.mp4	0.0	336.72401690483093	
76	319.6892821788788	movie	1		242	74.0	2.5	/experiments/knapen_AOT/AOT_stimuli/rescaled_final/0961_rv.mp4	0.0	337.54059410095215	2.5005099773406982
76	320.4728901386261	pulse	1	t		74.0	2.5	/experiments/knapen_AOT/AOT_stimuli/rescaled_final/0961_rv.mp4	0.0	338.32420206069946	
76	322.07378911972046	pulse	1	t		74.0	2.5	/experiments/knapen_AOT/AOT_stimuli/rescaled_final/0961_rv.mp4	0.0	339.9251010417938	
76	322.1897921562195	fix_post	2		12	74.0	2.5	/experiments/knapen_AOT/AOT_stimuli/rescaled_final/0961_rv.mp4	0.0	340.04110407829285	0.0998389720916748
77	322.28963112831116	fix_pre	0		120	75.0	2.5	blank	1.0	340.1409430503845	1.0001580715179443
77	323.2897891998291	movie	1		299	75.0	2.5	blank	1.0	341.14110112190247	2.492111921310425
77	323.6733272075653	pulse	1	t		75.0	2.5	blank	1.0	341.5246391296387	
77	325.27366518974304	pulse	1	t		75.0	2.5	blank	1.0	343.1249771118164	
77	325.7819011211395	fix_post	2		12	75.0	2.5	blank	1.0	343.6332130432129	0.09997892379760742
78	325.88188004493713	fix_pre	0		120	76.0	2.5	/experiments/knapen_AOT/AOT_stimuli/rescaled_final/0684_fw.mp4	0.0	343.7331919670105	1.000128984451294
78	326.87382912635803	pulse	0	t		76.0	2.5	/experiments/knapen_AOT/AOT_stimuli/rescaled_final/0684_fw.mp4	0.0	344.7251410484314	
78	326.8820090293884	movie	1		243	76.0	2.5	/experiments/knapen_AOT/AOT_stimuli/rescaled_final/0684_fw.mp4	0.0	344.7333209514618	2.508742094039917
78	328.47552013397217	pulse	1	t		76.0	2.5	/experiments/knapen_AOT/AOT_stimuli/rescaled_final/0684_fw.mp4	0.0	346.32683205604553	
78	329.39075112342834	fix_post	2		12	76.0	2.5	/experiments/knapen_AOT/AOT_stimuli/rescaled_final/0684_fw.mp4	0.0	347.2420630455017	0.0999760627746582
79	329.490727186203	fix_pre	0		120	77.0	2.5	/experiments/knapen_AOT/AOT_stimuli/rescaled_final/1526_rv.mp4	0.0	347.34203910827637	1.0001850128173828
79	330.074392080307	pulse	0	t		77.0	2.5	/experiments/knapen_AOT/AOT_stimuli/rescaled_final/1526_rv.mp4	0.0	347.92570400238037	
79	330.4909121990204	movie	1		244	77.0	2.5	/experiments/knapen_AOT/AOT_stimuli/rescaled_final/1526_rv.mp4	0.0	348.34222412109375	2.500356912612915
79	331.66740798950195	pulse	1	t		77.0	2.5	/experiments/knapen_AOT/AOT_stimuli/rescaled_final/1526_rv.mp4	0.0	349.5187199115753	
79	332.9912691116333	fix_post	2		12	77.0	2.5	/experiments/knapen_AOT/AOT_stimuli/rescaled_final/1526_rv.mp4	0.0	350.84258103370667	0.09999203681945801
80	333.09126114845276	fix_pre	0		120	78.0	2.5	/experiments/knapen_AOT/AOT_stimuli/rescaled_final/1949_rv.mp4	0.0	350.9425730705261	1.0001609325408936
80	333.2674641609192	pulse	0	t		78.0	2.5	/experiments/knapen_AOT/AOT_stimuli/rescaled_final/1949_rv.mp4	0.0	351.11877608299255	
80	334.09142208099365	movie	1		244	78.0	2.5	/experiments/knapen_AOT/AOT_stimuli/rescaled_final/1949_rv.mp4	0.0	351.942734003067	2.5003769397735596
80	334.8676280975342	pulse	1	t		78.0	2.5	/experiments/knapen_AOT/AOT_stimuli/rescaled_final/1949_rv.mp4	0.0	352.71894001960754	
80	336.466970205307	pulse	1	t		78.0	2.5	/experiments/knapen_AOT/AOT_stimuli/rescaled_final/1949_rv.mp4	0.0	354.31828212738037	
80	336.5917990207672	fix_post	2		12	78.0	2.5	/experiments/knapen_AOT/AOT_stimuli/rescaled_final/1949_rv.mp4	0.0	354.4431109428406	0.10000395774841309
81	336.6918029785156	fix_pre	0		120	79.0	2.5	/experiments/knapen_AOT/AOT_stimuli/rescaled_final/1891_rv.mp4	0.0	354.543114900589	1.0001490116119385
81	337.69195199012756	movie	1		242	79.0	2.5	/experiments/knapen_AOT/AOT_stimuli/rescaled_final/1891_rv.mp4	0.0	355.5432639122009	2.4922361373901367
81	338.06721901893616	pulse	1	t		79.0	2.5	/experiments/knapen_AOT/AOT_stimuli/rescaled_final/1891_rv.mp4	0.0	355.9185309410095	
81	339.6675729751587	pulse	1	t		79.0	2.5	/experiments/knapen_AOT/AOT_stimuli/rescaled_final/1891_rv.mp4	0.0	357.51888489723206	
81	340.1841881275177	fix_post	2		12	79.0	2.5	/experiments/knapen_AOT/AOT_stimuli/rescaled_final/1891_rv.mp4	0.0	358.03550004959106	0.12000203132629395
82	340.304190158844	fix_pre	0		115	80.0	2.5	/experiments/knapen_AOT/AOT_stimuli/rescaled_final/0101_fw.mp4	0.0	358.15550208091736	0.9716520309448242
82	341.26763916015625	pulse	0	t		80.0	2.5	/experiments/knapen_AOT/AOT_stimuli/rescaled_final/0101_fw.mp4	0.0	359.1189510822296	
82	341.2758421897888	movie	1		243	80.0	2.5	/experiments/knapen_AOT/AOT_stimuli/rescaled_final/0101_fw.mp4	0.0	359.1271541118622	2.5087649822235107
82	342.8686420917511	pulse	1	t		80.0	2.5	/experiments/knapen_AOT/AOT_stimuli/rescaled_final/0101_fw.mp4	0.0	360.71995401382446	
82	343.78460717201233	fix_post	2		12	80.0	2.5	/experiments/knapen_AOT/AOT_stimuli/rescaled_final/0101_fw.mp4	0.0	361.6359190940857	0.09993195533752441
83	343.88453912734985	fix_pre	0		120	81.0	2.5	/experiments/knapen_AOT/AOT_stimuli/rescaled_final/0576_rv.mp4	0.0	361.7358510494232	1.0001640319824219
83	344.46817898750305	pulse	0	t		81.0	2.5	/experiments/knapen_AOT/AOT_stimuli/rescaled_final/0576_rv.mp4	0.0	362.3194909095764	
83	344.8847031593323	movie	1		244	81.0	2.5	/experiments/knapen_AOT/AOT_stimuli/rescaled_final/0576_rv.mp4	0.0	362.73601508140564	2.5003409385681152
83	346.0684971809387	pulse	1	t		81.0	2.5	/experiments/knapen_AOT/AOT_stimuli/rescaled_final/0576_rv.mp4	0.0	363.9198091030121	
83	347.3850440979004	fix_post	2		12	81.0	2.5	/experiments/knapen_AOT/AOT_stimuli/rescaled_final/0576_rv.mp4	0.0	365.23635601997375	0.10008597373962402
84	347.48513007164	fix_pre	0		120	82.0	2.5	/experiments/knapen_AOT/AOT_stimuli/rescaled_final/0480_fw.mp4	0.0	365.3364419937134	1.0000970363616943
84	347.66870403289795	pulse	0	t		82.0	2.5	/experiments/knapen_AOT/AOT_stimuli/rescaled_final/0480_fw.mp4	0.0	365.5200159549713	
84	348.4852271080017	movie	1		244	82.0	2.5	/experiments/knapen_AOT/AOT_stimuli/rescaled_final/0480_fw.mp4	0.0	366.3365390300751	2.5003609657287598
84	349.26889204978943	pulse	1	t		82.0	2.5	/experiments/knapen_AOT/AOT_stimuli/rescaled_final/0480_fw.mp4	0.0	367.1202039718628	
84	350.8691711425781	pulse	1	t		82.0	2.5	/experiments/knapen_AOT/AOT_stimuli/rescaled_final/0480_fw.mp4	0.0	368.7204830646515	
84	350.98558807373047	fix_post	2		12	82.0	2.5	/experiments/knapen_AOT/AOT_stimuli/rescaled_final/0480_fw.mp4	0.0	368.83689999580383	0.10002899169921875
85	351.0856170654297	fix_pre	0		119	83.0	2.5	blank	1.0	368.93692898750305	0.9917991161346436
85	352.07741618156433	movie	1		300	83.0	2.5	blank	1.0	369.9287281036377	2.500432014465332
85	352.4693651199341	pulse	1	t		83.0	2.5	blank	1.0	370.32067704200745	
85	354.0696120262146	pulse	1	t		83.0	2.5	blank	1.0	371.92092394828796	
85	354.57784819602966	fix_post	2		12	83.0	2.5	blank	1.0	372.429160118103	0.09996986389160156
87	354.67781805992126	stim	0		1716					372.52912998199463	14.3022301197052
87	355.66989398002625	pulse	0	t						373.5212059020996	
87	357.2701241970062	pulse	0	t						375.1214361190796	
87	358.87036418914795	pulse	0	t						376.7216761112213	
87	360.47060799598694	pulse	0	t						378.3219199180603	
87	362.07079219818115	pulse	0	t						379.9221041202545	
87	363.6710681915283	pulse	0	t						381.5223801136017	
87	365.2712321281433	pulse	0	t						383.1225440502167	
87	366.8715469837189	pulse	0	t						384.72285890579224	
87	368.47173404693604	pulse	0	t						386.3230459690094	
