trial_nr	onset	event_type	phase	response	nr_frames	movie_index	movie_duration	movie_file	blank	onset_abs	duration
0	0.14948797225952148	stim	0		38					20.11240816116333	0.3169858455657959
0	0.4585559368133545	response	0	space						20.421476125717163	
1	0.4664738178253174	stim	0		3918					20.429394006729126	32.649901151657104
1	33.11216998100281	pulse	0	t						53.075090169906616	
1	33.11637496948242	stim	1		1717					53.07929515838623	14.308246850967407
1	34.70824885368347	pulse	1	t						54.67116904258728	
1	36.30815100669861	pulse	1	t						56.27107119560242	
1	37.908132791519165	pulse	1	t						57.871052980422974	
1	39.50820279121399	pulse	1	t						59.4711229801178	
1	41.10817289352417	pulse	1	t						61.07109308242798	
1	42.708106994628906	pulse	1	t						62.671027183532715	
1	44.30810594558716	pulse	1	t						64.27102613449097	
1	45.908092975616455	pulse	1	t						65.87101316452026	
2	47.42462182044983	fix_pre	0		11	0.0	2.5	/experiments/AOT/AOT_stimuli/rescaled_final/0953_rv.mp4	0.0	67.38754200935364	0.09169507026672363
2	47.50813293457031	pulse	0	t		0.0	2.5	/experiments/AOT/AOT_stimuli/rescaled_final/0953_rv.mp4	0.0	67.47105312347412	
2	47.51631689071655	movie	1		245	0.0	2.5	/experiments/AOT/AOT_stimuli/rescaled_final/0953_rv.mp4	0.0	67.47923707962036	2.508296012878418
2	49.108176946640015	pulse	1	t		0.0	2.5	/experiments/AOT/AOT_stimuli/rescaled_final/0953_rv.mp4	0.0	69.07109713554382	
2	50.02461290359497	fix_post	2		12	0.0	2.5	/experiments/AOT/AOT_stimuli/rescaled_final/0953_rv.mp4	0.0	69.98753309249878	0.10006904602050781
3	50.12468194961548	fix_pre	0		120	1.0	2.5	/experiments/AOT/AOT_stimuli/rescaled_final/0527_rv.mp4	0.0	70.08760213851929	0.9999430179595947
3	50.70815896987915	pulse	0	t		1.0	2.5	/experiments/AOT/AOT_stimuli/rescaled_final/0527_rv.mp4	0.0	70.67107915878296	
3	51.12462496757507	movie	1		243	1.0	2.5	/experiments/AOT/AOT_stimuli/rescaled_final/0527_rv.mp4	0.0	71.08754515647888	2.500044822692871
3	52.30820083618164	pulse	1	t		1.0	2.5	/experiments/AOT/AOT_stimuli/rescaled_final/0527_rv.mp4	0.0	72.27112102508545	
3	53.624669790267944	fix_post	2		12	1.0	2.5	/experiments/AOT/AOT_stimuli/rescaled_final/0527_rv.mp4	0.0	73.58758997917175	0.10002398490905762
4	53.724693775177	fix_pre	0		120	2.0	2.5	/experiments/AOT/AOT_stimuli/rescaled_final/2084_rv.mp4	0.0	73.68761396408081	0.9999370574951172
4	53.908140897750854	pulse	0	t		2.0	2.5	/experiments/AOT/AOT_stimuli/rescaled_final/2084_rv.mp4	0.0	73.87106108665466	
4	54.72463083267212	movie	1		243	2.0	2.5	/experiments/AOT/AOT_stimuli/rescaled_final/2084_rv.mp4	0.0	74.68755102157593	2.5000250339508057
4	55.5081307888031	pulse	1	t		2.0	2.5	/experiments/AOT/AOT_stimuli/rescaled_final/2084_rv.mp4	0.0	75.47105097770691	
4	57.10658597946167	pulse	1	t		2.0	2.5	/experiments/AOT/AOT_stimuli/rescaled_final/2084_rv.mp4	0.0	77.06950616836548	
4	57.224655866622925	fix_post	2		12	2.0	2.5	/experiments/AOT/AOT_stimuli/rescaled_final/2084_rv.mp4	0.0	77.18757605552673	0.10002803802490234
5	57.32468390464783	fix_pre	0		120	3.0	2.5	/experiments/AOT/AOT_stimuli/rescaled_final/0166_fw.mp4	0.0	77.28760409355164	0.9995040893554688
5	58.324187994003296	movie	1		243	3.0	2.5	/experiments/AOT/AOT_stimuli/rescaled_final/0166_fw.mp4	0.0	78.2871081829071	2.5000059604644775
5	58.70757699012756	pulse	1	t		3.0	2.5	/experiments/AOT/AOT_stimuli/rescaled_final/0166_fw.mp4	0.0	78.67049717903137	
5	60.3080677986145	pulse	1	t		3.0	2.5	/experiments/AOT/AOT_stimuli/rescaled_final/0166_fw.mp4	0.0	80.27098798751831	
5	60.82419395446777	fix_post	2		12	3.0	2.5	/experiments/AOT/AOT_stimuli/rescaled_final/0166_fw.mp4	0.0	80.78711414337158	0.10042881965637207
6	60.924622774124146	fix_pre	0		119	4.0	2.5	/experiments/AOT/AOT_stimuli/rescaled_final/0323_rv.mp4	0.0	80.88754296302795	0.9916391372680664
6	61.90812087059021	pulse	0	t		4.0	2.5	/experiments/AOT/AOT_stimuli/rescaled_final/0323_rv.mp4	0.0	81.87104105949402	
6	61.91626191139221	movie	1		245	4.0	2.5	/experiments/AOT/AOT_stimuli/rescaled_final/0323_rv.mp4	0.0	81.87918210029602	2.5081899166107178
6	63.50819277763367	pulse	1	t		4.0	2.5	/experiments/AOT/AOT_stimuli/rescaled_final/0323_rv.mp4	0.0	83.47111296653748	
6	64.42445182800293	fix_post	2		12	4.0	2.5	/experiments/AOT/AOT_stimuli/rescaled_final/0323_rv.mp4	0.0	84.38737201690674	0.10014009475708008
7	64.52459192276001	fix_pre	0		120	5.0	2.5	blank	1.0	84.48751211166382	0.9999110698699951
7	65.10808300971985	pulse	0	t		5.0	2.5	blank	1.0	85.07100319862366	
7	65.52450299263	movie	1		300	5.0	2.5	blank	1.0	85.48742318153381	2.5000100135803223
7	66.70802092552185	pulse	1	t		5.0	2.5	blank	1.0	86.67094111442566	
7	68.02451300621033	fix_post	2		12	5.0	2.5	blank	1.0	87.98743319511414	0.09997797012329102
8	68.12449097633362	fix_pre	0		120	6.0	2.5	/experiments/AOT/AOT_stimuli/rescaled_final/1393_fw.mp4	0.0	88.08741116523743	1.0001099109649658
8	68.3080677986145	pulse	0	t		6.0	2.5	/experiments/AOT/AOT_stimuli/rescaled_final/1393_fw.mp4	0.0	88.27098798751831	
8	69.12460088729858	movie	1		245	6.0	2.5	/experiments/AOT/AOT_stimuli/rescaled_final/1393_fw.mp4	0.0	89.08752107620239	2.4998741149902344
8	69.9080638885498	pulse	1	t		6.0	2.5	/experiments/AOT/AOT_stimuli/rescaled_final/1393_fw.mp4	0.0	89.87098407745361	
8	71.50660490989685	pulse	1	t		6.0	2.5	/experiments/AOT/AOT_stimuli/rescaled_final/1393_fw.mp4	0.0	91.46952509880066	
8	71.62447500228882	fix_post	2		12	6.0	2.5	/experiments/AOT/AOT_stimuli/rescaled_final/1393_fw.mp4	0.0	91.58739519119263	0.1000528335571289
9	71.72452783584595	fix_pre	0		120	7.0	2.5	/experiments/AOT/AOT_stimuli/rescaled_final/1399_fw.mp4	0.0	91.68744802474976	0.9996299743652344
9	72.72415781021118	movie	1		246	7.0	2.5	/experiments/AOT/AOT_stimuli/rescaled_final/1399_fw.mp4	0.0	92.68707799911499	2.5003249645233154
9	73.10747981071472	pulse	1	t		7.0	2.5	/experiments/AOT/AOT_stimuli/rescaled_final/1399_fw.mp4	0.0	93.07039999961853	
9	74.70797991752625	pulse	1	t		7.0	2.5	/experiments/AOT/AOT_stimuli/rescaled_final/1399_fw.mp4	0.0	94.67090010643005	
9	75.2244827747345	fix_post	2		12	7.0	2.5	/experiments/AOT/AOT_stimuli/rescaled_final/1399_fw.mp4	0.0	95.1874029636383	0.09999322891235352
10	75.32447600364685	fix_pre	0		119	8.0	2.5	/experiments/AOT/AOT_stimuli/rescaled_final/1906_fw.mp4	0.0	95.28739619255066	0.9917128086090088
10	76.30815696716309	pulse	0	t		8.0	2.5	/experiments/AOT/AOT_stimuli/rescaled_final/1906_fw.mp4	0.0	96.2710771560669	
10	76.31618881225586	movie	1		247	8.0	2.5	/experiments/AOT/AOT_stimuli/rescaled_final/1906_fw.mp4	0.0	96.27910900115967	2.5079431533813477
10	77.90779089927673	pulse	1	t		8.0	2.5	/experiments/AOT/AOT_stimuli/rescaled_final/1906_fw.mp4	0.0	97.87071108818054	
10	78.8241319656372	fix_post	2		12	8.0	2.5	/experiments/AOT/AOT_stimuli/rescaled_final/1906_fw.mp4	0.0	98.78705215454102	0.10038089752197266
11	78.92451286315918	fix_pre	0		120	9.0	2.5	/experiments/AOT/AOT_stimuli/rescaled_final/1256_rv.mp4	0.0	98.88743305206299	0.999967098236084
11	79.50786185264587	pulse	0	t		9.0	2.5	/experiments/AOT/AOT_stimuli/rescaled_final/1256_rv.mp4	0.0	99.47078204154968	
11	79.92447996139526	movie	1		245	9.0	2.5	/experiments/AOT/AOT_stimuli/rescaled_final/1256_rv.mp4	0.0	99.88740015029907	2.4995229244232178
11	81.1080207824707	pulse	1	t		9.0	2.5	/experiments/AOT/AOT_stimuli/rescaled_final/1256_rv.mp4	0.0	101.07094097137451	
11	82.42400288581848	fix_post	2		12	9.0	2.5	/experiments/AOT/AOT_stimuli/rescaled_final/1256_rv.mp4	0.0	102.38692307472229	0.10041499137878418
12	82.52441787719727	fix_pre	0		120	10.0	2.5	/experiments/AOT/AOT_stimuli/rescaled_final/0388_fw.mp4	0.0	102.48733806610107	0.9999959468841553
12	82.70792198181152	pulse	0	t		10.0	2.5	/experiments/AOT/AOT_stimuli/rescaled_final/0388_fw.mp4	0.0	102.67084217071533	
12	83.52441382408142	movie	1		244	10.0	2.5	/experiments/AOT/AOT_stimuli/rescaled_final/0388_fw.mp4	0.0	103.48733401298523	2.499997138977051
12	84.3078818321228	pulse	1	t		10.0	2.5	/experiments/AOT/AOT_stimuli/rescaled_final/0388_fw.mp4	0.0	104.27080202102661	
12	85.90646195411682	pulse	1	t		10.0	2.5	/experiments/AOT/AOT_stimuli/rescaled_final/0388_fw.mp4	0.0	105.86938214302063	
12	86.02441096305847	fix_post	2		12	10.0	2.5	/experiments/AOT/AOT_stimuli/rescaled_final/0388_fw.mp4	0.0	105.98733115196228	0.10003304481506348
13	86.12444400787354	fix_pre	0		120	11.0	2.5	/experiments/AOT/AOT_stimuli/rescaled_final/2116_rv.mp4	0.0	106.08736419677734	0.9999217987060547
13	87.12436580657959	movie	1		244	11.0	2.5	/experiments/AOT/AOT_stimuli/rescaled_final/2116_rv.mp4	0.0	107.0872859954834	2.4999890327453613
13	87.50760984420776	pulse	1	t		11.0	2.5	/experiments/AOT/AOT_stimuli/rescaled_final/2116_rv.mp4	0.0	107.47053003311157	
13	89.10791087150574	pulse	1	t		11.0	2.5	/experiments/AOT/AOT_stimuli/rescaled_final/2116_rv.mp4	0.0	109.07083106040955	
13	89.62435483932495	fix_post	2		12	11.0	2.5	/experiments/AOT/AOT_stimuli/rescaled_final/2116_rv.mp4	0.0	109.58727502822876	0.10002994537353516
14	89.72438478469849	fix_pre	0		119	12.0	2.5	blank	1.0	109.6873049736023	0.9916620254516602
14	90.7080008983612	pulse	0	t		12.0	2.5	blank	1.0	110.67092108726501	
14	90.71604681015015	movie	1		301	12.0	2.5	blank	1.0	110.67896699905396	2.5083651542663574
14	92.30792284011841	pulse	1	t		12.0	2.5	blank	1.0	112.27084302902222	
14	93.2244119644165	fix_post	2		12	12.0	2.5	blank	1.0	113.18733215332031	0.09994101524353027
15	93.32435297966003	fix_pre	0		120	13.0	2.5	/experiments/AOT/AOT_stimuli/rescaled_final/2151_rv.mp4	0.0	113.28727316856384	1.0000247955322266
15	93.90797185897827	pulse	0	t		13.0	2.5	/experiments/AOT/AOT_stimuli/rescaled_final/2151_rv.mp4	0.0	113.87089204788208	
15	94.32437777519226	movie	1		246	13.0	2.5	/experiments/AOT/AOT_stimuli/rescaled_final/2151_rv.mp4	0.0	114.28729796409607	2.4999890327453613
15	95.50788187980652	pulse	1	t		13.0	2.5	/experiments/AOT/AOT_stimuli/rescaled_final/2151_rv.mp4	0.0	115.47080206871033	
15	96.82436680793762	fix_post	2		12	13.0	2.5	/experiments/AOT/AOT_stimuli/rescaled_final/2151_rv.mp4	0.0	116.78728699684143	0.10001206398010254
16	96.92437887191772	fix_pre	0		120	14.0	2.5	/experiments/AOT/AOT_stimuli/rescaled_final/1768_fw.mp4	0.0	116.88729906082153	1.0000500679016113
16	97.1077709197998	pulse	0	t		14.0	2.5	/experiments/AOT/AOT_stimuli/rescaled_final/1768_fw.mp4	0.0	117.07069110870361	
16	97.92442893981934	movie	1		243	14.0	2.5	/experiments/AOT/AOT_stimuli/rescaled_final/1768_fw.mp4	0.0	117.88734912872314	2.49992299079895
16	98.70781898498535	pulse	1	t		14.0	2.5	/experiments/AOT/AOT_stimuli/rescaled_final/1768_fw.mp4	0.0	118.67073917388916	
16	100.30637097358704	pulse	1	t		14.0	2.5	/experiments/AOT/AOT_stimuli/rescaled_final/1768_fw.mp4	0.0	120.26929116249084	
16	100.42435193061829	fix_post	2		12	14.0	2.5	/experiments/AOT/AOT_stimuli/rescaled_final/1768_fw.mp4	0.0	120.3872721195221	0.10000801086425781
17	100.52435994148254	fix_pre	0		120	15.0	2.5	/experiments/AOT/AOT_stimuli/rescaled_final/1909_fw.mp4	0.0	120.48728013038635	0.9999010562896729
17	101.52426099777222	movie	1		244	15.0	2.5	/experiments/AOT/AOT_stimuli/rescaled_final/1909_fw.mp4	0.0	121.48718118667603	2.5000507831573486
17	101.90764498710632	pulse	1	t		15.0	2.5	/experiments/AOT/AOT_stimuli/rescaled_final/1909_fw.mp4	0.0	121.87056517601013	
17	103.50778579711914	pulse	1	t		15.0	2.5	/experiments/AOT/AOT_stimuli/rescaled_final/1909_fw.mp4	0.0	123.47070598602295	
17	104.02431178092957	fix_post	2		12	15.0	2.5	/experiments/AOT/AOT_stimuli/rescaled_final/1909_fw.mp4	0.0	123.98723196983337	0.10008716583251953
18	104.12439894676208	fix_pre	0		119	16.0	2.5	/experiments/AOT/AOT_stimuli/rescaled_final/1609_fw.mp4	0.0	124.0873191356659	0.9915850162506104
18	105.10785794258118	pulse	0	t		16.0	2.5	/experiments/AOT/AOT_stimuli/rescaled_final/1609_fw.mp4	0.0	125.07077813148499	
18	105.1159839630127	movie	1		244	16.0	2.5	/experiments/AOT/AOT_stimuli/rescaled_final/1609_fw.mp4	0.0	125.0789041519165	2.508314847946167
18	106.70743179321289	pulse	1	t		16.0	2.5	/experiments/AOT/AOT_stimuli/rescaled_final/1609_fw.mp4	0.0	126.6703519821167	
18	107.62429881095886	fix_post	2		12	16.0	2.5	/experiments/AOT/AOT_stimuli/rescaled_final/1609_fw.mp4	0.0	127.58721899986267	0.1000521183013916
19	107.72435092926025	fix_pre	0		120	17.0	2.5	/experiments/AOT/AOT_stimuli/rescaled_final/0601_rv.mp4	0.0	127.68727111816406	1.0000720024108887
19	108.30785179138184	pulse	0	t		17.0	2.5	/experiments/AOT/AOT_stimuli/rescaled_final/0601_rv.mp4	0.0	128.27077198028564	
19	108.72442293167114	movie	1		245	17.0	2.5	/experiments/AOT/AOT_stimuli/rescaled_final/0601_rv.mp4	0.0	128.68734312057495	2.4998819828033447
19	109.90787386894226	pulse	1	t		17.0	2.5	/experiments/AOT/AOT_stimuli/rescaled_final/0601_rv.mp4	0.0	129.87079405784607	
19	111.22430491447449	fix_post	2		12	17.0	2.5	/experiments/AOT/AOT_stimuli/rescaled_final/0601_rv.mp4	0.0	131.1872251033783	0.10006093978881836
20	111.3243658542633	fix_pre	0		120	18.0	2.5	/experiments/AOT/AOT_stimuli/rescaled_final/0558_rv.mp4	0.0	131.28728604316711	1.000082015991211
20	111.5077269077301	pulse	0	t		18.0	2.5	/experiments/AOT/AOT_stimuli/rescaled_final/0558_rv.mp4	0.0	131.4706470966339	
20	112.32444787025452	movie	1		243	18.0	2.5	/experiments/AOT/AOT_stimuli/rescaled_final/0558_rv.mp4	0.0	132.28736805915833	2.499983072280884
20	113.1077527999878	pulse	1	t		18.0	2.5	/experiments/AOT/AOT_stimuli/rescaled_final/0558_rv.mp4	0.0	133.0706729888916	
20	114.70640087127686	pulse	1	t		18.0	2.5	/experiments/AOT/AOT_stimuli/rescaled_final/0558_rv.mp4	0.0	134.66932106018066	
20	114.8244309425354	fix_post	2		12	18.0	2.5	/experiments/AOT/AOT_stimuli/rescaled_final/0558_rv.mp4	0.0	134.7873511314392	0.09988284111022949
21	114.92431378364563	fix_pre	0		120	19.0	2.5	/experiments/AOT/AOT_stimuli/rescaled_final/0167_rv.mp4	0.0	134.88723397254944	0.9995551109313965
21	115.92386889457703	movie	1		242	19.0	2.5	/experiments/AOT/AOT_stimuli/rescaled_final/0167_rv.mp4	0.0	135.88678908348083	2.5003819465637207
21	116.30736184120178	pulse	1	t		19.0	2.5	/experiments/AOT/AOT_stimuli/rescaled_final/0167_rv.mp4	0.0	136.2702820301056	
21	117.90773296356201	pulse	1	t		19.0	2.5	/experiments/AOT/AOT_stimuli/rescaled_final/0167_rv.mp4	0.0	137.87065315246582	
21	118.42425084114075	fix_post	2		12	19.0	2.5	/experiments/AOT/AOT_stimuli/rescaled_final/0167_rv.mp4	0.0	138.38717103004456	0.1000521183013916
22	118.52430295944214	fix_pre	0		119	20.0	2.5	/experiments/AOT/AOT_stimuli/rescaled_final/0142_fw.mp4	0.0	138.48722314834595	0.991567850112915
22	119.50776481628418	pulse	0	t		20.0	2.5	/experiments/AOT/AOT_stimuli/rescaled_final/0142_fw.mp4	0.0	139.470685005188	
22	119.51587080955505	movie	1		246	20.0	2.5	/experiments/AOT/AOT_stimuli/rescaled_final/0142_fw.mp4	0.0	139.47879099845886	2.5085031986236572
22	121.10729694366455	pulse	1	t		20.0	2.5	/experiments/AOT/AOT_stimuli/rescaled_final/0142_fw.mp4	0.0	141.07021713256836	
22	122.02437400817871	fix_post	2		12	20.0	2.5	/experiments/AOT/AOT_stimuli/rescaled_final/0142_fw.mp4	0.0	141.98729419708252	0.09999680519104004
23	122.12437081336975	fix_pre	0		120	21.0	2.5	blank	1.0	142.08729100227356	0.9999091625213623
23	122.70771479606628	pulse	0	t		21.0	2.5	blank	1.0	142.6706349849701	
23	123.12427997589111	movie	1		300	21.0	2.5	blank	1.0	143.08720016479492	2.5000529289245605
23	124.30778288841248	pulse	1	t		21.0	2.5	blank	1.0	144.27070307731628	
23	125.62433290481567	fix_post	2		12	21.0	2.5	blank	1.0	145.58725309371948	0.10000991821289062
24	125.72434282302856	fix_pre	0		120	22.0	2.5	/experiments/AOT/AOT_stimuli/rescaled_final/2116_fw.mp4	0.0	145.68726301193237	0.9999480247497559
24	125.90780186653137	pulse	0	t		22.0	2.5	/experiments/AOT/AOT_stimuli/rescaled_final/2116_fw.mp4	0.0	145.87072205543518	
24	126.72429084777832	movie	1		244	22.0	2.5	/experiments/AOT/AOT_stimuli/rescaled_final/2116_fw.mp4	0.0	146.68721103668213	2.4997780323028564
24	127.507239818573	pulse	1	t		22.0	2.5	/experiments/AOT/AOT_stimuli/rescaled_final/2116_fw.mp4	0.0	147.4701600074768	
24	129.10643577575684	pulse	1	t		22.0	2.5	/experiments/AOT/AOT_stimuli/rescaled_final/2116_fw.mp4	0.0	149.06935596466064	
24	129.22406888008118	fix_post	2		12	22.0	2.5	/experiments/AOT/AOT_stimuli/rescaled_final/2116_fw.mp4	0.0	149.18698906898499	0.10037493705749512
25	129.32444381713867	fix_pre	0		120	23.0	2.5	/experiments/AOT/AOT_stimuli/rescaled_final/0014_rv.mp4	0.0	149.28736400604248	0.9998660087585449
25	130.32430982589722	movie	1		243	23.0	2.5	/experiments/AOT/AOT_stimuli/rescaled_final/0014_rv.mp4	0.0	150.28723001480103	2.4998841285705566
25	130.70749497413635	pulse	1	t		23.0	2.5	/experiments/AOT/AOT_stimuli/rescaled_final/0014_rv.mp4	0.0	150.67041516304016	
25	132.3076047897339	pulse	1	t		23.0	2.5	/experiments/AOT/AOT_stimuli/rescaled_final/0014_rv.mp4	0.0	152.2705249786377	
25	132.82419395446777	fix_post	2		12	23.0	2.5	/experiments/AOT/AOT_stimuli/rescaled_final/0014_rv.mp4	0.0	152.78711414337158	0.10003995895385742
26	132.92423391342163	fix_pre	0		119	24.0	2.5	/experiments/AOT/AOT_stimuli/rescaled_final/0056_fw.mp4	0.0	152.88715410232544	0.9916930198669434
26	133.90770292282104	pulse	0	t		24.0	2.5	/experiments/AOT/AOT_stimuli/rescaled_final/0056_fw.mp4	0.0	153.87062311172485	
26	133.91592693328857	movie	1		248	24.0	2.5	/experiments/AOT/AOT_stimuli/rescaled_final/0056_fw.mp4	0.0	153.87884712219238	2.50832200050354
26	135.50854182243347	pulse	1	t		24.0	2.5	/experiments/AOT/AOT_stimuli/rescaled_final/0056_fw.mp4	0.0	155.47146201133728	
26	136.42424893379211	fix_post	2		12	24.0	2.5	/experiments/AOT/AOT_stimuli/rescaled_final/0056_fw.mp4	0.0	156.38716912269592	0.09991002082824707
27	136.52415895462036	fix_pre	0		120	25.0	2.5	/experiments/AOT/AOT_stimuli/rescaled_final/0636_rv.mp4	0.0	156.48707914352417	1.0000488758087158
27	137.10768580436707	pulse	0	t		25.0	2.5	/experiments/AOT/AOT_stimuli/rescaled_final/0636_rv.mp4	0.0	157.07060599327087	
27	137.52420783042908	movie	1		247	25.0	2.5	/experiments/AOT/AOT_stimuli/rescaled_final/0636_rv.mp4	0.0	157.48712801933289	2.4995920658111572
27	138.70768880844116	pulse	1	t		25.0	2.5	/experiments/AOT/AOT_stimuli/rescaled_final/0636_rv.mp4	0.0	158.67060899734497	
27	140.02379989624023	fix_post	2		12	25.0	2.5	/experiments/AOT/AOT_stimuli/rescaled_final/0636_rv.mp4	0.0	159.98672008514404	0.10034394264221191
28	140.12414383888245	fix_pre	0		120	26.0	2.5	/experiments/AOT/AOT_stimuli/rescaled_final/0931_rv.mp4	0.0	160.08706402778625	0.9999520778656006
28	140.307630777359	pulse	0	t		26.0	2.5	/experiments/AOT/AOT_stimuli/rescaled_final/0931_rv.mp4	0.0	160.27055096626282	
28	141.12409591674805	movie	1		246	26.0	2.5	/experiments/AOT/AOT_stimuli/rescaled_final/0931_rv.mp4	0.0	161.08701610565186	2.5001730918884277
28	141.9075689315796	pulse	1	t		26.0	2.5	/experiments/AOT/AOT_stimuli/rescaled_final/0931_rv.mp4	0.0	161.8704891204834	
28	143.50617790222168	pulse	1	t		26.0	2.5	/experiments/AOT/AOT_stimuli/rescaled_final/0931_rv.mp4	0.0	163.4690980911255	
28	143.62426900863647	fix_post	2		12	26.0	2.5	/experiments/AOT/AOT_stimuli/rescaled_final/0931_rv.mp4	0.0	163.58718919754028	0.09990286827087402
29	143.72417187690735	fix_pre	0		120	27.0	2.5	blank	1.0	163.68709206581116	0.9999969005584717
29	144.72416877746582	movie	1		300	27.0	2.5	blank	1.0	164.68708896636963	2.5000030994415283
29	145.1076319217682	pulse	1	t		27.0	2.5	blank	1.0	165.070552110672	
29	146.70767283439636	pulse	1	t		27.0	2.5	blank	1.0	166.67059302330017	
29	147.22417187690735	fix_post	2		12	27.0	2.5	blank	1.0	167.18709206581116	0.10000801086425781
30	147.3241798877716	fix_pre	0		119	28.0	2.5	/experiments/AOT/AOT_stimuli/rescaled_final/1957_fw.mp4	0.0	167.28710007667542	0.9915890693664551
30	148.3076138496399	pulse	0	t		28.0	2.5	/experiments/AOT/AOT_stimuli/rescaled_final/1957_fw.mp4	0.0	168.2705340385437	
30	148.31576895713806	movie	1		243	28.0	2.5	/experiments/AOT/AOT_stimuli/rescaled_final/1957_fw.mp4	0.0	168.27868914604187	2.508232831954956
30	149.90873384475708	pulse	1	t		28.0	2.5	/experiments/AOT/AOT_stimuli/rescaled_final/1957_fw.mp4	0.0	169.8716540336609	
30	150.82400178909302	fix_post	2		12	28.0	2.5	/experiments/AOT/AOT_stimuli/rescaled_final/1957_fw.mp4	0.0	170.78692197799683	0.10014605522155762
31	150.92414784431458	fix_pre	0		120	29.0	2.5	/experiments/AOT/AOT_stimuli/rescaled_final/1336_fw.mp4	0.0	170.88706803321838	0.99993896484375
31	151.50757694244385	pulse	0	t		29.0	2.5	/experiments/AOT/AOT_stimuli/rescaled_final/1336_fw.mp4	0.0	171.47049713134766	
31	151.92408680915833	movie	1		244	29.0	2.5	/experiments/AOT/AOT_stimuli/rescaled_final/1336_fw.mp4	0.0	171.88700699806213	2.4996299743652344
31	153.10765981674194	pulse	1	t		29.0	2.5	/experiments/AOT/AOT_stimuli/rescaled_final/1336_fw.mp4	0.0	173.07058000564575	
31	154.42371678352356	fix_post	2		12	29.0	2.5	/experiments/AOT/AOT_stimuli/rescaled_final/1336_fw.mp4	0.0	174.38663697242737	0.10043120384216309
32	154.52414798736572	fix_pre	0		120	30.0	2.5	/experiments/AOT/AOT_stimuli/rescaled_final/0984_fw.mp4	0.0	174.48706817626953	0.9999909400939941
32	154.70761394500732	pulse	0	t		30.0	2.5	/experiments/AOT/AOT_stimuli/rescaled_final/0984_fw.mp4	0.0	174.67053413391113	
32	155.52413892745972	movie	1		247	30.0	2.5	/experiments/AOT/AOT_stimuli/rescaled_final/0984_fw.mp4	0.0	175.48705911636353	2.4998619556427
32	156.30756998062134	pulse	1	t		30.0	2.5	/experiments/AOT/AOT_stimuli/rescaled_final/0984_fw.mp4	0.0	176.27049016952515	
32	157.90711498260498	pulse	1	t		30.0	2.5	/experiments/AOT/AOT_stimuli/rescaled_final/0984_fw.mp4	0.0	177.8700351715088	
32	158.02400088310242	fix_post	2		12	30.0	2.5	/experiments/AOT/AOT_stimuli/rescaled_final/0984_fw.mp4	0.0	177.98692107200623	0.10000395774841309
33	158.12400484085083	fix_pre	0		120	31.0	2.5	/experiments/AOT/AOT_stimuli/rescaled_final/0220_rv.mp4	0.0	178.08692502975464	1.0000550746917725
33	159.1240599155426	movie	1		245	31.0	2.5	/experiments/AOT/AOT_stimuli/rescaled_final/0220_rv.mp4	0.0	179.0869801044464	2.499988079071045
33	159.50714683532715	pulse	1	t		31.0	2.5	/experiments/AOT/AOT_stimuli/rescaled_final/0220_rv.mp4	0.0	179.47006702423096	
33	161.10707783699036	pulse	1	t		31.0	2.5	/experiments/AOT/AOT_stimuli/rescaled_final/0220_rv.mp4	0.0	181.06999802589417	
33	161.62404799461365	fix_post	2		12	31.0	2.5	/experiments/AOT/AOT_stimuli/rescaled_final/0220_rv.mp4	0.0	181.58696818351746	0.0999908447265625
34	161.7240388393402	fix_pre	0		119	32.0	2.5	/experiments/AOT/AOT_stimuli/rescaled_final/1377_fw.mp4	0.0	181.68695902824402	0.9917199611663818
34	162.70760893821716	pulse	0	t		32.0	2.5	/experiments/AOT/AOT_stimuli/rescaled_final/1377_fw.mp4	0.0	182.67052912712097	
34	162.7157588005066	movie	1		245	32.0	2.5	/experiments/AOT/AOT_stimuli/rescaled_final/1377_fw.mp4	0.0	182.6786789894104	2.5082221031188965
34	164.30854082107544	pulse	1	t		32.0	2.5	/experiments/AOT/AOT_stimuli/rescaled_final/1377_fw.mp4	0.0	184.27146100997925	
34	165.2239809036255	fix_post	2		12	32.0	2.5	/experiments/AOT/AOT_stimuli/rescaled_final/1377_fw.mp4	0.0	185.1869010925293	0.1002039909362793
35	165.32418489456177	fix_pre	0		120	33.0	2.5	/experiments/AOT/AOT_stimuli/rescaled_final/0733_fw.mp4	0.0	185.28710508346558	0.9998259544372559
35	165.90754795074463	pulse	0	t		33.0	2.5	/experiments/AOT/AOT_stimuli/rescaled_final/0733_fw.mp4	0.0	185.87046813964844	
35	166.32401084899902	movie	1		245	33.0	2.5	/experiments/AOT/AOT_stimuli/rescaled_final/0733_fw.mp4	0.0	186.28693103790283	2.500102996826172
35	167.5075969696045	pulse	1	t		33.0	2.5	/experiments/AOT/AOT_stimuli/rescaled_final/0733_fw.mp4	0.0	187.4705171585083	
35	168.8241138458252	fix_post	2		12	33.0	2.5	/experiments/AOT/AOT_stimuli/rescaled_final/0733_fw.mp4	0.0	188.787034034729	0.09993815422058105
36	168.92405200004578	fix_pre	0		120	34.0	2.5	blank	1.0	188.88697218894958	0.9999678134918213
36	169.10760283470154	pulse	0	t		34.0	2.5	blank	1.0	189.07052302360535	
36	169.9240198135376	movie	1		300	34.0	2.5	blank	1.0	189.8869400024414	2.500054121017456
36	170.70752477645874	pulse	1	t		34.0	2.5	blank	1.0	190.67044496536255	
36	172.30742383003235	pulse	1	t		34.0	2.5	blank	1.0	192.27034401893616	
36	172.42407393455505	fix_post	2		12	34.0	2.5	blank	1.0	192.38699412345886	0.09988999366760254
37	172.52396392822266	fix_pre	0		120	35.0	2.5	/experiments/AOT/AOT_stimuli/rescaled_final/1458_fw.mp4	0.0	192.48688411712646	1.0000319480895996
37	173.52399587631226	movie	1		244	35.0	2.5	/experiments/AOT/AOT_stimuli/rescaled_final/1458_fw.mp4	0.0	193.48691606521606	2.4995651245117188
37	173.90717387199402	pulse	1	t		35.0	2.5	/experiments/AOT/AOT_stimuli/rescaled_final/1458_fw.mp4	0.0	193.87009406089783	
37	175.50747680664062	pulse	1	t		35.0	2.5	/experiments/AOT/AOT_stimuli/rescaled_final/1458_fw.mp4	0.0	195.47039699554443	
37	176.02356100082397	fix_post	2		12	35.0	2.5	/experiments/AOT/AOT_stimuli/rescaled_final/1458_fw.mp4	0.0	195.98648118972778	0.1003878116607666
38	176.12394881248474	fix_pre	0		119	36.0	2.5	/experiments/AOT/AOT_stimuli/rescaled_final/1957_rv.mp4	0.0	196.08686900138855	0.9916460514068604
38	177.10745000839233	pulse	0	t		36.0	2.5	/experiments/AOT/AOT_stimuli/rescaled_final/1957_rv.mp4	0.0	197.07037019729614	
38	177.1155948638916	movie	1		244	36.0	2.5	/experiments/AOT/AOT_stimuli/rescaled_final/1957_rv.mp4	0.0	197.0785150527954	2.5083649158477783
38	178.70705485343933	pulse	1	t		36.0	2.5	/experiments/AOT/AOT_stimuli/rescaled_final/1957_rv.mp4	0.0	198.66997504234314	
38	179.62395977973938	fix_post	2		12	36.0	2.5	/experiments/AOT/AOT_stimuli/rescaled_final/1957_rv.mp4	0.0	199.5868799686432	0.09996414184570312
39	179.72392392158508	fix_pre	0		120	37.0	2.5	/experiments/AOT/AOT_stimuli/rescaled_final/1408_fw.mp4	0.0	199.6868441104889	1.0000290870666504
39	180.3073799610138	pulse	0	t		37.0	2.5	/experiments/AOT/AOT_stimuli/rescaled_final/1408_fw.mp4	0.0	200.2703001499176	
39	180.72395300865173	movie	1		244	37.0	2.5	/experiments/AOT/AOT_stimuli/rescaled_final/1408_fw.mp4	0.0	200.68687319755554	2.500046968460083
39	181.90745091438293	pulse	1	t		37.0	2.5	/experiments/AOT/AOT_stimuli/rescaled_final/1408_fw.mp4	0.0	201.87037110328674	
39	183.22399997711182	fix_post	2		12	37.0	2.5	/experiments/AOT/AOT_stimuli/rescaled_final/1408_fw.mp4	0.0	203.18692016601562	0.09998297691345215
40	183.32398295402527	fix_pre	0		120	38.0	2.5	/experiments/AOT/AOT_stimuli/rescaled_final/0244_rv.mp4	0.0	203.28690314292908	0.9996039867401123
40	183.5070629119873	pulse	0	t		38.0	2.5	/experiments/AOT/AOT_stimuli/rescaled_final/0244_rv.mp4	0.0	203.4699831008911	
40	184.32358694076538	movie	1		247	38.0	2.5	/experiments/AOT/AOT_stimuli/rescaled_final/0244_rv.mp4	0.0	204.2865071296692	2.499912977218628
40	185.10762095451355	pulse	1	t		38.0	2.5	/experiments/AOT/AOT_stimuli/rescaled_final/0244_rv.mp4	0.0	205.07054114341736	
40	186.70358681678772	pulse	1	t		38.0	2.5	/experiments/AOT/AOT_stimuli/rescaled_final/0244_rv.mp4	0.0	206.66650700569153	
40	186.823499917984	fix_post	2		12	38.0	2.5	/experiments/AOT/AOT_stimuli/rescaled_final/0244_rv.mp4	0.0	206.78642010688782	0.10008502006530762
41	186.92358493804932	fix_pre	0		120	39.0	2.5	/experiments/AOT/AOT_stimuli/rescaled_final/0895_fw.mp4	0.0	206.88650512695312	1.0003769397735596
41	187.92396187782288	movie	1		244	39.0	2.5	/experiments/AOT/AOT_stimuli/rescaled_final/0895_fw.mp4	0.0	207.88688206672668	2.49993896484375
41	188.30829691886902	pulse	1	t		39.0	2.5	/experiments/AOT/AOT_stimuli/rescaled_final/0895_fw.mp4	0.0	208.27121710777283	
41	189.90746998786926	pulse	1	t		39.0	2.5	/experiments/AOT/AOT_stimuli/rescaled_final/0895_fw.mp4	0.0	209.87039017677307	
41	190.42390084266663	fix_post	2		12	39.0	2.5	/experiments/AOT/AOT_stimuli/rescaled_final/0895_fw.mp4	0.0	210.38682103157043	0.09996604919433594
42	190.52386689186096	fix_pre	0		119	40.0	2.5	blank	1.0	210.48678708076477	0.991736888885498
42	191.50736594200134	pulse	0	t		40.0	2.5	blank	1.0	211.47028613090515	
42	191.51560378074646	movie	1		301	40.0	2.5	blank	1.0	211.47852396965027	2.5082950592041016
42	193.10744786262512	pulse	1	t		40.0	2.5	blank	1.0	213.07036805152893	
42	194.02389883995056	fix_post	2		12	40.0	2.5	blank	1.0	213.98681902885437	0.09995412826538086
43	194.12385296821594	fix_pre	0		120	41.0	2.5	/experiments/AOT/AOT_stimuli/rescaled_final/0520_rv.mp4	0.0	214.08677315711975	1.0000598430633545
43	194.7073049545288	pulse	0	t		41.0	2.5	/experiments/AOT/AOT_stimuli/rescaled_final/0520_rv.mp4	0.0	214.67022514343262	
43	195.1239128112793	movie	1		244	41.0	2.5	/experiments/AOT/AOT_stimuli/rescaled_final/0520_rv.mp4	0.0	215.0868330001831	2.4999501705169678
43	196.30742979049683	pulse	1	t		41.0	2.5	/experiments/AOT/AOT_stimuli/rescaled_final/0520_rv.mp4	0.0	216.27034997940063	
43	197.62386298179626	fix_post	2		12	41.0	2.5	/experiments/AOT/AOT_stimuli/rescaled_final/0520_rv.mp4	0.0	217.58678317070007	0.10002779960632324
44	197.7238907814026	fix_pre	0		120	42.0	2.5	/experiments/AOT/AOT_stimuli/rescaled_final/0078_rv.mp4	0.0	217.6868109703064	0.9999570846557617
44	197.90738797187805	pulse	0	t		42.0	2.5	/experiments/AOT/AOT_stimuli/rescaled_final/0078_rv.mp4	0.0	217.87030816078186	
44	198.72384786605835	movie	1		246	42.0	2.5	/experiments/AOT/AOT_stimuli/rescaled_final/0078_rv.mp4	0.0	218.68676805496216	2.500075101852417
44	199.507257938385	pulse	1	t		42.0	2.5	/experiments/AOT/AOT_stimuli/rescaled_final/0078_rv.mp4	0.0	219.47017812728882	
44	201.10613894462585	pulse	1	t		42.0	2.5	/experiments/AOT/AOT_stimuli/rescaled_final/0078_rv.mp4	0.0	221.06905913352966	
44	201.22392296791077	fix_post	2		12	42.0	2.5	/experiments/AOT/AOT_stimuli/rescaled_final/0078_rv.mp4	0.0	221.18684315681458	0.09991192817687988
45	201.32383489608765	fix_pre	0		120	43.0	2.5	/experiments/AOT/AOT_stimuli/rescaled_final/1256_fw.mp4	0.0	221.28675508499146	0.9999599456787109
45	202.32379484176636	movie	1		246	43.0	2.5	/experiments/AOT/AOT_stimuli/rescaled_final/1256_fw.mp4	0.0	222.28671503067017	2.5000171661376953
45	202.70719695091248	pulse	1	t		43.0	2.5	/experiments/AOT/AOT_stimuli/rescaled_final/1256_fw.mp4	0.0	222.67011713981628	
45	204.30731081962585	pulse	1	t		43.0	2.5	/experiments/AOT/AOT_stimuli/rescaled_final/1256_fw.mp4	0.0	224.27023100852966	
45	204.82381200790405	fix_post	2		12	43.0	2.5	/experiments/AOT/AOT_stimuli/rescaled_final/1256_fw.mp4	0.0	224.78673219680786	0.0999758243560791
46	204.92378783226013	fix_pre	0		119	44.0	2.5	/experiments/AOT/AOT_stimuli/rescaled_final/0662_rv.mp4	0.0	224.88670802116394	0.9916341304779053
46	205.9073359966278	pulse	0	t		44.0	2.5	/experiments/AOT/AOT_stimuli/rescaled_final/0662_rv.mp4	0.0	225.87025618553162	
46	205.91542196273804	movie	1		246	44.0	2.5	/experiments/AOT/AOT_stimuli/rescaled_final/0662_rv.mp4	0.0	225.87834215164185	2.508384943008423
46	207.50694489479065	pulse	1	t		44.0	2.5	/experiments/AOT/AOT_stimuli/rescaled_final/0662_rv.mp4	0.0	227.46986508369446	
46	208.42380690574646	fix_post	2		12	44.0	2.5	/experiments/AOT/AOT_stimuli/rescaled_final/0662_rv.mp4	0.0	228.38672709465027	0.09998798370361328
47	208.52379488945007	fix_pre	0		120	45.0	2.5	/experiments/AOT/AOT_stimuli/rescaled_final/0661_rv.mp4	0.0	228.48671507835388	0.9996109008789062
47	209.10724997520447	pulse	0	t		45.0	2.5	/experiments/AOT/AOT_stimuli/rescaled_final/0661_rv.mp4	0.0	229.07017016410828	
47	209.52340579032898	movie	1		245	45.0	2.5	/experiments/AOT/AOT_stimuli/rescaled_final/0661_rv.mp4	0.0	229.4863259792328	2.5003700256347656
47	210.70735597610474	pulse	1	t		45.0	2.5	/experiments/AOT/AOT_stimuli/rescaled_final/0661_rv.mp4	0.0	230.67027616500854	
47	212.02377581596375	fix_post	2		12	45.0	2.5	/experiments/AOT/AOT_stimuli/rescaled_final/0661_rv.mp4	0.0	231.98669600486755	0.10002708435058594
48	212.12380290031433	fix_pre	0		120	46.0	2.5	/experiments/AOT/AOT_stimuli/rescaled_final/1073_fw.mp4	0.0	232.08672308921814	0.9999639987945557
48	212.3073079586029	pulse	0	t		46.0	2.5	/experiments/AOT/AOT_stimuli/rescaled_final/1073_fw.mp4	0.0	232.2702281475067	
48	213.1237668991089	movie	1		242	46.0	2.5	/experiments/AOT/AOT_stimuli/rescaled_final/1073_fw.mp4	0.0	233.0866870880127	2.5000100135803223
48	213.90733194351196	pulse	1	t		46.0	2.5	/experiments/AOT/AOT_stimuli/rescaled_final/1073_fw.mp4	0.0	233.87025213241577	
48	215.50560092926025	pulse	1	t		46.0	2.5	/experiments/AOT/AOT_stimuli/rescaled_final/1073_fw.mp4	0.0	235.46852111816406	
48	215.6237769126892	fix_post	2		12	46.0	2.5	/experiments/AOT/AOT_stimuli/rescaled_final/1073_fw.mp4	0.0	235.58669710159302	0.09989404678344727
49	215.72367095947266	fix_pre	0		120	47.0	2.5	blank	1.0	235.68659114837646	1.0000598430633545
49	216.723730802536	movie	1		300	47.0	2.5	blank	1.0	236.68665099143982	2.5000760555267334
49	217.10720777511597	pulse	1	t		47.0	2.5	blank	1.0	237.07012796401978	
49	218.70725297927856	pulse	1	t		47.0	2.5	blank	1.0	238.67017316818237	
49	219.22380685806274	fix_post	2		12	47.0	2.5	blank	1.0	239.18672704696655	0.09987092018127441
50	219.32367777824402	fix_pre	0		119	48.0	2.5	/experiments/AOT/AOT_stimuli/rescaled_final/0248_fw.mp4	0.0	239.28659796714783	0.9917662143707275
50	220.30719590187073	pulse	0	t		48.0	2.5	/experiments/AOT/AOT_stimuli/rescaled_final/0248_fw.mp4	0.0	240.27011609077454	
50	220.31544399261475	movie	1		245	48.0	2.5	/experiments/AOT/AOT_stimuli/rescaled_final/0248_fw.mp4	0.0	240.27836418151855	2.5082898139953613
50	221.9074399471283	pulse	1	t		48.0	2.5	/experiments/AOT/AOT_stimuli/rescaled_final/0248_fw.mp4	0.0	241.8703601360321	
50	222.8237338066101	fix_post	2		12	48.0	2.5	/experiments/AOT/AOT_stimuli/rescaled_final/0248_fw.mp4	0.0	242.78665399551392	0.09997105598449707
51	222.9237048625946	fix_pre	0		120	49.0	2.5	/experiments/AOT/AOT_stimuli/rescaled_final/0636_fw.mp4	0.0	242.8866250514984	1.0000090599060059
51	223.5072419643402	pulse	0	t		49.0	2.5	/experiments/AOT/AOT_stimuli/rescaled_final/0636_fw.mp4	0.0	243.47016215324402	
51	223.9237139225006	movie	1		245	49.0	2.5	/experiments/AOT/AOT_stimuli/rescaled_final/0636_fw.mp4	0.0	243.88663411140442	2.500002861022949
51	225.1072769165039	pulse	1	t		49.0	2.5	/experiments/AOT/AOT_stimuli/rescaled_final/0636_fw.mp4	0.0	245.07019710540771	
51	226.42371678352356	fix_post	2		12	49.0	2.5	/experiments/AOT/AOT_stimuli/rescaled_final/0636_fw.mp4	0.0	246.38663697242737	0.1000070571899414
52	226.5237238407135	fix_pre	0		120	50.0	2.5	/experiments/AOT/AOT_stimuli/rescaled_final/1171_rv.mp4	0.0	246.4866440296173	0.9999790191650391
52	226.7071888446808	pulse	0	t		50.0	2.5	/experiments/AOT/AOT_stimuli/rescaled_final/1171_rv.mp4	0.0	246.6701090335846	
52	227.52370285987854	movie	1		243	50.0	2.5	/experiments/AOT/AOT_stimuli/rescaled_final/1171_rv.mp4	0.0	247.48662304878235	2.499993085861206
52	228.30723190307617	pulse	1	t		50.0	2.5	/experiments/AOT/AOT_stimuli/rescaled_final/1171_rv.mp4	0.0	248.27015209197998	
52	229.90557980537415	pulse	1	t		50.0	2.5	/experiments/AOT/AOT_stimuli/rescaled_final/1171_rv.mp4	0.0	249.86849999427795	
52	230.02369594573975	fix_post	2		12	50.0	2.5	/experiments/AOT/AOT_stimuli/rescaled_final/1171_rv.mp4	0.0	249.98661613464355	0.10000085830688477
53	230.12369680404663	fix_pre	0		120	51.0	2.5	/experiments/AOT/AOT_stimuli/rescaled_final/1890_fw.mp4	0.0	250.08661699295044	0.9999470710754395
53	231.12364387512207	movie	1		244	51.0	2.5	/experiments/AOT/AOT_stimuli/rescaled_final/1890_fw.mp4	0.0	251.08656406402588	2.499630928039551
53	231.50840997695923	pulse	1	t		51.0	2.5	/experiments/AOT/AOT_stimuli/rescaled_final/1890_fw.mp4	0.0	251.47133016586304	
53	233.10716581344604	pulse	1	t		51.0	2.5	/experiments/AOT/AOT_stimuli/rescaled_final/1890_fw.mp4	0.0	253.07008600234985	
53	233.62327480316162	fix_post	2		12	51.0	2.5	/experiments/AOT/AOT_stimuli/rescaled_final/1890_fw.mp4	0.0	253.58619499206543	0.10039806365966797
54	233.7236728668213	fix_pre	0		119	52.0	2.5	/experiments/AOT/AOT_stimuli/rescaled_final/0831_fw.mp4	0.0	253.6865930557251	0.9917020797729492
54	234.70724487304688	pulse	0	t		52.0	2.5	/experiments/AOT/AOT_stimuli/rescaled_final/0831_fw.mp4	0.0	254.67016506195068	
54	234.71537494659424	movie	1		244	52.0	2.5	/experiments/AOT/AOT_stimuli/rescaled_final/0831_fw.mp4	0.0	254.67829513549805	2.5083229541778564
54	236.30677890777588	pulse	1	t		52.0	2.5	/experiments/AOT/AOT_stimuli/rescaled_final/0831_fw.mp4	0.0	256.2696990966797	
54	237.2236979007721	fix_post	2		12	52.0	2.5	/experiments/AOT/AOT_stimuli/rescaled_final/0831_fw.mp4	0.0	257.1866180896759	0.09997296333312988
55	237.32367086410522	fix_pre	0		120	53.0	2.5	/experiments/AOT/AOT_stimuli/rescaled_final/1211_rv.mp4	0.0	257.28659105300903	1.0000669956207275
55	237.90719985961914	pulse	0	t		53.0	2.5	/experiments/AOT/AOT_stimuli/rescaled_final/1211_rv.mp4	0.0	257.87012004852295	
55	238.32373785972595	movie	1		244	53.0	2.5	/experiments/AOT/AOT_stimuli/rescaled_final/1211_rv.mp4	0.0	258.28665804862976	2.5001261234283447
55	239.50679683685303	pulse	1	t		53.0	2.5	/experiments/AOT/AOT_stimuli/rescaled_final/1211_rv.mp4	0.0	259.46971702575684	
55	240.8238639831543	fix_post	2		12	53.0	2.5	/experiments/AOT/AOT_stimuli/rescaled_final/1211_rv.mp4	0.0	260.7867841720581	0.09956884384155273
56	240.92343282699585	fix_pre	0		120	54.0	2.5	blank	1.0	260.88635301589966	1.0002570152282715
56	241.10695695877075	pulse	0	t		54.0	2.5	blank	1.0	261.06987714767456	
56	241.92368984222412	movie	1		300	54.0	2.5	blank	1.0	261.88661003112793	2.499985933303833
56	242.70715379714966	pulse	1	t		54.0	2.5	blank	1.0	262.67007398605347	
56	244.307119846344	pulse	1	t		54.0	2.5	blank	1.0	264.2700400352478	
56	244.42367577552795	fix_post	2		12	54.0	2.5	blank	1.0	264.38659596443176	0.09993720054626465
57	244.52361297607422	fix_pre	0		120	55.0	2.5	/experiments/AOT/AOT_stimuli/rescaled_final/0117_rv.mp4	0.0	264.486533164978	0.9996769428253174
57	245.52328991889954	movie	1		245	55.0	2.5	/experiments/AOT/AOT_stimuli/rescaled_final/0117_rv.mp4	0.0	265.48621010780334	2.500269889831543
57	245.9065718650818	pulse	1	t		55.0	2.5	/experiments/AOT/AOT_stimuli/rescaled_final/0117_rv.mp4	0.0	265.8694920539856	
57	247.50707578659058	pulse	1	t		55.0	2.5	/experiments/AOT/AOT_stimuli/rescaled_final/0117_rv.mp4	0.0	267.4699959754944	
57	248.02355980873108	fix_post	2		12	55.0	2.5	/experiments/AOT/AOT_stimuli/rescaled_final/0117_rv.mp4	0.0	267.9864799976349	0.10004019737243652
58	248.12360000610352	fix_pre	0		119	56.0	2.5	/experiments/AOT/AOT_stimuli/rescaled_final/1527_fw.mp4	0.0	268.0865201950073	0.9916839599609375
58	249.1071059703827	pulse	0	t		56.0	2.5	/experiments/AOT/AOT_stimuli/rescaled_final/1527_fw.mp4	0.0	269.0700261592865	
58	249.11528396606445	movie	1		251	56.0	2.5	/experiments/AOT/AOT_stimuli/rescaled_final/1527_fw.mp4	0.0	269.07820415496826	2.5082709789276123
58	250.7068898677826	pulse	1	t		56.0	2.5	/experiments/AOT/AOT_stimuli/rescaled_final/1527_fw.mp4	0.0	270.6698100566864	
58	251.62355494499207	fix_post	2		12	56.0	2.5	/experiments/AOT/AOT_stimuli/rescaled_final/1527_fw.mp4	0.0	271.5864751338959	0.0999460220336914
59	251.72350096702576	fix_pre	0		120	57.0	2.5	/experiments/AOT/AOT_stimuli/rescaled_final/2008_fw.mp4	0.0	271.68642115592957	1.0000169277191162
59	252.30702590942383	pulse	0	t		57.0	2.5	/experiments/AOT/AOT_stimuli/rescaled_final/2008_fw.mp4	0.0	272.26994609832764	
59	252.72351789474487	movie	1		245	57.0	2.5	/experiments/AOT/AOT_stimuli/rescaled_final/2008_fw.mp4	0.0	272.6864380836487	2.4999959468841553
59	253.90715289115906	pulse	1	t		57.0	2.5	/experiments/AOT/AOT_stimuli/rescaled_final/2008_fw.mp4	0.0	273.87007308006287	
59	255.22351384162903	fix_post	2		12	57.0	2.5	/experiments/AOT/AOT_stimuli/rescaled_final/2008_fw.mp4	0.0	275.18643403053284	0.10000014305114746
60	255.32351398468018	fix_pre	0		120	58.0	2.5	/experiments/AOT/AOT_stimuli/rescaled_final/1522_rv.mp4	0.0	275.286434173584	1.00003981590271
60	255.50706887245178	pulse	0	t		58.0	2.5	/experiments/AOT/AOT_stimuli/rescaled_final/1522_rv.mp4	0.0	275.4699890613556	
60	256.3235538005829	movie	1		246	58.0	2.5	/experiments/AOT/AOT_stimuli/rescaled_final/1522_rv.mp4	0.0	276.2864739894867	2.4999639987945557
60	257.1071310043335	pulse	1	t		58.0	2.5	/experiments/AOT/AOT_stimuli/rescaled_final/1522_rv.mp4	0.0	277.0700511932373	
60	258.7054708003998	pulse	1	t		58.0	2.5	/experiments/AOT/AOT_stimuli/rescaled_final/1522_rv.mp4	0.0	278.6683909893036	
60	258.82351779937744	fix_post	2		12	58.0	2.5	/experiments/AOT/AOT_stimuli/rescaled_final/1522_rv.mp4	0.0	278.78643798828125	0.09997820854187012
61	258.9234960079193	fix_pre	0		120	59.0	2.5	/experiments/AOT/AOT_stimuli/rescaled_final/0621_rv.mp4	0.0	278.8864161968231	0.9999828338623047
61	259.9234788417816	movie	1		243	59.0	2.5	/experiments/AOT/AOT_stimuli/rescaled_final/0621_rv.mp4	0.0	279.8863990306854	2.499577045440674
61	260.3071219921112	pulse	1	t		59.0	2.5	/experiments/AOT/AOT_stimuli/rescaled_final/0621_rv.mp4	0.0	280.270042181015	
61	261.90712690353394	pulse	1	t		59.0	2.5	/experiments/AOT/AOT_stimuli/rescaled_final/0621_rv.mp4	0.0	281.87004709243774	
61	262.4230558872223	fix_post	2		12	59.0	2.5	/experiments/AOT/AOT_stimuli/rescaled_final/0621_rv.mp4	0.0	282.3859760761261	0.1004490852355957
62	262.5235049724579	fix_pre	0		119	60.0	2.5	/experiments/AOT/AOT_stimuli/rescaled_final/0686_fw.mp4	0.0	282.4864251613617	0.9916479587554932
62	263.5069317817688	pulse	0	t		60.0	2.5	/experiments/AOT/AOT_stimuli/rescaled_final/0686_fw.mp4	0.0	283.4698519706726	
62	263.5151529312134	movie	1		244	60.0	2.5	/experiments/AOT/AOT_stimuli/rescaled_final/0686_fw.mp4	0.0	283.4780731201172	2.5083489418029785
62	265.1083378791809	pulse	1	t		60.0	2.5	/experiments/AOT/AOT_stimuli/rescaled_final/0686_fw.mp4	0.0	285.0712580680847	
62	266.02350187301636	fix_post	2		12	60.0	2.5	/experiments/AOT/AOT_stimuli/rescaled_final/0686_fw.mp4	0.0	285.98642206192017	0.09995794296264648
63	266.123459815979	fix_pre	0		120	61.0	2.5	/experiments/AOT/AOT_stimuli/rescaled_final/0404_rv.mp4	0.0	286.0863800048828	1.0000309944152832
63	266.70704197883606	pulse	0	t		61.0	2.5	/experiments/AOT/AOT_stimuli/rescaled_final/0404_rv.mp4	0.0	286.66996216773987	
63	267.1234908103943	movie	1		243	61.0	2.5	/experiments/AOT/AOT_stimuli/rescaled_final/0404_rv.mp4	0.0	287.0864109992981	2.4999990463256836
63	268.307012796402	pulse	1	t		61.0	2.5	/experiments/AOT/AOT_stimuli/rescaled_final/0404_rv.mp4	0.0	288.2699329853058	
63	269.62348985671997	fix_post	2		12	61.0	2.5	/experiments/AOT/AOT_stimuli/rescaled_final/0404_rv.mp4	0.0	289.5864100456238	0.10001993179321289
64	269.7235097885132	fix_pre	0		120	62.0	2.5	/experiments/AOT/AOT_stimuli/rescaled_final/0678_rv.mp4	0.0	289.686429977417	0.9999890327453613
64	269.9070007801056	pulse	0	t		62.0	2.5	/experiments/AOT/AOT_stimuli/rescaled_final/0678_rv.mp4	0.0	289.8699209690094	
64	270.72349882125854	movie	1		244	62.0	2.5	/experiments/AOT/AOT_stimuli/rescaled_final/0678_rv.mp4	0.0	290.68641901016235	2.499955177307129
64	271.5069389343262	pulse	1	t		62.0	2.5	/experiments/AOT/AOT_stimuli/rescaled_final/0678_rv.mp4	0.0	291.46985912323	
64	273.1056158542633	pulse	1	t		62.0	2.5	/experiments/AOT/AOT_stimuli/rescaled_final/0678_rv.mp4	0.0	293.0685360431671	
64	273.2234539985657	fix_post	2		12	62.0	2.5	/experiments/AOT/AOT_stimuli/rescaled_final/0678_rv.mp4	0.0	293.1863741874695	0.09999585151672363
65	273.3234498500824	fix_pre	0		120	63.0	2.5	blank	1.0	293.2863700389862	0.9999420642852783
65	274.3233919143677	movie	1		300	63.0	2.5	blank	1.0	294.2863121032715	2.5000479221343994
65	274.70691895484924	pulse	1	t		63.0	2.5	blank	1.0	294.66983914375305	
65	276.3069529533386	pulse	1	t		63.0	2.5	blank	1.0	296.26987314224243	
65	276.8234398365021	fix_post	2		12	63.0	2.5	blank	1.0	296.7863600254059	0.09993100166320801
66	276.9233708381653	fix_pre	0		119	64.0	2.5	/experiments/AOT/AOT_stimuli/rescaled_final/1581_fw.mp4	0.0	296.8862910270691	0.9916810989379883
66	277.90690183639526	pulse	0	t		64.0	2.5	/experiments/AOT/AOT_stimuli/rescaled_final/1581_fw.mp4	0.0	297.8698220252991	
66	277.91505193710327	movie	1		248	64.0	2.5	/experiments/AOT/AOT_stimuli/rescaled_final/1581_fw.mp4	0.0	297.8779721260071	2.508415937423706
66	279.50637698173523	pulse	1	t		64.0	2.5	/experiments/AOT/AOT_stimuli/rescaled_final/1581_fw.mp4	0.0	299.46929717063904	
66	280.423467874527	fix_post	2		12	64.0	2.5	/experiments/AOT/AOT_stimuli/rescaled_final/1581_fw.mp4	0.0	300.3863880634308	0.09997105598449707
67	280.5234389305115	fix_pre	0		120	65.0	2.5	/experiments/AOT/AOT_stimuli/rescaled_final/1899_rv.mp4	0.0	300.4863591194153	0.9995670318603516
67	281.10811591148376	pulse	0	t		65.0	2.5	/experiments/AOT/AOT_stimuli/rescaled_final/1899_rv.mp4	0.0	301.0710361003876	
67	281.5230059623718	movie	1		243	65.0	2.5	/experiments/AOT/AOT_stimuli/rescaled_final/1899_rv.mp4	0.0	301.48592615127563	2.499979019165039
67	282.7069628238678	pulse	1	t		65.0	2.5	/experiments/AOT/AOT_stimuli/rescaled_final/1899_rv.mp4	0.0	302.6698830127716	
67	284.02298498153687	fix_post	2		12	65.0	2.5	/experiments/AOT/AOT_stimuli/rescaled_final/1899_rv.mp4	0.0	303.9859051704407	0.10037994384765625
68	284.1233649253845	fix_pre	0		120	66.0	2.5	/experiments/AOT/AOT_stimuli/rescaled_final/0705_fw.mp4	0.0	304.08628511428833	1.0000810623168945
68	284.30684995651245	pulse	0	t		66.0	2.5	/experiments/AOT/AOT_stimuli/rescaled_final/0705_fw.mp4	0.0	304.26977014541626	
68	285.1234459877014	movie	1		244	66.0	2.5	/experiments/AOT/AOT_stimuli/rescaled_final/0705_fw.mp4	0.0	305.0863661766052	2.4999477863311768
68	285.9068729877472	pulse	1	t		66.0	2.5	/experiments/AOT/AOT_stimuli/rescaled_final/0705_fw.mp4	0.0	305.869793176651	
68	287.50538992881775	pulse	1	t		66.0	2.5	/experiments/AOT/AOT_stimuli/rescaled_final/0705_fw.mp4	0.0	307.46831011772156	
68	287.6233937740326	fix_post	2		12	66.0	2.5	/experiments/AOT/AOT_stimuli/rescaled_final/0705_fw.mp4	0.0	307.5863139629364	0.09994912147521973
69	287.7233428955078	fix_pre	0		120	67.0	2.5	/experiments/AOT/AOT_stimuli/rescaled_final/0980_fw.mp4	0.0	307.6862630844116	1.0000300407409668
69	288.7233729362488	movie	1		242	67.0	2.5	/experiments/AOT/AOT_stimuli/rescaled_final/0980_fw.mp4	0.0	308.6862931251526	2.4996068477630615
69	289.1064808368683	pulse	1	t		67.0	2.5	/experiments/AOT/AOT_stimuli/rescaled_final/0980_fw.mp4	0.0	309.0694010257721	
69	290.7068359851837	pulse	1	t		67.0	2.5	/experiments/AOT/AOT_stimuli/rescaled_final/0980_fw.mp4	0.0	310.6697561740875	
69	291.22297978401184	fix_post	2		12	67.0	2.5	/experiments/AOT/AOT_stimuli/rescaled_final/0980_fw.mp4	0.0	311.18589997291565	0.10042500495910645
70	291.32340478897095	fix_pre	0		119	68.0	2.5	blank	1.0	311.28632497787476	0.9916441440582275
70	292.3069658279419	pulse	0	t		68.0	2.5	blank	1.0	312.2698860168457	
70	292.3150489330292	movie	1		301	68.0	2.5	blank	1.0	312.277969121933	2.507943868637085
70	293.9069068431854	pulse	1	t		68.0	2.5	blank	1.0	313.86982703208923	
70	294.82299280166626	fix_post	2		12	68.0	2.5	blank	1.0	314.78591299057007	0.10042119026184082
71	294.9234139919281	fix_pre	0		120	69.0	2.5	/experiments/AOT/AOT_stimuli/rescaled_final/0248_rv.mp4	0.0	314.8863341808319	1.0000319480895996
71	295.5068738460541	pulse	0	t		69.0	2.5	/experiments/AOT/AOT_stimuli/rescaled_final/0248_rv.mp4	0.0	315.4697940349579	
71	295.9234459400177	movie	1		245	69.0	2.5	/experiments/AOT/AOT_stimuli/rescaled_final/0248_rv.mp4	0.0	315.8863661289215	2.4996259212493896
71	297.1071968078613	pulse	1	t		69.0	2.5	/experiments/AOT/AOT_stimuli/rescaled_final/0248_rv.mp4	0.0	317.07011699676514	
71	298.4230718612671	fix_post	2		12	69.0	2.5	/experiments/AOT/AOT_stimuli/rescaled_final/0248_rv.mp4	0.0	318.3859920501709	0.10030794143676758
72	298.52337980270386	fix_pre	0		120	70.0	2.5	/experiments/AOT/AOT_stimuli/rescaled_final/1573_rv.mp4	0.0	318.48629999160767	1.000020980834961
72	298.70687890052795	pulse	0	t		70.0	2.5	/experiments/AOT/AOT_stimuli/rescaled_final/1573_rv.mp4	0.0	318.66979908943176	
72	299.5234007835388	movie	1		245	70.0	2.5	/experiments/AOT/AOT_stimuli/rescaled_final/1573_rv.mp4	0.0	319.4863209724426	2.499875068664551
72	300.3067698478699	pulse	1	t		70.0	2.5	/experiments/AOT/AOT_stimuli/rescaled_final/1573_rv.mp4	0.0	320.2696900367737	
72	301.90571784973145	pulse	1	t		70.0	2.5	/experiments/AOT/AOT_stimuli/rescaled_final/1573_rv.mp4	0.0	321.86863803863525	
72	302.02327585220337	fix_post	2		12	70.0	2.5	/experiments/AOT/AOT_stimuli/rescaled_final/1573_rv.mp4	0.0	321.9861960411072	0.10002994537353516
73	302.1233057975769	fix_pre	0		120	71.0	2.5	/experiments/AOT/AOT_stimuli/rescaled_final/0078_fw.mp4	0.0	322.0862259864807	0.9999940395355225
73	303.1232998371124	movie	1		247	71.0	2.5	/experiments/AOT/AOT_stimuli/rescaled_final/0078_fw.mp4	0.0	323.08622002601624	2.49992299079895
73	303.5075259208679	pulse	1	t		71.0	2.5	/experiments/AOT/AOT_stimuli/rescaled_final/0078_fw.mp4	0.0	323.47044610977173	
73	305.10678577423096	pulse	1	t		71.0	2.5	/experiments/AOT/AOT_stimuli/rescaled_final/0078_fw.mp4	0.0	325.06970596313477	
73	305.6232228279114	fix_post	2		12	71.0	2.5	/experiments/AOT/AOT_stimuli/rescaled_final/0078_fw.mp4	0.0	325.5861430168152	0.10004615783691406
74	305.7232689857483	fix_pre	0		119	72.0	2.5	/experiments/AOT/AOT_stimuli/rescaled_final/1820_fw.mp4	0.0	325.6861891746521	0.9918069839477539
74	306.70674681663513	pulse	0	t		72.0	2.5	/experiments/AOT/AOT_stimuli/rescaled_final/1820_fw.mp4	0.0	326.66966700553894	
74	306.71507596969604	movie	1		246	72.0	2.5	/experiments/AOT/AOT_stimuli/rescaled_final/1820_fw.mp4	0.0	326.67799615859985	2.5082178115844727
74	308.3062767982483	pulse	1	t		72.0	2.5	/experiments/AOT/AOT_stimuli/rescaled_final/1820_fw.mp4	0.0	328.2691969871521	
74	309.2232937812805	fix_post	2		12	72.0	2.5	/experiments/AOT/AOT_stimuli/rescaled_final/1820_fw.mp4	0.0	329.1862139701843	0.09991312026977539
75	309.3232069015503	fix_pre	0		120	73.0	2.5	/experiments/AOT/AOT_stimuli/rescaled_final/0676_rv.mp4	0.0	329.2861270904541	1.0000510215759277
75	309.9068069458008	pulse	0	t		73.0	2.5	/experiments/AOT/AOT_stimuli/rescaled_final/0676_rv.mp4	0.0	329.8697271347046	
75	310.3232579231262	movie	1		243	73.0	2.5	/experiments/AOT/AOT_stimuli/rescaled_final/0676_rv.mp4	0.0	330.28617811203003	2.5000500679016113
75	311.5067868232727	pulse	1	t		73.0	2.5	/experiments/AOT/AOT_stimuli/rescaled_final/0676_rv.mp4	0.0	331.4697070121765	
75	312.82330799102783	fix_post	2		12	73.0	2.5	/experiments/AOT/AOT_stimuli/rescaled_final/0676_rv.mp4	0.0	332.78622817993164	0.09994387626647949
76	312.9232518672943	fix_pre	0		120	74.0	2.5	/experiments/AOT/AOT_stimuli/rescaled_final/0256_rv.mp4	0.0	332.8861720561981	1.0000300407409668
76	313.10680294036865	pulse	0	t		74.0	2.5	/experiments/AOT/AOT_stimuli/rescaled_final/0256_rv.mp4	0.0	333.06972312927246	
76	313.9232819080353	movie	1		243	74.0	2.5	/experiments/AOT/AOT_stimuli/rescaled_final/0256_rv.mp4	0.0	333.8862020969391	2.499856948852539
76	314.706729888916	pulse	1	t		74.0	2.5	/experiments/AOT/AOT_stimuli/rescaled_final/0256_rv.mp4	0.0	334.6696500778198	
76	316.30543184280396	pulse	1	t		74.0	2.5	/experiments/AOT/AOT_stimuli/rescaled_final/0256_rv.mp4	0.0	336.26835203170776	
76	316.4231388568878	fix_post	2		12	74.0	2.5	/experiments/AOT/AOT_stimuli/rescaled_final/0256_rv.mp4	0.0	336.3860590457916	0.10009312629699707
77	316.5232319831848	fix_pre	0		120	75.0	2.5	blank	1.0	336.4861521720886	1.0000228881835938
77	317.5232548713684	movie	1		300	75.0	2.5	blank	1.0	337.4861750602722	2.5000040531158447
77	317.9066457748413	pulse	1	t		75.0	2.5	blank	1.0	337.8695659637451	
77	319.50674080848694	pulse	1	t		75.0	2.5	blank	1.0	339.46966099739075	
77	320.02325892448425	fix_post	2		12	75.0	2.5	blank	1.0	339.98617911338806	0.10000491142272949
78	320.123263835907	fix_pre	0		119	76.0	2.5	/experiments/AOT/AOT_stimuli/rescaled_final/1924_fw.mp4	0.0	340.0861840248108	0.9916050434112549
78	321.1066908836365	pulse	0	t		76.0	2.5	/experiments/AOT/AOT_stimuli/rescaled_final/1924_fw.mp4	0.0	341.0696110725403	
78	321.11486887931824	movie	1		246	76.0	2.5	/experiments/AOT/AOT_stimuli/rescaled_final/1924_fw.mp4	0.0	341.07778906822205	2.507887125015259
78	322.7079689502716	pulse	1	t		76.0	2.5	/experiments/AOT/AOT_stimuli/rescaled_final/1924_fw.mp4	0.0	342.6708891391754	
78	323.6227560043335	fix_post	2		12	76.0	2.5	/experiments/AOT/AOT_stimuli/rescaled_final/1924_fw.mp4	0.0	343.5856761932373	0.10047388076782227
79	323.7232298851013	fix_pre	0		120	77.0	2.5	/experiments/AOT/AOT_stimuli/rescaled_final/1593_rv.mp4	0.0	343.6861500740051	0.9999470710754395
79	324.30688095092773	pulse	0	t		77.0	2.5	/experiments/AOT/AOT_stimuli/rescaled_final/1593_rv.mp4	0.0	344.26980113983154	
79	324.72317695617676	movie	1		244	77.0	2.5	/experiments/AOT/AOT_stimuli/rescaled_final/1593_rv.mp4	0.0	344.68609714508057	2.499846935272217
79	325.90678882598877	pulse	1	t		77.0	2.5	/experiments/AOT/AOT_stimuli/rescaled_final/1593_rv.mp4	0.0	345.8697090148926	
79	327.223023891449	fix_post	2		12	77.0	2.5	/experiments/AOT/AOT_stimuli/rescaled_final/1593_rv.mp4	0.0	347.1859440803528	0.10019898414611816
80	327.3232228755951	fix_pre	0		120	78.0	2.5	/experiments/AOT/AOT_stimuli/rescaled_final/1211_rv.mp4	0.0	347.2861430644989	0.9994981288909912
80	327.50665497779846	pulse	0	t		78.0	2.5	/experiments/AOT/AOT_stimuli/rescaled_final/1211_rv.mp4	0.0	347.46957516670227	
80	328.3227210044861	movie	1		244	78.0	2.5	/experiments/AOT/AOT_stimuli/rescaled_final/1211_rv.mp4	0.0	348.2856411933899	2.5004639625549316
80	329.10663080215454	pulse	1	t		78.0	2.5	/experiments/AOT/AOT_stimuli/rescaled_final/1211_rv.mp4	0.0	349.06955099105835	
80	330.70522594451904	pulse	1	t		78.0	2.5	/experiments/AOT/AOT_stimuli/rescaled_final/1211_rv.mp4	0.0	350.66814613342285	
80	330.823184967041	fix_post	2		12	78.0	2.5	/experiments/AOT/AOT_stimuli/rescaled_final/1211_rv.mp4	0.0	350.7861051559448	0.09995388984680176
81	330.9231388568878	fix_pre	0		120	79.0	2.5	/experiments/AOT/AOT_stimuli/rescaled_final/0756_fw.mp4	0.0	350.8860590457916	1.0001239776611328
81	331.92326283454895	movie	1		245	79.0	2.5	/experiments/AOT/AOT_stimuli/rescaled_final/0756_fw.mp4	0.0	351.88618302345276	2.499969005584717
81	332.30634689331055	pulse	1	t		79.0	2.5	/experiments/AOT/AOT_stimuli/rescaled_final/0756_fw.mp4	0.0	352.26926708221436	
81	333.9065968990326	pulse	1	t		79.0	2.5	/experiments/AOT/AOT_stimuli/rescaled_final/0756_fw.mp4	0.0	353.8695170879364	
81	334.42323184013367	fix_post	2		12	79.0	2.5	/experiments/AOT/AOT_stimuli/rescaled_final/0756_fw.mp4	0.0	354.3861520290375	0.09996795654296875
82	334.52319979667664	fix_pre	0		119	80.0	2.5	/experiments/AOT/AOT_stimuli/rescaled_final/0745_rv.mp4	0.0	354.48611998558044	0.9916679859161377
82	335.50665497779846	pulse	0	t		80.0	2.5	/experiments/AOT/AOT_stimuli/rescaled_final/0745_rv.mp4	0.0	355.46957516670227	
82	335.5148677825928	movie	1		246	80.0	2.5	/experiments/AOT/AOT_stimuli/rescaled_final/0745_rv.mp4	0.0	355.4777879714966	2.508296012878418
82	337.10634183883667	pulse	1	t		80.0	2.5	/experiments/AOT/AOT_stimuli/rescaled_final/0745_rv.mp4	0.0	357.0692620277405	
82	338.0231637954712	fix_post	2		12	80.0	2.5	/experiments/AOT/AOT_stimuli/rescaled_final/0745_rv.mp4	0.0	357.986083984375	0.09992408752441406
83	338.1230878829956	fix_pre	0		120	81.0	2.5	/experiments/AOT/AOT_stimuli/rescaled_final/0808_rv.mp4	0.0	358.0860080718994	1.0000760555267334
83	338.7065119743347	pulse	0	t		81.0	2.5	/experiments/AOT/AOT_stimuli/rescaled_final/0808_rv.mp4	0.0	358.6694321632385	
83	339.12316393852234	movie	1		244	81.0	2.5	/experiments/AOT/AOT_stimuli/rescaled_final/0808_rv.mp4	0.0	359.08608412742615	2.4999639987945557
83	340.3066449165344	pulse	1	t		81.0	2.5	/experiments/AOT/AOT_stimuli/rescaled_final/0808_rv.mp4	0.0	360.26956510543823	
83	341.6231279373169	fix_post	2		12	81.0	2.5	/experiments/AOT/AOT_stimuli/rescaled_final/0808_rv.mp4	0.0	361.5860481262207	0.10000205039978027
84	341.7231299877167	fix_pre	0		120	82.0	2.5	/experiments/AOT/AOT_stimuli/rescaled_final/1278_rv.mp4	0.0	361.6860501766205	0.9995198249816895
84	341.90656781196594	pulse	0	t		82.0	2.5	/experiments/AOT/AOT_stimuli/rescaled_final/1278_rv.mp4	0.0	361.86948800086975	
84	342.72264981269836	movie	1		244	82.0	2.5	/experiments/AOT/AOT_stimuli/rescaled_final/1278_rv.mp4	0.0	362.6855700016022	2.5004591941833496
84	343.50650000572205	pulse	1	t		82.0	2.5	/experiments/AOT/AOT_stimuli/rescaled_final/1278_rv.mp4	0.0	363.46942019462585	
84	345.1026179790497	pulse	1	t		82.0	2.5	/experiments/AOT/AOT_stimuli/rescaled_final/1278_rv.mp4	0.0	365.0655381679535	
84	345.2231090068817	fix_post	2		12	82.0	2.5	/experiments/AOT/AOT_stimuli/rescaled_final/1278_rv.mp4	0.0	365.1860291957855	0.09991598129272461
85	345.32302498817444	fix_pre	0		120	83.0	2.5	blank	1.0	365.28594517707825	1.0002119541168213
85	346.32323694229126	movie	1		300	83.0	2.5	blank	1.0	366.28615713119507	2.49995493888855
85	346.7065508365631	pulse	1	t		83.0	2.5	blank	1.0	366.6694710254669	
85	348.30643582344055	pulse	1	t		83.0	2.5	blank	1.0	368.26935601234436	
85	348.8231918811798	fix_post	2		12	83.0	2.5	blank	1.0	368.7861120700836	0.09998607635498047
87	348.9231779575348	stim	0		1716					368.8860981464386	14.299881935119629
87	349.90660095214844	pulse	0	t						369.86952114105225	
87	351.5061810016632	pulse	0	t						371.469101190567	
87	353.1063377857208	pulse	0	t						373.06925797462463	
87	354.70649695396423	pulse	0	t						374.66941714286804	
87	356.306569814682	pulse	0	t						376.2694900035858	
87	357.90656185150146	pulse	0	t						377.8694820404053	
87	359.50652289390564	pulse	0	t						379.46944308280945	
87	361.1063988208771	pulse	0	t						381.0693190097809	
87	362.70640778541565	pulse	0	t						382.66932797431946	
