trial_nr	onset	event_type	phase	response	nr_frames	movie_index	movie_duration	movie_file	blank	onset_abs	duration
0	0.14202404022216797	stim	0		178					21.60769009590149	1.4828197956085205
0	1.6168599128723145	response	0	space						23.082525968551636	
1	1.6248438358306885	stim	0		4643					23.09050989151001	38.69147515296936
1	40.3116888999939	pulse	0	t						61.77735495567322	
1	40.31631898880005	stim	1		1717					61.78198504447937	14.308241844177246
1	41.90818405151367	pulse	1	t						63.37385010719299	
1	43.50813603401184	pulse	1	t						64.97380208969116	
1	45.108124017715454	pulse	1	t						66.57379007339478	
1	46.70812106132507	pulse	1	t						68.1737871170044	
1	48.308100938797	pulse	1	t						69.77376699447632	
1	49.90805983543396	pulse	1	t						71.37372589111328	
1	51.508095026016235	pulse	1	t						72.97376108169556	
1	53.10807204246521	pulse	1	t						74.57373809814453	
2	54.624560832977295	fix_pre	0		11	0.0	2.5	/experiments/AOT/AOT_stimuli/rescaled_final/0824_fw.mp4	0.0	76.09022688865662	0.09166622161865234
2	54.70803189277649	pulse	0	t		0.0	2.5	/experiments/AOT/AOT_stimuli/rescaled_final/0824_fw.mp4	0.0	76.17369794845581	
2	54.71622705459595	movie	1		244	0.0	2.5	/experiments/AOT/AOT_stimuli/rescaled_final/0824_fw.mp4	0.0	76.18189311027527	2.5079147815704346
2	56.307512044906616	pulse	1	t		0.0	2.5	/experiments/AOT/AOT_stimuli/rescaled_final/0824_fw.mp4	0.0	77.77317810058594	
2	57.22414183616638	fix_post	2		12	0.0	2.5	/experiments/AOT/AOT_stimuli/rescaled_final/0824_fw.mp4	0.0	78.6898078918457	0.10005712509155273
3	57.324198961257935	fix_pre	0		120	1.0	2.5	/experiments/AOT/AOT_stimuli/rescaled_final/1841_rv.mp4	0.0	78.78986501693726	1.0004920959472656
3	57.90812683105469	pulse	0	t		1.0	2.5	/experiments/AOT/AOT_stimuli/rescaled_final/1841_rv.mp4	0.0	79.37379288673401	
3	58.3246910572052	movie	1		245	1.0	2.5	/experiments/AOT/AOT_stimuli/rescaled_final/1841_rv.mp4	0.0	79.79035711288452	2.4993669986724854
3	59.50818395614624	pulse	1	t		1.0	2.5	/experiments/AOT/AOT_stimuli/rescaled_final/1841_rv.mp4	0.0	80.97385001182556	
3	60.824058055877686	fix_post	2		12	1.0	2.5	/experiments/AOT/AOT_stimuli/rescaled_final/1841_rv.mp4	0.0	82.289724111557	0.1005239486694336
4	60.92458200454712	fix_pre	0		120	2.0	2.5	/experiments/AOT/AOT_stimuli/rescaled_final/1569_rv.mp4	0.0	82.39024806022644	0.9999668598175049
4	61.10819697380066	pulse	0	t		2.0	2.5	/experiments/AOT/AOT_stimuli/rescaled_final/1569_rv.mp4	0.0	82.57386302947998	
4	61.924548864364624	movie	1		244	2.0	2.5	/experiments/AOT/AOT_stimuli/rescaled_final/1569_rv.mp4	0.0	83.39021492004395	2.499584197998047
4	62.70802283287048	pulse	1	t		2.0	2.5	/experiments/AOT/AOT_stimuli/rescaled_final/1569_rv.mp4	0.0	84.1736888885498	
4	64.30667304992676	pulse	1	t		2.0	2.5	/experiments/AOT/AOT_stimuli/rescaled_final/1569_rv.mp4	0.0	85.77233910560608	
4	64.42413306236267	fix_post	2		12	2.0	2.5	/experiments/AOT/AOT_stimuli/rescaled_final/1569_rv.mp4	0.0	85.88979911804199	0.10040497779846191
5	64.52453804016113	fix_pre	0		120	3.0	2.5	/experiments/AOT/AOT_stimuli/rescaled_final/2124_fw.mp4	0.0	85.99020409584045	1.0000109672546387
5	65.52454900741577	movie	1		244	3.0	2.5	/experiments/AOT/AOT_stimuli/rescaled_final/2124_fw.mp4	0.0	86.99021506309509	2.4995360374450684
5	65.9075539112091	pulse	1	t		3.0	2.5	/experiments/AOT/AOT_stimuli/rescaled_final/2124_fw.mp4	0.0	87.37321996688843	
5	67.50806283950806	pulse	1	t		3.0	2.5	/experiments/AOT/AOT_stimuli/rescaled_final/2124_fw.mp4	0.0	88.97372889518738	
5	68.02408504486084	fix_post	2		12	3.0	2.5	/experiments/AOT/AOT_stimuli/rescaled_final/2124_fw.mp4	0.0	89.48975110054016	0.10042095184326172
6	68.1245059967041	fix_pre	0		119	4.0	2.5	/experiments/AOT/AOT_stimuli/rescaled_final/1563_fw.mp4	0.0	89.59017205238342	0.9917600154876709
6	69.10809397697449	pulse	0	t		4.0	2.5	/experiments/AOT/AOT_stimuli/rescaled_final/1563_fw.mp4	0.0	90.57376003265381	
6	69.11626601219177	movie	1		245	4.0	2.5	/experiments/AOT/AOT_stimuli/rescaled_final/1563_fw.mp4	0.0	90.5819320678711	2.507845878601074
6	70.70924806594849	pulse	1	t		4.0	2.5	/experiments/AOT/AOT_stimuli/rescaled_final/1563_fw.mp4	0.0	92.17491412162781	
6	71.62411189079285	fix_post	2		12	4.0	2.5	/experiments/AOT/AOT_stimuli/rescaled_final/1563_fw.mp4	0.0	93.08977794647217	0.10000205039978027
7	71.72411394119263	fix_pre	0		120	5.0	2.5	/experiments/AOT/AOT_stimuli/rescaled_final/1360_rv.mp4	0.0	93.18977999687195	1.0004339218139648
7	72.30804586410522	pulse	0	t		5.0	2.5	/experiments/AOT/AOT_stimuli/rescaled_final/1360_rv.mp4	0.0	93.77371191978455	
7	72.72454786300659	movie	1		246	5.0	2.5	/experiments/AOT/AOT_stimuli/rescaled_final/1360_rv.mp4	0.0	94.19021391868591	2.4996681213378906
7	73.90768694877625	pulse	1	t		5.0	2.5	/experiments/AOT/AOT_stimuli/rescaled_final/1360_rv.mp4	0.0	95.37335300445557	
7	75.22421598434448	fix_post	2		12	5.0	2.5	/experiments/AOT/AOT_stimuli/rescaled_final/1360_rv.mp4	0.0	96.6898820400238	0.10042595863342285
8	75.3246419429779	fix_pre	0		120	6.0	2.5	/experiments/AOT/AOT_stimuli/rescaled_final/0798_fw.mp4	0.0	96.79030799865723	0.9996979236602783
8	75.50811195373535	pulse	0	t		6.0	2.5	/experiments/AOT/AOT_stimuli/rescaled_final/0798_fw.mp4	0.0	96.97377800941467	
8	76.32433986663818	movie	1		243	6.0	2.5	/experiments/AOT/AOT_stimuli/rescaled_final/0798_fw.mp4	0.0	97.7900059223175	2.5002260208129883
8	77.10785293579102	pulse	1	t		6.0	2.5	/experiments/AOT/AOT_stimuli/rescaled_final/0798_fw.mp4	0.0	98.57351899147034	
8	78.70626902580261	pulse	1	t		6.0	2.5	/experiments/AOT/AOT_stimuli/rescaled_final/0798_fw.mp4	0.0	100.17193508148193	
8	78.82456588745117	fix_post	2		12	6.0	2.5	/experiments/AOT/AOT_stimuli/rescaled_final/0798_fw.mp4	0.0	100.2902319431305	0.09993696212768555
9	78.92450284957886	fix_pre	0		120	7.0	2.5	blank	1.0	100.39016890525818	1.0
9	79.92450284957886	movie	1		300	7.0	2.5	blank	1.0	101.39016890525818	2.4999310970306396
9	80.30788493156433	pulse	1	t		7.0	2.5	blank	1.0	101.77355098724365	
9	81.90788292884827	pulse	1	t		7.0	2.5	blank	1.0	103.37354898452759	
9	82.4244339466095	fix_post	2		12	7.0	2.5	blank	1.0	103.89010000228882	0.0999290943145752
10	82.52436304092407	fix_pre	0		119	8.0	2.5	/experiments/AOT/AOT_stimuli/rescaled_final/0055_rv.mp4	0.0	103.9900290966034	0.9917008876800537
10	83.50793385505676	pulse	0	t		8.0	2.5	/experiments/AOT/AOT_stimuli/rescaled_final/0055_rv.mp4	0.0	104.97359991073608	
10	83.51606392860413	movie	1		246	8.0	2.5	/experiments/AOT/AOT_stimuli/rescaled_final/0055_rv.mp4	0.0	104.98172998428345	2.508345127105713
10	85.10741591453552	pulse	1	t		8.0	2.5	/experiments/AOT/AOT_stimuli/rescaled_final/0055_rv.mp4	0.0	106.57308197021484	
10	86.02440905570984	fix_post	2		12	8.0	2.5	/experiments/AOT/AOT_stimuli/rescaled_final/0055_rv.mp4	0.0	107.49007511138916	0.10004591941833496
11	86.12445497512817	fix_pre	0		120	9.0	2.5	/experiments/AOT/AOT_stimuli/rescaled_final/0518_rv.mp4	0.0	107.5901210308075	0.9999830722808838
11	86.70795583724976	pulse	0	t		9.0	2.5	/experiments/AOT/AOT_stimuli/rescaled_final/0518_rv.mp4	0.0	108.17362189292908	
11	87.12443804740906	movie	1		244	9.0	2.5	/experiments/AOT/AOT_stimuli/rescaled_final/0518_rv.mp4	0.0	108.59010410308838	2.500001907348633
11	88.30806183815002	pulse	1	t		9.0	2.5	/experiments/AOT/AOT_stimuli/rescaled_final/0518_rv.mp4	0.0	109.77372789382935	
11	89.62443995475769	fix_post	2		12	9.0	2.5	/experiments/AOT/AOT_stimuli/rescaled_final/0518_rv.mp4	0.0	111.09010601043701	0.09993505477905273
12	89.72437500953674	fix_pre	0		120	10.0	2.5	/experiments/AOT/AOT_stimuli/rescaled_final/1923_rv.mp4	0.0	111.19004106521606	0.999992847442627
12	89.90793299674988	pulse	0	t		10.0	2.5	/experiments/AOT/AOT_stimuli/rescaled_final/1923_rv.mp4	0.0	111.3735990524292	
12	90.72436785697937	movie	1		247	10.0	2.5	/experiments/AOT/AOT_stimuli/rescaled_final/1923_rv.mp4	0.0	112.19003391265869	2.499979019165039
12	91.50789785385132	pulse	1	t		10.0	2.5	/experiments/AOT/AOT_stimuli/rescaled_final/1923_rv.mp4	0.0	112.97356390953064	
12	93.10406804084778	pulse	1	t		10.0	2.5	/experiments/AOT/AOT_stimuli/rescaled_final/1923_rv.mp4	0.0	114.5697340965271	
12	93.22434687614441	fix_post	2		12	10.0	2.5	/experiments/AOT/AOT_stimuli/rescaled_final/1923_rv.mp4	0.0	114.69001293182373	0.0996861457824707
13	93.32403302192688	fix_pre	0		120	11.0	2.5	/experiments/AOT/AOT_stimuli/rescaled_final/2048_fw.mp4	0.0	114.7896990776062	1.0004239082336426
13	94.32445693016052	movie	1		244	11.0	2.5	/experiments/AOT/AOT_stimuli/rescaled_final/2048_fw.mp4	0.0	115.79012298583984	2.4999189376831055
13	94.70896601676941	pulse	1	t		11.0	2.5	/experiments/AOT/AOT_stimuli/rescaled_final/2048_fw.mp4	0.0	116.17463207244873	
13	96.307865858078	pulse	1	t		11.0	2.5	/experiments/AOT/AOT_stimuli/rescaled_final/2048_fw.mp4	0.0	117.77353191375732	
13	96.82437586784363	fix_post	2		12	11.0	2.5	/experiments/AOT/AOT_stimuli/rescaled_final/2048_fw.mp4	0.0	118.29004192352295	0.09996914863586426
14	96.92434501647949	fix_pre	0		119	12.0	2.5	/experiments/AOT/AOT_stimuli/rescaled_final/1563_rv.mp4	0.0	118.39001107215881	0.9916110038757324
14	97.90786004066467	pulse	0	t		12.0	2.5	/experiments/AOT/AOT_stimuli/rescaled_final/1563_rv.mp4	0.0	119.373526096344	
14	97.91595602035522	movie	1		246	12.0	2.5	/experiments/AOT/AOT_stimuli/rescaled_final/1563_rv.mp4	0.0	119.38162207603455	2.5079448223114014
14	99.50754690170288	pulse	1	t		12.0	2.5	/experiments/AOT/AOT_stimuli/rescaled_final/1563_rv.mp4	0.0	120.9732129573822	
14	100.42390084266663	fix_post	2		12	12.0	2.5	/experiments/AOT/AOT_stimuli/rescaled_final/1563_rv.mp4	0.0	121.88956689834595	0.10048508644104004
15	100.52438592910767	fix_pre	0		120	13.0	2.5	/experiments/AOT/AOT_stimuli/rescaled_final/0120_rv.mp4	0.0	121.99005198478699	0.999946117401123
15	101.10788083076477	pulse	0	t		13.0	2.5	/experiments/AOT/AOT_stimuli/rescaled_final/0120_rv.mp4	0.0	122.57354688644409	
15	101.52433204650879	movie	1		243	13.0	2.5	/experiments/AOT/AOT_stimuli/rescaled_final/0120_rv.mp4	0.0	122.98999810218811	2.5004098415374756
15	102.70792889595032	pulse	1	t		13.0	2.5	/experiments/AOT/AOT_stimuli/rescaled_final/0120_rv.mp4	0.0	124.17359495162964	
15	104.02474188804626	fix_post	2		12	13.0	2.5	/experiments/AOT/AOT_stimuli/rescaled_final/0120_rv.mp4	0.0	125.49040794372559	0.09950613975524902
16	104.12424802780151	fix_pre	0		120	14.0	2.5	blank	1.0	125.58991408348083	0.9996628761291504
16	104.30777096748352	pulse	0	t		14.0	2.5	blank	1.0	125.77343702316284	
16	105.12391090393066	movie	1		300	14.0	2.5	blank	1.0	126.58957695960999	2.5004520416259766
16	105.9078049659729	pulse	1	t		14.0	2.5	blank	1.0	127.37347102165222	
16	107.50784492492676	pulse	1	t		14.0	2.5	blank	1.0	128.97351098060608	
16	107.62436294555664	fix_post	2		12	14.0	2.5	blank	1.0	129.09002900123596	0.1000220775604248
17	107.72438502311707	fix_pre	0		120	15.0	2.5	/experiments/AOT/AOT_stimuli/rescaled_final/1284_fw.mp4	0.0	129.1900510787964	0.9999058246612549
17	108.72429084777832	movie	1		244	15.0	2.5	/experiments/AOT/AOT_stimuli/rescaled_final/1284_fw.mp4	0.0	130.18995690345764	2.5001320838928223
17	109.10731792449951	pulse	1	t		15.0	2.5	/experiments/AOT/AOT_stimuli/rescaled_final/1284_fw.mp4	0.0	130.57298398017883	
17	110.70777702331543	pulse	1	t		15.0	2.5	/experiments/AOT/AOT_stimuli/rescaled_final/1284_fw.mp4	0.0	132.17344307899475	
17	111.22442293167114	fix_post	2		12	15.0	2.5	/experiments/AOT/AOT_stimuli/rescaled_final/1284_fw.mp4	0.0	132.69008898735046	0.09994912147521973
18	111.32437205314636	fix_pre	0		119	16.0	2.5	/experiments/AOT/AOT_stimuli/rescaled_final/1881_rv.mp4	0.0	132.79003810882568	0.9915978908538818
18	112.30785989761353	pulse	0	t		16.0	2.5	/experiments/AOT/AOT_stimuli/rescaled_final/1881_rv.mp4	0.0	133.77352595329285	
18	112.31596994400024	movie	1		248	16.0	2.5	/experiments/AOT/AOT_stimuli/rescaled_final/1881_rv.mp4	0.0	133.78163599967957	2.5079259872436523
18	113.90752005577087	pulse	1	t		16.0	2.5	/experiments/AOT/AOT_stimuli/rescaled_final/1881_rv.mp4	0.0	135.3731861114502	
18	114.8238959312439	fix_post	2		12	16.0	2.5	/experiments/AOT/AOT_stimuli/rescaled_final/1881_rv.mp4	0.0	136.28956198692322	0.10038399696350098
19	114.9242799282074	fix_pre	0		120	17.0	2.5	/experiments/AOT/AOT_stimuli/rescaled_final/1902_fw.mp4	0.0	136.38994598388672	1.0000429153442383
19	115.50778889656067	pulse	0	t		17.0	2.5	/experiments/AOT/AOT_stimuli/rescaled_final/1902_fw.mp4	0.0	136.97345495224	
19	115.92432284355164	movie	1		245	17.0	2.5	/experiments/AOT/AOT_stimuli/rescaled_final/1902_fw.mp4	0.0	137.38998889923096	2.499803066253662
19	117.10783386230469	pulse	1	t		17.0	2.5	/experiments/AOT/AOT_stimuli/rescaled_final/1902_fw.mp4	0.0	138.573499917984	
19	118.4241259098053	fix_post	2		12	17.0	2.5	/experiments/AOT/AOT_stimuli/rescaled_final/1902_fw.mp4	0.0	139.88979196548462	0.10022306442260742
20	118.5243489742279	fix_pre	0		120	18.0	2.5	/experiments/AOT/AOT_stimuli/rescaled_final/1172_fw.mp4	0.0	139.99001502990723	0.9998350143432617
20	118.70789504051208	pulse	0	t		18.0	2.5	/experiments/AOT/AOT_stimuli/rescaled_final/1172_fw.mp4	0.0	140.1735610961914	
20	119.52418398857117	movie	1		243	18.0	2.5	/experiments/AOT/AOT_stimuli/rescaled_final/1172_fw.mp4	0.0	140.9898500442505	2.5000529289245605
20	120.30785083770752	pulse	1	t		18.0	2.5	/experiments/AOT/AOT_stimuli/rescaled_final/1172_fw.mp4	0.0	141.77351689338684	
20	121.90619802474976	pulse	1	t		18.0	2.5	/experiments/AOT/AOT_stimuli/rescaled_final/1172_fw.mp4	0.0	143.37186408042908	
20	122.02423691749573	fix_post	2		12	18.0	2.5	/experiments/AOT/AOT_stimuli/rescaled_final/1172_fw.mp4	0.0	143.48990297317505	0.1000361442565918
21	122.12427306175232	fix_pre	0		120	19.0	2.5	/experiments/AOT/AOT_stimuli/rescaled_final/1127_rv.mp4	0.0	143.58993911743164	0.9999799728393555
21	123.12425303459167	movie	1		244	19.0	2.5	/experiments/AOT/AOT_stimuli/rescaled_final/1127_rv.mp4	0.0	144.589919090271	2.500027894973755
21	123.50729084014893	pulse	1	t		19.0	2.5	/experiments/AOT/AOT_stimuli/rescaled_final/1127_rv.mp4	0.0	144.97295689582825	
21	125.1078188419342	pulse	1	t		19.0	2.5	/experiments/AOT/AOT_stimuli/rescaled_final/1127_rv.mp4	0.0	146.57348489761353	
21	125.62428092956543	fix_post	2		12	19.0	2.5	/experiments/AOT/AOT_stimuli/rescaled_final/1127_rv.mp4	0.0	147.08994698524475	0.09999704360961914
22	125.72427797317505	fix_pre	0		119	20.0	2.5	blank	1.0	147.18994402885437	0.9917349815368652
22	126.70776391029358	pulse	0	t		20.0	2.5	blank	1.0	148.1734299659729	
22	126.71601295471191	movie	1		301	20.0	2.5	blank	1.0	148.18167901039124	2.5077810287475586
22	128.30774092674255	pulse	1	t		20.0	2.5	blank	1.0	149.77340698242188	
22	129.22379398345947	fix_post	2		12	20.0	2.5	blank	1.0	150.6894600391388	0.10045504570007324
23	129.32424902915955	fix_pre	0		120	21.0	2.5	/experiments/AOT/AOT_stimuli/rescaled_final/1641_rv.mp4	0.0	150.78991508483887	0.9996628761291504
23	129.90738105773926	pulse	0	t		21.0	2.5	/experiments/AOT/AOT_stimuli/rescaled_final/1641_rv.mp4	0.0	151.37304711341858	
23	130.3239119052887	movie	1		245	21.0	2.5	/experiments/AOT/AOT_stimuli/rescaled_final/1641_rv.mp4	0.0	151.78957796096802	2.5003089904785156
23	131.50754690170288	pulse	1	t		21.0	2.5	/experiments/AOT/AOT_stimuli/rescaled_final/1641_rv.mp4	0.0	152.9732129573822	
23	132.8242208957672	fix_post	2		12	21.0	2.5	/experiments/AOT/AOT_stimuli/rescaled_final/1641_rv.mp4	0.0	154.28988695144653	0.09996414184570312
24	132.92418503761292	fix_pre	0		120	22.0	2.5	/experiments/AOT/AOT_stimuli/rescaled_final/0618_rv.mp4	0.0	154.38985109329224	1.000044822692871
24	133.1077950000763	pulse	0	t		22.0	2.5	/experiments/AOT/AOT_stimuli/rescaled_final/0618_rv.mp4	0.0	154.57346105575562	
24	133.9242298603058	movie	1		247	22.0	2.5	/experiments/AOT/AOT_stimuli/rescaled_final/0618_rv.mp4	0.0	155.3898959159851	2.500068187713623
24	134.70758986473083	pulse	1	t		22.0	2.5	/experiments/AOT/AOT_stimuli/rescaled_final/0618_rv.mp4	0.0	156.17325592041016	
24	136.30373287200928	pulse	1	t		22.0	2.5	/experiments/AOT/AOT_stimuli/rescaled_final/0618_rv.mp4	0.0	157.7693989276886	
24	136.4242980480194	fix_post	2		12	22.0	2.5	/experiments/AOT/AOT_stimuli/rescaled_final/0618_rv.mp4	0.0	157.88996410369873	0.09989500045776367
25	136.52419304847717	fix_pre	0		120	23.0	2.5	/experiments/AOT/AOT_stimuli/rescaled_final/1676_rv.mp4	0.0	157.9898591041565	0.9999849796295166
25	137.5241780281067	movie	1		245	23.0	2.5	/experiments/AOT/AOT_stimuli/rescaled_final/1676_rv.mp4	0.0	158.989844083786	2.49995493888855
25	137.9070270061493	pulse	1	t		23.0	2.5	/experiments/AOT/AOT_stimuli/rescaled_final/1676_rv.mp4	0.0	159.3726930618286	
25	139.50761699676514	pulse	1	t		23.0	2.5	/experiments/AOT/AOT_stimuli/rescaled_final/1676_rv.mp4	0.0	160.97328305244446	
25	140.02413296699524	fix_post	2		12	23.0	2.5	/experiments/AOT/AOT_stimuli/rescaled_final/1676_rv.mp4	0.0	161.48979902267456	0.09964799880981445
26	140.12378096580505	fix_pre	0		119	24.0	2.5	/experiments/AOT/AOT_stimuli/rescaled_final/1066_rv.mp4	0.0	161.58944702148438	0.991987943649292
26	141.10769295692444	pulse	0	t		24.0	2.5	/experiments/AOT/AOT_stimuli/rescaled_final/1066_rv.mp4	0.0	162.57335901260376	
26	141.11576890945435	movie	1		245	24.0	2.5	/experiments/AOT/AOT_stimuli/rescaled_final/1066_rv.mp4	0.0	162.58143496513367	2.5082359313964844
26	142.70724892616272	pulse	1	t		24.0	2.5	/experiments/AOT/AOT_stimuli/rescaled_final/1066_rv.mp4	0.0	164.17291498184204	
26	143.62400484085083	fix_post	2		12	24.0	2.5	/experiments/AOT/AOT_stimuli/rescaled_final/1066_rv.mp4	0.0	165.08967089653015	0.10010719299316406
27	143.724112033844	fix_pre	0		120	25.0	2.5	/experiments/AOT/AOT_stimuli/rescaled_final/0607_rv.mp4	0.0	165.18977808952332	0.9995548725128174
27	144.30756187438965	pulse	0	t		25.0	2.5	/experiments/AOT/AOT_stimuli/rescaled_final/0607_rv.mp4	0.0	165.77322793006897	
27	144.7236669063568	movie	1		244	25.0	2.5	/experiments/AOT/AOT_stimuli/rescaled_final/0607_rv.mp4	0.0	166.18933296203613	2.5004451274871826
27	145.9076690673828	pulse	1	t		25.0	2.5	/experiments/AOT/AOT_stimuli/rescaled_final/0607_rv.mp4	0.0	167.37333512306213	
27	147.224112033844	fix_post	2		12	25.0	2.5	/experiments/AOT/AOT_stimuli/rescaled_final/0607_rv.mp4	0.0	168.68977808952332	0.10002398490905762
28	147.32413601875305	fix_pre	0		120	26.0	2.5	/experiments/AOT/AOT_stimuli/rescaled_final/1058_fw.mp4	0.0	168.78980207443237	0.9996318817138672
28	147.5076379776001	pulse	0	t		26.0	2.5	/experiments/AOT/AOT_stimuli/rescaled_final/1058_fw.mp4	0.0	168.97330403327942	
28	148.32376790046692	movie	1		244	26.0	2.5	/experiments/AOT/AOT_stimuli/rescaled_final/1058_fw.mp4	0.0	169.78943395614624	2.4999139308929443
28	149.10761904716492	pulse	1	t		26.0	2.5	/experiments/AOT/AOT_stimuli/rescaled_final/1058_fw.mp4	0.0	170.57328510284424	
28	150.7061369419098	pulse	1	t		26.0	2.5	/experiments/AOT/AOT_stimuli/rescaled_final/1058_fw.mp4	0.0	172.1718029975891	
28	150.82368183135986	fix_post	2		12	26.0	2.5	/experiments/AOT/AOT_stimuli/rescaled_final/1058_fw.mp4	0.0	172.28934788703918	0.10039806365966797
29	150.92407989501953	fix_pre	0		120	27.0	2.5	blank	1.0	172.38974595069885	1.0000009536743164
29	151.92408084869385	movie	1		300	27.0	2.5	blank	1.0	173.38974690437317	2.4996211528778076
29	152.30762195587158	pulse	1	t		27.0	2.5	blank	1.0	173.7732880115509	
29	153.90755701065063	pulse	1	t		27.0	2.5	blank	1.0	175.37322306632996	
29	154.42370200157166	fix_post	2		12	27.0	2.5	blank	1.0	175.88936805725098	0.10035586357116699
30	154.52405786514282	fix_pre	0		119	28.0	2.5	/experiments/AOT/AOT_stimuli/rescaled_final/1980_fw.mp4	0.0	175.98972392082214	0.991703987121582
30	155.50758600234985	pulse	0	t		28.0	2.5	/experiments/AOT/AOT_stimuli/rescaled_final/1980_fw.mp4	0.0	176.97325205802917	
30	155.5157618522644	movie	1		247	28.0	2.5	/experiments/AOT/AOT_stimuli/rescaled_final/1980_fw.mp4	0.0	176.98142790794373	2.50838303565979
30	157.10878705978394	pulse	1	t		28.0	2.5	/experiments/AOT/AOT_stimuli/rescaled_final/1980_fw.mp4	0.0	178.57445311546326	
30	158.0241448879242	fix_post	2		12	28.0	2.5	/experiments/AOT/AOT_stimuli/rescaled_final/1980_fw.mp4	0.0	179.48981094360352	0.09949707984924316
31	158.12364196777344	fix_pre	0		120	29.0	2.5	/experiments/AOT/AOT_stimuli/rescaled_final/0858_fw.mp4	0.0	179.58930802345276	1.0000240802764893
31	158.7076449394226	pulse	0	t		29.0	2.5	/experiments/AOT/AOT_stimuli/rescaled_final/0858_fw.mp4	0.0	180.17331099510193	
31	159.12366604804993	movie	1		243	29.0	2.5	/experiments/AOT/AOT_stimuli/rescaled_final/0858_fw.mp4	0.0	180.58933210372925	2.5005998611450195
31	160.30761885643005	pulse	1	t		29.0	2.5	/experiments/AOT/AOT_stimuli/rescaled_final/0858_fw.mp4	0.0	181.77328491210938	
31	161.62426590919495	fix_post	2		12	29.0	2.5	/experiments/AOT/AOT_stimuli/rescaled_final/0858_fw.mp4	0.0	183.08993196487427	0.09973812103271484
32	161.72400403022766	fix_pre	0		120	30.0	2.5	/experiments/AOT/AOT_stimuli/rescaled_final/1974_rv.mp4	0.0	183.18967008590698	1.0001459121704102
32	161.90756583213806	pulse	0	t		30.0	2.5	/experiments/AOT/AOT_stimuli/rescaled_final/1974_rv.mp4	0.0	183.37323188781738	
32	162.72414994239807	movie	1		243	30.0	2.5	/experiments/AOT/AOT_stimuli/rescaled_final/1974_rv.mp4	0.0	184.1898159980774	2.499908924102783
32	163.50776195526123	pulse	1	t		30.0	2.5	/experiments/AOT/AOT_stimuli/rescaled_final/1974_rv.mp4	0.0	184.97342801094055	
32	165.10600686073303	pulse	1	t		30.0	2.5	/experiments/AOT/AOT_stimuli/rescaled_final/1974_rv.mp4	0.0	186.57167291641235	
32	165.22405886650085	fix_post	2		12	30.0	2.5	/experiments/AOT/AOT_stimuli/rescaled_final/1974_rv.mp4	0.0	186.68972492218018	0.09999704360961914
33	165.32405591011047	fix_pre	0		120	31.0	2.5	/experiments/AOT/AOT_stimuli/rescaled_final/0710_rv.mp4	0.0	186.7897219657898	1.0000529289245605
33	166.32410883903503	movie	1		244	31.0	2.5	/experiments/AOT/AOT_stimuli/rescaled_final/0710_rv.mp4	0.0	187.78977489471436	2.4999091625213623
33	166.70854592323303	pulse	1	t		31.0	2.5	/experiments/AOT/AOT_stimuli/rescaled_final/0710_rv.mp4	0.0	188.17421197891235	
33	168.30754590034485	pulse	1	t		31.0	2.5	/experiments/AOT/AOT_stimuli/rescaled_final/0710_rv.mp4	0.0	189.77321195602417	
33	168.8240180015564	fix_post	2		12	31.0	2.5	/experiments/AOT/AOT_stimuli/rescaled_final/0710_rv.mp4	0.0	190.28968405723572	0.09997296333312988
34	168.92399096488953	fix_pre	0		119	32.0	2.5	/experiments/AOT/AOT_stimuli/rescaled_final/1819_fw.mp4	0.0	190.38965702056885	0.9917659759521484
34	169.9075849056244	pulse	0	t		32.0	2.5	/experiments/AOT/AOT_stimuli/rescaled_final/1819_fw.mp4	0.0	191.3732509613037	
34	169.91575694084167	movie	1		245	32.0	2.5	/experiments/AOT/AOT_stimuli/rescaled_final/1819_fw.mp4	0.0	191.381422996521	2.5081770420074463
34	171.50731086730957	pulse	1	t		32.0	2.5	/experiments/AOT/AOT_stimuli/rescaled_final/1819_fw.mp4	0.0	192.9729769229889	
34	172.42393398284912	fix_post	2		12	32.0	2.5	/experiments/AOT/AOT_stimuli/rescaled_final/1819_fw.mp4	0.0	193.88960003852844	0.10010290145874023
35	172.52403688430786	fix_pre	0		120	33.0	2.5	/experiments/AOT/AOT_stimuli/rescaled_final/0081_fw.mp4	0.0	193.98970293998718	1.0000121593475342
35	173.1075668334961	pulse	0	t		33.0	2.5	/experiments/AOT/AOT_stimuli/rescaled_final/0081_fw.mp4	0.0	194.57323288917542	
35	173.5240490436554	movie	1		243	33.0	2.5	/experiments/AOT/AOT_stimuli/rescaled_final/0081_fw.mp4	0.0	194.98971509933472	2.499518871307373
35	174.70755004882812	pulse	1	t		33.0	2.5	/experiments/AOT/AOT_stimuli/rescaled_final/0081_fw.mp4	0.0	196.17321610450745	
35	176.02356791496277	fix_post	2		12	33.0	2.5	/experiments/AOT/AOT_stimuli/rescaled_final/0081_fw.mp4	0.0	197.4892339706421	0.10039710998535156
36	176.12396502494812	fix_pre	0		120	34.0	2.5	/experiments/AOT/AOT_stimuli/rescaled_final/0578_fw.mp4	0.0	197.58963108062744	1.0000159740447998
36	176.30742001533508	pulse	0	t		34.0	2.5	/experiments/AOT/AOT_stimuli/rescaled_final/0578_fw.mp4	0.0	197.7730860710144	
36	177.12398099899292	movie	1		242	34.0	2.5	/experiments/AOT/AOT_stimuli/rescaled_final/0578_fw.mp4	0.0	198.58964705467224	2.500113010406494
36	177.90751099586487	pulse	1	t		34.0	2.5	/experiments/AOT/AOT_stimuli/rescaled_final/0578_fw.mp4	0.0	199.3731770515442	
36	179.50561499595642	pulse	1	t		34.0	2.5	/experiments/AOT/AOT_stimuli/rescaled_final/0578_fw.mp4	0.0	200.97128105163574	
36	179.6240940093994	fix_post	2		12	34.0	2.5	/experiments/AOT/AOT_stimuli/rescaled_final/0578_fw.mp4	0.0	201.08976006507874	0.09945797920227051
37	179.72355198860168	fix_pre	0		120	35.0	2.5	blank	1.0	201.189218044281	1.0004069805145264
37	180.7239589691162	movie	1		300	35.0	2.5	blank	1.0	202.18962502479553	2.50006103515625
37	181.1075930595398	pulse	1	t		35.0	2.5	blank	1.0	202.57325911521912	
37	182.70746088027954	pulse	1	t		35.0	2.5	blank	1.0	204.17312693595886	
37	183.22402000427246	fix_post	2		12	35.0	2.5	blank	1.0	204.68968605995178	0.09999489784240723
38	183.32401490211487	fix_pre	0		119	36.0	2.5	/experiments/AOT/AOT_stimuli/rescaled_final/2083_fw.mp4	0.0	204.7896809577942	0.9915771484375
38	184.30758094787598	pulse	0	t		36.0	2.5	/experiments/AOT/AOT_stimuli/rescaled_final/2083_fw.mp4	0.0	205.7732470035553	
38	184.31559205055237	movie	1		246	36.0	2.5	/experiments/AOT/AOT_stimuli/rescaled_final/2083_fw.mp4	0.0	205.7812581062317	2.508086919784546
38	185.908597946167	pulse	1	t		36.0	2.5	/experiments/AOT/AOT_stimuli/rescaled_final/2083_fw.mp4	0.0	207.3742640018463	
38	186.8236789703369	fix_post	2		12	36.0	2.5	/experiments/AOT/AOT_stimuli/rescaled_final/2083_fw.mp4	0.0	208.28934502601624	0.09992694854736328
39	186.92360591888428	fix_pre	0		120	37.0	2.5	/experiments/AOT/AOT_stimuli/rescaled_final/1649_rv.mp4	0.0	208.3892719745636	1.0002219676971436
39	187.50721502304077	pulse	0	t		37.0	2.5	/experiments/AOT/AOT_stimuli/rescaled_final/1649_rv.mp4	0.0	208.9728810787201	
39	187.92382788658142	movie	1		244	37.0	2.5	/experiments/AOT/AOT_stimuli/rescaled_final/1649_rv.mp4	0.0	209.38949394226074	2.5001471042633057
39	189.10755395889282	pulse	1	t		37.0	2.5	/experiments/AOT/AOT_stimuli/rescaled_final/1649_rv.mp4	0.0	210.57322001457214	
39	190.42397499084473	fix_post	2		12	37.0	2.5	/experiments/AOT/AOT_stimuli/rescaled_final/1649_rv.mp4	0.0	211.88964104652405	0.09999990463256836
40	190.5239748954773	fix_pre	0		120	38.0	2.5	/experiments/AOT/AOT_stimuli/rescaled_final/0851_rv.mp4	0.0	211.98964095115662	0.9999730587005615
40	190.70746088027954	pulse	0	t		38.0	2.5	/experiments/AOT/AOT_stimuli/rescaled_final/0851_rv.mp4	0.0	212.17312693595886	
40	191.52394795417786	movie	1		244	38.0	2.5	/experiments/AOT/AOT_stimuli/rescaled_final/0851_rv.mp4	0.0	212.98961400985718	2.4995460510253906
40	192.30742001533508	pulse	1	t		38.0	2.5	/experiments/AOT/AOT_stimuli/rescaled_final/0851_rv.mp4	0.0	213.7730860710144	
40	193.90585899353027	pulse	1	t		38.0	2.5	/experiments/AOT/AOT_stimuli/rescaled_final/0851_rv.mp4	0.0	215.3715250492096	
40	194.02349400520325	fix_post	2		12	38.0	2.5	/experiments/AOT/AOT_stimuli/rescaled_final/0851_rv.mp4	0.0	215.48916006088257	0.10039305686950684
41	194.12388706207275	fix_pre	0		120	39.0	2.5	/experiments/AOT/AOT_stimuli/rescaled_final/1756_rv.mp4	0.0	215.58955311775208	0.9995789527893066
41	195.12346601486206	movie	1		243	39.0	2.5	/experiments/AOT/AOT_stimuli/rescaled_final/1756_rv.mp4	0.0	216.58913207054138	2.4999818801879883
41	195.5071198940277	pulse	1	t		39.0	2.5	/experiments/AOT/AOT_stimuli/rescaled_final/1756_rv.mp4	0.0	216.97278594970703	
41	197.10736203193665	pulse	1	t		39.0	2.5	/experiments/AOT/AOT_stimuli/rescaled_final/1756_rv.mp4	0.0	218.57302808761597	
41	197.62344789505005	fix_post	2		12	39.0	2.5	/experiments/AOT/AOT_stimuli/rescaled_final/1756_rv.mp4	0.0	219.08911395072937	0.1003880500793457
42	197.7238359451294	fix_pre	0		119	40.0	2.5	/experiments/AOT/AOT_stimuli/rescaled_final/0309_rv.mp4	0.0	219.18950200080872	0.9916810989379883
42	198.70754384994507	pulse	0	t		40.0	2.5	/experiments/AOT/AOT_stimuli/rescaled_final/0309_rv.mp4	0.0	220.1732099056244	
42	198.71551704406738	movie	1		245	40.0	2.5	/experiments/AOT/AOT_stimuli/rescaled_final/0309_rv.mp4	0.0	220.1811830997467	2.507934808731079
42	200.30725383758545	pulse	1	t		40.0	2.5	/experiments/AOT/AOT_stimuli/rescaled_final/0309_rv.mp4	0.0	221.77291989326477	
42	201.22345185279846	fix_post	2		12	40.0	2.5	/experiments/AOT/AOT_stimuli/rescaled_final/0309_rv.mp4	0.0	222.68911790847778	0.10041117668151855
43	201.32386302947998	fix_pre	0		120	41.0	2.5	blank	1.0	222.7895290851593	0.9999558925628662
43	201.90737295150757	pulse	0	t		41.0	2.5	blank	1.0	223.3730390071869	
43	202.32381892204285	movie	1		300	41.0	2.5	blank	1.0	223.78948497772217	2.500030040740967
43	203.5073480606079	pulse	1	t		41.0	2.5	blank	1.0	224.97301411628723	
43	204.8238489627838	fix_post	2		12	41.0	2.5	blank	1.0	226.28951501846313	0.10000109672546387
44	204.92385005950928	fix_pre	0		120	42.0	2.5	/experiments/AOT/AOT_stimuli/rescaled_final/0195_rv.mp4	0.0	226.3895161151886	1.0000097751617432
44	205.10735702514648	pulse	0	t		42.0	2.5	/experiments/AOT/AOT_stimuli/rescaled_final/0195_rv.mp4	0.0	226.5730230808258	
44	205.92385983467102	movie	1		244	42.0	2.5	/experiments/AOT/AOT_stimuli/rescaled_final/0195_rv.mp4	0.0	227.38952589035034	2.4999120235443115
44	206.70734095573425	pulse	1	t		42.0	2.5	/experiments/AOT/AOT_stimuli/rescaled_final/0195_rv.mp4	0.0	228.17300701141357	
44	208.30556797981262	pulse	1	t		42.0	2.5	/experiments/AOT/AOT_stimuli/rescaled_final/0195_rv.mp4	0.0	229.77123403549194	
44	208.42377185821533	fix_post	2		12	42.0	2.5	/experiments/AOT/AOT_stimuli/rescaled_final/0195_rv.mp4	0.0	229.88943791389465	0.10004997253417969
45	208.5238218307495	fix_pre	0		120	43.0	2.5	/experiments/AOT/AOT_stimuli/rescaled_final/0499_fw.mp4	0.0	229.98948788642883	0.999932050704956
45	209.52375388145447	movie	1		245	43.0	2.5	/experiments/AOT/AOT_stimuli/rescaled_final/0499_fw.mp4	0.0	230.9894199371338	2.4996421337127686
45	209.90688300132751	pulse	1	t		43.0	2.5	/experiments/AOT/AOT_stimuli/rescaled_final/0499_fw.mp4	0.0	231.37254905700684	
45	211.50729703903198	pulse	1	t		43.0	2.5	/experiments/AOT/AOT_stimuli/rescaled_final/0499_fw.mp4	0.0	232.9729630947113	
45	212.02339601516724	fix_post	2		12	43.0	2.5	/experiments/AOT/AOT_stimuli/rescaled_final/0499_fw.mp4	0.0	233.48906207084656	0.10043501853942871
46	212.12383103370667	fix_pre	0		119	44.0	2.5	/experiments/AOT/AOT_stimuli/rescaled_final/1085_rv.mp4	0.0	233.589497089386	0.9916048049926758
46	213.10730695724487	pulse	0	t		44.0	2.5	/experiments/AOT/AOT_stimuli/rescaled_final/1085_rv.mp4	0.0	234.5729730129242	
46	213.11543583869934	movie	1		246	44.0	2.5	/experiments/AOT/AOT_stimuli/rescaled_final/1085_rv.mp4	0.0	234.58110189437866	2.508352041244507
46	214.708251953125	pulse	1	t		44.0	2.5	/experiments/AOT/AOT_stimuli/rescaled_final/1085_rv.mp4	0.0	236.17391800880432	
46	215.62378787994385	fix_post	2		12	44.0	2.5	/experiments/AOT/AOT_stimuli/rescaled_final/1085_rv.mp4	0.0	237.08945393562317	0.10001802444458008
47	215.72380590438843	fix_pre	0		120	45.0	2.5	/experiments/AOT/AOT_stimuli/rescaled_final/0273_fw.mp4	0.0	237.18947196006775	0.9999480247497559
47	216.3073389530182	pulse	0	t		45.0	2.5	/experiments/AOT/AOT_stimuli/rescaled_final/0273_fw.mp4	0.0	237.7730050086975	
47	216.72375392913818	movie	1		243	45.0	2.5	/experiments/AOT/AOT_stimuli/rescaled_final/0273_fw.mp4	0.0	238.1894199848175	2.5000789165496826
47	217.90746402740479	pulse	1	t		45.0	2.5	/experiments/AOT/AOT_stimuli/rescaled_final/0273_fw.mp4	0.0	239.3731300830841	
47	219.22383284568787	fix_post	2		12	45.0	2.5	/experiments/AOT/AOT_stimuli/rescaled_final/0273_fw.mp4	0.0	240.6894989013672	0.09998917579650879
48	219.32382202148438	fix_pre	0		120	46.0	2.5	/experiments/AOT/AOT_stimuli/rescaled_final/0922_fw.mp4	0.0	240.7894880771637	0.999924898147583
48	219.50729084014893	pulse	0	t		46.0	2.5	/experiments/AOT/AOT_stimuli/rescaled_final/0922_fw.mp4	0.0	240.97295689582825	
48	220.32374691963196	movie	1		244	46.0	2.5	/experiments/AOT/AOT_stimuli/rescaled_final/0922_fw.mp4	0.0	241.78941297531128	2.4997220039367676
48	221.1072609424591	pulse	1	t		46.0	2.5	/experiments/AOT/AOT_stimuli/rescaled_final/0922_fw.mp4	0.0	242.57292699813843	
48	222.70610094070435	pulse	1	t		46.0	2.5	/experiments/AOT/AOT_stimuli/rescaled_final/0922_fw.mp4	0.0	244.17176699638367	
48	222.82346892356873	fix_post	2		12	46.0	2.5	/experiments/AOT/AOT_stimuli/rescaled_final/0922_fw.mp4	0.0	244.28913497924805	0.10039210319519043
49	222.92386102676392	fix_pre	0		120	47.0	2.5	/experiments/AOT/AOT_stimuli/rescaled_final/0915_rv.mp4	0.0	244.38952708244324	0.9998760223388672
49	223.92373704910278	movie	1		242	47.0	2.5	/experiments/AOT/AOT_stimuli/rescaled_final/0915_rv.mp4	0.0	245.3894031047821	2.5000269412994385
49	224.30709791183472	pulse	1	t		47.0	2.5	/experiments/AOT/AOT_stimuli/rescaled_final/0915_rv.mp4	0.0	245.77276396751404	
49	225.90721106529236	pulse	1	t		47.0	2.5	/experiments/AOT/AOT_stimuli/rescaled_final/0915_rv.mp4	0.0	247.37287712097168	
49	226.42376399040222	fix_post	2		12	47.0	2.5	/experiments/AOT/AOT_stimuli/rescaled_final/0915_rv.mp4	0.0	247.88943004608154	0.10013604164123535
50	226.52390003204346	fix_pre	0		119	48.0	2.5	blank	1.0	247.98956608772278	0.9915649890899658
50	227.50726294517517	pulse	0	t		48.0	2.5	blank	1.0	248.9729290008545	
50	227.51546502113342	movie	1		301	48.0	2.5	blank	1.0	248.98113107681274	2.508237838745117
50	229.10727405548096	pulse	1	t		48.0	2.5	blank	1.0	250.57294011116028	
50	230.02370285987854	fix_post	2		12	48.0	2.5	blank	1.0	251.48936891555786	0.09999513626098633
51	230.12369799613953	fix_pre	0		120	49.0	2.5	/experiments/AOT/AOT_stimuli/rescaled_final/1566_rv.mp4	0.0	251.58936405181885	1.0000619888305664
51	230.7072069644928	pulse	0	t		49.0	2.5	/experiments/AOT/AOT_stimuli/rescaled_final/1566_rv.mp4	0.0	252.17287302017212	
51	231.1237599849701	movie	1		244	49.0	2.5	/experiments/AOT/AOT_stimuli/rescaled_final/1566_rv.mp4	0.0	252.5894260406494	2.499943971633911
51	232.30729699134827	pulse	1	t		49.0	2.5	/experiments/AOT/AOT_stimuli/rescaled_final/1566_rv.mp4	0.0	253.7729630470276	
51	233.623703956604	fix_post	2		12	49.0	2.5	/experiments/AOT/AOT_stimuli/rescaled_final/1566_rv.mp4	0.0	255.08937001228333	0.09970307350158691
52	233.7234070301056	fix_pre	0		120	50.0	2.5	/experiments/AOT/AOT_stimuli/rescaled_final/0237_rv.mp4	0.0	255.1890730857849	0.9998338222503662
52	233.90725183486938	pulse	0	t		50.0	2.5	/experiments/AOT/AOT_stimuli/rescaled_final/0237_rv.mp4	0.0	255.3729178905487	
52	234.72324085235596	movie	1		244	50.0	2.5	/experiments/AOT/AOT_stimuli/rescaled_final/0237_rv.mp4	0.0	256.1889069080353	2.500491142272949
52	235.5072569847107	pulse	1	t		50.0	2.5	/experiments/AOT/AOT_stimuli/rescaled_final/0237_rv.mp4	0.0	256.97292304039	
52	237.10585188865662	pulse	1	t		50.0	2.5	/experiments/AOT/AOT_stimuli/rescaled_final/0237_rv.mp4	0.0	258.57151794433594	
52	237.2237319946289	fix_post	2		12	50.0	2.5	/experiments/AOT/AOT_stimuli/rescaled_final/0237_rv.mp4	0.0	258.6893980503082	0.09997391700744629
53	237.32370591163635	fix_pre	0		120	51.0	2.5	/experiments/AOT/AOT_stimuli/rescaled_final/1384_rv.mp4	0.0	258.7893719673157	1.0001089572906494
53	238.323814868927	movie	1		243	51.0	2.5	/experiments/AOT/AOT_stimuli/rescaled_final/1384_rv.mp4	0.0	259.7894809246063	2.4999191761016846
53	238.70706987380981	pulse	1	t		51.0	2.5	/experiments/AOT/AOT_stimuli/rescaled_final/1384_rv.mp4	0.0	260.17273592948914	
53	240.30714201927185	pulse	1	t		51.0	2.5	/experiments/AOT/AOT_stimuli/rescaled_final/1384_rv.mp4	0.0	261.7728080749512	
53	240.8237340450287	fix_post	2		12	51.0	2.5	/experiments/AOT/AOT_stimuli/rescaled_final/1384_rv.mp4	0.0	262.289400100708	0.0995168685913086
54	240.92325091362	fix_pre	0		119	52.0	2.5	/experiments/AOT/AOT_stimuli/rescaled_final/1003_fw.mp4	0.0	262.3889169692993	0.9921219348907471
54	241.9068160057068	pulse	0	t		52.0	2.5	/experiments/AOT/AOT_stimuli/rescaled_final/1003_fw.mp4	0.0	263.3724820613861	
54	241.91537284851074	movie	1		246	52.0	2.5	/experiments/AOT/AOT_stimuli/rescaled_final/1003_fw.mp4	0.0	263.38103890419006	2.508254051208496
54	243.50706100463867	pulse	1	t		52.0	2.5	/experiments/AOT/AOT_stimuli/rescaled_final/1003_fw.mp4	0.0	264.972727060318	
54	244.42362689971924	fix_post	2		12	52.0	2.5	/experiments/AOT/AOT_stimuli/rescaled_final/1003_fw.mp4	0.0	265.88929295539856	0.10001993179321289
55	244.52364683151245	fix_pre	0		120	53.0	2.5	/experiments/AOT/AOT_stimuli/rescaled_final/2018_rv.mp4	0.0	265.9893128871918	1.00006103515625
55	245.1073179244995	pulse	0	t		53.0	2.5	/experiments/AOT/AOT_stimuli/rescaled_final/2018_rv.mp4	0.0	266.57298398017883	
55	245.5237078666687	movie	1		244	53.0	2.5	/experiments/AOT/AOT_stimuli/rescaled_final/2018_rv.mp4	0.0	266.989373922348	2.49989914894104
55	246.7072548866272	pulse	1	t		53.0	2.5	/experiments/AOT/AOT_stimuli/rescaled_final/2018_rv.mp4	0.0	268.1729209423065	
55	248.02360701560974	fix_post	2		12	53.0	2.5	/experiments/AOT/AOT_stimuli/rescaled_final/2018_rv.mp4	0.0	269.48927307128906	0.10001897811889648
56	248.12362599372864	fix_pre	0		120	54.0	2.5	/experiments/AOT/AOT_stimuli/rescaled_final/0575_fw.mp4	0.0	269.58929204940796	0.9999430179595947
56	248.30717492103577	pulse	0	t		54.0	2.5	/experiments/AOT/AOT_stimuli/rescaled_final/0575_fw.mp4	0.0	269.7728409767151	
56	249.12356901168823	movie	1		246	54.0	2.5	/experiments/AOT/AOT_stimuli/rescaled_final/0575_fw.mp4	0.0	270.58923506736755	2.500053882598877
56	249.90700101852417	pulse	1	t		54.0	2.5	/experiments/AOT/AOT_stimuli/rescaled_final/0575_fw.mp4	0.0	271.3726670742035	
56	251.50559186935425	pulse	1	t		54.0	2.5	/experiments/AOT/AOT_stimuli/rescaled_final/0575_fw.mp4	0.0	272.97125792503357	
56	251.6236228942871	fix_post	2		12	54.0	2.5	/experiments/AOT/AOT_stimuli/rescaled_final/0575_fw.mp4	0.0	273.08928894996643	0.09997296333312988
57	251.72359585762024	fix_pre	0		120	55.0	2.5	blank	1.0	273.18926191329956	0.9999661445617676
57	252.723562002182	movie	1		300	55.0	2.5	blank	1.0	274.1892280578613	2.500037908554077
57	253.1071219444275	pulse	1	t		55.0	2.5	blank	1.0	274.5727880001068	
57	254.70705485343933	pulse	1	t		55.0	2.5	blank	1.0	276.17272090911865	
57	255.22359991073608	fix_post	2		12	55.0	2.5	blank	1.0	276.6892659664154	0.09993910789489746
58	255.32353901863098	fix_pre	0		119	56.0	2.5	/experiments/AOT/AOT_stimuli/rescaled_final/0725_rv.mp4	0.0	276.7892050743103	0.9917259216308594
58	256.3071229457855	pulse	0	t		56.0	2.5	/experiments/AOT/AOT_stimuli/rescaled_final/0725_rv.mp4	0.0	277.77278900146484	
58	256.31526494026184	movie	1		246	56.0	2.5	/experiments/AOT/AOT_stimuli/rescaled_final/0725_rv.mp4	0.0	277.78093099594116	2.508263111114502
58	257.90651392936707	pulse	1	t		56.0	2.5	/experiments/AOT/AOT_stimuli/rescaled_final/0725_rv.mp4	0.0	279.3721799850464	
58	258.82352805137634	fix_post	2		12	56.0	2.5	/experiments/AOT/AOT_stimuli/rescaled_final/0725_rv.mp4	0.0	280.28919410705566	0.10007095336914062
59	258.9235990047455	fix_pre	0		120	57.0	2.5	/experiments/AOT/AOT_stimuli/rescaled_final/1494_rv.mp4	0.0	280.3892650604248	1.0000300407409668
59	259.5071020126343	pulse	0	t		57.0	2.5	/experiments/AOT/AOT_stimuli/rescaled_final/1494_rv.mp4	0.0	280.9727680683136	
59	259.92362904548645	movie	1		244	57.0	2.5	/experiments/AOT/AOT_stimuli/rescaled_final/1494_rv.mp4	0.0	281.38929510116577	2.5001378059387207
59	261.10715985298157	pulse	1	t		57.0	2.5	/experiments/AOT/AOT_stimuli/rescaled_final/1494_rv.mp4	0.0	282.5728259086609	
59	262.42376685142517	fix_post	2		12	57.0	2.5	/experiments/AOT/AOT_stimuli/rescaled_final/1494_rv.mp4	0.0	283.8894329071045	0.09981107711791992
60	262.5235779285431	fix_pre	0		120	58.0	2.5	/experiments/AOT/AOT_stimuli/rescaled_final/2160_fw.mp4	0.0	283.9892439842224	0.9999520778656006
60	262.7071599960327	pulse	0	t		58.0	2.5	/experiments/AOT/AOT_stimuli/rescaled_final/2160_fw.mp4	0.0	284.17282605171204	
60	263.5235300064087	movie	1		244	58.0	2.5	/experiments/AOT/AOT_stimuli/rescaled_final/2160_fw.mp4	0.0	284.989196062088	2.4995498657226562
60	264.3070738315582	pulse	1	t		58.0	2.5	/experiments/AOT/AOT_stimuli/rescaled_final/2160_fw.mp4	0.0	285.77273988723755	
60	265.90574193000793	pulse	1	t		58.0	2.5	/experiments/AOT/AOT_stimuli/rescaled_final/2160_fw.mp4	0.0	287.37140798568726	
60	266.02307987213135	fix_post	2		12	58.0	2.5	/experiments/AOT/AOT_stimuli/rescaled_final/2160_fw.mp4	0.0	287.48874592781067	0.1004030704498291
61	266.1234829425812	fix_pre	0		120	59.0	2.5	/experiments/AOT/AOT_stimuli/rescaled_final/0950_rv.mp4	0.0	287.5891489982605	1.0000019073486328
61	267.1234848499298	movie	1		243	59.0	2.5	/experiments/AOT/AOT_stimuli/rescaled_final/0950_rv.mp4	0.0	288.58915090560913	2.5001120567321777
61	267.5066668987274	pulse	1	t		59.0	2.5	/experiments/AOT/AOT_stimuli/rescaled_final/0950_rv.mp4	0.0	288.97233295440674	
61	269.10709595680237	pulse	1	t		59.0	2.5	/experiments/AOT/AOT_stimuli/rescaled_final/0950_rv.mp4	0.0	290.5727620124817	
61	269.623596906662	fix_post	2		12	59.0	2.5	/experiments/AOT/AOT_stimuli/rescaled_final/0950_rv.mp4	0.0	291.0892629623413	0.09984612464904785
62	269.72344303131104	fix_pre	0		119	60.0	2.5	/experiments/AOT/AOT_stimuli/rescaled_final/0977_rv.mp4	0.0	291.18910908699036	0.9917049407958984
62	270.7069959640503	pulse	0	t		60.0	2.5	/experiments/AOT/AOT_stimuli/rescaled_final/0977_rv.mp4	0.0	292.1726620197296	
62	270.71514797210693	movie	1		247	60.0	2.5	/experiments/AOT/AOT_stimuli/rescaled_final/0977_rv.mp4	0.0	292.18081402778625	2.508349895477295
62	272.30664587020874	pulse	1	t		60.0	2.5	/experiments/AOT/AOT_stimuli/rescaled_final/0977_rv.mp4	0.0	293.77231192588806	
62	273.22349786758423	fix_post	2		12	60.0	2.5	/experiments/AOT/AOT_stimuli/rescaled_final/0977_rv.mp4	0.0	294.68916392326355	0.10005402565002441
63	273.32355189323425	fix_pre	0		120	61.0	2.5	/experiments/AOT/AOT_stimuli/rescaled_final/0930_fw.mp4	0.0	294.7892179489136	1.0000190734863281
63	273.90700006484985	pulse	0	t		61.0	2.5	/experiments/AOT/AOT_stimuli/rescaled_final/0930_fw.mp4	0.0	295.3726661205292	
63	274.3235709667206	movie	1		244	61.0	2.5	/experiments/AOT/AOT_stimuli/rescaled_final/0930_fw.mp4	0.0	295.7892370223999	2.4999279975891113
63	275.5070469379425	pulse	1	t		61.0	2.5	/experiments/AOT/AOT_stimuli/rescaled_final/0930_fw.mp4	0.0	296.9727129936218	
63	276.8234989643097	fix_post	2		12	61.0	2.5	/experiments/AOT/AOT_stimuli/rescaled_final/0930_fw.mp4	0.0	298.289165019989	0.10004186630249023
64	276.9235408306122	fix_pre	0		120	62.0	2.5	/experiments/AOT/AOT_stimuli/rescaled_final/1460_fw.mp4	0.0	298.3892068862915	0.9999880790710449
64	277.10709500312805	pulse	0	t		62.0	2.5	/experiments/AOT/AOT_stimuli/rescaled_final/1460_fw.mp4	0.0	298.5727610588074	
64	277.9235289096832	movie	1		245	62.0	2.5	/experiments/AOT/AOT_stimuli/rescaled_final/1460_fw.mp4	0.0	299.38919496536255	2.499624013900757
64	278.7069959640503	pulse	1	t		62.0	2.5	/experiments/AOT/AOT_stimuli/rescaled_final/1460_fw.mp4	0.0	300.1726620197296	
64	280.3070180416107	pulse	1	t		62.0	2.5	/experiments/AOT/AOT_stimuli/rescaled_final/1460_fw.mp4	0.0	301.77268409729004	
64	280.423152923584	fix_post	2		12	62.0	2.5	/experiments/AOT/AOT_stimuli/rescaled_final/1460_fw.mp4	0.0	301.8888189792633	0.10031890869140625
65	280.5234718322754	fix_pre	0		120	63.0	2.5	blank	1.0	301.9891378879547	1.0000331401824951
65	281.5235049724579	movie	1		300	63.0	2.5	blank	1.0	302.9891710281372	2.4999630451202393
65	281.9071559906006	pulse	1	t		63.0	2.5	blank	1.0	303.3728220462799	
65	283.5069329738617	pulse	1	t		63.0	2.5	blank	1.0	304.972599029541	
65	284.0234680175781	fix_post	2		12	63.0	2.5	blank	1.0	305.48913407325745	0.09997797012329102
66	284.1234459877014	fix_pre	0		119	64.0	2.5	/experiments/AOT/AOT_stimuli/rescaled_final/0513_fw.mp4	0.0	305.58911204338074	0.9917230606079102
66	285.1069860458374	pulse	0	t		64.0	2.5	/experiments/AOT/AOT_stimuli/rescaled_final/0513_fw.mp4	0.0	306.5726521015167	
66	285.1151690483093	movie	1		245	64.0	2.5	/experiments/AOT/AOT_stimuli/rescaled_final/0513_fw.mp4	0.0	306.58083510398865	2.5082848072052
66	286.70687890052795	pulse	1	t		64.0	2.5	/experiments/AOT/AOT_stimuli/rescaled_final/0513_fw.mp4	0.0	308.1725449562073	
66	287.6234538555145	fix_post	2		12	64.0	2.5	/experiments/AOT/AOT_stimuli/rescaled_final/0513_fw.mp4	0.0	309.08911991119385	0.09993314743041992
67	287.72338700294495	fix_pre	0		120	65.0	2.5	/experiments/AOT/AOT_stimuli/rescaled_final/0869_fw.mp4	0.0	309.18905305862427	1.0000360012054443
67	288.3070058822632	pulse	0	t		65.0	2.5	/experiments/AOT/AOT_stimuli/rescaled_final/0869_fw.mp4	0.0	309.7726719379425	
67	288.7234230041504	movie	1		244	65.0	2.5	/experiments/AOT/AOT_stimuli/rescaled_final/0869_fw.mp4	0.0	310.1890890598297	2.5000429153442383
67	289.906968832016	pulse	1	t		65.0	2.5	/experiments/AOT/AOT_stimuli/rescaled_final/0869_fw.mp4	0.0	311.3726348876953	
67	291.22346591949463	fix_post	2		12	65.0	2.5	/experiments/AOT/AOT_stimuli/rescaled_final/0869_fw.mp4	0.0	312.68913197517395	0.09996604919433594
68	291.32343196868896	fix_pre	0		120	66.0	2.5	/experiments/AOT/AOT_stimuli/rescaled_final/1823_fw.mp4	0.0	312.7890980243683	0.9999690055847168
68	291.50696301460266	pulse	0	t		66.0	2.5	/experiments/AOT/AOT_stimuli/rescaled_final/1823_fw.mp4	0.0	312.972629070282	
68	292.3234009742737	movie	1		244	66.0	2.5	/experiments/AOT/AOT_stimuli/rescaled_final/1823_fw.mp4	0.0	313.789067029953	2.500058889389038
68	293.1070599555969	pulse	1	t		66.0	2.5	/experiments/AOT/AOT_stimuli/rescaled_final/1823_fw.mp4	0.0	314.57272601127625	
68	294.70540499687195	pulse	1	t		66.0	2.5	/experiments/AOT/AOT_stimuli/rescaled_final/1823_fw.mp4	0.0	316.17107105255127	
68	294.8234598636627	fix_post	2		12	66.0	2.5	/experiments/AOT/AOT_stimuli/rescaled_final/1823_fw.mp4	0.0	316.28912591934204	0.09998917579650879
69	294.92344903945923	fix_pre	0		120	67.0	2.5	/experiments/AOT/AOT_stimuli/rescaled_final/1756_rv.mp4	0.0	316.38911509513855	0.9999969005584717
69	295.9234459400177	movie	1		245	67.0	2.5	/experiments/AOT/AOT_stimuli/rescaled_final/1756_rv.mp4	0.0	317.389111995697	2.4995920658111572
69	296.30815386772156	pulse	1	t		67.0	2.5	/experiments/AOT/AOT_stimuli/rescaled_final/1756_rv.mp4	0.0	317.7738199234009	
69	297.90654492378235	pulse	1	t		67.0	2.5	/experiments/AOT/AOT_stimuli/rescaled_final/1756_rv.mp4	0.0	319.37221097946167	
69	298.42303800582886	fix_post	2		12	67.0	2.5	/experiments/AOT/AOT_stimuli/rescaled_final/1756_rv.mp4	0.0	319.8887040615082	0.10013103485107422
70	298.52316904067993	fix_pre	0		119	68.0	2.5	/experiments/AOT/AOT_stimuli/rescaled_final/1982_rv.mp4	0.0	319.98883509635925	0.9921689033508301
70	299.5071039199829	pulse	0	t		68.0	2.5	/experiments/AOT/AOT_stimuli/rescaled_final/1982_rv.mp4	0.0	320.97276997566223	
70	299.51533794403076	movie	1		246	68.0	2.5	/experiments/AOT/AOT_stimuli/rescaled_final/1982_rv.mp4	0.0	320.9810039997101	2.5076239109039307
70	301.1067478656769	pulse	1	t		68.0	2.5	/experiments/AOT/AOT_stimuli/rescaled_final/1982_rv.mp4	0.0	322.5724139213562	
70	302.0229618549347	fix_post	2		12	68.0	2.5	/experiments/AOT/AOT_stimuli/rescaled_final/1982_rv.mp4	0.0	323.488627910614	0.10044503211975098
71	302.12340688705444	fix_pre	0		120	69.0	2.5	/experiments/AOT/AOT_stimuli/rescaled_final/2024_fw.mp4	0.0	323.58907294273376	0.9995830059051514
71	302.7069180011749	pulse	0	t		69.0	2.5	/experiments/AOT/AOT_stimuli/rescaled_final/2024_fw.mp4	0.0	324.17258405685425	
71	303.1229898929596	movie	1		247	69.0	2.5	/experiments/AOT/AOT_stimuli/rescaled_final/2024_fw.mp4	0.0	324.5886559486389	2.4998860359191895
71	304.30692195892334	pulse	1	t		69.0	2.5	/experiments/AOT/AOT_stimuli/rescaled_final/2024_fw.mp4	0.0	325.77258801460266	
71	305.6228759288788	fix_post	2		12	69.0	2.5	/experiments/AOT/AOT_stimuli/rescaled_final/2024_fw.mp4	0.0	327.0885419845581	0.10045313835144043
72	305.7233290672302	fix_pre	0		120	70.0	2.5	blank	1.0	327.18899512290955	1.000079870223999
72	305.90686297416687	pulse	0	t		70.0	2.5	blank	1.0	327.3725290298462	
72	306.7234089374542	movie	1		300	70.0	2.5	blank	1.0	328.18907499313354	2.4999189376831055
72	307.50699400901794	pulse	1	t		70.0	2.5	blank	1.0	328.97266006469727	
72	309.10684394836426	pulse	1	t		70.0	2.5	blank	1.0	330.5725100040436	
72	309.22332787513733	fix_post	2		12	70.0	2.5	blank	1.0	330.68899393081665	0.09997415542602539
73	309.32330203056335	fix_pre	0		120	71.0	2.5	/experiments/AOT/AOT_stimuli/rescaled_final/1259_fw.mp4	0.0	330.7889680862427	1.0000288486480713
73	310.3233308792114	movie	1		245	71.0	2.5	/experiments/AOT/AOT_stimuli/rescaled_final/1259_fw.mp4	0.0	331.78899693489075	2.4999351501464844
73	310.7077519893646	pulse	1	t		71.0	2.5	/experiments/AOT/AOT_stimuli/rescaled_final/1259_fw.mp4	0.0	332.17341804504395	
73	312.30673694610596	pulse	1	t		71.0	2.5	/experiments/AOT/AOT_stimuli/rescaled_final/1259_fw.mp4	0.0	333.7724030017853	
73	312.8232660293579	fix_post	2		12	71.0	2.5	/experiments/AOT/AOT_stimuli/rescaled_final/1259_fw.mp4	0.0	334.28893208503723	0.10007095336914062
74	312.92333698272705	fix_pre	0		119	72.0	2.5	/experiments/AOT/AOT_stimuli/rescaled_final/1838_rv.mp4	0.0	334.3890030384064	0.9916799068450928
74	313.9068269729614	pulse	0	t		72.0	2.5	/experiments/AOT/AOT_stimuli/rescaled_final/1838_rv.mp4	0.0	335.37249302864075	
74	313.91501688957214	movie	1		246	72.0	2.5	/experiments/AOT/AOT_stimuli/rescaled_final/1838_rv.mp4	0.0	335.38068294525146	2.5083611011505127
74	315.50640296936035	pulse	1	t		72.0	2.5	/experiments/AOT/AOT_stimuli/rescaled_final/1838_rv.mp4	0.0	336.9720690250397	
74	316.42337799072266	fix_post	2		12	72.0	2.5	/experiments/AOT/AOT_stimuli/rescaled_final/1838_rv.mp4	0.0	337.889044046402	0.0999460220336914
75	316.52332401275635	fix_pre	0		120	73.0	2.5	/experiments/AOT/AOT_stimuli/rescaled_final/0206_fw.mp4	0.0	337.98899006843567	0.9999699592590332
75	317.1068139076233	pulse	0	t		73.0	2.5	/experiments/AOT/AOT_stimuli/rescaled_final/0206_fw.mp4	0.0	338.5724799633026	
75	317.5232939720154	movie	1		245	73.0	2.5	/experiments/AOT/AOT_stimuli/rescaled_final/0206_fw.mp4	0.0	338.9889600276947	2.4999940395355225
75	318.7068328857422	pulse	1	t		73.0	2.5	/experiments/AOT/AOT_stimuli/rescaled_final/0206_fw.mp4	0.0	340.1724989414215	
75	320.0232880115509	fix_post	2		12	73.0	2.5	/experiments/AOT/AOT_stimuli/rescaled_final/0206_fw.mp4	0.0	341.4889540672302	0.09999895095825195
76	320.12328696250916	fix_pre	0		120	74.0	2.5	/experiments/AOT/AOT_stimuli/rescaled_final/1641_fw.mp4	0.0	341.5889530181885	0.9995908737182617
76	320.30677103996277	pulse	0	t		74.0	2.5	/experiments/AOT/AOT_stimuli/rescaled_final/1641_fw.mp4	0.0	341.7724370956421	
76	321.1228778362274	movie	1		244	74.0	2.5	/experiments/AOT/AOT_stimuli/rescaled_final/1641_fw.mp4	0.0	342.58854389190674	2.5003411769866943
76	321.9067659378052	pulse	1	t		74.0	2.5	/experiments/AOT/AOT_stimuli/rescaled_final/1641_fw.mp4	0.0	343.3724319934845	
76	323.50538206100464	pulse	1	t		74.0	2.5	/experiments/AOT/AOT_stimuli/rescaled_final/1641_fw.mp4	0.0	344.97104811668396	
76	323.6232190132141	fix_post	2		12	74.0	2.5	/experiments/AOT/AOT_stimuli/rescaled_final/1641_fw.mp4	0.0	345.08888506889343	0.10009002685546875
77	323.7233090400696	fix_pre	0		120	75.0	2.5	/experiments/AOT/AOT_stimuli/rescaled_final/1659_rv.mp4	0.0	345.1889750957489	0.9995629787445068
77	324.7228720188141	movie	1		245	75.0	2.5	/experiments/AOT/AOT_stimuli/rescaled_final/1659_rv.mp4	0.0	346.1885380744934	2.4999239444732666
77	325.10674691200256	pulse	1	t		75.0	2.5	/experiments/AOT/AOT_stimuli/rescaled_final/1659_rv.mp4	0.0	346.5724129676819	
77	326.70669198036194	pulse	1	t		75.0	2.5	/experiments/AOT/AOT_stimuli/rescaled_final/1659_rv.mp4	0.0	348.17235803604126	
77	327.22279596328735	fix_post	2		12	75.0	2.5	/experiments/AOT/AOT_stimuli/rescaled_final/1659_rv.mp4	0.0	348.6884620189667	0.10044407844543457
78	327.3232400417328	fix_pre	0		119	76.0	2.5	/experiments/AOT/AOT_stimuli/rescaled_final/0736_rv.mp4	0.0	348.7889060974121	0.991722822189331
78	328.306697845459	pulse	0	t		76.0	2.5	/experiments/AOT/AOT_stimuli/rescaled_final/0736_rv.mp4	0.0	349.7723639011383	
78	328.3149628639221	movie	1		246	76.0	2.5	/experiments/AOT/AOT_stimuli/rescaled_final/0736_rv.mp4	0.0	349.78062891960144	2.508258104324341
78	329.90630984306335	pulse	1	t		76.0	2.5	/experiments/AOT/AOT_stimuli/rescaled_final/0736_rv.mp4	0.0	351.3719758987427	
78	330.82322096824646	fix_post	2		12	76.0	2.5	/experiments/AOT/AOT_stimuli/rescaled_final/0736_rv.mp4	0.0	352.2888870239258	0.09999895095825195
79	330.9232199192047	fix_pre	0		120	77.0	2.5	blank	1.0	352.38888597488403	1.0000770092010498
79	331.50667691230774	pulse	0	t		77.0	2.5	blank	1.0	352.97234296798706	
79	331.92329692840576	movie	1		300	77.0	2.5	blank	1.0	353.3889629840851	2.4999780654907227
79	333.10672998428345	pulse	1	t		77.0	2.5	blank	1.0	354.57239603996277	
79	334.4232749938965	fix_post	2		12	77.0	2.5	blank	1.0	355.8889410495758	0.09994792938232422
80	334.5232229232788	fix_pre	0		120	78.0	2.5	/experiments/AOT/AOT_stimuli/rescaled_final/1367_rv.mp4	0.0	355.98888897895813	0.9999339580535889
80	334.7067539691925	pulse	0	t		78.0	2.5	/experiments/AOT/AOT_stimuli/rescaled_final/1367_rv.mp4	0.0	356.1724200248718	
80	335.5231568813324	movie	1		244	78.0	2.5	/experiments/AOT/AOT_stimuli/rescaled_final/1367_rv.mp4	0.0	356.9888229370117	2.5000550746917725
80	336.3066689968109	pulse	1	t		78.0	2.5	/experiments/AOT/AOT_stimuli/rescaled_final/1367_rv.mp4	0.0	357.77233505249023	
80	337.90537095069885	pulse	1	t		78.0	2.5	/experiments/AOT/AOT_stimuli/rescaled_final/1367_rv.mp4	0.0	359.3710370063782	
80	338.02321195602417	fix_post	2		12	78.0	2.5	/experiments/AOT/AOT_stimuli/rescaled_final/1367_rv.mp4	0.0	359.4888780117035	0.09992504119873047
81	338.1231369972229	fix_pre	0		120	79.0	2.5	/experiments/AOT/AOT_stimuli/rescaled_final/1693_fw.mp4	0.0	359.5888030529022	0.999614953994751
81	339.12275195121765	movie	1		247	79.0	2.5	/experiments/AOT/AOT_stimuli/rescaled_final/1693_fw.mp4	0.0	360.588418006897	2.5004220008850098
81	339.5066149234772	pulse	1	t		79.0	2.5	/experiments/AOT/AOT_stimuli/rescaled_final/1693_fw.mp4	0.0	360.9722809791565	
81	341.10672092437744	pulse	1	t		79.0	2.5	/experiments/AOT/AOT_stimuli/rescaled_final/1693_fw.mp4	0.0	362.57238698005676	
81	341.62317395210266	fix_post	2		12	79.0	2.5	/experiments/AOT/AOT_stimuli/rescaled_final/1693_fw.mp4	0.0	363.088840007782	0.09995698928833008
82	341.723130941391	fix_pre	0		119	80.0	2.5	/experiments/AOT/AOT_stimuli/rescaled_final/1332_fw.mp4	0.0	363.1887969970703	0.9917130470275879
82	342.7066788673401	pulse	0	t		80.0	2.5	/experiments/AOT/AOT_stimuli/rescaled_final/1332_fw.mp4	0.0	364.1723449230194	
82	342.7148439884186	movie	1		244	80.0	2.5	/experiments/AOT/AOT_stimuli/rescaled_final/1332_fw.mp4	0.0	364.1805100440979	2.5078799724578857
82	344.30624890327454	pulse	1	t		80.0	2.5	/experiments/AOT/AOT_stimuli/rescaled_final/1332_fw.mp4	0.0	365.77191495895386	
82	345.22272396087646	fix_post	2		12	80.0	2.5	/experiments/AOT/AOT_stimuli/rescaled_final/1332_fw.mp4	0.0	366.6883900165558	0.10037088394165039
83	345.3230948448181	fix_pre	0		120	81.0	2.5	/experiments/AOT/AOT_stimuli/rescaled_final/2110_fw.mp4	0.0	366.78876090049744	1.000054121017456
83	345.9066798686981	pulse	0	t		81.0	2.5	/experiments/AOT/AOT_stimuli/rescaled_final/2110_fw.mp4	0.0	367.37234592437744	
83	346.32314896583557	movie	1		245	81.0	2.5	/experiments/AOT/AOT_stimuli/rescaled_final/2110_fw.mp4	0.0	367.7888150215149	2.5000128746032715
83	347.5066828727722	pulse	1	t		81.0	2.5	/experiments/AOT/AOT_stimuli/rescaled_final/2110_fw.mp4	0.0	368.97234892845154	
83	348.82316184043884	fix_post	2		12	81.0	2.5	/experiments/AOT/AOT_stimuli/rescaled_final/2110_fw.mp4	0.0	370.28882789611816	0.09996414184570312
84	348.92312598228455	fix_pre	0		120	82.0	2.5	blank	1.0	370.38879203796387	0.9995758533477783
84	349.10672402381897	pulse	0	t		82.0	2.5	blank	1.0	370.5723900794983	
84	349.9227018356323	movie	1		300	82.0	2.5	blank	1.0	371.38836789131165	2.5004611015319824
84	350.7066249847412	pulse	1	t		82.0	2.5	blank	1.0	372.17229104042053	
84	352.3066430091858	pulse	1	t		82.0	2.5	blank	1.0	373.7723090648651	
84	352.4231629371643	fix_post	2		12	82.0	2.5	blank	1.0	373.8888289928436	0.09998607635498047
85	352.5231490135193	fix_pre	0		120	83.0	2.5	/experiments/AOT/AOT_stimuli/rescaled_final/0273_rv.mp4	0.0	373.9888150691986	0.9995739459991455
85	353.52272295951843	movie	1		244	83.0	2.5	/experiments/AOT/AOT_stimuli/rescaled_final/0273_rv.mp4	0.0	374.98838901519775	2.500715970993042
85	353.90580201148987	pulse	1	t		83.0	2.5	/experiments/AOT/AOT_stimuli/rescaled_final/0273_rv.mp4	0.0	375.3714680671692	
85	355.50686383247375	pulse	1	t		83.0	2.5	/experiments/AOT/AOT_stimuli/rescaled_final/0273_rv.mp4	0.0	376.9725298881531	
85	356.0234389305115	fix_post	2		12	83.0	2.5	/experiments/AOT/AOT_stimuli/rescaled_final/0273_rv.mp4	0.0	377.4891049861908	0.10003495216369629
87	356.12347388267517	stim	0		1716					377.5891399383545	14.299617052078247
87	357.1066608428955	pulse	0	t						378.57232689857483	
87	358.70657300949097	pulse	0	t						380.1722390651703	
87	360.3066408634186	pulse	0	t						381.7723069190979	
87	361.90655183792114	pulse	0	t						383.37221789360046	
87	363.50654101371765	pulse	0	t						384.972207069397	
87	365.1064760684967	pulse	0	t						386.572142124176	
87	366.7065119743347	pulse	0	t						388.17217803001404	
87	368.3065400123596	pulse	0	t						389.77220606803894	
87	369.9064919948578	pulse	0	t						391.3721580505371	
