trial_nr	onset	event_type	phase	response	nr_frames	movie_index	movie_duration	movie_file	blank	onset_abs	duration
0	0.1579279899597168	stim	0		69					24.01158595085144	0.5752999782562256
0	0.7252440452575684	response	0	space						24.578902006149292	
1	0.7332279682159424	stim	0		4462					24.586885929107666	37.18317413330078
1	37.90890908241272	pulse	0	t						61.76256704330444	
1	37.916402101516724	stim	1		1717					61.77006006240845	14.308267831802368
1	39.508285999298096	pulse	1	t						63.36194396018982	
1	41.10816407203674	pulse	1	t						64.96182203292847	
1	42.708242893218994	pulse	1	t						66.56190085411072	
1	44.30828404426575	pulse	1	t						68.16194200515747	
1	45.908252000808716	pulse	1	t						69.76190996170044	
1	47.507817029953	pulse	1	t						71.36147499084473	
1	49.1079740524292	pulse	1	t						72.96163201332092	
1	50.70808291435242	pulse	1	t						74.56174087524414	
2	52.22466993331909	fix_pre	0		11	0.0	2.5	/experiments/AOT/AOT_stimuli/rescaled_final/0697_rv.mp4	0.0	76.07832789421082	0.09169316291809082
2	52.30822205543518	pulse	0	t		0.0	2.5	/experiments/AOT/AOT_stimuli/rescaled_final/0697_rv.mp4	0.0	76.1618800163269	
2	52.31636309623718	movie	1		244	0.0	2.5	/experiments/AOT/AOT_stimuli/rescaled_final/0697_rv.mp4	0.0	76.1700210571289	2.508309841156006
2	53.90776801109314	pulse	1	t		0.0	2.5	/experiments/AOT/AOT_stimuli/rescaled_final/0697_rv.mp4	0.0	77.76142597198486	
2	54.82467293739319	fix_post	2		12	0.0	2.5	/experiments/AOT/AOT_stimuli/rescaled_final/0697_rv.mp4	0.0	78.67833089828491	0.10005903244018555
3	54.924731969833374	fix_pre	0		120	1.0	2.5	/experiments/AOT/AOT_stimuli/rescaled_final/1339_rv.mp4	0.0	78.7783899307251	0.99989914894104
3	55.50821304321289	pulse	0	t		1.0	2.5	/experiments/AOT/AOT_stimuli/rescaled_final/1339_rv.mp4	0.0	79.36187100410461	
3	55.924631118774414	movie	1		245	1.0	2.5	/experiments/AOT/AOT_stimuli/rescaled_final/1339_rv.mp4	0.0	79.77828907966614	2.499574899673462
3	57.108242988586426	pulse	1	t		1.0	2.5	/experiments/AOT/AOT_stimuli/rescaled_final/1339_rv.mp4	0.0	80.96190094947815	
3	58.424206018447876	fix_post	2		12	1.0	2.5	/experiments/AOT/AOT_stimuli/rescaled_final/1339_rv.mp4	0.0	82.2778639793396	0.10036492347717285
4	58.52457094192505	fix_pre	0		120	2.0	2.5	/experiments/AOT/AOT_stimuli/rescaled_final/0954_fw.mp4	0.0	82.37822890281677	1.0000560283660889
4	58.70809602737427	pulse	0	t		2.0	2.5	/experiments/AOT/AOT_stimuli/rescaled_final/0954_fw.mp4	0.0	82.56175398826599	
4	59.52462697029114	movie	1		247	2.0	2.5	/experiments/AOT/AOT_stimuli/rescaled_final/0954_fw.mp4	0.0	83.37828493118286	2.4996039867401123
4	60.30808997154236	pulse	1	t		2.0	2.5	/experiments/AOT/AOT_stimuli/rescaled_final/0954_fw.mp4	0.0	84.16174793243408	
4	61.90769600868225	pulse	1	t		2.0	2.5	/experiments/AOT/AOT_stimuli/rescaled_final/0954_fw.mp4	0.0	85.76135396957397	
4	62.02423095703125	fix_post	2		12	2.0	2.5	/experiments/AOT/AOT_stimuli/rescaled_final/0954_fw.mp4	0.0	85.87788891792297	0.10043096542358398
5	62.124661922454834	fix_pre	0		120	3.0	2.5	/experiments/AOT/AOT_stimuli/rescaled_final/0475_rv.mp4	0.0	85.97831988334656	0.9999620914459229
5	63.12462401390076	movie	1		245	3.0	2.5	/experiments/AOT/AOT_stimuli/rescaled_final/0475_rv.mp4	0.0	86.97828197479248	2.5000250339508057
5	63.50749111175537	pulse	1	t		3.0	2.5	/experiments/AOT/AOT_stimuli/rescaled_final/0475_rv.mp4	0.0	87.3611490726471	
5	65.10809993743896	pulse	1	t		3.0	2.5	/experiments/AOT/AOT_stimuli/rescaled_final/0475_rv.mp4	0.0	88.96175789833069	
5	65.62464904785156	fix_post	2		12	3.0	2.5	/experiments/AOT/AOT_stimuli/rescaled_final/0475_rv.mp4	0.0	89.47830700874329	0.09999704360961914
6	65.72464609146118	fix_pre	0		119	4.0	2.5	/experiments/AOT/AOT_stimuli/rescaled_final/1959_rv.mp4	0.0	89.5783040523529	0.991663932800293
6	66.70810198783875	pulse	0	t		4.0	2.5	/experiments/AOT/AOT_stimuli/rescaled_final/1959_rv.mp4	0.0	90.56175994873047	
6	66.71631002426147	movie	1		246	4.0	2.5	/experiments/AOT/AOT_stimuli/rescaled_final/1959_rv.mp4	0.0	90.5699679851532	2.508302927017212
6	68.30855107307434	pulse	1	t		4.0	2.5	/experiments/AOT/AOT_stimuli/rescaled_final/1959_rv.mp4	0.0	92.16220903396606	
6	69.22461295127869	fix_post	2		12	4.0	2.5	/experiments/AOT/AOT_stimuli/rescaled_final/1959_rv.mp4	0.0	93.07827091217041	0.10007095336914062
7	69.32468390464783	fix_pre	0		120	5.0	2.5	blank	1.0	93.17834186553955	0.9999110698699951
7	69.90814900398254	pulse	0	t		5.0	2.5	blank	1.0	93.76180696487427	
7	70.32459497451782	movie	1		300	5.0	2.5	blank	1.0	94.17825293540955	2.500030040740967
7	71.50834012031555	pulse	1	t		5.0	2.5	blank	1.0	95.36199808120728	
7	72.82462501525879	fix_post	2		12	5.0	2.5	blank	1.0	96.67828297615051	0.09994292259216309
8	72.92456793785095	fix_pre	0		120	6.0	2.5	/experiments/AOT/AOT_stimuli/rescaled_final/0629_rv.mp4	0.0	96.77822589874268	1.0000231266021729
8	73.10806608200073	pulse	0	t		6.0	2.5	/experiments/AOT/AOT_stimuli/rescaled_final/0629_rv.mp4	0.0	96.96172404289246	
8	73.92459106445312	movie	1		245	6.0	2.5	/experiments/AOT/AOT_stimuli/rescaled_final/0629_rv.mp4	0.0	97.77824902534485	2.4995529651641846
8	74.70810198783875	pulse	1	t		6.0	2.5	/experiments/AOT/AOT_stimuli/rescaled_final/0629_rv.mp4	0.0	98.56175994873047	
8	76.30417609214783	pulse	1	t		6.0	2.5	/experiments/AOT/AOT_stimuli/rescaled_final/0629_rv.mp4	0.0	100.15783405303955	
8	76.42414402961731	fix_post	2		12	6.0	2.5	/experiments/AOT/AOT_stimuli/rescaled_final/0629_rv.mp4	0.0	100.27780199050903	0.10043096542358398
9	76.5245749950409	fix_pre	0		120	7.0	2.5	/experiments/AOT/AOT_stimuli/rescaled_final/0051_rv.mp4	0.0	100.37823295593262	0.9998989105224609
9	77.52447390556335	movie	1		244	7.0	2.5	/experiments/AOT/AOT_stimuli/rescaled_final/0051_rv.mp4	0.0	101.37813186645508	2.499660015106201
9	77.9078140258789	pulse	1	t		7.0	2.5	/experiments/AOT/AOT_stimuli/rescaled_final/0051_rv.mp4	0.0	101.76147198677063	
9	79.50803303718567	pulse	1	t		7.0	2.5	/experiments/AOT/AOT_stimuli/rescaled_final/0051_rv.mp4	0.0	103.36169099807739	
9	80.02413392066956	fix_post	2		12	7.0	2.5	/experiments/AOT/AOT_stimuli/rescaled_final/0051_rv.mp4	0.0	103.87779188156128	0.10061216354370117
10	80.12474608421326	fix_pre	0		119	8.0	2.5	/experiments/AOT/AOT_stimuli/rescaled_final/2090_fw.mp4	0.0	103.97840404510498	0.9914748668670654
10	81.1080949306488	pulse	0	t		8.0	2.5	/experiments/AOT/AOT_stimuli/rescaled_final/2090_fw.mp4	0.0	104.96175289154053	
10	81.11622095108032	movie	1		248	8.0	2.5	/experiments/AOT/AOT_stimuli/rescaled_final/2090_fw.mp4	0.0	104.96987891197205	2.508397102355957
10	82.70759105682373	pulse	1	t		8.0	2.5	/experiments/AOT/AOT_stimuli/rescaled_final/2090_fw.mp4	0.0	106.56124901771545	
10	83.62461805343628	fix_post	2		12	8.0	2.5	/experiments/AOT/AOT_stimuli/rescaled_final/2090_fw.mp4	0.0	107.478276014328	0.0999460220336914
11	83.72456407546997	fix_pre	0		120	9.0	2.5	/experiments/AOT/AOT_stimuli/rescaled_final/0698_fw.mp4	0.0	107.5782220363617	1.0000338554382324
11	84.30815696716309	pulse	0	t		9.0	2.5	/experiments/AOT/AOT_stimuli/rescaled_final/0698_fw.mp4	0.0	108.16181492805481	
11	84.7245979309082	movie	1		247	9.0	2.5	/experiments/AOT/AOT_stimuli/rescaled_final/0698_fw.mp4	0.0	108.57825589179993	2.499912977218628
11	85.90816807746887	pulse	1	t		9.0	2.5	/experiments/AOT/AOT_stimuli/rescaled_final/0698_fw.mp4	0.0	109.7618260383606	
11	87.22451090812683	fix_post	2		12	9.0	2.5	/experiments/AOT/AOT_stimuli/rescaled_final/0698_fw.mp4	0.0	111.07816886901855	0.1000680923461914
12	87.32457900047302	fix_pre	0		120	10.0	2.5	/experiments/AOT/AOT_stimuli/rescaled_final/2035_fw.mp4	0.0	111.17823696136475	0.9998910427093506
12	87.50803995132446	pulse	0	t		10.0	2.5	/experiments/AOT/AOT_stimuli/rescaled_final/2035_fw.mp4	0.0	111.36169791221619	
12	88.32447004318237	movie	1		246	10.0	2.5	/experiments/AOT/AOT_stimuli/rescaled_final/2035_fw.mp4	0.0	112.1781280040741	2.49965500831604
12	89.10796093940735	pulse	1	t		10.0	2.5	/experiments/AOT/AOT_stimuli/rescaled_final/2035_fw.mp4	0.0	112.96161890029907	
12	90.70662593841553	pulse	1	t		10.0	2.5	/experiments/AOT/AOT_stimuli/rescaled_final/2035_fw.mp4	0.0	114.56028389930725	
12	90.82412505149841	fix_post	2		12	10.0	2.5	/experiments/AOT/AOT_stimuli/rescaled_final/2035_fw.mp4	0.0	114.67778301239014	0.10040593147277832
13	90.92453098297119	fix_pre	0		120	11.0	2.5	/experiments/AOT/AOT_stimuli/rescaled_final/2129_rv.mp4	0.0	114.77818894386292	0.9999759197235107
13	91.9245069026947	movie	1		243	11.0	2.5	/experiments/AOT/AOT_stimuli/rescaled_final/2129_rv.mp4	0.0	115.77816486358643	2.5000481605529785
13	92.30813789367676	pulse	1	t		11.0	2.5	/experiments/AOT/AOT_stimuli/rescaled_final/2129_rv.mp4	0.0	116.16179585456848	
13	93.90792298316956	pulse	1	t		11.0	2.5	/experiments/AOT/AOT_stimuli/rescaled_final/2129_rv.mp4	0.0	117.76158094406128	
13	94.42455506324768	fix_post	2		12	11.0	2.5	/experiments/AOT/AOT_stimuli/rescaled_final/2129_rv.mp4	0.0	118.2782130241394	0.1000058650970459
14	94.52456092834473	fix_pre	0		119	12.0	2.5	/experiments/AOT/AOT_stimuli/rescaled_final/2089_rv.mp4	0.0	118.37821888923645	0.9915871620178223
14	95.50800204277039	pulse	0	t		12.0	2.5	/experiments/AOT/AOT_stimuli/rescaled_final/2089_rv.mp4	0.0	119.36166000366211	
14	95.51614809036255	movie	1		246	12.0	2.5	/experiments/AOT/AOT_stimuli/rescaled_final/2089_rv.mp4	0.0	119.36980605125427	2.507960796356201
14	97.10805106163025	pulse	1	t		12.0	2.5	/experiments/AOT/AOT_stimuli/rescaled_final/2089_rv.mp4	0.0	120.96170902252197	
14	98.02410888671875	fix_post	2		12	12.0	2.5	/experiments/AOT/AOT_stimuli/rescaled_final/2089_rv.mp4	0.0	121.87776684761047	0.10042500495910645
15	98.12453389167786	fix_pre	0		120	13.0	2.5	blank	1.0	121.97819185256958	1.0000410079956055
15	98.70799493789673	pulse	0	t		13.0	2.5	blank	1.0	122.56165289878845	
15	99.12457489967346	movie	1		300	13.0	2.5	blank	1.0	122.97823286056519	2.5000240802764893
15	100.30787992477417	pulse	1	t		13.0	2.5	blank	1.0	124.1615378856659	
15	101.62459897994995	fix_post	2		12	13.0	2.5	blank	1.0	125.47825694084167	0.0999000072479248
16	101.72449898719788	fix_pre	0		120	14.0	2.5	/experiments/AOT/AOT_stimuli/rescaled_final/1863_rv.mp4	0.0	125.5781569480896	0.9999079704284668
16	101.90800905227661	pulse	0	t		14.0	2.5	/experiments/AOT/AOT_stimuli/rescaled_final/1863_rv.mp4	0.0	125.76166701316833	
16	102.72440695762634	movie	1		248	14.0	2.5	/experiments/AOT/AOT_stimuli/rescaled_final/1863_rv.mp4	0.0	126.57806491851807	2.500138998031616
16	103.5079391002655	pulse	1	t		14.0	2.5	/experiments/AOT/AOT_stimuli/rescaled_final/1863_rv.mp4	0.0	127.36159706115723	
16	105.10377311706543	pulse	1	t		14.0	2.5	/experiments/AOT/AOT_stimuli/rescaled_final/1863_rv.mp4	0.0	128.95743107795715	
16	105.22454595565796	fix_post	2		12	14.0	2.5	/experiments/AOT/AOT_stimuli/rescaled_final/1863_rv.mp4	0.0	129.07820391654968	0.09999299049377441
17	105.32453894615173	fix_pre	0		120	15.0	2.5	/experiments/AOT/AOT_stimuli/rescaled_final/1005_fw.mp4	0.0	129.17819690704346	0.9998300075531006
17	106.32436895370483	movie	1		247	15.0	2.5	/experiments/AOT/AOT_stimuli/rescaled_final/1005_fw.mp4	0.0	130.17802691459656	2.49959397315979
17	106.70778703689575	pulse	1	t		15.0	2.5	/experiments/AOT/AOT_stimuli/rescaled_final/1005_fw.mp4	0.0	130.56144499778748	
17	108.3079481124878	pulse	1	t		15.0	2.5	/experiments/AOT/AOT_stimuli/rescaled_final/1005_fw.mp4	0.0	132.16160607337952	
17	108.82396292686462	fix_post	2		12	15.0	2.5	/experiments/AOT/AOT_stimuli/rescaled_final/1005_fw.mp4	0.0	132.67762088775635	0.10050010681152344
18	108.92446303367615	fix_pre	0		119	16.0	2.5	/experiments/AOT/AOT_stimuli/rescaled_final/1871_rv.mp4	0.0	132.77812099456787	0.99167799949646
18	109.90791893005371	pulse	0	t		16.0	2.5	/experiments/AOT/AOT_stimuli/rescaled_final/1871_rv.mp4	0.0	133.76157689094543	
18	109.91614103317261	movie	1		248	16.0	2.5	/experiments/AOT/AOT_stimuli/rescaled_final/1871_rv.mp4	0.0	133.76979899406433	2.5078258514404297
18	111.50779294967651	pulse	1	t		16.0	2.5	/experiments/AOT/AOT_stimuli/rescaled_final/1871_rv.mp4	0.0	135.36145091056824	
18	112.42396688461304	fix_post	2		12	16.0	2.5	/experiments/AOT/AOT_stimuli/rescaled_final/1871_rv.mp4	0.0	136.27762484550476	0.10039806365966797
19	112.5243649482727	fix_pre	0		120	17.0	2.5	/experiments/AOT/AOT_stimuli/rescaled_final/1289_rv.mp4	0.0	136.37802290916443	1.0001139640808105
19	113.1078851222992	pulse	0	t		17.0	2.5	/experiments/AOT/AOT_stimuli/rescaled_final/1289_rv.mp4	0.0	136.96154308319092	
19	113.52447891235352	movie	1		244	17.0	2.5	/experiments/AOT/AOT_stimuli/rescaled_final/1289_rv.mp4	0.0	137.37813687324524	2.4999420642852783
19	114.70791101455688	pulse	1	t		17.0	2.5	/experiments/AOT/AOT_stimuli/rescaled_final/1289_rv.mp4	0.0	138.5615689754486	
19	116.0244209766388	fix_post	2		12	17.0	2.5	/experiments/AOT/AOT_stimuli/rescaled_final/1289_rv.mp4	0.0	139.87807893753052	0.1000211238861084
20	116.1244421005249	fix_pre	0		120	18.0	2.5	/experiments/AOT/AOT_stimuli/rescaled_final/1846_fw.mp4	0.0	139.97810006141663	0.9995598793029785
20	116.30789995193481	pulse	0	t		18.0	2.5	/experiments/AOT/AOT_stimuli/rescaled_final/1846_fw.mp4	0.0	140.16155791282654	
20	117.12400197982788	movie	1		245	18.0	2.5	/experiments/AOT/AOT_stimuli/rescaled_final/1846_fw.mp4	0.0	140.9776599407196	2.5003719329833984
20	117.90782308578491	pulse	1	t		18.0	2.5	/experiments/AOT/AOT_stimuli/rescaled_final/1846_fw.mp4	0.0	141.76148104667664	
20	119.50630307197571	pulse	1	t		18.0	2.5	/experiments/AOT/AOT_stimuli/rescaled_final/1846_fw.mp4	0.0	143.35996103286743	
20	119.62437391281128	fix_post	2		12	18.0	2.5	/experiments/AOT/AOT_stimuli/rescaled_final/1846_fw.mp4	0.0	143.478031873703	0.1000051498413086
21	119.72437906265259	fix_pre	0		120	19.0	2.5	/experiments/AOT/AOT_stimuli/rescaled_final/1434_rv.mp4	0.0	143.5780370235443	0.9999990463256836
21	120.72437810897827	movie	1		243	19.0	2.5	/experiments/AOT/AOT_stimuli/rescaled_final/1434_rv.mp4	0.0	144.57803606987	2.4999468326568604
21	121.10771989822388	pulse	1	t		19.0	2.5	/experiments/AOT/AOT_stimuli/rescaled_final/1434_rv.mp4	0.0	144.9613778591156	
21	122.70784401893616	pulse	1	t		19.0	2.5	/experiments/AOT/AOT_stimuli/rescaled_final/1434_rv.mp4	0.0	146.56150197982788	
21	123.22432494163513	fix_post	2		12	19.0	2.5	/experiments/AOT/AOT_stimuli/rescaled_final/1434_rv.mp4	0.0	147.07798290252686	0.09968209266662598
22	123.32400703430176	fix_pre	0		119	20.0	2.5	blank	1.0	147.17766499519348	0.9919660091400146
22	124.30776405334473	pulse	0	t		20.0	2.5	blank	1.0	148.16142201423645	
22	124.31597304344177	movie	1		301	20.0	2.5	blank	1.0	148.1696310043335	2.5084269046783447
22	125.90786790847778	pulse	1	t		20.0	2.5	blank	1.0	149.7615258693695	
22	126.82439994812012	fix_post	2		12	20.0	2.5	blank	1.0	150.67805790901184	0.09991002082824707
23	126.92430996894836	fix_pre	0		120	21.0	2.5	/experiments/AOT/AOT_stimuli/rescaled_final/1000_fw.mp4	0.0	150.7779679298401	1.0000081062316895
23	127.50781297683716	pulse	0	t		21.0	2.5	/experiments/AOT/AOT_stimuli/rescaled_final/1000_fw.mp4	0.0	151.36147093772888	
23	127.92431807518005	movie	1		247	21.0	2.5	/experiments/AOT/AOT_stimuli/rescaled_final/1000_fw.mp4	0.0	151.77797603607178	2.499958038330078
23	129.10788297653198	pulse	1	t		21.0	2.5	/experiments/AOT/AOT_stimuli/rescaled_final/1000_fw.mp4	0.0	152.9615409374237	
23	130.42427611351013	fix_post	2		12	21.0	2.5	/experiments/AOT/AOT_stimuli/rescaled_final/1000_fw.mp4	0.0	154.27793407440186	0.10007286071777344
24	130.5243489742279	fix_pre	0		120	22.0	2.5	/experiments/AOT/AOT_stimuli/rescaled_final/0569_rv.mp4	0.0	154.37800693511963	0.9999270439147949
24	130.70785307884216	pulse	0	t		22.0	2.5	/experiments/AOT/AOT_stimuli/rescaled_final/0569_rv.mp4	0.0	154.5615110397339	
24	131.5242760181427	movie	1		246	22.0	2.5	/experiments/AOT/AOT_stimuli/rescaled_final/0569_rv.mp4	0.0	155.37793397903442	2.4999589920043945
24	132.30786895751953	pulse	1	t		22.0	2.5	/experiments/AOT/AOT_stimuli/rescaled_final/0569_rv.mp4	0.0	156.16152691841125	
24	133.90729689598083	pulse	1	t		22.0	2.5	/experiments/AOT/AOT_stimuli/rescaled_final/0569_rv.mp4	0.0	157.76095485687256	
24	134.0242350101471	fix_post	2		12	22.0	2.5	/experiments/AOT/AOT_stimuli/rescaled_final/0569_rv.mp4	0.0	157.87789297103882	0.09997797012329102
25	134.12421298027039	fix_pre	0		120	23.0	2.5	/experiments/AOT/AOT_stimuli/rescaled_final/1789_rv.mp4	0.0	157.9778709411621	1.000096082687378
25	135.12430906295776	movie	1		246	23.0	2.5	/experiments/AOT/AOT_stimuli/rescaled_final/1789_rv.mp4	0.0	158.9779670238495	2.4998910427093506
25	135.50746488571167	pulse	1	t		23.0	2.5	/experiments/AOT/AOT_stimuli/rescaled_final/1789_rv.mp4	0.0	159.3611228466034	
25	137.1078519821167	pulse	1	t		23.0	2.5	/experiments/AOT/AOT_stimuli/rescaled_final/1789_rv.mp4	0.0	160.96150994300842	
25	137.62420010566711	fix_post	2		12	23.0	2.5	/experiments/AOT/AOT_stimuli/rescaled_final/1789_rv.mp4	0.0	161.47785806655884	0.10011696815490723
26	137.72431707382202	fix_pre	0		119	24.0	2.5	/experiments/AOT/AOT_stimuli/rescaled_final/0232_rv.mp4	0.0	161.57797503471375	0.9916529655456543
26	138.7078619003296	pulse	0	t		24.0	2.5	/experiments/AOT/AOT_stimuli/rescaled_final/0232_rv.mp4	0.0	162.5615198612213	
26	138.71597003936768	movie	1		245	24.0	2.5	/experiments/AOT/AOT_stimuli/rescaled_final/0232_rv.mp4	0.0	162.5696280002594	2.508291006088257
26	140.30717492103577	pulse	1	t		24.0	2.5	/experiments/AOT/AOT_stimuli/rescaled_final/0232_rv.mp4	0.0	164.1608328819275	
26	141.22426104545593	fix_post	2		12	24.0	2.5	/experiments/AOT/AOT_stimuli/rescaled_final/0232_rv.mp4	0.0	165.07791900634766	0.09995293617248535
27	141.32421398162842	fix_pre	0		120	25.0	2.5	/experiments/AOT/AOT_stimuli/rescaled_final/0680_rv.mp4	0.0	165.17787194252014	1.0000550746917725
27	141.90777897834778	pulse	0	t		25.0	2.5	/experiments/AOT/AOT_stimuli/rescaled_final/0680_rv.mp4	0.0	165.7614369392395	
27	142.3242690563202	movie	1		244	25.0	2.5	/experiments/AOT/AOT_stimuli/rescaled_final/0680_rv.mp4	0.0	166.1779270172119	2.499958038330078
27	143.507905960083	pulse	1	t		25.0	2.5	/experiments/AOT/AOT_stimuli/rescaled_final/0680_rv.mp4	0.0	167.36156392097473	
27	144.82422709465027	fix_post	2		12	25.0	2.5	/experiments/AOT/AOT_stimuli/rescaled_final/0680_rv.mp4	0.0	168.677885055542	0.10001182556152344
28	144.9242389202118	fix_pre	0		120	26.0	2.5	/experiments/AOT/AOT_stimuli/rescaled_final/0821_rv.mp4	0.0	168.77789688110352	0.999953031539917
28	145.10780310630798	pulse	0	t		26.0	2.5	/experiments/AOT/AOT_stimuli/rescaled_final/0821_rv.mp4	0.0	168.9614610671997	
28	145.9241919517517	movie	1		244	26.0	2.5	/experiments/AOT/AOT_stimuli/rescaled_final/0821_rv.mp4	0.0	169.77784991264343	2.4999921321868896
28	146.70780897140503	pulse	1	t		26.0	2.5	/experiments/AOT/AOT_stimuli/rescaled_final/0821_rv.mp4	0.0	170.56146693229675	
28	148.3072121143341	pulse	1	t		26.0	2.5	/experiments/AOT/AOT_stimuli/rescaled_final/0821_rv.mp4	0.0	172.16087007522583	
28	148.4241840839386	fix_post	2		12	26.0	2.5	/experiments/AOT/AOT_stimuli/rescaled_final/0821_rv.mp4	0.0	172.27784204483032	0.10007286071777344
29	148.52425694465637	fix_pre	0		120	27.0	2.5	/experiments/AOT/AOT_stimuli/rescaled_final/0804_rv.mp4	0.0	172.3779149055481	1.0000290870666504
29	149.52428603172302	movie	1		245	27.0	2.5	/experiments/AOT/AOT_stimuli/rescaled_final/0804_rv.mp4	0.0	173.37794399261475	2.4999148845672607
29	149.9077320098877	pulse	1	t		27.0	2.5	/experiments/AOT/AOT_stimuli/rescaled_final/0804_rv.mp4	0.0	173.76138997077942	
29	151.5077600479126	pulse	1	t		27.0	2.5	/experiments/AOT/AOT_stimuli/rescaled_final/0804_rv.mp4	0.0	175.36141800880432	
29	152.02420091629028	fix_post	2		12	27.0	2.5	/experiments/AOT/AOT_stimuli/rescaled_final/0804_rv.mp4	0.0	175.877858877182	0.09998703002929688
30	152.12418794631958	fix_pre	0		119	28.0	2.5	blank	1.0	175.9778459072113	0.9916529655456543
30	153.10766291618347	pulse	0	t		28.0	2.5	blank	1.0	176.9613208770752	
30	153.11584091186523	movie	1		301	28.0	2.5	blank	1.0	176.96949887275696	2.50835919380188
30	154.70771598815918	pulse	1	t		28.0	2.5	blank	1.0	178.5613739490509	
30	155.62420010566711	fix_post	2		12	28.0	2.5	blank	1.0	179.47785806655884	0.09994196891784668
31	155.72414207458496	fix_pre	0		120	29.0	2.5	/experiments/AOT/AOT_stimuli/rescaled_final/2061_fw.mp4	0.0	179.57780003547668	1.000044822692871
31	156.30764389038086	pulse	0	t		29.0	2.5	/experiments/AOT/AOT_stimuli/rescaled_final/2061_fw.mp4	0.0	180.16130185127258	
31	156.72418689727783	movie	1		245	29.0	2.5	/experiments/AOT/AOT_stimuli/rescaled_final/2061_fw.mp4	0.0	180.57784485816956	2.499605178833008
31	157.90768790245056	pulse	1	t		29.0	2.5	/experiments/AOT/AOT_stimuli/rescaled_final/2061_fw.mp4	0.0	181.76134586334229	
31	159.22379207611084	fix_post	2		12	29.0	2.5	/experiments/AOT/AOT_stimuli/rescaled_final/2061_fw.mp4	0.0	183.07745003700256	0.0999758243560791
32	159.32376790046692	fix_pre	0		120	30.0	2.5	/experiments/AOT/AOT_stimuli/rescaled_final/0475_rv.mp4	0.0	183.17742586135864	1.0004711151123047
32	159.50727891921997	pulse	0	t		30.0	2.5	/experiments/AOT/AOT_stimuli/rescaled_final/0475_rv.mp4	0.0	183.3609368801117	
32	160.32423901557922	movie	1		244	30.0	2.5	/experiments/AOT/AOT_stimuli/rescaled_final/0475_rv.mp4	0.0	184.17789697647095	2.499969005584717
32	161.10780310630798	pulse	1	t		30.0	2.5	/experiments/AOT/AOT_stimuli/rescaled_final/0475_rv.mp4	0.0	184.9614610671997	
32	162.70619893074036	pulse	1	t		30.0	2.5	/experiments/AOT/AOT_stimuli/rescaled_final/0475_rv.mp4	0.0	186.55985689163208	
32	162.82420802116394	fix_post	2		12	30.0	2.5	/experiments/AOT/AOT_stimuli/rescaled_final/0475_rv.mp4	0.0	186.67786598205566	0.10009908676147461
33	162.92430710792542	fix_pre	0		120	31.0	2.5	/experiments/AOT/AOT_stimuli/rescaled_final/1490_rv.mp4	0.0	186.77796506881714	0.99947190284729
33	163.9237790107727	movie	1		244	31.0	2.5	/experiments/AOT/AOT_stimuli/rescaled_final/1490_rv.mp4	0.0	187.77743697166443	2.5003960132598877
33	164.30742692947388	pulse	1	t		31.0	2.5	/experiments/AOT/AOT_stimuli/rescaled_final/1490_rv.mp4	0.0	188.1610848903656	
33	165.90762400627136	pulse	1	t		31.0	2.5	/experiments/AOT/AOT_stimuli/rescaled_final/1490_rv.mp4	0.0	189.7612819671631	
33	166.4241750240326	fix_post	2		12	31.0	2.5	/experiments/AOT/AOT_stimuli/rescaled_final/1490_rv.mp4	0.0	190.27783298492432	0.10001301765441895
34	166.524188041687	fix_pre	0		119	32.0	2.5	/experiments/AOT/AOT_stimuli/rescaled_final/0257_rv.mp4	0.0	190.37784600257874	0.9915368556976318
34	167.5076129436493	pulse	0	t		32.0	2.5	/experiments/AOT/AOT_stimuli/rescaled_final/0257_rv.mp4	0.0	191.36127090454102	
34	167.51572489738464	movie	1		244	32.0	2.5	/experiments/AOT/AOT_stimuli/rescaled_final/0257_rv.mp4	0.0	191.36938285827637	2.5083730220794678
34	169.10767793655396	pulse	1	t		32.0	2.5	/experiments/AOT/AOT_stimuli/rescaled_final/0257_rv.mp4	0.0	192.96133589744568	
34	170.0240979194641	fix_post	2		12	32.0	2.5	/experiments/AOT/AOT_stimuli/rescaled_final/0257_rv.mp4	0.0	193.87775588035583	0.09993314743041992
35	170.12403106689453	fix_pre	0		120	33.0	2.5	blank	1.0	193.97768902778625	1.0001070499420166
35	170.707603931427	pulse	0	t		33.0	2.5	blank	1.0	194.56126189231873	
35	171.12413811683655	movie	1		300	33.0	2.5	blank	1.0	194.97779607772827	2.4999377727508545
35	172.30758690834045	pulse	1	t		33.0	2.5	blank	1.0	196.16124486923218	
35	173.6240758895874	fix_post	2		12	33.0	2.5	blank	1.0	197.47773385047913	0.09998822212219238
36	173.7240641117096	fix_pre	0		120	34.0	2.5	/experiments/AOT/AOT_stimuli/rescaled_final/0461_fw.mp4	0.0	197.57772207260132	0.9999988079071045
36	173.90762209892273	pulse	0	t		34.0	2.5	/experiments/AOT/AOT_stimuli/rescaled_final/0461_fw.mp4	0.0	197.76128005981445	
36	174.7240629196167	movie	1		246	34.0	2.5	/experiments/AOT/AOT_stimuli/rescaled_final/0461_fw.mp4	0.0	198.57772088050842	2.500009059906006
36	175.5075399875641	pulse	1	t		34.0	2.5	/experiments/AOT/AOT_stimuli/rescaled_final/0461_fw.mp4	0.0	199.3611979484558	
36	177.10761904716492	pulse	1	t		34.0	2.5	/experiments/AOT/AOT_stimuli/rescaled_final/0461_fw.mp4	0.0	200.96127700805664	
36	177.2240719795227	fix_post	2		12	34.0	2.5	/experiments/AOT/AOT_stimuli/rescaled_final/0461_fw.mp4	0.0	201.07772994041443	0.09998703002929688
37	177.324059009552	fix_pre	0		120	35.0	2.5	/experiments/AOT/AOT_stimuli/rescaled_final/1348_fw.mp4	0.0	201.17771697044373	0.9999370574951172
37	178.32399606704712	movie	1		245	35.0	2.5	/experiments/AOT/AOT_stimuli/rescaled_final/1348_fw.mp4	0.0	202.17765402793884	2.5000839233398438
37	178.70853304862976	pulse	1	t		35.0	2.5	/experiments/AOT/AOT_stimuli/rescaled_final/1348_fw.mp4	0.0	202.56219100952148	
37	180.3075659275055	pulse	1	t		35.0	2.5	/experiments/AOT/AOT_stimuli/rescaled_final/1348_fw.mp4	0.0	204.16122388839722	
37	180.82407999038696	fix_post	2		12	35.0	2.5	/experiments/AOT/AOT_stimuli/rescaled_final/1348_fw.mp4	0.0	204.6777379512787	0.0999760627746582
38	180.92405605316162	fix_pre	0		119	36.0	2.5	/experiments/AOT/AOT_stimuli/rescaled_final/1822_fw.mp4	0.0	204.77771401405334	0.991663932800293
38	181.90757489204407	pulse	0	t		36.0	2.5	/experiments/AOT/AOT_stimuli/rescaled_final/1822_fw.mp4	0.0	205.7612328529358	
38	181.9157199859619	movie	1		245	36.0	2.5	/experiments/AOT/AOT_stimuli/rescaled_final/1822_fw.mp4	0.0	205.76937794685364	2.5083401203155518
38	183.5073390007019	pulse	1	t		36.0	2.5	/experiments/AOT/AOT_stimuli/rescaled_final/1822_fw.mp4	0.0	207.36099696159363	
38	184.42406010627747	fix_post	2		12	36.0	2.5	/experiments/AOT/AOT_stimuli/rescaled_final/1822_fw.mp4	0.0	208.2777180671692	0.09999680519104004
39	184.5240569114685	fix_pre	0		120	37.0	2.5	/experiments/AOT/AOT_stimuli/rescaled_final/0537_fw.mp4	0.0	208.37771487236023	0.9999032020568848
39	185.10758209228516	pulse	0	t		37.0	2.5	/experiments/AOT/AOT_stimuli/rescaled_final/0537_fw.mp4	0.0	208.96124005317688	
39	185.5239601135254	movie	1		246	37.0	2.5	/experiments/AOT/AOT_stimuli/rescaled_final/0537_fw.mp4	0.0	209.37761807441711	2.499626874923706
39	186.70755791664124	pulse	1	t		37.0	2.5	/experiments/AOT/AOT_stimuli/rescaled_final/0537_fw.mp4	0.0	210.56121587753296	
39	188.0235869884491	fix_post	2		12	37.0	2.5	/experiments/AOT/AOT_stimuli/rescaled_final/0537_fw.mp4	0.0	211.87724494934082	0.10043692588806152
40	188.12402391433716	fix_pre	0		120	38.0	2.5	/experiments/AOT/AOT_stimuli/rescaled_final/1804_fw.mp4	0.0	211.97768187522888	0.9999651908874512
40	188.3074390888214	pulse	0	t		38.0	2.5	/experiments/AOT/AOT_stimuli/rescaled_final/1804_fw.mp4	0.0	212.16109704971313	
40	189.1239891052246	movie	1		247	38.0	2.5	/experiments/AOT/AOT_stimuli/rescaled_final/1804_fw.mp4	0.0	212.97764706611633	2.500053882598877
40	189.907457113266	pulse	1	t		38.0	2.5	/experiments/AOT/AOT_stimuli/rescaled_final/1804_fw.mp4	0.0	213.76111507415771	
40	191.50757503509521	pulse	1	t		38.0	2.5	/experiments/AOT/AOT_stimuli/rescaled_final/1804_fw.mp4	0.0	215.36123299598694	
40	191.6240429878235	fix_post	2		12	38.0	2.5	/experiments/AOT/AOT_stimuli/rescaled_final/1804_fw.mp4	0.0	215.4777009487152	0.09990906715393066
41	191.72395205497742	fix_pre	0		120	39.0	2.5	/experiments/AOT/AOT_stimuli/rescaled_final/1453_rv.mp4	0.0	215.57761001586914	1.0000619888305664
41	192.72401404380798	movie	1		245	39.0	2.5	/experiments/AOT/AOT_stimuli/rescaled_final/1453_rv.mp4	0.0	216.5776720046997	2.5000460147857666
41	193.10730409622192	pulse	1	t		39.0	2.5	/experiments/AOT/AOT_stimuli/rescaled_final/1453_rv.mp4	0.0	216.96096205711365	
41	194.70751810073853	pulse	1	t		39.0	2.5	/experiments/AOT/AOT_stimuli/rescaled_final/1453_rv.mp4	0.0	218.56117606163025	
41	195.22406005859375	fix_post	2		12	39.0	2.5	/experiments/AOT/AOT_stimuli/rescaled_final/1453_rv.mp4	0.0	219.07771801948547	0.10001492500305176
42	195.3240749835968	fix_pre	0		119	40.0	2.5	/experiments/AOT/AOT_stimuli/rescaled_final/0345_fw.mp4	0.0	219.17773294448853	0.9916329383850098
42	196.3074610233307	pulse	0	t		40.0	2.5	/experiments/AOT/AOT_stimuli/rescaled_final/0345_fw.mp4	0.0	220.1611189842224	
42	196.3157079219818	movie	1		246	40.0	2.5	/experiments/AOT/AOT_stimuli/rescaled_final/0345_fw.mp4	0.0	220.16936588287354	2.508296012878418
42	197.90727996826172	pulse	1	t		40.0	2.5	/experiments/AOT/AOT_stimuli/rescaled_final/0345_fw.mp4	0.0	221.76093792915344	
42	198.82400393486023	fix_post	2		12	40.0	2.5	/experiments/AOT/AOT_stimuli/rescaled_final/0345_fw.mp4	0.0	222.67766189575195	0.09997010231018066
43	198.9239740371704	fix_pre	0		120	41.0	2.5	blank	1.0	222.77763199806213	1.000053882598877
43	199.50752210617065	pulse	0	t		41.0	2.5	blank	1.0	223.36118006706238	
43	199.9240279197693	movie	1		300	41.0	2.5	blank	1.0	223.777685880661	2.499484062194824
43	201.10755395889282	pulse	1	t		41.0	2.5	blank	1.0	224.96121191978455	
43	202.4235119819641	fix_post	2		12	41.0	2.5	blank	1.0	226.27716994285583	0.10042595863342285
44	202.52393794059753	fix_pre	0		120	42.0	2.5	/experiments/AOT/AOT_stimuli/rescaled_final/0060_rv.mp4	0.0	226.37759590148926	1.0000741481781006
44	202.70748496055603	pulse	0	t		42.0	2.5	/experiments/AOT/AOT_stimuli/rescaled_final/0060_rv.mp4	0.0	226.56114292144775	
44	203.52401208877563	movie	1		245	42.0	2.5	/experiments/AOT/AOT_stimuli/rescaled_final/0060_rv.mp4	0.0	227.37767004966736	2.4994678497314453
44	204.30745911598206	pulse	1	t		42.0	2.5	/experiments/AOT/AOT_stimuli/rescaled_final/0060_rv.mp4	0.0	228.16111707687378	
44	205.90615105628967	pulse	1	t		42.0	2.5	/experiments/AOT/AOT_stimuli/rescaled_final/0060_rv.mp4	0.0	229.7598090171814	
44	206.02347993850708	fix_post	2		12	42.0	2.5	/experiments/AOT/AOT_stimuli/rescaled_final/0060_rv.mp4	0.0	229.8771378993988	0.10001707077026367
45	206.12349700927734	fix_pre	0		120	43.0	2.5	/experiments/AOT/AOT_stimuli/rescaled_final/1083_rv.mp4	0.0	229.97715497016907	1.0003941059112549
45	207.1238911151886	movie	1		245	43.0	2.5	/experiments/AOT/AOT_stimuli/rescaled_final/1083_rv.mp4	0.0	230.97754907608032	2.500009775161743
45	207.50720191001892	pulse	1	t		43.0	2.5	/experiments/AOT/AOT_stimuli/rescaled_final/1083_rv.mp4	0.0	231.36085987091064	
45	209.10743308067322	pulse	1	t		43.0	2.5	/experiments/AOT/AOT_stimuli/rescaled_final/1083_rv.mp4	0.0	232.96109104156494	
45	209.62390089035034	fix_post	2		12	43.0	2.5	/experiments/AOT/AOT_stimuli/rescaled_final/1083_rv.mp4	0.0	233.47755885124207	0.10008001327514648
46	209.7239809036255	fix_pre	0		119	44.0	2.5	/experiments/AOT/AOT_stimuli/rescaled_final/0011_fw.mp4	0.0	233.5776388645172	0.9916281700134277
46	210.70749402046204	pulse	0	t		44.0	2.5	/experiments/AOT/AOT_stimuli/rescaled_final/0011_fw.mp4	0.0	234.56115198135376	
46	210.71560907363892	movie	1		246	44.0	2.5	/experiments/AOT/AOT_stimuli/rescaled_final/0011_fw.mp4	0.0	234.56926703453064	2.5083889961242676
46	212.30707502365112	pulse	1	t		44.0	2.5	/experiments/AOT/AOT_stimuli/rescaled_final/0011_fw.mp4	0.0	236.16073298454285	
46	213.22399806976318	fix_post	2		12	44.0	2.5	/experiments/AOT/AOT_stimuli/rescaled_final/0011_fw.mp4	0.0	237.0776560306549	0.09997892379760742
47	213.3239769935608	fix_pre	0		120	45.0	2.5	/experiments/AOT/AOT_stimuli/rescaled_final/2081_rv.mp4	0.0	237.17763495445251	0.9999690055847168
47	213.9075059890747	pulse	0	t		45.0	2.5	/experiments/AOT/AOT_stimuli/rescaled_final/2081_rv.mp4	0.0	237.76116394996643	
47	214.3239459991455	movie	1		247	45.0	2.5	/experiments/AOT/AOT_stimuli/rescaled_final/2081_rv.mp4	0.0	238.17760396003723	2.499666929244995
47	215.50702095031738	pulse	1	t		45.0	2.5	/experiments/AOT/AOT_stimuli/rescaled_final/2081_rv.mp4	0.0	239.3606789112091	
47	216.8236129283905	fix_post	2		12	45.0	2.5	/experiments/AOT/AOT_stimuli/rescaled_final/2081_rv.mp4	0.0	240.67727088928223	0.10006904602050781
48	216.923681974411	fix_pre	0		120	46.0	2.5	/experiments/AOT/AOT_stimuli/rescaled_final/1149_fw.mp4	0.0	240.77733993530273	1.0001180171966553
48	217.10716795921326	pulse	0	t		46.0	2.5	/experiments/AOT/AOT_stimuli/rescaled_final/1149_fw.mp4	0.0	240.96082592010498	
48	217.92379999160767	movie	1		246	46.0	2.5	/experiments/AOT/AOT_stimuli/rescaled_final/1149_fw.mp4	0.0	241.7774579524994	2.4998281002044678
48	218.70729207992554	pulse	1	t		46.0	2.5	/experiments/AOT/AOT_stimuli/rescaled_final/1149_fw.mp4	0.0	242.56095004081726	
48	220.30617594718933	pulse	1	t		46.0	2.5	/experiments/AOT/AOT_stimuli/rescaled_final/1149_fw.mp4	0.0	244.15983390808105	
48	220.42362809181213	fix_post	2		12	46.0	2.5	/experiments/AOT/AOT_stimuli/rescaled_final/1149_fw.mp4	0.0	244.27728605270386	0.10023093223571777
49	220.52385902404785	fix_pre	0		120	47.0	2.5	blank	1.0	244.37751698493958	1.0000600814819336
49	221.52391910552979	movie	1		300	47.0	2.5	blank	1.0	245.3775770664215	2.4999380111694336
49	221.9073441028595	pulse	1	t		47.0	2.5	blank	1.0	245.76100206375122	
49	223.50729703903198	pulse	1	t		47.0	2.5	blank	1.0	247.3609549999237	
49	224.02385711669922	fix_post	2		12	47.0	2.5	blank	1.0	247.87751507759094	0.10003495216369629
50	224.12389206886292	fix_pre	0		119	48.0	2.5	/experiments/AOT/AOT_stimuli/rescaled_final/0060_rv.mp4	0.0	247.97755002975464	0.991696834564209
50	225.107351064682	pulse	0	t		48.0	2.5	/experiments/AOT/AOT_stimuli/rescaled_final/0060_rv.mp4	0.0	248.96100902557373	
50	225.11558890342712	movie	1		245	48.0	2.5	/experiments/AOT/AOT_stimuli/rescaled_final/0060_rv.mp4	0.0	248.96924686431885	2.5082831382751465
50	226.70686101913452	pulse	1	t		48.0	2.5	/experiments/AOT/AOT_stimuli/rescaled_final/0060_rv.mp4	0.0	250.56051898002625	
50	227.62387204170227	fix_post	2		12	48.0	2.5	/experiments/AOT/AOT_stimuli/rescaled_final/0060_rv.mp4	0.0	251.477530002594	0.09996199607849121
51	227.72383403778076	fix_pre	0		120	49.0	2.5	/experiments/AOT/AOT_stimuli/rescaled_final/0407_fw.mp4	0.0	251.57749199867249	1.0000889301300049
51	228.3072669506073	pulse	0	t		49.0	2.5	/experiments/AOT/AOT_stimuli/rescaled_final/0407_fw.mp4	0.0	252.16092491149902	
51	228.72392296791077	movie	1		246	49.0	2.5	/experiments/AOT/AOT_stimuli/rescaled_final/0407_fw.mp4	0.0	252.5775809288025	2.4998669624328613
51	229.9073989391327	pulse	1	t		49.0	2.5	/experiments/AOT/AOT_stimuli/rescaled_final/0407_fw.mp4	0.0	253.7610569000244	
51	231.22378993034363	fix_post	2		12	49.0	2.5	/experiments/AOT/AOT_stimuli/rescaled_final/0407_fw.mp4	0.0	255.07744789123535	0.10011696815490723
52	231.32390689849854	fix_pre	0		120	50.0	2.5	/experiments/AOT/AOT_stimuli/rescaled_final/0345_rv.mp4	0.0	255.17756485939026	0.9998800754547119
52	231.50727796554565	pulse	0	t		50.0	2.5	/experiments/AOT/AOT_stimuli/rescaled_final/0345_rv.mp4	0.0	255.36093592643738	
52	232.32378697395325	movie	1		244	50.0	2.5	/experiments/AOT/AOT_stimuli/rescaled_final/0345_rv.mp4	0.0	256.17744493484497	2.50004506111145
52	233.10725903511047	pulse	1	t		50.0	2.5	/experiments/AOT/AOT_stimuli/rescaled_final/0345_rv.mp4	0.0	256.9609169960022	
52	234.7060329914093	pulse	1	t		50.0	2.5	/experiments/AOT/AOT_stimuli/rescaled_final/0345_rv.mp4	0.0	258.559690952301	
52	234.8238320350647	fix_post	2		12	50.0	2.5	/experiments/AOT/AOT_stimuli/rescaled_final/0345_rv.mp4	0.0	258.6774899959564	0.09996604919433594
53	234.92379808425903	fix_pre	0		120	51.0	2.5	/experiments/AOT/AOT_stimuli/rescaled_final/1394_rv.mp4	0.0	258.77745604515076	1.0001068115234375
53	235.92390489578247	movie	1		244	51.0	2.5	/experiments/AOT/AOT_stimuli/rescaled_final/1394_rv.mp4	0.0	259.7775628566742	2.4998722076416016
53	236.30753707885742	pulse	1	t		51.0	2.5	/experiments/AOT/AOT_stimuli/rescaled_final/1394_rv.mp4	0.0	260.16119503974915	
53	237.90722703933716	pulse	1	t		51.0	2.5	/experiments/AOT/AOT_stimuli/rescaled_final/1394_rv.mp4	0.0	261.7608850002289	
53	238.42377710342407	fix_post	2		12	51.0	2.5	/experiments/AOT/AOT_stimuli/rescaled_final/1394_rv.mp4	0.0	262.2774350643158	0.10001993179321289
54	238.52379703521729	fix_pre	0		119	52.0	2.5	/experiments/AOT/AOT_stimuli/rescaled_final/1315_rv.mp4	0.0	262.377454996109	0.9916889667510986
54	239.50729298591614	pulse	0	t		52.0	2.5	/experiments/AOT/AOT_stimuli/rescaled_final/1315_rv.mp4	0.0	263.36095094680786	
54	239.51548600196838	movie	1		250	52.0	2.5	/experiments/AOT/AOT_stimuli/rescaled_final/1315_rv.mp4	0.0	263.3691439628601	2.508229970932007
54	241.106693983078	pulse	1	t		52.0	2.5	/experiments/AOT/AOT_stimuli/rescaled_final/1315_rv.mp4	0.0	264.9603519439697	
54	242.0237159729004	fix_post	2		12	52.0	2.5	/experiments/AOT/AOT_stimuli/rescaled_final/1315_rv.mp4	0.0	265.8773739337921	0.1001279354095459
55	242.12384390830994	fix_pre	0		120	53.0	2.5	/experiments/AOT/AOT_stimuli/rescaled_final/1537_rv.mp4	0.0	265.97750186920166	0.9994750022888184
55	242.70730710029602	pulse	0	t		53.0	2.5	/experiments/AOT/AOT_stimuli/rescaled_final/1537_rv.mp4	0.0	266.56096506118774	
55	243.12331891059875	movie	1		246	53.0	2.5	/experiments/AOT/AOT_stimuli/rescaled_final/1537_rv.mp4	0.0	266.9769768714905	2.500019073486328
55	244.30724596977234	pulse	1	t		53.0	2.5	/experiments/AOT/AOT_stimuli/rescaled_final/1537_rv.mp4	0.0	268.16090393066406	
55	245.62333798408508	fix_post	2		12	53.0	2.5	/experiments/AOT/AOT_stimuli/rescaled_final/1537_rv.mp4	0.0	269.4769959449768	0.10048604011535645
56	245.72382402420044	fix_pre	0		120	54.0	2.5	/experiments/AOT/AOT_stimuli/rescaled_final/1986_rv.mp4	0.0	269.57748198509216	0.9998779296875
56	245.9073269367218	pulse	0	t		54.0	2.5	/experiments/AOT/AOT_stimuli/rescaled_final/1986_rv.mp4	0.0	269.7609848976135	
56	246.72370195388794	movie	1		246	54.0	2.5	/experiments/AOT/AOT_stimuli/rescaled_final/1986_rv.mp4	0.0	270.57735991477966	2.5000600814819336
56	247.50726294517517	pulse	1	t		54.0	2.5	/experiments/AOT/AOT_stimuli/rescaled_final/1986_rv.mp4	0.0	271.3609209060669	
56	249.10724711418152	pulse	1	t		54.0	2.5	/experiments/AOT/AOT_stimuli/rescaled_final/1986_rv.mp4	0.0	272.96090507507324	
56	249.22376203536987	fix_post	2		12	54.0	2.5	/experiments/AOT/AOT_stimuli/rescaled_final/1986_rv.mp4	0.0	273.0774199962616	0.09995889663696289
57	249.32372093200684	fix_pre	0		120	55.0	2.5	/experiments/AOT/AOT_stimuli/rescaled_final/1029_fw.mp4	0.0	273.17737889289856	1.0000560283660889
57	250.32377696037292	movie	1		244	55.0	2.5	/experiments/AOT/AOT_stimuli/rescaled_final/1029_fw.mp4	0.0	274.17743492126465	2.500075101852417
57	250.70837211608887	pulse	1	t		55.0	2.5	/experiments/AOT/AOT_stimuli/rescaled_final/1029_fw.mp4	0.0	274.5620300769806	
57	252.30724692344666	pulse	1	t		55.0	2.5	/experiments/AOT/AOT_stimuli/rescaled_final/1029_fw.mp4	0.0	276.1609048843384	
57	252.82385206222534	fix_post	2		12	55.0	2.5	/experiments/AOT/AOT_stimuli/rescaled_final/1029_fw.mp4	0.0	276.67751002311707	0.099884033203125
58	252.92373609542847	fix_pre	0		119	56.0	2.5	blank	1.0	276.7773940563202	0.9916329383850098
58	253.9072229862213	pulse	0	t		56.0	2.5	blank	1.0	277.76088094711304	
58	253.91536903381348	movie	1		301	56.0	2.5	blank	1.0	277.7690269947052	2.5083649158477783
58	255.50725102424622	pulse	1	t		56.0	2.5	blank	1.0	279.36090898513794	
58	256.42373394966125	fix_post	2		12	56.0	2.5	blank	1.0	280.277391910553	0.10001897811889648
59	256.52375292778015	fix_pre	0		120	57.0	2.5	/experiments/AOT/AOT_stimuli/rescaled_final/1206_rv.mp4	0.0	280.3774108886719	0.9999680519104004
59	257.10723996162415	pulse	0	t		57.0	2.5	/experiments/AOT/AOT_stimuli/rescaled_final/1206_rv.mp4	0.0	280.96089792251587	
59	257.52372097969055	movie	1		245	57.0	2.5	/experiments/AOT/AOT_stimuli/rescaled_final/1206_rv.mp4	0.0	281.3773789405823	2.499929904937744
59	258.70728302001953	pulse	1	t		57.0	2.5	/experiments/AOT/AOT_stimuli/rescaled_final/1206_rv.mp4	0.0	282.56094098091125	
59	260.0236508846283	fix_post	2		12	57.0	2.5	/experiments/AOT/AOT_stimuli/rescaled_final/1206_rv.mp4	0.0	283.87730884552	0.09994912147521973
60	260.1236000061035	fix_pre	0		120	58.0	2.5	/experiments/AOT/AOT_stimuli/rescaled_final/1060_fw.mp4	0.0	283.97725796699524	1.0001699924468994
60	260.30709505081177	pulse	0	t		58.0	2.5	/experiments/AOT/AOT_stimuli/rescaled_final/1060_fw.mp4	0.0	284.1607530117035	
60	261.1237699985504	movie	1		245	58.0	2.5	/experiments/AOT/AOT_stimuli/rescaled_final/1060_fw.mp4	0.0	284.97742795944214	2.4994471073150635
60	261.9072539806366	pulse	1	t		58.0	2.5	/experiments/AOT/AOT_stimuli/rescaled_final/1060_fw.mp4	0.0	285.7609119415283	
60	263.50725197792053	pulse	1	t		58.0	2.5	/experiments/AOT/AOT_stimuli/rescaled_final/1060_fw.mp4	0.0	287.36090993881226	
60	263.6232171058655	fix_post	2		12	58.0	2.5	/experiments/AOT/AOT_stimuli/rescaled_final/1060_fw.mp4	0.0	287.4768750667572	0.10044598579406738
61	263.72366309165955	fix_pre	0		120	59.0	2.5	/experiments/AOT/AOT_stimuli/rescaled_final/0900_fw.mp4	0.0	287.57732105255127	0.9999489784240723
61	264.7236120700836	movie	1		247	59.0	2.5	/experiments/AOT/AOT_stimuli/rescaled_final/0900_fw.mp4	0.0	288.57727003097534	2.500011920928955
61	265.10685896873474	pulse	1	t		59.0	2.5	/experiments/AOT/AOT_stimuli/rescaled_final/0900_fw.mp4	0.0	288.96051692962646	
61	266.7071759700775	pulse	1	t		59.0	2.5	/experiments/AOT/AOT_stimuli/rescaled_final/0900_fw.mp4	0.0	290.56083393096924	
61	267.2236239910126	fix_post	2		12	59.0	2.5	/experiments/AOT/AOT_stimuli/rescaled_final/0900_fw.mp4	0.0	291.0772819519043	0.09999608993530273
62	267.3236200809479	fix_pre	0		119	60.0	2.5	/experiments/AOT/AOT_stimuli/rescaled_final/0412_rv.mp4	0.0	291.1772780418396	0.991703987121582
62	268.30722093582153	pulse	0	t		60.0	2.5	/experiments/AOT/AOT_stimuli/rescaled_final/0412_rv.mp4	0.0	292.16087889671326	
62	268.31532406806946	movie	1		250	60.0	2.5	/experiments/AOT/AOT_stimuli/rescaled_final/0412_rv.mp4	0.0	292.1689820289612	2.5079028606414795
62	269.9068651199341	pulse	1	t		60.0	2.5	/experiments/AOT/AOT_stimuli/rescaled_final/0412_rv.mp4	0.0	293.7605230808258	
62	270.82322692871094	fix_post	2		12	60.0	2.5	/experiments/AOT/AOT_stimuli/rescaled_final/0412_rv.mp4	0.0	294.67688488960266	0.09999608993530273
63	270.92322301864624	fix_pre	0		120	61.0	2.5	blank	1.0	294.77688097953796	0.9999990463256836
63	271.5067400932312	pulse	0	t		61.0	2.5	blank	1.0	295.3603980541229	
63	271.9232220649719	movie	1		300	61.0	2.5	blank	1.0	295.77688002586365	2.500427007675171
63	273.1073749065399	pulse	1	t		61.0	2.5	blank	1.0	296.96103286743164	
63	274.4236490726471	fix_post	2		12	61.0	2.5	blank	1.0	298.2773070335388	0.10003399848937988
64	274.5236830711365	fix_pre	0		120	62.0	2.5	/experiments/AOT/AOT_stimuli/rescaled_final/0737_rv.mp4	0.0	298.3773410320282	1.0000269412994385
64	274.7072560787201	pulse	0	t		62.0	2.5	/experiments/AOT/AOT_stimuli/rescaled_final/0737_rv.mp4	0.0	298.5609140396118	
64	275.5237100124359	movie	1		243	62.0	2.5	/experiments/AOT/AOT_stimuli/rescaled_final/0737_rv.mp4	0.0	299.37736797332764	2.4994890689849854
64	276.3070271015167	pulse	1	t		62.0	2.5	/experiments/AOT/AOT_stimuli/rescaled_final/0737_rv.mp4	0.0	300.16068506240845	
64	277.9072389602661	pulse	1	t		62.0	2.5	/experiments/AOT/AOT_stimuli/rescaled_final/0737_rv.mp4	0.0	301.76089692115784	
64	278.0231990814209	fix_post	2		12	62.0	2.5	/experiments/AOT/AOT_stimuli/rescaled_final/0737_rv.mp4	0.0	301.8768570423126	0.10043787956237793
65	278.1236369609833	fix_pre	0		120	63.0	2.5	/experiments/AOT/AOT_stimuli/rescaled_final/1463_fw.mp4	0.0	301.977294921875	1.0000190734863281
65	279.1236560344696	movie	1		245	63.0	2.5	/experiments/AOT/AOT_stimuli/rescaled_final/1463_fw.mp4	0.0	302.9773139953613	2.4995269775390625
65	279.50834798812866	pulse	1	t		63.0	2.5	/experiments/AOT/AOT_stimuli/rescaled_final/1463_fw.mp4	0.0	303.3620059490204	
65	281.1070120334625	pulse	1	t		63.0	2.5	/experiments/AOT/AOT_stimuli/rescaled_final/1463_fw.mp4	0.0	304.96066999435425	
65	281.62318301200867	fix_post	2		12	63.0	2.5	/experiments/AOT/AOT_stimuli/rescaled_final/1463_fw.mp4	0.0	305.4768409729004	0.10037994384765625
66	281.7235629558563	fix_pre	0		119	64.0	2.5	/experiments/AOT/AOT_stimuli/rescaled_final/1015_rv.mp4	0.0	305.57722091674805	0.9916701316833496
66	282.70700311660767	pulse	0	t		64.0	2.5	/experiments/AOT/AOT_stimuli/rescaled_final/1015_rv.mp4	0.0	306.5606610774994	
66	282.7152330875397	movie	1		248	64.0	2.5	/experiments/AOT/AOT_stimuli/rescaled_final/1015_rv.mp4	0.0	306.5688910484314	2.50832200050354
66	284.30637097358704	pulse	1	t		64.0	2.5	/experiments/AOT/AOT_stimuli/rescaled_final/1015_rv.mp4	0.0	308.16002893447876	
66	285.2235550880432	fix_post	2		12	64.0	2.5	/experiments/AOT/AOT_stimuli/rescaled_final/1015_rv.mp4	0.0	309.07721304893494	0.09994196891784668
67	285.32349705696106	fix_pre	0		120	65.0	2.5	/experiments/AOT/AOT_stimuli/rescaled_final/0484_rv.mp4	0.0	309.1771550178528	1.0000619888305664
67	285.9070200920105	pulse	0	t		65.0	2.5	/experiments/AOT/AOT_stimuli/rescaled_final/0484_rv.mp4	0.0	309.7606780529022	
67	286.3235590457916	movie	1		249	65.0	2.5	/experiments/AOT/AOT_stimuli/rescaled_final/0484_rv.mp4	0.0	310.17721700668335	2.499992847442627
67	287.5070939064026	pulse	1	t		65.0	2.5	/experiments/AOT/AOT_stimuli/rescaled_final/0484_rv.mp4	0.0	311.3607518672943	
67	288.82355189323425	fix_post	2		12	65.0	2.5	/experiments/AOT/AOT_stimuli/rescaled_final/0484_rv.mp4	0.0	312.677209854126	0.100006103515625
68	288.9235579967499	fix_pre	0		120	66.0	2.5	/experiments/AOT/AOT_stimuli/rescaled_final/1049_rv.mp4	0.0	312.7772159576416	0.9999709129333496
68	289.1070890426636	pulse	0	t		66.0	2.5	/experiments/AOT/AOT_stimuli/rescaled_final/1049_rv.mp4	0.0	312.9607470035553	
68	289.9235289096832	movie	1		245	66.0	2.5	/experiments/AOT/AOT_stimuli/rescaled_final/1049_rv.mp4	0.0	313.77718687057495	2.499939203262329
68	290.70708298683167	pulse	1	t		66.0	2.5	/experiments/AOT/AOT_stimuli/rescaled_final/1049_rv.mp4	0.0	314.5607409477234	
68	292.30574202537537	pulse	1	t		66.0	2.5	/experiments/AOT/AOT_stimuli/rescaled_final/1049_rv.mp4	0.0	316.1593999862671	
68	292.42346811294556	fix_post	2		12	66.0	2.5	/experiments/AOT/AOT_stimuli/rescaled_final/1049_rv.mp4	0.0	316.2771260738373	0.10009384155273438
69	292.5235619544983	fix_pre	0		120	67.0	2.5	/experiments/AOT/AOT_stimuli/rescaled_final/1394_rv.mp4	0.0	316.37721991539	0.9998950958251953
69	293.5234570503235	movie	1		251	67.0	2.5	/experiments/AOT/AOT_stimuli/rescaled_final/1394_rv.mp4	0.0	317.3771150112152	2.500117063522339
69	293.9065399169922	pulse	1	t		67.0	2.5	/experiments/AOT/AOT_stimuli/rescaled_final/1394_rv.mp4	0.0	317.7601978778839	
69	295.5069959163666	pulse	1	t		67.0	2.5	/experiments/AOT/AOT_stimuli/rescaled_final/1394_rv.mp4	0.0	319.3606538772583	
69	296.0235741138458	fix_post	2		12	67.0	2.5	/experiments/AOT/AOT_stimuli/rescaled_final/1394_rv.mp4	0.0	319.87723207473755	0.09957385063171387
70	296.12314796447754	fix_pre	0		119	68.0	2.5	/experiments/AOT/AOT_stimuli/rescaled_final/1138_rv.mp4	0.0	319.97680592536926	0.9920029640197754
70	297.1071000099182	pulse	0	t		68.0	2.5	/experiments/AOT/AOT_stimuli/rescaled_final/1138_rv.mp4	0.0	320.96075797080994	
70	297.1151509284973	movie	1		245	68.0	2.5	/experiments/AOT/AOT_stimuli/rescaled_final/1138_rv.mp4	0.0	320.96880888938904	2.5082991123199463
70	298.70814394950867	pulse	1	t		68.0	2.5	/experiments/AOT/AOT_stimuli/rescaled_final/1138_rv.mp4	0.0	322.5618019104004	
70	299.62345004081726	fix_post	2		12	68.0	2.5	/experiments/AOT/AOT_stimuli/rescaled_final/1138_rv.mp4	0.0	323.477108001709	0.10001492500305176
71	299.7234649658203	fix_pre	0		120	69.0	2.5	/experiments/AOT/AOT_stimuli/rescaled_final/2173_rv.mp4	0.0	323.57712292671204	1.0000009536743164
71	300.30706000328064	pulse	0	t		69.0	2.5	/experiments/AOT/AOT_stimuli/rescaled_final/2173_rv.mp4	0.0	324.16071796417236	
71	300.72346591949463	movie	1		247	69.0	2.5	/experiments/AOT/AOT_stimuli/rescaled_final/2173_rv.mp4	0.0	324.57712388038635	2.5000481605529785
71	301.9070599079132	pulse	1	t		69.0	2.5	/experiments/AOT/AOT_stimuli/rescaled_final/2173_rv.mp4	0.0	325.76071786880493	
71	303.2235140800476	fix_post	2		12	69.0	2.5	/experiments/AOT/AOT_stimuli/rescaled_final/2173_rv.mp4	0.0	327.07717204093933	0.10000991821289062
72	303.3235239982605	fix_pre	0		120	70.0	2.5	blank	1.0	327.1771819591522	1.0000150203704834
72	303.5070400238037	pulse	0	t		70.0	2.5	blank	1.0	327.36069798469543	
72	304.323539018631	movie	1		300	70.0	2.5	blank	1.0	328.1771969795227	2.5000078678131104
72	305.1069760322571	pulse	1	t		70.0	2.5	blank	1.0	328.9606339931488	
72	306.70697808265686	pulse	1	t		70.0	2.5	blank	1.0	330.5606360435486	
72	306.8235468864441	fix_post	2		10	70.0	2.5	blank	1.0	330.6772048473358	0.09993314743041992
73	306.9234800338745	fix_pre	0		120	71.0	2.5	/experiments/AOT/AOT_stimuli/rescaled_final/0970_rv.mp4	0.0	330.77713799476624	0.9999840259552002
73	307.9234640598297	movie	1		247	71.0	2.5	/experiments/AOT/AOT_stimuli/rescaled_final/0970_rv.mp4	0.0	331.77712202072144	2.500063896179199
73	308.30703496932983	pulse	1	t		71.0	2.5	/experiments/AOT/AOT_stimuli/rescaled_final/0970_rv.mp4	0.0	332.16069293022156	
73	309.90694308280945	pulse	1	t		71.0	2.5	/experiments/AOT/AOT_stimuli/rescaled_final/0970_rv.mp4	0.0	333.7606010437012	
73	310.4235279560089	fix_post	2		12	71.0	2.5	/experiments/AOT/AOT_stimuli/rescaled_final/0970_rv.mp4	0.0	334.27718591690063	0.09992504119873047
74	310.52345299720764	fix_pre	0		119	72.0	2.5	/experiments/AOT/AOT_stimuli/rescaled_final/0360_fw.mp4	0.0	334.37711095809937	0.9916229248046875
74	311.50695395469666	pulse	0	t		72.0	2.5	/experiments/AOT/AOT_stimuli/rescaled_final/0360_fw.mp4	0.0	335.3606119155884	
74	311.51507592201233	movie	1		248	72.0	2.5	/experiments/AOT/AOT_stimuli/rescaled_final/0360_fw.mp4	0.0	335.36873388290405	2.508047103881836
74	313.1068480014801	pulse	1	t		72.0	2.5	/experiments/AOT/AOT_stimuli/rescaled_final/0360_fw.mp4	0.0	336.9605059623718	
74	314.02312302589417	fix_post	2		12	72.0	2.5	/experiments/AOT/AOT_stimuli/rescaled_final/0360_fw.mp4	0.0	337.8767809867859	0.10026407241821289
75	314.1233870983124	fix_pre	0		120	73.0	2.5	/experiments/AOT/AOT_stimuli/rescaled_final/1453_rv.mp4	0.0	337.9770450592041	0.9996418952941895
75	314.70695900917053	pulse	0	t		73.0	2.5	/experiments/AOT/AOT_stimuli/rescaled_final/1453_rv.mp4	0.0	338.56061697006226	
75	315.12302899360657	movie	1		245	73.0	2.5	/experiments/AOT/AOT_stimuli/rescaled_final/1453_rv.mp4	0.0	338.9766869544983	2.500351905822754
75	316.3069489002228	pulse	1	t		73.0	2.5	/experiments/AOT/AOT_stimuli/rescaled_final/1453_rv.mp4	0.0	340.1606068611145	
75	317.6233808994293	fix_post	2		12	73.0	2.5	/experiments/AOT/AOT_stimuli/rescaled_final/1453_rv.mp4	0.0	341.47703886032104	0.10002398490905762
76	317.7234048843384	fix_pre	0		120	74.0	2.5	/experiments/AOT/AOT_stimuli/rescaled_final/0791_fw.mp4	0.0	341.5770628452301	1.0000011920928955
76	317.9069199562073	pulse	0	t		74.0	2.5	/experiments/AOT/AOT_stimuli/rescaled_final/0791_fw.mp4	0.0	341.760577917099	
76	318.7234060764313	movie	1		245	74.0	2.5	/experiments/AOT/AOT_stimuli/rescaled_final/0791_fw.mp4	0.0	342.577064037323	2.500034809112549
76	319.5068950653076	pulse	1	t		74.0	2.5	/experiments/AOT/AOT_stimuli/rescaled_final/0791_fw.mp4	0.0	343.36055302619934	
76	321.1069779396057	pulse	1	t		74.0	2.5	/experiments/AOT/AOT_stimuli/rescaled_final/0791_fw.mp4	0.0	344.96063590049744	
76	321.2234408855438	fix_post	2		12	74.0	2.5	/experiments/AOT/AOT_stimuli/rescaled_final/0791_fw.mp4	0.0	345.07709884643555	0.09954619407653809
77	321.32298707962036	fix_pre	0		120	75.0	2.5	/experiments/AOT/AOT_stimuli/rescaled_final/1943_fw.mp4	0.0	345.1766450405121	1.000403881072998
77	322.32339096069336	movie	1		244	75.0	2.5	/experiments/AOT/AOT_stimuli/rescaled_final/1943_fw.mp4	0.0	346.1770489215851	2.4996049404144287
77	322.70687198638916	pulse	1	t		75.0	2.5	/experiments/AOT/AOT_stimuli/rescaled_final/1943_fw.mp4	0.0	346.5605299472809	
77	324.3069748878479	pulse	1	t		75.0	2.5	/experiments/AOT/AOT_stimuli/rescaled_final/1943_fw.mp4	0.0	348.1606328487396	
77	324.8229959011078	fix_post	2		12	75.0	2.5	/experiments/AOT/AOT_stimuli/rescaled_final/1943_fw.mp4	0.0	348.6766538619995	0.10039615631103516
78	324.9233920574188	fix_pre	0		119	76.0	2.5	blank	1.0	348.77705001831055	0.9917130470275879
78	325.9068489074707	pulse	0	t		76.0	2.5	blank	1.0	349.7605068683624	
78	325.9151051044464	movie	1		301	76.0	2.5	blank	1.0	349.76876306533813	2.508380889892578
78	327.5065040588379	pulse	1	t		76.0	2.5	blank	1.0	351.3601620197296	
78	328.423485994339	fix_post	2		12	76.0	2.5	blank	1.0	352.2771439552307	0.09999990463256836
79	328.52348589897156	fix_pre	0		120	77.0	2.5	/experiments/AOT/AOT_stimuli/rescaled_final/0548_fw.mp4	0.0	352.3771438598633	1.0001552104949951
79	329.10708808898926	pulse	0	t		77.0	2.5	/experiments/AOT/AOT_stimuli/rescaled_final/0548_fw.mp4	0.0	352.960746049881	
79	329.52364110946655	movie	1		249	77.0	2.5	/experiments/AOT/AOT_stimuli/rescaled_final/0548_fw.mp4	0.0	353.3772990703583	2.499300003051758
79	330.70698404312134	pulse	1	t		77.0	2.5	/experiments/AOT/AOT_stimuli/rescaled_final/0548_fw.mp4	0.0	354.56064200401306	
79	332.0229411125183	fix_post	2		12	77.0	2.5	/experiments/AOT/AOT_stimuli/rescaled_final/0548_fw.mp4	0.0	355.87659907341003	0.1004638671875
80	332.1234049797058	fix_pre	0		120	78.0	2.5	/experiments/AOT/AOT_stimuli/rescaled_final/1326_fw.mp4	0.0	355.97706294059753	1.000014066696167
80	332.30685901641846	pulse	0	t		78.0	2.5	/experiments/AOT/AOT_stimuli/rescaled_final/1326_fw.mp4	0.0	356.1605169773102	
80	333.123419046402	movie	1		245	78.0	2.5	/experiments/AOT/AOT_stimuli/rescaled_final/1326_fw.mp4	0.0	356.9770770072937	2.4998998641967773
80	333.9068269729614	pulse	1	t		78.0	2.5	/experiments/AOT/AOT_stimuli/rescaled_final/1326_fw.mp4	0.0	357.76048493385315	
80	335.50530195236206	pulse	1	t		78.0	2.5	/experiments/AOT/AOT_stimuli/rescaled_final/1326_fw.mp4	0.0	359.3589599132538	
80	335.62331891059875	fix_post	2		12	78.0	2.5	/experiments/AOT/AOT_stimuli/rescaled_final/1326_fw.mp4	0.0	359.4769768714905	0.09995818138122559
81	335.72327709198	fix_pre	0		120	79.0	2.5	/experiments/AOT/AOT_stimuli/rescaled_final/0581_fw.mp4	0.0	359.5769350528717	1.0000348091125488
81	336.72331190109253	movie	1		247	79.0	2.5	/experiments/AOT/AOT_stimuli/rescaled_final/0581_fw.mp4	0.0	360.57696986198425	2.499936103820801
81	337.10633611679077	pulse	1	t		79.0	2.5	/experiments/AOT/AOT_stimuli/rescaled_final/0581_fw.mp4	0.0	360.9599940776825	
81	338.7069020271301	pulse	1	t		79.0	2.5	/experiments/AOT/AOT_stimuli/rescaled_final/0581_fw.mp4	0.0	362.56055998802185	
81	339.22324800491333	fix_post	2		12	79.0	2.5	/experiments/AOT/AOT_stimuli/rescaled_final/0581_fw.mp4	0.0	363.07690596580505	0.10001206398010254
82	339.32326006889343	fix_pre	0		119	80.0	2.5	/experiments/AOT/AOT_stimuli/rescaled_final/0927_rv.mp4	0.0	363.17691802978516	0.9917638301849365
82	340.3068039417267	pulse	0	t		80.0	2.5	/experiments/AOT/AOT_stimuli/rescaled_final/0927_rv.mp4	0.0	364.1604619026184	
82	340.31502389907837	movie	1		245	80.0	2.5	/experiments/AOT/AOT_stimuli/rescaled_final/0927_rv.mp4	0.0	364.1686818599701	2.5078470706939697
82	341.90795707702637	pulse	1	t		80.0	2.5	/experiments/AOT/AOT_stimuli/rescaled_final/0927_rv.mp4	0.0	365.7616150379181	
82	342.82287096977234	fix_post	2		12	80.0	2.5	/experiments/AOT/AOT_stimuli/rescaled_final/0927_rv.mp4	0.0	366.67652893066406	0.10038900375366211
83	342.923259973526	fix_pre	0		120	81.0	2.5	/experiments/AOT/AOT_stimuli/rescaled_final/1244_rv.mp4	0.0	366.7769179344177	1.0000510215759277
83	343.50676798820496	pulse	0	t		81.0	2.5	/experiments/AOT/AOT_stimuli/rescaled_final/1244_rv.mp4	0.0	367.3604259490967	
83	343.92331099510193	movie	1		246	81.0	2.5	/experiments/AOT/AOT_stimuli/rescaled_final/1244_rv.mp4	0.0	367.77696895599365	2.4995079040527344
83	345.10683393478394	pulse	1	t		81.0	2.5	/experiments/AOT/AOT_stimuli/rescaled_final/1244_rv.mp4	0.0	368.96049189567566	
83	346.42281889915466	fix_post	2		12	81.0	2.5	/experiments/AOT/AOT_stimuli/rescaled_final/1244_rv.mp4	0.0	370.2764768600464	0.10047316551208496
84	346.52329206466675	fix_pre	0		120	82.0	2.5	/experiments/AOT/AOT_stimuli/rescaled_final/0842_fw.mp4	0.0	370.3769500255585	0.9999659061431885
84	346.70677399635315	pulse	0	t		82.0	2.5	/experiments/AOT/AOT_stimuli/rescaled_final/0842_fw.mp4	0.0	370.5604319572449	
84	347.52325797080994	movie	1		245	82.0	2.5	/experiments/AOT/AOT_stimuli/rescaled_final/0842_fw.mp4	0.0	371.37691593170166	2.5000040531158447
84	348.3067030906677	pulse	1	t		82.0	2.5	/experiments/AOT/AOT_stimuli/rescaled_final/0842_fw.mp4	0.0	372.16036105155945	
84	349.9068760871887	pulse	1	t		82.0	2.5	/experiments/AOT/AOT_stimuli/rescaled_final/0842_fw.mp4	0.0	373.76053404808044	
84	350.0232620239258	fix_post	2		12	82.0	2.5	/experiments/AOT/AOT_stimuli/rescaled_final/0842_fw.mp4	0.0	373.8769199848175	0.0995950698852539
85	350.12285709381104	fix_pre	0		120	83.0	2.5	blank	1.0	373.97651505470276	1.000410795211792
85	351.1232678890228	movie	1		300	83.0	2.5	blank	1.0	374.97692584991455	2.499990224838257
85	351.50678610801697	pulse	1	t		83.0	2.5	blank	1.0	375.3604440689087	
85	353.1066770553589	pulse	1	t		83.0	2.5	blank	1.0	376.9603350162506	
85	353.6232581138611	fix_post	2		12	83.0	2.5	blank	1.0	377.4769160747528	0.09959888458251953
87	353.7228569984436	stim	0		1716					377.5765149593353	14.300404071807861
87	354.70672392845154	pulse	0	t						378.56038188934326	
87	356.3066871166229	pulse	0	t						380.16034507751465	
87	357.90675592422485	pulse	0	t						381.7604138851166	
87	359.50672006607056	pulse	0	t						383.3603780269623	
87	361.10671210289	pulse	0	t						384.96037006378174	
87	362.7067849636078	pulse	0	t						386.5604429244995	
87	364.30683994293213	pulse	0	t						388.16049790382385	
87	365.90664410591125	pulse	0	t						389.760302066803	
87	367.5066649913788	pulse	0	t						391.3603229522705	
