trial_nr	onset	event_type	phase	response	nr_frames	movie_index	movie_duration	movie_file	blank	onset_abs	duration
0	0.14999890327453613	stim	0		38					19.735928058624268	0.3166079521179199
0	0.45861291885375977	response	0	space						20.04454207420349	
1	0.46660685539245605	stim	0		44002					20.052536010742188	366.68158507347107
1	367.1425290107727	pulse	0	t						386.72845816612244	
1	367.1481919288635	stim	1		1717					386.73412108421326	14.308271884918213
1	368.73999094963074	pulse	1	t						388.32592010498047	
1	370.3400049209595	pulse	1	t						389.9259340763092	
1	371.94005393981934	pulse	1	t						391.52598309516907	
1	373.53997778892517	pulse	1	t						393.1259069442749	
1	375.13997888565063	pulse	1	t						394.72590804100037	
1	376.73991799354553	pulse	1	t						396.32584714889526	
1	378.33994483947754	pulse	1	t						397.92587399482727	
1	379.9399619102478	pulse	1	t						399.52589106559753	
2	381.45646381378174	fix_pre	0		11	0.0	2.5	/experiments/AOT/AOT_stimuli/rescaled_final/1436_rv.mp4	0.0	401.04239296913147	0.09166502952575684
2	381.53996086120605	pulse	0	t		0.0	2.5	/experiments/AOT/AOT_stimuli/rescaled_final/1436_rv.mp4	0.0	401.1258900165558	
2	381.5481288433075	movie	1		243	0.0	2.5	/experiments/AOT/AOT_stimuli/rescaled_final/1436_rv.mp4	0.0	401.1340579986572	2.508258104324341
2	383.1399748325348	pulse	1	t		0.0	2.5	/experiments/AOT/AOT_stimuli/rescaled_final/1436_rv.mp4	0.0	402.7259039878845	
2	384.05638694763184	fix_post	2		12	0.0	2.5	/experiments/AOT/AOT_stimuli/rescaled_final/1436_rv.mp4	0.0	403.64231610298157	0.10010099411010742
3	384.15648794174194	fix_pre	0		120	1.0	2.5	/experiments/AOT/AOT_stimuli/rescaled_final/1320_fw.mp4	0.0	403.7424170970917	0.9999799728393555
3	384.7399799823761	pulse	0	t		1.0	2.5	/experiments/AOT/AOT_stimuli/rescaled_final/1320_fw.mp4	0.0	404.32590913772583	
3	385.1564679145813	movie	1		247	1.0	2.5	/experiments/AOT/AOT_stimuli/rescaled_final/1320_fw.mp4	0.0	404.74239706993103	2.4999139308929443
3	386.34005093574524	pulse	1	t		1.0	2.5	/experiments/AOT/AOT_stimuli/rescaled_final/1320_fw.mp4	0.0	405.92598009109497	
3	387.65638184547424	fix_post	2		12	1.0	2.5	/experiments/AOT/AOT_stimuli/rescaled_final/1320_fw.mp4	0.0	407.242311000824	0.09999608993530273
4	387.75637793540955	fix_pre	0		120	2.0	2.5	/experiments/AOT/AOT_stimuli/rescaled_final/1870_fw.mp4	0.0	407.3423070907593	1.0000860691070557
4	387.9399528503418	pulse	0	t		2.0	2.5	/experiments/AOT/AOT_stimuli/rescaled_final/1870_fw.mp4	0.0	407.5258820056915	
4	388.7564640045166	movie	1		242	2.0	2.5	/experiments/AOT/AOT_stimuli/rescaled_final/1870_fw.mp4	0.0	408.34239315986633	2.499490976333618
4	389.53994393348694	pulse	1	t		2.0	2.5	/experiments/AOT/AOT_stimuli/rescaled_final/1870_fw.mp4	0.0	409.12587308883667	
4	391.1383309364319	pulse	1	t		2.0	2.5	/experiments/AOT/AOT_stimuli/rescaled_final/1870_fw.mp4	0.0	410.7242600917816	
4	391.2559549808502	fix_post	2		12	2.0	2.5	/experiments/AOT/AOT_stimuli/rescaled_final/1870_fw.mp4	0.0	410.84188413619995	0.10045194625854492
5	391.35640692710876	fix_pre	0		120	3.0	2.5	/experiments/AOT/AOT_stimuli/rescaled_final/1836_rv.mp4	0.0	410.9423360824585	0.9999709129333496
5	392.3563778400421	movie	1		244	3.0	2.5	/experiments/AOT/AOT_stimuli/rescaled_final/1836_rv.mp4	0.0	411.94230699539185	2.500096082687378
5	392.7396879196167	pulse	1	t		3.0	2.5	/experiments/AOT/AOT_stimuli/rescaled_final/1836_rv.mp4	0.0	412.32561707496643	
5	394.3398699760437	pulse	1	t		3.0	2.5	/experiments/AOT/AOT_stimuli/rescaled_final/1836_rv.mp4	0.0	413.92579913139343	
5	394.8564739227295	fix_post	2		12	3.0	2.5	/experiments/AOT/AOT_stimuli/rescaled_final/1836_rv.mp4	0.0	414.4424030780792	0.09985494613647461
6	394.95632886886597	fix_pre	0		119	4.0	2.5	/experiments/AOT/AOT_stimuli/rescaled_final/1038_rv.mp4	0.0	414.5422580242157	0.991706132888794
6	395.93985295295715	pulse	0	t		4.0	2.5	/experiments/AOT/AOT_stimuli/rescaled_final/1038_rv.mp4	0.0	415.5257821083069	
6	395.94803500175476	movie	1		245	4.0	2.5	/experiments/AOT/AOT_stimuli/rescaled_final/1038_rv.mp4	0.0	415.5339641571045	2.5083248615264893
6	397.5401179790497	pulse	1	t		4.0	2.5	/experiments/AOT/AOT_stimuli/rescaled_final/1038_rv.mp4	0.0	417.1260471343994	
6	398.45635986328125	fix_post	2		12	4.0	2.5	/experiments/AOT/AOT_stimuli/rescaled_final/1038_rv.mp4	0.0	418.042289018631	0.10006999969482422
7	398.5564298629761	fix_pre	0		120	5.0	2.5	/experiments/AOT/AOT_stimuli/rescaled_final/0498_rv.mp4	0.0	418.1423590183258	0.9999511241912842
7	399.13992285728455	pulse	0	t		5.0	2.5	/experiments/AOT/AOT_stimuli/rescaled_final/0498_rv.mp4	0.0	418.7258520126343	
7	399.55638098716736	movie	1		246	5.0	2.5	/experiments/AOT/AOT_stimuli/rescaled_final/0498_rv.mp4	0.0	419.1423101425171	2.5001168251037598
7	400.73996090888977	pulse	1	t		5.0	2.5	/experiments/AOT/AOT_stimuli/rescaled_final/0498_rv.mp4	0.0	420.3258900642395	
7	402.0564978122711	fix_post	2		12	5.0	2.5	/experiments/AOT/AOT_stimuli/rescaled_final/0498_rv.mp4	0.0	421.64242696762085	0.09995818138122559
8	402.15645599365234	fix_pre	0		120	6.0	2.5	blank	1.0	421.7423851490021	0.9999308586120605
8	402.3397879600525	pulse	0	t		6.0	2.5	blank	1.0	421.9257171154022	
8	403.1563868522644	movie	1		300	6.0	2.5	blank	1.0	422.74231600761414	2.500070095062256
8	403.9398579597473	pulse	1	t		6.0	2.5	blank	1.0	423.52578711509705	
8	405.53992080688477	pulse	1	t		6.0	2.5	blank	1.0	425.1258499622345	
8	405.65645694732666	fix_post	2		12	6.0	2.5	blank	1.0	425.2423861026764	0.09994006156921387
9	405.7563970088959	fix_pre	0		120	7.0	2.5	/experiments/AOT/AOT_stimuli/rescaled_final/0631_rv.mp4	0.0	425.3423261642456	0.9995338916778564
9	406.75593090057373	movie	1		246	7.0	2.5	/experiments/AOT/AOT_stimuli/rescaled_final/0631_rv.mp4	0.0	426.34186005592346	2.5001680850982666
9	407.1388599872589	pulse	1	t		7.0	2.5	/experiments/AOT/AOT_stimuli/rescaled_final/0631_rv.mp4	0.0	426.72478914260864	
9	408.7399048805237	pulse	1	t		7.0	2.5	/experiments/AOT/AOT_stimuli/rescaled_final/0631_rv.mp4	0.0	428.3258340358734	
9	409.256098985672	fix_post	2		12	7.0	2.5	/experiments/AOT/AOT_stimuli/rescaled_final/0631_rv.mp4	0.0	428.84202814102173	0.10048890113830566
10	409.3565878868103	fix_pre	0		119	8.0	2.5	/experiments/AOT/AOT_stimuli/rescaled_final/1438_rv.mp4	0.0	428.94251704216003	0.9913570880889893
10	410.3397958278656	pulse	0	t		8.0	2.5	/experiments/AOT/AOT_stimuli/rescaled_final/1438_rv.mp4	0.0	429.92572498321533	
10	410.3479449748993	movie	1		247	8.0	2.5	/experiments/AOT/AOT_stimuli/rescaled_final/1438_rv.mp4	0.0	429.933874130249	2.5083858966827393
10	411.9392178058624	pulse	1	t		8.0	2.5	/experiments/AOT/AOT_stimuli/rescaled_final/1438_rv.mp4	0.0	431.52514696121216	
10	412.85633087158203	fix_post	2		12	8.0	2.5	/experiments/AOT/AOT_stimuli/rescaled_final/1438_rv.mp4	0.0	432.44226002693176	0.09999394416809082
11	412.9563248157501	fix_pre	0		120	9.0	2.5	/experiments/AOT/AOT_stimuli/rescaled_final/0879_fw.mp4	0.0	432.54225397109985	0.9999980926513672
11	413.5397639274597	pulse	0	t		9.0	2.5	/experiments/AOT/AOT_stimuli/rescaled_final/0879_fw.mp4	0.0	433.12569308280945	
11	413.9563229084015	movie	1		247	9.0	2.5	/experiments/AOT/AOT_stimuli/rescaled_final/0879_fw.mp4	0.0	433.5422520637512	2.499958038330078
11	415.13971281051636	pulse	1	t		9.0	2.5	/experiments/AOT/AOT_stimuli/rescaled_final/0879_fw.mp4	0.0	434.7256419658661	
11	416.45628094673157	fix_post	2		12	9.0	2.5	/experiments/AOT/AOT_stimuli/rescaled_final/0879_fw.mp4	0.0	436.0422101020813	0.10000395774841309
12	416.55628490448	fix_pre	0		120	10.0	2.5	/experiments/AOT/AOT_stimuli/rescaled_final/1342_fw.mp4	0.0	436.1422140598297	0.9999940395355225
12	416.7397689819336	pulse	0	t		10.0	2.5	/experiments/AOT/AOT_stimuli/rescaled_final/1342_fw.mp4	0.0	436.3256981372833	
12	417.5562789440155	movie	1		245	10.0	2.5	/experiments/AOT/AOT_stimuli/rescaled_final/1342_fw.mp4	0.0	437.14220809936523	2.4996519088745117
12	418.33970284461975	pulse	1	t		10.0	2.5	/experiments/AOT/AOT_stimuli/rescaled_final/1342_fw.mp4	0.0	437.9256319999695	
12	419.938866853714	pulse	1	t		10.0	2.5	/experiments/AOT/AOT_stimuli/rescaled_final/1342_fw.mp4	0.0	439.5247960090637	
12	420.05593085289	fix_post	2		12	10.0	2.5	/experiments/AOT/AOT_stimuli/rescaled_final/1342_fw.mp4	0.0	439.64186000823975	0.1003110408782959
13	420.1562418937683	fix_pre	0		120	11.0	2.5	/experiments/AOT/AOT_stimuli/rescaled_final/1847_rv.mp4	0.0	439.74217104911804	0.9995970726013184
13	421.15583896636963	movie	1		243	11.0	2.5	/experiments/AOT/AOT_stimuli/rescaled_final/1847_rv.mp4	0.0	440.74176812171936	2.500375986099243
13	421.53932785987854	pulse	1	t		11.0	2.5	/experiments/AOT/AOT_stimuli/rescaled_final/1847_rv.mp4	0.0	441.12525701522827	
13	423.13968682289124	pulse	1	t		11.0	2.5	/experiments/AOT/AOT_stimuli/rescaled_final/1847_rv.mp4	0.0	442.72561597824097	
13	423.6562149524689	fix_post	2		12	11.0	2.5	/experiments/AOT/AOT_stimuli/rescaled_final/1847_rv.mp4	0.0	443.2421441078186	0.10006189346313477
14	423.756276845932	fix_pre	0		119	12.0	2.5	/experiments/AOT/AOT_stimuli/rescaled_final/0833_rv.mp4	0.0	443.34220600128174	0.9916360378265381
14	424.739727973938	pulse	0	t		12.0	2.5	/experiments/AOT/AOT_stimuli/rescaled_final/0833_rv.mp4	0.0	444.3256571292877	
14	424.74791288375854	movie	1		244	12.0	2.5	/experiments/AOT/AOT_stimuli/rescaled_final/0833_rv.mp4	0.0	444.3338420391083	2.5078999996185303
14	426.34018993377686	pulse	1	t		12.0	2.5	/experiments/AOT/AOT_stimuli/rescaled_final/0833_rv.mp4	0.0	445.9261190891266	
14	427.2558128833771	fix_post	2		12	12.0	2.5	/experiments/AOT/AOT_stimuli/rescaled_final/0833_rv.mp4	0.0	446.8417420387268	0.1003580093383789
15	427.35617089271545	fix_pre	0		120	13.0	2.5	/experiments/AOT/AOT_stimuli/rescaled_final/1734_fw.mp4	0.0	446.9421000480652	1.0002830028533936
15	427.9397668838501	pulse	0	t		13.0	2.5	/experiments/AOT/AOT_stimuli/rescaled_final/1734_fw.mp4	0.0	447.52569603919983	
15	428.35645389556885	movie	1		243	13.0	2.5	/experiments/AOT/AOT_stimuli/rescaled_final/1734_fw.mp4	0.0	447.9423830509186	2.499769926071167
15	429.5397160053253	pulse	1	t		13.0	2.5	/experiments/AOT/AOT_stimuli/rescaled_final/1734_fw.mp4	0.0	449.12564516067505	
15	430.85622382164	fix_post	2		12	13.0	2.5	/experiments/AOT/AOT_stimuli/rescaled_final/1734_fw.mp4	0.0	450.44215297698975	0.10006117820739746
16	430.9562849998474	fix_pre	0		120	14.0	2.5	blank	1.0	450.54221415519714	0.999931812286377
16	431.1397099494934	pulse	0	t		14.0	2.5	blank	1.0	450.72563910484314	
16	431.9562168121338	movie	1		300	14.0	2.5	blank	1.0	451.5421459674835	2.5000710487365723
16	432.7397358417511	pulse	1	t		14.0	2.5	blank	1.0	452.32566499710083	
16	434.33967995643616	pulse	1	t		14.0	2.5	blank	1.0	453.9256091117859	
16	434.45628786087036	fix_post	2		12	14.0	2.5	blank	1.0	454.0422170162201	0.09988212585449219
17	434.55616998672485	fix_pre	0		120	15.0	2.5	/experiments/AOT/AOT_stimuli/rescaled_final/0502_rv.mp4	0.0	454.1420991420746	0.9995858669281006
17	435.55575585365295	movie	1		244	15.0	2.5	/experiments/AOT/AOT_stimuli/rescaled_final/0502_rv.mp4	0.0	455.1416850090027	2.500420093536377
17	435.93981099128723	pulse	1	t		15.0	2.5	/experiments/AOT/AOT_stimuli/rescaled_final/0502_rv.mp4	0.0	455.52574014663696	
17	437.53958892822266	pulse	1	t		15.0	2.5	/experiments/AOT/AOT_stimuli/rescaled_final/0502_rv.mp4	0.0	457.1255180835724	
17	438.05617594718933	fix_post	2		12	15.0	2.5	/experiments/AOT/AOT_stimuli/rescaled_final/0502_rv.mp4	0.0	457.64210510253906	0.09999585151672363
18	438.15617179870605	fix_pre	0		119	16.0	2.5	/experiments/AOT/AOT_stimuli/rescaled_final/0695_rv.mp4	0.0	457.7421009540558	0.9917411804199219
18	439.13980197906494	pulse	0	t		16.0	2.5	/experiments/AOT/AOT_stimuli/rescaled_final/0695_rv.mp4	0.0	458.7257311344147	
18	439.147912979126	movie	1		245	16.0	2.5	/experiments/AOT/AOT_stimuli/rescaled_final/0695_rv.mp4	0.0	458.7338421344757	2.508229970932007
18	440.73980689048767	pulse	1	t		16.0	2.5	/experiments/AOT/AOT_stimuli/rescaled_final/0695_rv.mp4	0.0	460.3257360458374	
18	441.656142950058	fix_post	2		12	16.0	2.5	/experiments/AOT/AOT_stimuli/rescaled_final/0695_rv.mp4	0.0	461.2420721054077	0.10002303123474121
19	441.7561659812927	fix_pre	0		120	17.0	2.5	/experiments/AOT/AOT_stimuli/rescaled_final/0745_rv.mp4	0.0	461.34209513664246	0.9999740123748779
19	442.3396530151367	pulse	0	t		17.0	2.5	/experiments/AOT/AOT_stimuli/rescaled_final/0745_rv.mp4	0.0	461.92558217048645	
19	442.7561399936676	movie	1		245	17.0	2.5	/experiments/AOT/AOT_stimuli/rescaled_final/0745_rv.mp4	0.0	462.34206914901733	2.4996109008789062
19	443.9396638870239	pulse	1	t		17.0	2.5	/experiments/AOT/AOT_stimuli/rescaled_final/0745_rv.mp4	0.0	463.52559304237366	
19	445.2557508945465	fix_post	2		12	17.0	2.5	/experiments/AOT/AOT_stimuli/rescaled_final/0745_rv.mp4	0.0	464.84168004989624	0.10040497779846191
20	445.35615587234497	fix_pre	0		120	18.0	2.5	/experiments/AOT/AOT_stimuli/rescaled_final/1627_rv.mp4	0.0	464.9420850276947	0.9999790191650391
20	445.53964495658875	pulse	0	t		18.0	2.5	/experiments/AOT/AOT_stimuli/rescaled_final/1627_rv.mp4	0.0	465.1255741119385	
20	446.35613489151	movie	1		243	18.0	2.5	/experiments/AOT/AOT_stimuli/rescaled_final/1627_rv.mp4	0.0	465.94206404685974	2.500046968460083
20	447.13966178894043	pulse	1	t		18.0	2.5	/experiments/AOT/AOT_stimuli/rescaled_final/1627_rv.mp4	0.0	466.72559094429016	
20	448.73812985420227	pulse	1	t		18.0	2.5	/experiments/AOT/AOT_stimuli/rescaled_final/1627_rv.mp4	0.0	468.324059009552	
20	448.8561818599701	fix_post	2		12	18.0	2.5	/experiments/AOT/AOT_stimuli/rescaled_final/1627_rv.mp4	0.0	468.4421110153198	0.10000109672546387
21	448.95618295669556	fix_pre	0		120	19.0	2.5	/experiments/AOT/AOT_stimuli/rescaled_final/0032_fw.mp4	0.0	468.5421121120453	0.9999709129333496
21	449.9561538696289	movie	1		244	19.0	2.5	/experiments/AOT/AOT_stimuli/rescaled_final/0032_fw.mp4	0.0	469.54208302497864	2.499927043914795
21	450.33926486968994	pulse	1	t		19.0	2.5	/experiments/AOT/AOT_stimuli/rescaled_final/0032_fw.mp4	0.0	469.9251940250397	
21	451.939621925354	pulse	1	t		19.0	2.5	/experiments/AOT/AOT_stimuli/rescaled_final/0032_fw.mp4	0.0	471.52555108070374	
21	452.4560809135437	fix_post	2		12	19.0	2.5	/experiments/AOT/AOT_stimuli/rescaled_final/0032_fw.mp4	0.0	472.04201006889343	0.10006308555603027
22	452.55614399909973	fix_pre	0		119	20.0	2.5	blank	1.0	472.14207315444946	0.9916129112243652
22	453.5396399497986	pulse	0	t		20.0	2.5	blank	1.0	473.1255691051483	
22	453.5477569103241	movie	1		301	20.0	2.5	blank	1.0	473.1336860656738	2.508404016494751
22	455.1395859718323	pulse	1	t		20.0	2.5	blank	1.0	474.725515127182	
22	456.05616092681885	fix_post	2		12	20.0	2.5	blank	1.0	475.6420900821686	0.09997701644897461
23	456.1561379432678	fix_pre	0		120	21.0	2.5	/experiments/AOT/AOT_stimuli/rescaled_final/1342_fw.mp4	0.0	475.74206709861755	0.9995520114898682
23	456.7396459579468	pulse	0	t		21.0	2.5	/experiments/AOT/AOT_stimuli/rescaled_final/1342_fw.mp4	0.0	476.3255751132965	
23	457.1556899547577	movie	1		244	21.0	2.5	/experiments/AOT/AOT_stimuli/rescaled_final/1342_fw.mp4	0.0	476.7416191101074	2.5004849433898926
23	458.33975982666016	pulse	1	t		21.0	2.5	/experiments/AOT/AOT_stimuli/rescaled_final/1342_fw.mp4	0.0	477.9256889820099	
23	459.6561748981476	fix_post	2		12	21.0	2.5	/experiments/AOT/AOT_stimuli/rescaled_final/1342_fw.mp4	0.0	479.2421040534973	0.09987497329711914
24	459.7560498714447	fix_pre	0		120	22.0	2.5	/experiments/AOT/AOT_stimuli/rescaled_final/2140_rv.mp4	0.0	479.34197902679443	1.0001299381256104
24	459.93960785865784	pulse	0	t		22.0	2.5	/experiments/AOT/AOT_stimuli/rescaled_final/2140_rv.mp4	0.0	479.52553701400757	
24	460.7561798095703	movie	1		245	22.0	2.5	/experiments/AOT/AOT_stimuli/rescaled_final/2140_rv.mp4	0.0	480.34210896492004	2.499514102935791
24	461.5396158695221	pulse	1	t		22.0	2.5	/experiments/AOT/AOT_stimuli/rescaled_final/2140_rv.mp4	0.0	481.1255450248718	
24	463.1392149925232	pulse	1	t		22.0	2.5	/experiments/AOT/AOT_stimuli/rescaled_final/2140_rv.mp4	0.0	482.7251441478729	
24	463.2556939125061	fix_post	2		12	22.0	2.5	/experiments/AOT/AOT_stimuli/rescaled_final/2140_rv.mp4	0.0	482.84162306785583	0.10001587867736816
25	463.3557097911835	fix_pre	0		120	23.0	2.5	/experiments/AOT/AOT_stimuli/rescaled_final/1213_fw.mp4	0.0	482.9416389465332	1.000042200088501
25	464.355751991272	movie	1		244	23.0	2.5	/experiments/AOT/AOT_stimuli/rescaled_final/1213_fw.mp4	0.0	483.9416811466217	2.4999139308929443
25	464.7396059036255	pulse	1	t		23.0	2.5	/experiments/AOT/AOT_stimuli/rescaled_final/1213_fw.mp4	0.0	484.3255350589752	
25	466.33946990966797	pulse	1	t		23.0	2.5	/experiments/AOT/AOT_stimuli/rescaled_final/1213_fw.mp4	0.0	485.9253990650177	
25	466.8556659221649	fix_post	2		12	23.0	2.5	/experiments/AOT/AOT_stimuli/rescaled_final/1213_fw.mp4	0.0	486.44159507751465	0.10043501853942871
26	466.95610094070435	fix_pre	0		119	24.0	2.5	/experiments/AOT/AOT_stimuli/rescaled_final/2177_fw.mp4	0.0	486.5420300960541	0.9916219711303711
26	467.93956089019775	pulse	0	t		24.0	2.5	/experiments/AOT/AOT_stimuli/rescaled_final/2177_fw.mp4	0.0	487.5254900455475	
26	467.9477229118347	movie	1		244	24.0	2.5	/experiments/AOT/AOT_stimuli/rescaled_final/2177_fw.mp4	0.0	487.53365206718445	2.5083260536193848
26	469.5407648086548	pulse	1	t		24.0	2.5	/experiments/AOT/AOT_stimuli/rescaled_final/2177_fw.mp4	0.0	489.1266939640045	
26	470.4560489654541	fix_post	2		12	24.0	2.5	/experiments/AOT/AOT_stimuli/rescaled_final/2177_fw.mp4	0.0	490.04197812080383	0.09994387626647949
27	470.5559928417206	fix_pre	0		120	25.0	2.5	/experiments/AOT/AOT_stimuli/rescaled_final/0990_rv.mp4	0.0	490.1419219970703	0.9999830722808838
27	471.13948583602905	pulse	0	t		25.0	2.5	/experiments/AOT/AOT_stimuli/rescaled_final/0990_rv.mp4	0.0	490.7254149913788	
27	471.55597591400146	movie	1		243	25.0	2.5	/experiments/AOT/AOT_stimuli/rescaled_final/0990_rv.mp4	0.0	491.1419050693512	2.500062942504883
27	472.7396168708801	pulse	1	t		25.0	2.5	/experiments/AOT/AOT_stimuli/rescaled_final/0990_rv.mp4	0.0	492.32554602622986	
27	474.05603885650635	fix_post	2		12	25.0	2.5	/experiments/AOT/AOT_stimuli/rescaled_final/0990_rv.mp4	0.0	493.6419680118561	0.09997797012329102
28	474.15601682662964	fix_pre	0		120	26.0	2.5	/experiments/AOT/AOT_stimuli/rescaled_final/1796_fw.mp4	0.0	493.74194598197937	0.9999339580535889
28	474.3395218849182	pulse	0	t		26.0	2.5	/experiments/AOT/AOT_stimuli/rescaled_final/1796_fw.mp4	0.0	493.92545104026794	
28	475.1559507846832	movie	1		244	26.0	2.5	/experiments/AOT/AOT_stimuli/rescaled_final/1796_fw.mp4	0.0	494.74187994003296	2.5000481605529785
28	475.93962693214417	pulse	1	t		26.0	2.5	/experiments/AOT/AOT_stimuli/rescaled_final/1796_fw.mp4	0.0	495.5255560874939	
28	477.53848695755005	pulse	1	t		26.0	2.5	/experiments/AOT/AOT_stimuli/rescaled_final/1796_fw.mp4	0.0	497.1244161128998	
28	477.6559989452362	fix_post	2		12	26.0	2.5	/experiments/AOT/AOT_stimuli/rescaled_final/1796_fw.mp4	0.0	497.24192810058594	0.09997892379760742
29	477.7559778690338	fix_pre	0		120	27.0	2.5	blank	1.0	497.34190702438354	1.0000190734863281
29	478.75599694252014	movie	1		300	27.0	2.5	blank	1.0	498.3419260978699	2.4999849796295166
29	479.13948678970337	pulse	1	t		27.0	2.5	blank	1.0	498.7254159450531	
29	480.7394609451294	pulse	1	t		27.0	2.5	blank	1.0	500.3253901004791	
29	481.25598192214966	fix_post	2		12	27.0	2.5	blank	1.0	500.8419110774994	0.09999704360961914
30	481.3559789657593	fix_pre	0		119	28.0	2.5	/experiments/AOT/AOT_stimuli/rescaled_final/1417_fw.mp4	0.0	500.941908121109	0.9916949272155762
30	482.33947801589966	pulse	0	t		28.0	2.5	/experiments/AOT/AOT_stimuli/rescaled_final/1417_fw.mp4	0.0	501.9254071712494	
30	482.34767389297485	movie	1		245	28.0	2.5	/experiments/AOT/AOT_stimuli/rescaled_final/1417_fw.mp4	0.0	501.9336030483246	2.5082409381866455
30	483.93906688690186	pulse	1	t		28.0	2.5	/experiments/AOT/AOT_stimuli/rescaled_final/1417_fw.mp4	0.0	503.5249960422516	
30	484.8559148311615	fix_post	2		12	28.0	2.5	/experiments/AOT/AOT_stimuli/rescaled_final/1417_fw.mp4	0.0	504.44184398651123	0.10005617141723633
31	484.95597100257874	fix_pre	0		120	29.0	2.5	/experiments/AOT/AOT_stimuli/rescaled_final/0098_fw.mp4	0.0	504.54190015792847	0.9999659061431885
31	485.5394608974457	pulse	0	t		29.0	2.5	/experiments/AOT/AOT_stimuli/rescaled_final/0098_fw.mp4	0.0	505.1253900527954	
31	485.9559369087219	movie	1		247	29.0	2.5	/experiments/AOT/AOT_stimuli/rescaled_final/0098_fw.mp4	0.0	505.54186606407166	2.5000550746917725
31	487.1395628452301	pulse	1	t		29.0	2.5	/experiments/AOT/AOT_stimuli/rescaled_final/0098_fw.mp4	0.0	506.72549200057983	
31	488.4559919834137	fix_post	2		12	29.0	2.5	/experiments/AOT/AOT_stimuli/rescaled_final/0098_fw.mp4	0.0	508.0419211387634	0.09994983673095703
32	488.55594182014465	fix_pre	0		120	30.0	2.5	/experiments/AOT/AOT_stimuli/rescaled_final/0047_rv.mp4	0.0	508.1418709754944	0.9999701976776123
32	488.7394459247589	pulse	0	t		30.0	2.5	/experiments/AOT/AOT_stimuli/rescaled_final/0047_rv.mp4	0.0	508.32537508010864	
32	489.55591201782227	movie	1		243	30.0	2.5	/experiments/AOT/AOT_stimuli/rescaled_final/0047_rv.mp4	0.0	509.141841173172	2.4999887943267822
32	490.3394548892975	pulse	1	t		30.0	2.5	/experiments/AOT/AOT_stimuli/rescaled_final/0047_rv.mp4	0.0	509.9253840446472	
32	491.9377269744873	pulse	1	t		30.0	2.5	/experiments/AOT/AOT_stimuli/rescaled_final/0047_rv.mp4	0.0	511.52365612983704	
32	492.05590081214905	fix_post	2		12	30.0	2.5	/experiments/AOT/AOT_stimuli/rescaled_final/0047_rv.mp4	0.0	511.6418299674988	0.10005998611450195
33	492.15596079826355	fix_pre	0		120	31.0	2.5	/experiments/AOT/AOT_stimuli/rescaled_final/1152_rv.mp4	0.0	511.7418899536133	0.9999260902404785
33	493.155886888504	movie	1		244	31.0	2.5	/experiments/AOT/AOT_stimuli/rescaled_final/1152_rv.mp4	0.0	512.7418160438538	2.5000929832458496
33	493.5390188694	pulse	1	t		31.0	2.5	/experiments/AOT/AOT_stimuli/rescaled_final/1152_rv.mp4	0.0	513.1249480247498	
33	495.1394169330597	pulse	1	t		31.0	2.5	/experiments/AOT/AOT_stimuli/rescaled_final/1152_rv.mp4	0.0	514.7253460884094	
33	495.6559798717499	fix_post	2		12	31.0	2.5	/experiments/AOT/AOT_stimuli/rescaled_final/1152_rv.mp4	0.0	515.2419090270996	0.10001397132873535
34	495.7559938430786	fix_pre	0		119	32.0	2.5	/experiments/AOT/AOT_stimuli/rescaled_final/0631_fw.mp4	0.0	515.3419229984283	0.9915580749511719
34	496.7394278049469	pulse	0	t		32.0	2.5	/experiments/AOT/AOT_stimuli/rescaled_final/0631_fw.mp4	0.0	516.3253569602966	
34	496.7475519180298	movie	1		245	32.0	2.5	/experiments/AOT/AOT_stimuli/rescaled_final/0631_fw.mp4	0.0	516.3334810733795	2.5084099769592285
34	498.3389639854431	pulse	1	t		32.0	2.5	/experiments/AOT/AOT_stimuli/rescaled_final/0631_fw.mp4	0.0	517.9248931407928	
34	499.255961894989	fix_post	2		12	32.0	2.5	/experiments/AOT/AOT_stimuli/rescaled_final/0631_fw.mp4	0.0	518.8418910503387	0.09992289543151855
35	499.35588479042053	fix_pre	0		120	33.0	2.5	blank	1.0	518.9418139457703	1.0000860691070557
35	499.93948101997375	pulse	0	t		33.0	2.5	blank	1.0	519.5254101753235	
35	500.3559708595276	movie	1		300	33.0	2.5	blank	1.0	519.9419000148773	2.499911069869995
35	501.5394198894501	pulse	1	t		33.0	2.5	blank	1.0	521.1253490447998	
35	502.8558819293976	fix_post	2		12	33.0	2.5	blank	1.0	522.4418110847473	0.09998393058776855
36	502.95586585998535	fix_pre	0		120	34.0	2.5	/experiments/AOT/AOT_stimuli/rescaled_final/1109_rv.mp4	0.0	522.5417950153351	0.9999780654907227
36	503.13942694664	pulse	0	t		34.0	2.5	/experiments/AOT/AOT_stimuli/rescaled_final/1109_rv.mp4	0.0	522.7253561019897	
36	503.9558439254761	movie	1		244	34.0	2.5	/experiments/AOT/AOT_stimuli/rescaled_final/1109_rv.mp4	0.0	523.5417730808258	2.4996120929718018
36	504.7393879890442	pulse	1	t		34.0	2.5	/experiments/AOT/AOT_stimuli/rescaled_final/1109_rv.mp4	0.0	524.3253171443939	
36	506.33807492256165	pulse	1	t		34.0	2.5	/experiments/AOT/AOT_stimuli/rescaled_final/1109_rv.mp4	0.0	525.9240040779114	
36	506.4554560184479	fix_post	2		12	34.0	2.5	/experiments/AOT/AOT_stimuli/rescaled_final/1109_rv.mp4	0.0	526.0413851737976	0.10044598579406738
37	506.55590200424194	fix_pre	0		120	35.0	2.5	/experiments/AOT/AOT_stimuli/rescaled_final/0377_fw.mp4	0.0	526.1418311595917	0.9999599456787109
37	507.55586194992065	movie	1		245	35.0	2.5	/experiments/AOT/AOT_stimuli/rescaled_final/0377_fw.mp4	0.0	527.1417911052704	2.500035047531128
37	507.939297914505	pulse	1	t		35.0	2.5	/experiments/AOT/AOT_stimuli/rescaled_final/0377_fw.mp4	0.0	527.5252270698547	
37	509.53931879997253	pulse	1	t		35.0	2.5	/experiments/AOT/AOT_stimuli/rescaled_final/0377_fw.mp4	0.0	529.1252479553223	
37	510.0558969974518	fix_post	2		12	35.0	2.5	/experiments/AOT/AOT_stimuli/rescaled_final/0377_fw.mp4	0.0	529.6418261528015	0.09987688064575195
38	510.15577387809753	fix_pre	0		119	36.0	2.5	/experiments/AOT/AOT_stimuli/rescaled_final/1373_fw.mp4	0.0	529.7417030334473	0.991771936416626
38	511.13931679725647	pulse	0	t		36.0	2.5	/experiments/AOT/AOT_stimuli/rescaled_final/1373_fw.mp4	0.0	530.7252459526062	
38	511.14754581451416	movie	1		244	36.0	2.5	/experiments/AOT/AOT_stimuli/rescaled_final/1373_fw.mp4	0.0	530.7334749698639	2.508229970932007
38	512.7391548156738	pulse	1	t		36.0	2.5	/experiments/AOT/AOT_stimuli/rescaled_final/1373_fw.mp4	0.0	532.3250839710236	
38	513.6557757854462	fix_post	2		12	36.0	2.5	/experiments/AOT/AOT_stimuli/rescaled_final/1373_fw.mp4	0.0	533.2417049407959	0.10012102127075195
39	513.7558968067169	fix_pre	0		120	37.0	2.5	/experiments/AOT/AOT_stimuli/rescaled_final/1741_fw.mp4	0.0	533.3418259620667	0.9999630451202393
39	514.3392789363861	pulse	0	t		37.0	2.5	/experiments/AOT/AOT_stimuli/rescaled_final/1741_fw.mp4	0.0	533.9252080917358	
39	514.7558598518372	movie	1		242	37.0	2.5	/experiments/AOT/AOT_stimuli/rescaled_final/1741_fw.mp4	0.0	534.3417890071869	2.499948024749756
39	515.9394659996033	pulse	1	t		37.0	2.5	/experiments/AOT/AOT_stimuli/rescaled_final/1741_fw.mp4	0.0	535.525395154953	
39	517.2558078765869	fix_post	2		12	37.0	2.5	/experiments/AOT/AOT_stimuli/rescaled_final/1741_fw.mp4	0.0	536.8417370319366	0.10007190704345703
40	517.3558797836304	fix_pre	0		120	38.0	2.5	/experiments/AOT/AOT_stimuli/rescaled_final/0990_rv.mp4	0.0	536.9418089389801	1.0000221729278564
40	517.5392467975616	pulse	0	t		38.0	2.5	/experiments/AOT/AOT_stimuli/rescaled_final/0990_rv.mp4	0.0	537.1251759529114	
40	518.3559019565582	movie	1		245	38.0	2.5	/experiments/AOT/AOT_stimuli/rescaled_final/0990_rv.mp4	0.0	537.941831111908	2.499691963195801
40	519.1388559341431	pulse	1	t		38.0	2.5	/experiments/AOT/AOT_stimuli/rescaled_final/0990_rv.mp4	0.0	538.7247850894928	
40	520.7392528057098	pulse	1	t		38.0	2.5	/experiments/AOT/AOT_stimuli/rescaled_final/0990_rv.mp4	0.0	540.3251819610596	
40	520.855593919754	fix_post	2		12	38.0	2.5	/experiments/AOT/AOT_stimuli/rescaled_final/0990_rv.mp4	0.0	540.4415230751038	0.10041499137878418
41	520.9560089111328	fix_pre	0		120	39.0	2.5	/experiments/AOT/AOT_stimuli/rescaled_final/1151_rv.mp4	0.0	540.5419380664825	0.9997129440307617
41	521.9557218551636	movie	1		245	39.0	2.5	/experiments/AOT/AOT_stimuli/rescaled_final/1151_rv.mp4	0.0	541.5416510105133	2.5000391006469727
41	522.3394827842712	pulse	1	t		39.0	2.5	/experiments/AOT/AOT_stimuli/rescaled_final/1151_rv.mp4	0.0	541.925411939621	
41	523.9392158985138	pulse	1	t		39.0	2.5	/experiments/AOT/AOT_stimuli/rescaled_final/1151_rv.mp4	0.0	543.5251450538635	
41	524.4557609558105	fix_post	2		12	39.0	2.5	/experiments/AOT/AOT_stimuli/rescaled_final/1151_rv.mp4	0.0	544.0416901111603	0.10012197494506836
42	524.5558829307556	fix_pre	0		119	40.0	2.5	/experiments/AOT/AOT_stimuli/rescaled_final/0871_fw.mp4	0.0	544.1418120861053	0.9916448593139648
42	525.5393669605255	pulse	0	t		40.0	2.5	/experiments/AOT/AOT_stimuli/rescaled_final/0871_fw.mp4	0.0	545.1252961158752	
42	525.5475277900696	movie	1		248	40.0	2.5	/experiments/AOT/AOT_stimuli/rescaled_final/0871_fw.mp4	0.0	545.1334569454193	2.5082662105560303
42	527.1388478279114	pulse	1	t		40.0	2.5	/experiments/AOT/AOT_stimuli/rescaled_final/0871_fw.mp4	0.0	546.7247769832611	
42	528.0557940006256	fix_post	2		12	40.0	2.5	/experiments/AOT/AOT_stimuli/rescaled_final/0871_fw.mp4	0.0	547.6417231559753	0.09997200965881348
43	528.1557660102844	fix_pre	0		120	41.0	2.5	blank	1.0	547.7416951656342	0.9999909400939941
43	528.7392418384552	pulse	0	t		41.0	2.5	blank	1.0	548.3251709938049	
43	529.1557569503784	movie	1		300	41.0	2.5	blank	1.0	548.7416861057281	2.4999799728393555
43	530.3392288684845	pulse	1	t		41.0	2.5	blank	1.0	549.9251580238342	
43	531.6557369232178	fix_post	2		12	41.0	2.5	blank	1.0	551.2416660785675	0.09992790222167969
44	531.7556648254395	fix_pre	0		120	42.0	2.5	/experiments/AOT/AOT_stimuli/rescaled_final/1474_rv.mp4	0.0	551.3415939807892	1.0000920295715332
44	531.9391620159149	pulse	0	t		42.0	2.5	/experiments/AOT/AOT_stimuli/rescaled_final/1474_rv.mp4	0.0	551.5250911712646	
44	532.755756855011	movie	1		244	42.0	2.5	/experiments/AOT/AOT_stimuli/rescaled_final/1474_rv.mp4	0.0	552.3416860103607	2.499948024749756
44	533.539186000824	pulse	1	t		42.0	2.5	/experiments/AOT/AOT_stimuli/rescaled_final/1474_rv.mp4	0.0	553.1251151561737	
44	535.1379728317261	pulse	1	t		42.0	2.5	/experiments/AOT/AOT_stimuli/rescaled_final/1474_rv.mp4	0.0	554.7239019870758	
44	535.2557048797607	fix_post	2		12	42.0	2.5	/experiments/AOT/AOT_stimuli/rescaled_final/1474_rv.mp4	0.0	554.8416340351105	0.10002803802490234
45	535.3557329177856	fix_pre	0		120	43.0	2.5	/experiments/AOT/AOT_stimuli/rescaled_final/0988_fw.mp4	0.0	554.9416620731354	0.9999408721923828
45	536.355673789978	movie	1		243	43.0	2.5	/experiments/AOT/AOT_stimuli/rescaled_final/0988_fw.mp4	0.0	555.9416029453278	2.499981164932251
45	536.7387368679047	pulse	1	t		43.0	2.5	/experiments/AOT/AOT_stimuli/rescaled_final/0988_fw.mp4	0.0	556.3246660232544	
45	538.3392128944397	pulse	1	t		43.0	2.5	/experiments/AOT/AOT_stimuli/rescaled_final/0988_fw.mp4	0.0	557.9251420497894	
45	538.8556549549103	fix_post	2		12	43.0	2.5	/experiments/AOT/AOT_stimuli/rescaled_final/0988_fw.mp4	0.0	558.44158411026	0.10001087188720703
46	538.9556658267975	fix_pre	0		119	44.0	2.5	/experiments/AOT/AOT_stimuli/rescaled_final/0975_fw.mp4	0.0	558.5415949821472	0.9917140007019043
46	539.9392058849335	pulse	0	t		44.0	2.5	/experiments/AOT/AOT_stimuli/rescaled_final/0975_fw.mp4	0.0	559.5251350402832	
46	539.9473798274994	movie	1		244	44.0	2.5	/experiments/AOT/AOT_stimuli/rescaled_final/0975_fw.mp4	0.0	559.5333089828491	2.508336067199707
46	541.5390889644623	pulse	1	t		44.0	2.5	/experiments/AOT/AOT_stimuli/rescaled_final/0975_fw.mp4	0.0	561.125018119812	
46	542.4557158946991	fix_post	2		12	44.0	2.5	/experiments/AOT/AOT_stimuli/rescaled_final/0975_fw.mp4	0.0	562.0416450500488	0.0999441146850586
47	542.5556600093842	fix_pre	0		120	45.0	2.5	/experiments/AOT/AOT_stimuli/rescaled_final/1536_rv.mp4	0.0	562.1415891647339	1.0000898838043213
47	543.1392138004303	pulse	0	t		45.0	2.5	/experiments/AOT/AOT_stimuli/rescaled_final/1536_rv.mp4	0.0	562.72514295578	
47	543.5557498931885	movie	1		247	45.0	2.5	/experiments/AOT/AOT_stimuli/rescaled_final/1536_rv.mp4	0.0	563.1416790485382	2.4999160766601562
47	544.7392899990082	pulse	1	t		45.0	2.5	/experiments/AOT/AOT_stimuli/rescaled_final/1536_rv.mp4	0.0	564.3252191543579	
47	546.0556659698486	fix_post	2		12	45.0	2.5	/experiments/AOT/AOT_stimuli/rescaled_final/1536_rv.mp4	0.0	565.6415951251984	0.10001182556152344
48	546.1556777954102	fix_pre	0		120	46.0	2.5	/experiments/AOT/AOT_stimuli/rescaled_final/0736_rv.mp4	0.0	565.7416069507599	0.9999380111694336
48	546.339164018631	pulse	0	t		46.0	2.5	/experiments/AOT/AOT_stimuli/rescaled_final/0736_rv.mp4	0.0	565.9250931739807	
48	547.1556158065796	movie	1		246	46.0	2.5	/experiments/AOT/AOT_stimuli/rescaled_final/0736_rv.mp4	0.0	566.7415449619293	2.499613046646118
48	547.9391498565674	pulse	1	t		46.0	2.5	/experiments/AOT/AOT_stimuli/rescaled_final/0736_rv.mp4	0.0	567.5250790119171	
48	549.5378317832947	pulse	1	t		46.0	2.5	/experiments/AOT/AOT_stimuli/rescaled_final/0736_rv.mp4	0.0	569.1237609386444	
48	549.6552288532257	fix_post	2		12	46.0	2.5	/experiments/AOT/AOT_stimuli/rescaled_final/0736_rv.mp4	0.0	569.2411580085754	0.10038900375366211
49	549.7556178569794	fix_pre	0		120	47.0	2.5	/experiments/AOT/AOT_stimuli/rescaled_final/1890_rv.mp4	0.0	569.3415470123291	1.000020980834961
49	550.7556388378143	movie	1		246	47.0	2.5	/experiments/AOT/AOT_stimuli/rescaled_final/1890_rv.mp4	0.0	570.3415679931641	2.4999430179595947
49	551.1387867927551	pulse	1	t		47.0	2.5	/experiments/AOT/AOT_stimuli/rescaled_final/1890_rv.mp4	0.0	570.7247159481049	
49	552.7391510009766	pulse	1	t		47.0	2.5	/experiments/AOT/AOT_stimuli/rescaled_final/1890_rv.mp4	0.0	572.3250801563263	
49	553.2555818557739	fix_post	2		12	47.0	2.5	/experiments/AOT/AOT_stimuli/rescaled_final/1890_rv.mp4	0.0	572.8415110111237	0.10001897811889648
50	553.3556008338928	fix_pre	0		119	48.0	2.5	blank	1.0	572.9415299892426	0.9916441440582275
50	554.3391728401184	pulse	0	t		48.0	2.5	blank	1.0	573.9251019954681	
50	554.347244977951	movie	1		301	48.0	2.5	blank	1.0	573.9331741333008	2.508409023284912
50	555.9391570091248	pulse	1	t		48.0	2.5	blank	1.0	575.5250861644745	
50	556.855654001236	fix_post	2		12	48.0	2.5	blank	1.0	576.4415831565857	0.09998393058776855
51	556.9556379318237	fix_pre	0		120	49.0	2.5	/experiments/AOT/AOT_stimuli/rescaled_final/1436_fw.mp4	0.0	576.5415670871735	0.9999780654907227
51	557.5390379428864	pulse	0	t		49.0	2.5	/experiments/AOT/AOT_stimuli/rescaled_final/1436_fw.mp4	0.0	577.1249670982361	
51	557.9556159973145	movie	1		244	49.0	2.5	/experiments/AOT/AOT_stimuli/rescaled_final/1436_fw.mp4	0.0	577.5415451526642	2.499955892562866
51	559.1391417980194	pulse	1	t		49.0	2.5	/experiments/AOT/AOT_stimuli/rescaled_final/1436_fw.mp4	0.0	578.7250709533691	
51	560.4555718898773	fix_post	2		12	49.0	2.5	/experiments/AOT/AOT_stimuli/rescaled_final/1436_fw.mp4	0.0	580.041501045227	0.10005903244018555
52	560.5556309223175	fix_pre	0		120	50.0	2.5	/experiments/AOT/AOT_stimuli/rescaled_final/1418_rv.mp4	0.0	580.1415600776672	1.0000839233398438
52	560.7391879558563	pulse	0	t		50.0	2.5	/experiments/AOT/AOT_stimuli/rescaled_final/1418_rv.mp4	0.0	580.325117111206	
52	561.5557148456573	movie	1		243	50.0	2.5	/experiments/AOT/AOT_stimuli/rescaled_final/1418_rv.mp4	0.0	581.1416440010071	2.4998481273651123
52	562.3391108512878	pulse	1	t		50.0	2.5	/experiments/AOT/AOT_stimuli/rescaled_final/1418_rv.mp4	0.0	581.9250400066376	
52	563.9376299381256	pulse	1	t		50.0	2.5	/experiments/AOT/AOT_stimuli/rescaled_final/1418_rv.mp4	0.0	583.5235590934753	
52	564.0555629730225	fix_post	2		12	50.0	2.5	/experiments/AOT/AOT_stimuli/rescaled_final/1418_rv.mp4	0.0	583.6414921283722	0.09997892379760742
53	564.1555418968201	fix_pre	0		120	51.0	2.5	/experiments/AOT/AOT_stimuli/rescaled_final/2140_fw.mp4	0.0	583.7414710521698	1.0000278949737549
53	565.1555697917938	movie	1		243	51.0	2.5	/experiments/AOT/AOT_stimuli/rescaled_final/2140_fw.mp4	0.0	584.7414989471436	2.5000100135803223
53	565.5390009880066	pulse	1	t		51.0	2.5	/experiments/AOT/AOT_stimuli/rescaled_final/2140_fw.mp4	0.0	585.1249301433563	
53	567.1390528678894	pulse	1	t		51.0	2.5	/experiments/AOT/AOT_stimuli/rescaled_final/2140_fw.mp4	0.0	586.7249820232391	
53	567.6555798053741	fix_post	2		12	51.0	2.5	/experiments/AOT/AOT_stimuli/rescaled_final/2140_fw.mp4	0.0	587.2415089607239	0.09994316101074219
54	567.7555229663849	fix_pre	0		119	52.0	2.5	/experiments/AOT/AOT_stimuli/rescaled_final/1976_rv.mp4	0.0	587.3414521217346	0.9918079376220703
54	568.7391200065613	pulse	0	t		52.0	2.5	/experiments/AOT/AOT_stimuli/rescaled_final/1976_rv.mp4	0.0	588.325049161911	
54	568.747330904007	movie	1		244	52.0	2.5	/experiments/AOT/AOT_stimuli/rescaled_final/1976_rv.mp4	0.0	588.3332600593567	2.507807970046997
54	570.340399980545	pulse	1	t		52.0	2.5	/experiments/AOT/AOT_stimuli/rescaled_final/1976_rv.mp4	0.0	589.9263291358948	
54	571.255138874054	fix_post	2		12	52.0	2.5	/experiments/AOT/AOT_stimuli/rescaled_final/1976_rv.mp4	0.0	590.8410680294037	0.10034704208374023
55	571.3554859161377	fix_pre	0		120	53.0	2.5	/experiments/AOT/AOT_stimuli/rescaled_final/1674_rv.mp4	0.0	590.9414150714874	1.0000450611114502
55	571.9389979839325	pulse	0	t		53.0	2.5	/experiments/AOT/AOT_stimuli/rescaled_final/1674_rv.mp4	0.0	591.5249271392822	
55	572.3555309772491	movie	1		243	53.0	2.5	/experiments/AOT/AOT_stimuli/rescaled_final/1674_rv.mp4	0.0	591.9414601325989	2.5000388622283936
55	573.5390717983246	pulse	1	t		53.0	2.5	/experiments/AOT/AOT_stimuli/rescaled_final/1674_rv.mp4	0.0	593.1250009536743	
55	574.8555698394775	fix_post	2		12	53.0	2.5	/experiments/AOT/AOT_stimuli/rescaled_final/1674_rv.mp4	0.0	594.4414989948273	0.09954500198364258
56	574.9551148414612	fix_pre	0		120	54.0	2.5	/experiments/AOT/AOT_stimuli/rescaled_final/0394_fw.mp4	0.0	594.5410439968109	1.0000920295715332
56	575.1386368274689	pulse	0	t		54.0	2.5	/experiments/AOT/AOT_stimuli/rescaled_final/0394_fw.mp4	0.0	594.7245659828186	
56	575.9552068710327	movie	1		245	54.0	2.5	/experiments/AOT/AOT_stimuli/rescaled_final/0394_fw.mp4	0.0	595.5411360263824	2.500401020050049
56	576.7387068271637	pulse	1	t		54.0	2.5	/experiments/AOT/AOT_stimuli/rescaled_final/0394_fw.mp4	0.0	596.3246359825134	
56	578.3375599384308	pulse	1	t		54.0	2.5	/experiments/AOT/AOT_stimuli/rescaled_final/0394_fw.mp4	0.0	597.9234890937805	
56	578.4556078910828	fix_post	2		12	54.0	2.5	/experiments/AOT/AOT_stimuli/rescaled_final/0394_fw.mp4	0.0	598.0415370464325	0.10001897811889648
57	578.5556268692017	fix_pre	0		120	55.0	2.5	/experiments/AOT/AOT_stimuli/rescaled_final/0924_fw.mp4	0.0	598.1415560245514	0.9999370574951172
57	579.5555639266968	movie	1		243	55.0	2.5	/experiments/AOT/AOT_stimuli/rescaled_final/0924_fw.mp4	0.0	599.1414930820465	2.499959945678711
57	579.9386658668518	pulse	1	t		55.0	2.5	/experiments/AOT/AOT_stimuli/rescaled_final/0924_fw.mp4	0.0	599.5245950222015	
57	581.5389769077301	pulse	1	t		55.0	2.5	/experiments/AOT/AOT_stimuli/rescaled_final/0924_fw.mp4	0.0	601.1249060630798	
57	582.0555238723755	fix_post	2		12	55.0	2.5	/experiments/AOT/AOT_stimuli/rescaled_final/0924_fw.mp4	0.0	601.6414530277252	0.10005402565002441
58	582.1555778980255	fix_pre	0		119	56.0	2.5	blank	1.0	601.7415070533752	0.9916050434112549
58	583.1390089988708	pulse	0	t		56.0	2.5	blank	1.0	602.7249381542206	
58	583.1471829414368	movie	1		301	56.0	2.5	blank	1.0	602.7331120967865	2.508297920227051
58	584.7389829158783	pulse	1	t		56.0	2.5	blank	1.0	604.324912071228	
58	585.6554808616638	fix_post	2		12	56.0	2.5	blank	1.0	605.2414100170135	0.10003805160522461
59	585.755518913269	fix_pre	0		120	57.0	2.5	/experiments/AOT/AOT_stimuli/rescaled_final/0614_rv.mp4	0.0	605.3414480686188	0.9999570846557617
59	586.338987827301	pulse	0	t		57.0	2.5	/experiments/AOT/AOT_stimuli/rescaled_final/0614_rv.mp4	0.0	605.9249169826508	
59	586.7554759979248	movie	1		243	57.0	2.5	/experiments/AOT/AOT_stimuli/rescaled_final/0614_rv.mp4	0.0	606.3414051532745	2.5000228881835938
59	587.9390540122986	pulse	1	t		57.0	2.5	/experiments/AOT/AOT_stimuli/rescaled_final/0614_rv.mp4	0.0	607.5249831676483	
59	589.2554988861084	fix_post	2		12	57.0	2.5	/experiments/AOT/AOT_stimuli/rescaled_final/0614_rv.mp4	0.0	608.8414280414581	0.09997797012329102
60	589.3554768562317	fix_pre	0		120	58.0	2.5	/experiments/AOT/AOT_stimuli/rescaled_final/0204_fw.mp4	0.0	608.9414060115814	0.9999451637268066
60	589.5389399528503	pulse	0	t		58.0	2.5	/experiments/AOT/AOT_stimuli/rescaled_final/0204_fw.mp4	0.0	609.1248691082001	
60	590.3554220199585	movie	1		243	58.0	2.5	/experiments/AOT/AOT_stimuli/rescaled_final/0204_fw.mp4	0.0	609.9413511753082	2.4999887943267822
60	591.1389198303223	pulse	1	t		58.0	2.5	/experiments/AOT/AOT_stimuli/rescaled_final/0204_fw.mp4	0.0	610.724848985672	
60	592.7473838329315	pulse	1	t		58.0	2.5	/experiments/AOT/AOT_stimuli/rescaled_final/0204_fw.mp4	0.0	612.3333129882812	
60	592.8554108142853	fix_post	2		12	58.0	2.5	/experiments/AOT/AOT_stimuli/rescaled_final/0204_fw.mp4	0.0	612.441339969635	0.100067138671875
61	592.9554779529572	fix_pre	0		120	59.0	2.5	/experiments/AOT/AOT_stimuli/rescaled_final/2140_rv.mp4	0.0	612.5414071083069	0.9998979568481445
61	593.9553759098053	movie	1		244	59.0	2.5	/experiments/AOT/AOT_stimuli/rescaled_final/2140_rv.mp4	0.0	613.541305065155	2.500113010406494
61	594.3384258747101	pulse	1	t		59.0	2.5	/experiments/AOT/AOT_stimuli/rescaled_final/2140_rv.mp4	0.0	613.9243550300598	
61	595.9388790130615	pulse	1	t		59.0	2.5	/experiments/AOT/AOT_stimuli/rescaled_final/2140_rv.mp4	0.0	615.5248081684113	
61	596.4554889202118	fix_post	2		12	59.0	2.5	/experiments/AOT/AOT_stimuli/rescaled_final/2140_rv.mp4	0.0	616.0414180755615	0.09995508193969727
62	596.5554440021515	fix_pre	0		119	60.0	2.5	/experiments/AOT/AOT_stimuli/rescaled_final/1758_fw.mp4	0.0	616.1413731575012	0.9916749000549316
62	597.5389358997345	pulse	0	t		60.0	2.5	/experiments/AOT/AOT_stimuli/rescaled_final/1758_fw.mp4	0.0	617.1248650550842	
62	597.5471189022064	movie	1		246	60.0	2.5	/experiments/AOT/AOT_stimuli/rescaled_final/1758_fw.mp4	0.0	617.1330480575562	2.508404016494751
62	599.1385209560394	pulse	1	t		60.0	2.5	/experiments/AOT/AOT_stimuli/rescaled_final/1758_fw.mp4	0.0	618.7244501113892	
62	600.0555229187012	fix_post	2		12	60.0	2.5	/experiments/AOT/AOT_stimuli/rescaled_final/1758_fw.mp4	0.0	619.6414520740509	0.09990787506103516
63	600.1554307937622	fix_pre	0		120	61.0	2.5	/experiments/AOT/AOT_stimuli/rescaled_final/1811_rv.mp4	0.0	619.7413599491119	0.9999821186065674
63	600.7388849258423	pulse	0	t		61.0	2.5	/experiments/AOT/AOT_stimuli/rescaled_final/1811_rv.mp4	0.0	620.324814081192	
63	601.1554129123688	movie	1		243	61.0	2.5	/experiments/AOT/AOT_stimuli/rescaled_final/1811_rv.mp4	0.0	620.7413420677185	2.499950885772705
63	602.3389728069305	pulse	1	t		61.0	2.5	/experiments/AOT/AOT_stimuli/rescaled_final/1811_rv.mp4	0.0	621.9249019622803	
63	603.6553637981415	fix_post	2		12	61.0	2.5	/experiments/AOT/AOT_stimuli/rescaled_final/1811_rv.mp4	0.0	623.2412929534912	0.10012602806091309
64	603.7554898262024	fix_pre	0		120	62.0	2.5	blank	1.0	623.3414189815521	0.9998621940612793
64	603.9388518333435	pulse	0	t		62.0	2.5	blank	1.0	623.5247809886932	
64	604.7553520202637	movie	1		300	62.0	2.5	blank	1.0	624.3412811756134	2.50014591217041
64	605.5388169288635	pulse	1	t		62.0	2.5	blank	1.0	625.1247460842133	
64	607.1387429237366	pulse	1	t		62.0	2.5	blank	1.0	626.7246720790863	
64	607.2554979324341	fix_post	2		12	62.0	2.5	blank	1.0	626.8414270877838	0.09996199607849121
65	607.3554599285126	fix_pre	0		120	63.0	2.5	/experiments/AOT/AOT_stimuli/rescaled_final/1367_rv.mp4	0.0	626.9413890838623	0.9999680519104004
65	608.355427980423	movie	1		242	63.0	2.5	/experiments/AOT/AOT_stimuli/rescaled_final/1367_rv.mp4	0.0	627.9413571357727	2.500058889389038
65	608.7389879226685	pulse	1	t		63.0	2.5	/experiments/AOT/AOT_stimuli/rescaled_final/1367_rv.mp4	0.0	628.3249170780182	
65	610.3388288021088	pulse	1	t		63.0	2.5	/experiments/AOT/AOT_stimuli/rescaled_final/1367_rv.mp4	0.0	629.9247579574585	
65	610.855486869812	fix_post	2		12	63.0	2.5	/experiments/AOT/AOT_stimuli/rescaled_final/1367_rv.mp4	0.0	630.4414160251617	0.09989404678344727
66	610.9553809165955	fix_pre	0		119	64.0	2.5	/experiments/AOT/AOT_stimuli/rescaled_final/1038_rv.mp4	0.0	630.5413100719452	0.9916620254516602
66	611.9389708042145	pulse	0	t		64.0	2.5	/experiments/AOT/AOT_stimuli/rescaled_final/1038_rv.mp4	0.0	631.5248999595642	
66	611.9470429420471	movie	1		245	64.0	2.5	/experiments/AOT/AOT_stimuli/rescaled_final/1038_rv.mp4	0.0	631.5329720973969	2.508327007293701
66	613.5390748977661	pulse	1	t		64.0	2.5	/experiments/AOT/AOT_stimuli/rescaled_final/1038_rv.mp4	0.0	633.1250040531158	
66	614.4553699493408	fix_post	2		12	64.0	2.5	/experiments/AOT/AOT_stimuli/rescaled_final/1038_rv.mp4	0.0	634.0412991046906	0.10002684593200684
67	614.5553967952728	fix_pre	0		120	65.0	2.5	/experiments/AOT/AOT_stimuli/rescaled_final/0571_rv.mp4	0.0	634.1413259506226	1.0000331401824951
67	615.1389338970184	pulse	0	t		65.0	2.5	/experiments/AOT/AOT_stimuli/rescaled_final/0571_rv.mp4	0.0	634.7248630523682	
67	615.5554299354553	movie	1		245	65.0	2.5	/experiments/AOT/AOT_stimuli/rescaled_final/0571_rv.mp4	0.0	635.141359090805	2.499459981918335
67	616.738960981369	pulse	1	t		65.0	2.5	/experiments/AOT/AOT_stimuli/rescaled_final/0571_rv.mp4	0.0	636.3248901367188	
67	618.0548899173737	fix_post	2		12	65.0	2.5	/experiments/AOT/AOT_stimuli/rescaled_final/0571_rv.mp4	0.0	637.6408190727234	0.10040593147277832
68	618.1552958488464	fix_pre	0		120	66.0	2.5	/experiments/AOT/AOT_stimuli/rescaled_final/1368_fw.mp4	0.0	637.7412250041962	1.0
68	618.3389108181	pulse	0	t		66.0	2.5	/experiments/AOT/AOT_stimuli/rescaled_final/1368_fw.mp4	0.0	637.9248399734497	
68	619.1552958488464	movie	1		242	66.0	2.5	/experiments/AOT/AOT_stimuli/rescaled_final/1368_fw.mp4	0.0	638.7412250041962	2.5000369548797607
68	619.9387547969818	pulse	1	t		66.0	2.5	/experiments/AOT/AOT_stimuli/rescaled_final/1368_fw.mp4	0.0	639.5246839523315	
68	621.5472128391266	pulse	1	t		66.0	2.5	/experiments/AOT/AOT_stimuli/rescaled_final/1368_fw.mp4	0.0	641.1331419944763	
68	621.6553328037262	fix_post	2		12	66.0	2.5	/experiments/AOT/AOT_stimuli/rescaled_final/1368_fw.mp4	0.0	641.2412619590759	0.09998321533203125
69	621.7553160190582	fix_pre	0		120	67.0	2.5	/experiments/AOT/AOT_stimuli/rescaled_final/1524_rv.mp4	0.0	641.341245174408	1.0000388622283936
69	622.7553548812866	movie	1		242	67.0	2.5	/experiments/AOT/AOT_stimuli/rescaled_final/1524_rv.mp4	0.0	642.3412840366364	2.4999821186065674
69	623.1385200023651	pulse	1	t		67.0	2.5	/experiments/AOT/AOT_stimuli/rescaled_final/1524_rv.mp4	0.0	642.7244491577148	
69	624.7388010025024	pulse	1	t		67.0	2.5	/experiments/AOT/AOT_stimuli/rescaled_final/1524_rv.mp4	0.0	644.3247301578522	
69	625.2553369998932	fix_post	2		12	67.0	2.5	/experiments/AOT/AOT_stimuli/rescaled_final/1524_rv.mp4	0.0	644.8412661552429	0.09993982315063477
70	625.3552768230438	fix_pre	0		119	68.0	2.5	blank	1.0	644.9412059783936	0.9917731285095215
70	626.3387589454651	pulse	0	t		68.0	2.5	blank	1.0	645.9246881008148	
70	626.3470499515533	movie	1		301	68.0	2.5	blank	1.0	645.9329791069031	2.508254051208496
70	627.9387619495392	pulse	1	t		68.0	2.5	blank	1.0	647.5246911048889	
70	628.8553040027618	fix_post	2		12	68.0	2.5	blank	1.0	648.4412331581116	0.1000368595123291
71	628.9553408622742	fix_pre	0		120	69.0	2.5	/experiments/AOT/AOT_stimuli/rescaled_final/1100_rv.mp4	0.0	648.5412700176239	0.9999620914459229
71	629.5387217998505	pulse	0	t		69.0	2.5	/experiments/AOT/AOT_stimuli/rescaled_final/1100_rv.mp4	0.0	649.1246509552002	
71	629.9553029537201	movie	1		243	69.0	2.5	/experiments/AOT/AOT_stimuli/rescaled_final/1100_rv.mp4	0.0	649.5412321090698	2.4997520446777344
71	631.1384618282318	pulse	1	t		69.0	2.5	/experiments/AOT/AOT_stimuli/rescaled_final/1100_rv.mp4	0.0	650.7243909835815	
71	632.4550549983978	fix_post	2		12	69.0	2.5	/experiments/AOT/AOT_stimuli/rescaled_final/1100_rv.mp4	0.0	652.0409841537476	0.10000991821289062
72	632.5550649166107	fix_pre	0		120	70.0	2.5	/experiments/AOT/AOT_stimuli/rescaled_final/0725_rv.mp4	0.0	652.1409940719604	1.0001590251922607
72	632.7385289669037	pulse	0	t		70.0	2.5	/experiments/AOT/AOT_stimuli/rescaled_final/0725_rv.mp4	0.0	652.3244581222534	
72	633.555223941803	movie	1		245	70.0	2.5	/experiments/AOT/AOT_stimuli/rescaled_final/0725_rv.mp4	0.0	653.1411530971527	2.499985933303833
72	634.3387749195099	pulse	1	t		70.0	2.5	/experiments/AOT/AOT_stimuli/rescaled_final/0725_rv.mp4	0.0	653.9247040748596	
72	635.9387588500977	pulse	1	t		70.0	2.5	/experiments/AOT/AOT_stimuli/rescaled_final/0725_rv.mp4	0.0	655.5246880054474	
72	636.0552098751068	fix_post	2		12	70.0	2.5	/experiments/AOT/AOT_stimuli/rescaled_final/0725_rv.mp4	0.0	655.6411390304565	0.1000831127166748
73	636.1552929878235	fix_pre	0		120	71.0	2.5	/experiments/AOT/AOT_stimuli/rescaled_final/1884_rv.mp4	0.0	655.7412221431732	0.9999418258666992
73	637.1552348136902	movie	1		245	71.0	2.5	/experiments/AOT/AOT_stimuli/rescaled_final/1884_rv.mp4	0.0	656.7411639690399	2.49996018409729
73	637.5385398864746	pulse	1	t		71.0	2.5	/experiments/AOT/AOT_stimuli/rescaled_final/1884_rv.mp4	0.0	657.1244690418243	
73	639.1386268138885	pulse	1	t		71.0	2.5	/experiments/AOT/AOT_stimuli/rescaled_final/1884_rv.mp4	0.0	658.7245559692383	
73	639.6551949977875	fix_post	2		12	71.0	2.5	/experiments/AOT/AOT_stimuli/rescaled_final/1884_rv.mp4	0.0	659.2411241531372	0.0999448299407959
74	639.7551398277283	fix_pre	0		119	72.0	2.5	/experiments/AOT/AOT_stimuli/rescaled_final/1404_fw.mp4	0.0	659.341068983078	0.9917240142822266
74	640.7387478351593	pulse	0	t		72.0	2.5	/experiments/AOT/AOT_stimuli/rescaled_final/1404_fw.mp4	0.0	660.324676990509	
74	640.7468638420105	movie	1		246	72.0	2.5	/experiments/AOT/AOT_stimuli/rescaled_final/1404_fw.mp4	0.0	660.3327929973602	2.5083069801330566
74	642.3385148048401	pulse	1	t		72.0	2.5	/experiments/AOT/AOT_stimuli/rescaled_final/1404_fw.mp4	0.0	661.9244439601898	
74	643.2551708221436	fix_post	2		12	72.0	2.5	/experiments/AOT/AOT_stimuli/rescaled_final/1404_fw.mp4	0.0	662.8410999774933	0.10004901885986328
75	643.3552198410034	fix_pre	0		120	73.0	2.5	/experiments/AOT/AOT_stimuli/rescaled_final/0417_rv.mp4	0.0	662.9411489963531	0.9999690055847168
75	643.9386339187622	pulse	0	t		73.0	2.5	/experiments/AOT/AOT_stimuli/rescaled_final/0417_rv.mp4	0.0	663.5245630741119	
75	644.3551888465881	movie	1		245	73.0	2.5	/experiments/AOT/AOT_stimuli/rescaled_final/0417_rv.mp4	0.0	663.9411180019379	2.500249147415161
75	645.5387289524078	pulse	1	t		73.0	2.5	/experiments/AOT/AOT_stimuli/rescaled_final/0417_rv.mp4	0.0	665.1246581077576	
75	646.8554379940033	fix_post	2		12	73.0	2.5	/experiments/AOT/AOT_stimuli/rescaled_final/0417_rv.mp4	0.0	666.441367149353	0.09972882270812988
76	646.9551668167114	fix_pre	0		120	74.0	2.5	/experiments/AOT/AOT_stimuli/rescaled_final/1674_rv.mp4	0.0	666.5410959720612	1.0000200271606445
76	647.1386168003082	pulse	0	t		74.0	2.5	/experiments/AOT/AOT_stimuli/rescaled_final/1674_rv.mp4	0.0	666.724545955658	
76	647.9551868438721	movie	1		242	74.0	2.5	/experiments/AOT/AOT_stimuli/rescaled_final/1674_rv.mp4	0.0	667.5411159992218	2.5000641345977783
76	648.7386598587036	pulse	1	t		74.0	2.5	/experiments/AOT/AOT_stimuli/rescaled_final/1674_rv.mp4	0.0	668.3245890140533	
76	650.3470249176025	pulse	1	t		74.0	2.5	/experiments/AOT/AOT_stimuli/rescaled_final/1674_rv.mp4	0.0	669.9329540729523	
76	650.4552509784698	fix_post	2		12	74.0	2.5	/experiments/AOT/AOT_stimuli/rescaled_final/1674_rv.mp4	0.0	670.0411801338196	0.09991192817687988
77	650.5551629066467	fix_pre	0		120	75.0	2.5	/experiments/AOT/AOT_stimuli/rescaled_final/0348_rv.mp4	0.0	670.1410920619965	1.000011920928955
77	651.5551748275757	movie	1		242	75.0	2.5	/experiments/AOT/AOT_stimuli/rescaled_final/0348_rv.mp4	0.0	671.1411039829254	2.4999911785125732
77	651.9383428096771	pulse	1	t		75.0	2.5	/experiments/AOT/AOT_stimuli/rescaled_final/0348_rv.mp4	0.0	671.5242719650269	
77	653.5387189388275	pulse	1	t		75.0	2.5	/experiments/AOT/AOT_stimuli/rescaled_final/0348_rv.mp4	0.0	673.1246480941772	
77	654.0551660060883	fix_post	2		12	75.0	2.5	/experiments/AOT/AOT_stimuli/rescaled_final/0348_rv.mp4	0.0	673.641095161438	0.09997391700744629
78	654.1551399230957	fix_pre	0		119	76.0	2.5	blank	1.0	673.7410690784454	0.9915928840637207
78	655.1386938095093	pulse	0	t		76.0	2.5	blank	1.0	674.724622964859	
78	655.1467328071594	movie	1		301	76.0	2.5	blank	1.0	674.7326619625092	2.508411169052124
78	656.7386858463287	pulse	1	t		76.0	2.5	blank	1.0	676.3246150016785	
78	657.6551439762115	fix_post	2		12	76.0	2.5	blank	1.0	677.2410731315613	0.10004091262817383
79	657.7551848888397	fix_pre	0		120	77.0	2.5	/experiments/AOT/AOT_stimuli/rescaled_final/1302_rv.mp4	0.0	677.3411140441895	0.9999809265136719
79	658.3385188579559	pulse	0	t		77.0	2.5	/experiments/AOT/AOT_stimuli/rescaled_final/1302_rv.mp4	0.0	677.9244480133057	
79	658.7551658153534	movie	1		244	77.0	2.5	/experiments/AOT/AOT_stimuli/rescaled_final/1302_rv.mp4	0.0	678.3410949707031	2.5000619888305664
79	659.9386878013611	pulse	1	t		77.0	2.5	/experiments/AOT/AOT_stimuli/rescaled_final/1302_rv.mp4	0.0	679.5246169567108	
79	661.255227804184	fix_post	2		12	77.0	2.5	/experiments/AOT/AOT_stimuli/rescaled_final/1302_rv.mp4	0.0	680.8411569595337	0.0999000072479248
80	661.3551278114319	fix_pre	0		120	78.0	2.5	/experiments/AOT/AOT_stimuli/rescaled_final/0646_rv.mp4	0.0	680.9410569667816	1.0001370906829834
80	661.5386409759521	pulse	0	t		78.0	2.5	/experiments/AOT/AOT_stimuli/rescaled_final/0646_rv.mp4	0.0	681.1245701313019	
80	662.3552649021149	movie	1		246	78.0	2.5	/experiments/AOT/AOT_stimuli/rescaled_final/0646_rv.mp4	0.0	681.9411940574646	2.4999189376831055
80	663.1386399269104	pulse	1	t		78.0	2.5	/experiments/AOT/AOT_stimuli/rescaled_final/0646_rv.mp4	0.0	682.7245690822601	
80	664.7381179332733	pulse	1	t		78.0	2.5	/experiments/AOT/AOT_stimuli/rescaled_final/0646_rv.mp4	0.0	684.324047088623	
80	664.855183839798	fix_post	2		12	78.0	2.5	/experiments/AOT/AOT_stimuli/rescaled_final/0646_rv.mp4	0.0	684.4411129951477	0.09993696212768555
81	664.9551208019257	fix_pre	0		120	79.0	2.5	/experiments/AOT/AOT_stimuli/rescaled_final/1245_fw.mp4	0.0	684.5410499572754	1.000049114227295
81	665.955169916153	movie	1		242	79.0	2.5	/experiments/AOT/AOT_stimuli/rescaled_final/1245_fw.mp4	0.0	685.5410990715027	2.4999449253082275
81	666.3381869792938	pulse	1	t		79.0	2.5	/experiments/AOT/AOT_stimuli/rescaled_final/1245_fw.mp4	0.0	685.9241161346436	
81	667.938668012619	pulse	1	t		79.0	2.5	/experiments/AOT/AOT_stimuli/rescaled_final/1245_fw.mp4	0.0	687.5245971679688	
81	668.4551148414612	fix_post	2		12	79.0	2.5	/experiments/AOT/AOT_stimuli/rescaled_final/1245_fw.mp4	0.0	688.0410439968109	0.10005307197570801
82	668.5551679134369	fix_pre	0		119	80.0	2.5	/experiments/AOT/AOT_stimuli/rescaled_final/1818_rv.mp4	0.0	688.1410970687866	0.9915809631347656
82	669.5386278629303	pulse	0	t		80.0	2.5	/experiments/AOT/AOT_stimuli/rescaled_final/1818_rv.mp4	0.0	689.12455701828	
82	669.5467488765717	movie	1		243	80.0	2.5	/experiments/AOT/AOT_stimuli/rescaled_final/1818_rv.mp4	0.0	689.1326780319214	2.5083420276641846
82	671.1387269496918	pulse	1	t		80.0	2.5	/experiments/AOT/AOT_stimuli/rescaled_final/1818_rv.mp4	0.0	690.7246561050415	
82	672.0550909042358	fix_post	2		12	80.0	2.5	/experiments/AOT/AOT_stimuli/rescaled_final/1818_rv.mp4	0.0	691.6410200595856	0.1000831127166748
83	672.1551740169525	fix_pre	0		120	81.0	2.5	/experiments/AOT/AOT_stimuli/rescaled_final/0707_fw.mp4	0.0	691.7411031723022	0.9999308586120605
83	672.7386019229889	pulse	0	t		81.0	2.5	/experiments/AOT/AOT_stimuli/rescaled_final/0707_fw.mp4	0.0	692.3245310783386	
83	673.1551048755646	movie	1		243	81.0	2.5	/experiments/AOT/AOT_stimuli/rescaled_final/0707_fw.mp4	0.0	692.7410340309143	2.4999001026153564
83	674.3385608196259	pulse	1	t		81.0	2.5	/experiments/AOT/AOT_stimuli/rescaled_final/0707_fw.mp4	0.0	693.9244899749756	
83	675.6550049781799	fix_post	2		12	81.0	2.5	/experiments/AOT/AOT_stimuli/rescaled_final/0707_fw.mp4	0.0	695.2409341335297	0.10000085830688477
84	675.7550058364868	fix_pre	0		120	82.0	2.5	blank	1.0	695.3409349918365	1.000049114227295
84	675.938533782959	pulse	0	t		82.0	2.5	blank	1.0	695.5244629383087	
84	676.7550549507141	movie	1		300	82.0	2.5	blank	1.0	696.3409841060638	2.4999630451202393
84	677.5384948253632	pulse	1	t		82.0	2.5	blank	1.0	697.1244239807129	
84	679.1385889053345	pulse	1	t		82.0	2.5	blank	1.0	698.7245180606842	
84	679.2550179958344	fix_post	2		12	82.0	2.5	blank	1.0	698.8409471511841	0.09995698928833008
85	679.3549749851227	fix_pre	0		120	83.0	2.5	/experiments/AOT/AOT_stimuli/rescaled_final/1409_fw.mp4	0.0	698.9409041404724	1.000053882598877
85	680.3550288677216	movie	1		243	83.0	2.5	/experiments/AOT/AOT_stimuli/rescaled_final/1409_fw.mp4	0.0	699.9409580230713	2.499948024749756
85	680.7468798160553	pulse	1	t		83.0	2.5	/experiments/AOT/AOT_stimuli/rescaled_final/1409_fw.mp4	0.0	700.332808971405	
85	682.3385109901428	pulse	1	t		83.0	2.5	/experiments/AOT/AOT_stimuli/rescaled_final/1409_fw.mp4	0.0	701.9244401454926	
85	682.8549768924713	fix_post	2		12	83.0	2.5	/experiments/AOT/AOT_stimuli/rescaled_final/1409_fw.mp4	0.0	702.440906047821	0.10019397735595703
87	682.9551708698273	stim	0		1716					702.541100025177	14.299796104431152
87	683.9386539459229	pulse	0	t						703.5245831012726	
87	685.5385549068451	pulse	0	t						705.1244840621948	
87	687.1381199359894	pulse	0	t						706.7240490913391	
87	688.7387979030609	pulse	0	t						708.3247270584106	
87	690.3385148048401	pulse	0	t						709.9244439601898	
87	691.9384038448334	pulse	0	t						711.5243330001831	
87	693.5383999347687	pulse	0	t						713.1243290901184	
87	695.1383428573608	pulse	0	t						714.7242720127106	
87	696.7384159564972	pulse	0	t						716.3243451118469	
