trial_nr	onset	event_type	phase	response	nr_frames	movie_index	movie_duration	movie_file	blank	onset_abs	duration
0	0.20825600624084473	stim	0		230					23.690921783447266	1.9168999195098877
0	2.117034912109375	response	0	space						25.599700689315796	
1	2.1251559257507324	stim	0		4635					25.607821702957153	38.6400580406189
1	40.755300998687744	pulse	0	t						64.23796677589417	
1	40.76521396636963	stim	1		1715					64.24787974357605	14.301237106323242
1	42.348044872283936	pulse	1	t						65.83071064949036	
1	43.94832992553711	pulse	1	t						67.43099570274353	
1	45.548593044281006	pulse	1	t						69.03125882148743	
1	47.1487238407135	pulse	1	t						70.63138961791992	
1	48.74908399581909	pulse	1	t						72.23174977302551	
1	50.349276065826416	pulse	1	t						73.83194184303284	
1	51.9494788646698	pulse	1	t						75.43214464187622	
1	53.54969096183777	pulse	1	t						77.03235673904419	
2	55.06645107269287	fix_pre	0		11	0.0	2.5	/experiments/knapen_AOT/AOT_stimuli/rescaled_final/1364_rv.mp4	0.0	78.54911684989929	0.09165787696838379
2	55.14993405342102	pulse	0	t		0.0	2.5	/experiments/knapen_AOT/AOT_stimuli/rescaled_final/1364_rv.mp4	0.0	78.63259983062744	
2	55.158108949661255	movie	1		244	0.0	2.5	/experiments/knapen_AOT/AOT_stimuli/rescaled_final/1364_rv.mp4	0.0	78.64077472686768	2.508646011352539
2	56.75065994262695	pulse	1	t		0.0	2.5	/experiments/knapen_AOT/AOT_stimuli/rescaled_final/1364_rv.mp4	0.0	80.23332571983337	
2	57.666754961013794	fix_post	2		12	0.0	2.5	/experiments/knapen_AOT/AOT_stimuli/rescaled_final/1364_rv.mp4	0.0	81.14942073822021	0.10006594657897949
3	57.76682090759277	fix_pre	0		120	1.0	2.5	/experiments/knapen_AOT/AOT_stimuli/rescaled_final/1339_fw.mp4	0.0	81.2494866847992	1.0001399517059326
3	58.35052800178528	pulse	0	t		1.0	2.5	/experiments/knapen_AOT/AOT_stimuli/rescaled_final/1339_fw.mp4	0.0	81.8331937789917	
3	58.766960859298706	movie	1		244	1.0	2.5	/experiments/knapen_AOT/AOT_stimuli/rescaled_final/1339_fw.mp4	0.0	82.24962663650513	2.500368118286133
3	59.95078802108765	pulse	1	t		1.0	2.5	/experiments/knapen_AOT/AOT_stimuli/rescaled_final/1339_fw.mp4	0.0	83.43345379829407	
3	61.26732897758484	fix_post	2		12	1.0	2.5	/experiments/knapen_AOT/AOT_stimuli/rescaled_final/1339_fw.mp4	0.0	84.74999475479126	0.10003304481506348
4	61.3673620223999	fix_pre	0		120	2.0	2.5	/experiments/knapen_AOT/AOT_stimuli/rescaled_final/0562_fw.mp4	0.0	84.85002779960632	1.0001380443572998
4	61.5508759021759	pulse	0	t		2.0	2.5	/experiments/knapen_AOT/AOT_stimuli/rescaled_final/0562_fw.mp4	0.0	85.03354167938232	
4	62.3675000667572	movie	1		243	2.0	2.5	/experiments/knapen_AOT/AOT_stimuli/rescaled_final/0562_fw.mp4	0.0	85.85016584396362	2.5003578662872314
4	63.15124988555908	pulse	1	t		2.0	2.5	/experiments/knapen_AOT/AOT_stimuli/rescaled_final/0562_fw.mp4	0.0	86.6339156627655	
4	64.75125098228455	pulse	1	t		2.0	2.5	/experiments/knapen_AOT/AOT_stimuli/rescaled_final/0562_fw.mp4	0.0	88.23391675949097	
4	64.86785793304443	fix_post	2		12	2.0	2.5	/experiments/knapen_AOT/AOT_stimuli/rescaled_final/0562_fw.mp4	0.0	88.35052371025085	0.10000991821289062
5	64.96786785125732	fix_pre	0		119	3.0	2.5	/experiments/knapen_AOT/AOT_stimuli/rescaled_final/1970_rv.mp4	0.0	88.45053362846375	0.9918181896209717
5	65.9596860408783	movie	1		245	3.0	2.5	/experiments/knapen_AOT/AOT_stimuli/rescaled_final/1970_rv.mp4	0.0	89.44235181808472	2.5004608631134033
5	66.35181093215942	pulse	1	t		3.0	2.5	/experiments/knapen_AOT/AOT_stimuli/rescaled_final/1970_rv.mp4	0.0	89.83447670936584	
5	67.95179796218872	pulse	1	t		3.0	2.5	/experiments/knapen_AOT/AOT_stimuli/rescaled_final/1970_rv.mp4	0.0	91.43446373939514	
5	68.4601469039917	fix_post	2		12	3.0	2.5	/experiments/knapen_AOT/AOT_stimuli/rescaled_final/1970_rv.mp4	0.0	91.94281268119812	0.0999150276184082
6	68.56006193161011	fix_pre	0		120	4.0	2.5	/experiments/knapen_AOT/AOT_stimuli/rescaled_final/1230_rv.mp4	0.0	92.04272770881653	1.0001931190490723
6	69.55207705497742	pulse	0	t		4.0	2.5	/experiments/knapen_AOT/AOT_stimuli/rescaled_final/1230_rv.mp4	0.0	93.03474283218384	
6	69.56025505065918	movie	1		246	4.0	2.5	/experiments/knapen_AOT/AOT_stimuli/rescaled_final/1230_rv.mp4	0.0	93.0429208278656	2.5086658000946045
6	71.15349292755127	pulse	1	t		4.0	2.5	/experiments/knapen_AOT/AOT_stimuli/rescaled_final/1230_rv.mp4	0.0	94.63615870475769	
6	72.06892085075378	fix_post	2		12	4.0	2.5	/experiments/knapen_AOT/AOT_stimuli/rescaled_final/1230_rv.mp4	0.0	95.5515866279602	0.10005903244018555
7	72.16897988319397	fix_pre	0		120	5.0	2.5	blank	1.0	95.65164566040039	1.0001189708709717
7	72.74503087997437	pulse	0	t		5.0	2.5	blank	1.0	96.22769665718079	
7	73.16909885406494	movie	1		300	5.0	2.5	blank	1.0	96.65176463127136	2.500408172607422
7	74.34536600112915	pulse	1	t		5.0	2.5	blank	1.0	97.82803177833557	
7	75.66950702667236	fix_post	2		12	5.0	2.5	blank	1.0	99.15217280387878	0.09999203681945801
8	75.76949906349182	fix_pre	0		120	6.0	2.5	/experiments/knapen_AOT/AOT_stimuli/rescaled_final/0224_rv.mp4	0.0	99.25216484069824	1.0001308917999268
8	75.94560503959656	pulse	0	t		6.0	2.5	/experiments/knapen_AOT/AOT_stimuli/rescaled_final/0224_rv.mp4	0.0	99.42827081680298	
8	76.76962995529175	movie	1		244	6.0	2.5	/experiments/knapen_AOT/AOT_stimuli/rescaled_final/0224_rv.mp4	0.0	100.25229573249817	2.50034499168396
8	77.54582905769348	pulse	1	t		6.0	2.5	/experiments/knapen_AOT/AOT_stimuli/rescaled_final/0224_rv.mp4	0.0	101.0284948348999	
8	79.14531993865967	pulse	1	t		6.0	2.5	/experiments/knapen_AOT/AOT_stimuli/rescaled_final/0224_rv.mp4	0.0	102.62798571586609	
8	79.26997494697571	fix_post	2		12	6.0	2.5	/experiments/knapen_AOT/AOT_stimuli/rescaled_final/0224_rv.mp4	0.0	102.75264072418213	0.10000991821289062
9	79.3699848651886	fix_pre	0		119	7.0	2.5	/experiments/knapen_AOT/AOT_stimuli/rescaled_final/1610_rv.mp4	0.0	102.85265064239502	0.9918570518493652
9	80.36184191703796	movie	1		243	7.0	2.5	/experiments/knapen_AOT/AOT_stimuli/rescaled_final/1610_rv.mp4	0.0	103.84450769424438	2.5003459453582764
9	80.7475938796997	pulse	1	t		7.0	2.5	/experiments/knapen_AOT/AOT_stimuli/rescaled_final/1610_rv.mp4	0.0	104.23025965690613	
9	82.34564185142517	pulse	1	t		7.0	2.5	/experiments/knapen_AOT/AOT_stimuli/rescaled_final/1610_rv.mp4	0.0	105.82830762863159	
9	82.86218786239624	fix_post	2		12	7.0	2.5	/experiments/knapen_AOT/AOT_stimuli/rescaled_final/1610_rv.mp4	0.0	106.34485363960266	0.10003113746643066
10	82.96221899986267	fix_pre	0		119	8.0	2.5	/experiments/knapen_AOT/AOT_stimuli/rescaled_final/0645_fw.mp4	0.0	106.44488477706909	0.9918498992919922
10	83.9458680152893	pulse	0	t		8.0	2.5	/experiments/knapen_AOT/AOT_stimuli/rescaled_final/0645_fw.mp4	0.0	107.42853379249573	
10	83.95406889915466	movie	1		245	8.0	2.5	/experiments/knapen_AOT/AOT_stimuli/rescaled_final/0645_fw.mp4	0.0	107.43673467636108	2.5086541175842285
10	85.55027604103088	pulse	1	t		8.0	2.5	/experiments/knapen_AOT/AOT_stimuli/rescaled_final/0645_fw.mp4	0.0	109.0329418182373	
10	86.46272301673889	fix_post	2		12	8.0	2.5	/experiments/knapen_AOT/AOT_stimuli/rescaled_final/0645_fw.mp4	0.0	109.94538879394531	0.10000896453857422
11	86.56273198127747	fix_pre	0		120	9.0	2.5	/experiments/knapen_AOT/AOT_stimuli/rescaled_final/0697_rv.mp4	0.0	110.04539775848389	1.0001630783081055
11	87.14645504951477	pulse	0	t		9.0	2.5	/experiments/knapen_AOT/AOT_stimuli/rescaled_final/0697_rv.mp4	0.0	110.62912082672119	
11	87.56289505958557	movie	1		243	9.0	2.5	/experiments/knapen_AOT/AOT_stimuli/rescaled_final/0697_rv.mp4	0.0	111.04556083679199	2.5003578662872314
11	88.74681997299194	pulse	1	t		9.0	2.5	/experiments/knapen_AOT/AOT_stimuli/rescaled_final/0697_rv.mp4	0.0	112.22948575019836	
11	90.0632529258728	fix_post	2		12	9.0	2.5	/experiments/knapen_AOT/AOT_stimuli/rescaled_final/0697_rv.mp4	0.0	113.54591870307922	0.10004401206970215
12	90.1632969379425	fix_pre	0		120	10.0	2.5	/experiments/knapen_AOT/AOT_stimuli/rescaled_final/1403_rv.mp4	0.0	113.64596271514893	1.0001559257507324
12	90.34681701660156	pulse	0	t		10.0	2.5	/experiments/knapen_AOT/AOT_stimuli/rescaled_final/1403_rv.mp4	0.0	113.82948279380798	
12	91.16345286369324	movie	1		244	10.0	2.5	/experiments/knapen_AOT/AOT_stimuli/rescaled_final/1403_rv.mp4	0.0	114.64611864089966	2.5004611015319824
12	91.94709396362305	pulse	1	t		10.0	2.5	/experiments/knapen_AOT/AOT_stimuli/rescaled_final/1403_rv.mp4	0.0	115.42975974082947	
12	93.54531002044678	pulse	1	t		10.0	2.5	/experiments/knapen_AOT/AOT_stimuli/rescaled_final/1403_rv.mp4	0.0	117.0279757976532	
12	93.66391396522522	fix_post	2		12	10.0	2.5	/experiments/knapen_AOT/AOT_stimuli/rescaled_final/1403_rv.mp4	0.0	117.14657974243164	0.09990906715393066
13	93.76382303237915	fix_pre	0		120	11.0	2.5	/experiments/knapen_AOT/AOT_stimuli/rescaled_final/0625_rv.mp4	0.0	117.24648880958557	1.000128984451294
13	94.76395201683044	movie	1		242	11.0	2.5	/experiments/knapen_AOT/AOT_stimuli/rescaled_final/0625_rv.mp4	0.0	118.24661779403687	2.492110013961792
13	95.14887189865112	pulse	1	t		11.0	2.5	/experiments/knapen_AOT/AOT_stimuli/rescaled_final/0625_rv.mp4	0.0	118.63153767585754	
13	96.74788498878479	pulse	1	t		11.0	2.5	/experiments/knapen_AOT/AOT_stimuli/rescaled_final/0625_rv.mp4	0.0	120.23055076599121	
13	97.25606203079224	fix_post	2		12	11.0	2.5	/experiments/knapen_AOT/AOT_stimuli/rescaled_final/0625_rv.mp4	0.0	120.73872780799866	0.09993290901184082
14	97.35599493980408	fix_pre	0		117	12.0	2.5	/experiments/knapen_AOT/AOT_stimuli/rescaled_final/0124_fw.mp4	0.0	120.8386607170105	1.0001730918884277
14	98.34814286231995	pulse	0	t		12.0	2.5	/experiments/knapen_AOT/AOT_stimuli/rescaled_final/0124_fw.mp4	0.0	121.83080863952637	
14	98.3561680316925	movie	1		244	12.0	2.5	/experiments/knapen_AOT/AOT_stimuli/rescaled_final/0124_fw.mp4	0.0	121.83883380889893	2.508711814880371
14	99.94887089729309	pulse	1	t		12.0	2.5	/experiments/knapen_AOT/AOT_stimuli/rescaled_final/0124_fw.mp4	0.0	123.43153667449951	
14	100.86487984657288	fix_post	2		12	12.0	2.5	/experiments/knapen_AOT/AOT_stimuli/rescaled_final/0124_fw.mp4	0.0	124.3475456237793	0.10004305839538574
15	100.96492290496826	fix_pre	0		120	13.0	2.5	blank	1.0	124.44758868217468	1.0001330375671387
15	101.54859805107117	pulse	0	t		13.0	2.5	blank	1.0	125.03126382827759	
15	101.9650559425354	movie	1		300	13.0	2.5	blank	1.0	125.44772171974182	2.5003859996795654
15	103.14881801605225	pulse	1	t		13.0	2.5	blank	1.0	126.63148379325867	
15	104.46544194221497	fix_post	2		12	13.0	2.5	blank	1.0	127.94810771942139	0.09998106956481934
16	104.56542301177979	fix_pre	0		120	14.0	2.5	/experiments/knapen_AOT/AOT_stimuli/rescaled_final/0114_rv.mp4	0.0	128.0480887889862	1.0001499652862549
16	104.74897599220276	pulse	0	t		14.0	2.5	/experiments/knapen_AOT/AOT_stimuli/rescaled_final/0114_rv.mp4	0.0	128.23164176940918	
16	105.56557297706604	movie	1		244	14.0	2.5	/experiments/knapen_AOT/AOT_stimuli/rescaled_final/0114_rv.mp4	0.0	129.04823875427246	2.5003600120544434
16	106.34935092926025	pulse	1	t		14.0	2.5	/experiments/knapen_AOT/AOT_stimuli/rescaled_final/0114_rv.mp4	0.0	129.83201670646667	
16	107.94706702232361	pulse	1	t		14.0	2.5	/experiments/knapen_AOT/AOT_stimuli/rescaled_final/0114_rv.mp4	0.0	131.42973279953003	
16	108.06593298912048	fix_post	2		12	14.0	2.5	/experiments/knapen_AOT/AOT_stimuli/rescaled_final/0114_rv.mp4	0.0	131.5485987663269	0.10005807876586914
17	108.16599106788635	fix_pre	0		120	15.0	2.5	/experiments/knapen_AOT/AOT_stimuli/rescaled_final/1361_rv.mp4	0.0	131.64865684509277	1.0001399517059326
17	109.16613101959229	movie	1		243	15.0	2.5	/experiments/knapen_AOT/AOT_stimuli/rescaled_final/1361_rv.mp4	0.0	132.6487967967987	2.492013931274414
17	109.55029797554016	pulse	1	t		15.0	2.5	/experiments/knapen_AOT/AOT_stimuli/rescaled_final/1361_rv.mp4	0.0	133.03296375274658	
17	111.15002083778381	pulse	1	t		15.0	2.5	/experiments/knapen_AOT/AOT_stimuli/rescaled_final/1361_rv.mp4	0.0	134.63268661499023	
17	111.6581449508667	fix_post	2		12	15.0	2.5	/experiments/knapen_AOT/AOT_stimuli/rescaled_final/1361_rv.mp4	0.0	135.14081072807312	0.10003304481506348
18	111.75817799568176	fix_pre	0		120	16.0	2.5	/experiments/knapen_AOT/AOT_stimuli/rescaled_final/0967_fw.mp4	0.0	135.24084377288818	1.0001568794250488
18	112.75023889541626	pulse	0	t		16.0	2.5	/experiments/knapen_AOT/AOT_stimuli/rescaled_final/0967_fw.mp4	0.0	136.23290467262268	
18	112.75833487510681	movie	1		246	16.0	2.5	/experiments/knapen_AOT/AOT_stimuli/rescaled_final/0967_fw.mp4	0.0	136.24100065231323	2.508697032928467
18	114.3509418964386	pulse	1	t		16.0	2.5	/experiments/knapen_AOT/AOT_stimuli/rescaled_final/0967_fw.mp4	0.0	137.83360767364502	
18	115.26703190803528	fix_post	2		12	16.0	2.5	/experiments/knapen_AOT/AOT_stimuli/rescaled_final/0967_fw.mp4	0.0	138.7496976852417	0.09999203681945801
19	115.36702394485474	fix_pre	0		120	17.0	2.5	/experiments/knapen_AOT/AOT_stimuli/rescaled_final/0078_fw.mp4	0.0	138.84968972206116	1.0002119541168213
19	115.95068287849426	pulse	0	t		17.0	2.5	/experiments/knapen_AOT/AOT_stimuli/rescaled_final/0078_fw.mp4	0.0	139.43334865570068	
19	116.36723589897156	movie	1		245	17.0	2.5	/experiments/knapen_AOT/AOT_stimuli/rescaled_final/0078_fw.mp4	0.0	139.84990167617798	2.5003249645233154
19	117.55096793174744	pulse	1	t		17.0	2.5	/experiments/knapen_AOT/AOT_stimuli/rescaled_final/0078_fw.mp4	0.0	141.03363370895386	
19	118.86756086349487	fix_post	2		12	17.0	2.5	/experiments/knapen_AOT/AOT_stimuli/rescaled_final/0078_fw.mp4	0.0	142.3502266407013	0.10002017021179199
20	118.96758103370667	fix_pre	0		120	18.0	2.5	/experiments/knapen_AOT/AOT_stimuli/rescaled_final/1191_rv.mp4	0.0	142.4502468109131	1.0001769065856934
20	119.15121984481812	pulse	0	t		18.0	2.5	/experiments/knapen_AOT/AOT_stimuli/rescaled_final/1191_rv.mp4	0.0	142.63388562202454	
20	119.96775794029236	movie	1		244	18.0	2.5	/experiments/knapen_AOT/AOT_stimuli/rescaled_final/1191_rv.mp4	0.0	143.45042371749878	2.5003960132598877
20	120.75150895118713	pulse	1	t		18.0	2.5	/experiments/knapen_AOT/AOT_stimuli/rescaled_final/1191_rv.mp4	0.0	144.23417472839355	
20	122.35173201560974	pulse	1	t		18.0	2.5	/experiments/knapen_AOT/AOT_stimuli/rescaled_final/1191_rv.mp4	0.0	145.83439779281616	
20	122.46815395355225	fix_post	2		12	18.0	2.5	/experiments/knapen_AOT/AOT_stimuli/rescaled_final/1191_rv.mp4	0.0	145.95081973075867	0.09998703002929688
21	122.56814098358154	fix_pre	0		120	19.0	2.5	/experiments/knapen_AOT/AOT_stimuli/rescaled_final/1769_fw.mp4	0.0	146.05080676078796	1.0001299381256104
21	123.56827092170715	movie	1		242	19.0	2.5	/experiments/knapen_AOT/AOT_stimuli/rescaled_final/1769_fw.mp4	0.0	147.05093669891357	2.492051124572754
21	123.95320796966553	pulse	1	t		19.0	2.5	/experiments/knapen_AOT/AOT_stimuli/rescaled_final/1769_fw.mp4	0.0	147.43587374687195	
21	125.54485702514648	pulse	1	t		19.0	2.5	/experiments/knapen_AOT/AOT_stimuli/rescaled_final/1769_fw.mp4	0.0	149.0275228023529	
21	126.06032204627991	fix_post	2		12	19.0	2.5	/experiments/knapen_AOT/AOT_stimuli/rescaled_final/1769_fw.mp4	0.0	149.54298782348633	0.10002398490905762
22	126.16034603118896	fix_pre	0		120	20.0	2.5	blank	1.0	149.64301180839539	1.0001749992370605
22	127.14486384391785	pulse	0	t		20.0	2.5	blank	1.0	150.62752962112427	
22	127.16052103042603	movie	1		301	20.0	2.5	blank	1.0	150.64318680763245	2.5087039470672607
22	128.74531292915344	pulse	1	t		20.0	2.5	blank	1.0	152.22797870635986	
22	129.6692249774933	fix_post	2		12	20.0	2.5	blank	1.0	153.1518907546997	0.09995794296264648
23	129.76918292045593	fix_pre	0		120	21.0	2.5	/experiments/knapen_AOT/AOT_stimuli/rescaled_final/0645_rv.mp4	0.0	153.25184869766235	1.000128984451294
23	130.34538197517395	pulse	0	t		21.0	2.5	/experiments/knapen_AOT/AOT_stimuli/rescaled_final/0645_rv.mp4	0.0	153.82804775238037	
23	130.76931190490723	movie	1		244	21.0	2.5	/experiments/knapen_AOT/AOT_stimuli/rescaled_final/0645_rv.mp4	0.0	154.25197768211365	2.5004069805145264
23	131.9453899860382	pulse	1	t		21.0	2.5	/experiments/knapen_AOT/AOT_stimuli/rescaled_final/0645_rv.mp4	0.0	155.42805576324463	
23	133.26971888542175	fix_post	2		12	21.0	2.5	/experiments/knapen_AOT/AOT_stimuli/rescaled_final/0645_rv.mp4	0.0	156.75238466262817	0.10000896453857422
24	133.36972784996033	fix_pre	0		120	22.0	2.5	/experiments/knapen_AOT/AOT_stimuli/rescaled_final/0773_rv.mp4	0.0	156.85239362716675	1.0001301765441895
24	133.54490995407104	pulse	0	t		22.0	2.5	/experiments/knapen_AOT/AOT_stimuli/rescaled_final/0773_rv.mp4	0.0	157.02757573127747	
24	134.36985802650452	movie	1		244	22.0	2.5	/experiments/knapen_AOT/AOT_stimuli/rescaled_final/0773_rv.mp4	0.0	157.85252380371094	2.500396966934204
24	135.14515686035156	pulse	1	t		22.0	2.5	/experiments/knapen_AOT/AOT_stimuli/rescaled_final/0773_rv.mp4	0.0	158.62782263755798	
24	136.74548292160034	pulse	1	t		22.0	2.5	/experiments/knapen_AOT/AOT_stimuli/rescaled_final/0773_rv.mp4	0.0	160.22814869880676	
24	136.87025499343872	fix_post	2		12	22.0	2.5	/experiments/knapen_AOT/AOT_stimuli/rescaled_final/0773_rv.mp4	0.0	160.35292077064514	0.10004091262817383
25	136.9702959060669	fix_pre	0		120	23.0	2.5	/experiments/knapen_AOT/AOT_stimuli/rescaled_final/2178_rv.mp4	0.0	160.45296168327332	1.000115156173706
25	137.9704110622406	movie	1		242	23.0	2.5	/experiments/knapen_AOT/AOT_stimuli/rescaled_final/2178_rv.mp4	0.0	161.45307683944702	2.4920527935028076
25	138.3457589149475	pulse	1	t		23.0	2.5	/experiments/knapen_AOT/AOT_stimuli/rescaled_final/2178_rv.mp4	0.0	161.82842469215393	
25	139.94595098495483	pulse	1	t		23.0	2.5	/experiments/knapen_AOT/AOT_stimuli/rescaled_final/2178_rv.mp4	0.0	163.42861676216125	
25	140.4624638557434	fix_post	2		12	23.0	2.5	/experiments/knapen_AOT/AOT_stimuli/rescaled_final/2178_rv.mp4	0.0	163.94512963294983	0.1000051498413086
26	140.56246900558472	fix_pre	0		119	24.0	2.5	/experiments/knapen_AOT/AOT_stimuli/rescaled_final/0023_fw.mp4	0.0	164.04513478279114	0.9918320178985596
26	141.54619002342224	pulse	0	t		24.0	2.5	/experiments/knapen_AOT/AOT_stimuli/rescaled_final/0023_fw.mp4	0.0	165.02885580062866	
26	141.55430102348328	movie	1		246	24.0	2.5	/experiments/knapen_AOT/AOT_stimuli/rescaled_final/0023_fw.mp4	0.0	165.0369668006897	2.508669853210449
26	143.14699983596802	pulse	1	t		24.0	2.5	/experiments/knapen_AOT/AOT_stimuli/rescaled_final/0023_fw.mp4	0.0	166.62966561317444	
26	144.06297087669373	fix_post	2		12	24.0	2.5	/experiments/knapen_AOT/AOT_stimuli/rescaled_final/0023_fw.mp4	0.0	167.54563665390015	0.10001397132873535
27	144.16298484802246	fix_pre	0		120	25.0	2.5	/experiments/knapen_AOT/AOT_stimuli/rescaled_final/1237_fw.mp4	0.0	167.64565062522888	1.0001771450042725
27	144.7466959953308	pulse	0	t		25.0	2.5	/experiments/knapen_AOT/AOT_stimuli/rescaled_final/1237_fw.mp4	0.0	168.22936177253723	
27	145.16316199302673	movie	1		244	25.0	2.5	/experiments/knapen_AOT/AOT_stimuli/rescaled_final/1237_fw.mp4	0.0	168.64582777023315	2.5003769397735596
27	146.34697198867798	pulse	1	t		25.0	2.5	/experiments/knapen_AOT/AOT_stimuli/rescaled_final/1237_fw.mp4	0.0	169.8296377658844	
27	147.6635389328003	fix_post	2		12	25.0	2.5	/experiments/knapen_AOT/AOT_stimuli/rescaled_final/1237_fw.mp4	0.0	171.1462047100067	0.10001206398010254
28	147.7635509967804	fix_pre	0		120	26.0	2.5	/experiments/knapen_AOT/AOT_stimuli/rescaled_final/0783_fw.mp4	0.0	171.24621677398682	1.0001580715179443
28	147.94716596603394	pulse	0	t		26.0	2.5	/experiments/knapen_AOT/AOT_stimuli/rescaled_final/0783_fw.mp4	0.0	171.42983174324036	
28	148.76370906829834	movie	1		245	26.0	2.5	/experiments/knapen_AOT/AOT_stimuli/rescaled_final/0783_fw.mp4	0.0	172.24637484550476	2.5003488063812256
28	149.54742288589478	pulse	1	t		26.0	2.5	/experiments/knapen_AOT/AOT_stimuli/rescaled_final/0783_fw.mp4	0.0	173.0300886631012	
28	151.14525604248047	pulse	1	t		26.0	2.5	/experiments/knapen_AOT/AOT_stimuli/rescaled_final/0783_fw.mp4	0.0	174.6279218196869	
28	151.26405787467957	fix_post	2		12	26.0	2.5	/experiments/knapen_AOT/AOT_stimuli/rescaled_final/0783_fw.mp4	0.0	174.746723651886	0.10004615783691406
29	151.36410403251648	fix_pre	0		120	27.0	2.5	blank	1.0	174.8467698097229	1.000121831893921
29	152.3642258644104	movie	1		299	27.0	2.5	blank	1.0	175.84689164161682	2.492093086242676
29	152.74785804748535	pulse	1	t		27.0	2.5	blank	1.0	176.23052382469177	
29	154.34803700447083	pulse	1	t		27.0	2.5	blank	1.0	177.83070278167725	
29	154.85631895065308	fix_post	2		12	27.0	2.5	blank	1.0	178.3389847278595	0.10004591941833496
30	154.9563648700714	fix_pre	0		120	28.0	2.5	/experiments/knapen_AOT/AOT_stimuli/rescaled_final/1970_rv.mp4	0.0	178.43903064727783	1.0000731945037842
30	155.94841384887695	pulse	0	t		28.0	2.5	/experiments/knapen_AOT/AOT_stimuli/rescaled_final/1970_rv.mp4	0.0	179.43107962608337	
30	155.9564380645752	movie	1		246	28.0	2.5	/experiments/knapen_AOT/AOT_stimuli/rescaled_final/1970_rv.mp4	0.0	179.43910384178162	2.5087039470672607
30	157.55019092559814	pulse	1	t		28.0	2.5	/experiments/knapen_AOT/AOT_stimuli/rescaled_final/1970_rv.mp4	0.0	181.03285670280457	
30	158.46514201164246	fix_post	2		12	28.0	2.5	/experiments/knapen_AOT/AOT_stimuli/rescaled_final/1970_rv.mp4	0.0	181.94780778884888	0.10000896453857422
31	158.56515097618103	fix_pre	0		120	29.0	2.5	/experiments/knapen_AOT/AOT_stimuli/rescaled_final/2159_rv.mp4	0.0	182.04781675338745	1.0001530647277832
31	159.14876198768616	pulse	0	t		29.0	2.5	/experiments/knapen_AOT/AOT_stimuli/rescaled_final/2159_rv.mp4	0.0	182.63142776489258	
31	159.5653040409088	movie	1		240	29.0	2.5	/experiments/knapen_AOT/AOT_stimuli/rescaled_final/2159_rv.mp4	0.0	183.04796981811523	2.5003859996795654
31	160.74912691116333	pulse	1	t		29.0	2.5	/experiments/knapen_AOT/AOT_stimuli/rescaled_final/2159_rv.mp4	0.0	184.23179268836975	
31	162.06569004058838	fix_post	2		12	29.0	2.5	/experiments/knapen_AOT/AOT_stimuli/rescaled_final/2159_rv.mp4	0.0	185.5483558177948	0.10004687309265137
32	162.16573691368103	fix_pre	0		120	30.0	2.5	/experiments/knapen_AOT/AOT_stimuli/rescaled_final/1670_fw.mp4	0.0	185.64840269088745	1.0001220703125
32	162.34924387931824	pulse	0	t		30.0	2.5	/experiments/knapen_AOT/AOT_stimuli/rescaled_final/1670_fw.mp4	0.0	185.83190965652466	
32	163.16585898399353	movie	1		244	30.0	2.5	/experiments/knapen_AOT/AOT_stimuli/rescaled_final/1670_fw.mp4	0.0	186.64852476119995	2.5003418922424316
32	163.94961285591125	pulse	1	t		30.0	2.5	/experiments/knapen_AOT/AOT_stimuli/rescaled_final/1670_fw.mp4	0.0	187.43227863311768	
32	165.54738187789917	pulse	1	t		30.0	2.5	/experiments/knapen_AOT/AOT_stimuli/rescaled_final/1670_fw.mp4	0.0	189.0300476551056	
32	165.66620087623596	fix_post	2		12	30.0	2.5	/experiments/knapen_AOT/AOT_stimuli/rescaled_final/1670_fw.mp4	0.0	189.14886665344238	0.10000014305114746
33	165.7662010192871	fix_pre	0		120	31.0	2.5	/experiments/knapen_AOT/AOT_stimuli/rescaled_final/1473_fw.mp4	0.0	189.24886679649353	1.000175952911377
33	166.7663769721985	movie	1		244	31.0	2.5	/experiments/knapen_AOT/AOT_stimuli/rescaled_final/1473_fw.mp4	0.0	190.2490427494049	2.4920260906219482
33	167.15072798728943	pulse	1	t		31.0	2.5	/experiments/knapen_AOT/AOT_stimuli/rescaled_final/1473_fw.mp4	0.0	190.63339376449585	
33	168.75024795532227	pulse	1	t		31.0	2.5	/experiments/knapen_AOT/AOT_stimuli/rescaled_final/1473_fw.mp4	0.0	192.2329137325287	
33	169.25840306282043	fix_post	2		12	31.0	2.5	/experiments/knapen_AOT/AOT_stimuli/rescaled_final/1473_fw.mp4	0.0	192.74106884002686	0.10002398490905762
34	169.3584270477295	fix_pre	0		120	32.0	2.5	/experiments/knapen_AOT/AOT_stimuli/rescaled_final/0548_rv.mp4	0.0	192.8410928249359	1.0001628398895264
34	170.35054802894592	pulse	0	t		32.0	2.5	/experiments/knapen_AOT/AOT_stimuli/rescaled_final/0548_rv.mp4	0.0	193.83321380615234	
34	170.35858988761902	movie	1		246	32.0	2.5	/experiments/knapen_AOT/AOT_stimuli/rescaled_final/0548_rv.mp4	0.0	193.84125566482544	2.508687973022461
34	171.95127487182617	pulse	1	t		32.0	2.5	/experiments/knapen_AOT/AOT_stimuli/rescaled_final/0548_rv.mp4	0.0	195.4339406490326	
34	172.86727786064148	fix_post	2		12	32.0	2.5	/experiments/knapen_AOT/AOT_stimuli/rescaled_final/0548_rv.mp4	0.0	196.3499436378479	0.10002708435058594
35	172.96730494499207	fix_pre	0		120	33.0	2.5	/experiments/knapen_AOT/AOT_stimuli/rescaled_final/0773_fw.mp4	0.0	196.4499707221985	1.000143051147461
35	173.5509798526764	pulse	0	t		33.0	2.5	/experiments/knapen_AOT/AOT_stimuli/rescaled_final/0773_fw.mp4	0.0	197.0336456298828	
35	173.96744799613953	movie	1		245	33.0	2.5	/experiments/knapen_AOT/AOT_stimuli/rescaled_final/0773_fw.mp4	0.0	197.45011377334595	2.500342845916748
35	175.15127086639404	pulse	1	t		33.0	2.5	/experiments/knapen_AOT/AOT_stimuli/rescaled_final/0773_fw.mp4	0.0	198.63393664360046	
35	176.46779084205627	fix_post	2		12	33.0	2.5	/experiments/knapen_AOT/AOT_stimuli/rescaled_final/0773_fw.mp4	0.0	199.9504566192627	0.10005903244018555
36	176.56784987449646	fix_pre	0		120	34.0	2.5	/experiments/knapen_AOT/AOT_stimuli/rescaled_final/1121_rv.mp4	0.0	200.05051565170288	1.0001721382141113
36	176.75138902664185	pulse	0	t		34.0	2.5	/experiments/knapen_AOT/AOT_stimuli/rescaled_final/1121_rv.mp4	0.0	200.23405480384827	
36	177.56802201271057	movie	1		244	34.0	2.5	/experiments/knapen_AOT/AOT_stimuli/rescaled_final/1121_rv.mp4	0.0	201.050687789917	2.500290870666504
36	178.3517529964447	pulse	1	t		34.0	2.5	/experiments/knapen_AOT/AOT_stimuli/rescaled_final/1121_rv.mp4	0.0	201.83441877365112	
36	179.95230102539062	pulse	1	t		34.0	2.5	/experiments/knapen_AOT/AOT_stimuli/rescaled_final/1121_rv.mp4	0.0	203.43496680259705	
36	180.06831288337708	fix_post	2		12	34.0	2.5	/experiments/knapen_AOT/AOT_stimuli/rescaled_final/1121_rv.mp4	0.0	203.5509786605835	0.10005998611450195
37	180.16837286949158	fix_pre	0		120	35.0	2.5	blank	1.0	203.651038646698	1.0001630783081055
37	181.16853594779968	movie	1		299	35.0	2.5	blank	1.0	204.6512017250061	2.4920389652252197
37	181.54460287094116	pulse	1	t		35.0	2.5	blank	1.0	205.02726864814758	
37	183.14480996131897	pulse	1	t		35.0	2.5	blank	1.0	206.6274757385254	
37	183.6605749130249	fix_post	2		12	35.0	2.5	blank	1.0	207.14324069023132	0.10000014305114746
38	183.76057505607605	fix_pre	0		120	36.0	2.5	/experiments/knapen_AOT/AOT_stimuli/rescaled_final/2064_rv.mp4	0.0	207.24324083328247	1.0001649856567383
38	184.74508595466614	pulse	0	t		36.0	2.5	/experiments/knapen_AOT/AOT_stimuli/rescaled_final/2064_rv.mp4	0.0	208.22775173187256	
38	184.7607400417328	movie	1		245	36.0	2.5	/experiments/knapen_AOT/AOT_stimuli/rescaled_final/2064_rv.mp4	0.0	208.2434058189392	2.508718967437744
38	186.3446168899536	pulse	1	t		36.0	2.5	/experiments/knapen_AOT/AOT_stimuli/rescaled_final/2064_rv.mp4	0.0	209.82728266716003	
38	187.26945900917053	fix_post	2		12	36.0	2.5	/experiments/knapen_AOT/AOT_stimuli/rescaled_final/2064_rv.mp4	0.0	210.75212478637695	0.09998488426208496
39	187.36944389343262	fix_pre	0		120	37.0	2.5	/experiments/knapen_AOT/AOT_stimuli/rescaled_final/0166_rv.mp4	0.0	210.85210967063904	1.0001640319824219
39	187.94466996192932	pulse	0	t		37.0	2.5	/experiments/knapen_AOT/AOT_stimuli/rescaled_final/0166_rv.mp4	0.0	211.42733573913574	
39	188.36960792541504	movie	1		243	37.0	2.5	/experiments/knapen_AOT/AOT_stimuli/rescaled_final/0166_rv.mp4	0.0	211.85227370262146	2.5003631114959717
39	189.5495810508728	pulse	1	t		37.0	2.5	/experiments/knapen_AOT/AOT_stimuli/rescaled_final/0166_rv.mp4	0.0	213.03224682807922	
39	190.869971036911	fix_post	2		12	37.0	2.5	/experiments/knapen_AOT/AOT_stimuli/rescaled_final/0166_rv.mp4	0.0	214.35263681411743	0.10000300407409668
40	190.9699740409851	fix_pre	0		120	38.0	2.5	/experiments/knapen_AOT/AOT_stimuli/rescaled_final/1121_fw.mp4	0.0	214.45263981819153	1.0001788139343262
40	191.14521288871765	pulse	0	t		38.0	2.5	/experiments/knapen_AOT/AOT_stimuli/rescaled_final/1121_fw.mp4	0.0	214.62787866592407	
40	191.97015285491943	movie	1		244	38.0	2.5	/experiments/knapen_AOT/AOT_stimuli/rescaled_final/1121_fw.mp4	0.0	215.45281863212585	2.5003550052642822
40	192.7454478740692	pulse	1	t		38.0	2.5	/experiments/knapen_AOT/AOT_stimuli/rescaled_final/1121_fw.mp4	0.0	216.22811365127563	
40	194.34572005271912	pulse	1	t		38.0	2.5	/experiments/knapen_AOT/AOT_stimuli/rescaled_final/1121_fw.mp4	0.0	217.82838582992554	
40	194.47050786018372	fix_post	2		12	38.0	2.5	/experiments/knapen_AOT/AOT_stimuli/rescaled_final/1121_fw.mp4	0.0	217.95317363739014	0.10001015663146973
41	194.57051801681519	fix_pre	0		120	39.0	2.5	/experiments/knapen_AOT/AOT_stimuli/rescaled_final/1230_rv.mp4	0.0	218.0531837940216	1.0001740455627441
41	195.57069206237793	movie	1		244	39.0	2.5	/experiments/knapen_AOT/AOT_stimuli/rescaled_final/1230_rv.mp4	0.0	219.05335783958435	2.492027997970581
41	195.94588685035706	pulse	1	t		39.0	2.5	/experiments/knapen_AOT/AOT_stimuli/rescaled_final/1230_rv.mp4	0.0	219.42855262756348	
41	197.54625487327576	pulse	1	t		39.0	2.5	/experiments/knapen_AOT/AOT_stimuli/rescaled_final/1230_rv.mp4	0.0	221.02892065048218	
41	198.0627200603485	fix_post	2		12	39.0	2.5	/experiments/knapen_AOT/AOT_stimuli/rescaled_final/1230_rv.mp4	0.0	221.54538583755493	0.1000208854675293
42	198.16274094581604	fix_pre	0		119	40.0	2.5	/experiments/knapen_AOT/AOT_stimuli/rescaled_final/1098_rv.mp4	0.0	221.64540672302246	0.9918088912963867
42	199.14652490615845	pulse	0	t		40.0	2.5	/experiments/knapen_AOT/AOT_stimuli/rescaled_final/1098_rv.mp4	0.0	222.62919068336487	
42	199.15454983711243	movie	1		246	40.0	2.5	/experiments/knapen_AOT/AOT_stimuli/rescaled_final/1098_rv.mp4	0.0	222.63721561431885	2.508669137954712
42	200.74743795394897	pulse	1	t		40.0	2.5	/experiments/knapen_AOT/AOT_stimuli/rescaled_final/1098_rv.mp4	0.0	224.2301037311554	
42	201.66321897506714	fix_post	2		12	40.0	2.5	/experiments/knapen_AOT/AOT_stimuli/rescaled_final/1098_rv.mp4	0.0	225.14588475227356	0.10007095336914062
43	201.76328992843628	fix_pre	0		120	41.0	2.5	/experiments/knapen_AOT/AOT_stimuli/rescaled_final/0590_fw.mp4	0.0	225.2459557056427	1.0000929832458496
43	202.34695100784302	pulse	0	t		41.0	2.5	/experiments/knapen_AOT/AOT_stimuli/rescaled_final/0590_fw.mp4	0.0	225.82961678504944	
43	202.76338291168213	movie	1		244	41.0	2.5	/experiments/knapen_AOT/AOT_stimuli/rescaled_final/0590_fw.mp4	0.0	226.24604868888855	2.5004279613494873
43	203.9472029209137	pulse	1	t		41.0	2.5	/experiments/knapen_AOT/AOT_stimuli/rescaled_final/0590_fw.mp4	0.0	227.42986869812012	
43	205.26381087303162	fix_post	2		12	41.0	2.5	/experiments/knapen_AOT/AOT_stimuli/rescaled_final/0590_fw.mp4	0.0	228.74647665023804	0.1000070571899414
44	205.36381793022156	fix_pre	0		120	42.0	2.5	blank	1.0	228.84648370742798	1.0001521110534668
44	205.54747486114502	pulse	0	t		42.0	2.5	blank	1.0	229.03014063835144	
44	206.36397004127502	movie	1		300	42.0	2.5	blank	1.0	229.84663581848145	2.500379800796509
44	207.14757585525513	pulse	1	t		42.0	2.5	blank	1.0	230.63024163246155	
44	208.74779105186462	pulse	1	t		42.0	2.5	blank	1.0	232.23045682907104	
44	208.86434984207153	fix_post	2		12	42.0	2.5	blank	1.0	232.34701561927795	0.10000205039978027
45	208.9643518924713	fix_pre	0		120	43.0	2.5	/experiments/knapen_AOT/AOT_stimuli/rescaled_final/0207_fw.mp4	0.0	232.44701766967773	1.0001311302185059
45	209.96448302268982	movie	1		242	43.0	2.5	/experiments/knapen_AOT/AOT_stimuli/rescaled_final/0207_fw.mp4	0.0	233.44714879989624	2.4920778274536133
45	210.35259795188904	pulse	1	t		43.0	2.5	/experiments/knapen_AOT/AOT_stimuli/rescaled_final/0207_fw.mp4	0.0	233.83526372909546	
45	211.9484100341797	pulse	1	t		43.0	2.5	/experiments/knapen_AOT/AOT_stimuli/rescaled_final/0207_fw.mp4	0.0	235.4310758113861	
45	212.45656085014343	fix_post	2		12	43.0	2.5	/experiments/knapen_AOT/AOT_stimuli/rescaled_final/0207_fw.mp4	0.0	235.93922662734985	0.09997200965881348
46	212.55653285980225	fix_pre	0		120	44.0	2.5	/experiments/knapen_AOT/AOT_stimuli/rescaled_final/0576_rv.mp4	0.0	236.03919863700867	1.0001420974731445
46	213.54860997200012	pulse	0	t		44.0	2.5	/experiments/knapen_AOT/AOT_stimuli/rescaled_final/0576_rv.mp4	0.0	237.03127574920654	
46	213.5566749572754	movie	1		246	44.0	2.5	/experiments/knapen_AOT/AOT_stimuli/rescaled_final/0576_rv.mp4	0.0	237.0393407344818	2.508697032928467
46	215.14969992637634	pulse	1	t		44.0	2.5	/experiments/knapen_AOT/AOT_stimuli/rescaled_final/0576_rv.mp4	0.0	238.63236570358276	
46	216.06537199020386	fix_post	2		12	44.0	2.5	/experiments/knapen_AOT/AOT_stimuli/rescaled_final/0576_rv.mp4	0.0	239.54803776741028	0.10008692741394043
47	216.1654589176178	fix_pre	0		120	45.0	2.5	/experiments/knapen_AOT/AOT_stimuli/rescaled_final/0260_fw.mp4	0.0	239.64812469482422	1.000133991241455
47	216.7490680217743	pulse	0	t		45.0	2.5	/experiments/knapen_AOT/AOT_stimuli/rescaled_final/0260_fw.mp4	0.0	240.2317337989807	
47	217.16559290885925	movie	1		242	45.0	2.5	/experiments/knapen_AOT/AOT_stimuli/rescaled_final/0260_fw.mp4	0.0	240.64825868606567	2.500365972518921
47	218.34938406944275	pulse	1	t		45.0	2.5	/experiments/knapen_AOT/AOT_stimuli/rescaled_final/0260_fw.mp4	0.0	241.83204984664917	
47	219.66595888137817	fix_post	2		12	45.0	2.5	/experiments/knapen_AOT/AOT_stimuli/rescaled_final/0260_fw.mp4	0.0	243.1486246585846	0.09997797012329102
48	219.76593685150146	fix_pre	0		120	46.0	2.5	/experiments/knapen_AOT/AOT_stimuli/rescaled_final/1059_fw.mp4	0.0	243.24860262870789	1.0001552104949951
48	219.94961786270142	pulse	0	t		46.0	2.5	/experiments/knapen_AOT/AOT_stimuli/rescaled_final/1059_fw.mp4	0.0	243.43228363990784	
48	220.76609206199646	movie	1		244	46.0	2.5	/experiments/knapen_AOT/AOT_stimuli/rescaled_final/1059_fw.mp4	0.0	244.24875783920288	2.5003597736358643
48	221.54975390434265	pulse	1	t		46.0	2.5	/experiments/knapen_AOT/AOT_stimuli/rescaled_final/1059_fw.mp4	0.0	245.03241968154907	
48	223.14999890327454	pulse	1	t		46.0	2.5	/experiments/knapen_AOT/AOT_stimuli/rescaled_final/1059_fw.mp4	0.0	246.63266468048096	
48	223.26645183563232	fix_post	2		12	46.0	2.5	/experiments/knapen_AOT/AOT_stimuli/rescaled_final/1059_fw.mp4	0.0	246.74911761283875	0.10002613067626953
49	223.3664779663086	fix_pre	0		120	47.0	2.5	/experiments/knapen_AOT/AOT_stimuli/rescaled_final/1473_rv.mp4	0.0	246.84914374351501	1.000180959701538
49	224.36665892601013	movie	1		243	47.0	2.5	/experiments/knapen_AOT/AOT_stimuli/rescaled_final/1473_rv.mp4	0.0	247.84932470321655	2.4919841289520264
49	224.75049686431885	pulse	1	t		47.0	2.5	/experiments/knapen_AOT/AOT_stimuli/rescaled_final/1473_rv.mp4	0.0	248.23316264152527	
49	226.35057091712952	pulse	1	t		47.0	2.5	/experiments/knapen_AOT/AOT_stimuli/rescaled_final/1473_rv.mp4	0.0	249.83323669433594	
49	226.85864305496216	fix_post	2		12	47.0	2.5	/experiments/knapen_AOT/AOT_stimuli/rescaled_final/1473_rv.mp4	0.0	250.34130883216858	0.10005688667297363
50	226.95869994163513	fix_pre	0		120	48.0	2.5	blank	1.0	250.44136571884155	1.0001540184020996
50	227.950777053833	pulse	0	t		48.0	2.5	blank	1.0	251.43344283103943	
50	227.95885396003723	movie	1		301	48.0	2.5	blank	1.0	251.44151973724365	2.508720874786377
50	229.55087900161743	pulse	1	t		48.0	2.5	blank	1.0	253.03354477882385	
50	230.4675748348236	fix_post	2		12	48.0	2.5	blank	1.0	253.95024061203003	0.09998106956481934
51	230.56755590438843	fix_pre	0		120	49.0	2.5	/experiments/knapen_AOT/AOT_stimuli/rescaled_final/1239_rv.mp4	0.0	254.05022168159485	1.0001471042633057
51	231.15124893188477	pulse	0	t		49.0	2.5	/experiments/knapen_AOT/AOT_stimuli/rescaled_final/1239_rv.mp4	0.0	254.6339147090912	
51	231.56770300865173	movie	1		245	49.0	2.5	/experiments/knapen_AOT/AOT_stimuli/rescaled_final/1239_rv.mp4	0.0	255.05036878585815	2.500377893447876
51	232.751620054245	pulse	1	t		49.0	2.5	/experiments/knapen_AOT/AOT_stimuli/rescaled_final/1239_rv.mp4	0.0	256.2342858314514	
51	234.0680809020996	fix_post	2		12	49.0	2.5	/experiments/knapen_AOT/AOT_stimuli/rescaled_final/1239_rv.mp4	0.0	257.55074667930603	0.10004115104675293
52	234.16812205314636	fix_pre	0		120	50.0	2.5	/experiments/knapen_AOT/AOT_stimuli/rescaled_final/1033_rv.mp4	0.0	257.6507878303528	1.000135898590088
52	234.35174202919006	pulse	0	t		50.0	2.5	/experiments/knapen_AOT/AOT_stimuli/rescaled_final/1033_rv.mp4	0.0	257.8344078063965	
52	235.16825795173645	movie	1		244	50.0	2.5	/experiments/knapen_AOT/AOT_stimuli/rescaled_final/1033_rv.mp4	0.0	258.65092372894287	2.500333070755005
52	235.95187401771545	pulse	1	t		50.0	2.5	/experiments/knapen_AOT/AOT_stimuli/rescaled_final/1033_rv.mp4	0.0	259.4345397949219	
52	237.5521969795227	pulse	1	t		50.0	2.5	/experiments/knapen_AOT/AOT_stimuli/rescaled_final/1033_rv.mp4	0.0	261.0348627567291	
52	237.66859102249146	fix_post	2		12	50.0	2.5	/experiments/knapen_AOT/AOT_stimuli/rescaled_final/1033_rv.mp4	0.0	261.1512567996979	0.10004687309265137
53	237.7686378955841	fix_pre	0		120	51.0	2.5	/experiments/knapen_AOT/AOT_stimuli/rescaled_final/0951_fw.mp4	0.0	261.2513036727905	1.0001389980316162
53	238.76877689361572	movie	1		244	51.0	2.5	/experiments/knapen_AOT/AOT_stimuli/rescaled_final/0951_fw.mp4	0.0	262.25144267082214	2.4920430183410645
53	239.15284895896912	pulse	1	t		51.0	2.5	/experiments/knapen_AOT/AOT_stimuli/rescaled_final/0951_fw.mp4	0.0	262.63551473617554	
53	240.7452838420868	pulse	1	t		51.0	2.5	/experiments/knapen_AOT/AOT_stimuli/rescaled_final/0951_fw.mp4	0.0	264.2279496192932	
53	241.2608199119568	fix_post	2		12	51.0	2.5	/experiments/knapen_AOT/AOT_stimuli/rescaled_final/0951_fw.mp4	0.0	264.7434856891632	0.09999799728393555
54	241.36081790924072	fix_pre	0		120	52.0	2.5	/experiments/knapen_AOT/AOT_stimuli/rescaled_final/0016_fw.mp4	0.0	264.84348368644714	1.0001840591430664
54	242.34549593925476	pulse	0	t		52.0	2.5	/experiments/knapen_AOT/AOT_stimuli/rescaled_final/0016_fw.mp4	0.0	265.8281617164612	
54	242.3610019683838	movie	1		246	52.0	2.5	/experiments/knapen_AOT/AOT_stimuli/rescaled_final/0016_fw.mp4	0.0	265.8436677455902	2.5086898803710938
54	243.95356702804565	pulse	1	t		52.0	2.5	/experiments/knapen_AOT/AOT_stimuli/rescaled_final/0016_fw.mp4	0.0	267.4362328052521	
54	244.86969184875488	fix_post	2		12	52.0	2.5	/experiments/knapen_AOT/AOT_stimuli/rescaled_final/0016_fw.mp4	0.0	268.3523576259613	0.09998106956481934
55	244.9696729183197	fix_pre	0		120	53.0	2.5	/experiments/knapen_AOT/AOT_stimuli/rescaled_final/0110_fw.mp4	0.0	268.4523386955261	1.0001800060272217
55	245.54587602615356	pulse	0	t		53.0	2.5	/experiments/knapen_AOT/AOT_stimuli/rescaled_final/0110_fw.mp4	0.0	269.02854180336	
55	245.96985292434692	movie	1		243	53.0	2.5	/experiments/knapen_AOT/AOT_stimuli/rescaled_final/0110_fw.mp4	0.0	269.45251870155334	2.5004091262817383
55	247.14556193351746	pulse	1	t		53.0	2.5	/experiments/knapen_AOT/AOT_stimuli/rescaled_final/0110_fw.mp4	0.0	270.6282277107239	
55	248.47026205062866	fix_post	2		12	53.0	2.5	/experiments/knapen_AOT/AOT_stimuli/rescaled_final/0110_fw.mp4	0.0	271.9529278278351	0.09998488426208496
56	248.57024693489075	fix_pre	0		120	54.0	2.5	blank	1.0	272.05291271209717	1.0003080368041992
56	248.7454068660736	pulse	0	t		54.0	2.5	blank	1.0	272.22807264328003	
56	249.57055497169495	movie	1		300	54.0	2.5	blank	1.0	273.05322074890137	2.5002129077911377
56	250.34573793411255	pulse	1	t		54.0	2.5	blank	1.0	273.82840371131897	
56	251.94592905044556	pulse	1	t		54.0	2.5	blank	1.0	275.428594827652	
56	252.07076787948608	fix_post	2		11	54.0	2.5	blank	1.0	275.5534336566925	0.0917201042175293
57	252.1624879837036	fix_pre	0		120	55.0	2.5	/experiments/knapen_AOT/AOT_stimuli/rescaled_final/0194_fw.mp4	0.0	275.64515376091003	1.000140905380249
57	253.16262888908386	movie	1		247	55.0	2.5	/experiments/knapen_AOT/AOT_stimuli/rescaled_final/0194_fw.mp4	0.0	276.6452946662903	2.500317096710205
57	253.54654383659363	pulse	1	t		55.0	2.5	/experiments/knapen_AOT/AOT_stimuli/rescaled_final/0194_fw.mp4	0.0	277.02920961380005	
57	255.14649295806885	pulse	1	t		55.0	2.5	/experiments/knapen_AOT/AOT_stimuli/rescaled_final/0194_fw.mp4	0.0	278.62915873527527	
57	255.66294598579407	fix_post	2		12	55.0	2.5	/experiments/knapen_AOT/AOT_stimuli/rescaled_final/0194_fw.mp4	0.0	279.1456117630005	0.1000208854675293
58	255.7629668712616	fix_pre	0		119	56.0	2.5	/experiments/knapen_AOT/AOT_stimuli/rescaled_final/1214_rv.mp4	0.0	279.245632648468	0.9918510913848877
58	256.7466459274292	pulse	0	t		56.0	2.5	/experiments/knapen_AOT/AOT_stimuli/rescaled_final/1214_rv.mp4	0.0	280.2293117046356	
58	256.7548179626465	movie	1		244	56.0	2.5	/experiments/knapen_AOT/AOT_stimuli/rescaled_final/1214_rv.mp4	0.0	280.2374837398529	2.5088069438934326
58	258.35100388526917	pulse	1	t		56.0	2.5	/experiments/knapen_AOT/AOT_stimuli/rescaled_final/1214_rv.mp4	0.0	281.8336696624756	
58	259.2636249065399	fix_post	2		12	56.0	2.5	/experiments/knapen_AOT/AOT_stimuli/rescaled_final/1214_rv.mp4	0.0	282.74629068374634	0.09995007514953613
59	259.36357498168945	fix_pre	0		120	57.0	2.5	/experiments/knapen_AOT/AOT_stimuli/rescaled_final/0865_rv.mp4	0.0	282.8462407588959	1.000096082687378
59	259.94711899757385	pulse	0	t		57.0	2.5	/experiments/knapen_AOT/AOT_stimuli/rescaled_final/0865_rv.mp4	0.0	283.4297847747803	
59	260.36367106437683	movie	1		243	57.0	2.5	/experiments/knapen_AOT/AOT_stimuli/rescaled_final/0865_rv.mp4	0.0	283.84633684158325	2.500382900238037
59	261.5474588871002	pulse	1	t		57.0	2.5	/experiments/knapen_AOT/AOT_stimuli/rescaled_final/0865_rv.mp4	0.0	285.03012466430664	
59	262.86405396461487	fix_post	2		12	57.0	2.5	/experiments/knapen_AOT/AOT_stimuli/rescaled_final/0865_rv.mp4	0.0	286.3467197418213	0.09995603561401367
60	262.9640100002289	fix_pre	0		120	58.0	2.5	/experiments/knapen_AOT/AOT_stimuli/rescaled_final/0447_fw.mp4	0.0	286.4466757774353	1.0001890659332275
60	263.1477289199829	pulse	0	t		58.0	2.5	/experiments/knapen_AOT/AOT_stimuli/rescaled_final/0447_fw.mp4	0.0	286.63039469718933	
60	263.9641990661621	movie	1		244	58.0	2.5	/experiments/knapen_AOT/AOT_stimuli/rescaled_final/0447_fw.mp4	0.0	287.44686484336853	2.5003368854522705
60	264.7478108406067	pulse	1	t		58.0	2.5	/experiments/knapen_AOT/AOT_stimuli/rescaled_final/0447_fw.mp4	0.0	288.2304766178131	
60	266.3483488559723	pulse	1	t		58.0	2.5	/experiments/knapen_AOT/AOT_stimuli/rescaled_final/0447_fw.mp4	0.0	289.8310146331787	
60	266.4645359516144	fix_post	2		12	58.0	2.5	/experiments/knapen_AOT/AOT_stimuli/rescaled_final/0447_fw.mp4	0.0	289.9472017288208	0.1000509262084961
61	266.5645868778229	fix_pre	0		120	59.0	2.5	/experiments/knapen_AOT/AOT_stimuli/rescaled_final/0835_rv.mp4	0.0	290.0472526550293	1.0001521110534668
61	267.56473898887634	movie	1		243	59.0	2.5	/experiments/knapen_AOT/AOT_stimuli/rescaled_final/0835_rv.mp4	0.0	291.04740476608276	2.492305040359497
61	267.9495599269867	pulse	1	t		59.0	2.5	/experiments/knapen_AOT/AOT_stimuli/rescaled_final/0835_rv.mp4	0.0	291.4322257041931	
61	269.5486259460449	pulse	1	t		59.0	2.5	/experiments/knapen_AOT/AOT_stimuli/rescaled_final/0835_rv.mp4	0.0	293.03129172325134	
61	270.05704402923584	fix_post	2		10	59.0	2.5	/experiments/knapen_AOT/AOT_stimuli/rescaled_final/0835_rv.mp4	0.0	293.53970980644226	0.09973788261413574
62	270.15678191185	fix_pre	0		120	60.0	2.5	/experiments/knapen_AOT/AOT_stimuli/rescaled_final/0540_fw.mp4	0.0	293.6394476890564	1.000169038772583
62	271.14874601364136	pulse	0	t		60.0	2.5	/experiments/knapen_AOT/AOT_stimuli/rescaled_final/0540_fw.mp4	0.0	294.6314117908478	
62	271.15695095062256	movie	1		246	60.0	2.5	/experiments/knapen_AOT/AOT_stimuli/rescaled_final/0540_fw.mp4	0.0	294.639616727829	2.5087380409240723
62	272.74963092803955	pulse	1	t		60.0	2.5	/experiments/knapen_AOT/AOT_stimuli/rescaled_final/0540_fw.mp4	0.0	296.232296705246	
62	273.66568899154663	fix_post	2		12	60.0	2.5	/experiments/knapen_AOT/AOT_stimuli/rescaled_final/0540_fw.mp4	0.0	297.14835476875305	0.09996199607849121
63	273.7656509876251	fix_pre	0		120	61.0	2.5	/experiments/knapen_AOT/AOT_stimuli/rescaled_final/2159_fw.mp4	0.0	297.24831676483154	1.0001709461212158
63	274.3493058681488	pulse	0	t		61.0	2.5	/experiments/knapen_AOT/AOT_stimuli/rescaled_final/2159_fw.mp4	0.0	297.8319716453552	
63	274.76582193374634	movie	1		243	61.0	2.5	/experiments/knapen_AOT/AOT_stimuli/rescaled_final/2159_fw.mp4	0.0	298.24848771095276	2.5003719329833984
63	275.9496099948883	pulse	1	t		61.0	2.5	/experiments/knapen_AOT/AOT_stimuli/rescaled_final/2159_fw.mp4	0.0	299.4322757720947	
63	277.26619386672974	fix_post	2		12	61.0	2.5	/experiments/knapen_AOT/AOT_stimuli/rescaled_final/2159_fw.mp4	0.0	300.74885964393616	0.09998297691345215
64	277.3661768436432	fix_pre	0		120	62.0	2.5	/experiments/knapen_AOT/AOT_stimuli/rescaled_final/0444_rv.mp4	0.0	300.8488426208496	1.000190019607544
64	277.5497770309448	pulse	0	t		62.0	2.5	/experiments/knapen_AOT/AOT_stimuli/rescaled_final/0444_rv.mp4	0.0	301.03244280815125	
64	278.36636686325073	movie	1		243	62.0	2.5	/experiments/knapen_AOT/AOT_stimuli/rescaled_final/0444_rv.mp4	0.0	301.84903264045715	2.500427007675171
64	279.15004992485046	pulse	1	t		62.0	2.5	/experiments/knapen_AOT/AOT_stimuli/rescaled_final/0444_rv.mp4	0.0	302.6327157020569	
64	280.7538249492645	pulse	1	t		62.0	2.5	/experiments/knapen_AOT/AOT_stimuli/rescaled_final/0444_rv.mp4	0.0	304.23649072647095	
64	280.8667938709259	fix_post	2		12	62.0	2.5	/experiments/knapen_AOT/AOT_stimuli/rescaled_final/0444_rv.mp4	0.0	304.3494596481323	0.09991312026977539
65	280.9667069911957	fix_pre	0		119	63.0	2.5	blank	1.0	304.4493727684021	0.9918880462646484
65	281.9585950374603	movie	1		300	63.0	2.5	blank	1.0	305.44126081466675	2.5003488063812256
65	282.35048484802246	pulse	1	t		63.0	2.5	blank	1.0	305.8331506252289	
65	283.9507019519806	pulse	1	t		63.0	2.5	blank	1.0	307.433367729187	
65	284.45894384384155	fix_post	2		12	63.0	2.5	blank	1.0	307.941609621048	0.10003018379211426
66	284.55897402763367	fix_pre	0		120	64.0	2.5	/experiments/knapen_AOT/AOT_stimuli/rescaled_final/0850_fw.mp4	0.0	308.0416398048401	1.000133991241455
66	285.55096888542175	pulse	0	t		64.0	2.5	/experiments/knapen_AOT/AOT_stimuli/rescaled_final/0850_fw.mp4	0.0	309.0336346626282	
66	285.5591080188751	movie	1		246	64.0	2.5	/experiments/knapen_AOT/AOT_stimuli/rescaled_final/0850_fw.mp4	0.0	309.04177379608154	2.5088210105895996
66	287.1522419452667	pulse	1	t		64.0	2.5	/experiments/knapen_AOT/AOT_stimuli/rescaled_final/0850_fw.mp4	0.0	310.63490772247314	
66	288.0679290294647	fix_post	2		12	64.0	2.5	/experiments/knapen_AOT/AOT_stimuli/rescaled_final/0850_fw.mp4	0.0	311.55059480667114	0.09988689422607422
67	288.1678159236908	fix_pre	0		120	65.0	2.5	/experiments/knapen_AOT/AOT_stimuli/rescaled_final/0303_fw.mp4	0.0	311.6504817008972	1.0001599788665771
67	288.7514820098877	pulse	0	t		65.0	2.5	/experiments/knapen_AOT/AOT_stimuli/rescaled_final/0303_fw.mp4	0.0	312.2341477870941	
67	289.1679759025574	movie	1		244	65.0	2.5	/experiments/knapen_AOT/AOT_stimuli/rescaled_final/0303_fw.mp4	0.0	312.6506416797638	2.5003621578216553
67	290.3517060279846	pulse	1	t		65.0	2.5	/experiments/knapen_AOT/AOT_stimuli/rescaled_final/0303_fw.mp4	0.0	313.83437180519104	
67	291.668338060379	fix_post	2		12	65.0	2.5	/experiments/knapen_AOT/AOT_stimuli/rescaled_final/0303_fw.mp4	0.0	315.15100383758545	0.09999895095825195
68	291.7683370113373	fix_pre	0		120	66.0	2.5	/experiments/knapen_AOT/AOT_stimuli/rescaled_final/0034_fw.mp4	0.0	315.2510027885437	1.0001769065856934
68	291.95191287994385	pulse	0	t		66.0	2.5	/experiments/knapen_AOT/AOT_stimuli/rescaled_final/0034_fw.mp4	0.0	315.43457865715027	
68	292.768513917923	movie	1		243	66.0	2.5	/experiments/knapen_AOT/AOT_stimuli/rescaled_final/0034_fw.mp4	0.0	316.2511796951294	2.5003340244293213
68	293.5522940158844	pulse	1	t		66.0	2.5	/experiments/knapen_AOT/AOT_stimuli/rescaled_final/0034_fw.mp4	0.0	317.0349597930908	
68	295.1529269218445	pulse	1	t		66.0	2.5	/experiments/knapen_AOT/AOT_stimuli/rescaled_final/0034_fw.mp4	0.0	318.6355926990509	
68	295.2688479423523	fix_post	2		12	66.0	2.5	/experiments/knapen_AOT/AOT_stimuli/rescaled_final/0034_fw.mp4	0.0	318.7515137195587	0.10005307197570801
69	295.368901014328	fix_pre	0		120	67.0	2.5	/experiments/knapen_AOT/AOT_stimuli/rescaled_final/0390_fw.mp4	0.0	318.8515667915344	1.000180959701538
69	296.36908197402954	movie	1		243	67.0	2.5	/experiments/knapen_AOT/AOT_stimuli/rescaled_final/0390_fw.mp4	0.0	319.85174775123596	2.491960048675537
69	296.7531590461731	pulse	1	t		67.0	2.5	/experiments/knapen_AOT/AOT_stimuli/rescaled_final/0390_fw.mp4	0.0	320.2358248233795	
69	298.3456439971924	pulse	1	t		67.0	2.5	/experiments/knapen_AOT/AOT_stimuli/rescaled_final/0390_fw.mp4	0.0	321.8283097743988	
69	298.8610420227051	fix_post	2		12	67.0	2.5	/experiments/knapen_AOT/AOT_stimuli/rescaled_final/0390_fw.mp4	0.0	322.3437077999115	0.1000528335571289
70	298.9610948562622	fix_pre	0		120	68.0	2.5	blank	1.0	322.4437606334686	1.0001699924468994
70	299.94558691978455	pulse	0	t		68.0	2.5	blank	1.0	323.42825269699097	
70	299.9612648487091	movie	1		301	68.0	2.5	blank	1.0	323.4439306259155	2.508697032928467
70	301.54503297805786	pulse	1	t		68.0	2.5	blank	1.0	325.0276987552643	
70	302.4699618816376	fix_post	2		12	68.0	2.5	blank	1.0	325.952627658844	0.10003018379211426
71	302.5699920654297	fix_pre	0		120	69.0	2.5	/experiments/knapen_AOT/AOT_stimuli/rescaled_final/0303_fw.mp4	0.0	326.0526578426361	1.0001637935638428
71	303.14522194862366	pulse	0	t		69.0	2.5	/experiments/knapen_AOT/AOT_stimuli/rescaled_final/0303_fw.mp4	0.0	326.6278877258301	
71	303.57015585899353	movie	1		244	69.0	2.5	/experiments/knapen_AOT/AOT_stimuli/rescaled_final/0303_fw.mp4	0.0	327.05282163619995	2.500359058380127
71	304.7459728717804	pulse	1	t		69.0	2.5	/experiments/knapen_AOT/AOT_stimuli/rescaled_final/0303_fw.mp4	0.0	328.2286386489868	
71	306.07051491737366	fix_post	2		12	69.0	2.5	/experiments/knapen_AOT/AOT_stimuli/rescaled_final/0303_fw.mp4	0.0	329.5531806945801	0.09998703002929688
72	306.17050194740295	fix_pre	0		120	70.0	2.5	/experiments/knapen_AOT/AOT_stimuli/rescaled_final/1859_rv.mp4	0.0	329.6531677246094	1.000140905380249
72	306.3458409309387	pulse	0	t		70.0	2.5	/experiments/knapen_AOT/AOT_stimuli/rescaled_final/1859_rv.mp4	0.0	329.82850670814514	
72	307.1706428527832	movie	1		244	70.0	2.5	/experiments/knapen_AOT/AOT_stimuli/rescaled_final/1859_rv.mp4	0.0	330.6533086299896	2.5004501342773438
72	307.94591999053955	pulse	1	t		70.0	2.5	/experiments/knapen_AOT/AOT_stimuli/rescaled_final/1859_rv.mp4	0.0	331.428585767746	
72	309.54623103141785	pulse	1	t		70.0	2.5	/experiments/knapen_AOT/AOT_stimuli/rescaled_final/1859_rv.mp4	0.0	333.02889680862427	
72	309.67109298706055	fix_post	2		12	70.0	2.5	/experiments/knapen_AOT/AOT_stimuli/rescaled_final/1859_rv.mp4	0.0	333.15375876426697	0.0999300479888916
73	309.77102303504944	fix_pre	0		119	71.0	2.5	/experiments/knapen_AOT/AOT_stimuli/rescaled_final/0202_fw.mp4	0.0	333.25368881225586	0.9917948246002197
73	310.76281785964966	movie	1		245	71.0	2.5	/experiments/knapen_AOT/AOT_stimuli/rescaled_final/0202_fw.mp4	0.0	334.2454836368561	2.500383138656616
73	311.146919965744	pulse	1	t		71.0	2.5	/experiments/knapen_AOT/AOT_stimuli/rescaled_final/0202_fw.mp4	0.0	334.62958574295044	
73	312.74673295021057	pulse	1	t		71.0	2.5	/experiments/knapen_AOT/AOT_stimuli/rescaled_final/0202_fw.mp4	0.0	336.229398727417	
73	313.2632009983063	fix_post	2		12	71.0	2.5	/experiments/knapen_AOT/AOT_stimuli/rescaled_final/0202_fw.mp4	0.0	336.7458667755127	0.10002684593200684
74	313.3632278442383	fix_pre	0		119	72.0	2.5	/experiments/knapen_AOT/AOT_stimuli/rescaled_final/0067_rv.mp4	0.0	336.8458936214447	0.9918410778045654
74	314.3468589782715	pulse	0	t		72.0	2.5	/experiments/knapen_AOT/AOT_stimuli/rescaled_final/0067_rv.mp4	0.0	337.8295247554779	
74	314.35506892204285	movie	1		246	72.0	2.5	/experiments/knapen_AOT/AOT_stimuli/rescaled_final/0067_rv.mp4	0.0	337.83773469924927	2.508697986602783
74	315.94778084754944	pulse	1	t		72.0	2.5	/experiments/knapen_AOT/AOT_stimuli/rescaled_final/0067_rv.mp4	0.0	339.43044662475586	
74	316.86376690864563	fix_post	2		12	72.0	2.5	/experiments/knapen_AOT/AOT_stimuli/rescaled_final/0067_rv.mp4	0.0	340.34643268585205	0.10002303123474121
75	316.96378993988037	fix_pre	0		120	73.0	2.5	/experiments/knapen_AOT/AOT_stimuli/rescaled_final/0611_fw.mp4	0.0	340.4464557170868	1.0001780986785889
75	317.54743099212646	pulse	0	t		73.0	2.5	/experiments/knapen_AOT/AOT_stimuli/rescaled_final/0611_fw.mp4	0.0	341.0300967693329	
75	317.96396803855896	movie	1		244	73.0	2.5	/experiments/knapen_AOT/AOT_stimuli/rescaled_final/0611_fw.mp4	0.0	341.4466338157654	2.5003299713134766
75	319.1476979255676	pulse	1	t		73.0	2.5	/experiments/knapen_AOT/AOT_stimuli/rescaled_final/0611_fw.mp4	0.0	342.63036370277405	
75	320.46429800987244	fix_post	2		12	73.0	2.5	/experiments/knapen_AOT/AOT_stimuli/rescaled_final/0611_fw.mp4	0.0	343.94696378707886	0.10001993179321289
76	320.56431794166565	fix_pre	0		120	74.0	2.5	/experiments/knapen_AOT/AOT_stimuli/rescaled_final/0897_fw.mp4	0.0	344.04698371887207	1.000175952911377
76	320.74782705307007	pulse	0	t		74.0	2.5	/experiments/knapen_AOT/AOT_stimuli/rescaled_final/0897_fw.mp4	0.0	344.2304928302765	
76	321.564493894577	movie	1		245	74.0	2.5	/experiments/knapen_AOT/AOT_stimuli/rescaled_final/0897_fw.mp4	0.0	345.04715967178345	2.50032901763916
76	322.3482120037079	pulse	1	t		74.0	2.5	/experiments/knapen_AOT/AOT_stimuli/rescaled_final/0897_fw.mp4	0.0	345.8308777809143	
76	323.9458999633789	pulse	1	t		74.0	2.5	/experiments/knapen_AOT/AOT_stimuli/rescaled_final/0897_fw.mp4	0.0	347.4285657405853	
76	324.0648229122162	fix_post	2		12	74.0	2.5	/experiments/knapen_AOT/AOT_stimuli/rescaled_final/0897_fw.mp4	0.0	347.5474886894226	0.10001301765441895
77	324.1648359298706	fix_pre	0		119	75.0	2.5	/experiments/knapen_AOT/AOT_stimuli/rescaled_final/0917_fw.mp4	0.0	347.647501707077	0.9918220043182373
77	325.15665793418884	movie	1		244	75.0	2.5	/experiments/knapen_AOT/AOT_stimuli/rescaled_final/0917_fw.mp4	0.0	348.63932371139526	2.500382900238037
77	325.5487768650055	pulse	1	t		75.0	2.5	/experiments/knapen_AOT/AOT_stimuli/rescaled_final/0917_fw.mp4	0.0	349.0314426422119	
77	327.1487810611725	pulse	1	t		75.0	2.5	/experiments/knapen_AOT/AOT_stimuli/rescaled_final/0917_fw.mp4	0.0	350.6314468383789	
77	327.6570408344269	fix_post	2		12	75.0	2.5	/experiments/knapen_AOT/AOT_stimuli/rescaled_final/0917_fw.mp4	0.0	351.1397066116333	0.09996604919433594
78	327.7570068836212	fix_pre	0		120	76.0	2.5	blank	1.0	351.23967266082764	1.00018310546875
78	328.74906492233276	pulse	0	t		76.0	2.5	blank	1.0	352.2317306995392	
78	328.75718998908997	movie	1		301	76.0	2.5	blank	1.0	352.2398557662964	2.50872802734375
78	330.34934997558594	pulse	1	t		76.0	2.5	blank	1.0	353.83201575279236	
78	331.2659180164337	fix_post	2		12	76.0	2.5	blank	1.0	354.74858379364014	0.0999908447265625
79	331.3659088611603	fix_pre	0		120	77.0	2.5	/experiments/knapen_AOT/AOT_stimuli/rescaled_final/0306_fw.mp4	0.0	354.8485746383667	1.0001699924468994
79	331.9496350288391	pulse	0	t		77.0	2.5	/experiments/knapen_AOT/AOT_stimuli/rescaled_final/0306_fw.mp4	0.0	355.43230080604553	
79	332.3660788536072	movie	1		247	77.0	2.5	/experiments/knapen_AOT/AOT_stimuli/rescaled_final/0306_fw.mp4	0.0	355.8487446308136	2.500364065170288
79	333.54994201660156	pulse	1	t		77.0	2.5	/experiments/knapen_AOT/AOT_stimuli/rescaled_final/0306_fw.mp4	0.0	357.032607793808	
79	334.86644291877747	fix_post	2		12	77.0	2.5	/experiments/knapen_AOT/AOT_stimuli/rescaled_final/0306_fw.mp4	0.0	358.3491086959839	0.1000070571899414
80	334.9664499759674	fix_pre	0		120	78.0	2.5	/experiments/knapen_AOT/AOT_stimuli/rescaled_final/0865_rv.mp4	0.0	358.4491157531738	1.00016188621521
80	335.15009093284607	pulse	0	t		78.0	2.5	/experiments/knapen_AOT/AOT_stimuli/rescaled_final/0865_rv.mp4	0.0	358.6327567100525	
80	335.9666118621826	movie	1		244	78.0	2.5	/experiments/knapen_AOT/AOT_stimuli/rescaled_final/0865_rv.mp4	0.0	359.44927763938904	2.500397205352783
80	336.75030994415283	pulse	1	t		78.0	2.5	/experiments/knapen_AOT/AOT_stimuli/rescaled_final/0865_rv.mp4	0.0	360.23297572135925	
80	338.35046100616455	pulse	1	t		78.0	2.5	/experiments/knapen_AOT/AOT_stimuli/rescaled_final/0865_rv.mp4	0.0	361.833126783371	
80	338.4670090675354	fix_post	2		12	78.0	2.5	/experiments/knapen_AOT/AOT_stimuli/rescaled_final/0865_rv.mp4	0.0	361.9496748447418	0.09997892379760742
81	338.566987991333	fix_pre	0		118	79.0	2.5	/experiments/knapen_AOT/AOT_stimuli/rescaled_final/0788_rv.mp4	0.0	362.04965376853943	1.0001580715179443
81	339.56714606285095	movie	1		243	79.0	2.5	/experiments/knapen_AOT/AOT_stimuli/rescaled_final/0788_rv.mp4	0.0	363.0498118400574	2.49212384223938
81	339.95212292671204	pulse	1	t		79.0	2.5	/experiments/knapen_AOT/AOT_stimuli/rescaled_final/0788_rv.mp4	0.0	363.43478870391846	
81	341.55106687545776	pulse	1	t		79.0	2.5	/experiments/knapen_AOT/AOT_stimuli/rescaled_final/0788_rv.mp4	0.0	365.0337326526642	
81	342.05926990509033	fix_post	2		12	79.0	2.5	/experiments/knapen_AOT/AOT_stimuli/rescaled_final/0788_rv.mp4	0.0	365.54193568229675	0.09987902641296387
82	342.1591489315033	fix_pre	0		120	80.0	2.5	/experiments/knapen_AOT/AOT_stimuli/rescaled_final/2064_fw.mp4	0.0	365.6418147087097	1.0002140998840332
82	343.15123295783997	pulse	0	t		80.0	2.5	/experiments/knapen_AOT/AOT_stimuli/rescaled_final/2064_fw.mp4	0.0	366.6338987350464	
82	343.15936303138733	movie	1		245	80.0	2.5	/experiments/knapen_AOT/AOT_stimuli/rescaled_final/2064_fw.mp4	0.0	366.64202880859375	2.5086560249328613
82	344.75576305389404	pulse	1	t		80.0	2.5	/experiments/knapen_AOT/AOT_stimuli/rescaled_final/2064_fw.mp4	0.0	368.23842883110046	
82	345.6680190563202	fix_post	2		12	80.0	2.5	/experiments/knapen_AOT/AOT_stimuli/rescaled_final/2064_fw.mp4	0.0	369.1506848335266	0.10010981559753418
83	345.7681288719177	fix_pre	0		120	81.0	2.5	/experiments/knapen_AOT/AOT_stimuli/rescaled_final/0074_fw.mp4	0.0	369.25079464912415	1.0001041889190674
83	346.3518009185791	pulse	0	t		81.0	2.5	/experiments/knapen_AOT/AOT_stimuli/rescaled_final/0074_fw.mp4	0.0	369.8344666957855	
83	346.7682330608368	movie	1		247	81.0	2.5	/experiments/knapen_AOT/AOT_stimuli/rescaled_final/0074_fw.mp4	0.0	370.2508988380432	2.500356912612915
83	347.9473819732666	pulse	1	t		81.0	2.5	/experiments/knapen_AOT/AOT_stimuli/rescaled_final/0074_fw.mp4	0.0	371.430047750473	
83	349.2685899734497	fix_post	2		12	81.0	2.5	/experiments/knapen_AOT/AOT_stimuli/rescaled_final/0074_fw.mp4	0.0	372.7512557506561	0.10003399848937988
84	349.3686239719391	fix_pre	0		120	82.0	2.5	blank	1.0	372.8512897491455	1.0001220703125
84	349.55216693878174	pulse	0	t		82.0	2.5	blank	1.0	373.03483271598816	
84	350.3687460422516	movie	1		300	82.0	2.5	blank	1.0	373.851411819458	2.5004079341888428
84	351.1524019241333	pulse	1	t		82.0	2.5	blank	1.0	374.6350677013397	
84	352.7527070045471	pulse	1	t		82.0	2.5	blank	1.0	376.23537278175354	
84	352.86915397644043	fix_post	2		12	82.0	2.5	blank	1.0	376.35181975364685	0.09997797012329102
85	352.9691319465637	fix_pre	0		120	83.0	2.5	/experiments/knapen_AOT/AOT_stimuli/rescaled_final/1129_fw.mp4	0.0	376.45179772377014	1.0001299381256104
85	353.96926188468933	movie	1		242	83.0	2.5	/experiments/knapen_AOT/AOT_stimuli/rescaled_final/1129_fw.mp4	0.0	377.45192766189575	2.492069959640503
85	354.35745787620544	pulse	1	t		83.0	2.5	/experiments/knapen_AOT/AOT_stimuli/rescaled_final/1129_fw.mp4	0.0	377.84012365341187	
85	355.9459159374237	pulse	1	t		83.0	2.5	/experiments/knapen_AOT/AOT_stimuli/rescaled_final/1129_fw.mp4	0.0	379.4285817146301	
85	356.46133184432983	fix_post	2		12	83.0	2.5	/experiments/knapen_AOT/AOT_stimuli/rescaled_final/1129_fw.mp4	0.0	379.94399762153625	0.09999203681945801
87	356.5613238811493	stim	0		1716					380.0439896583557	14.302247047424316
87	357.54599595069885	pulse	0	t						381.0286617279053	
87	359.14619398117065	pulse	0	t						382.6288597583771	
87	360.7454459667206	pulse	0	t						384.228111743927	
87	362.3456609249115	pulse	0	t						385.8283267021179	
87	363.94596791267395	pulse	0	t						387.42863368988037	
87	365.54630303382874	pulse	0	t						389.02896881103516	
87	367.14637899398804	pulse	0	t						390.62904477119446	
87	368.746661901474	pulse	0	t						392.2293276786804	
87	370.34686398506165	pulse	0	t						393.82952976226807	
