trial_nr	onset	event_type	phase	response	nr_frames	movie_index	movie_duration	movie_file	blank	onset_abs	duration
0	0.10831904411315918	stim	0		115					42.95079708099365	0.9581639766693115
0	1.0586111545562744	response	0	space						43.90108919143677	
1	1.0664830207824707	stim	0		4818					43.908961057662964	40.1498761177063
1	41.210243225097656	pulse	0	t						84.05272126197815	
1	41.21635913848877	stim	1		1717					84.05883717536926	14.30817699432373
1	42.808181047439575	pulse	1	t						85.65065908432007	
1	44.40819311141968	pulse	1	t						87.25067114830017	
1	46.00808310508728	pulse	1	t						88.85056114196777	
1	47.60814714431763	pulse	1	t						90.45062518119812	
1	49.208158016204834	pulse	1	t						92.05063605308533	
1	50.80802822113037	pulse	1	t						93.65050625801086	
1	52.40816020965576	pulse	1	t						95.25063824653625	
1	54.00819802284241	pulse	1	t						96.8506760597229	
2	55.5245361328125	fix_pre	0		11	0.0	2.5	/experiments/AOT/AOT_stimuli/rescaled_final/1454_rv.mp4	0.0	98.367014169693	0.09165406227111816
2	55.60802721977234	pulse	0	t		0.0	2.5	/experiments/AOT/AOT_stimuli/rescaled_final/1454_rv.mp4	0.0	98.45050525665283	
2	55.61619019508362	movie	1		245	0.0	2.5	/experiments/AOT/AOT_stimuli/rescaled_final/1454_rv.mp4	0.0	98.45866823196411	2.508384943008423
2	57.20769810676575	pulse	1	t		0.0	2.5	/experiments/AOT/AOT_stimuli/rescaled_final/1454_rv.mp4	0.0	100.05017614364624	
2	58.12457513809204	fix_post	2		12	0.0	2.5	/experiments/AOT/AOT_stimuli/rescaled_final/1454_rv.mp4	0.0	100.96705317497253	0.09996891021728516
3	58.224544048309326	fix_pre	0		120	1.0	2.5	/experiments/AOT/AOT_stimuli/rescaled_final/2016_fw.mp4	0.0	101.06702208518982	1.0000500679016113
3	58.808064222335815	pulse	0	t		1.0	2.5	/experiments/AOT/AOT_stimuli/rescaled_final/2016_fw.mp4	0.0	101.65054225921631	
3	59.22459411621094	movie	1		244	1.0	2.5	/experiments/AOT/AOT_stimuli/rescaled_final/2016_fw.mp4	0.0	102.06707215309143	2.4995269775390625
3	60.40804600715637	pulse	1	t		1.0	2.5	/experiments/AOT/AOT_stimuli/rescaled_final/2016_fw.mp4	0.0	103.25052404403687	
3	61.72412109375	fix_post	2		12	1.0	2.5	/experiments/AOT/AOT_stimuli/rescaled_final/2016_fw.mp4	0.0	104.5665991306305	0.10004806518554688
4	61.82416915893555	fix_pre	0		120	2.0	2.5	/experiments/AOT/AOT_stimuli/rescaled_final/1766_fw.mp4	0.0	104.66664719581604	1.0003330707550049
4	62.0080041885376	pulse	0	t		2.0	2.5	/experiments/AOT/AOT_stimuli/rescaled_final/1766_fw.mp4	0.0	104.85048222541809	
4	62.82450222969055	movie	1		244	2.0	2.5	/experiments/AOT/AOT_stimuli/rescaled_final/1766_fw.mp4	0.0	105.66698026657104	2.5000338554382324
4	63.60801601409912	pulse	1	t		2.0	2.5	/experiments/AOT/AOT_stimuli/rescaled_final/1766_fw.mp4	0.0	106.45049405097961	
4	65.2064700126648	pulse	1	t		2.0	2.5	/experiments/AOT/AOT_stimuli/rescaled_final/1766_fw.mp4	0.0	108.04894804954529	
4	65.32453608512878	fix_post	2		12	2.0	2.5	/experiments/AOT/AOT_stimuli/rescaled_final/1766_fw.mp4	0.0	108.16701412200928	0.09999704360961914
5	65.4245331287384	fix_pre	0		120	3.0	2.5	/experiments/AOT/AOT_stimuli/rescaled_final/0671_fw.mp4	0.0	108.2670111656189	1.0000569820404053
5	66.42459011077881	movie	1		244	3.0	2.5	/experiments/AOT/AOT_stimuli/rescaled_final/0671_fw.mp4	0.0	109.2670681476593	2.499906063079834
5	66.80754518508911	pulse	1	t		3.0	2.5	/experiments/AOT/AOT_stimuli/rescaled_final/0671_fw.mp4	0.0	109.6500232219696	
5	68.40798115730286	pulse	1	t		3.0	2.5	/experiments/AOT/AOT_stimuli/rescaled_final/0671_fw.mp4	0.0	111.25045919418335	
5	68.92449617385864	fix_post	2		12	3.0	2.5	/experiments/AOT/AOT_stimuli/rescaled_final/0671_fw.mp4	0.0	111.76697421073914	0.09996986389160156
6	69.02446603775024	fix_pre	0		119	4.0	2.5	/experiments/AOT/AOT_stimuli/rescaled_final/2145_rv.mp4	0.0	111.86694407463074	0.991732120513916
6	70.00802421569824	pulse	0	t		4.0	2.5	/experiments/AOT/AOT_stimuli/rescaled_final/2145_rv.mp4	0.0	112.85050225257874	
6	70.01619815826416	movie	1		245	4.0	2.5	/experiments/AOT/AOT_stimuli/rescaled_final/2145_rv.mp4	0.0	112.85867619514465	2.5082969665527344
6	71.60751914978027	pulse	1	t		4.0	2.5	/experiments/AOT/AOT_stimuli/rescaled_final/2145_rv.mp4	0.0	114.44999718666077	
6	72.5244951248169	fix_post	2		12	4.0	2.5	/experiments/AOT/AOT_stimuli/rescaled_final/2145_rv.mp4	0.0	115.36697316169739	0.09995889663696289
7	72.62445402145386	fix_pre	0		120	5.0	2.5	blank	1.0	115.46693205833435	1.000049114227295
7	73.20807218551636	pulse	0	t		5.0	2.5	blank	1.0	116.05055022239685	
7	73.62450313568115	movie	1		300	5.0	2.5	blank	1.0	116.46698117256165	2.499906063079834
7	74.80798506736755	pulse	1	t		5.0	2.5	blank	1.0	117.65046310424805	
7	76.12440919876099	fix_post	2		12	5.0	2.5	blank	1.0	118.96688723564148	0.1000678539276123
8	76.2244770526886	fix_pre	0		120	6.0	2.5	/experiments/AOT/AOT_stimuli/rescaled_final/1828_fw.mp4	0.0	119.06695508956909	0.9995369911193848
8	76.4079430103302	pulse	0	t		6.0	2.5	/experiments/AOT/AOT_stimuli/rescaled_final/1828_fw.mp4	0.0	119.2504210472107	
8	77.22401404380798	movie	1		244	6.0	2.5	/experiments/AOT/AOT_stimuli/rescaled_final/1828_fw.mp4	0.0	120.06649208068848	2.5004820823669434
8	78.00799608230591	pulse	1	t		6.0	2.5	/experiments/AOT/AOT_stimuli/rescaled_final/1828_fw.mp4	0.0	120.8504741191864	
8	79.60672903060913	pulse	1	t		6.0	2.5	/experiments/AOT/AOT_stimuli/rescaled_final/1828_fw.mp4	0.0	122.44920706748962	
8	79.72449612617493	fix_post	2		12	6.0	2.5	/experiments/AOT/AOT_stimuli/rescaled_final/1828_fw.mp4	0.0	122.56697416305542	0.09989809989929199
9	79.82439422607422	fix_pre	0		120	7.0	2.5	/experiments/AOT/AOT_stimuli/rescaled_final/0021_fw.mp4	0.0	122.66687226295471	1.0001258850097656
9	80.82452011108398	movie	1		245	7.0	2.5	/experiments/AOT/AOT_stimuli/rescaled_final/0021_fw.mp4	0.0	123.66699814796448	2.499933958053589
9	81.20779514312744	pulse	1	t		7.0	2.5	/experiments/AOT/AOT_stimuli/rescaled_final/0021_fw.mp4	0.0	124.05027318000793	
9	82.80802202224731	pulse	1	t		7.0	2.5	/experiments/AOT/AOT_stimuli/rescaled_final/0021_fw.mp4	0.0	125.65050005912781	
9	83.32445406913757	fix_post	2		12	7.0	2.5	/experiments/AOT/AOT_stimuli/rescaled_final/0021_fw.mp4	0.0	126.16693210601807	0.10002303123474121
10	83.42447710037231	fix_pre	0		119	8.0	2.5	/experiments/AOT/AOT_stimuli/rescaled_final/0448_fw.mp4	0.0	126.26695513725281	0.9915869235992432
10	84.4079761505127	pulse	0	t		8.0	2.5	/experiments/AOT/AOT_stimuli/rescaled_final/0448_fw.mp4	0.0	127.25045418739319	
10	84.41606402397156	movie	1		244	8.0	2.5	/experiments/AOT/AOT_stimuli/rescaled_final/0448_fw.mp4	0.0	127.25854206085205	2.508296012878418
10	86.00752401351929	pulse	1	t		8.0	2.5	/experiments/AOT/AOT_stimuli/rescaled_final/0448_fw.mp4	0.0	128.85000205039978	
10	86.92436003684998	fix_post	2		12	8.0	2.5	/experiments/AOT/AOT_stimuli/rescaled_final/0448_fw.mp4	0.0	129.76683807373047	0.10008597373962402
11	87.0244460105896	fix_pre	0		120	9.0	2.5	/experiments/AOT/AOT_stimuli/rescaled_final/0385_fw.mp4	0.0	129.8669240474701	1.0000050067901611
11	87.60795617103577	pulse	0	t		9.0	2.5	/experiments/AOT/AOT_stimuli/rescaled_final/0385_fw.mp4	0.0	130.45043420791626	
11	88.02445101737976	movie	1		244	9.0	2.5	/experiments/AOT/AOT_stimuli/rescaled_final/0385_fw.mp4	0.0	130.86692905426025	2.4999780654907227
11	89.20802211761475	pulse	1	t		9.0	2.5	/experiments/AOT/AOT_stimuli/rescaled_final/0385_fw.mp4	0.0	132.05050015449524	
11	90.52442908287048	fix_post	2		12	9.0	2.5	/experiments/AOT/AOT_stimuli/rescaled_final/0385_fw.mp4	0.0	133.36690711975098	0.09994196891784668
12	90.62437105178833	fix_pre	0		120	10.0	2.5	/experiments/AOT/AOT_stimuli/rescaled_final/0711_fw.mp4	0.0	133.46684908866882	1.0000600814819336
12	90.80793023109436	pulse	0	t		10.0	2.5	/experiments/AOT/AOT_stimuli/rescaled_final/0711_fw.mp4	0.0	133.65040826797485	
12	91.62443113327026	movie	1		245	10.0	2.5	/experiments/AOT/AOT_stimuli/rescaled_final/0711_fw.mp4	0.0	134.46690917015076	2.4999358654022217
12	92.407968044281	pulse	1	t		10.0	2.5	/experiments/AOT/AOT_stimuli/rescaled_final/0711_fw.mp4	0.0	135.2504460811615	
12	94.00671601295471	pulse	1	t		10.0	2.5	/experiments/AOT/AOT_stimuli/rescaled_final/0711_fw.mp4	0.0	136.8491940498352	
12	94.12436699867249	fix_post	2		12	10.0	2.5	/experiments/AOT/AOT_stimuli/rescaled_final/0711_fw.mp4	0.0	136.96684503555298	0.10005903244018555
13	94.22442603111267	fix_pre	0		120	11.0	2.5	/experiments/AOT/AOT_stimuli/rescaled_final/0993_fw.mp4	0.0	137.06690406799316	0.9999961853027344
13	95.2244222164154	movie	1		244	11.0	2.5	/experiments/AOT/AOT_stimuli/rescaled_final/0993_fw.mp4	0.0	138.0669002532959	2.4999358654022217
13	95.60920310020447	pulse	1	t		11.0	2.5	/experiments/AOT/AOT_stimuli/rescaled_final/0993_fw.mp4	0.0	138.45168113708496	
13	97.20788908004761	pulse	1	t		11.0	2.5	/experiments/AOT/AOT_stimuli/rescaled_final/0993_fw.mp4	0.0	140.0503671169281	
13	97.72435808181763	fix_post	2		12	11.0	2.5	/experiments/AOT/AOT_stimuli/rescaled_final/0993_fw.mp4	0.0	140.56683611869812	0.10003995895385742
14	97.82439804077148	fix_pre	0		119	12.0	2.5	/experiments/AOT/AOT_stimuli/rescaled_final/1100_fw.mp4	0.0	140.66687607765198	0.9916131496429443
14	98.80789709091187	pulse	0	t		12.0	2.5	/experiments/AOT/AOT_stimuli/rescaled_final/1100_fw.mp4	0.0	141.65037512779236	
14	98.81601119041443	movie	1		245	12.0	2.5	/experiments/AOT/AOT_stimuli/rescaled_final/1100_fw.mp4	0.0	141.65848922729492	2.5083658695220947
14	100.40728306770325	pulse	1	t		12.0	2.5	/experiments/AOT/AOT_stimuli/rescaled_final/1100_fw.mp4	0.0	143.24976110458374	
14	101.32437705993652	fix_post	2		12	12.0	2.5	/experiments/AOT/AOT_stimuli/rescaled_final/1100_fw.mp4	0.0	144.16685509681702	0.0999901294708252
15	101.42436718940735	fix_pre	0		120	13.0	2.5	/experiments/AOT/AOT_stimuli/rescaled_final/0735_fw.mp4	0.0	144.26684522628784	1.0000519752502441
15	102.00795221328735	pulse	0	t		13.0	2.5	/experiments/AOT/AOT_stimuli/rescaled_final/0735_fw.mp4	0.0	144.85043025016785	
15	102.42441916465759	movie	1		245	13.0	2.5	/experiments/AOT/AOT_stimuli/rescaled_final/0735_fw.mp4	0.0	145.2668972015381	2.4994869232177734
15	103.60788607597351	pulse	1	t		13.0	2.5	/experiments/AOT/AOT_stimuli/rescaled_final/0735_fw.mp4	0.0	146.450364112854	
15	104.92390608787537	fix_post	2		12	13.0	2.5	/experiments/AOT/AOT_stimuli/rescaled_final/0735_fw.mp4	0.0	147.76638412475586	0.10043191909790039
16	105.02433800697327	fix_pre	0		120	14.0	2.5	blank	1.0	147.86681604385376	1.0001180171966553
16	105.20793199539185	pulse	0	t		14.0	2.5	blank	1.0	148.05041003227234	
16	106.02445602416992	movie	1		300	14.0	2.5	blank	1.0	148.86693406105042	2.499540090560913
16	106.80782222747803	pulse	1	t		14.0	2.5	blank	1.0	149.65030026435852	
16	108.40744018554688	pulse	1	t		14.0	2.5	blank	1.0	151.24991822242737	
16	108.52399611473083	fix_post	2		12	14.0	2.5	blank	1.0	151.36647415161133	0.09997105598449707
17	108.62396717071533	fix_pre	0		120	15.0	2.5	/experiments/AOT/AOT_stimuli/rescaled_final/1026_rv.mp4	0.0	151.46644520759583	1.0000739097595215
17	109.62404108047485	movie	1		244	15.0	2.5	/experiments/AOT/AOT_stimuli/rescaled_final/1026_rv.mp4	0.0	152.46651911735535	2.50032901763916
17	110.00753808021545	pulse	1	t		15.0	2.5	/experiments/AOT/AOT_stimuli/rescaled_final/1026_rv.mp4	0.0	152.85001611709595	
17	111.60781908035278	pulse	1	t		15.0	2.5	/experiments/AOT/AOT_stimuli/rescaled_final/1026_rv.mp4	0.0	154.45029711723328	
17	112.12437009811401	fix_post	2		12	15.0	2.5	/experiments/AOT/AOT_stimuli/rescaled_final/1026_rv.mp4	0.0	154.9668481349945	0.09996199607849121
18	112.2243320941925	fix_pre	0		119	16.0	2.5	/experiments/AOT/AOT_stimuli/rescaled_final/1269_rv.mp4	0.0	155.066810131073	0.9917619228363037
18	113.20783615112305	pulse	0	t		16.0	2.5	/experiments/AOT/AOT_stimuli/rescaled_final/1269_rv.mp4	0.0	156.05031418800354	
18	113.21609401702881	movie	1		247	16.0	2.5	/experiments/AOT/AOT_stimuli/rescaled_final/1269_rv.mp4	0.0	156.0585720539093	2.5082662105560303
18	114.80801701545715	pulse	1	t		16.0	2.5	/experiments/AOT/AOT_stimuli/rescaled_final/1269_rv.mp4	0.0	157.65049505233765	
18	115.72436022758484	fix_post	2		12	16.0	2.5	/experiments/AOT/AOT_stimuli/rescaled_final/1269_rv.mp4	0.0	158.56683826446533	0.09988689422607422
19	115.82424712181091	fix_pre	0		120	17.0	2.5	/experiments/AOT/AOT_stimuli/rescaled_final/1711_fw.mp4	0.0	158.6667251586914	0.999661922454834
19	116.40775513648987	pulse	0	t		17.0	2.5	/experiments/AOT/AOT_stimuli/rescaled_final/1711_fw.mp4	0.0	159.25023317337036	
19	116.82390904426575	movie	1		245	17.0	2.5	/experiments/AOT/AOT_stimuli/rescaled_final/1711_fw.mp4	0.0	159.66638708114624	2.5
19	118.00783705711365	pulse	1	t		17.0	2.5	/experiments/AOT/AOT_stimuli/rescaled_final/1711_fw.mp4	0.0	160.85031509399414	
19	119.32390904426575	fix_post	2		12	17.0	2.5	/experiments/AOT/AOT_stimuli/rescaled_final/1711_fw.mp4	0.0	162.16638708114624	0.1003110408782959
20	119.42422008514404	fix_pre	0		120	18.0	2.5	/experiments/AOT/AOT_stimuli/rescaled_final/1661_fw.mp4	0.0	162.26669812202454	1.000025987625122
20	119.60776114463806	pulse	0	t		18.0	2.5	/experiments/AOT/AOT_stimuli/rescaled_final/1661_fw.mp4	0.0	162.45023918151855	
20	120.42424607276917	movie	1		245	18.0	2.5	/experiments/AOT/AOT_stimuli/rescaled_final/1661_fw.mp4	0.0	163.26672410964966	2.4999780654907227
20	121.20771217346191	pulse	1	t		18.0	2.5	/experiments/AOT/AOT_stimuli/rescaled_final/1661_fw.mp4	0.0	164.0501902103424	
20	122.80699801445007	pulse	1	t		18.0	2.5	/experiments/AOT/AOT_stimuli/rescaled_final/1661_fw.mp4	0.0	165.64947605133057	
20	122.92422413825989	fix_post	2		12	18.0	2.5	/experiments/AOT/AOT_stimuli/rescaled_final/1661_fw.mp4	0.0	165.76670217514038	0.10001802444458008
21	123.02424216270447	fix_pre	0		120	19.0	2.5	/experiments/AOT/AOT_stimuli/rescaled_final/1176_fw.mp4	0.0	165.86672019958496	0.9995849132537842
21	124.02382707595825	movie	1		244	19.0	2.5	/experiments/AOT/AOT_stimuli/rescaled_final/1176_fw.mp4	0.0	166.86630511283875	2.500473976135254
21	124.4073760509491	pulse	1	t		19.0	2.5	/experiments/AOT/AOT_stimuli/rescaled_final/1176_fw.mp4	0.0	167.2498540878296	
21	126.00791907310486	pulse	1	t		19.0	2.5	/experiments/AOT/AOT_stimuli/rescaled_final/1176_fw.mp4	0.0	168.85039710998535	
21	126.5243010520935	fix_post	2		12	19.0	2.5	/experiments/AOT/AOT_stimuli/rescaled_final/1176_fw.mp4	0.0	169.366779088974	0.09987807273864746
22	126.62417912483215	fix_pre	0		119	20.0	2.5	/experiments/AOT/AOT_stimuli/rescaled_final/1213_rv.mp4	0.0	169.46665716171265	0.9916830062866211
22	127.6078040599823	pulse	0	t		20.0	2.5	/experiments/AOT/AOT_stimuli/rescaled_final/1213_rv.mp4	0.0	170.4502820968628	
22	127.61586213111877	movie	1		247	20.0	2.5	/experiments/AOT/AOT_stimuli/rescaled_final/1213_rv.mp4	0.0	170.45834016799927	2.5082879066467285
22	129.20716619491577	pulse	1	t		20.0	2.5	/experiments/AOT/AOT_stimuli/rescaled_final/1213_rv.mp4	0.0	172.04964423179626	
22	130.1241500377655	fix_post	2		12	20.0	2.5	/experiments/AOT/AOT_stimuli/rescaled_final/1213_rv.mp4	0.0	172.966628074646	0.10006308555603027
23	130.22421312332153	fix_pre	0		120	21.0	2.5	blank	1.0	173.06669116020203	1.0001139640808105
23	130.80773901939392	pulse	0	t		21.0	2.5	blank	1.0	173.6502170562744	
23	131.22432708740234	movie	1		300	21.0	2.5	blank	1.0	174.06680512428284	2.4999330043792725
23	132.407879114151	pulse	1	t		21.0	2.5	blank	1.0	175.2503571510315	
23	133.72426009178162	fix_post	2		12	21.0	2.5	blank	1.0	176.5667381286621	0.0999441146850586
24	133.82420420646667	fix_pre	0		120	22.0	2.5	/experiments/AOT/AOT_stimuli/rescaled_final/0177_rv.mp4	0.0	176.66668224334717	1.000082015991211
24	134.00762104988098	pulse	0	t		22.0	2.5	/experiments/AOT/AOT_stimuli/rescaled_final/0177_rv.mp4	0.0	176.85009908676147	
24	134.82428622245789	movie	1		245	22.0	2.5	/experiments/AOT/AOT_stimuli/rescaled_final/0177_rv.mp4	0.0	177.66676425933838	2.4994919300079346
24	135.60774517059326	pulse	1	t		22.0	2.5	/experiments/AOT/AOT_stimuli/rescaled_final/0177_rv.mp4	0.0	178.45022320747375	
24	137.2060351371765	pulse	1	t		22.0	2.5	/experiments/AOT/AOT_stimuli/rescaled_final/0177_rv.mp4	0.0	180.048513174057	
24	137.32377815246582	fix_post	2		12	22.0	2.5	/experiments/AOT/AOT_stimuli/rescaled_final/0177_rv.mp4	0.0	180.1662561893463	0.10035204887390137
25	137.42413020133972	fix_pre	0		120	23.0	2.5	/experiments/AOT/AOT_stimuli/rescaled_final/0553_rv.mp4	0.0	180.26660823822021	1.0000488758087158
25	138.42417907714844	movie	1		243	23.0	2.5	/experiments/AOT/AOT_stimuli/rescaled_final/0553_rv.mp4	0.0	181.26665711402893	2.499711036682129
25	138.80739617347717	pulse	1	t		23.0	2.5	/experiments/AOT/AOT_stimuli/rescaled_final/0553_rv.mp4	0.0	181.64987421035767	
25	140.40767121315002	pulse	1	t		23.0	2.5	/experiments/AOT/AOT_stimuli/rescaled_final/0553_rv.mp4	0.0	183.25014925003052	
25	140.92389011383057	fix_post	2		12	23.0	2.5	/experiments/AOT/AOT_stimuli/rescaled_final/0553_rv.mp4	0.0	183.76636815071106	0.10034990310668945
26	141.02424001693726	fix_pre	0		119	24.0	2.5	/experiments/AOT/AOT_stimuli/rescaled_final/0553_fw.mp4	0.0	183.86671805381775	0.9916040897369385
26	142.00768113136292	pulse	0	t		24.0	2.5	/experiments/AOT/AOT_stimuli/rescaled_final/0553_fw.mp4	0.0	184.8501591682434	
26	142.0158441066742	movie	1		247	24.0	2.5	/experiments/AOT/AOT_stimuli/rescaled_final/0553_fw.mp4	0.0	184.8583221435547	2.5083210468292236
26	143.607262134552	pulse	1	t		24.0	2.5	/experiments/AOT/AOT_stimuli/rescaled_final/0553_fw.mp4	0.0	186.4497401714325	
26	144.52416515350342	fix_post	2		12	24.0	2.5	/experiments/AOT/AOT_stimuli/rescaled_final/0553_fw.mp4	0.0	187.3666431903839	0.09993505477905273
27	144.62410020828247	fix_pre	0		120	25.0	2.5	/experiments/AOT/AOT_stimuli/rescaled_final/0331_fw.mp4	0.0	187.46657824516296	1.0000579357147217
27	145.20764422416687	pulse	0	t		25.0	2.5	/experiments/AOT/AOT_stimuli/rescaled_final/0331_fw.mp4	0.0	188.05012226104736	
27	145.6241581439972	movie	1		245	25.0	2.5	/experiments/AOT/AOT_stimuli/rescaled_final/0331_fw.mp4	0.0	188.46663618087769	2.4996049404144287
27	146.80770921707153	pulse	1	t		25.0	2.5	/experiments/AOT/AOT_stimuli/rescaled_final/0331_fw.mp4	0.0	189.65018725395203	
27	148.12376308441162	fix_post	2		12	25.0	2.5	/experiments/AOT/AOT_stimuli/rescaled_final/0331_fw.mp4	0.0	190.96624112129211	0.1004331111907959
28	148.22419619560242	fix_pre	0		120	26.0	2.5	blank	1.0	191.0666742324829	0.9999828338623047
28	148.4076120853424	pulse	0	t		26.0	2.5	blank	1.0	191.2500901222229	
28	149.22417902946472	movie	1		300	26.0	2.5	blank	1.0	192.06665706634521	2.5000460147857666
28	150.00768303871155	pulse	1	t		26.0	2.5	blank	1.0	192.85016107559204	
28	151.607684135437	pulse	1	t		26.0	2.5	blank	1.0	194.4501621723175	
28	151.7242250442505	fix_post	2		12	26.0	2.5	blank	1.0	194.56670308113098	0.10005617141723633
29	151.82428121566772	fix_pre	0		120	27.0	2.5	/experiments/AOT/AOT_stimuli/rescaled_final/0147_rv.mp4	0.0	194.66675925254822	0.9999279975891113
29	152.82420921325684	movie	1		243	27.0	2.5	/experiments/AOT/AOT_stimuli/rescaled_final/0147_rv.mp4	0.0	195.66668725013733	2.499969959259033
29	153.20902800559998	pulse	1	t		27.0	2.5	/experiments/AOT/AOT_stimuli/rescaled_final/0147_rv.mp4	0.0	196.05150604248047	
29	154.80765199661255	pulse	1	t		27.0	2.5	/experiments/AOT/AOT_stimuli/rescaled_final/0147_rv.mp4	0.0	197.65013003349304	
29	155.32417917251587	fix_post	2		12	27.0	2.5	/experiments/AOT/AOT_stimuli/rescaled_final/0147_rv.mp4	0.0	198.16665720939636	0.10001301765441895
30	155.4241921901703	fix_pre	0		119	28.0	2.5	/experiments/AOT/AOT_stimuli/rescaled_final/1134_fw.mp4	0.0	198.26667022705078	0.9916238784790039
30	156.40763211250305	pulse	0	t		28.0	2.5	/experiments/AOT/AOT_stimuli/rescaled_final/1134_fw.mp4	0.0	199.25011014938354	
30	156.4158160686493	movie	1		246	28.0	2.5	/experiments/AOT/AOT_stimuli/rescaled_final/1134_fw.mp4	0.0	199.25829410552979	2.5082740783691406
30	158.0072681903839	pulse	1	t		28.0	2.5	/experiments/AOT/AOT_stimuli/rescaled_final/1134_fw.mp4	0.0	200.8497462272644	
30	158.92409014701843	fix_post	2		12	28.0	2.5	/experiments/AOT/AOT_stimuli/rescaled_final/1134_fw.mp4	0.0	201.76656818389893	0.1000368595123291
31	159.02412700653076	fix_pre	0		120	29.0	2.5	/experiments/AOT/AOT_stimuli/rescaled_final/1067_fw.mp4	0.0	201.86660504341125	0.9995381832122803
31	159.6076261997223	pulse	0	t		29.0	2.5	/experiments/AOT/AOT_stimuli/rescaled_final/1067_fw.mp4	0.0	202.45010423660278	
31	160.02366518974304	movie	1		244	29.0	2.5	/experiments/AOT/AOT_stimuli/rescaled_final/1067_fw.mp4	0.0	202.86614322662354	2.5004138946533203
31	161.20770716667175	pulse	1	t		29.0	2.5	/experiments/AOT/AOT_stimuli/rescaled_final/1067_fw.mp4	0.0	204.05018520355225	
31	162.52407908439636	fix_post	2		12	29.0	2.5	/experiments/AOT/AOT_stimuli/rescaled_final/1067_fw.mp4	0.0	205.36655712127686	0.10009908676147461
32	162.62417817115784	fix_pre	0		120	30.0	2.5	/experiments/AOT/AOT_stimuli/rescaled_final/1118_fw.mp4	0.0	205.46665620803833	1.0000379085540771
32	162.8077220916748	pulse	0	t		30.0	2.5	/experiments/AOT/AOT_stimuli/rescaled_final/1118_fw.mp4	0.0	205.6502001285553	
32	163.6242160797119	movie	1		244	30.0	2.5	/experiments/AOT/AOT_stimuli/rescaled_final/1118_fw.mp4	0.0	206.4666941165924	2.5000181198120117
32	164.40713214874268	pulse	1	t		30.0	2.5	/experiments/AOT/AOT_stimuli/rescaled_final/1118_fw.mp4	0.0	207.24961018562317	
32	166.0054612159729	pulse	1	t		30.0	2.5	/experiments/AOT/AOT_stimuli/rescaled_final/1118_fw.mp4	0.0	208.8479392528534	
32	166.12423419952393	fix_post	2		12	30.0	2.5	/experiments/AOT/AOT_stimuli/rescaled_final/1118_fw.mp4	0.0	208.96671223640442	0.10008001327514648
33	166.22431421279907	fix_pre	0		120	31.0	2.5	/experiments/AOT/AOT_stimuli/rescaled_final/1826_rv.mp4	0.0	209.06679224967957	0.9996368885040283
33	167.2239511013031	movie	1		246	31.0	2.5	/experiments/AOT/AOT_stimuli/rescaled_final/1826_rv.mp4	0.0	210.0664291381836	2.500154972076416
33	167.60734701156616	pulse	1	t		31.0	2.5	/experiments/AOT/AOT_stimuli/rescaled_final/1826_rv.mp4	0.0	210.44982504844666	
33	169.20760416984558	pulse	1	t		31.0	2.5	/experiments/AOT/AOT_stimuli/rescaled_final/1826_rv.mp4	0.0	212.05008220672607	
33	169.72410607337952	fix_post	2		12	31.0	2.5	/experiments/AOT/AOT_stimuli/rescaled_final/1826_rv.mp4	0.0	212.56658411026	0.09949207305908203
34	169.8235981464386	fix_pre	0		119	32.0	2.5	/experiments/AOT/AOT_stimuli/rescaled_final/1067_fw.mp4	0.0	212.6660761833191	0.9921538829803467
34	170.80759620666504	pulse	0	t		32.0	2.5	/experiments/AOT/AOT_stimuli/rescaled_final/1067_fw.mp4	0.0	213.65007424354553	
34	170.81575202941895	movie	1		246	32.0	2.5	/experiments/AOT/AOT_stimuli/rescaled_final/1067_fw.mp4	0.0	213.65823006629944	2.5082931518554688
34	172.40764904022217	pulse	1	t		32.0	2.5	/experiments/AOT/AOT_stimuli/rescaled_final/1067_fw.mp4	0.0	215.25012707710266	
34	173.3240451812744	fix_post	2		12	32.0	2.5	/experiments/AOT/AOT_stimuli/rescaled_final/1067_fw.mp4	0.0	216.1665232181549	0.09996199607849121
35	173.4240071773529	fix_pre	0		120	33.0	2.5	/experiments/AOT/AOT_stimuli/rescaled_final/1464_rv.mp4	0.0	216.2664852142334	1.0000710487365723
35	174.00757503509521	pulse	0	t		33.0	2.5	/experiments/AOT/AOT_stimuli/rescaled_final/1464_rv.mp4	0.0	216.8500530719757	
35	174.42407822608948	movie	1		245	33.0	2.5	/experiments/AOT/AOT_stimuli/rescaled_final/1464_rv.mp4	0.0	217.26655626296997	2.4998908042907715
35	175.60760521888733	pulse	1	t		33.0	2.5	/experiments/AOT/AOT_stimuli/rescaled_final/1464_rv.mp4	0.0	218.45008325576782	
35	176.92396903038025	fix_post	2		12	33.0	2.5	/experiments/AOT/AOT_stimuli/rescaled_final/1464_rv.mp4	0.0	219.76644706726074	0.09997701644897461
36	177.02394604682922	fix_pre	0		120	34.0	2.5	/experiments/AOT/AOT_stimuli/rescaled_final/1041_rv.mp4	0.0	219.86642408370972	1.0000510215759277
36	177.20748805999756	pulse	0	t		34.0	2.5	/experiments/AOT/AOT_stimuli/rescaled_final/1041_rv.mp4	0.0	220.04996609687805	
36	178.02399706840515	movie	1		244	34.0	2.5	/experiments/AOT/AOT_stimuli/rescaled_final/1041_rv.mp4	0.0	220.86647510528564	2.4999799728393555
36	178.80763506889343	pulse	1	t		34.0	2.5	/experiments/AOT/AOT_stimuli/rescaled_final/1041_rv.mp4	0.0	221.65011310577393	
36	180.40558910369873	pulse	1	t		34.0	2.5	/experiments/AOT/AOT_stimuli/rescaled_final/1041_rv.mp4	0.0	223.24806714057922	
36	180.5239770412445	fix_post	2		12	34.0	2.5	/experiments/AOT/AOT_stimuli/rescaled_final/1041_rv.mp4	0.0	223.366455078125	0.09995412826538086
37	180.6239311695099	fix_pre	0		120	35.0	2.5	blank	1.0	223.46640920639038	1.0000219345092773
37	181.62395310401917	movie	1		300	35.0	2.5	blank	1.0	224.46643114089966	2.5000391006469727
37	182.00743317604065	pulse	1	t		35.0	2.5	blank	1.0	224.84991121292114	
37	183.6074550151825	pulse	1	t		35.0	2.5	blank	1.0	226.449933052063	
37	184.12399220466614	fix_post	2		12	35.0	2.5	blank	1.0	226.96647024154663	0.09992694854736328
38	184.2239191532135	fix_pre	0		119	36.0	2.5	/experiments/AOT/AOT_stimuli/rescaled_final/0689_fw.mp4	0.0	227.066397190094	0.9916660785675049
38	185.2074751853943	pulse	0	t		36.0	2.5	/experiments/AOT/AOT_stimuli/rescaled_final/0689_fw.mp4	0.0	228.04995322227478	
38	185.215585231781	movie	1		246	36.0	2.5	/experiments/AOT/AOT_stimuli/rescaled_final/0689_fw.mp4	0.0	228.0580632686615	2.508408784866333
38	186.80710005760193	pulse	1	t		36.0	2.5	/experiments/AOT/AOT_stimuli/rescaled_final/0689_fw.mp4	0.0	229.64957809448242	
38	187.72399401664734	fix_post	2		12	36.0	2.5	/experiments/AOT/AOT_stimuli/rescaled_final/0689_fw.mp4	0.0	230.56647205352783	0.09998607635498047
39	187.82398009300232	fix_pre	0		120	37.0	2.5	/experiments/AOT/AOT_stimuli/rescaled_final/0960_fw.mp4	0.0	230.6664581298828	0.9999289512634277
39	188.40748405456543	pulse	0	t		37.0	2.5	/experiments/AOT/AOT_stimuli/rescaled_final/0960_fw.mp4	0.0	231.24996209144592	
39	188.82390904426575	movie	1		245	37.0	2.5	/experiments/AOT/AOT_stimuli/rescaled_final/0960_fw.mp4	0.0	231.66638708114624	2.5000081062316895
39	190.00754809379578	pulse	1	t		37.0	2.5	/experiments/AOT/AOT_stimuli/rescaled_final/0960_fw.mp4	0.0	232.85002613067627	
39	191.32391715049744	fix_post	2		12	37.0	2.5	/experiments/AOT/AOT_stimuli/rescaled_final/0960_fw.mp4	0.0	234.16639518737793	0.10000395774841309
40	191.42392110824585	fix_pre	0		120	38.0	2.5	/experiments/AOT/AOT_stimuli/rescaled_final/0521_fw.mp4	0.0	234.26639914512634	0.9999880790710449
40	191.6074721813202	pulse	0	t		38.0	2.5	/experiments/AOT/AOT_stimuli/rescaled_final/0521_fw.mp4	0.0	234.44995021820068	
40	192.4239091873169	movie	1		244	38.0	2.5	/experiments/AOT/AOT_stimuli/rescaled_final/0521_fw.mp4	0.0	235.2663872241974	2.5000498294830322
40	193.20748114585876	pulse	1	t		38.0	2.5	/experiments/AOT/AOT_stimuli/rescaled_final/0521_fw.mp4	0.0	236.04995918273926	
40	194.80600309371948	pulse	1	t		38.0	2.5	/experiments/AOT/AOT_stimuli/rescaled_final/0521_fw.mp4	0.0	237.64848113059998	
40	194.92395901679993	fix_post	2		12	38.0	2.5	/experiments/AOT/AOT_stimuli/rescaled_final/0521_fw.mp4	0.0	237.76643705368042	0.09990119934082031
41	195.02386021614075	fix_pre	0		120	39.0	2.5	/experiments/AOT/AOT_stimuli/rescaled_final/1714_fw.mp4	0.0	237.86633825302124	0.9996469020843506
41	196.0235071182251	movie	1		245	39.0	2.5	/experiments/AOT/AOT_stimuli/rescaled_final/1714_fw.mp4	0.0	238.8659851551056	2.500422954559326
41	196.40704703330994	pulse	1	t		39.0	2.5	/experiments/AOT/AOT_stimuli/rescaled_final/1714_fw.mp4	0.0	239.24952507019043	
41	198.0075511932373	pulse	1	t		39.0	2.5	/experiments/AOT/AOT_stimuli/rescaled_final/1714_fw.mp4	0.0	240.8500292301178	
41	198.52393007278442	fix_post	2		12	39.0	2.5	/experiments/AOT/AOT_stimuli/rescaled_final/1714_fw.mp4	0.0	241.36640810966492	0.09994006156921387
42	198.62387013435364	fix_pre	0		119	40.0	2.5	/experiments/AOT/AOT_stimuli/rescaled_final/0687_rv.mp4	0.0	241.46634817123413	0.9917168617248535
42	199.60733604431152	pulse	0	t		40.0	2.5	/experiments/AOT/AOT_stimuli/rescaled_final/0687_rv.mp4	0.0	242.44981408119202	
42	199.6155869960785	movie	1		245	40.0	2.5	/experiments/AOT/AOT_stimuli/rescaled_final/0687_rv.mp4	0.0	242.45806503295898	2.508287191390991
42	201.20834708213806	pulse	1	t		40.0	2.5	/experiments/AOT/AOT_stimuli/rescaled_final/0687_rv.mp4	0.0	244.05082511901855	
42	202.12387418746948	fix_post	2		12	40.0	2.5	/experiments/AOT/AOT_stimuli/rescaled_final/0687_rv.mp4	0.0	244.96635222434998	0.0999898910522461
43	202.22386407852173	fix_pre	0		120	41.0	2.5	/experiments/AOT/AOT_stimuli/rescaled_final/1714_rv.mp4	0.0	245.06634211540222	0.9999871253967285
43	202.8073492050171	pulse	0	t		41.0	2.5	/experiments/AOT/AOT_stimuli/rescaled_final/1714_rv.mp4	0.0	245.64982724189758	
43	203.22385120391846	movie	1		243	41.0	2.5	/experiments/AOT/AOT_stimuli/rescaled_final/1714_rv.mp4	0.0	246.06632924079895	2.5000088214874268
43	204.40743708610535	pulse	1	t		41.0	2.5	/experiments/AOT/AOT_stimuli/rescaled_final/1714_rv.mp4	0.0	247.24991512298584	
43	205.72386002540588	fix_post	2		12	41.0	2.5	/experiments/AOT/AOT_stimuli/rescaled_final/1714_rv.mp4	0.0	248.56633806228638	0.0999901294708252
44	205.8238501548767	fix_pre	0		120	42.0	2.5	blank	1.0	248.6663281917572	1.0000619888305664
44	206.00735116004944	pulse	0	t		42.0	2.5	blank	1.0	248.84982919692993	
44	206.82391214370728	movie	1		300	42.0	2.5	blank	1.0	249.66639018058777	2.499997854232788
44	207.60736513137817	pulse	1	t		42.0	2.5	blank	1.0	250.44984316825867	
44	209.20735907554626	pulse	1	t		42.0	2.5	blank	1.0	252.04983711242676	
44	209.32390999794006	fix_post	2		12	42.0	2.5	blank	1.0	252.16638803482056	0.10001921653747559
45	209.42392921447754	fix_pre	0		120	43.0	2.5	/experiments/AOT/AOT_stimuli/rescaled_final/1987_fw.mp4	0.0	252.26640725135803	0.999459981918335
45	210.42338919639587	movie	1		243	43.0	2.5	/experiments/AOT/AOT_stimuli/rescaled_final/1987_fw.mp4	0.0	253.26586723327637	2.5000758171081543
45	210.8075442314148	pulse	1	t		43.0	2.5	/experiments/AOT/AOT_stimuli/rescaled_final/1987_fw.mp4	0.0	253.6500222682953	
45	212.407320022583	pulse	1	t		43.0	2.5	/experiments/AOT/AOT_stimuli/rescaled_final/1987_fw.mp4	0.0	255.2497980594635	
45	212.92346501350403	fix_post	2		12	43.0	2.5	/experiments/AOT/AOT_stimuli/rescaled_final/1987_fw.mp4	0.0	255.76594305038452	0.10029315948486328
46	213.0237581729889	fix_pre	0		119	44.0	2.5	/experiments/AOT/AOT_stimuli/rescaled_final/0331_fw.mp4	0.0	255.86623620986938	0.9917678833007812
46	214.00737404823303	pulse	0	t		44.0	2.5	/experiments/AOT/AOT_stimuli/rescaled_final/0331_fw.mp4	0.0	256.8498520851135	
46	214.01552605628967	movie	1		244	44.0	2.5	/experiments/AOT/AOT_stimuli/rescaled_final/0331_fw.mp4	0.0	256.85800409317017	2.508327007293701
46	215.60685420036316	pulse	1	t		44.0	2.5	/experiments/AOT/AOT_stimuli/rescaled_final/0331_fw.mp4	0.0	258.44933223724365	
46	216.52385306358337	fix_post	2		12	44.0	2.5	/experiments/AOT/AOT_stimuli/rescaled_final/0331_fw.mp4	0.0	259.36633110046387	0.09996700286865234
47	216.62382006645203	fix_pre	0		120	45.0	2.5	/experiments/AOT/AOT_stimuli/rescaled_final/0305_rv.mp4	0.0	259.4662981033325	1.0000171661376953
47	217.20734000205994	pulse	0	t		45.0	2.5	/experiments/AOT/AOT_stimuli/rescaled_final/0305_rv.mp4	0.0	260.04981803894043	
47	217.62383723258972	movie	1		245	45.0	2.5	/experiments/AOT/AOT_stimuli/rescaled_final/0305_rv.mp4	0.0	260.4663152694702	2.499579906463623
47	218.80732822418213	pulse	1	t		45.0	2.5	/experiments/AOT/AOT_stimuli/rescaled_final/0305_rv.mp4	0.0	261.6498062610626	
47	220.12341713905334	fix_post	2		12	45.0	2.5	/experiments/AOT/AOT_stimuli/rescaled_final/0305_rv.mp4	0.0	262.96589517593384	0.09999895095825195
48	220.2234160900116	fix_pre	0		120	46.0	2.5	/experiments/AOT/AOT_stimuli/rescaled_final/1116_rv.mp4	0.0	263.0658941268921	1.000075101852417
48	220.40689516067505	pulse	0	t		46.0	2.5	/experiments/AOT/AOT_stimuli/rescaled_final/1116_rv.mp4	0.0	263.24937319755554	
48	221.223491191864	movie	1		243	46.0	2.5	/experiments/AOT/AOT_stimuli/rescaled_final/1116_rv.mp4	0.0	264.0659692287445	2.499872922897339
48	222.00743412971497	pulse	1	t		46.0	2.5	/experiments/AOT/AOT_stimuli/rescaled_final/1116_rv.mp4	0.0	264.84991216659546	
48	223.605651140213	pulse	1	t		46.0	2.5	/experiments/AOT/AOT_stimuli/rescaled_final/1116_rv.mp4	0.0	266.4481291770935	
48	223.72336411476135	fix_post	2		12	46.0	2.5	/experiments/AOT/AOT_stimuli/rescaled_final/1116_rv.mp4	0.0	266.56584215164185	0.1004331111907959
49	223.82379722595215	fix_pre	0		120	47.0	2.5	/experiments/AOT/AOT_stimuli/rescaled_final/0801_fw.mp4	0.0	266.66627526283264	1.0000038146972656
49	224.8238010406494	movie	1		244	47.0	2.5	/experiments/AOT/AOT_stimuli/rescaled_final/0801_fw.mp4	0.0	267.6662790775299	2.5000059604644775
49	225.2075390815735	pulse	1	t		47.0	2.5	/experiments/AOT/AOT_stimuli/rescaled_final/0801_fw.mp4	0.0	268.050017118454	
49	226.80720615386963	pulse	1	t		47.0	2.5	/experiments/AOT/AOT_stimuli/rescaled_final/0801_fw.mp4	0.0	269.6496841907501	
49	227.3238070011139	fix_post	2		12	47.0	2.5	/experiments/AOT/AOT_stimuli/rescaled_final/0801_fw.mp4	0.0	270.1662850379944	0.09994912147521973
50	227.4237561225891	fix_pre	0		119	48.0	2.5	blank	1.0	270.2662341594696	0.991645097732544
50	228.40714406967163	pulse	0	t		48.0	2.5	blank	1.0	271.2496221065521	
50	228.41540122032166	movie	1		301	48.0	2.5	blank	1.0	271.25787925720215	2.508279800415039
50	230.00714421272278	pulse	1	t		48.0	2.5	blank	1.0	272.84962224960327	
50	230.9236810207367	fix_post	2		12	48.0	2.5	blank	1.0	273.7661590576172	0.10001301765441895
51	231.0236940383911	fix_pre	0		120	49.0	2.5	/experiments/AOT/AOT_stimuli/rescaled_final/0485_fw.mp4	0.0	273.8661720752716	1.0000481605529785
51	231.60724306106567	pulse	0	t		49.0	2.5	/experiments/AOT/AOT_stimuli/rescaled_final/0485_fw.mp4	0.0	274.44972109794617	
51	232.0237421989441	movie	1		246	49.0	2.5	/experiments/AOT/AOT_stimuli/rescaled_final/0485_fw.mp4	0.0	274.8662202358246	2.499547004699707
51	233.20731401443481	pulse	1	t		49.0	2.5	/experiments/AOT/AOT_stimuli/rescaled_final/0485_fw.mp4	0.0	276.0497920513153	
51	234.5232892036438	fix_post	2		12	49.0	2.5	/experiments/AOT/AOT_stimuli/rescaled_final/0485_fw.mp4	0.0	277.3657672405243	0.10039782524108887
52	234.6236870288849	fix_pre	0		120	50.0	2.5	/experiments/AOT/AOT_stimuli/rescaled_final/1195_fw.mp4	0.0	277.4661650657654	1.0000391006469727
52	234.80717706680298	pulse	0	t		50.0	2.5	/experiments/AOT/AOT_stimuli/rescaled_final/1195_fw.mp4	0.0	277.6496551036835	
52	235.62372612953186	movie	1		247	50.0	2.5	/experiments/AOT/AOT_stimuli/rescaled_final/1195_fw.mp4	0.0	278.46620416641235	2.499969005584717
52	236.40713500976562	pulse	1	t		50.0	2.5	/experiments/AOT/AOT_stimuli/rescaled_final/1195_fw.mp4	0.0	279.2496130466461	
52	238.00573015213013	pulse	1	t		50.0	2.5	/experiments/AOT/AOT_stimuli/rescaled_final/1195_fw.mp4	0.0	280.8482081890106	
52	238.12369513511658	fix_post	2		12	50.0	2.5	/experiments/AOT/AOT_stimuli/rescaled_final/1195_fw.mp4	0.0	280.96617317199707	0.10000395774841309
53	238.223699092865	fix_pre	0		120	51.0	2.5	/experiments/AOT/AOT_stimuli/rescaled_final/0951_fw.mp4	0.0	281.0661771297455	1.0001089572906494
53	239.22380805015564	movie	1		245	51.0	2.5	/experiments/AOT/AOT_stimuli/rescaled_final/0951_fw.mp4	0.0	282.06628608703613	2.4998161792755127
53	239.60697603225708	pulse	1	t		51.0	2.5	/experiments/AOT/AOT_stimuli/rescaled_final/0951_fw.mp4	0.0	282.4494540691376	
53	241.20737218856812	pulse	1	t		51.0	2.5	/experiments/AOT/AOT_stimuli/rescaled_final/0951_fw.mp4	0.0	284.0498502254486	
53	241.72362422943115	fix_post	2		12	51.0	2.5	/experiments/AOT/AOT_stimuli/rescaled_final/0951_fw.mp4	0.0	284.56610226631165	0.10010194778442383
54	241.82372617721558	fix_pre	0		119	52.0	2.5	/experiments/AOT/AOT_stimuli/rescaled_final/1672_fw.mp4	0.0	284.66620421409607	0.9916019439697266
54	242.80726718902588	pulse	0	t		52.0	2.5	/experiments/AOT/AOT_stimuli/rescaled_final/1672_fw.mp4	0.0	285.6497452259064	
54	242.8153281211853	movie	1		244	52.0	2.5	/experiments/AOT/AOT_stimuli/rescaled_final/1672_fw.mp4	0.0	285.6578061580658	2.507920980453491
54	244.4073121547699	pulse	1	t		52.0	2.5	/experiments/AOT/AOT_stimuli/rescaled_final/1672_fw.mp4	0.0	287.2497901916504	
54	245.3232491016388	fix_post	2		12	52.0	2.5	/experiments/AOT/AOT_stimuli/rescaled_final/1672_fw.mp4	0.0	288.1657271385193	0.09998607635498047
55	245.42323517799377	fix_pre	0		120	53.0	2.5	/experiments/AOT/AOT_stimuli/rescaled_final/0284_fw.mp4	0.0	288.26571321487427	1.0000269412994385
55	246.0071120262146	pulse	0	t		53.0	2.5	/experiments/AOT/AOT_stimuli/rescaled_final/0284_fw.mp4	0.0	288.8495900630951	
55	246.4232621192932	movie	1		242	53.0	2.5	/experiments/AOT/AOT_stimuli/rescaled_final/0284_fw.mp4	0.0	289.2657401561737	2.5005300045013428
55	247.6072871685028	pulse	1	t		53.0	2.5	/experiments/AOT/AOT_stimuli/rescaled_final/0284_fw.mp4	0.0	290.4497652053833	
55	248.92379212379456	fix_post	2		12	53.0	2.5	/experiments/AOT/AOT_stimuli/rescaled_final/0284_fw.mp4	0.0	291.76627016067505	0.09984803199768066
56	249.02364015579224	fix_pre	0		120	54.0	2.5	/experiments/AOT/AOT_stimuli/rescaled_final/0956_rv.mp4	0.0	291.86611819267273	0.9999890327453613
56	249.20719599723816	pulse	0	t		54.0	2.5	/experiments/AOT/AOT_stimuli/rescaled_final/0956_rv.mp4	0.0	292.04967403411865	
56	250.0236291885376	movie	1		243	54.0	2.5	/experiments/AOT/AOT_stimuli/rescaled_final/0956_rv.mp4	0.0	292.8661072254181	2.499997854232788
56	250.80720114707947	pulse	1	t		54.0	2.5	/experiments/AOT/AOT_stimuli/rescaled_final/0956_rv.mp4	0.0	293.64967918395996	
56	252.4058620929718	pulse	1	t		54.0	2.5	/experiments/AOT/AOT_stimuli/rescaled_final/0956_rv.mp4	0.0	295.2483401298523	
56	252.52362704277039	fix_post	2		12	54.0	2.5	/experiments/AOT/AOT_stimuli/rescaled_final/0956_rv.mp4	0.0	295.3661050796509	0.10002803802490234
57	252.6236550807953	fix_pre	0		120	55.0	2.5	/experiments/AOT/AOT_stimuli/rescaled_final/1826_fw.mp4	0.0	295.4661331176758	1.0000250339508057
57	253.6236801147461	movie	1		247	55.0	2.5	/experiments/AOT/AOT_stimuli/rescaled_final/1826_fw.mp4	0.0	296.4661581516266	2.499537944793701
57	254.00697422027588	pulse	1	t		55.0	2.5	/experiments/AOT/AOT_stimuli/rescaled_final/1826_fw.mp4	0.0	296.8494522571564	
57	255.60715222358704	pulse	1	t		55.0	2.5	/experiments/AOT/AOT_stimuli/rescaled_final/1826_fw.mp4	0.0	298.44963026046753	
57	256.1232180595398	fix_post	2		12	55.0	2.5	/experiments/AOT/AOT_stimuli/rescaled_final/1826_fw.mp4	0.0	298.9656960964203	0.09998798370361328
58	256.2232060432434	fix_pre	0		119	56.0	2.5	blank	1.0	299.0656840801239	0.9921450614929199
58	257.2070782184601	pulse	0	t		56.0	2.5	blank	1.0	300.0495562553406	
58	257.2153511047363	movie	1		301	56.0	2.5	blank	1.0	300.0578291416168	2.508183002471924
58	258.8070981502533	pulse	1	t		56.0	2.5	blank	1.0	301.6495761871338	
58	259.72353410720825	fix_post	2		12	56.0	2.5	blank	1.0	302.56601214408875	0.10010290145874023
59	259.823637008667	fix_pre	0		120	57.0	2.5	/experiments/AOT/AOT_stimuli/rescaled_final/1077_rv.mp4	0.0	302.6661150455475	0.9999370574951172
59	260.4071321487427	pulse	0	t		57.0	2.5	/experiments/AOT/AOT_stimuli/rescaled_final/1077_rv.mp4	0.0	303.24961018562317	
59	260.8235740661621	movie	1		242	57.0	2.5	/experiments/AOT/AOT_stimuli/rescaled_final/1077_rv.mp4	0.0	303.6660521030426	2.500899076461792
59	262.00709104537964	pulse	1	t		57.0	2.5	/experiments/AOT/AOT_stimuli/rescaled_final/1077_rv.mp4	0.0	304.84956908226013	
59	263.3244731426239	fix_post	2		12	57.0	2.5	/experiments/AOT/AOT_stimuli/rescaled_final/1077_rv.mp4	0.0	306.1669511795044	0.09909486770629883
60	263.4235680103302	fix_pre	0		120	58.0	2.5	/experiments/AOT/AOT_stimuli/rescaled_final/0386_rv.mp4	0.0	306.2660460472107	1.0000090599060059
60	263.6070511341095	pulse	0	t		58.0	2.5	/experiments/AOT/AOT_stimuli/rescaled_final/0386_rv.mp4	0.0	306.44952917099	
60	264.4235770702362	movie	1		244	58.0	2.5	/experiments/AOT/AOT_stimuli/rescaled_final/0386_rv.mp4	0.0	307.2660551071167	2.5000810623168945
60	265.2071030139923	pulse	1	t		58.0	2.5	/experiments/AOT/AOT_stimuli/rescaled_final/0386_rv.mp4	0.0	308.0495810508728	
60	266.8071610927582	pulse	1	t		58.0	2.5	/experiments/AOT/AOT_stimuli/rescaled_final/0386_rv.mp4	0.0	309.6496391296387	
60	266.9236581325531	fix_post	2		12	58.0	2.5	/experiments/AOT/AOT_stimuli/rescaled_final/0386_rv.mp4	0.0	309.7661361694336	0.09996199607849121
61	267.0236201286316	fix_pre	0		120	59.0	2.5	/experiments/AOT/AOT_stimuli/rescaled_final/0073_fw.mp4	0.0	309.8660981655121	0.9995710849761963
61	268.0231912136078	movie	1		243	59.0	2.5	/experiments/AOT/AOT_stimuli/rescaled_final/0073_fw.mp4	0.0	310.8656692504883	2.5003859996795654
61	268.4068422317505	pulse	1	t		59.0	2.5	/experiments/AOT/AOT_stimuli/rescaled_final/0073_fw.mp4	0.0	311.249320268631	
61	270.00694704055786	pulse	1	t		59.0	2.5	/experiments/AOT/AOT_stimuli/rescaled_final/0073_fw.mp4	0.0	312.84942507743835	
61	270.52357721328735	fix_post	2		12	59.0	2.5	/experiments/AOT/AOT_stimuli/rescaled_final/0073_fw.mp4	0.0	313.36605525016785	0.09996199607849121
62	270.62353920936584	fix_pre	0		119	60.0	2.5	/experiments/AOT/AOT_stimuli/rescaled_final/2077_fw.mp4	0.0	313.46601724624634	0.991743803024292
62	271.60703921318054	pulse	0	t		60.0	2.5	/experiments/AOT/AOT_stimuli/rescaled_final/2077_fw.mp4	0.0	314.44951725006104	
62	271.61528301239014	movie	1		243	60.0	2.5	/experiments/AOT/AOT_stimuli/rescaled_final/2077_fw.mp4	0.0	314.45776104927063	2.5082221031188965
62	273.206481218338	pulse	1	t		60.0	2.5	/experiments/AOT/AOT_stimuli/rescaled_final/2077_fw.mp4	0.0	316.0489592552185	
62	274.12350511550903	fix_post	2		12	60.0	2.5	/experiments/AOT/AOT_stimuli/rescaled_final/2077_fw.mp4	0.0	316.9659831523895	0.09998607635498047
63	274.223491191864	fix_pre	0		120	61.0	2.5	blank	1.0	317.0659692287445	0.9998059272766113
63	274.80696415901184	pulse	0	t		61.0	2.5	blank	1.0	317.64944219589233	
63	275.2232971191406	movie	1		300	61.0	2.5	blank	1.0	318.0657751560211	2.5000510215759277
63	276.4069871902466	pulse	1	t		61.0	2.5	blank	1.0	319.2494652271271	
63	277.72334814071655	fix_post	2		12	61.0	2.5	blank	1.0	320.56582617759705	0.10046100616455078
64	277.8238091468811	fix_pre	0		120	62.0	2.5	/experiments/AOT/AOT_stimuli/rescaled_final/0356_rv.mp4	0.0	320.6662871837616	0.9996318817138672
64	278.00732922554016	pulse	0	t		62.0	2.5	/experiments/AOT/AOT_stimuli/rescaled_final/0356_rv.mp4	0.0	320.84980726242065	
64	278.82344102859497	movie	1		244	62.0	2.5	/experiments/AOT/AOT_stimuli/rescaled_final/0356_rv.mp4	0.0	321.66591906547546	2.5001230239868164
64	279.60704922676086	pulse	1	t		62.0	2.5	/experiments/AOT/AOT_stimuli/rescaled_final/0356_rv.mp4	0.0	322.44952726364136	
64	281.2052481174469	pulse	1	t		62.0	2.5	/experiments/AOT/AOT_stimuli/rescaled_final/0356_rv.mp4	0.0	324.0477261543274	
64	281.3235640525818	fix_post	2		12	62.0	2.5	/experiments/AOT/AOT_stimuli/rescaled_final/0356_rv.mp4	0.0	324.1660420894623	0.09997105598449707
65	281.4235351085663	fix_pre	0		120	63.0	2.5	/experiments/AOT/AOT_stimuli/rescaled_final/0501_fw.mp4	0.0	324.2660131454468	1.0000700950622559
65	282.42360520362854	movie	1		245	63.0	2.5	/experiments/AOT/AOT_stimuli/rescaled_final/0501_fw.mp4	0.0	325.26608324050903	2.4995229244232178
65	282.80641317367554	pulse	1	t		63.0	2.5	/experiments/AOT/AOT_stimuli/rescaled_final/0501_fw.mp4	0.0	325.64889121055603	
65	284.40687322616577	pulse	1	t		63.0	2.5	/experiments/AOT/AOT_stimuli/rescaled_final/0501_fw.mp4	0.0	327.24935126304626	
65	284.92312812805176	fix_post	2		12	63.0	2.5	/experiments/AOT/AOT_stimuli/rescaled_final/0501_fw.mp4	0.0	327.76560616493225	0.1004018783569336
66	285.0235300064087	fix_pre	0		119	64.0	2.5	/experiments/AOT/AOT_stimuli/rescaled_final/0956_rv.mp4	0.0	327.8660080432892	0.9915981292724609
66	286.0069601535797	pulse	0	t		64.0	2.5	/experiments/AOT/AOT_stimuli/rescaled_final/0956_rv.mp4	0.0	328.8494381904602	
66	286.01512813568115	movie	1		245	64.0	2.5	/experiments/AOT/AOT_stimuli/rescaled_final/0956_rv.mp4	0.0	328.85760617256165	2.5083200931549072
66	287.60651206970215	pulse	1	t		64.0	2.5	/experiments/AOT/AOT_stimuli/rescaled_final/0956_rv.mp4	0.0	330.44899010658264	
66	288.52344822883606	fix_post	2		12	64.0	2.5	/experiments/AOT/AOT_stimuli/rescaled_final/0956_rv.mp4	0.0	331.36592626571655	0.10001397132873535
67	288.6234622001648	fix_pre	0		120	65.0	2.5	/experiments/AOT/AOT_stimuli/rescaled_final/0208_rv.mp4	0.0	331.4659402370453	1.0000369548797607
67	289.20692205429077	pulse	0	t		65.0	2.5	/experiments/AOT/AOT_stimuli/rescaled_final/0208_rv.mp4	0.0	332.04940009117126	
67	289.62349915504456	movie	1		245	65.0	2.5	/experiments/AOT/AOT_stimuli/rescaled_final/0208_rv.mp4	0.0	332.46597719192505	2.499933958053589
67	290.8070411682129	pulse	1	t		65.0	2.5	/experiments/AOT/AOT_stimuli/rescaled_final/0208_rv.mp4	0.0	333.6495192050934	
67	292.12343311309814	fix_post	2		12	65.0	2.5	/experiments/AOT/AOT_stimuli/rescaled_final/0208_rv.mp4	0.0	334.96591114997864	0.09967899322509766
68	292.22311210632324	fix_pre	0		120	66.0	2.5	/experiments/AOT/AOT_stimuli/rescaled_final/0468_rv.mp4	0.0	335.06559014320374	1.0003690719604492
68	292.40703201293945	pulse	0	t		66.0	2.5	/experiments/AOT/AOT_stimuli/rescaled_final/0468_rv.mp4	0.0	335.24951004981995	
68	293.2234811782837	movie	1		244	66.0	2.5	/experiments/AOT/AOT_stimuli/rescaled_final/0468_rv.mp4	0.0	336.0659592151642	2.500067949295044
68	294.0070130825043	pulse	1	t		66.0	2.5	/experiments/AOT/AOT_stimuli/rescaled_final/0468_rv.mp4	0.0	336.84949111938477	
68	295.6055521965027	pulse	1	t		66.0	2.5	/experiments/AOT/AOT_stimuli/rescaled_final/0468_rv.mp4	0.0	338.4480302333832	
68	295.72354912757874	fix_post	2		12	66.0	2.5	/experiments/AOT/AOT_stimuli/rescaled_final/0468_rv.mp4	0.0	338.56602716445923	0.09986996650695801
69	295.8234190940857	fix_pre	0		120	67.0	2.5	/experiments/AOT/AOT_stimuli/rescaled_final/1582_fw.mp4	0.0	338.6658971309662	1.0000369548797607
69	296.82345604896545	movie	1		244	67.0	2.5	/experiments/AOT/AOT_stimuli/rescaled_final/1582_fw.mp4	0.0	339.66593408584595	2.4999170303344727
69	297.2064151763916	pulse	1	t		67.0	2.5	/experiments/AOT/AOT_stimuli/rescaled_final/1582_fw.mp4	0.0	340.0488932132721	
69	298.8068861961365	pulse	1	t		67.0	2.5	/experiments/AOT/AOT_stimuli/rescaled_final/1582_fw.mp4	0.0	341.64936423301697	
69	299.3233730792999	fix_post	2		12	67.0	2.5	/experiments/AOT/AOT_stimuli/rescaled_final/1582_fw.mp4	0.0	342.1658511161804	0.10005807876586914
70	299.4234311580658	fix_pre	0		119	68.0	2.5	/experiments/AOT/AOT_stimuli/rescaled_final/0468_fw.mp4	0.0	342.2659091949463	0.9916398525238037
70	300.40700602531433	pulse	0	t		68.0	2.5	/experiments/AOT/AOT_stimuli/rescaled_final/0468_fw.mp4	0.0	343.2494840621948	
70	300.4150710105896	movie	1		245	68.0	2.5	/experiments/AOT/AOT_stimuli/rescaled_final/0468_fw.mp4	0.0	343.2575490474701	2.5084362030029297
70	302.00716400146484	pulse	1	t		68.0	2.5	/experiments/AOT/AOT_stimuli/rescaled_final/0468_fw.mp4	0.0	344.84964203834534	
70	302.92350721359253	fix_post	2		12	68.0	2.5	/experiments/AOT/AOT_stimuli/rescaled_final/0468_fw.mp4	0.0	345.765985250473	0.09990286827087402
71	303.0234100818634	fix_pre	0		120	69.0	2.5	blank	1.0	345.8658881187439	0.999596118927002
71	303.6068789958954	pulse	0	t		69.0	2.5	blank	1.0	346.4493570327759	
71	304.0230062007904	movie	1		300	69.0	2.5	blank	1.0	346.8654842376709	2.499941825866699
71	305.2068841457367	pulse	1	t		69.0	2.5	blank	1.0	348.0493621826172	
71	306.5229480266571	fix_post	2		12	69.0	2.5	blank	1.0	349.3654260635376	0.10045719146728516
72	306.6234052181244	fix_pre	0		120	70.0	2.5	/experiments/AOT/AOT_stimuli/rescaled_final/1905_rv.mp4	0.0	349.4658832550049	0.999924898147583
72	306.80689907073975	pulse	0	t		70.0	2.5	/experiments/AOT/AOT_stimuli/rescaled_final/1905_rv.mp4	0.0	349.64937710762024	
72	307.623330116272	movie	1		243	70.0	2.5	/experiments/AOT/AOT_stimuli/rescaled_final/1905_rv.mp4	0.0	350.46580815315247	2.4999969005584717
72	308.40692019462585	pulse	1	t		70.0	2.5	/experiments/AOT/AOT_stimuli/rescaled_final/1905_rv.mp4	0.0	351.24939823150635	
72	310.0152962207794	pulse	1	t		70.0	2.5	/experiments/AOT/AOT_stimuli/rescaled_final/1905_rv.mp4	0.0	352.8577742576599	
72	310.12332701683044	fix_post	2		12	70.0	2.5	/experiments/AOT/AOT_stimuli/rescaled_final/1905_rv.mp4	0.0	352.96580505371094	0.09999203681945801
73	310.2233190536499	fix_pre	0		120	71.0	2.5	/experiments/AOT/AOT_stimuli/rescaled_final/1975_fw.mp4	0.0	353.0657970905304	1.0000340938568115
73	311.2233531475067	movie	1		246	71.0	2.5	/experiments/AOT/AOT_stimuli/rescaled_final/1975_fw.mp4	0.0	354.0658311843872	2.4995529651641846
73	311.6068000793457	pulse	1	t		71.0	2.5	/experiments/AOT/AOT_stimuli/rescaled_final/1975_fw.mp4	0.0	354.4492781162262	
73	313.2068741321564	pulse	1	t		71.0	2.5	/experiments/AOT/AOT_stimuli/rescaled_final/1975_fw.mp4	0.0	356.04935216903687	
73	313.7229061126709	fix_post	2		12	71.0	2.5	/experiments/AOT/AOT_stimuli/rescaled_final/1975_fw.mp4	0.0	356.5653841495514	0.10039997100830078
74	313.8233060836792	fix_pre	0		119	72.0	2.5	/experiments/AOT/AOT_stimuli/rescaled_final/1800_fw.mp4	0.0	356.6657841205597	0.99173903465271
74	314.8068871498108	pulse	0	t		72.0	2.5	/experiments/AOT/AOT_stimuli/rescaled_final/1800_fw.mp4	0.0	357.6493651866913	
74	314.8150451183319	movie	1		245	72.0	2.5	/experiments/AOT/AOT_stimuli/rescaled_final/1800_fw.mp4	0.0	357.6575231552124	2.507917881011963
74	316.406357049942	pulse	1	t		72.0	2.5	/experiments/AOT/AOT_stimuli/rescaled_final/1800_fw.mp4	0.0	359.2488350868225	
74	317.3229629993439	fix_post	2		12	72.0	2.5	/experiments/AOT/AOT_stimuli/rescaled_final/1800_fw.mp4	0.0	360.16544103622437	0.10038900375366211
75	317.42335200309753	fix_pre	0		120	73.0	2.5	/experiments/AOT/AOT_stimuli/rescaled_final/0587_rv.mp4	0.0	360.265830039978	0.9999740123748779
75	318.00687623023987	pulse	0	t		73.0	2.5	/experiments/AOT/AOT_stimuli/rescaled_final/0587_rv.mp4	0.0	360.84935426712036	
75	318.4233260154724	movie	1		245	73.0	2.5	/experiments/AOT/AOT_stimuli/rescaled_final/0587_rv.mp4	0.0	361.2658040523529	2.4999501705169678
75	319.60689401626587	pulse	1	t		73.0	2.5	/experiments/AOT/AOT_stimuli/rescaled_final/0587_rv.mp4	0.0	362.44937205314636	
75	320.9232761859894	fix_post	2		12	73.0	2.5	/experiments/AOT/AOT_stimuli/rescaled_final/0587_rv.mp4	0.0	363.7657542228699	0.10008597373962402
76	321.023362159729	fix_pre	0		120	74.0	2.5	/experiments/AOT/AOT_stimuli/rescaled_final/0033_fw.mp4	0.0	363.8658401966095	0.9999420642852783
76	321.20691323280334	pulse	0	t		74.0	2.5	/experiments/AOT/AOT_stimuli/rescaled_final/0033_fw.mp4	0.0	364.04939126968384	
76	322.0233042240143	movie	1		246	74.0	2.5	/experiments/AOT/AOT_stimuli/rescaled_final/0033_fw.mp4	0.0	364.8657822608948	2.5000009536743164
76	322.80682706832886	pulse	1	t		74.0	2.5	/experiments/AOT/AOT_stimuli/rescaled_final/0033_fw.mp4	0.0	365.64930510520935	
76	324.40673208236694	pulse	1	t		74.0	2.5	/experiments/AOT/AOT_stimuli/rescaled_final/0033_fw.mp4	0.0	367.24921011924744	
76	324.5233051776886	fix_post	2		12	74.0	2.5	/experiments/AOT/AOT_stimuli/rescaled_final/0033_fw.mp4	0.0	367.3657832145691	0.10003995895385742
77	324.62334513664246	fix_pre	0		120	75.0	2.5	blank	1.0	367.46582317352295	0.9995219707489014
77	325.62286710739136	movie	1		300	75.0	2.5	blank	1.0	368.46534514427185	2.5005929470062256
77	326.0067160129547	pulse	1	t		75.0	2.5	blank	1.0	368.8491940498352	
77	327.6067621707916	pulse	1	t		75.0	2.5	blank	1.0	370.4492402076721	
77	328.1234600543976	fix_post	2		12	75.0	2.5	blank	1.0	370.9659380912781	0.09979414939880371
78	328.2232542037964	fix_pre	0		119	76.0	2.5	/experiments/AOT/AOT_stimuli/rescaled_final/1622_fw.mp4	0.0	371.0657322406769	0.9917099475860596
78	329.20681405067444	pulse	0	t		76.0	2.5	/experiments/AOT/AOT_stimuli/rescaled_final/1622_fw.mp4	0.0	372.04929208755493	
78	329.21496415138245	movie	1		244	76.0	2.5	/experiments/AOT/AOT_stimuli/rescaled_final/1622_fw.mp4	0.0	372.05744218826294	2.507920980453491
78	330.8062651157379	pulse	1	t		76.0	2.5	/experiments/AOT/AOT_stimuli/rescaled_final/1622_fw.mp4	0.0	373.6487431526184	
78	331.72288513183594	fix_post	2		12	76.0	2.5	/experiments/AOT/AOT_stimuli/rescaled_final/1622_fw.mp4	0.0	374.56536316871643	0.09998297691345215
79	331.8228681087494	fix_pre	0		120	77.0	2.5	/experiments/AOT/AOT_stimuli/rescaled_final/1486_fw.mp4	0.0	374.6653461456299	1.0000600814819336
79	332.4064121246338	pulse	0	t		77.0	2.5	/experiments/AOT/AOT_stimuli/rescaled_final/1486_fw.mp4	0.0	375.2488901615143	
79	332.8229281902313	movie	1		245	77.0	2.5	/experiments/AOT/AOT_stimuli/rescaled_final/1486_fw.mp4	0.0	375.6654062271118	2.4999539852142334
79	334.0067341327667	pulse	1	t		77.0	2.5	/experiments/AOT/AOT_stimuli/rescaled_final/1486_fw.mp4	0.0	376.8492121696472	
79	335.32288217544556	fix_post	2		12	77.0	2.5	/experiments/AOT/AOT_stimuli/rescaled_final/1486_fw.mp4	0.0	378.16536021232605	0.10041594505310059
80	335.42329812049866	fix_pre	0		120	78.0	2.5	/experiments/AOT/AOT_stimuli/rescaled_final/0711_rv.mp4	0.0	378.26577615737915	0.9999508857727051
80	335.6067340373993	pulse	0	t		78.0	2.5	/experiments/AOT/AOT_stimuli/rescaled_final/0711_rv.mp4	0.0	378.4492120742798	
80	336.42324900627136	movie	1		244	78.0	2.5	/experiments/AOT/AOT_stimuli/rescaled_final/0711_rv.mp4	0.0	379.26572704315186	2.4995501041412354
80	337.20669507980347	pulse	1	t		78.0	2.5	/experiments/AOT/AOT_stimuli/rescaled_final/0711_rv.mp4	0.0	380.04917311668396	
80	338.81506299972534	pulse	1	t		78.0	2.5	/experiments/AOT/AOT_stimuli/rescaled_final/0711_rv.mp4	0.0	381.65754103660583	
80	338.9227991104126	fix_post	2		12	78.0	2.5	/experiments/AOT/AOT_stimuli/rescaled_final/0711_rv.mp4	0.0	381.7652771472931	0.10042309761047363
81	339.02322220802307	fix_pre	0		120	79.0	2.5	/experiments/AOT/AOT_stimuli/rescaled_final/0451_fw.mp4	0.0	381.86570024490356	0.9999558925628662
81	340.02317810058594	movie	1		245	79.0	2.5	/experiments/AOT/AOT_stimuli/rescaled_final/0451_fw.mp4	0.0	382.86565613746643	2.500082015991211
81	340.40613412857056	pulse	1	t		79.0	2.5	/experiments/AOT/AOT_stimuli/rescaled_final/0451_fw.mp4	0.0	383.24861216545105	
81	342.0066411495209	pulse	1	t		79.0	2.5	/experiments/AOT/AOT_stimuli/rescaled_final/0451_fw.mp4	0.0	384.84911918640137	
81	342.52326011657715	fix_post	2		12	79.0	2.5	/experiments/AOT/AOT_stimuli/rescaled_final/0451_fw.mp4	0.0	385.36573815345764	0.09994792938232422
82	342.6232080459595	fix_pre	0		119	80.0	2.5	/experiments/AOT/AOT_stimuli/rescaled_final/0614_fw.mp4	0.0	385.46568608283997	0.991645097732544
82	343.606730222702	pulse	0	t		80.0	2.5	/experiments/AOT/AOT_stimuli/rescaled_final/0614_fw.mp4	0.0	386.4492082595825	
82	343.614853143692	movie	1		248	80.0	2.5	/experiments/AOT/AOT_stimuli/rescaled_final/0614_fw.mp4	0.0	386.4573311805725	2.50832200050354
82	345.20664715766907	pulse	1	t		80.0	2.5	/experiments/AOT/AOT_stimuli/rescaled_final/0614_fw.mp4	0.0	388.04912519454956	
82	346.12317514419556	fix_post	2		12	80.0	2.5	/experiments/AOT/AOT_stimuli/rescaled_final/0614_fw.mp4	0.0	388.96565318107605	0.09998893737792969
83	346.2231640815735	fix_pre	0		120	81.0	2.5	/experiments/AOT/AOT_stimuli/rescaled_final/0274_rv.mp4	0.0	389.065642118454	1.0000030994415283
83	346.8066952228546	pulse	0	t		81.0	2.5	/experiments/AOT/AOT_stimuli/rescaled_final/0274_rv.mp4	0.0	389.6491732597351	
83	347.223167181015	movie	1		245	81.0	2.5	/experiments/AOT/AOT_stimuli/rescaled_final/0274_rv.mp4	0.0	390.0656452178955	2.500056028366089
83	348.4068651199341	pulse	1	t		81.0	2.5	/experiments/AOT/AOT_stimuli/rescaled_final/0274_rv.mp4	0.0	391.2493431568146	
83	349.7232232093811	fix_post	2		12	81.0	2.5	/experiments/AOT/AOT_stimuli/rescaled_final/0274_rv.mp4	0.0	392.5657012462616	0.09990501403808594
84	349.8231282234192	fix_pre	0		120	82.0	2.5	/experiments/AOT/AOT_stimuli/rescaled_final/1465_fw.mp4	0.0	392.6656062602997	0.999647855758667
84	350.00675201416016	pulse	0	t		82.0	2.5	/experiments/AOT/AOT_stimuli/rescaled_final/1465_fw.mp4	0.0	392.84923005104065	
84	350.82277607917786	movie	1		245	82.0	2.5	/experiments/AOT/AOT_stimuli/rescaled_final/1465_fw.mp4	0.0	393.66525411605835	2.499927043914795
84	351.60664319992065	pulse	1	t		82.0	2.5	/experiments/AOT/AOT_stimuli/rescaled_final/1465_fw.mp4	0.0	394.44912123680115	
84	353.21501302719116	pulse	1	t		82.0	2.5	/experiments/AOT/AOT_stimuli/rescaled_final/1465_fw.mp4	0.0	396.05749106407166	
84	353.32270312309265	fix_post	2		12	82.0	2.5	/experiments/AOT/AOT_stimuli/rescaled_final/1465_fw.mp4	0.0	396.16518115997314	0.10041308403015137
85	353.4231162071228	fix_pre	0		120	83.0	2.5	blank	1.0	396.2655942440033	1.000006914138794
85	354.4231231212616	movie	1		300	83.0	2.5	blank	1.0	397.2656011581421	2.499980926513672
85	354.80663299560547	pulse	1	t		83.0	2.5	blank	1.0	397.64911103248596	
85	356.4065160751343	pulse	1	t		83.0	2.5	blank	1.0	399.24899411201477	
85	356.92310404777527	fix_post	2		12	83.0	2.5	blank	1.0	399.76558208465576	0.10003304481506348
87	357.02313709259033	stim	0		1716					399.8656151294708	14.299919128417969
87	358.0065670013428	pulse	0	t						400.84904503822327	
87	359.606614112854	pulse	0	t						402.4490921497345	
87	361.20661211013794	pulse	0	t						404.04909014701843	
87	362.80669713020325	pulse	0	t						405.64917516708374	
87	364.40663599967957	pulse	0	t						407.24911403656006	
87	366.0065760612488	pulse	0	t						408.8490540981293	
87	367.60658502578735	pulse	0	t						410.44906306266785	
87	369.20662117004395	pulse	0	t						412.04909920692444	
87	370.806529045105	pulse	0	t						413.6490070819855	
