trial_nr	onset	event_type	phase	response	nr_frames	movie_index	movie_duration	movie_file	blank	onset_abs	duration
0	0.14146780967712402	stim	0		3					15.936469078063965	0.024981021881103516
0	0.15857577323913574	response	0	space						15.953577041625977	
1	0.16644883155822754	stim	0		4767					15.961450099945068	39.739824533462524
1	39.89638090133667	pulse	0	t						55.69138216972351	
1	39.90627336502075	stim	1		1715					55.70127463340759	14.301560401916504
1	41.489418029785156	pulse	1	t						57.284419298172	
1	43.08976221084595	pulse	1	t						58.88476347923279	
1	44.68988060951233	pulse	1	t						60.48488187789917	
1	46.2901668548584	pulse	1	t						62.08516812324524	
1	47.890803813934326	pulse	1	t						63.68580508232117	
1	49.49057149887085	pulse	1	t						65.28557276725769	
1	51.09095644950867	pulse	1	t						66.88595771789551	
1	52.69110679626465	pulse	1	t						68.48610806465149	
2	54.207833766937256	fix_pre	0		11	0.0	2.5	/experiments/Knapen_AOT/AOT_stimuli/rescaled_final/1357_rv.mp4	0.0	70.0028350353241	0.10839557647705078
2	54.291388750076294	pulse	0	t		0.0	2.5	/experiments/Knapen_AOT/AOT_stimuli/rescaled_final/1357_rv.mp4	0.0	70.08639001846313	
2	54.31622934341431	movie	1		281	0.0	2.5	/experiments/Knapen_AOT/AOT_stimuli/rescaled_final/1357_rv.mp4	0.0	70.11123061180115	2.4919939041137695
2	55.89145541191101	pulse	1	t		0.0	2.5	/experiments/Knapen_AOT/AOT_stimuli/rescaled_final/1357_rv.mp4	0.0	71.68645668029785	
2	56.808223247528076	fix_post	2		12	0.0	2.5	/experiments/Knapen_AOT/AOT_stimuli/rescaled_final/1357_rv.mp4	0.0	72.60322451591492	0.10004115104675293
3	56.90826439857483	fix_pre	0		120	1.0	2.5	/experiments/Knapen_AOT/AOT_stimuli/rescaled_final/1017_rv.mp4	0.0	72.70326566696167	1.0084669589996338
3	57.491883277893066	pulse	0	t		1.0	2.5	/experiments/Knapen_AOT/AOT_stimuli/rescaled_final/1017_rv.mp4	0.0	73.28688454627991	
3	57.91673135757446	movie	1		280	1.0	2.5	/experiments/Knapen_AOT/AOT_stimuli/rescaled_final/1017_rv.mp4	0.0	73.7117326259613	2.4920732975006104
3	59.09035611152649	pulse	1	t		1.0	2.5	/experiments/Knapen_AOT/AOT_stimuli/rescaled_final/1017_rv.mp4	0.0	74.88535737991333	
3	60.40880465507507	fix_post	2		12	1.0	2.5	/experiments/Knapen_AOT/AOT_stimuli/rescaled_final/1017_rv.mp4	0.0	76.20380592346191	0.10007977485656738
4	60.50888442993164	fix_pre	0		120	2.0	2.5	/experiments/Knapen_AOT/AOT_stimuli/rescaled_final/1935_fw.mp4	0.0	76.30388569831848	1.0084545612335205
4	60.69238209724426	pulse	0	t		2.0	2.5	/experiments/Knapen_AOT/AOT_stimuli/rescaled_final/1935_fw.mp4	0.0	76.4873833656311	
4	61.51733899116516	movie	1		288	2.0	2.5	/experiments/Knapen_AOT/AOT_stimuli/rescaled_final/1935_fw.mp4	0.0	77.312340259552	2.4919650554656982
4	62.2903950214386	pulse	1	t		2.0	2.5	/experiments/Knapen_AOT/AOT_stimuli/rescaled_final/1935_fw.mp4	0.0	78.08539628982544	
4	63.89058709144592	pulse	1	t		2.0	2.5	/experiments/Knapen_AOT/AOT_stimuli/rescaled_final/1935_fw.mp4	0.0	79.68558835983276	
4	64.00930404663086	fix_post	2		12	2.0	2.5	/experiments/Knapen_AOT/AOT_stimuli/rescaled_final/1935_fw.mp4	0.0	79.8043053150177	0.10000944137573242
5	64.10931348800659	fix_pre	0		120	3.0	2.5	/experiments/Knapen_AOT/AOT_stimuli/rescaled_final/1865_rv.mp4	0.0	79.90431475639343	1.0085129737854004
5	65.11782646179199	movie	1		282	3.0	2.5	/experiments/Knapen_AOT/AOT_stimuli/rescaled_final/1865_rv.mp4	0.0	80.91282773017883	2.4920971393585205
5	65.4933967590332	pulse	1	t		3.0	2.5	/experiments/Knapen_AOT/AOT_stimuli/rescaled_final/1865_rv.mp4	0.0	81.28839802742004	
5	67.0911316871643	pulse	1	t		3.0	2.5	/experiments/Knapen_AOT/AOT_stimuli/rescaled_final/1865_rv.mp4	0.0	82.88613295555115	
5	67.60992360115051	fix_post	2		12	3.0	2.5	/experiments/Knapen_AOT/AOT_stimuli/rescaled_final/1865_rv.mp4	0.0	83.40492486953735	0.09996962547302246
6	67.70989322662354	fix_pre	0		118	4.0	2.5	/experiments/Knapen_AOT/AOT_stimuli/rescaled_final/0914_rv.mp4	0.0	83.50489449501038	0.9918289184570312
6	68.68553113937378	pulse	0	t		4.0	2.5	/experiments/Knapen_AOT/AOT_stimuli/rescaled_final/0914_rv.mp4	0.0	84.48053240776062	
6	68.70172214508057	movie	1		276	4.0	2.5	/experiments/Knapen_AOT/AOT_stimuli/rescaled_final/0914_rv.mp4	0.0	84.49672341346741	2.5003230571746826
6	70.28559112548828	pulse	1	t		4.0	2.5	/experiments/Knapen_AOT/AOT_stimuli/rescaled_final/0914_rv.mp4	0.0	86.08059239387512	
6	71.20204520225525	fix_post	2		12	4.0	2.5	/experiments/Knapen_AOT/AOT_stimuli/rescaled_final/0914_rv.mp4	0.0	86.99704647064209	0.1000211238861084
7	71.30206632614136	fix_pre	0		120	5.0	2.5	/experiments/Knapen_AOT/AOT_stimuli/rescaled_final/1533_rv.mp4	0.0	87.0970675945282	1.0085711479187012
7	71.88580083847046	pulse	0	t		5.0	2.5	/experiments/Knapen_AOT/AOT_stimuli/rescaled_final/1533_rv.mp4	0.0	87.6808021068573	
7	72.31063747406006	movie	1		286	5.0	2.5	/experiments/Knapen_AOT/AOT_stimuli/rescaled_final/1533_rv.mp4	0.0	88.1056387424469	2.491978406906128
7	73.48596000671387	pulse	1	t		5.0	2.5	/experiments/Knapen_AOT/AOT_stimuli/rescaled_final/1533_rv.mp4	0.0	89.28096127510071	
7	74.80261588096619	fix_post	2		12	5.0	2.5	/experiments/Knapen_AOT/AOT_stimuli/rescaled_final/1533_rv.mp4	0.0	90.59761714935303	0.10000419616699219
8	74.90262007713318	fix_pre	0		120	6.0	2.5	blank	1.0	90.69762134552002	1.0002384185791016
8	75.08624935150146	pulse	0	t		6.0	2.5	blank	1.0	90.8812506198883	
8	75.90285849571228	movie	1		300	6.0	2.5	blank	1.0	91.69785976409912	2.5003345012664795
8	76.68645429611206	pulse	1	t		6.0	2.5	blank	1.0	92.4814555644989	
8	78.28678035736084	pulse	1	t		6.0	2.5	blank	1.0	94.08178162574768	
8	78.40319299697876	fix_post	2		12	6.0	2.5	blank	1.0	94.1981942653656	0.09999537467956543
9	78.50318837165833	fix_pre	0		120	7.0	2.5	/experiments/Knapen_AOT/AOT_stimuli/rescaled_final/0427_rv.mp4	0.0	94.29818964004517	1.0085525512695312
9	79.51174092292786	movie	1		284	7.0	2.5	/experiments/Knapen_AOT/AOT_stimuli/rescaled_final/0427_rv.mp4	0.0	95.3067421913147	2.4919350147247314
9	79.8869698047638	pulse	1	t		7.0	2.5	/experiments/Knapen_AOT/AOT_stimuli/rescaled_final/0427_rv.mp4	0.0	95.68197107315063	
9	81.48710012435913	pulse	1	t		7.0	2.5	/experiments/Knapen_AOT/AOT_stimuli/rescaled_final/0427_rv.mp4	0.0	97.28210139274597	
9	82.00367593765259	fix_post	2		12	7.0	2.5	/experiments/Knapen_AOT/AOT_stimuli/rescaled_final/0427_rv.mp4	0.0	97.79867720603943	0.10003542900085449
10	82.10371136665344	fix_pre	0		119	8.0	2.5	/experiments/Knapen_AOT/AOT_stimuli/rescaled_final/1638_rv.mp4	0.0	97.89871263504028	1.000124454498291
10	83.08749485015869	pulse	0	t		8.0	2.5	/experiments/Knapen_AOT/AOT_stimuli/rescaled_final/1638_rv.mp4	0.0	98.88249611854553	
10	83.10383582115173	movie	1		294	8.0	2.5	/experiments/Knapen_AOT/AOT_stimuli/rescaled_final/1638_rv.mp4	0.0	98.89883708953857	2.5004489421844482
10	84.68621563911438	pulse	1	t		8.0	2.5	/experiments/Knapen_AOT/AOT_stimuli/rescaled_final/1638_rv.mp4	0.0	100.48121690750122	
10	85.60428476333618	fix_post	2		12	8.0	2.5	/experiments/Knapen_AOT/AOT_stimuli/rescaled_final/1638_rv.mp4	0.0	101.39928603172302	0.10003423690795898
11	85.70431900024414	fix_pre	0		120	9.0	2.5	/experiments/Knapen_AOT/AOT_stimuli/rescaled_final/1459_fw.mp4	0.0	101.49932026863098	1.0084691047668457
11	86.28789591789246	pulse	0	t		9.0	2.5	/experiments/Knapen_AOT/AOT_stimuli/rescaled_final/1459_fw.mp4	0.0	102.0828971862793	
11	86.71278810501099	movie	1		291	9.0	2.5	/experiments/Knapen_AOT/AOT_stimuli/rescaled_final/1459_fw.mp4	0.0	102.50778937339783	2.4920008182525635
11	87.88676357269287	pulse	1	t		9.0	2.5	/experiments/Knapen_AOT/AOT_stimuli/rescaled_final/1459_fw.mp4	0.0	103.68176484107971	
11	89.20478892326355	fix_post	2		12	9.0	2.5	/experiments/Knapen_AOT/AOT_stimuli/rescaled_final/1459_fw.mp4	0.0	104.99979019165039	0.09999608993530273
12	89.30478501319885	fix_pre	0		120	10.0	2.5	/experiments/Knapen_AOT/AOT_stimuli/rescaled_final/0290_fw.mp4	0.0	105.0997862815857	1.0085442066192627
12	89.48834872245789	pulse	0	t		10.0	2.5	/experiments/Knapen_AOT/AOT_stimuli/rescaled_final/0290_fw.mp4	0.0	105.28334999084473	
12	90.31332921981812	movie	1		293	10.0	2.5	/experiments/Knapen_AOT/AOT_stimuli/rescaled_final/0290_fw.mp4	0.0	106.10833048820496	2.49200701713562
12	91.08637523651123	pulse	1	t		10.0	2.5	/experiments/Knapen_AOT/AOT_stimuli/rescaled_final/0290_fw.mp4	0.0	106.88137650489807	
12	92.68700790405273	pulse	1	t		10.0	2.5	/experiments/Knapen_AOT/AOT_stimuli/rescaled_final/0290_fw.mp4	0.0	108.48200917243958	
12	92.80533623695374	fix_post	2		12	10.0	2.5	/experiments/Knapen_AOT/AOT_stimuli/rescaled_final/0290_fw.mp4	0.0	108.60033750534058	0.09998822212219238
13	92.90532445907593	fix_pre	0		120	11.0	2.5	/experiments/Knapen_AOT/AOT_stimuli/rescaled_final/1238_fw.mp4	0.0	108.70032572746277	1.008500337600708
13	93.91382479667664	movie	1		286	11.0	2.5	/experiments/Knapen_AOT/AOT_stimuli/rescaled_final/1238_fw.mp4	0.0	109.70882606506348	2.492009162902832
13	94.28716969490051	pulse	1	t		11.0	2.5	/experiments/Knapen_AOT/AOT_stimuli/rescaled_final/1238_fw.mp4	0.0	110.08217096328735	
13	95.8872082233429	pulse	1	t		11.0	2.5	/experiments/Knapen_AOT/AOT_stimuli/rescaled_final/1238_fw.mp4	0.0	111.68220949172974	
13	96.40583395957947	fix_post	2		12	11.0	2.5	/experiments/Knapen_AOT/AOT_stimuli/rescaled_final/1238_fw.mp4	0.0	112.20083522796631	0.10002851486206055
14	96.50586247444153	fix_pre	0		119	12.0	2.5	blank	1.0	112.30086374282837	0.9918103218078613
14	97.4895486831665	pulse	0	t		12.0	2.5	blank	1.0	113.28454995155334	
14	97.49767279624939	movie	1		301	12.0	2.5	blank	1.0	113.29267406463623	2.5087101459503174
14	99.0898118019104	pulse	1	t		12.0	2.5	blank	1.0	114.88481307029724	
14	100.0063829421997	fix_post	2		12	12.0	2.5	blank	1.0	115.80138421058655	0.10002398490905762
15	100.10640692710876	fix_pre	0		120	13.0	2.5	/experiments/Knapen_AOT/AOT_stimuli/rescaled_final/2149_rv.mp4	0.0	115.9014081954956	1.0085053443908691
15	100.69007062911987	pulse	0	t		13.0	2.5	/experiments/Knapen_AOT/AOT_stimuli/rescaled_final/2149_rv.mp4	0.0	116.48507189750671	
15	101.11491227149963	movie	1		286	13.0	2.5	/experiments/Knapen_AOT/AOT_stimuli/rescaled_final/2149_rv.mp4	0.0	116.90991353988647	2.492004632949829
15	102.28848600387573	pulse	1	t		13.0	2.5	/experiments/Knapen_AOT/AOT_stimuli/rescaled_final/2149_rv.mp4	0.0	118.08348727226257	
15	103.60691690444946	fix_post	2		12	13.0	2.5	/experiments/Knapen_AOT/AOT_stimuli/rescaled_final/2149_rv.mp4	0.0	119.4019181728363	0.10001993179321289
16	103.70693683624268	fix_pre	0		120	14.0	2.5	/experiments/Knapen_AOT/AOT_stimuli/rescaled_final/0371_fw.mp4	0.0	119.50193810462952	1.0084903240203857
16	103.89053630828857	pulse	0	t		14.0	2.5	/experiments/Knapen_AOT/AOT_stimuli/rescaled_final/0371_fw.mp4	0.0	119.68553757667542	
16	104.71542716026306	movie	1		288	14.0	2.5	/experiments/Knapen_AOT/AOT_stimuli/rescaled_final/0371_fw.mp4	0.0	120.5104284286499	2.492030143737793
16	105.48865032196045	pulse	1	t		14.0	2.5	/experiments/Knapen_AOT/AOT_stimuli/rescaled_final/0371_fw.mp4	0.0	121.28365159034729	
16	107.08906483650208	pulse	1	t		14.0	2.5	/experiments/Knapen_AOT/AOT_stimuli/rescaled_final/0371_fw.mp4	0.0	122.88406610488892	
16	107.20745730400085	fix_post	2		12	14.0	2.5	/experiments/Knapen_AOT/AOT_stimuli/rescaled_final/0371_fw.mp4	0.0	123.0024585723877	0.10003328323364258
17	107.3074905872345	fix_pre	0		120	15.0	2.5	/experiments/Knapen_AOT/AOT_stimuli/rescaled_final/0163_rv.mp4	0.0	123.10249185562134	1.0086159706115723
17	108.31610655784607	movie	1		284	15.0	2.5	/experiments/Knapen_AOT/AOT_stimuli/rescaled_final/0163_rv.mp4	0.0	124.11110782623291	2.491909980773926
17	108.68997502326965	pulse	1	t		15.0	2.5	/experiments/Knapen_AOT/AOT_stimuli/rescaled_final/0163_rv.mp4	0.0	124.4849762916565	
17	110.28941869735718	pulse	1	t		15.0	2.5	/experiments/Knapen_AOT/AOT_stimuli/rescaled_final/0163_rv.mp4	0.0	126.08441996574402	
17	110.80801653862	fix_post	2		12	15.0	2.5	/experiments/Knapen_AOT/AOT_stimuli/rescaled_final/0163_rv.mp4	0.0	126.60301780700684	0.10000228881835938
18	110.90801882743835	fix_pre	0		119	16.0	2.5	/experiments/Knapen_AOT/AOT_stimuli/rescaled_final/0702_rv.mp4	0.0	126.7030200958252	1.0001702308654785
18	111.89174842834473	pulse	0	t		16.0	2.5	/experiments/Knapen_AOT/AOT_stimuli/rescaled_final/0702_rv.mp4	0.0	127.68674969673157	
18	111.90818905830383	movie	1		278	16.0	2.5	/experiments/Knapen_AOT/AOT_stimuli/rescaled_final/0702_rv.mp4	0.0	127.70319032669067	2.5003716945648193
18	113.4908812046051	pulse	1	t		16.0	2.5	/experiments/Knapen_AOT/AOT_stimuli/rescaled_final/0702_rv.mp4	0.0	129.28588247299194	
18	114.40856075286865	fix_post	2		12	16.0	2.5	/experiments/Knapen_AOT/AOT_stimuli/rescaled_final/0702_rv.mp4	0.0	130.2035620212555	0.10011744499206543
19	114.50867819786072	fix_pre	0		120	17.0	2.5	/experiments/Knapen_AOT/AOT_stimuli/rescaled_final/1761_rv.mp4	0.0	130.30367946624756	1.0083832740783691
19	115.09216833114624	pulse	0	t		17.0	2.5	/experiments/Knapen_AOT/AOT_stimuli/rescaled_final/1761_rv.mp4	0.0	130.88716959953308	
19	115.51706147193909	movie	1		284	17.0	2.5	/experiments/Knapen_AOT/AOT_stimuli/rescaled_final/1761_rv.mp4	0.0	131.31206274032593	2.492238759994507
19	116.69074296951294	pulse	1	t		17.0	2.5	/experiments/Knapen_AOT/AOT_stimuli/rescaled_final/1761_rv.mp4	0.0	132.48574423789978	
19	118.0093002319336	fix_post	2		12	17.0	2.5	/experiments/Knapen_AOT/AOT_stimuli/rescaled_final/1761_rv.mp4	0.0	133.80430150032043	0.0998387336730957
20	118.10913896560669	fix_pre	0		120	18.0	2.5	/experiments/Knapen_AOT/AOT_stimuli/rescaled_final/1507_rv.mp4	0.0	133.90414023399353	1.0084865093231201
20	118.2927393913269	pulse	0	t		18.0	2.5	/experiments/Knapen_AOT/AOT_stimuli/rescaled_final/1507_rv.mp4	0.0	134.08774065971375	
20	119.11762547492981	movie	1		284	18.0	2.5	/experiments/Knapen_AOT/AOT_stimuli/rescaled_final/1507_rv.mp4	0.0	134.91262674331665	2.491997003555298
20	119.89081907272339	pulse	1	t		18.0	2.5	/experiments/Knapen_AOT/AOT_stimuli/rescaled_final/1507_rv.mp4	0.0	135.68582034111023	
20	121.49106431007385	pulse	1	t		18.0	2.5	/experiments/Knapen_AOT/AOT_stimuli/rescaled_final/1507_rv.mp4	0.0	137.2860655784607	
20	121.60962247848511	fix_post	2		12	18.0	2.5	/experiments/Knapen_AOT/AOT_stimuli/rescaled_final/1507_rv.mp4	0.0	137.40462374687195	0.10002827644348145
21	121.70965075492859	fix_pre	0		120	19.0	2.5	/experiments/Knapen_AOT/AOT_stimuli/rescaled_final/1238_rv.mp4	0.0	137.50465202331543	1.0084965229034424
21	122.71814727783203	movie	1		275	19.0	2.5	/experiments/Knapen_AOT/AOT_stimuli/rescaled_final/1238_rv.mp4	0.0	138.51314854621887	2.500439405441284
21	123.09319591522217	pulse	1	t		19.0	2.5	/experiments/Knapen_AOT/AOT_stimuli/rescaled_final/1238_rv.mp4	0.0	138.888197183609	
21	124.69146871566772	pulse	1	t		19.0	2.5	/experiments/Knapen_AOT/AOT_stimuli/rescaled_final/1238_rv.mp4	0.0	140.48646998405457	
21	125.21858668327332	fix_post	2		11	19.0	2.5	/experiments/Knapen_AOT/AOT_stimuli/rescaled_final/1238_rv.mp4	0.0	141.01358795166016	0.09162235260009766
22	125.31020903587341	fix_pre	0		119	20.0	2.5	blank	1.0	141.10521030426025	0.9918124675750732
22	126.28602051734924	pulse	0	t		20.0	2.5	blank	1.0	142.08102178573608	
22	126.30202150344849	movie	1		301	20.0	2.5	blank	1.0	142.09702277183533	2.5086896419525146
22	127.88618421554565	pulse	1	t		20.0	2.5	blank	1.0	143.6811854839325	
22	128.810711145401	fix_post	2		12	20.0	2.5	blank	1.0	144.60571241378784	0.1000220775604248
23	128.91073322296143	fix_pre	0		120	21.0	2.5	/experiments/Knapen_AOT/AOT_stimuli/rescaled_final/1280_fw.mp4	0.0	144.70573449134827	1.0085358619689941
23	129.48632860183716	pulse	0	t		21.0	2.5	/experiments/Knapen_AOT/AOT_stimuli/rescaled_final/1280_fw.mp4	0.0	145.281329870224	
23	129.91926908493042	movie	1		283	21.0	2.5	/experiments/Knapen_AOT/AOT_stimuli/rescaled_final/1280_fw.mp4	0.0	145.71427035331726	2.49198842048645
23	131.0863435268402	pulse	1	t		21.0	2.5	/experiments/Knapen_AOT/AOT_stimuli/rescaled_final/1280_fw.mp4	0.0	146.88134479522705	
23	132.41125750541687	fix_post	2		12	21.0	2.5	/experiments/Knapen_AOT/AOT_stimuli/rescaled_final/1280_fw.mp4	0.0	148.2062587738037	0.10002350807189941
24	132.51128101348877	fix_pre	0		120	22.0	2.5	/experiments/Knapen_AOT/AOT_stimuli/rescaled_final/1887_fw.mp4	0.0	148.3062822818756	1.0084996223449707
24	132.6866238117218	pulse	0	t		22.0	2.5	/experiments/Knapen_AOT/AOT_stimuli/rescaled_final/1887_fw.mp4	0.0	148.48162508010864	
24	133.51978063583374	movie	1		280	22.0	2.5	/experiments/Knapen_AOT/AOT_stimuli/rescaled_final/1887_fw.mp4	0.0	149.31478190422058	2.492025852203369
24	134.2870271205902	pulse	1	t		22.0	2.5	/experiments/Knapen_AOT/AOT_stimuli/rescaled_final/1887_fw.mp4	0.0	150.08202838897705	
24	135.88731265068054	pulse	1	t		22.0	2.5	/experiments/Knapen_AOT/AOT_stimuli/rescaled_final/1887_fw.mp4	0.0	151.68231391906738	
24	136.0118064880371	fix_post	2		12	22.0	2.5	/experiments/Knapen_AOT/AOT_stimuli/rescaled_final/1887_fw.mp4	0.0	151.80680775642395	0.10003042221069336
25	136.1118369102478	fix_pre	0		120	23.0	2.5	/experiments/Knapen_AOT/AOT_stimuli/rescaled_final/0790_rv.mp4	0.0	151.90683817863464	1.0085010528564453
25	137.12033796310425	movie	1		271	23.0	2.5	/experiments/Knapen_AOT/AOT_stimuli/rescaled_final/0790_rv.mp4	0.0	152.9153392314911	2.491992235183716
25	137.48799419403076	pulse	1	t		23.0	2.5	/experiments/Knapen_AOT/AOT_stimuli/rescaled_final/0790_rv.mp4	0.0	153.2829954624176	
25	139.0875482559204	pulse	1	t		23.0	2.5	/experiments/Knapen_AOT/AOT_stimuli/rescaled_final/0790_rv.mp4	0.0	154.88254952430725	
25	139.61233019828796	fix_post	2		12	23.0	2.5	/experiments/Knapen_AOT/AOT_stimuli/rescaled_final/0790_rv.mp4	0.0	155.4073314666748	0.10002303123474121
26	139.7123532295227	fix_pre	0		118	24.0	2.5	/experiments/Knapen_AOT/AOT_stimuli/rescaled_final/1604_fw.mp4	0.0	155.50735449790955	0.9918150901794434
26	140.68801522254944	pulse	0	t		24.0	2.5	/experiments/Knapen_AOT/AOT_stimuli/rescaled_final/1604_fw.mp4	0.0	156.48301649093628	
26	140.70416831970215	movie	1		276	24.0	2.5	/experiments/Knapen_AOT/AOT_stimuli/rescaled_final/1604_fw.mp4	0.0	156.499169588089	2.5003793239593506
26	142.28796863555908	pulse	1	t		24.0	2.5	/experiments/Knapen_AOT/AOT_stimuli/rescaled_final/1604_fw.mp4	0.0	158.08296990394592	
26	143.2045476436615	fix_post	2		12	24.0	2.5	/experiments/Knapen_AOT/AOT_stimuli/rescaled_final/1604_fw.mp4	0.0	158.99954891204834	0.10003042221069336
27	143.3045780658722	fix_pre	0		120	25.0	2.5	/experiments/Knapen_AOT/AOT_stimuli/rescaled_final/0597_fw.mp4	0.0	159.09957933425903	1.0084953308105469
27	143.88824439048767	pulse	0	t		25.0	2.5	/experiments/Knapen_AOT/AOT_stimuli/rescaled_final/0597_fw.mp4	0.0	159.6832456588745	
27	144.31307339668274	movie	1		280	25.0	2.5	/experiments/Knapen_AOT/AOT_stimuli/rescaled_final/0597_fw.mp4	0.0	160.10807466506958	2.4920737743377686
27	145.4866964817047	pulse	1	t		25.0	2.5	/experiments/Knapen_AOT/AOT_stimuli/rescaled_final/0597_fw.mp4	0.0	161.28169775009155	
27	146.8051471710205	fix_post	2		12	25.0	2.5	/experiments/Knapen_AOT/AOT_stimuli/rescaled_final/0597_fw.mp4	0.0	162.60014843940735	0.09998035430908203
28	146.9051275253296	fix_pre	0		120	26.0	2.5	blank	1.0	162.70012879371643	1.0001165866851807
28	147.0887095928192	pulse	0	t		26.0	2.5	blank	1.0	162.88371086120605	
28	147.90524411201477	movie	1		300	26.0	2.5	blank	1.0	163.7002453804016	2.500382423400879
28	148.6889078617096	pulse	1	t		26.0	2.5	blank	1.0	164.48390913009644	
28	150.28912258148193	pulse	1	t		26.0	2.5	blank	1.0	166.08412384986877	
28	150.40562653541565	fix_post	2		12	26.0	2.5	blank	1.0	166.2006278038025	0.10004067420959473
29	150.50566720962524	fix_pre	0		120	27.0	2.5	/experiments/Knapen_AOT/AOT_stimuli/rescaled_final/0008_fw.mp4	0.0	166.30066847801208	1.0084702968597412
29	151.51413750648499	movie	1		293	27.0	2.5	/experiments/Knapen_AOT/AOT_stimuli/rescaled_final/0008_fw.mp4	0.0	167.30913877487183	2.492002010345459
29	151.8880021572113	pulse	1	t		27.0	2.5	/experiments/Knapen_AOT/AOT_stimuli/rescaled_final/0008_fw.mp4	0.0	167.68300342559814	
29	153.48758220672607	pulse	1	t		27.0	2.5	/experiments/Knapen_AOT/AOT_stimuli/rescaled_final/0008_fw.mp4	0.0	169.28258347511292	
29	154.00613951683044	fix_post	2		12	27.0	2.5	/experiments/Knapen_AOT/AOT_stimuli/rescaled_final/0008_fw.mp4	0.0	169.80114078521729	0.10003805160522461
30	154.10617756843567	fix_pre	0		119	28.0	2.5	/experiments/Knapen_AOT/AOT_stimuli/rescaled_final/0250_fw.mp4	0.0	169.9011788368225	1.0001919269561768
30	155.08983850479126	pulse	0	t		28.0	2.5	/experiments/Knapen_AOT/AOT_stimuli/rescaled_final/0250_fw.mp4	0.0	170.8848397731781	
30	155.10636949539185	movie	1		291	28.0	2.5	/experiments/Knapen_AOT/AOT_stimuli/rescaled_final/0250_fw.mp4	0.0	170.9013707637787	2.5003130435943604
30	156.68610763549805	pulse	1	t		28.0	2.5	/experiments/Knapen_AOT/AOT_stimuli/rescaled_final/0250_fw.mp4	0.0	172.4811089038849	
30	157.6066825389862	fix_post	2		12	28.0	2.5	/experiments/Knapen_AOT/AOT_stimuli/rescaled_final/0250_fw.mp4	0.0	173.40168380737305	0.1001746654510498
31	157.70685720443726	fix_pre	0		120	29.0	2.5	/experiments/Knapen_AOT/AOT_stimuli/rescaled_final/0499_fw.mp4	0.0	173.5018584728241	1.0083794593811035
31	158.29025554656982	pulse	0	t		29.0	2.5	/experiments/Knapen_AOT/AOT_stimuli/rescaled_final/0499_fw.mp4	0.0	174.08525681495667	
31	158.71523666381836	movie	1		295	29.0	2.5	/experiments/Knapen_AOT/AOT_stimuli/rescaled_final/0499_fw.mp4	0.0	174.5102379322052	2.492008924484253
31	159.8882279396057	pulse	1	t		29.0	2.5	/experiments/Knapen_AOT/AOT_stimuli/rescaled_final/0499_fw.mp4	0.0	175.68322920799255	
31	161.2072455883026	fix_post	2		12	29.0	2.5	/experiments/Knapen_AOT/AOT_stimuli/rescaled_final/0499_fw.mp4	0.0	177.00224685668945	0.10001373291015625
32	161.30725932121277	fix_pre	0		120	30.0	2.5	/experiments/Knapen_AOT/AOT_stimuli/rescaled_final/0328_fw.mp4	0.0	177.1022605895996	1.0084853172302246
32	161.4908001422882	pulse	0	t		30.0	2.5	/experiments/Knapen_AOT/AOT_stimuli/rescaled_final/0328_fw.mp4	0.0	177.28580141067505	
32	162.315744638443	movie	1		291	30.0	2.5	/experiments/Knapen_AOT/AOT_stimuli/rescaled_final/0328_fw.mp4	0.0	178.11074590682983	2.4920294284820557
32	163.08834886550903	pulse	1	t		30.0	2.5	/experiments/Knapen_AOT/AOT_stimuli/rescaled_final/0328_fw.mp4	0.0	178.88335013389587	
32	164.6886203289032	pulse	1	t		30.0	2.5	/experiments/Knapen_AOT/AOT_stimuli/rescaled_final/0328_fw.mp4	0.0	180.48362159729004	
32	164.80777406692505	fix_post	2		12	30.0	2.5	/experiments/Knapen_AOT/AOT_stimuli/rescaled_final/0328_fw.mp4	0.0	180.6027753353119	0.10001111030578613
33	164.90778517723083	fix_pre	0		120	31.0	2.5	/experiments/Knapen_AOT/AOT_stimuli/rescaled_final/0214_rv.mp4	0.0	180.70278644561768	1.0001325607299805
33	165.90791773796082	movie	1		298	31.0	2.5	/experiments/Knapen_AOT/AOT_stimuli/rescaled_final/0214_rv.mp4	0.0	181.70291900634766	2.500406503677368
33	166.28899884223938	pulse	1	t		31.0	2.5	/experiments/Knapen_AOT/AOT_stimuli/rescaled_final/0214_rv.mp4	0.0	182.08400011062622	
33	167.88739824295044	pulse	1	t		31.0	2.5	/experiments/Knapen_AOT/AOT_stimuli/rescaled_final/0214_rv.mp4	0.0	183.68239951133728	
33	168.40832424163818	fix_post	2		11	31.0	2.5	/experiments/Knapen_AOT/AOT_stimuli/rescaled_final/0214_rv.mp4	0.0	184.20332551002502	0.09166693687438965
34	168.49999117851257	fix_pre	0		120	32.0	2.5	/experiments/Knapen_AOT/AOT_stimuli/rescaled_final/0989_rv.mp4	0.0	184.2949924468994	1.008533239364624
34	169.49198579788208	pulse	0	t		32.0	2.5	/experiments/Knapen_AOT/AOT_stimuli/rescaled_final/0989_rv.mp4	0.0	185.28698706626892	
34	169.5085244178772	movie	1		294	32.0	2.5	/experiments/Knapen_AOT/AOT_stimuli/rescaled_final/0989_rv.mp4	0.0	185.30352568626404	2.5003514289855957
34	171.08822083473206	pulse	1	t		32.0	2.5	/experiments/Knapen_AOT/AOT_stimuli/rescaled_final/0989_rv.mp4	0.0	186.8832221031189	
34	172.0088758468628	fix_post	2		12	32.0	2.5	/experiments/Knapen_AOT/AOT_stimuli/rescaled_final/0989_rv.mp4	0.0	187.80387711524963	0.09996867179870605
35	172.1088445186615	fix_pre	0		120	33.0	2.5	blank	1.0	187.90384578704834	1.0001742839813232
35	172.69241213798523	pulse	0	t		33.0	2.5	blank	1.0	188.48741340637207	
35	173.10901880264282	movie	1		300	33.0	2.5	blank	1.0	188.90402007102966	2.500406265258789
35	174.2926802635193	pulse	1	t		33.0	2.5	blank	1.0	190.08768153190613	
35	175.6094250679016	fix_post	2		12	33.0	2.5	blank	1.0	191.40442633628845	0.10001444816589355
36	175.7094395160675	fix_pre	0		120	34.0	2.5	/experiments/Knapen_AOT/AOT_stimuli/rescaled_final/0691_rv.mp4	0.0	191.50444078445435	1.0084726810455322
36	175.8860399723053	pulse	0	t		34.0	2.5	/experiments/Knapen_AOT/AOT_stimuli/rescaled_final/0691_rv.mp4	0.0	191.68104124069214	
36	176.71791219711304	movie	1		278	34.0	2.5	/experiments/Knapen_AOT/AOT_stimuli/rescaled_final/0691_rv.mp4	0.0	192.51291346549988	2.4920437335968018
36	177.4920380115509	pulse	1	t		34.0	2.5	/experiments/Knapen_AOT/AOT_stimuli/rescaled_final/0691_rv.mp4	0.0	193.28703927993774	
36	179.0853443145752	pulse	1	t		34.0	2.5	/experiments/Knapen_AOT/AOT_stimuli/rescaled_final/0691_rv.mp4	0.0	194.88034558296204	
36	179.20995593070984	fix_post	2		12	34.0	2.5	/experiments/Knapen_AOT/AOT_stimuli/rescaled_final/0691_rv.mp4	0.0	195.00495719909668	0.10002493858337402
37	179.3099808692932	fix_pre	0		120	35.0	2.5	/experiments/Knapen_AOT/AOT_stimuli/rescaled_final/0435_fw.mp4	0.0	195.10498213768005	1.008500576019287
37	180.3184814453125	movie	1		286	35.0	2.5	/experiments/Knapen_AOT/AOT_stimuli/rescaled_final/0435_fw.mp4	0.0	196.11348271369934	2.4920265674591064
37	180.69396805763245	pulse	1	t		35.0	2.5	/experiments/Knapen_AOT/AOT_stimuli/rescaled_final/0435_fw.mp4	0.0	196.4889693260193	
37	182.2856228351593	pulse	1	t		35.0	2.5	/experiments/Knapen_AOT/AOT_stimuli/rescaled_final/0435_fw.mp4	0.0	198.08062410354614	
37	182.8105080127716	fix_post	2		12	35.0	2.5	/experiments/Knapen_AOT/AOT_stimuli/rescaled_final/0435_fw.mp4	0.0	198.60550928115845	0.10007095336914062
38	182.91057896614075	fix_pre	0		118	36.0	2.5	/experiments/Knapen_AOT/AOT_stimuli/rescaled_final/1007_fw.mp4	0.0	198.7055802345276	0.9917354583740234
38	183.8858940601349	pulse	0	t		36.0	2.5	/experiments/Knapen_AOT/AOT_stimuli/rescaled_final/1007_fw.mp4	0.0	199.68089532852173	
38	183.90231442451477	movie	1		288	36.0	2.5	/experiments/Knapen_AOT/AOT_stimuli/rescaled_final/1007_fw.mp4	0.0	199.6973156929016	2.5004324913024902
38	185.486177444458	pulse	1	t		36.0	2.5	/experiments/Knapen_AOT/AOT_stimuli/rescaled_final/1007_fw.mp4	0.0	201.28117871284485	
38	186.40274691581726	fix_post	2		12	36.0	2.5	/experiments/Knapen_AOT/AOT_stimuli/rescaled_final/1007_fw.mp4	0.0	202.1977481842041	0.0999913215637207
39	186.50273823738098	fix_pre	0		120	37.0	2.5	/experiments/Knapen_AOT/AOT_stimuli/rescaled_final/1290_rv.mp4	0.0	202.29773950576782	1.0085060596466064
39	187.0863642692566	pulse	0	t		37.0	2.5	/experiments/Knapen_AOT/AOT_stimuli/rescaled_final/1290_rv.mp4	0.0	202.88136553764343	
39	187.5112442970276	movie	1		284	37.0	2.5	/experiments/Knapen_AOT/AOT_stimuli/rescaled_final/1290_rv.mp4	0.0	203.30624556541443	2.492004156112671
39	188.68661069869995	pulse	1	t		37.0	2.5	/experiments/Knapen_AOT/AOT_stimuli/rescaled_final/1290_rv.mp4	0.0	204.4816119670868	
39	190.00324845314026	fix_post	2		12	37.0	2.5	/experiments/Knapen_AOT/AOT_stimuli/rescaled_final/1290_rv.mp4	0.0	205.7982497215271	0.10007262229919434
40	190.10332107543945	fix_pre	0		120	38.0	2.5	/experiments/Knapen_AOT/AOT_stimuli/rescaled_final/1530_rv.mp4	0.0	205.8983223438263	1.0084280967712402
40	190.28684997558594	pulse	0	t		38.0	2.5	/experiments/Knapen_AOT/AOT_stimuli/rescaled_final/1530_rv.mp4	0.0	206.08185124397278	
40	191.1117491722107	movie	1		280	38.0	2.5	/experiments/Knapen_AOT/AOT_stimuli/rescaled_final/1530_rv.mp4	0.0	206.90675044059753	2.500383138656616
40	191.88708901405334	pulse	1	t		38.0	2.5	/experiments/Knapen_AOT/AOT_stimuli/rescaled_final/1530_rv.mp4	0.0	207.68209028244019	
40	193.48548364639282	pulse	1	t		38.0	2.5	/experiments/Knapen_AOT/AOT_stimuli/rescaled_final/1530_rv.mp4	0.0	209.28048491477966	
40	193.6121323108673	fix_post	2		11	38.0	2.5	/experiments/Knapen_AOT/AOT_stimuli/rescaled_final/1530_rv.mp4	0.0	209.40713357925415	0.09165310859680176
41	193.7037854194641	fix_pre	0		120	39.0	2.5	/experiments/Knapen_AOT/AOT_stimuli/rescaled_final/0257_fw.mp4	0.0	209.49878668785095	1.0085089206695557
41	194.71229434013367	movie	1		286	39.0	2.5	/experiments/Knapen_AOT/AOT_stimuli/rescaled_final/0257_fw.mp4	0.0	210.5072956085205	2.4920620918273926
41	195.0863311290741	pulse	1	t		39.0	2.5	/experiments/Knapen_AOT/AOT_stimuli/rescaled_final/0257_fw.mp4	0.0	210.88133239746094	
41	196.6859872341156	pulse	1	t		39.0	2.5	/experiments/Knapen_AOT/AOT_stimuli/rescaled_final/0257_fw.mp4	0.0	212.48098850250244	
41	197.20435643196106	fix_post	2		12	39.0	2.5	/experiments/Knapen_AOT/AOT_stimuli/rescaled_final/0257_fw.mp4	0.0	212.9993577003479	0.0999910831451416
42	197.3043475151062	fix_pre	0		119	40.0	2.5	/experiments/Knapen_AOT/AOT_stimuli/rescaled_final/0041_fw.mp4	0.0	213.09934878349304	1.000194787979126
42	198.2880413532257	pulse	0	t		40.0	2.5	/experiments/Knapen_AOT/AOT_stimuli/rescaled_final/0041_fw.mp4	0.0	214.08304262161255	
42	198.30454230308533	movie	1		277	40.0	2.5	/experiments/Knapen_AOT/AOT_stimuli/rescaled_final/0041_fw.mp4	0.0	214.09954357147217	2.5003466606140137
42	199.88674402236938	pulse	1	t		40.0	2.5	/experiments/Knapen_AOT/AOT_stimuli/rescaled_final/0041_fw.mp4	0.0	215.68174529075623	
42	200.80488896369934	fix_post	2		12	40.0	2.5	/experiments/Knapen_AOT/AOT_stimuli/rescaled_final/0041_fw.mp4	0.0	216.59989023208618	0.10001158714294434
43	200.90490055084229	fix_pre	0		120	41.0	2.5	blank	1.0	216.69990181922913	1.0001368522644043
43	201.48855757713318	pulse	0	t		41.0	2.5	blank	1.0	217.28355884552002	
43	201.9050374031067	movie	1		300	41.0	2.5	blank	1.0	217.70003867149353	2.500361919403076
43	203.08895897865295	pulse	1	t		41.0	2.5	blank	1.0	218.8839602470398	
43	204.40539932250977	fix_post	2		12	41.0	2.5	blank	1.0	220.2004005908966	0.1000356674194336
44	204.5054349899292	fix_pre	0		120	42.0	2.5	/experiments/Knapen_AOT/AOT_stimuli/rescaled_final/1007_fw.mp4	0.0	220.30043625831604	1.0084571838378906
44	204.68907809257507	pulse	0	t		42.0	2.5	/experiments/Knapen_AOT/AOT_stimuli/rescaled_final/1007_fw.mp4	0.0	220.4840793609619	
44	205.5138921737671	movie	1		276	42.0	2.5	/experiments/Knapen_AOT/AOT_stimuli/rescaled_final/1007_fw.mp4	0.0	221.30889344215393	2.4920973777770996
44	206.28723883628845	pulse	1	t		42.0	2.5	/experiments/Knapen_AOT/AOT_stimuli/rescaled_final/1007_fw.mp4	0.0	222.0822401046753	
44	207.8898274898529	pulse	1	t		42.0	2.5	/experiments/Knapen_AOT/AOT_stimuli/rescaled_final/1007_fw.mp4	0.0	223.68482875823975	
44	208.0059895515442	fix_post	2		12	42.0	2.5	/experiments/Knapen_AOT/AOT_stimuli/rescaled_final/1007_fw.mp4	0.0	223.80099081993103	0.10001182556152344
45	208.1060013771057	fix_pre	0		120	43.0	2.5	/experiments/Knapen_AOT/AOT_stimuli/rescaled_final/0376_rv.mp4	0.0	223.90100264549255	1.0084788799285889
45	209.1144802570343	movie	1		287	43.0	2.5	/experiments/Knapen_AOT/AOT_stimuli/rescaled_final/0376_rv.mp4	0.0	224.90948152542114	2.4920494556427
45	209.48906660079956	pulse	1	t		43.0	2.5	/experiments/Knapen_AOT/AOT_stimuli/rescaled_final/0376_rv.mp4	0.0	225.2840678691864	
45	211.0887176990509	pulse	1	t		43.0	2.5	/experiments/Knapen_AOT/AOT_stimuli/rescaled_final/0376_rv.mp4	0.0	226.88371896743774	
45	211.606529712677	fix_post	2		12	43.0	2.5	/experiments/Knapen_AOT/AOT_stimuli/rescaled_final/0376_rv.mp4	0.0	227.40153098106384	0.10000133514404297
46	211.70653104782104	fix_pre	0		119	44.0	2.5	/experiments/Knapen_AOT/AOT_stimuli/rescaled_final/1761_fw.mp4	0.0	227.50153231620789	1.0001444816589355
46	212.69029784202576	pulse	0	t		44.0	2.5	/experiments/Knapen_AOT/AOT_stimuli/rescaled_final/1761_fw.mp4	0.0	228.4852991104126	
46	212.70667552947998	movie	1		275	44.0	2.5	/experiments/Knapen_AOT/AOT_stimuli/rescaled_final/1761_fw.mp4	0.0	228.50167679786682	2.5003719329833984
46	214.28912925720215	pulse	1	t		44.0	2.5	/experiments/Knapen_AOT/AOT_stimuli/rescaled_final/1761_fw.mp4	0.0	230.084130525589	
46	215.20704746246338	fix_post	2		12	44.0	2.5	/experiments/Knapen_AOT/AOT_stimuli/rescaled_final/1761_fw.mp4	0.0	231.00204873085022	0.10003185272216797
47	215.30707931518555	fix_pre	0		120	45.0	2.5	/experiments/Knapen_AOT/AOT_stimuli/rescaled_final/0560_fw.mp4	0.0	231.1020805835724	1.0085742473602295
47	215.89072060585022	pulse	0	t		45.0	2.5	/experiments/Knapen_AOT/AOT_stimuli/rescaled_final/0560_fw.mp4	0.0	231.68572187423706	
47	216.31565356254578	movie	1		267	45.0	2.5	/experiments/Knapen_AOT/AOT_stimuli/rescaled_final/0560_fw.mp4	0.0	232.11065483093262	2.491978883743286
47	217.5553262233734	pulse	1	t		45.0	2.5	/experiments/Knapen_AOT/AOT_stimuli/rescaled_final/0560_fw.mp4	0.0	233.35032749176025	
47	218.80763244628906	fix_post	2		12	45.0	2.5	/experiments/Knapen_AOT/AOT_stimuli/rescaled_final/0560_fw.mp4	0.0	234.6026337146759	0.10000777244567871
48	218.90764021873474	fix_pre	0		120	46.0	2.5	/experiments/Knapen_AOT/AOT_stimuli/rescaled_final/2149_rv.mp4	0.0	234.70264148712158	1.008474588394165
48	219.09134697914124	pulse	0	t		46.0	2.5	/experiments/Knapen_AOT/AOT_stimuli/rescaled_final/2149_rv.mp4	0.0	234.88634824752808	
48	219.9161148071289	movie	1		282	46.0	2.5	/experiments/Knapen_AOT/AOT_stimuli/rescaled_final/2149_rv.mp4	0.0	235.71111607551575	2.4920525550842285
48	220.69006299972534	pulse	1	t		46.0	2.5	/experiments/Knapen_AOT/AOT_stimuli/rescaled_final/2149_rv.mp4	0.0	236.48506426811218	
48	222.28956770896912	pulse	1	t		46.0	2.5	/experiments/Knapen_AOT/AOT_stimuli/rescaled_final/2149_rv.mp4	0.0	238.08456897735596	
48	222.40816736221313	fix_post	2		12	46.0	2.5	/experiments/Knapen_AOT/AOT_stimuli/rescaled_final/2149_rv.mp4	0.0	238.20316863059998	0.09996819496154785
49	222.50813555717468	fix_pre	0		120	47.0	2.5	blank	1.0	238.30313682556152	1.0001592636108398
49	223.50829482078552	movie	1		300	47.0	2.5	blank	1.0	239.30329608917236	2.500349521636963
49	223.89189338684082	pulse	1	t		47.0	2.5	blank	1.0	239.68689465522766	
49	225.49215364456177	pulse	1	t		47.0	2.5	blank	1.0	241.2871549129486	
49	226.00864434242249	fix_post	2		12	47.0	2.5	blank	1.0	241.80364561080933	0.10023665428161621
50	226.1088809967041	fix_pre	0		119	48.0	2.5	/experiments/Knapen_AOT/AOT_stimuli/rescaled_final/0691_fw.mp4	0.0	241.90388226509094	1.0003514289855957
50	227.09233903884888	pulse	0	t		48.0	2.5	/experiments/Knapen_AOT/AOT_stimuli/rescaled_final/0691_fw.mp4	0.0	242.88734030723572	
50	227.1092324256897	movie	1		277	48.0	2.5	/experiments/Knapen_AOT/AOT_stimuli/rescaled_final/0691_fw.mp4	0.0	242.90423369407654	2.499976873397827
50	228.69109392166138	pulse	1	t		48.0	2.5	/experiments/Knapen_AOT/AOT_stimuli/rescaled_final/0691_fw.mp4	0.0	244.48609519004822	
50	229.60920929908752	fix_post	2		12	48.0	2.5	/experiments/Knapen_AOT/AOT_stimuli/rescaled_final/0691_fw.mp4	0.0	245.40421056747437	0.10002446174621582
51	229.70923376083374	fix_pre	0		120	49.0	2.5	/experiments/Knapen_AOT/AOT_stimuli/rescaled_final/1357_rv.mp4	0.0	245.50423502922058	1.0084969997406006
51	230.2933337688446	pulse	0	t		49.0	2.5	/experiments/Knapen_AOT/AOT_stimuli/rescaled_final/1357_rv.mp4	0.0	246.08833503723145	
51	230.71773076057434	movie	1		285	49.0	2.5	/experiments/Knapen_AOT/AOT_stimuli/rescaled_final/1357_rv.mp4	0.0	246.51273202896118	2.492004156112671
51	231.89116525650024	pulse	1	t		49.0	2.5	/experiments/Knapen_AOT/AOT_stimuli/rescaled_final/1357_rv.mp4	0.0	247.68616652488708	
51	233.209734916687	fix_post	2		12	49.0	2.5	/experiments/Knapen_AOT/AOT_stimuli/rescaled_final/1357_rv.mp4	0.0	249.00473618507385	0.10005474090576172
52	233.30978965759277	fix_pre	0		120	50.0	2.5	/experiments/Knapen_AOT/AOT_stimuli/rescaled_final/1993_fw.mp4	0.0	249.10479092597961	1.008415937423706
52	233.4869523048401	pulse	0	t		50.0	2.5	/experiments/Knapen_AOT/AOT_stimuli/rescaled_final/1993_fw.mp4	0.0	249.28195357322693	
52	234.31820559501648	movie	1		270	50.0	2.5	/experiments/Knapen_AOT/AOT_stimuli/rescaled_final/1993_fw.mp4	0.0	250.11320686340332	2.492086410522461
52	235.092853307724	pulse	1	t		50.0	2.5	/experiments/Knapen_AOT/AOT_stimuli/rescaled_final/1993_fw.mp4	0.0	250.88785457611084	
52	236.6859736442566	pulse	1	t		50.0	2.5	/experiments/Knapen_AOT/AOT_stimuli/rescaled_final/1993_fw.mp4	0.0	252.48097491264343	
52	236.81029200553894	fix_post	2		12	50.0	2.5	/experiments/Knapen_AOT/AOT_stimuli/rescaled_final/1993_fw.mp4	0.0	252.60529327392578	0.10002303123474121
53	236.91031503677368	fix_pre	0		120	51.0	2.5	/experiments/Knapen_AOT/AOT_stimuli/rescaled_final/1465_fw.mp4	0.0	252.70531630516052	1.0085413455963135
53	237.91885638237	movie	1		279	51.0	2.5	/experiments/Knapen_AOT/AOT_stimuli/rescaled_final/1465_fw.mp4	0.0	253.71385765075684	2.491971731185913
53	238.29426550865173	pulse	1	t		51.0	2.5	/experiments/Knapen_AOT/AOT_stimuli/rescaled_final/1465_fw.mp4	0.0	254.08926677703857	
53	239.88554430007935	pulse	1	t		51.0	2.5	/experiments/Knapen_AOT/AOT_stimuli/rescaled_final/1465_fw.mp4	0.0	255.6805455684662	
53	240.4108281135559	fix_post	2		12	51.0	2.5	/experiments/Knapen_AOT/AOT_stimuli/rescaled_final/1465_fw.mp4	0.0	256.20582938194275	0.10001206398010254
54	240.510840177536	fix_pre	0		118	52.0	2.5	/experiments/Knapen_AOT/AOT_stimuli/rescaled_final/0647_fw.mp4	0.0	256.30584144592285	0.9918007850646973
54	241.48620414733887	pulse	0	t		52.0	2.5	/experiments/Knapen_AOT/AOT_stimuli/rescaled_final/0647_fw.mp4	0.0	257.2812054157257	
54	241.5026409626007	movie	1		285	52.0	2.5	/experiments/Knapen_AOT/AOT_stimuli/rescaled_final/0647_fw.mp4	0.0	257.29764223098755	2.5003929138183594
54	243.08652591705322	pulse	1	t		52.0	2.5	/experiments/Knapen_AOT/AOT_stimuli/rescaled_final/0647_fw.mp4	0.0	258.88152718544006	
54	244.00303387641907	fix_post	2		12	52.0	2.5	/experiments/Knapen_AOT/AOT_stimuli/rescaled_final/0647_fw.mp4	0.0	259.7980351448059	0.10019469261169434
55	244.10322856903076	fix_pre	0		120	53.0	2.5	/experiments/Knapen_AOT/AOT_stimuli/rescaled_final/2162_rv.mp4	0.0	259.8982298374176	1.0083906650543213
55	244.68679308891296	pulse	0	t		53.0	2.5	/experiments/Knapen_AOT/AOT_stimuli/rescaled_final/2162_rv.mp4	0.0	260.4817943572998	
55	245.11161923408508	movie	1		292	53.0	2.5	/experiments/Knapen_AOT/AOT_stimuli/rescaled_final/2162_rv.mp4	0.0	260.9066205024719	2.491959810256958
55	246.28691864013672	pulse	1	t		53.0	2.5	/experiments/Knapen_AOT/AOT_stimuli/rescaled_final/2162_rv.mp4	0.0	262.08191990852356	
55	247.60357904434204	fix_post	2		12	53.0	2.5	/experiments/Knapen_AOT/AOT_stimuli/rescaled_final/2162_rv.mp4	0.0	263.3985803127289	0.10002875328063965
56	247.70360779762268	fix_pre	0		120	54.0	2.5	/experiments/Knapen_AOT/AOT_stimuli/rescaled_final/0496_rv.mp4	0.0	263.4986090660095	1.0085079669952393
56	247.8871726989746	pulse	0	t		54.0	2.5	/experiments/Knapen_AOT/AOT_stimuli/rescaled_final/0496_rv.mp4	0.0	263.68217396736145	
56	248.71211576461792	movie	1		274	54.0	2.5	/experiments/Knapen_AOT/AOT_stimuli/rescaled_final/0496_rv.mp4	0.0	264.50711703300476	2.49202561378479
56	249.48597741127014	pulse	1	t		54.0	2.5	/experiments/Knapen_AOT/AOT_stimuli/rescaled_final/0496_rv.mp4	0.0	265.280978679657	
56	251.0877480506897	pulse	1	t		54.0	2.5	/experiments/Knapen_AOT/AOT_stimuli/rescaled_final/0496_rv.mp4	0.0	266.88274931907654	
56	251.2041413784027	fix_post	2		12	54.0	2.5	/experiments/Knapen_AOT/AOT_stimuli/rescaled_final/0496_rv.mp4	0.0	266.99914264678955	0.0999913215637207
57	251.30413269996643	fix_pre	0		120	55.0	2.5	/experiments/Knapen_AOT/AOT_stimuli/rescaled_final/0228_fw.mp4	0.0	267.09913396835327	1.0084962844848633
57	252.3126289844513	movie	1		279	55.0	2.5	/experiments/Knapen_AOT/AOT_stimuli/rescaled_final/0228_fw.mp4	0.0	268.10763025283813	2.492069721221924
57	252.68623685836792	pulse	1	t		55.0	2.5	/experiments/Knapen_AOT/AOT_stimuli/rescaled_final/0228_fw.mp4	0.0	268.48123812675476	
57	254.28867030143738	pulse	1	t		55.0	2.5	/experiments/Knapen_AOT/AOT_stimuli/rescaled_final/0228_fw.mp4	0.0	270.0836715698242	
57	254.80469870567322	fix_post	2		12	55.0	2.5	/experiments/Knapen_AOT/AOT_stimuli/rescaled_final/0228_fw.mp4	0.0	270.59969997406006	0.09996843338012695
58	254.90466713905334	fix_pre	0		119	56.0	2.5	blank	1.0	270.6996684074402	0.9918406009674072
58	255.88842916488647	pulse	0	t		56.0	2.5	blank	1.0	271.6834304332733	
58	255.89650774002075	movie	1		301	56.0	2.5	blank	1.0	271.6915090084076	2.508697271347046
58	257.4886963367462	pulse	1	t		56.0	2.5	blank	1.0	273.28369760513306	
58	258.4052050113678	fix_post	2		12	56.0	2.5	blank	1.0	274.20020627975464	0.10001802444458008
59	258.5052230358124	fix_pre	0		120	57.0	2.5	/experiments/Knapen_AOT/AOT_stimuli/rescaled_final/2088_fw.mp4	0.0	274.3002243041992	1.0085735321044922
59	259.08893513679504	pulse	0	t		57.0	2.5	/experiments/Knapen_AOT/AOT_stimuli/rescaled_final/2088_fw.mp4	0.0	274.8839364051819	
59	259.51379656791687	movie	1		281	57.0	2.5	/experiments/Knapen_AOT/AOT_stimuli/rescaled_final/2088_fw.mp4	0.0	275.3087978363037	2.4919521808624268
59	260.687260389328	pulse	1	t		57.0	2.5	/experiments/Knapen_AOT/AOT_stimuli/rescaled_final/2088_fw.mp4	0.0	276.48226165771484	
59	262.0057487487793	fix_post	2		12	57.0	2.5	/experiments/Knapen_AOT/AOT_stimuli/rescaled_final/2088_fw.mp4	0.0	277.80075001716614	0.10000038146972656
60	262.105749130249	fix_pre	0		120	58.0	2.5	/experiments/Knapen_AOT/AOT_stimuli/rescaled_final/1728_fw.mp4	0.0	277.90075039863586	1.0086867809295654
60	262.2893269062042	pulse	0	t		58.0	2.5	/experiments/Knapen_AOT/AOT_stimuli/rescaled_final/1728_fw.mp4	0.0	278.08432817459106	
60	263.1144359111786	movie	1		277	58.0	2.5	/experiments/Knapen_AOT/AOT_stimuli/rescaled_final/1728_fw.mp4	0.0	278.90943717956543	2.4918673038482666
60	263.88738346099854	pulse	1	t		58.0	2.5	/experiments/Knapen_AOT/AOT_stimuli/rescaled_final/1728_fw.mp4	0.0	279.6823847293854	
60	265.489196062088	pulse	1	t		58.0	2.5	/experiments/Knapen_AOT/AOT_stimuli/rescaled_final/1728_fw.mp4	0.0	281.28419733047485	
60	265.60630321502686	fix_post	2		12	58.0	2.5	/experiments/Knapen_AOT/AOT_stimuli/rescaled_final/1728_fw.mp4	0.0	281.4013044834137	0.09999418258666992
61	265.7062973976135	fix_pre	0		120	59.0	2.5	/experiments/Knapen_AOT/AOT_stimuli/rescaled_final/1507_fw.mp4	0.0	281.50129866600037	1.0084788799285889
61	266.7147762775421	movie	1		277	59.0	2.5	/experiments/Knapen_AOT/AOT_stimuli/rescaled_final/1507_fw.mp4	0.0	282.50977754592896	2.49204421043396
61	267.0885045528412	pulse	1	t		59.0	2.5	/experiments/Knapen_AOT/AOT_stimuli/rescaled_final/1507_fw.mp4	0.0	282.883505821228	
61	268.688280582428	pulse	1	t		59.0	2.5	/experiments/Knapen_AOT/AOT_stimuli/rescaled_final/1507_fw.mp4	0.0	284.4832818508148	
61	269.2068204879761	fix_post	2		12	59.0	2.5	/experiments/Knapen_AOT/AOT_stimuli/rescaled_final/1507_fw.mp4	0.0	285.0018217563629	0.10001897811889648
62	269.30683946609497	fix_pre	0		119	60.0	2.5	/experiments/Knapen_AOT/AOT_stimuli/rescaled_final/0163_fw.mp4	0.0	285.1018407344818	1.0002498626708984
62	270.2906770706177	pulse	0	t		60.0	2.5	/experiments/Knapen_AOT/AOT_stimuli/rescaled_final/0163_fw.mp4	0.0	286.0856783390045	
62	270.30708932876587	movie	1		279	60.0	2.5	/experiments/Knapen_AOT/AOT_stimuli/rescaled_final/0163_fw.mp4	0.0	286.1020905971527	2.5002834796905518
62	271.8891336917877	pulse	1	t		60.0	2.5	/experiments/Knapen_AOT/AOT_stimuli/rescaled_final/0163_fw.mp4	0.0	287.68413496017456	
62	272.8073728084564	fix_post	2		12	60.0	2.5	/experiments/Knapen_AOT/AOT_stimuli/rescaled_final/0163_fw.mp4	0.0	288.60237407684326	0.10000252723693848
63	272.90737533569336	fix_pre	0		120	61.0	2.5	/experiments/Knapen_AOT/AOT_stimuli/rescaled_final/2050_fw.mp4	0.0	288.7023766040802	1.0085747241973877
63	273.4911410808563	pulse	0	t		61.0	2.5	/experiments/Knapen_AOT/AOT_stimuli/rescaled_final/2050_fw.mp4	0.0	289.28614234924316	
63	273.91595005989075	movie	1		287	61.0	2.5	/experiments/Knapen_AOT/AOT_stimuli/rescaled_final/2050_fw.mp4	0.0	289.7109513282776	2.4919846057891846
63	275.0896592140198	pulse	1	t		61.0	2.5	/experiments/Knapen_AOT/AOT_stimuli/rescaled_final/2050_fw.mp4	0.0	290.8846604824066	
63	276.40793466567993	fix_post	2		12	61.0	2.5	/experiments/Knapen_AOT/AOT_stimuli/rescaled_final/2050_fw.mp4	0.0	292.2029359340668	0.10000205039978027
64	276.5079367160797	fix_pre	0		120	62.0	2.5	/experiments/Knapen_AOT/AOT_stimuli/rescaled_final/1346_fw.mp4	0.0	292.30293798446655	1.0085077285766602
64	276.6915559768677	pulse	0	t		62.0	2.5	/experiments/Knapen_AOT/AOT_stimuli/rescaled_final/1346_fw.mp4	0.0	292.4865572452545	
64	277.5164444446564	movie	1		272	62.0	2.5	/experiments/Knapen_AOT/AOT_stimuli/rescaled_final/1346_fw.mp4	0.0	293.3114457130432	2.4920008182525635
64	278.28993582725525	pulse	1	t		62.0	2.5	/experiments/Knapen_AOT/AOT_stimuli/rescaled_final/1346_fw.mp4	0.0	294.0849370956421	
64	279.890367269516	pulse	1	t		62.0	2.5	/experiments/Knapen_AOT/AOT_stimuli/rescaled_final/1346_fw.mp4	0.0	295.68536853790283	
64	280.00844526290894	fix_post	2		12	62.0	2.5	/experiments/Knapen_AOT/AOT_stimuli/rescaled_final/1346_fw.mp4	0.0	295.8034465312958	0.10004949569702148
65	280.10849475860596	fix_pre	0		120	63.0	2.5	blank	1.0	295.9034960269928	1.0001270771026611
65	281.1086218357086	movie	1		299	63.0	2.5	blank	1.0	296.90362310409546	2.500351905822754
65	281.49218797683716	pulse	1	t		63.0	2.5	blank	1.0	297.287189245224	
65	283.09269547462463	pulse	1	t		63.0	2.5	blank	1.0	298.8876967430115	
65	283.6089737415314	fix_post	2		12	63.0	2.5	blank	1.0	299.4039750099182	0.10004281997680664
66	283.7090165615082	fix_pre	0		119	64.0	2.5	/experiments/Knapen_AOT/AOT_stimuli/rescaled_final/1768_fw.mp4	0.0	299.504017829895	1.0001373291015625
66	284.6928050518036	pulse	0	t		64.0	2.5	/experiments/Knapen_AOT/AOT_stimuli/rescaled_final/1768_fw.mp4	0.0	300.48780632019043	
66	284.70915389060974	movie	1		265	64.0	2.5	/experiments/Knapen_AOT/AOT_stimuli/rescaled_final/1768_fw.mp4	0.0	300.5041551589966	2.5003886222839355
66	286.2916569709778	pulse	1	t		64.0	2.5	/experiments/Knapen_AOT/AOT_stimuli/rescaled_final/1768_fw.mp4	0.0	302.0866582393646	
66	287.2095425128937	fix_post	2		12	64.0	2.5	/experiments/Knapen_AOT/AOT_stimuli/rescaled_final/1768_fw.mp4	0.0	303.0045437812805	0.10001826286315918
67	287.30956077575684	fix_pre	0		120	65.0	2.5	/experiments/Knapen_AOT/AOT_stimuli/rescaled_final/1935_fw.mp4	0.0	303.1045620441437	1.0085172653198242
67	287.8933935165405	pulse	0	t		65.0	2.5	/experiments/Knapen_AOT/AOT_stimuli/rescaled_final/1935_fw.mp4	0.0	303.68839478492737	
67	288.31807804107666	movie	1		271	65.0	2.5	/experiments/Knapen_AOT/AOT_stimuli/rescaled_final/1935_fw.mp4	0.0	304.1130793094635	2.492013931274414
67	289.4932782649994	pulse	1	t		65.0	2.5	/experiments/Knapen_AOT/AOT_stimuli/rescaled_final/1935_fw.mp4	0.0	305.28827953338623	
67	290.8100919723511	fix_post	2		12	65.0	2.5	/experiments/Knapen_AOT/AOT_stimuli/rescaled_final/1935_fw.mp4	0.0	306.6050932407379	0.10003185272216797
68	290.91012382507324	fix_pre	0		120	66.0	2.5	/experiments/Knapen_AOT/AOT_stimuli/rescaled_final/0552_rv.mp4	0.0	306.7051250934601	1.0084865093231201
68	291.0874147415161	pulse	0	t		66.0	2.5	/experiments/Knapen_AOT/AOT_stimuli/rescaled_final/0552_rv.mp4	0.0	306.88241600990295	
68	291.91861033439636	movie	1		290	66.0	2.5	/experiments/Knapen_AOT/AOT_stimuli/rescaled_final/0552_rv.mp4	0.0	307.7136116027832	2.491997480392456
68	292.692022562027	pulse	1	t		66.0	2.5	/experiments/Knapen_AOT/AOT_stimuli/rescaled_final/0552_rv.mp4	0.0	308.4870238304138	
68	294.2861933708191	pulse	1	t		66.0	2.5	/experiments/Knapen_AOT/AOT_stimuli/rescaled_final/0552_rv.mp4	0.0	310.08119463920593	
68	294.4106078147888	fix_post	2		12	66.0	2.5	/experiments/Knapen_AOT/AOT_stimuli/rescaled_final/0552_rv.mp4	0.0	310.20560908317566	0.09998893737792969
69	294.51059675216675	fix_pre	0		120	67.0	2.5	/experiments/Knapen_AOT/AOT_stimuli/rescaled_final/0938_rv.mp4	0.0	310.3055980205536	1.0085334777832031
69	295.51913022994995	movie	1		279	67.0	2.5	/experiments/Knapen_AOT/AOT_stimuli/rescaled_final/0938_rv.mp4	0.0	311.3141314983368	2.492020845413208
69	295.8870210647583	pulse	1	t		67.0	2.5	/experiments/Knapen_AOT/AOT_stimuli/rescaled_final/0938_rv.mp4	0.0	311.68202233314514	
69	297.48640418052673	pulse	1	t		67.0	2.5	/experiments/Knapen_AOT/AOT_stimuli/rescaled_final/0938_rv.mp4	0.0	313.2814054489136	
69	298.01115107536316	fix_post	2		12	67.0	2.5	/experiments/Knapen_AOT/AOT_stimuli/rescaled_final/0938_rv.mp4	0.0	313.80615234375	0.10007262229919434
70	298.11122369766235	fix_pre	0		118	68.0	2.5	blank	1.0	313.9062249660492	0.9833996295928955
70	299.0866096019745	pulse	0	t		68.0	2.5	blank	1.0	314.8816108703613	
70	299.09462332725525	movie	1		301	68.0	2.5	blank	1.0	314.8896245956421	2.508729934692383
70	300.6867787837982	pulse	1	t		68.0	2.5	blank	1.0	316.48178005218506	
70	301.60335326194763	fix_post	2		12	68.0	2.5	blank	1.0	317.3983545303345	0.10002851486206055
71	301.7033817768097	fix_pre	0		120	69.0	2.5	/experiments/Knapen_AOT/AOT_stimuli/rescaled_final/0198_rv.mp4	0.0	317.49838304519653	1.008488655090332
71	302.2871356010437	pulse	0	t		69.0	2.5	/experiments/Knapen_AOT/AOT_stimuli/rescaled_final/0198_rv.mp4	0.0	318.08213686943054	
71	302.7118704319	movie	1		290	69.0	2.5	/experiments/Knapen_AOT/AOT_stimuli/rescaled_final/0198_rv.mp4	0.0	318.50687170028687	2.492029905319214
71	303.88726687431335	pulse	1	t		69.0	2.5	/experiments/Knapen_AOT/AOT_stimuli/rescaled_final/0198_rv.mp4	0.0	319.6822681427002	
71	305.20390033721924	fix_post	2		12	69.0	2.5	/experiments/Knapen_AOT/AOT_stimuli/rescaled_final/0198_rv.mp4	0.0	320.9989016056061	0.09997963905334473
72	305.3038799762726	fix_pre	0		119	70.0	2.5	/experiments/Knapen_AOT/AOT_stimuli/rescaled_final/0231_rv.mp4	0.0	321.0988812446594	1.0085434913635254
72	305.4875702857971	pulse	0	t		70.0	2.5	/experiments/Knapen_AOT/AOT_stimuli/rescaled_final/0231_rv.mp4	0.0	321.28257155418396	
72	306.3124234676361	movie	1		271	70.0	2.5	/experiments/Knapen_AOT/AOT_stimuli/rescaled_final/0231_rv.mp4	0.0	322.10742473602295	2.492016553878784
72	307.0879600048065	pulse	1	t		70.0	2.5	/experiments/Knapen_AOT/AOT_stimuli/rescaled_final/0231_rv.mp4	0.0	322.88296127319336	
72	308.6862757205963	pulse	1	t		70.0	2.5	/experiments/Knapen_AOT/AOT_stimuli/rescaled_final/0231_rv.mp4	0.0	324.48127698898315	
72	308.8044400215149	fix_post	2		12	70.0	2.5	/experiments/Knapen_AOT/AOT_stimuli/rescaled_final/0231_rv.mp4	0.0	324.59944128990173	0.10001611709594727
73	308.90445613861084	fix_pre	0		120	71.0	2.5	/experiments/Knapen_AOT/AOT_stimuli/rescaled_final/0100_fw.mp4	0.0	324.6994574069977	1.0084869861602783
73	309.9129431247711	movie	1		277	71.0	2.5	/experiments/Knapen_AOT/AOT_stimuli/rescaled_final/0100_fw.mp4	0.0	325.70794439315796	2.49210786819458
73	310.2883677482605	pulse	1	t		71.0	2.5	/experiments/Knapen_AOT/AOT_stimuli/rescaled_final/0100_fw.mp4	0.0	326.08336901664734	
73	311.8866946697235	pulse	1	t		71.0	2.5	/experiments/Knapen_AOT/AOT_stimuli/rescaled_final/0100_fw.mp4	0.0	327.68169593811035	
73	312.4050509929657	fix_post	2		12	71.0	2.5	/experiments/Knapen_AOT/AOT_stimuli/rescaled_final/0100_fw.mp4	0.0	328.20005226135254	0.09995126724243164
74	312.50500226020813	fix_pre	0		119	72.0	2.5	/experiments/Knapen_AOT/AOT_stimuli/rescaled_final/0738_rv.mp4	0.0	328.30000352859497	1.0086255073547363
74	313.4887340068817	pulse	0	t		72.0	2.5	/experiments/Knapen_AOT/AOT_stimuli/rescaled_final/0738_rv.mp4	0.0	329.28373527526855	
74	313.51362776756287	movie	1		274	72.0	2.5	/experiments/Knapen_AOT/AOT_stimuli/rescaled_final/0738_rv.mp4	0.0	329.3086290359497	2.491947889328003
74	315.0877344608307	pulse	1	t		72.0	2.5	/experiments/Knapen_AOT/AOT_stimuli/rescaled_final/0738_rv.mp4	0.0	330.88273572921753	
74	316.00557565689087	fix_post	2		12	72.0	2.5	/experiments/Knapen_AOT/AOT_stimuli/rescaled_final/0738_rv.mp4	0.0	331.8005769252777	0.10002422332763672
75	316.1055998802185	fix_pre	0		120	73.0	2.5	/experiments/Knapen_AOT/AOT_stimuli/rescaled_final/1217_rv.mp4	0.0	331.90060114860535	1.0084888935089111
75	316.68916368484497	pulse	0	t		73.0	2.5	/experiments/Knapen_AOT/AOT_stimuli/rescaled_final/1217_rv.mp4	0.0	332.4841649532318	
75	317.1140887737274	movie	1		274	73.0	2.5	/experiments/Knapen_AOT/AOT_stimuli/rescaled_final/1217_rv.mp4	0.0	332.90909004211426	2.491976261138916
75	318.28768587112427	pulse	1	t		73.0	2.5	/experiments/Knapen_AOT/AOT_stimuli/rescaled_final/1217_rv.mp4	0.0	334.0826871395111	
75	319.60606503486633	fix_post	2		12	73.0	2.5	/experiments/Knapen_AOT/AOT_stimuli/rescaled_final/1217_rv.mp4	0.0	335.4010663032532	0.10003089904785156
76	319.7060959339142	fix_pre	0		120	74.0	2.5	/experiments/Knapen_AOT/AOT_stimuli/rescaled_final/0442_rv.mp4	0.0	335.501097202301	1.008488655090332
76	319.88966512680054	pulse	0	t		74.0	2.5	/experiments/Knapen_AOT/AOT_stimuli/rescaled_final/0442_rv.mp4	0.0	335.6846663951874	
76	320.7145845890045	movie	1		285	74.0	2.5	/experiments/Knapen_AOT/AOT_stimuli/rescaled_final/0442_rv.mp4	0.0	336.50958585739136	2.4920241832733154
76	321.488214969635	pulse	1	t		74.0	2.5	/experiments/Knapen_AOT/AOT_stimuli/rescaled_final/0442_rv.mp4	0.0	337.28321623802185	
76	323.0884156227112	pulse	1	t		74.0	2.5	/experiments/Knapen_AOT/AOT_stimuli/rescaled_final/0442_rv.mp4	0.0	338.883416891098	
76	323.20660877227783	fix_post	2		12	74.0	2.5	/experiments/Knapen_AOT/AOT_stimuli/rescaled_final/0442_rv.mp4	0.0	339.0016100406647	0.0999751091003418
77	323.3065838813782	fix_pre	0		120	75.0	2.5	/experiments/Knapen_AOT/AOT_stimuli/rescaled_final/1986_rv.mp4	0.0	339.101585149765	1.008551836013794
77	324.31513571739197	movie	1		268	75.0	2.5	/experiments/Knapen_AOT/AOT_stimuli/rescaled_final/1986_rv.mp4	0.0	340.1101369857788	2.4920027256011963
77	324.6893424987793	pulse	1	t		75.0	2.5	/experiments/Knapen_AOT/AOT_stimuli/rescaled_final/1986_rv.mp4	0.0	340.48434376716614	
77	326.2887587547302	pulse	1	t		75.0	2.5	/experiments/Knapen_AOT/AOT_stimuli/rescaled_final/1986_rv.mp4	0.0	342.08376002311707	
77	326.80713844299316	fix_post	2		12	75.0	2.5	/experiments/Knapen_AOT/AOT_stimuli/rescaled_final/1986_rv.mp4	0.0	342.60213971138	0.10004830360412598
78	326.9071867465973	fix_pre	0		119	76.0	2.5	blank	1.0	342.70218801498413	0.9917783737182617
78	327.8909115791321	pulse	0	t		76.0	2.5	blank	1.0	343.6859128475189	
78	327.89896512031555	movie	1		301	76.0	2.5	blank	1.0	343.6939663887024	2.5087223052978516
78	329.4910659790039	pulse	1	t		76.0	2.5	blank	1.0	345.28606724739075	
78	330.4076874256134	fix_post	2		12	76.0	2.5	blank	1.0	346.20268869400024	0.10002541542053223
79	330.50771284103394	fix_pre	0		120	77.0	2.5	/experiments/Knapen_AOT/AOT_stimuli/rescaled_final/1992_fw.mp4	0.0	346.3027141094208	1.0084924697875977
79	331.091340303421	pulse	0	t		77.0	2.5	/experiments/Knapen_AOT/AOT_stimuli/rescaled_final/1992_fw.mp4	0.0	346.88634157180786	
79	331.51620531082153	movie	1		280	77.0	2.5	/experiments/Knapen_AOT/AOT_stimuli/rescaled_final/1992_fw.mp4	0.0	347.3112065792084	2.492030620574951
79	332.6900153160095	pulse	1	t		77.0	2.5	/experiments/Knapen_AOT/AOT_stimuli/rescaled_final/1992_fw.mp4	0.0	348.48501658439636	
79	334.0082359313965	fix_post	2		12	77.0	2.5	/experiments/Knapen_AOT/AOT_stimuli/rescaled_final/1992_fw.mp4	0.0	349.8032371997833	0.10006380081176758
80	334.10829973220825	fix_pre	0		120	78.0	2.5	/experiments/Knapen_AOT/AOT_stimuli/rescaled_final/1715_rv.mp4	0.0	349.9033010005951	1.0084335803985596
80	334.29184794425964	pulse	0	t		78.0	2.5	/experiments/Knapen_AOT/AOT_stimuli/rescaled_final/1715_rv.mp4	0.0	350.0868492126465	
80	335.1167333126068	movie	1		271	78.0	2.5	/experiments/Knapen_AOT/AOT_stimuli/rescaled_final/1715_rv.mp4	0.0	350.91173458099365	2.492053508758545
80	335.89259338378906	pulse	1	t		78.0	2.5	/experiments/Knapen_AOT/AOT_stimuli/rescaled_final/1715_rv.mp4	0.0	351.6875946521759	
80	337.4905650615692	pulse	1	t		78.0	2.5	/experiments/Knapen_AOT/AOT_stimuli/rescaled_final/1715_rv.mp4	0.0	353.28556632995605	
80	337.60878682136536	fix_post	2		12	78.0	2.5	/experiments/Knapen_AOT/AOT_stimuli/rescaled_final/1715_rv.mp4	0.0	353.4037880897522	0.10001564025878906
81	337.70880246162415	fix_pre	0		120	79.0	2.5	/experiments/Knapen_AOT/AOT_stimuli/rescaled_final/1715_fw.mp4	0.0	353.503803730011	1.0084893703460693
81	338.7172918319702	movie	1		264	79.0	2.5	/experiments/Knapen_AOT/AOT_stimuli/rescaled_final/1715_fw.mp4	0.0	354.51229310035706	2.4920058250427246
81	339.0910060405731	pulse	1	t		79.0	2.5	/experiments/Knapen_AOT/AOT_stimuli/rescaled_final/1715_fw.mp4	0.0	354.88600730895996	
81	340.69085216522217	pulse	1	t		79.0	2.5	/experiments/Knapen_AOT/AOT_stimuli/rescaled_final/1715_fw.mp4	0.0	356.485853433609	
81	341.20929765701294	fix_post	2		11	79.0	2.5	/experiments/Knapen_AOT/AOT_stimuli/rescaled_final/1715_fw.mp4	0.0	357.0042989253998	0.10003447532653809
82	341.3093321323395	fix_pre	0		119	80.0	2.5	/experiments/Knapen_AOT/AOT_stimuli/rescaled_final/1887_rv.mp4	0.0	357.1043334007263	1.0085244178771973
82	342.2866804599762	pulse	0	t		80.0	2.5	/experiments/Knapen_AOT/AOT_stimuli/rescaled_final/1887_rv.mp4	0.0	358.08168172836304	
82	342.3178565502167	movie	1		292	80.0	2.5	/experiments/Knapen_AOT/AOT_stimuli/rescaled_final/1887_rv.mp4	0.0	358.1128578186035	2.4919965267181396
82	343.89206075668335	pulse	1	t		80.0	2.5	/experiments/Knapen_AOT/AOT_stimuli/rescaled_final/1887_rv.mp4	0.0	359.6870620250702	
82	344.8098530769348	fix_post	2		12	80.0	2.5	/experiments/Knapen_AOT/AOT_stimuli/rescaled_final/1887_rv.mp4	0.0	360.60485434532166	0.10001683235168457
83	344.9098699092865	fix_pre	0		120	81.0	2.5	/experiments/Knapen_AOT/AOT_stimuli/rescaled_final/0805_fw.mp4	0.0	360.70487117767334	1.0084576606750488
83	345.48556637763977	pulse	0	t		81.0	2.5	/experiments/Knapen_AOT/AOT_stimuli/rescaled_final/0805_fw.mp4	0.0	361.2805676460266	
83	345.91832756996155	movie	1		279	81.0	2.5	/experiments/Knapen_AOT/AOT_stimuli/rescaled_final/0805_fw.mp4	0.0	361.7133288383484	2.492081880569458
83	347.08557891845703	pulse	1	t		81.0	2.5	/experiments/Knapen_AOT/AOT_stimuli/rescaled_final/0805_fw.mp4	0.0	362.8805801868439	
83	348.410409450531	fix_post	2		12	81.0	2.5	/experiments/Knapen_AOT/AOT_stimuli/rescaled_final/0805_fw.mp4	0.0	364.20541071891785	0.10003304481506348
84	348.51044249534607	fix_pre	0		120	82.0	2.5	blank	1.0	364.3054437637329	1.000166654586792
84	348.6857762336731	pulse	0	t		82.0	2.5	blank	1.0	364.48077750205994	
84	349.51060914993286	movie	1		300	82.0	2.5	blank	1.0	365.3056104183197	2.500321865081787
84	350.28601121902466	pulse	1	t		82.0	2.5	blank	1.0	366.0810124874115	
84	351.88626527786255	pulse	1	t		82.0	2.5	blank	1.0	367.6812665462494	
84	352.01093101501465	fix_post	2		12	82.0	2.5	blank	1.0	367.8059322834015	0.10002422332763672
85	352.1109552383423	fix_pre	0		120	83.0	2.5	/experiments/Knapen_AOT/AOT_stimuli/rescaled_final/0925_fw.mp4	0.0	367.9059565067291	1.0084712505340576
85	353.11942648887634	movie	1		262	83.0	2.5	/experiments/Knapen_AOT/AOT_stimuli/rescaled_final/0925_fw.mp4	0.0	368.9144277572632	2.492095947265625
85	353.48637318611145	pulse	1	t		83.0	2.5	/experiments/Knapen_AOT/AOT_stimuli/rescaled_final/0925_fw.mp4	0.0	369.2813744544983	
85	355.0867049694061	pulse	1	t		83.0	2.5	/experiments/Knapen_AOT/AOT_stimuli/rescaled_final/0925_fw.mp4	0.0	370.88170623779297	
85	355.61152243614197	fix_post	2		12	83.0	2.5	/experiments/Knapen_AOT/AOT_stimuli/rescaled_final/0925_fw.mp4	0.0	371.4065237045288	0.09994173049926758
87	355.71146416664124	stim	0		1716					371.5064654350281	14.302202701568604
87	356.6868677139282	pulse	0	t						372.48186898231506	
87	358.2872488498688	pulse	0	t						374.0822501182556	
87	359.8873612880707	pulse	0	t						375.6823625564575	
87	361.48760199546814	pulse	0	t						377.282603263855	
87	363.0878701210022	pulse	0	t						378.88287138938904	
87	364.68809390068054	pulse	0	t						380.4830951690674	
87	366.28828525543213	pulse	0	t						382.08328652381897	
87	367.888564825058	pulse	0	t						383.6835660934448	
87	369.48893666267395	pulse	0	t						385.2839379310608	
