trial_nr	onset	event_type	phase	response	nr_frames	movie_index	movie_duration	movie_file	blank	onset_abs	duration
0	0.158355712890625	stim	0		13					14.25596833229065	0.10814571380615234
0	0.2583887577056885	response	0	space						14.356001377105713	
1	0.26650142669677734	stim	0		4197					14.364114046096802	34.99333477020264
1	35.244962215423584	pulse	0	t						49.34257483482361	
1	35.259836196899414	stim	1		1715					49.35744881629944	14.29742980003357
1	36.83881902694702	pulse	1	t						50.936431646347046	
1	38.43908166885376	pulse	1	t						52.536694288253784	
1	40.039287090301514	pulse	1	t						54.13689970970154	
1	41.639527320861816	pulse	1	t						55.73713994026184	
1	43.23975348472595	pulse	1	t						57.33736610412598	
1	44.83997941017151	pulse	1	t						58.93759202957153	
1	46.44024443626404	pulse	1	t						60.53785705566406	
1	48.04046607017517	pulse	1	t						62.138078689575195	
2	49.55726599693298	fix_pre	0		11	0.0	2.5	/experiments/Knapen_AOT/AOT_stimuli/rescaled_final/0998_fw.mp4	0.0	63.65487861633301	0.10004067420959473
2	49.640732765197754	pulse	0	t		0.0	2.5	/experiments/Knapen_AOT/AOT_stimuli/rescaled_final/0998_fw.mp4	0.0	63.73834538459778	
2	49.65730667114258	movie	1		300	0.0	2.5	/experiments/Knapen_AOT/AOT_stimuli/rescaled_final/0998_fw.mp4	0.0	63.7549192905426	2.500354528427124
2	51.23709416389465	pulse	1	t		0.0	2.5	/experiments/Knapen_AOT/AOT_stimuli/rescaled_final/0998_fw.mp4	0.0	65.33470678329468	
2	52.1576611995697	fix_post	2		12	0.0	2.5	/experiments/Knapen_AOT/AOT_stimuli/rescaled_final/0998_fw.mp4	0.0	66.25527381896973	0.10002684593200684
3	52.25768804550171	fix_pre	0		120	1.0	2.5	/experiments/Knapen_AOT/AOT_stimuli/rescaled_final/1791_rv.mp4	0.0	66.35530066490173	1.0001318454742432
3	52.84123229980469	pulse	0	t		1.0	2.5	/experiments/Knapen_AOT/AOT_stimuli/rescaled_final/1791_rv.mp4	0.0	66.93884491920471	
3	53.25781989097595	movie	1		300	1.0	2.5	/experiments/Knapen_AOT/AOT_stimuli/rescaled_final/1791_rv.mp4	0.0	67.35543251037598	2.5003762245178223
3	54.43718338012695	pulse	1	t		1.0	2.5	/experiments/Knapen_AOT/AOT_stimuli/rescaled_final/1791_rv.mp4	0.0	68.53479599952698	
3	55.758196115493774	fix_post	2		12	1.0	2.5	/experiments/Knapen_AOT/AOT_stimuli/rescaled_final/1791_rv.mp4	0.0	69.8558087348938	0.10001420974731445
4	55.85821032524109	fix_pre	0		120	2.0	2.5	/experiments/Knapen_AOT/AOT_stimuli/rescaled_final/1598_fw.mp4	0.0	69.95582294464111	1.0001566410064697
4	56.041682958602905	pulse	0	t		2.0	2.5	/experiments/Knapen_AOT/AOT_stimuli/rescaled_final/1598_fw.mp4	0.0	70.13929557800293	
4	56.85836696624756	movie	1		300	2.0	2.5	/experiments/Knapen_AOT/AOT_stimuli/rescaled_final/1598_fw.mp4	0.0	70.95597958564758	2.5003855228424072
4	57.637840032577515	pulse	1	t		2.0	2.5	/experiments/Knapen_AOT/AOT_stimuli/rescaled_final/1598_fw.mp4	0.0	71.73545265197754	
4	59.23393726348877	pulse	1	t		2.0	2.5	/experiments/Knapen_AOT/AOT_stimuli/rescaled_final/1598_fw.mp4	0.0	73.3315498828888	
4	59.358752489089966	fix_post	2		11	2.0	2.5	/experiments/Knapen_AOT/AOT_stimuli/rescaled_final/1598_fw.mp4	0.0	73.45636510848999	0.09167027473449707
5	59.45042276382446	fix_pre	0		121	3.0	2.5	/experiments/Knapen_AOT/AOT_stimuli/rescaled_final/1069_rv.mp4	0.0	73.54803538322449	1.0084774494171143
5	60.45890021324158	movie	1		299	3.0	2.5	/experiments/Knapen_AOT/AOT_stimuli/rescaled_final/1069_rv.mp4	0.0	74.5565128326416	2.4920525550842285
5	60.83409070968628	pulse	1	t		3.0	2.5	/experiments/Knapen_AOT/AOT_stimuli/rescaled_final/1069_rv.mp4	0.0	74.9317033290863	
5	62.43436002731323	pulse	1	t		3.0	2.5	/experiments/Knapen_AOT/AOT_stimuli/rescaled_final/1069_rv.mp4	0.0	76.53197264671326	
5	62.950952768325806	fix_post	2		12	3.0	2.5	/experiments/Knapen_AOT/AOT_stimuli/rescaled_final/1069_rv.mp4	0.0	77.04856538772583	0.10002303123474121
6	63.05097579956055	fix_pre	0		119	4.0	2.5	/experiments/Knapen_AOT/AOT_stimuli/rescaled_final/1381_rv.mp4	0.0	77.14858841896057	0.9918107986450195
6	64.03460001945496	pulse	0	t		4.0	2.5	/experiments/Knapen_AOT/AOT_stimuli/rescaled_final/1381_rv.mp4	0.0	78.13221263885498	
6	64.04278659820557	movie	1		301	4.0	2.5	/experiments/Knapen_AOT/AOT_stimuli/rescaled_final/1381_rv.mp4	0.0	78.14039921760559	2.5087103843688965
6	65.63498306274414	pulse	1	t		4.0	2.5	/experiments/Knapen_AOT/AOT_stimuli/rescaled_final/1381_rv.mp4	0.0	79.73259568214417	
6	66.55149698257446	fix_post	2		12	4.0	2.5	/experiments/Knapen_AOT/AOT_stimuli/rescaled_final/1381_rv.mp4	0.0	80.64910960197449	0.10001707077026367
7	66.65151405334473	fix_pre	0		120	5.0	2.5	/experiments/Knapen_AOT/AOT_stimuli/rescaled_final/1136_fw.mp4	0.0	80.74912667274475	1.0001709461212158
7	67.23507642745972	pulse	0	t		5.0	2.5	/experiments/Knapen_AOT/AOT_stimuli/rescaled_final/1136_fw.mp4	0.0	81.33268904685974	
7	67.65168499946594	movie	1		300	5.0	2.5	/experiments/Knapen_AOT/AOT_stimuli/rescaled_final/1136_fw.mp4	0.0	81.74929761886597	2.5003466606140137
7	68.83534574508667	pulse	1	t		5.0	2.5	/experiments/Knapen_AOT/AOT_stimuli/rescaled_final/1136_fw.mp4	0.0	82.9329583644867	
7	70.15203166007996	fix_post	2		12	5.0	2.5	/experiments/Knapen_AOT/AOT_stimuli/rescaled_final/1136_fw.mp4	0.0	84.24964427947998	0.10008597373962402
8	70.25211763381958	fix_pre	0		120	6.0	2.5	/experiments/Knapen_AOT/AOT_stimuli/rescaled_final/0470_rv.mp4	0.0	84.3497302532196	1.0000646114349365
8	70.43552947044373	pulse	0	t		6.0	2.5	/experiments/Knapen_AOT/AOT_stimuli/rescaled_final/0470_rv.mp4	0.0	84.53314208984375	
8	71.25218224525452	movie	1		300	6.0	2.5	/experiments/Knapen_AOT/AOT_stimuli/rescaled_final/0470_rv.mp4	0.0	85.34979486465454	2.5003957748413086
8	72.03578639030457	pulse	1	t		6.0	2.5	/experiments/Knapen_AOT/AOT_stimuli/rescaled_final/0470_rv.mp4	0.0	86.13339900970459	
8	73.63604736328125	pulse	1	t		6.0	2.5	/experiments/Knapen_AOT/AOT_stimuli/rescaled_final/0470_rv.mp4	0.0	87.73365998268127	
8	73.75257802009583	fix_post	2		12	6.0	2.5	/experiments/Knapen_AOT/AOT_stimuli/rescaled_final/0470_rv.mp4	0.0	87.85019063949585	0.1000514030456543
9	73.85262942314148	fix_pre	0		120	7.0	2.5	blank	1.0	87.9502420425415	1.0001702308654785
9	74.85279965400696	movie	1		299	7.0	2.5	blank	1.0	88.95041227340698	2.492018222808838
9	75.23626613616943	pulse	1	t		7.0	2.5	blank	1.0	89.33387875556946	
9	76.83652853965759	pulse	1	t		7.0	2.5	blank	1.0	90.93414115905762	
9	77.3448178768158	fix_post	2		12	7.0	2.5	blank	1.0	91.44243049621582	0.10002756118774414
10	77.44484543800354	fix_pre	0		120	8.0	2.5	/experiments/Knapen_AOT/AOT_stimuli/rescaled_final/2095_rv.mp4	0.0	91.54245805740356	1.0004208087921143
10	78.43676495552063	pulse	0	t		8.0	2.5	/experiments/Knapen_AOT/AOT_stimuli/rescaled_final/2095_rv.mp4	0.0	92.53437757492065	
10	78.44526624679565	movie	1		301	8.0	2.5	/experiments/Knapen_AOT/AOT_stimuli/rescaled_final/2095_rv.mp4	0.0	92.54287886619568	2.5084006786346436
10	80.03711009025574	pulse	1	t		8.0	2.5	/experiments/Knapen_AOT/AOT_stimuli/rescaled_final/2095_rv.mp4	0.0	94.13472270965576	
10	80.9536669254303	fix_post	2		12	8.0	2.5	/experiments/Knapen_AOT/AOT_stimuli/rescaled_final/2095_rv.mp4	0.0	95.05127954483032	0.10002875328063965
11	81.05369567871094	fix_pre	0		120	9.0	2.5	/experiments/Knapen_AOT/AOT_stimuli/rescaled_final/0153_fw.mp4	0.0	95.15130829811096	1.0001099109649658
11	81.63723087310791	pulse	0	t		9.0	2.5	/experiments/Knapen_AOT/AOT_stimuli/rescaled_final/0153_fw.mp4	0.0	95.73484349250793	
11	82.0538055896759	movie	1		300	9.0	2.5	/experiments/Knapen_AOT/AOT_stimuli/rescaled_final/0153_fw.mp4	0.0	96.15141820907593	2.5003929138183594
11	83.23750305175781	pulse	1	t		9.0	2.5	/experiments/Knapen_AOT/AOT_stimuli/rescaled_final/0153_fw.mp4	0.0	97.33511567115784	
11	84.55419850349426	fix_post	2		12	9.0	2.5	/experiments/Knapen_AOT/AOT_stimuli/rescaled_final/0153_fw.mp4	0.0	98.65181112289429	0.10001587867736816
12	84.65421438217163	fix_pre	0		120	10.0	2.5	/experiments/Knapen_AOT/AOT_stimuli/rescaled_final/2069_rv.mp4	0.0	98.75182700157166	1.0001628398895264
12	84.83769011497498	pulse	0	t		10.0	2.5	/experiments/Knapen_AOT/AOT_stimuli/rescaled_final/2069_rv.mp4	0.0	98.935302734375	
12	85.65437722206116	movie	1		300	10.0	2.5	/experiments/Knapen_AOT/AOT_stimuli/rescaled_final/2069_rv.mp4	0.0	99.75198984146118	2.5003645420074463
12	86.43797063827515	pulse	1	t		10.0	2.5	/experiments/Knapen_AOT/AOT_stimuli/rescaled_final/2069_rv.mp4	0.0	100.53558325767517	
12	88.03823518753052	pulse	1	t		10.0	2.5	/experiments/Knapen_AOT/AOT_stimuli/rescaled_final/2069_rv.mp4	0.0	102.13584780693054	
12	88.1547417640686	fix_post	2		12	10.0	2.5	/experiments/Knapen_AOT/AOT_stimuli/rescaled_final/2069_rv.mp4	0.0	102.25235438346863	0.10004544258117676
13	88.25478720664978	fix_pre	0		120	11.0	2.5	/experiments/Knapen_AOT/AOT_stimuli/rescaled_final/1136_rv.mp4	0.0	102.3523998260498	1.000110387802124
13	89.2548975944519	movie	1		299	11.0	2.5	/experiments/Knapen_AOT/AOT_stimuli/rescaled_final/1136_rv.mp4	0.0	103.35251021385193	2.4920735359191895
13	89.63432502746582	pulse	1	t		11.0	2.5	/experiments/Knapen_AOT/AOT_stimuli/rescaled_final/1136_rv.mp4	0.0	103.73193764686584	
13	91.23428988456726	pulse	1	t		11.0	2.5	/experiments/Knapen_AOT/AOT_stimuli/rescaled_final/1136_rv.mp4	0.0	105.33190250396729	
13	91.7469711303711	fix_post	2		12	11.0	2.5	/experiments/Knapen_AOT/AOT_stimuli/rescaled_final/1136_rv.mp4	0.0	105.84458374977112	0.10001587867736816
14	91.84698700904846	fix_pre	0		120	12.0	2.5	/experiments/Knapen_AOT/AOT_stimuli/rescaled_final/0344_fw.mp4	0.0	105.94459962844849	1.0001037120819092
14	92.83897471427917	pulse	0	t		12.0	2.5	/experiments/Knapen_AOT/AOT_stimuli/rescaled_final/0344_fw.mp4	0.0	106.9365873336792	
14	92.84709072113037	movie	1		301	12.0	2.5	/experiments/Knapen_AOT/AOT_stimuli/rescaled_final/0344_fw.mp4	0.0	106.9447033405304	2.5087311267852783
14	94.43543314933777	pulse	1	t		12.0	2.5	/experiments/Knapen_AOT/AOT_stimuli/rescaled_final/0344_fw.mp4	0.0	108.5330457687378	
14	95.35582184791565	fix_post	2		12	12.0	2.5	/experiments/Knapen_AOT/AOT_stimuli/rescaled_final/0344_fw.mp4	0.0	109.45343446731567	0.10003232955932617
15	95.45585417747498	fix_pre	0		120	13.0	2.5	blank	1.0	109.553466796875	1.0002210140228271
15	96.03937339782715	pulse	0	t		13.0	2.5	blank	1.0	110.13698601722717	
15	96.4560751914978	movie	1		300	13.0	2.5	blank	1.0	110.55368781089783	2.500286817550659
15	97.63961672782898	pulse	1	t		13.0	2.5	blank	1.0	111.737229347229	
15	98.95636200904846	fix_post	2		12	13.0	2.5	blank	1.0	113.05397462844849	0.10002374649047852
16	99.05638575553894	fix_pre	0		120	14.0	2.5	/experiments/Knapen_AOT/AOT_stimuli/rescaled_final/1767_fw.mp4	0.0	113.15399837493896	1.0001237392425537
16	99.23991465568542	pulse	0	t		14.0	2.5	/experiments/Knapen_AOT/AOT_stimuli/rescaled_final/1767_fw.mp4	0.0	113.33752727508545	
16	100.0565094947815	movie	1		300	14.0	2.5	/experiments/Knapen_AOT/AOT_stimuli/rescaled_final/1767_fw.mp4	0.0	114.15412211418152	2.500464677810669
16	100.83577632904053	pulse	1	t		14.0	2.5	/experiments/Knapen_AOT/AOT_stimuli/rescaled_final/1767_fw.mp4	0.0	114.93338894844055	
16	102.43591547012329	pulse	1	t		14.0	2.5	/experiments/Knapen_AOT/AOT_stimuli/rescaled_final/1767_fw.mp4	0.0	116.53352808952332	
16	102.55697417259216	fix_post	2		12	14.0	2.5	/experiments/Knapen_AOT/AOT_stimuli/rescaled_final/1767_fw.mp4	0.0	116.65458679199219	0.09996581077575684
17	102.65693998336792	fix_pre	0		120	15.0	2.5	/experiments/Knapen_AOT/AOT_stimuli/rescaled_final/1151_rv.mp4	0.0	116.75455260276794	1.000136375427246
17	103.65707635879517	movie	1		298	15.0	2.5	/experiments/Knapen_AOT/AOT_stimuli/rescaled_final/1151_rv.mp4	0.0	117.75468897819519	2.4921014308929443
17	104.03662204742432	pulse	1	t		15.0	2.5	/experiments/Knapen_AOT/AOT_stimuli/rescaled_final/1151_rv.mp4	0.0	118.13423466682434	
17	105.63637018203735	pulse	1	t		15.0	2.5	/experiments/Knapen_AOT/AOT_stimuli/rescaled_final/1151_rv.mp4	0.0	119.73398280143738	
17	106.14917778968811	fix_post	2		12	15.0	2.5	/experiments/Knapen_AOT/AOT_stimuli/rescaled_final/1151_rv.mp4	0.0	120.24679040908813	0.10001373291015625
18	106.24919152259827	fix_pre	0		120	16.0	2.5	/experiments/Knapen_AOT/AOT_stimuli/rescaled_final/1997_rv.mp4	0.0	120.34680414199829	1.000091791152954
18	107.24106574058533	pulse	0	t		16.0	2.5	/experiments/Knapen_AOT/AOT_stimuli/rescaled_final/1997_rv.mp4	0.0	121.33867835998535	
18	107.24928331375122	movie	1		300	16.0	2.5	/experiments/Knapen_AOT/AOT_stimuli/rescaled_final/1997_rv.mp4	0.0	121.34689593315125	2.508716344833374
18	108.83747839927673	pulse	1	t		16.0	2.5	/experiments/Knapen_AOT/AOT_stimuli/rescaled_final/1997_rv.mp4	0.0	122.93509101867676	
18	109.7579996585846	fix_post	2		12	16.0	2.5	/experiments/Knapen_AOT/AOT_stimuli/rescaled_final/1997_rv.mp4	0.0	123.85561227798462	0.10004901885986328
19	109.85804867744446	fix_pre	0		120	17.0	2.5	/experiments/Knapen_AOT/AOT_stimuli/rescaled_final/0406_rv.mp4	0.0	123.95566129684448	1.0001118183135986
19	110.44156575202942	pulse	0	t		17.0	2.5	/experiments/Knapen_AOT/AOT_stimuli/rescaled_final/0406_rv.mp4	0.0	124.53917837142944	
19	110.85816049575806	movie	1		300	17.0	2.5	/experiments/Knapen_AOT/AOT_stimuli/rescaled_final/0406_rv.mp4	0.0	124.95577311515808	2.500464677810669
19	112.03797960281372	pulse	1	t		17.0	2.5	/experiments/Knapen_AOT/AOT_stimuli/rescaled_final/0406_rv.mp4	0.0	126.13559222221375	
19	113.35862517356873	fix_post	2		12	17.0	2.5	/experiments/Knapen_AOT/AOT_stimuli/rescaled_final/0406_rv.mp4	0.0	127.45623779296875	0.09992003440856934
20	113.4585452079773	fix_pre	0		120	18.0	2.5	/experiments/Knapen_AOT/AOT_stimuli/rescaled_final/1156_rv.mp4	0.0	127.55615782737732	1.000157117843628
20	113.64207077026367	pulse	0	t		18.0	2.5	/experiments/Knapen_AOT/AOT_stimuli/rescaled_final/1156_rv.mp4	0.0	127.7396833896637	
20	114.45870232582092	movie	1		300	18.0	2.5	/experiments/Knapen_AOT/AOT_stimuli/rescaled_final/1156_rv.mp4	0.0	128.55631494522095	2.5003838539123535
20	115.23780298233032	pulse	1	t		18.0	2.5	/experiments/Knapen_AOT/AOT_stimuli/rescaled_final/1156_rv.mp4	0.0	129.33541560173035	
20	116.83429074287415	pulse	1	t		18.0	2.5	/experiments/Knapen_AOT/AOT_stimuli/rescaled_final/1156_rv.mp4	0.0	130.93190336227417	
20	116.95908617973328	fix_post	2		12	18.0	2.5	/experiments/Knapen_AOT/AOT_stimuli/rescaled_final/1156_rv.mp4	0.0	131.0566987991333	0.10002589225769043
21	117.05911207199097	fix_pre	0		120	19.0	2.5	blank	1.0	131.156724691391	1.0001862049102783
21	118.05929827690125	movie	1		299	19.0	2.5	blank	1.0	132.15691089630127	2.4920244216918945
21	118.43445873260498	pulse	1	t		19.0	2.5	blank	1.0	132.532071352005	
21	120.03464078903198	pulse	1	t		19.0	2.5	blank	1.0	134.132253408432	
21	120.55132269859314	fix_post	2		12	19.0	2.5	blank	1.0	134.64893531799316	0.10001373291015625
22	120.6513364315033	fix_pre	0		119	20.0	2.5	/experiments/Knapen_AOT/AOT_stimuli/rescaled_final/0632_rv.mp4	0.0	134.74894905090332	0.9920158386230469
22	121.63490962982178	pulse	0	t		20.0	2.5	/experiments/Knapen_AOT/AOT_stimuli/rescaled_final/0632_rv.mp4	0.0	135.7325222492218	
22	121.64335227012634	movie	1		301	20.0	2.5	/experiments/Knapen_AOT/AOT_stimuli/rescaled_final/0632_rv.mp4	0.0	135.74096488952637	2.5084733963012695
22	123.23527383804321	pulse	1	t		20.0	2.5	/experiments/Knapen_AOT/AOT_stimuli/rescaled_final/0632_rv.mp4	0.0	137.33288645744324	
22	124.15182566642761	fix_post	2		12	20.0	2.5	/experiments/Knapen_AOT/AOT_stimuli/rescaled_final/0632_rv.mp4	0.0	138.24943828582764	0.10003376007080078
23	124.25185942649841	fix_pre	0		120	21.0	2.5	/experiments/Knapen_AOT/AOT_stimuli/rescaled_final/0828_fw.mp4	0.0	138.34947204589844	1.0001251697540283
23	124.83539366722107	pulse	0	t		21.0	2.5	/experiments/Knapen_AOT/AOT_stimuli/rescaled_final/0828_fw.mp4	0.0	138.9330062866211	
23	125.25198459625244	movie	1		300	21.0	2.5	/experiments/Knapen_AOT/AOT_stimuli/rescaled_final/0828_fw.mp4	0.0	139.34959721565247	2.500432252883911
23	126.43566513061523	pulse	1	t		21.0	2.5	/experiments/Knapen_AOT/AOT_stimuli/rescaled_final/0828_fw.mp4	0.0	140.53327775001526	
23	127.75241684913635	fix_post	2		12	21.0	2.5	/experiments/Knapen_AOT/AOT_stimuli/rescaled_final/0828_fw.mp4	0.0	141.85002946853638	0.10001516342163086
24	127.85243201255798	fix_pre	0		120	22.0	2.5	/experiments/Knapen_AOT/AOT_stimuli/rescaled_final/0608_rv.mp4	0.0	141.950044631958	1.0001370906829834
24	128.03585958480835	pulse	0	t		22.0	2.5	/experiments/Knapen_AOT/AOT_stimuli/rescaled_final/0608_rv.mp4	0.0	142.13347220420837	
24	128.85256910324097	movie	1		299	22.0	2.5	/experiments/Knapen_AOT/AOT_stimuli/rescaled_final/0608_rv.mp4	0.0	142.950181722641	2.500337600708008
24	129.6361904144287	pulse	1	t		22.0	2.5	/experiments/Knapen_AOT/AOT_stimuli/rescaled_final/0608_rv.mp4	0.0	143.73380303382874	
24	131.23642754554749	pulse	1	t		22.0	2.5	/experiments/Knapen_AOT/AOT_stimuli/rescaled_final/0608_rv.mp4	0.0	145.3340401649475	
24	131.35290670394897	fix_post	2		12	22.0	2.5	/experiments/Knapen_AOT/AOT_stimuli/rescaled_final/0608_rv.mp4	0.0	145.450519323349	0.10002565383911133
25	131.4529323577881	fix_pre	0		120	23.0	2.5	/experiments/Knapen_AOT/AOT_stimuli/rescaled_final/0940_rv.mp4	0.0	145.5505449771881	1.0001511573791504
25	132.45308351516724	movie	1		299	23.0	2.5	/experiments/Knapen_AOT/AOT_stimuli/rescaled_final/0940_rv.mp4	0.0	146.55069613456726	2.4920494556427
25	132.8366677761078	pulse	1	t		23.0	2.5	/experiments/Knapen_AOT/AOT_stimuli/rescaled_final/0940_rv.mp4	0.0	146.9342803955078	
25	134.43685293197632	pulse	1	t		23.0	2.5	/experiments/Knapen_AOT/AOT_stimuli/rescaled_final/0940_rv.mp4	0.0	148.53446555137634	
25	134.94513297080994	fix_post	2		12	23.0	2.5	/experiments/Knapen_AOT/AOT_stimuli/rescaled_final/0940_rv.mp4	0.0	149.04274559020996	0.10001134872436523
26	135.0451443195343	fix_pre	0		120	24.0	2.5	/experiments/Knapen_AOT/AOT_stimuli/rescaled_final/0344_rv.mp4	0.0	149.14275693893433	1.0085232257843018
26	136.03708600997925	pulse	0	t		24.0	2.5	/experiments/Knapen_AOT/AOT_stimuli/rescaled_final/0344_rv.mp4	0.0	150.13469862937927	
26	136.0536675453186	movie	1		300	24.0	2.5	/experiments/Knapen_AOT/AOT_stimuli/rescaled_final/0344_rv.mp4	0.0	150.15128016471863	2.5003199577331543
26	137.63744688034058	pulse	1	t		24.0	2.5	/experiments/Knapen_AOT/AOT_stimuli/rescaled_final/0344_rv.mp4	0.0	151.7350594997406	
26	138.55398750305176	fix_post	2		12	24.0	2.5	/experiments/Knapen_AOT/AOT_stimuli/rescaled_final/0344_rv.mp4	0.0	152.65160012245178	0.10001993179321289
27	138.65400743484497	fix_pre	0		120	25.0	2.5	/experiments/Knapen_AOT/AOT_stimuli/rescaled_final/1570_rv.mp4	0.0	152.751620054245	1.0001764297485352
27	139.23762822151184	pulse	0	t		25.0	2.5	/experiments/Knapen_AOT/AOT_stimuli/rescaled_final/1570_rv.mp4	0.0	153.33524084091187	
27	139.6541838645935	movie	1		300	25.0	2.5	/experiments/Knapen_AOT/AOT_stimuli/rescaled_final/1570_rv.mp4	0.0	153.75179648399353	2.500422954559326
27	140.83783078193665	pulse	1	t		25.0	2.5	/experiments/Knapen_AOT/AOT_stimuli/rescaled_final/1570_rv.mp4	0.0	154.93544340133667	
27	142.15460681915283	fix_post	2		12	25.0	2.5	/experiments/Knapen_AOT/AOT_stimuli/rescaled_final/1570_rv.mp4	0.0	156.25221943855286	0.100006103515625
28	142.25461292266846	fix_pre	0		120	26.0	2.5	blank	1.0	156.35222554206848	1.000091314315796
28	142.43806219100952	pulse	0	t		26.0	2.5	blank	1.0	156.53567481040955	
28	143.25470423698425	movie	1		300	26.0	2.5	blank	1.0	157.35231685638428	2.5003750324249268
28	144.03827238082886	pulse	1	t		26.0	2.5	blank	1.0	158.13588500022888	
28	145.63851690292358	pulse	1	t		26.0	2.5	blank	1.0	159.7361295223236	
28	145.75507926940918	fix_post	2		12	26.0	2.5	blank	1.0	159.8526918888092	0.10001254081726074
29	145.85509181022644	fix_pre	0		120	27.0	2.5	/experiments/Knapen_AOT/AOT_stimuli/rescaled_final/1318_rv.mp4	0.0	159.95270442962646	1.0002126693725586
29	146.855304479599	movie	1		299	27.0	2.5	/experiments/Knapen_AOT/AOT_stimuli/rescaled_final/1318_rv.mp4	0.0	160.95291709899902	2.492051124572754
29	147.2348666191101	pulse	1	t		27.0	2.5	/experiments/Knapen_AOT/AOT_stimuli/rescaled_final/1318_rv.mp4	0.0	161.33247923851013	
29	148.83463168144226	pulse	1	t		27.0	2.5	/experiments/Knapen_AOT/AOT_stimuli/rescaled_final/1318_rv.mp4	0.0	162.93224430084229	
29	149.34735560417175	fix_post	2		12	27.0	2.5	/experiments/Knapen_AOT/AOT_stimuli/rescaled_final/1318_rv.mp4	0.0	163.44496822357178	0.09999942779541016
30	149.44735503196716	fix_pre	0		120	28.0	2.5	/experiments/Knapen_AOT/AOT_stimuli/rescaled_final/1294_fw.mp4	0.0	163.5449676513672	1.008448839187622
30	150.43923807144165	pulse	0	t		28.0	2.5	/experiments/Knapen_AOT/AOT_stimuli/rescaled_final/1294_fw.mp4	0.0	164.53685069084167	
30	150.45580387115479	movie	1		300	28.0	2.5	/experiments/Knapen_AOT/AOT_stimuli/rescaled_final/1294_fw.mp4	0.0	164.5534164905548	2.500394344329834
30	152.03557300567627	pulse	1	t		28.0	2.5	/experiments/Knapen_AOT/AOT_stimuli/rescaled_final/1294_fw.mp4	0.0	166.1331856250763	
30	152.95619821548462	fix_post	2		12	28.0	2.5	/experiments/Knapen_AOT/AOT_stimuli/rescaled_final/1294_fw.mp4	0.0	167.05381083488464	0.10000848770141602
31	153.05620670318604	fix_pre	0		120	29.0	2.5	/experiments/Knapen_AOT/AOT_stimuli/rescaled_final/2119_fw.mp4	0.0	167.15381932258606	1.0001239776611328
31	153.6397762298584	pulse	0	t		29.0	2.5	/experiments/Knapen_AOT/AOT_stimuli/rescaled_final/2119_fw.mp4	0.0	167.73738884925842	
31	154.05633068084717	movie	1		300	29.0	2.5	/experiments/Knapen_AOT/AOT_stimuli/rescaled_final/2119_fw.mp4	0.0	168.1539433002472	2.5004372596740723
31	155.23570561408997	pulse	1	t		29.0	2.5	/experiments/Knapen_AOT/AOT_stimuli/rescaled_final/2119_fw.mp4	0.0	169.33331823349	
31	156.55676794052124	fix_post	2		12	29.0	2.5	/experiments/Knapen_AOT/AOT_stimuli/rescaled_final/2119_fw.mp4	0.0	170.65438055992126	0.10017704963684082
32	156.65694499015808	fix_pre	0		120	30.0	2.5	/experiments/Knapen_AOT/AOT_stimuli/rescaled_final/1956_rv.mp4	0.0	170.7545576095581	0.9999241828918457
32	156.84022116661072	pulse	0	t		30.0	2.5	/experiments/Knapen_AOT/AOT_stimuli/rescaled_final/1956_rv.mp4	0.0	170.93783378601074	
32	157.65686917304993	movie	1		299	30.0	2.5	/experiments/Knapen_AOT/AOT_stimuli/rescaled_final/1956_rv.mp4	0.0	171.75448179244995	2.5003645420074463
32	158.43599581718445	pulse	1	t		30.0	2.5	/experiments/Knapen_AOT/AOT_stimuli/rescaled_final/1956_rv.mp4	0.0	172.53360843658447	
32	160.03638291358948	pulse	1	t		30.0	2.5	/experiments/Knapen_AOT/AOT_stimuli/rescaled_final/1956_rv.mp4	0.0	174.1339955329895	
32	160.15723371505737	fix_post	2		12	30.0	2.5	/experiments/Knapen_AOT/AOT_stimuli/rescaled_final/1956_rv.mp4	0.0	174.2548463344574	0.10002970695495605
33	160.25726342201233	fix_pre	0		120	31.0	2.5	/experiments/Knapen_AOT/AOT_stimuli/rescaled_final/1008_rv.mp4	0.0	174.35487604141235	1.0001516342163086
33	161.25741505622864	movie	1		299	31.0	2.5	/experiments/Knapen_AOT/AOT_stimuli/rescaled_final/1008_rv.mp4	0.0	175.35502767562866	2.492039442062378
33	161.6370871067047	pulse	1	t		31.0	2.5	/experiments/Knapen_AOT/AOT_stimuli/rescaled_final/1008_rv.mp4	0.0	175.73469972610474	
33	163.23671770095825	pulse	1	t		31.0	2.5	/experiments/Knapen_AOT/AOT_stimuli/rescaled_final/1008_rv.mp4	0.0	177.33433032035828	
33	163.74945449829102	fix_post	2		12	31.0	2.5	/experiments/Knapen_AOT/AOT_stimuli/rescaled_final/1008_rv.mp4	0.0	177.84706711769104	0.10001993179321289
34	163.84947443008423	fix_pre	0		120	32.0	2.5	/experiments/Knapen_AOT/AOT_stimuli/rescaled_final/1510_fw.mp4	0.0	177.94708704948425	1.008545160293579
34	164.84145855903625	pulse	0	t		32.0	2.5	/experiments/Knapen_AOT/AOT_stimuli/rescaled_final/1510_fw.mp4	0.0	178.93907117843628	
34	164.8580195903778	movie	1		300	32.0	2.5	/experiments/Knapen_AOT/AOT_stimuli/rescaled_final/1510_fw.mp4	0.0	178.95563220977783	2.5003132820129395
34	166.43788385391235	pulse	1	t		32.0	2.5	/experiments/Knapen_AOT/AOT_stimuli/rescaled_final/1510_fw.mp4	0.0	180.53549647331238	
34	167.35833287239075	fix_post	2		12	32.0	2.5	/experiments/Knapen_AOT/AOT_stimuli/rescaled_final/1510_fw.mp4	0.0	181.45594549179077	0.10004258155822754
35	167.45837545394897	fix_pre	0		120	33.0	2.5	/experiments/Knapen_AOT/AOT_stimuli/rescaled_final/1069_rv.mp4	0.0	181.555988073349	1.0001294612884521
35	168.04189896583557	pulse	0	t		33.0	2.5	/experiments/Knapen_AOT/AOT_stimuli/rescaled_final/1069_rv.mp4	0.0	182.1395115852356	
35	168.45850491523743	movie	1		300	33.0	2.5	/experiments/Knapen_AOT/AOT_stimuli/rescaled_final/1069_rv.mp4	0.0	182.55611753463745	2.5003888607025146
35	169.63786959648132	pulse	1	t		33.0	2.5	/experiments/Knapen_AOT/AOT_stimuli/rescaled_final/1069_rv.mp4	0.0	183.73548221588135	
35	170.95889377593994	fix_post	2		12	33.0	2.5	/experiments/Knapen_AOT/AOT_stimuli/rescaled_final/1069_rv.mp4	0.0	185.05650639533997	0.10005736351013184
36	171.05895113945007	fix_pre	0		120	34.0	2.5	/experiments/Knapen_AOT/AOT_stimuli/rescaled_final/0406_fw.mp4	0.0	185.1565637588501	1.0000765323638916
36	171.24241828918457	pulse	0	t		34.0	2.5	/experiments/Knapen_AOT/AOT_stimuli/rescaled_final/0406_fw.mp4	0.0	185.3400309085846	
36	172.05902767181396	movie	1		300	34.0	2.5	/experiments/Knapen_AOT/AOT_stimuli/rescaled_final/0406_fw.mp4	0.0	186.156640291214	2.50039005279541
36	172.8381633758545	pulse	1	t		34.0	2.5	/experiments/Knapen_AOT/AOT_stimuli/rescaled_final/0406_fw.mp4	0.0	186.93577599525452	
36	174.43854570388794	pulse	1	t		34.0	2.5	/experiments/Knapen_AOT/AOT_stimuli/rescaled_final/0406_fw.mp4	0.0	188.53615832328796	
36	174.55941772460938	fix_post	2		12	34.0	2.5	/experiments/Knapen_AOT/AOT_stimuli/rescaled_final/0406_fw.mp4	0.0	188.6570303440094	0.10002517700195312
37	174.65944290161133	fix_pre	0		120	35.0	2.5	blank	1.0	188.75705552101135	1.0001416206359863
37	175.65958452224731	movie	1		299	35.0	2.5	blank	1.0	189.75719714164734	2.4920339584350586
37	176.0348300933838	pulse	1	t		35.0	2.5	blank	1.0	190.1324427127838	
37	177.6350109577179	pulse	1	t		35.0	2.5	blank	1.0	191.73262357711792	
37	178.15161848068237	fix_post	2		12	35.0	2.5	blank	1.0	192.2492311000824	0.1000216007232666
38	178.25164008140564	fix_pre	0		119	36.0	2.5	/experiments/Knapen_AOT/AOT_stimuli/rescaled_final/1075_rv.mp4	0.0	192.34925270080566	1.0001683235168457
38	179.23523259162903	pulse	0	t		36.0	2.5	/experiments/Knapen_AOT/AOT_stimuli/rescaled_final/1075_rv.mp4	0.0	193.33284521102905	
38	179.25180840492249	movie	1		300	36.0	2.5	/experiments/Knapen_AOT/AOT_stimuli/rescaled_final/1075_rv.mp4	0.0	193.3494210243225	2.500356912612915
38	180.83563494682312	pulse	1	t		36.0	2.5	/experiments/Knapen_AOT/AOT_stimuli/rescaled_final/1075_rv.mp4	0.0	194.93324756622314	
38	181.7521653175354	fix_post	2		12	36.0	2.5	/experiments/Knapen_AOT/AOT_stimuli/rescaled_final/1075_rv.mp4	0.0	195.84977793693542	0.10002470016479492
39	181.8521900177002	fix_pre	0		120	37.0	2.5	/experiments/Knapen_AOT/AOT_stimuli/rescaled_final/1758_fw.mp4	0.0	195.94980263710022	1.0001699924468994
39	182.43572187423706	pulse	0	t		37.0	2.5	/experiments/Knapen_AOT/AOT_stimuli/rescaled_final/1758_fw.mp4	0.0	196.53333449363708	
39	182.8523600101471	movie	1		300	37.0	2.5	/experiments/Knapen_AOT/AOT_stimuli/rescaled_final/1758_fw.mp4	0.0	196.94997262954712	2.5003504753112793
39	184.03599667549133	pulse	1	t		37.0	2.5	/experiments/Knapen_AOT/AOT_stimuli/rescaled_final/1758_fw.mp4	0.0	198.13360929489136	
39	185.35271048545837	fix_post	2		12	37.0	2.5	/experiments/Knapen_AOT/AOT_stimuli/rescaled_final/1758_fw.mp4	0.0	199.4503231048584	0.10001635551452637
40	185.4527268409729	fix_pre	0		120	38.0	2.5	/experiments/Knapen_AOT/AOT_stimuli/rescaled_final/0694_rv.mp4	0.0	199.55033946037292	1.0001437664031982
40	185.63625264167786	pulse	0	t		38.0	2.5	/experiments/Knapen_AOT/AOT_stimuli/rescaled_final/0694_rv.mp4	0.0	199.73386526107788	
40	186.4528706073761	movie	1		300	38.0	2.5	/experiments/Knapen_AOT/AOT_stimuli/rescaled_final/0694_rv.mp4	0.0	200.55048322677612	2.5003819465637207
40	187.23655033111572	pulse	1	t		38.0	2.5	/experiments/Knapen_AOT/AOT_stimuli/rescaled_final/0694_rv.mp4	0.0	201.33416295051575	
40	188.83672094345093	pulse	1	t		38.0	2.5	/experiments/Knapen_AOT/AOT_stimuli/rescaled_final/0694_rv.mp4	0.0	202.93433356285095	
40	188.95325255393982	fix_post	2		12	38.0	2.5	/experiments/Knapen_AOT/AOT_stimuli/rescaled_final/0694_rv.mp4	0.0	203.05086517333984	0.10002732276916504
41	189.05327987670898	fix_pre	0		119	39.0	2.5	/experiments/Knapen_AOT/AOT_stimuli/rescaled_final/1042_rv.mp4	0.0	203.150892496109	0.9918129444122314
41	190.04509282112122	movie	1		300	39.0	2.5	/experiments/Knapen_AOT/AOT_stimuli/rescaled_final/1042_rv.mp4	0.0	204.14270544052124	2.5003528594970703
41	190.43703985214233	pulse	1	t		39.0	2.5	/experiments/Knapen_AOT/AOT_stimuli/rescaled_final/1042_rv.mp4	0.0	204.53465247154236	
41	192.03735828399658	pulse	1	t		39.0	2.5	/experiments/Knapen_AOT/AOT_stimuli/rescaled_final/1042_rv.mp4	0.0	206.1349709033966	
41	192.5454456806183	fix_post	2		12	39.0	2.5	/experiments/Knapen_AOT/AOT_stimuli/rescaled_final/1042_rv.mp4	0.0	206.6430583000183	0.10002803802490234
42	192.6454737186432	fix_pre	0		120	40.0	2.5	blank	1.0	206.7430863380432	1.0001718997955322
42	193.63745021820068	pulse	0	t		40.0	2.5	blank	1.0	207.7350628376007	
42	193.64564561843872	movie	1		301	40.0	2.5	blank	1.0	207.74325823783875	2.5086934566497803
42	195.2377233505249	pulse	1	t		40.0	2.5	blank	1.0	209.33533596992493	
42	196.1543390750885	fix_post	2		12	40.0	2.5	blank	1.0	210.25195169448853	0.10001993179321289
43	196.2543590068817	fix_pre	0		120	41.0	2.5	/experiments/Knapen_AOT/AOT_stimuli/rescaled_final/1937_rv.mp4	0.0	210.35197162628174	1.0001437664031982
43	196.83790254592896	pulse	0	t		41.0	2.5	/experiments/Knapen_AOT/AOT_stimuli/rescaled_final/1937_rv.mp4	0.0	210.93551516532898	
43	197.2545027732849	movie	1		300	41.0	2.5	/experiments/Knapen_AOT/AOT_stimuli/rescaled_final/1937_rv.mp4	0.0	211.35211539268494	2.500399589538574
43	198.43820905685425	pulse	1	t		41.0	2.5	/experiments/Knapen_AOT/AOT_stimuli/rescaled_final/1937_rv.mp4	0.0	212.53582167625427	
43	199.7549023628235	fix_post	2		12	41.0	2.5	/experiments/Knapen_AOT/AOT_stimuli/rescaled_final/1937_rv.mp4	0.0	213.8525149822235	0.10000991821289062
44	199.85491228103638	fix_pre	0		120	42.0	2.5	/experiments/Knapen_AOT/AOT_stimuli/rescaled_final/1055_fw.mp4	0.0	213.9525249004364	1.0001230239868164
44	200.03839874267578	pulse	0	t		42.0	2.5	/experiments/Knapen_AOT/AOT_stimuli/rescaled_final/1055_fw.mp4	0.0	214.1360113620758	
44	200.8550353050232	movie	1		300	42.0	2.5	/experiments/Knapen_AOT/AOT_stimuli/rescaled_final/1055_fw.mp4	0.0	214.95264792442322	2.5003960132598877
44	201.63864850997925	pulse	1	t		42.0	2.5	/experiments/Knapen_AOT/AOT_stimuli/rescaled_final/1055_fw.mp4	0.0	215.73626112937927	
44	203.23889088630676	pulse	1	t		42.0	2.5	/experiments/Knapen_AOT/AOT_stimuli/rescaled_final/1055_fw.mp4	0.0	217.3365035057068	
44	203.35543131828308	fix_post	2		12	42.0	2.5	/experiments/Knapen_AOT/AOT_stimuli/rescaled_final/1055_fw.mp4	0.0	217.4530439376831	0.10000324249267578
45	203.45543456077576	fix_pre	0		120	43.0	2.5	/experiments/Knapen_AOT/AOT_stimuli/rescaled_final/0562_rv.mp4	0.0	217.55304718017578	1.0001776218414307
45	204.4556121826172	movie	1		299	43.0	2.5	/experiments/Knapen_AOT/AOT_stimuli/rescaled_final/0562_rv.mp4	0.0	218.5532248020172	2.491997241973877
45	204.83499598503113	pulse	1	t		43.0	2.5	/experiments/Knapen_AOT/AOT_stimuli/rescaled_final/0562_rv.mp4	0.0	218.93260860443115	
45	206.43511605262756	pulse	1	t		43.0	2.5	/experiments/Knapen_AOT/AOT_stimuli/rescaled_final/0562_rv.mp4	0.0	220.5327286720276	
45	206.94760942459106	fix_post	2		12	43.0	2.5	/experiments/Knapen_AOT/AOT_stimuli/rescaled_final/0562_rv.mp4	0.0	221.0452220439911	0.10001921653747559
46	207.04762864112854	fix_pre	0		120	44.0	2.5	/experiments/Knapen_AOT/AOT_stimuli/rescaled_final/1956_fw.mp4	0.0	221.14524126052856	1.008514404296875
46	208.0395953655243	pulse	0	t		44.0	2.5	/experiments/Knapen_AOT/AOT_stimuli/rescaled_final/1956_fw.mp4	0.0	222.13720798492432	
46	208.05614304542542	movie	1		300	44.0	2.5	/experiments/Knapen_AOT/AOT_stimuli/rescaled_final/1956_fw.mp4	0.0	222.15375566482544	2.5003724098205566
46	209.63621187210083	pulse	1	t		44.0	2.5	/experiments/Knapen_AOT/AOT_stimuli/rescaled_final/1956_fw.mp4	0.0	223.73382449150085	
46	210.55651545524597	fix_post	2		12	44.0	2.5	/experiments/Knapen_AOT/AOT_stimuli/rescaled_final/1956_fw.mp4	0.0	224.654128074646	0.10005307197570801
47	210.65656852722168	fix_pre	0		120	45.0	2.5	/experiments/Knapen_AOT/AOT_stimuli/rescaled_final/0960_fw.mp4	0.0	224.7541811466217	1.0002691745758057
47	211.24011325836182	pulse	0	t		45.0	2.5	/experiments/Knapen_AOT/AOT_stimuli/rescaled_final/0960_fw.mp4	0.0	225.33772587776184	
47	211.65683770179749	movie	1		288	45.0	2.5	/experiments/Knapen_AOT/AOT_stimuli/rescaled_final/0960_fw.mp4	0.0	225.7544503211975	2.5002057552337646
47	212.83600330352783	pulse	1	t		45.0	2.5	/experiments/Knapen_AOT/AOT_stimuli/rescaled_final/0960_fw.mp4	0.0	226.93361592292786	
47	214.15704345703125	fix_post	2		12	45.0	2.5	/experiments/Knapen_AOT/AOT_stimuli/rescaled_final/0960_fw.mp4	0.0	228.25465607643127	0.10002303123474121
48	214.257066488266	fix_pre	0		120	46.0	2.5	/experiments/Knapen_AOT/AOT_stimuli/rescaled_final/1513_rv.mp4	0.0	228.35467910766602	1.0001835823059082
48	214.4405837059021	pulse	0	t		46.0	2.5	/experiments/Knapen_AOT/AOT_stimuli/rescaled_final/1513_rv.mp4	0.0	228.53819632530212	
48	215.2572500705719	movie	1		300	46.0	2.5	/experiments/Knapen_AOT/AOT_stimuli/rescaled_final/1513_rv.mp4	0.0	229.35486268997192	2.5004215240478516
48	216.03641438484192	pulse	1	t		46.0	2.5	/experiments/Knapen_AOT/AOT_stimuli/rescaled_final/1513_rv.mp4	0.0	230.13402700424194	
48	217.63680720329285	pulse	1	t		46.0	2.5	/experiments/Knapen_AOT/AOT_stimuli/rescaled_final/1513_rv.mp4	0.0	231.73441982269287	
48	217.75767159461975	fix_post	2		12	46.0	2.5	/experiments/Knapen_AOT/AOT_stimuli/rescaled_final/1513_rv.mp4	0.0	231.85528421401978	0.09993147850036621
49	217.85760307312012	fix_pre	0		120	47.0	2.5	blank	1.0	231.95521569252014	1.000145435333252
49	218.85774850845337	movie	1		300	47.0	2.5	blank	1.0	232.9553611278534	2.500399351119995
49	219.24125695228577	pulse	1	t		47.0	2.5	blank	1.0	233.3388695716858	
49	220.84150385856628	pulse	1	t		47.0	2.5	blank	1.0	234.9391164779663	
49	221.35814785957336	fix_post	2		12	47.0	2.5	blank	1.0	235.4557604789734	0.10002684593200684
50	221.45817470550537	fix_pre	0		119	48.0	2.5	/experiments/Knapen_AOT/AOT_stimuli/rescaled_final/0887_rv.mp4	0.0	235.5557873249054	1.0001423358917236
50	222.4417700767517	pulse	0	t		48.0	2.5	/experiments/Knapen_AOT/AOT_stimuli/rescaled_final/0887_rv.mp4	0.0	236.53938269615173	
50	222.4583170413971	movie	1		300	48.0	2.5	/experiments/Knapen_AOT/AOT_stimuli/rescaled_final/0887_rv.mp4	0.0	236.55592966079712	2.5003626346588135
50	224.038391828537	pulse	1	t		48.0	2.5	/experiments/Knapen_AOT/AOT_stimuli/rescaled_final/0887_rv.mp4	0.0	238.136004447937	
50	224.9586796760559	fix_post	2		12	48.0	2.5	/experiments/Knapen_AOT/AOT_stimuli/rescaled_final/0887_rv.mp4	0.0	239.05629229545593	0.10001301765441895
51	225.05869269371033	fix_pre	0		120	49.0	2.5	/experiments/Knapen_AOT/AOT_stimuli/rescaled_final/0470_fw.mp4	0.0	239.15630531311035	1.0001461505889893
51	225.63416457176208	pulse	0	t		49.0	2.5	/experiments/Knapen_AOT/AOT_stimuli/rescaled_final/0470_fw.mp4	0.0	239.7317771911621	
51	226.05883884429932	movie	1		300	49.0	2.5	/experiments/Knapen_AOT/AOT_stimuli/rescaled_final/0470_fw.mp4	0.0	240.15645146369934	2.500369071960449
51	227.23416256904602	pulse	1	t		49.0	2.5	/experiments/Knapen_AOT/AOT_stimuli/rescaled_final/0470_fw.mp4	0.0	241.33177518844604	
51	228.55920791625977	fix_post	2		12	49.0	2.5	/experiments/Knapen_AOT/AOT_stimuli/rescaled_final/0470_fw.mp4	0.0	242.6568205356598	0.10004854202270508
52	228.65925645828247	fix_pre	0		120	50.0	2.5	/experiments/Knapen_AOT/AOT_stimuli/rescaled_final/1836_rv.mp4	0.0	242.7568690776825	1.0001220703125
52	228.83437395095825	pulse	0	t		50.0	2.5	/experiments/Knapen_AOT/AOT_stimuli/rescaled_final/1836_rv.mp4	0.0	242.93198657035828	
52	229.65937852859497	movie	1		300	50.0	2.5	/experiments/Knapen_AOT/AOT_stimuli/rescaled_final/1836_rv.mp4	0.0	243.756991147995	2.5003747940063477
52	230.43464589118958	pulse	1	t		50.0	2.5	/experiments/Knapen_AOT/AOT_stimuli/rescaled_final/1836_rv.mp4	0.0	244.5322585105896	
52	232.03490352630615	pulse	1	t		50.0	2.5	/experiments/Knapen_AOT/AOT_stimuli/rescaled_final/1836_rv.mp4	0.0	246.13251614570618	
52	232.15975332260132	fix_post	2		12	50.0	2.5	/experiments/Knapen_AOT/AOT_stimuli/rescaled_final/1836_rv.mp4	0.0	246.25736594200134	0.10001373291015625
53	232.25976705551147	fix_pre	0		120	51.0	2.5	/experiments/Knapen_AOT/AOT_stimuli/rescaled_final/0217_rv.mp4	0.0	246.3573796749115	1.0001788139343262
53	233.2599458694458	movie	1		300	51.0	2.5	/experiments/Knapen_AOT/AOT_stimuli/rescaled_final/0217_rv.mp4	0.0	247.35755848884583	2.500342845916748
53	233.63524627685547	pulse	1	t		51.0	2.5	/experiments/Knapen_AOT/AOT_stimuli/rescaled_final/0217_rv.mp4	0.0	247.7328588962555	
53	235.23538756370544	pulse	1	t		51.0	2.5	/experiments/Knapen_AOT/AOT_stimuli/rescaled_final/0217_rv.mp4	0.0	249.33300018310547	
53	235.76028871536255	fix_post	2		12	51.0	2.5	/experiments/Knapen_AOT/AOT_stimuli/rescaled_final/0217_rv.mp4	0.0	249.85790133476257	0.1000361442565918
54	235.86032485961914	fix_pre	0		118	52.0	2.5	/experiments/Knapen_AOT/AOT_stimuli/rescaled_final/0940_rv.mp4	0.0	249.95793747901917	0.9834392070770264
54	236.8355996608734	pulse	0	t		52.0	2.5	/experiments/Knapen_AOT/AOT_stimuli/rescaled_final/0940_rv.mp4	0.0	250.93321228027344	
54	236.84376406669617	movie	1		301	52.0	2.5	/experiments/Knapen_AOT/AOT_stimuli/rescaled_final/0940_rv.mp4	0.0	250.9413766860962	2.508739948272705
54	238.43592166900635	pulse	1	t		52.0	2.5	/experiments/Knapen_AOT/AOT_stimuli/rescaled_final/0940_rv.mp4	0.0	252.53353428840637	
54	239.35250401496887	fix_post	2		12	52.0	2.5	/experiments/Knapen_AOT/AOT_stimuli/rescaled_final/0940_rv.mp4	0.0	253.4501166343689	0.1000204086303711
55	239.45252442359924	fix_pre	0		120	53.0	2.5	/experiments/Knapen_AOT/AOT_stimuli/rescaled_final/0574_rv.mp4	0.0	253.55013704299927	1.0001347064971924
55	240.0360426902771	pulse	0	t		53.0	2.5	/experiments/Knapen_AOT/AOT_stimuli/rescaled_final/0574_rv.mp4	0.0	254.13365530967712	
55	240.45265913009644	movie	1		300	53.0	2.5	/experiments/Knapen_AOT/AOT_stimuli/rescaled_final/0574_rv.mp4	0.0	254.55027174949646	2.500380277633667
55	241.63632702827454	pulse	1	t		53.0	2.5	/experiments/Knapen_AOT/AOT_stimuli/rescaled_final/0574_rv.mp4	0.0	255.73393964767456	
55	242.9530394077301	fix_post	2		12	53.0	2.5	/experiments/Knapen_AOT/AOT_stimuli/rescaled_final/0574_rv.mp4	0.0	257.0506520271301	0.10001850128173828
56	243.05305790901184	fix_pre	0		120	54.0	2.5	/experiments/Knapen_AOT/AOT_stimuli/rescaled_final/1294_rv.mp4	0.0	257.15067052841187	1.0001459121704102
56	243.23654317855835	pulse	0	t		54.0	2.5	/experiments/Knapen_AOT/AOT_stimuli/rescaled_final/1294_rv.mp4	0.0	257.3341557979584	
56	244.05320382118225	movie	1		300	54.0	2.5	/experiments/Knapen_AOT/AOT_stimuli/rescaled_final/1294_rv.mp4	0.0	258.1508164405823	2.500408172607422
56	244.836975812912	pulse	1	t		54.0	2.5	/experiments/Knapen_AOT/AOT_stimuli/rescaled_final/1294_rv.mp4	0.0	258.934588432312	
56	246.43704223632812	pulse	1	t		54.0	2.5	/experiments/Knapen_AOT/AOT_stimuli/rescaled_final/1294_rv.mp4	0.0	260.53465485572815	
56	246.55361199378967	fix_post	2		12	54.0	2.5	/experiments/Knapen_AOT/AOT_stimuli/rescaled_final/1294_rv.mp4	0.0	260.6512246131897	0.09999346733093262
57	246.6536054611206	fix_pre	0		120	55.0	2.5	/experiments/Knapen_AOT/AOT_stimuli/rescaled_final/1117_fw.mp4	0.0	260.75121808052063	1.0001444816589355
57	247.65374994277954	movie	1		299	55.0	2.5	/experiments/Knapen_AOT/AOT_stimuli/rescaled_final/1117_fw.mp4	0.0	261.75136256217957	2.4920437335968018
57	248.0373513698578	pulse	1	t		55.0	2.5	/experiments/Knapen_AOT/AOT_stimuli/rescaled_final/1117_fw.mp4	0.0	262.1349639892578	
57	249.63756775856018	pulse	1	t		55.0	2.5	/experiments/Knapen_AOT/AOT_stimuli/rescaled_final/1117_fw.mp4	0.0	263.7351803779602	
57	250.14579367637634	fix_post	2		12	55.0	2.5	/experiments/Knapen_AOT/AOT_stimuli/rescaled_final/1117_fw.mp4	0.0	264.24340629577637	0.10001945495605469
58	250.2458131313324	fix_pre	0		120	56.0	2.5	blank	1.0	264.3434257507324	1.0001444816589355
58	251.23774909973145	pulse	0	t		56.0	2.5	blank	1.0	265.33536171913147	
58	251.24595761299133	movie	1		301	56.0	2.5	blank	1.0	265.34357023239136	2.5087132453918457
58	252.83803844451904	pulse	1	t		56.0	2.5	blank	1.0	266.93565106391907	
58	253.75467085838318	fix_post	2		12	56.0	2.5	blank	1.0	267.8522834777832	0.10003495216369629
59	253.85470581054688	fix_pre	0		120	57.0	2.5	/experiments/Knapen_AOT/AOT_stimuli/rescaled_final/0194_fw.mp4	0.0	267.9523184299469	1.0001368522644043
59	254.43821501731873	pulse	0	t		57.0	2.5	/experiments/Knapen_AOT/AOT_stimuli/rescaled_final/0194_fw.mp4	0.0	268.53582763671875	
59	254.85484266281128	movie	1		300	57.0	2.5	/experiments/Knapen_AOT/AOT_stimuli/rescaled_final/0194_fw.mp4	0.0	268.9524552822113	2.5003621578216553
59	256.0384826660156	pulse	1	t		57.0	2.5	/experiments/Knapen_AOT/AOT_stimuli/rescaled_final/0194_fw.mp4	0.0	270.13609528541565	
59	257.35520482063293	fix_post	2		12	57.0	2.5	/experiments/Knapen_AOT/AOT_stimuli/rescaled_final/0194_fw.mp4	0.0	271.45281744003296	0.10002756118774414
60	257.4552323818207	fix_pre	0		120	58.0	2.5	/experiments/Knapen_AOT/AOT_stimuli/rescaled_final/0158_rv.mp4	0.0	271.5528450012207	1.0001311302185059
60	257.6387412548065	pulse	0	t		58.0	2.5	/experiments/Knapen_AOT/AOT_stimuli/rescaled_final/0158_rv.mp4	0.0	271.73635387420654	
60	258.4553635120392	movie	1		300	58.0	2.5	/experiments/Knapen_AOT/AOT_stimuli/rescaled_final/0158_rv.mp4	0.0	272.5529761314392	2.500387668609619
60	259.23442554473877	pulse	1	t		58.0	2.5	/experiments/Knapen_AOT/AOT_stimuli/rescaled_final/0158_rv.mp4	0.0	273.3320381641388	
60	260.8348698616028	pulse	1	t		58.0	2.5	/experiments/Knapen_AOT/AOT_stimuli/rescaled_final/0158_rv.mp4	0.0	274.9324824810028	
60	260.9557511806488	fix_post	2		12	58.0	2.5	/experiments/Knapen_AOT/AOT_stimuli/rescaled_final/0158_rv.mp4	0.0	275.0533638000488	0.1000063419342041
61	261.055757522583	fix_pre	0		120	59.0	2.5	/experiments/Knapen_AOT/AOT_stimuli/rescaled_final/1920_fw.mp4	0.0	275.15337014198303	1.0001540184020996
61	262.0559115409851	movie	1		299	59.0	2.5	/experiments/Knapen_AOT/AOT_stimuli/rescaled_final/1920_fw.mp4	0.0	276.15352416038513	2.4920597076416016
61	262.4354205131531	pulse	1	t		59.0	2.5	/experiments/Knapen_AOT/AOT_stimuli/rescaled_final/1920_fw.mp4	0.0	276.5330331325531	
61	264.0353014469147	pulse	1	t		59.0	2.5	/experiments/Knapen_AOT/AOT_stimuli/rescaled_final/1920_fw.mp4	0.0	278.1329140663147	
61	264.5479712486267	fix_post	2		12	59.0	2.5	/experiments/Knapen_AOT/AOT_stimuli/rescaled_final/1920_fw.mp4	0.0	278.64558386802673	0.09999680519104004
62	264.64796805381775	fix_pre	0		120	60.0	2.5	/experiments/Knapen_AOT/AOT_stimuli/rescaled_final/0158_fw.mp4	0.0	278.7455806732178	1.0003087520599365
62	265.6399052143097	pulse	0	t		60.0	2.5	/experiments/Knapen_AOT/AOT_stimuli/rescaled_final/0158_fw.mp4	0.0	279.7375178337097	
62	265.6482768058777	movie	1		301	60.0	2.5	/experiments/Knapen_AOT/AOT_stimuli/rescaled_final/0158_fw.mp4	0.0	279.7458894252777	2.5085835456848145
62	267.2363212108612	pulse	1	t		60.0	2.5	/experiments/Knapen_AOT/AOT_stimuli/rescaled_final/0158_fw.mp4	0.0	281.33393383026123	
62	268.1568603515625	fix_post	2		12	60.0	2.5	/experiments/Knapen_AOT/AOT_stimuli/rescaled_final/0158_fw.mp4	0.0	282.2544729709625	0.10000944137573242
63	268.25686979293823	fix_pre	0		120	61.0	2.5	/experiments/Knapen_AOT/AOT_stimuli/rescaled_final/0887_fw.mp4	0.0	282.35448241233826	1.0001494884490967
63	268.8404116630554	pulse	0	t		61.0	2.5	/experiments/Knapen_AOT/AOT_stimuli/rescaled_final/0887_fw.mp4	0.0	282.93802428245544	
63	269.25701928138733	movie	1		300	61.0	2.5	/experiments/Knapen_AOT/AOT_stimuli/rescaled_final/0887_fw.mp4	0.0	283.35463190078735	2.5003488063812256
63	270.436824798584	pulse	1	t		61.0	2.5	/experiments/Knapen_AOT/AOT_stimuli/rescaled_final/0887_fw.mp4	0.0	284.534437417984	
63	271.75736808776855	fix_post	2		12	61.0	2.5	/experiments/Knapen_AOT/AOT_stimuli/rescaled_final/0887_fw.mp4	0.0	285.8549807071686	0.1000204086303711
64	271.8573884963989	fix_pre	0		120	62.0	2.5	/experiments/Knapen_AOT/AOT_stimuli/rescaled_final/0608_fw.mp4	0.0	285.95500111579895	1.0001699924468994
64	272.0408720970154	pulse	0	t		62.0	2.5	/experiments/Knapen_AOT/AOT_stimuli/rescaled_final/0608_fw.mp4	0.0	286.1384847164154	
64	272.8575584888458	movie	1		300	62.0	2.5	/experiments/Knapen_AOT/AOT_stimuli/rescaled_final/0608_fw.mp4	0.0	286.95517110824585	2.500378131866455
64	273.63669872283936	pulse	1	t		62.0	2.5	/experiments/Knapen_AOT/AOT_stimuli/rescaled_final/0608_fw.mp4	0.0	287.7343113422394	
64	275.2372043132782	pulse	1	t		62.0	2.5	/experiments/Knapen_AOT/AOT_stimuli/rescaled_final/0608_fw.mp4	0.0	289.3348169326782	
64	275.3579366207123	fix_post	2		12	62.0	2.5	/experiments/Knapen_AOT/AOT_stimuli/rescaled_final/0608_fw.mp4	0.0	289.4555492401123	0.10000276565551758
65	275.4579393863678	fix_pre	0		120	63.0	2.5	blank	1.0	289.5555520057678	1.0001380443572998
65	276.4580774307251	movie	1		299	63.0	2.5	blank	1.0	290.5556900501251	2.492047071456909
65	276.84158849716187	pulse	1	t		63.0	2.5	blank	1.0	290.9392011165619	
65	278.44181632995605	pulse	1	t		63.0	2.5	blank	1.0	292.5394289493561	
65	278.950124502182	fix_post	2		12	63.0	2.5	blank	1.0	293.04773712158203	0.10000395774841309
66	279.0501284599304	fix_pre	0		120	64.0	2.5	/experiments/Knapen_AOT/AOT_stimuli/rescaled_final/0562_rv.mp4	0.0	293.14774107933044	1.008533000946045
66	280.04207968711853	pulse	0	t		64.0	2.5	/experiments/Knapen_AOT/AOT_stimuli/rescaled_final/0562_rv.mp4	0.0	294.13969230651855	
66	280.05866146087646	movie	1		300	64.0	2.5	/experiments/Knapen_AOT/AOT_stimuli/rescaled_final/0562_rv.mp4	0.0	294.1562740802765	2.5003533363342285
66	281.63844203948975	pulse	1	t		64.0	2.5	/experiments/Knapen_AOT/AOT_stimuli/rescaled_final/0562_rv.mp4	0.0	295.73605465888977	
66	282.5590147972107	fix_post	2		12	64.0	2.5	/experiments/Knapen_AOT/AOT_stimuli/rescaled_final/0562_rv.mp4	0.0	296.6566274166107	0.1000368595123291
67	282.659051656723	fix_pre	0		120	65.0	2.5	/experiments/Knapen_AOT/AOT_stimuli/rescaled_final/1288_fw.mp4	0.0	296.75666427612305	1.0001046657562256
67	283.2346692085266	pulse	0	t		65.0	2.5	/experiments/Knapen_AOT/AOT_stimuli/rescaled_final/1288_fw.mp4	0.0	297.33228182792664	
67	283.65915632247925	movie	1		300	65.0	2.5	/experiments/Knapen_AOT/AOT_stimuli/rescaled_final/1288_fw.mp4	0.0	297.7567689418793	2.500410795211792
67	284.83461713790894	pulse	1	t		65.0	2.5	/experiments/Knapen_AOT/AOT_stimuli/rescaled_final/1288_fw.mp4	0.0	298.93222975730896	
67	286.15956711769104	fix_post	2		12	65.0	2.5	/experiments/Knapen_AOT/AOT_stimuli/rescaled_final/1288_fw.mp4	0.0	300.25717973709106	0.1000070571899414
68	286.259574174881	fix_pre	0		120	66.0	2.5	/experiments/Knapen_AOT/AOT_stimuli/rescaled_final/0960_rv.mp4	0.0	300.357186794281	1.000133752822876
68	286.43470096588135	pulse	0	t		66.0	2.5	/experiments/Knapen_AOT/AOT_stimuli/rescaled_final/0960_rv.mp4	0.0	300.5323135852814	
68	287.25970792770386	movie	1		300	66.0	2.5	/experiments/Knapen_AOT/AOT_stimuli/rescaled_final/0960_rv.mp4	0.0	301.3573205471039	2.500389814376831
68	288.0349876880646	pulse	1	t		66.0	2.5	/experiments/Knapen_AOT/AOT_stimuli/rescaled_final/0960_rv.mp4	0.0	302.1326003074646	
68	289.63520097732544	pulse	1	t		66.0	2.5	/experiments/Knapen_AOT/AOT_stimuli/rescaled_final/0960_rv.mp4	0.0	303.73281359672546	
68	289.7600977420807	fix_post	2		12	66.0	2.5	/experiments/Knapen_AOT/AOT_stimuli/rescaled_final/0960_rv.mp4	0.0	303.8577103614807	0.10000443458557129
69	289.86010217666626	fix_pre	0		120	67.0	2.5	/experiments/Knapen_AOT/AOT_stimuli/rescaled_final/0084_rv.mp4	0.0	303.9577147960663	1.0001249313354492
69	290.8602271080017	movie	1		300	67.0	2.5	/experiments/Knapen_AOT/AOT_stimuli/rescaled_final/0084_rv.mp4	0.0	304.95783972740173	2.5003929138183594
69	291.2355046272278	pulse	1	t		67.0	2.5	/experiments/Knapen_AOT/AOT_stimuli/rescaled_final/0084_rv.mp4	0.0	305.3331172466278	
69	292.8356776237488	pulse	1	t		67.0	2.5	/experiments/Knapen_AOT/AOT_stimuli/rescaled_final/0084_rv.mp4	0.0	306.9332902431488	
69	293.36062002182007	fix_post	2		12	67.0	2.5	/experiments/Knapen_AOT/AOT_stimuli/rescaled_final/0084_rv.mp4	0.0	307.4582326412201	0.10004067420959473
70	293.46066069602966	fix_pre	0		118	68.0	2.5	/experiments/Knapen_AOT/AOT_stimuli/rescaled_final/1442_fw.mp4	0.0	307.5582733154297	0.9836914539337158
70	294.43592977523804	pulse	0	t		68.0	2.5	/experiments/Knapen_AOT/AOT_stimuli/rescaled_final/1442_fw.mp4	0.0	308.53354239463806	
70	294.4443521499634	movie	1		301	68.0	2.5	/experiments/Knapen_AOT/AOT_stimuli/rescaled_final/1442_fw.mp4	0.0	308.5419647693634	2.508472442626953
70	296.03628063201904	pulse	1	t		68.0	2.5	/experiments/Knapen_AOT/AOT_stimuli/rescaled_final/1442_fw.mp4	0.0	310.13389325141907	
70	296.95282459259033	fix_post	2		12	68.0	2.5	/experiments/Knapen_AOT/AOT_stimuli/rescaled_final/1442_fw.mp4	0.0	311.05043721199036	0.10001587867736816
71	297.0528404712677	fix_pre	0		120	69.0	2.5	blank	1.0	311.1504530906677	1.000154972076416
71	297.63642477989197	pulse	0	t		69.0	2.5	blank	1.0	311.734037399292	
71	298.0529954433441	movie	1		300	69.0	2.5	blank	1.0	312.15060806274414	2.5003716945648193
71	299.23663687705994	pulse	1	t		69.0	2.5	blank	1.0	313.33424949645996	
71	300.55336713790894	fix_post	2		12	69.0	2.5	blank	1.0	314.65097975730896	0.1000204086303711
72	300.6533875465393	fix_pre	0		120	70.0	2.5	/experiments/Knapen_AOT/AOT_stimuli/rescaled_final/0277_fw.mp4	0.0	314.75100016593933	1.000169277191162
72	300.8369092941284	pulse	0	t		70.0	2.5	/experiments/Knapen_AOT/AOT_stimuli/rescaled_final/0277_fw.mp4	0.0	314.93452191352844	
72	301.65355682373047	movie	1		300	70.0	2.5	/experiments/Knapen_AOT/AOT_stimuli/rescaled_final/0277_fw.mp4	0.0	315.7511694431305	2.5003647804260254
72	302.4371335506439	pulse	1	t		70.0	2.5	/experiments/Knapen_AOT/AOT_stimuli/rescaled_final/0277_fw.mp4	0.0	316.53474617004395	
72	304.0373845100403	pulse	1	t		70.0	2.5	/experiments/Knapen_AOT/AOT_stimuli/rescaled_final/0277_fw.mp4	0.0	318.1349971294403	
72	304.1539216041565	fix_post	2		12	70.0	2.5	/experiments/Knapen_AOT/AOT_stimuli/rescaled_final/0277_fw.mp4	0.0	318.2515342235565	0.10001611709594727
73	304.25393772125244	fix_pre	0		120	71.0	2.5	/experiments/Knapen_AOT/AOT_stimuli/rescaled_final/0042_fw.mp4	0.0	318.35155034065247	1.0001208782196045
73	305.25405859947205	movie	1		299	71.0	2.5	/experiments/Knapen_AOT/AOT_stimuli/rescaled_final/0042_fw.mp4	0.0	319.35167121887207	2.492053747177124
73	305.63765048980713	pulse	1	t		71.0	2.5	/experiments/Knapen_AOT/AOT_stimuli/rescaled_final/0042_fw.mp4	0.0	319.73526310920715	
73	307.23785400390625	pulse	1	t		71.0	2.5	/experiments/Knapen_AOT/AOT_stimuli/rescaled_final/0042_fw.mp4	0.0	321.3354666233063	
73	307.74611234664917	fix_post	2		12	71.0	2.5	/experiments/Knapen_AOT/AOT_stimuli/rescaled_final/0042_fw.mp4	0.0	321.8437249660492	0.10002732276916504
74	307.84613966941833	fix_pre	0		120	72.0	2.5	/experiments/Knapen_AOT/AOT_stimuli/rescaled_final/0230_fw.mp4	0.0	321.94375228881836	1.0085101127624512
74	308.83806824684143	pulse	0	t		72.0	2.5	/experiments/Knapen_AOT/AOT_stimuli/rescaled_final/0230_fw.mp4	0.0	322.93568086624146	
74	308.8546497821808	movie	1		300	72.0	2.5	/experiments/Knapen_AOT/AOT_stimuli/rescaled_final/0230_fw.mp4	0.0	322.9522624015808	2.5003550052642822
74	310.4384756088257	pulse	1	t		72.0	2.5	/experiments/Knapen_AOT/AOT_stimuli/rescaled_final/0230_fw.mp4	0.0	324.5360882282257	
74	311.35500478744507	fix_post	2		12	72.0	2.5	/experiments/Knapen_AOT/AOT_stimuli/rescaled_final/0230_fw.mp4	0.0	325.4526174068451	0.10002684593200684
75	311.4550316333771	fix_pre	0		120	73.0	2.5	/experiments/Knapen_AOT/AOT_stimuli/rescaled_final/1034_rv.mp4	0.0	325.5526442527771	1.0001380443572998
75	312.03860306739807	pulse	0	t		73.0	2.5	/experiments/Knapen_AOT/AOT_stimuli/rescaled_final/1034_rv.mp4	0.0	326.1362156867981	
75	312.4551696777344	movie	1		300	73.0	2.5	/experiments/Knapen_AOT/AOT_stimuli/rescaled_final/1034_rv.mp4	0.0	326.5527822971344	2.5003795623779297
75	313.63892006874084	pulse	1	t		73.0	2.5	/experiments/Knapen_AOT/AOT_stimuli/rescaled_final/1034_rv.mp4	0.0	327.73653268814087	
75	314.9555492401123	fix_post	2		12	73.0	2.5	/experiments/Knapen_AOT/AOT_stimuli/rescaled_final/1034_rv.mp4	0.0	329.05316185951233	0.10001420974731445
76	315.0555634498596	fix_pre	0		120	74.0	2.5	/experiments/Knapen_AOT/AOT_stimuli/rescaled_final/0845_rv.mp4	0.0	329.15317606925964	1.000145435333252
76	315.2390327453613	pulse	0	t		74.0	2.5	/experiments/Knapen_AOT/AOT_stimuli/rescaled_final/0845_rv.mp4	0.0	329.33664536476135	
76	316.05570888519287	movie	1		300	74.0	2.5	/experiments/Knapen_AOT/AOT_stimuli/rescaled_final/0845_rv.mp4	0.0	330.1533215045929	2.5003693103790283
76	316.8350486755371	pulse	1	t		74.0	2.5	/experiments/Knapen_AOT/AOT_stimuli/rescaled_final/0845_rv.mp4	0.0	330.93266129493713	
76	318.43528008461	pulse	1	t		74.0	2.5	/experiments/Knapen_AOT/AOT_stimuli/rescaled_final/0845_rv.mp4	0.0	332.53289270401	
76	318.5560781955719	fix_post	2		12	74.0	2.5	/experiments/Knapen_AOT/AOT_stimuli/rescaled_final/0845_rv.mp4	0.0	332.6536908149719	0.10001564025878906
77	318.6560938358307	fix_pre	0		120	75.0	2.5	blank	1.0	332.7537064552307	1.0001482963562012
77	319.6562421321869	movie	1		299	75.0	2.5	blank	1.0	333.7538547515869	2.4920454025268555
77	320.0397844314575	pulse	1	t		75.0	2.5	blank	1.0	334.13739705085754	
77	321.6399953365326	pulse	1	t		75.0	2.5	blank	1.0	335.7376079559326	
77	322.14828753471375	fix_post	2		12	75.0	2.5	blank	1.0	336.24590015411377	0.10003209114074707
78	322.2483196258545	fix_pre	0		120	76.0	2.5	/experiments/Knapen_AOT/AOT_stimuli/rescaled_final/0641_rv.mp4	0.0	336.3459322452545	1.008512258529663
78	323.24030685424805	pulse	0	t		76.0	2.5	/experiments/Knapen_AOT/AOT_stimuli/rescaled_final/0641_rv.mp4	0.0	337.33791947364807	
78	323.25683188438416	movie	1		300	76.0	2.5	/experiments/Knapen_AOT/AOT_stimuli/rescaled_final/0641_rv.mp4	0.0	337.3544445037842	2.5003397464752197
78	324.8367371559143	pulse	1	t		76.0	2.5	/experiments/Knapen_AOT/AOT_stimuli/rescaled_final/0641_rv.mp4	0.0	338.93434977531433	
78	325.7571716308594	fix_post	2		12	76.0	2.5	/experiments/Knapen_AOT/AOT_stimuli/rescaled_final/0641_rv.mp4	0.0	339.8547842502594	0.10001420974731445
79	325.8571858406067	fix_pre	0		120	77.0	2.5	/experiments/Knapen_AOT/AOT_stimuli/rescaled_final/0845_fw.mp4	0.0	339.9547984600067	1.000154972076416
79	326.44078302383423	pulse	0	t		77.0	2.5	/experiments/Knapen_AOT/AOT_stimuli/rescaled_final/0845_fw.mp4	0.0	340.53839564323425	
79	326.8573408126831	movie	1		300	77.0	2.5	/experiments/Knapen_AOT/AOT_stimuli/rescaled_final/0845_fw.mp4	0.0	340.95495343208313	2.500380516052246
79	328.0375084877014	pulse	1	t		77.0	2.5	/experiments/Knapen_AOT/AOT_stimuli/rescaled_final/0845_fw.mp4	0.0	342.13512110710144	
79	329.35772132873535	fix_post	2		12	77.0	2.5	/experiments/Knapen_AOT/AOT_stimuli/rescaled_final/0845_fw.mp4	0.0	343.4553339481354	0.10012078285217285
80	329.4578421115875	fix_pre	0		120	78.0	2.5	/experiments/Knapen_AOT/AOT_stimuli/rescaled_final/1895_fw.mp4	0.0	343.55545473098755	1.000035285949707
80	329.64123272895813	pulse	0	t		78.0	2.5	/experiments/Knapen_AOT/AOT_stimuli/rescaled_final/1895_fw.mp4	0.0	343.73884534835815	
80	330.45787739753723	movie	1		300	78.0	2.5	/experiments/Knapen_AOT/AOT_stimuli/rescaled_final/1895_fw.mp4	0.0	344.55549001693726	2.5003859996795654
80	331.23709774017334	pulse	1	t		78.0	2.5	/experiments/Knapen_AOT/AOT_stimuli/rescaled_final/1895_fw.mp4	0.0	345.33471035957336	
80	332.83734345436096	pulse	1	t		78.0	2.5	/experiments/Knapen_AOT/AOT_stimuli/rescaled_final/1895_fw.mp4	0.0	346.934956073761	
80	332.9582633972168	fix_post	2		12	78.0	2.5	/experiments/Knapen_AOT/AOT_stimuli/rescaled_final/1895_fw.mp4	0.0	347.0558760166168	0.10000276565551758
81	333.0582661628723	fix_pre	0		120	79.0	2.5	/experiments/Knapen_AOT/AOT_stimuli/rescaled_final/0651_rv.mp4	0.0	347.15587878227234	1.0001435279846191
81	334.05840969085693	movie	1		300	79.0	2.5	/experiments/Knapen_AOT/AOT_stimuli/rescaled_final/0651_rv.mp4	0.0	348.15602231025696	2.500397205352783
81	334.43794798851013	pulse	1	t		79.0	2.5	/experiments/Knapen_AOT/AOT_stimuli/rescaled_final/0651_rv.mp4	0.0	348.53556060791016	
81	336.03801345825195	pulse	1	t		79.0	2.5	/experiments/Knapen_AOT/AOT_stimuli/rescaled_final/0651_rv.mp4	0.0	350.135626077652	
81	336.5588068962097	fix_post	2		12	79.0	2.5	/experiments/Knapen_AOT/AOT_stimuli/rescaled_final/0651_rv.mp4	0.0	350.65641951560974	0.10000729560852051
82	336.65881419181824	fix_pre	0		119	80.0	2.5	/experiments/Knapen_AOT/AOT_stimuli/rescaled_final/2162_rv.mp4	0.0	350.75642681121826	1.0001611709594727
82	337.6424081325531	pulse	0	t		80.0	2.5	/experiments/Knapen_AOT/AOT_stimuli/rescaled_final/2162_rv.mp4	0.0	351.7400207519531	
82	337.6589753627777	movie	1		300	80.0	2.5	/experiments/Knapen_AOT/AOT_stimuli/rescaled_final/2162_rv.mp4	0.0	351.75658798217773	2.5003578662872314
82	339.23885679244995	pulse	1	t		80.0	2.5	/experiments/Knapen_AOT/AOT_stimuli/rescaled_final/2162_rv.mp4	0.0	353.33646941185	
82	340.15933322906494	fix_post	2		12	80.0	2.5	/experiments/Knapen_AOT/AOT_stimuli/rescaled_final/2162_rv.mp4	0.0	354.25694584846497	0.10008001327514648
83	340.2594132423401	fix_pre	0		120	81.0	2.5	/experiments/Knapen_AOT/AOT_stimuli/rescaled_final/1510_rv.mp4	0.0	354.3570258617401	1.0000829696655273
83	340.8429203033447	pulse	0	t		81.0	2.5	/experiments/Knapen_AOT/AOT_stimuli/rescaled_final/1510_rv.mp4	0.0	354.94053292274475	
83	341.2594962120056	movie	1		300	81.0	2.5	/experiments/Knapen_AOT/AOT_stimuli/rescaled_final/1510_rv.mp4	0.0	355.35710883140564	2.500373363494873
83	342.43896555900574	pulse	1	t		81.0	2.5	/experiments/Knapen_AOT/AOT_stimuli/rescaled_final/1510_rv.mp4	0.0	356.53657817840576	
83	343.7598695755005	fix_post	2		12	81.0	2.5	/experiments/Knapen_AOT/AOT_stimuli/rescaled_final/1510_rv.mp4	0.0	357.8574821949005	0.10002875328063965
84	343.8598983287811	fix_pre	0		120	82.0	2.5	/experiments/Knapen_AOT/AOT_stimuli/rescaled_final/2037_fw.mp4	0.0	357.95751094818115	1.000145673751831
84	344.03504824638367	pulse	0	t		82.0	2.5	/experiments/Knapen_AOT/AOT_stimuli/rescaled_final/2037_fw.mp4	0.0	358.1326608657837	
84	344.86004400253296	movie	1		300	82.0	2.5	/experiments/Knapen_AOT/AOT_stimuli/rescaled_final/2037_fw.mp4	0.0	358.957656621933	2.5003745555877686
84	345.63529109954834	pulse	1	t		82.0	2.5	/experiments/Knapen_AOT/AOT_stimuli/rescaled_final/2037_fw.mp4	0.0	359.73290371894836	
84	347.2355442047119	pulse	1	t		82.0	2.5	/experiments/Knapen_AOT/AOT_stimuli/rescaled_final/2037_fw.mp4	0.0	361.33315682411194	
84	347.3604185581207	fix_post	2		12	82.0	2.5	/experiments/Knapen_AOT/AOT_stimuli/rescaled_final/2037_fw.mp4	0.0	361.45803117752075	0.10001683235168457
85	347.4604353904724	fix_pre	0		120	83.0	2.5	blank	1.0	361.55804800987244	1.0001509189605713
85	348.460586309433	movie	1		299	83.0	2.5	blank	1.0	362.558198928833	2.4920449256896973
85	348.8357720375061	pulse	1	t		83.0	2.5	blank	1.0	362.9333846569061	
85	350.43599247932434	pulse	1	t		83.0	2.5	blank	1.0	364.53360509872437	
85	350.9526312351227	fix_post	2		12	83.0	2.5	blank	1.0	365.0502438545227	0.12508749961853027
87	351.0777187347412	stim	0		1713					365.17533135414124	14.277076244354248
87	352.0362379550934	pulse	0	t						366.1338505744934	
87	353.636483669281	pulse	0	t						367.73409628868103	
87	355.23670983314514	pulse	0	t						369.33432245254517	
87	356.83697867393494	pulse	0	t						370.93459129333496	
87	358.4371886253357	pulse	0	t						372.5348012447357	
87	360.0374231338501	pulse	0	t						374.1350357532501	
87	361.6376874446869	pulse	0	t						375.7353000640869	
87	363.23792791366577	pulse	0	t						377.3355405330658	
87	364.8381917476654	pulse	0	t						378.93580436706543	
