trial_nr	onset	event_type	phase	response	nr_frames	movie_index	movie_duration	movie_file	blank	onset_abs	duration
0	0.15905189514160156	stim	0		154					21.72711181640625	1.2828030586242676
0	1.4266629219055176	response	0	space						22.994722843170166	
1	1.4418549537658691	stim	0		2787					23.009914875030518	23.23316788673401
1	24.66301202774048	pulse	0	t						46.23107194900513	
1	24.675022840499878	stim	1		1716					46.243082761764526	14.29988408088684
1	26.258469820022583	pulse	1	t						47.82652974128723	
1	27.858527898788452	pulse	1	t						49.4265878200531	
1	29.458536863327026	pulse	1	t						51.026596784591675	
1	31.058547973632812	pulse	1	t						52.62660789489746	
1	32.65852999687195	pulse	1	t						54.2265899181366	
1	34.25848889350891	pulse	1	t						55.82654881477356	
1	35.85839891433716	pulse	1	t						57.42645883560181	
1	37.4584219455719	pulse	1	t						59.02648186683655	
2	38.97490692138672	fix_pre	0		11	0.0	2.5	/experiments/AOT/AOT_stimuli/rescaled_final/0609_fw.mp4	0.0	60.54296684265137	0.09175395965576172
2	39.058512926101685	pulse	0	t		0.0	2.5	/experiments/AOT/AOT_stimuli/rescaled_final/0609_fw.mp4	0.0	60.62657284736633	
2	39.06666088104248	movie	1		243	0.0	2.5	/experiments/AOT/AOT_stimuli/rescaled_final/0609_fw.mp4	0.0	60.63472080230713	2.5082690715789795
2	40.65814781188965	pulse	1	t		0.0	2.5	/experiments/AOT/AOT_stimuli/rescaled_final/0609_fw.mp4	0.0	62.2262077331543	
2	41.57492995262146	fix_post	2		12	0.0	2.5	/experiments/AOT/AOT_stimuli/rescaled_final/0609_fw.mp4	0.0	63.14298987388611	0.10003185272216797
3	41.67496180534363	fix_pre	0		120	1.0	2.5	/experiments/AOT/AOT_stimuli/rescaled_final/0163_rv.mp4	0.0	63.243021726608276	0.9998831748962402
3	42.25845980644226	pulse	0	t		1.0	2.5	/experiments/AOT/AOT_stimuli/rescaled_final/0163_rv.mp4	0.0	63.82651972770691	
3	42.67484498023987	movie	1		243	1.0	2.5	/experiments/AOT/AOT_stimuli/rescaled_final/0163_rv.mp4	0.0	64.24290490150452	2.500123977661133
3	43.85851502418518	pulse	1	t		1.0	2.5	/experiments/AOT/AOT_stimuli/rescaled_final/0163_rv.mp4	0.0	65.42657494544983	
3	45.174968957901	fix_post	2		12	1.0	2.5	/experiments/AOT/AOT_stimuli/rescaled_final/0163_rv.mp4	0.0	66.74302887916565	0.10001397132873535
4	45.274982929229736	fix_pre	0		120	2.0	2.5	/experiments/AOT/AOT_stimuli/rescaled_final/1379_rv.mp4	0.0	66.84304285049438	0.9999608993530273
4	45.458412885665894	pulse	0	t		2.0	2.5	/experiments/AOT/AOT_stimuli/rescaled_final/1379_rv.mp4	0.0	67.02647280693054	
4	46.274943828582764	movie	1		244	2.0	2.5	/experiments/AOT/AOT_stimuli/rescaled_final/1379_rv.mp4	0.0	67.84300374984741	2.4999141693115234
4	47.05839800834656	pulse	1	t		2.0	2.5	/experiments/AOT/AOT_stimuli/rescaled_final/1379_rv.mp4	0.0	68.6264579296112	
4	48.65733885765076	pulse	1	t		2.0	2.5	/experiments/AOT/AOT_stimuli/rescaled_final/1379_rv.mp4	0.0	70.2253987789154	
4	48.77485799789429	fix_post	2		12	2.0	2.5	/experiments/AOT/AOT_stimuli/rescaled_final/1379_rv.mp4	0.0	70.34291791915894	0.10002589225769043
5	48.87488389015198	fix_pre	0		120	3.0	2.5	/experiments/AOT/AOT_stimuli/rescaled_final/0199_rv.mp4	0.0	70.44294381141663	0.9999699592590332
5	49.87485384941101	movie	1		245	3.0	2.5	/experiments/AOT/AOT_stimuli/rescaled_final/0199_rv.mp4	0.0	71.44291377067566	2.5001089572906494
5	50.258630990982056	pulse	1	t		3.0	2.5	/experiments/AOT/AOT_stimuli/rescaled_final/0199_rv.mp4	0.0	71.8266909122467	
5	51.85843300819397	pulse	1	t		3.0	2.5	/experiments/AOT/AOT_stimuli/rescaled_final/0199_rv.mp4	0.0	73.42649292945862	
5	52.37496280670166	fix_post	2		12	3.0	2.5	/experiments/AOT/AOT_stimuli/rescaled_final/0199_rv.mp4	0.0	73.94302272796631	0.09988808631896973
6	52.47485089302063	fix_pre	0		119	4.0	2.5	/experiments/AOT/AOT_stimuli/rescaled_final/2028_rv.mp4	0.0	74.04291081428528	0.991663932800293
6	53.45845699310303	pulse	0	t		4.0	2.5	/experiments/AOT/AOT_stimuli/rescaled_final/2028_rv.mp4	0.0	75.02651691436768	
6	53.46651482582092	movie	1		244	4.0	2.5	/experiments/AOT/AOT_stimuli/rescaled_final/2028_rv.mp4	0.0	75.03457474708557	2.5081851482391357
6	55.05846381187439	pulse	1	t		4.0	2.5	/experiments/AOT/AOT_stimuli/rescaled_final/2028_rv.mp4	0.0	76.62652373313904	
6	55.97469997406006	fix_post	2		12	4.0	2.5	/experiments/AOT/AOT_stimuli/rescaled_final/2028_rv.mp4	0.0	77.5427598953247	0.10039806365966797
7	56.07509803771973	fix_pre	0		120	5.0	2.5	blank	1.0	77.64315795898438	0.9997568130493164
7	56.65824294090271	pulse	0	t		5.0	2.5	blank	1.0	78.22630286216736	
7	57.07485485076904	movie	1		300	5.0	2.5	blank	1.0	78.64291477203369	2.499674081802368
7	58.25841403007507	pulse	1	t		5.0	2.5	blank	1.0	79.82647395133972	
7	59.57452893257141	fix_post	2		12	5.0	2.5	blank	1.0	81.14258885383606	0.10031008720397949
8	59.67483901977539	fix_pre	0		120	6.0	2.5	/experiments/AOT/AOT_stimuli/rescaled_final/1629_rv.mp4	0.0	81.24289894104004	1.0000789165496826
8	59.85833191871643	pulse	0	t		6.0	2.5	/experiments/AOT/AOT_stimuli/rescaled_final/1629_rv.mp4	0.0	81.42639183998108	
8	60.67491793632507	movie	1		243	6.0	2.5	/experiments/AOT/AOT_stimuli/rescaled_final/1629_rv.mp4	0.0	82.24297785758972	2.4998838901519775
8	61.458300828933716	pulse	1	t		6.0	2.5	/experiments/AOT/AOT_stimuli/rescaled_final/1629_rv.mp4	0.0	83.02636075019836	
8	63.05678391456604	pulse	1	t		6.0	2.5	/experiments/AOT/AOT_stimuli/rescaled_final/1629_rv.mp4	0.0	84.62484383583069	
8	63.17480182647705	fix_post	2		12	6.0	2.5	/experiments/AOT/AOT_stimuli/rescaled_final/1629_rv.mp4	0.0	84.7428617477417	0.09999704360961914
9	63.27479887008667	fix_pre	0		120	7.0	2.5	/experiments/AOT/AOT_stimuli/rescaled_final/0457_rv.mp4	0.0	84.84285879135132	0.9996449947357178
9	64.27444386482239	movie	1		244	7.0	2.5	/experiments/AOT/AOT_stimuli/rescaled_final/0457_rv.mp4	0.0	85.84250378608704	2.5004310607910156
9	64.6581518650055	pulse	1	t		7.0	2.5	/experiments/AOT/AOT_stimuli/rescaled_final/0457_rv.mp4	0.0	86.22621178627014	
9	66.25829100608826	pulse	1	t		7.0	2.5	/experiments/AOT/AOT_stimuli/rescaled_final/0457_rv.mp4	0.0	87.8263509273529	
9	66.7748749256134	fix_post	2		12	7.0	2.5	/experiments/AOT/AOT_stimuli/rescaled_final/0457_rv.mp4	0.0	88.34293484687805	0.0999460220336914
10	66.8748209476471	fix_pre	0		119	8.0	2.5	/experiments/AOT/AOT_stimuli/rescaled_final/1748_fw.mp4	0.0	88.44288086891174	0.9916329383850098
10	67.85828185081482	pulse	0	t		8.0	2.5	/experiments/AOT/AOT_stimuli/rescaled_final/1748_fw.mp4	0.0	89.42634177207947	
10	67.8664538860321	movie	1		244	8.0	2.5	/experiments/AOT/AOT_stimuli/rescaled_final/1748_fw.mp4	0.0	89.43451380729675	2.508307933807373
10	69.45842790603638	pulse	1	t		8.0	2.5	/experiments/AOT/AOT_stimuli/rescaled_final/1748_fw.mp4	0.0	91.02648782730103	
10	70.37476181983948	fix_post	2		12	8.0	2.5	/experiments/AOT/AOT_stimuli/rescaled_final/1748_fw.mp4	0.0	91.94282174110413	0.10003399848937988
11	70.47479581832886	fix_pre	0		120	9.0	2.5	/experiments/AOT/AOT_stimuli/rescaled_final/1799_fw.mp4	0.0	92.0428557395935	0.9999790191650391
11	71.05833983421326	pulse	0	t		9.0	2.5	/experiments/AOT/AOT_stimuli/rescaled_final/1799_fw.mp4	0.0	92.6263997554779	
11	71.4747748374939	movie	1		245	9.0	2.5	/experiments/AOT/AOT_stimuli/rescaled_final/1799_fw.mp4	0.0	93.04283475875854	2.4999611377716064
11	72.65835189819336	pulse	1	t		9.0	2.5	/experiments/AOT/AOT_stimuli/rescaled_final/1799_fw.mp4	0.0	94.22641181945801	
11	73.9747359752655	fix_post	2		12	9.0	2.5	/experiments/AOT/AOT_stimuli/rescaled_final/1799_fw.mp4	0.0	95.54279589653015	0.10002899169921875
12	74.07476496696472	fix_pre	0		120	10.0	2.5	/experiments/AOT/AOT_stimuli/rescaled_final/0950_rv.mp4	0.0	95.64282488822937	1.0000979900360107
12	74.25838088989258	pulse	0	t		10.0	2.5	/experiments/AOT/AOT_stimuli/rescaled_final/0950_rv.mp4	0.0	95.82644081115723	
12	75.07486295700073	movie	1		244	10.0	2.5	/experiments/AOT/AOT_stimuli/rescaled_final/0950_rv.mp4	0.0	96.64292287826538	2.499906063079834
12	75.85827302932739	pulse	1	t		10.0	2.5	/experiments/AOT/AOT_stimuli/rescaled_final/0950_rv.mp4	0.0	97.42633295059204	
12	77.45692682266235	pulse	1	t		10.0	2.5	/experiments/AOT/AOT_stimuli/rescaled_final/0950_rv.mp4	0.0	99.024986743927	
12	77.57476902008057	fix_post	2		12	10.0	2.5	/experiments/AOT/AOT_stimuli/rescaled_final/0950_rv.mp4	0.0	99.14282894134521	0.10000896453857422
13	77.67477798461914	fix_pre	0		120	11.0	2.5	/experiments/AOT/AOT_stimuli/rescaled_final/1810_fw.mp4	0.0	99.24283790588379	0.9995498657226562
13	78.6743278503418	movie	1		243	11.0	2.5	/experiments/AOT/AOT_stimuli/rescaled_final/1810_fw.mp4	0.0	100.24238777160645	2.5005691051483154
13	79.05791187286377	pulse	1	t		11.0	2.5	/experiments/AOT/AOT_stimuli/rescaled_final/1810_fw.mp4	0.0	100.62597179412842	
13	80.65824580192566	pulse	1	t		11.0	2.5	/experiments/AOT/AOT_stimuli/rescaled_final/1810_fw.mp4	0.0	102.22630572319031	
13	81.17489695549011	fix_post	2		12	11.0	2.5	/experiments/AOT/AOT_stimuli/rescaled_final/1810_fw.mp4	0.0	102.74295687675476	0.09991693496704102
14	81.27481389045715	fix_pre	0		119	12.0	2.5	/experiments/AOT/AOT_stimuli/rescaled_final/1842_rv.mp4	0.0	102.8428738117218	0.9916031360626221
14	82.25833082199097	pulse	0	t		12.0	2.5	/experiments/AOT/AOT_stimuli/rescaled_final/1842_rv.mp4	0.0	103.82639074325562	
14	82.26641702651978	movie	1		245	12.0	2.5	/experiments/AOT/AOT_stimuli/rescaled_final/1842_rv.mp4	0.0	103.83447694778442	2.5082478523254395
14	83.85833883285522	pulse	1	t		12.0	2.5	/experiments/AOT/AOT_stimuli/rescaled_final/1842_rv.mp4	0.0	105.42639875411987	
14	84.77466487884521	fix_post	2		12	12.0	2.5	/experiments/AOT/AOT_stimuli/rescaled_final/1842_rv.mp4	0.0	106.34272480010986	0.10000896453857422
15	84.87467384338379	fix_pre	0		120	13.0	2.5	/experiments/AOT/AOT_stimuli/rescaled_final/1942_rv.mp4	0.0	106.44273376464844	0.9997580051422119
15	85.4582450389862	pulse	0	t		13.0	2.5	/experiments/AOT/AOT_stimuli/rescaled_final/1942_rv.mp4	0.0	107.02630496025085	
15	85.874431848526	movie	1		243	13.0	2.5	/experiments/AOT/AOT_stimuli/rescaled_final/1942_rv.mp4	0.0	107.44249176979065	2.5003840923309326
15	87.05845499038696	pulse	1	t		13.0	2.5	/experiments/AOT/AOT_stimuli/rescaled_final/1942_rv.mp4	0.0	108.62651491165161	
15	88.37481594085693	fix_post	2		12	13.0	2.5	/experiments/AOT/AOT_stimuli/rescaled_final/1942_rv.mp4	0.0	109.94287586212158	0.09993600845336914
16	88.4747519493103	fix_pre	0		120	14.0	2.5	blank	1.0	110.04281187057495	1.000014066696167
16	88.65827202796936	pulse	0	t		14.0	2.5	blank	1.0	110.22633194923401	
16	89.47476601600647	movie	1		300	14.0	2.5	blank	1.0	111.04282593727112	2.500011920928955
16	90.25823092460632	pulse	1	t		14.0	2.5	blank	1.0	111.82629084587097	
16	91.85824203491211	pulse	1	t		14.0	2.5	blank	1.0	113.42630195617676	
16	91.97477793693542	fix_post	2		12	14.0	2.5	blank	1.0	113.54283785820007	0.0999600887298584
17	92.07473802566528	fix_pre	0		120	15.0	2.5	/experiments/AOT/AOT_stimuli/rescaled_final/0698_fw.mp4	0.0	113.64279794692993	0.9999878406524658
17	93.07472586631775	movie	1		244	15.0	2.5	/experiments/AOT/AOT_stimuli/rescaled_final/0698_fw.mp4	0.0	114.6427857875824	2.5000269412994385
17	93.4580249786377	pulse	1	t		15.0	2.5	/experiments/AOT/AOT_stimuli/rescaled_final/0698_fw.mp4	0.0	115.02608489990234	
17	95.05805802345276	pulse	1	t		15.0	2.5	/experiments/AOT/AOT_stimuli/rescaled_final/0698_fw.mp4	0.0	116.62611794471741	
17	95.57475280761719	fix_post	2		12	15.0	2.5	/experiments/AOT/AOT_stimuli/rescaled_final/0698_fw.mp4	0.0	117.14281272888184	0.09996700286865234
18	95.67471981048584	fix_pre	0		119	16.0	2.5	/experiments/AOT/AOT_stimuli/rescaled_final/1863_rv.mp4	0.0	117.24277973175049	0.9916281700134277
18	96.65814685821533	pulse	0	t		16.0	2.5	/experiments/AOT/AOT_stimuli/rescaled_final/1863_rv.mp4	0.0	118.22620677947998	
18	96.66634798049927	movie	1		246	16.0	2.5	/experiments/AOT/AOT_stimuli/rescaled_final/1863_rv.mp4	0.0	118.23440790176392	2.5080690383911133
18	98.25790691375732	pulse	1	t		16.0	2.5	/experiments/AOT/AOT_stimuli/rescaled_final/1863_rv.mp4	0.0	119.82596683502197	
18	99.17441701889038	fix_post	2		12	16.0	2.5	/experiments/AOT/AOT_stimuli/rescaled_final/1863_rv.mp4	0.0	120.74247694015503	0.10023689270019531
19	99.27465391159058	fix_pre	0		120	17.0	2.5	/experiments/AOT/AOT_stimuli/rescaled_final/1570_fw.mp4	0.0	120.84271383285522	1.0000479221343994
19	99.85823798179626	pulse	0	t		17.0	2.5	/experiments/AOT/AOT_stimuli/rescaled_final/1570_fw.mp4	0.0	121.42629790306091	
19	100.27470183372498	movie	1		245	17.0	2.5	/experiments/AOT/AOT_stimuli/rescaled_final/1570_fw.mp4	0.0	121.84276175498962	2.499955177307129
19	101.4582200050354	pulse	1	t		17.0	2.5	/experiments/AOT/AOT_stimuli/rescaled_final/1570_fw.mp4	0.0	123.02627992630005	
19	102.7746570110321	fix_post	2		12	17.0	2.5	/experiments/AOT/AOT_stimuli/rescaled_final/1570_fw.mp4	0.0	124.34271693229675	0.10003495216369629
20	102.8746919631958	fix_pre	0		120	18.0	2.5	/experiments/AOT/AOT_stimuli/rescaled_final/1346_fw.mp4	0.0	124.44275188446045	0.9999558925628662
20	103.05815482139587	pulse	0	t		18.0	2.5	/experiments/AOT/AOT_stimuli/rescaled_final/1346_fw.mp4	0.0	124.62621474266052	
20	103.87464785575867	movie	1		243	18.0	2.5	/experiments/AOT/AOT_stimuli/rescaled_final/1346_fw.mp4	0.0	125.44270777702332	2.4995739459991455
20	104.65821886062622	pulse	1	t		18.0	2.5	/experiments/AOT/AOT_stimuli/rescaled_final/1346_fw.mp4	0.0	126.22627878189087	
20	106.25666403770447	pulse	1	t		18.0	2.5	/experiments/AOT/AOT_stimuli/rescaled_final/1346_fw.mp4	0.0	127.82472395896912	
20	106.37422180175781	fix_post	2		12	18.0	2.5	/experiments/AOT/AOT_stimuli/rescaled_final/1346_fw.mp4	0.0	127.94228172302246	0.10043001174926758
21	106.47465181350708	fix_pre	0		120	19.0	2.5	/experiments/AOT/AOT_stimuli/rescaled_final/0816_rv.mp4	0.0	128.04271173477173	1.0000221729278564
21	107.47467398643494	movie	1		245	19.0	2.5	/experiments/AOT/AOT_stimuli/rescaled_final/0816_rv.mp4	0.0	129.04273390769958	2.499940872192383
21	107.85757899284363	pulse	1	t		19.0	2.5	/experiments/AOT/AOT_stimuli/rescaled_final/0816_rv.mp4	0.0	129.42563891410828	
21	109.45818090438843	pulse	1	t		19.0	2.5	/experiments/AOT/AOT_stimuli/rescaled_final/0816_rv.mp4	0.0	131.02624082565308	
21	109.97461485862732	fix_post	2		12	19.0	2.5	/experiments/AOT/AOT_stimuli/rescaled_final/0816_rv.mp4	0.0	131.54267477989197	0.09966516494750977
22	110.07428002357483	fix_pre	0		119	20.0	2.5	/experiments/AOT/AOT_stimuli/rescaled_final/0976_fw.mp4	0.0	131.64233994483948	0.9916858673095703
22	111.05777502059937	pulse	0	t		20.0	2.5	/experiments/AOT/AOT_stimuli/rescaled_final/0976_fw.mp4	0.0	132.625834941864	
22	111.0659658908844	movie	1		246	20.0	2.5	/experiments/AOT/AOT_stimuli/rescaled_final/0976_fw.mp4	0.0	132.63402581214905	2.5083141326904297
22	112.65750288963318	pulse	1	t		20.0	2.5	/experiments/AOT/AOT_stimuli/rescaled_final/0976_fw.mp4	0.0	134.22556281089783	
22	113.57428002357483	fix_post	2		12	20.0	2.5	/experiments/AOT/AOT_stimuli/rescaled_final/0976_fw.mp4	0.0	135.14233994483948	0.10039281845092773
23	113.67467284202576	fix_pre	0		120	21.0	2.5	blank	1.0	135.2427327632904	0.9995150566101074
23	114.25819396972656	pulse	0	t		21.0	2.5	blank	1.0	135.8262538909912	
23	114.67418789863586	movie	1		300	21.0	2.5	blank	1.0	136.2422478199005	2.5003809928894043
23	115.85810780525208	pulse	1	t		21.0	2.5	blank	1.0	137.42616772651672	
23	117.17456889152527	fix_post	2		12	21.0	2.5	blank	1.0	138.74262881278992	0.10000491142272949
24	117.274573802948	fix_pre	0		120	22.0	2.5	/experiments/AOT/AOT_stimuli/rescaled_final/0366_rv.mp4	0.0	138.84263372421265	0.9999840259552002
24	117.45813989639282	pulse	0	t		22.0	2.5	/experiments/AOT/AOT_stimuli/rescaled_final/0366_rv.mp4	0.0	139.02619981765747	
24	118.2745578289032	movie	1		245	22.0	2.5	/experiments/AOT/AOT_stimuli/rescaled_final/0366_rv.mp4	0.0	139.84261775016785	2.5001301765441895
24	119.05801391601562	pulse	1	t		22.0	2.5	/experiments/AOT/AOT_stimuli/rescaled_final/0366_rv.mp4	0.0	140.62607383728027	
24	120.65665793418884	pulse	1	t		22.0	2.5	/experiments/AOT/AOT_stimuli/rescaled_final/0366_rv.mp4	0.0	142.2247178554535	
24	120.77468800544739	fix_post	2		12	22.0	2.5	/experiments/AOT/AOT_stimuli/rescaled_final/0366_rv.mp4	0.0	142.34274792671204	0.09986996650695801
25	120.87455797195435	fix_pre	0		120	23.0	2.5	/experiments/AOT/AOT_stimuli/rescaled_final/0827_rv.mp4	0.0	142.442617893219	0.9999499320983887
25	121.87450790405273	movie	1		247	23.0	2.5	/experiments/AOT/AOT_stimuli/rescaled_final/0827_rv.mp4	0.0	143.44256782531738	2.500041961669922
25	122.2575798034668	pulse	1	t		23.0	2.5	/experiments/AOT/AOT_stimuli/rescaled_final/0827_rv.mp4	0.0	143.82563972473145	
25	123.85799384117126	pulse	1	t		23.0	2.5	/experiments/AOT/AOT_stimuli/rescaled_final/0827_rv.mp4	0.0	145.4260537624359	
25	124.37454986572266	fix_post	2		12	23.0	2.5	/experiments/AOT/AOT_stimuli/rescaled_final/0827_rv.mp4	0.0	145.9426097869873	0.10001707077026367
26	124.47456693649292	fix_pre	0		119	24.0	2.5	/experiments/AOT/AOT_stimuli/rescaled_final/2080_rv.mp4	0.0	146.04262685775757	0.9916369915008545
26	125.45805287361145	pulse	0	t		24.0	2.5	/experiments/AOT/AOT_stimuli/rescaled_final/2080_rv.mp4	0.0	147.0261127948761	
26	125.46620392799377	movie	1		246	24.0	2.5	/experiments/AOT/AOT_stimuli/rescaled_final/2080_rv.mp4	0.0	147.03426384925842	2.5083301067352295
26	127.05788588523865	pulse	1	t		24.0	2.5	/experiments/AOT/AOT_stimuli/rescaled_final/2080_rv.mp4	0.0	148.6259458065033	
26	127.974534034729	fix_post	2		12	24.0	2.5	/experiments/AOT/AOT_stimuli/rescaled_final/2080_rv.mp4	0.0	149.54259395599365	0.09998178482055664
27	128.07451581954956	fix_pre	0		120	25.0	2.5	/experiments/AOT/AOT_stimuli/rescaled_final/1031_rv.mp4	0.0	149.6425757408142	0.9999821186065674
27	128.65796995162964	pulse	0	t		25.0	2.5	/experiments/AOT/AOT_stimuli/rescaled_final/1031_rv.mp4	0.0	150.2260298728943	
27	129.07449793815613	movie	1		245	25.0	2.5	/experiments/AOT/AOT_stimuli/rescaled_final/1031_rv.mp4	0.0	150.64255785942078	2.500001907348633
27	130.25806283950806	pulse	1	t		25.0	2.5	/experiments/AOT/AOT_stimuli/rescaled_final/1031_rv.mp4	0.0	151.8261227607727	
27	131.57449984550476	fix_post	2		12	25.0	2.5	/experiments/AOT/AOT_stimuli/rescaled_final/1031_rv.mp4	0.0	153.1425597667694	0.09997797012329102
28	131.67447781562805	fix_pre	0		120	26.0	2.5	blank	1.0	153.2425377368927	1.0000360012054443
28	131.85814380645752	pulse	0	t		26.0	2.5	blank	1.0	153.42620372772217	
28	132.6745138168335	movie	1		300	26.0	2.5	blank	1.0	154.24257373809814	2.5000760555267334
28	133.4580638408661	pulse	1	t		26.0	2.5	blank	1.0	155.02612376213074	
28	135.05802702903748	pulse	1	t		26.0	2.5	blank	1.0	156.62608695030212	
28	135.17458987236023	fix_post	2		12	26.0	2.5	blank	1.0	156.74264979362488	0.09991312026977539
29	135.27450299263	fix_pre	0		120	27.0	2.5	/experiments/AOT/AOT_stimuli/rescaled_final/1150_fw.mp4	0.0	156.84256291389465	1.0000548362731934
29	136.2745578289032	movie	1		244	27.0	2.5	/experiments/AOT/AOT_stimuli/rescaled_final/1150_fw.mp4	0.0	157.84261775016785	2.499994993209839
29	136.6576008796692	pulse	1	t		27.0	2.5	/experiments/AOT/AOT_stimuli/rescaled_final/1150_fw.mp4	0.0	158.22566080093384	
29	138.25801181793213	pulse	1	t		27.0	2.5	/experiments/AOT/AOT_stimuli/rescaled_final/1150_fw.mp4	0.0	159.82607173919678	
29	138.77455282211304	fix_post	2		12	27.0	2.5	/experiments/AOT/AOT_stimuli/rescaled_final/1150_fw.mp4	0.0	160.34261274337769	0.09988117218017578
30	138.8744339942932	fix_pre	0		119	28.0	2.5	/experiments/AOT/AOT_stimuli/rescaled_final/0744_rv.mp4	0.0	160.44249391555786	0.991710901260376
30	139.85799980163574	pulse	0	t		28.0	2.5	/experiments/AOT/AOT_stimuli/rescaled_final/0744_rv.mp4	0.0	161.4260597229004	
30	139.8661448955536	movie	1		247	28.0	2.5	/experiments/AOT/AOT_stimuli/rescaled_final/0744_rv.mp4	0.0	161.43420481681824	2.507848024368286
30	141.45816802978516	pulse	1	t		28.0	2.5	/experiments/AOT/AOT_stimuli/rescaled_final/0744_rv.mp4	0.0	163.0262279510498	
30	142.37399291992188	fix_post	2		12	28.0	2.5	/experiments/AOT/AOT_stimuli/rescaled_final/0744_rv.mp4	0.0	163.94205284118652	0.10051798820495605
31	142.47451090812683	fix_pre	0		120	29.0	2.5	/experiments/AOT/AOT_stimuli/rescaled_final/1354_fw.mp4	0.0	164.04257082939148	0.999885082244873
31	143.0579969882965	pulse	0	t		29.0	2.5	/experiments/AOT/AOT_stimuli/rescaled_final/1354_fw.mp4	0.0	164.62605690956116	
31	143.4743959903717	movie	1		245	29.0	2.5	/experiments/AOT/AOT_stimuli/rescaled_final/1354_fw.mp4	0.0	165.04245591163635	2.5000150203704834
31	144.65806102752686	pulse	1	t		29.0	2.5	/experiments/AOT/AOT_stimuli/rescaled_final/1354_fw.mp4	0.0	166.2261209487915	
31	145.9744110107422	fix_post	2		12	29.0	2.5	/experiments/AOT/AOT_stimuli/rescaled_final/1354_fw.mp4	0.0	167.54247093200684	0.10012483596801758
32	146.0745358467102	fix_pre	0		120	30.0	2.5	/experiments/AOT/AOT_stimuli/rescaled_final/1252_rv.mp4	0.0	167.64259576797485	0.9999451637268066
32	146.25794196128845	pulse	0	t		30.0	2.5	/experiments/AOT/AOT_stimuli/rescaled_final/1252_rv.mp4	0.0	167.8260018825531	
32	147.074481010437	movie	1		244	30.0	2.5	/experiments/AOT/AOT_stimuli/rescaled_final/1252_rv.mp4	0.0	168.64254093170166	2.499567985534668
32	147.8580129146576	pulse	1	t		30.0	2.5	/experiments/AOT/AOT_stimuli/rescaled_final/1252_rv.mp4	0.0	169.42607283592224	
32	149.45619797706604	pulse	1	t		30.0	2.5	/experiments/AOT/AOT_stimuli/rescaled_final/1252_rv.mp4	0.0	171.0242578983307	
32	149.57404899597168	fix_post	2		12	30.0	2.5	/experiments/AOT/AOT_stimuli/rescaled_final/1252_rv.mp4	0.0	171.14210891723633	0.10047197341918945
33	149.67452096939087	fix_pre	0		120	31.0	2.5	/experiments/AOT/AOT_stimuli/rescaled_final/2115_fw.mp4	0.0	171.24258089065552	0.9999549388885498
33	150.67447590827942	movie	1		245	31.0	2.5	/experiments/AOT/AOT_stimuli/rescaled_final/2115_fw.mp4	0.0	172.24253582954407	2.499941110610962
33	151.05756902694702	pulse	1	t		31.0	2.5	/experiments/AOT/AOT_stimuli/rescaled_final/2115_fw.mp4	0.0	172.62562894821167	
33	152.6579418182373	pulse	1	t		31.0	2.5	/experiments/AOT/AOT_stimuli/rescaled_final/2115_fw.mp4	0.0	174.22600173950195	
33	153.17441701889038	fix_post	2		12	31.0	2.5	/experiments/AOT/AOT_stimuli/rescaled_final/2115_fw.mp4	0.0	174.74247694015503	0.09995198249816895
34	153.27436900138855	fix_pre	0		119	32.0	2.5	/experiments/AOT/AOT_stimuli/rescaled_final/0275_fw.mp4	0.0	174.8424289226532	0.991675853729248
34	154.2579538822174	pulse	0	t		32.0	2.5	/experiments/AOT/AOT_stimuli/rescaled_final/0275_fw.mp4	0.0	175.82601380348206	
34	154.2660448551178	movie	1		244	32.0	2.5	/experiments/AOT/AOT_stimuli/rescaled_final/0275_fw.mp4	0.0	175.83410477638245	2.507910966873169
34	155.8589630126953	pulse	1	t		32.0	2.5	/experiments/AOT/AOT_stimuli/rescaled_final/0275_fw.mp4	0.0	177.42702293395996	
34	156.77395582199097	fix_post	2		12	32.0	2.5	/experiments/AOT/AOT_stimuli/rescaled_final/0275_fw.mp4	0.0	178.34201574325562	0.10052919387817383
35	156.87448501586914	fix_pre	0		120	33.0	2.5	/experiments/AOT/AOT_stimuli/rescaled_final/1863_fw.mp4	0.0	178.4425449371338	0.9999709129333496
35	157.45787501335144	pulse	0	t		33.0	2.5	/experiments/AOT/AOT_stimuli/rescaled_final/1863_fw.mp4	0.0	179.0259349346161	
35	157.8744559288025	movie	1		244	33.0	2.5	/experiments/AOT/AOT_stimuli/rescaled_final/1863_fw.mp4	0.0	179.44251585006714	2.499998092651367
35	159.05792689323425	pulse	1	t		33.0	2.5	/experiments/AOT/AOT_stimuli/rescaled_final/1863_fw.mp4	0.0	180.6259868144989	
35	160.37445402145386	fix_post	2		12	33.0	2.5	/experiments/AOT/AOT_stimuli/rescaled_final/1863_fw.mp4	0.0	181.9425139427185	0.09995889663696289
36	160.47441291809082	fix_pre	0		120	34.0	2.5	blank	1.0	182.04247283935547	1.0000419616699219
36	160.65784287452698	pulse	0	t		34.0	2.5	blank	1.0	182.22590279579163	
36	161.47445487976074	movie	1		300	34.0	2.5	blank	1.0	183.0425148010254	2.4999570846557617
36	162.25787496566772	pulse	1	t		34.0	2.5	blank	1.0	183.82593488693237	
36	163.85783791542053	pulse	1	t		34.0	2.5	blank	1.0	185.42589783668518	
36	163.9744119644165	fix_post	2		12	34.0	2.5	blank	1.0	185.54247188568115	0.09958004951477051
37	164.07399201393127	fix_pre	0		120	35.0	2.5	/experiments/AOT/AOT_stimuli/rescaled_final/1842_rv.mp4	0.0	185.64205193519592	1.0004308223724365
37	165.0744228363037	movie	1		244	35.0	2.5	/experiments/AOT/AOT_stimuli/rescaled_final/1842_rv.mp4	0.0	186.64248275756836	2.5001142024993896
37	165.45718789100647	pulse	1	t		35.0	2.5	/experiments/AOT/AOT_stimuli/rescaled_final/1842_rv.mp4	0.0	187.02524781227112	
37	167.05792903900146	pulse	1	t		35.0	2.5	/experiments/AOT/AOT_stimuli/rescaled_final/1842_rv.mp4	0.0	188.6259889602661	
37	167.5745370388031	fix_post	2		12	35.0	2.5	/experiments/AOT/AOT_stimuli/rescaled_final/1842_rv.mp4	0.0	189.14259696006775	0.09965991973876953
38	167.67419695854187	fix_pre	0		119	36.0	2.5	/experiments/AOT/AOT_stimuli/rescaled_final/0704_fw.mp4	0.0	189.24225687980652	0.9917929172515869
38	168.6578278541565	pulse	0	t		36.0	2.5	/experiments/AOT/AOT_stimuli/rescaled_final/0704_fw.mp4	0.0	190.22588777542114	
38	168.66598987579346	movie	1		246	36.0	2.5	/experiments/AOT/AOT_stimuli/rescaled_final/0704_fw.mp4	0.0	190.2340497970581	2.50839900970459
38	170.25736093521118	pulse	1	t		36.0	2.5	/experiments/AOT/AOT_stimuli/rescaled_final/0704_fw.mp4	0.0	191.82542085647583	
38	171.17438888549805	fix_post	2		12	36.0	2.5	/experiments/AOT/AOT_stimuli/rescaled_final/0704_fw.mp4	0.0	192.7424488067627	0.09993600845336914
39	171.27432489395142	fix_pre	0		120	37.0	2.5	/experiments/AOT/AOT_stimuli/rescaled_final/0275_rv.mp4	0.0	192.84238481521606	1.0000300407409668
39	171.85787987709045	pulse	0	t		37.0	2.5	/experiments/AOT/AOT_stimuli/rescaled_final/0275_rv.mp4	0.0	193.4259397983551	
39	172.27435493469238	movie	1		244	37.0	2.5	/experiments/AOT/AOT_stimuli/rescaled_final/0275_rv.mp4	0.0	193.84241485595703	2.4998700618743896
39	173.45787286758423	pulse	1	t		37.0	2.5	/experiments/AOT/AOT_stimuli/rescaled_final/0275_rv.mp4	0.0	195.02593278884888	
39	174.77422499656677	fix_post	2		12	37.0	2.5	/experiments/AOT/AOT_stimuli/rescaled_final/0275_rv.mp4	0.0	196.34228491783142	0.10007786750793457
40	174.8743028640747	fix_pre	0		120	38.0	2.5	/experiments/AOT/AOT_stimuli/rescaled_final/0634_rv.mp4	0.0	196.44236278533936	1.0000250339508057
40	175.05774688720703	pulse	0	t		38.0	2.5	/experiments/AOT/AOT_stimuli/rescaled_final/0634_rv.mp4	0.0	196.62580680847168	
40	175.8743278980255	movie	1		244	38.0	2.5	/experiments/AOT/AOT_stimuli/rescaled_final/0634_rv.mp4	0.0	197.44238781929016	2.4999771118164062
40	176.6577558517456	pulse	1	t		38.0	2.5	/experiments/AOT/AOT_stimuli/rescaled_final/0634_rv.mp4	0.0	198.22581577301025	
40	178.25636291503906	pulse	1	t		38.0	2.5	/experiments/AOT/AOT_stimuli/rescaled_final/0634_rv.mp4	0.0	199.8244228363037	
40	178.37430500984192	fix_post	2		12	38.0	2.5	/experiments/AOT/AOT_stimuli/rescaled_final/0634_rv.mp4	0.0	199.94236493110657	0.10000491142272949
41	178.47430992126465	fix_pre	0		120	39.0	2.5	/experiments/AOT/AOT_stimuli/rescaled_final/0457_fw.mp4	0.0	200.0423698425293	1.0000319480895996
41	179.47434186935425	movie	1		243	39.0	2.5	/experiments/AOT/AOT_stimuli/rescaled_final/0457_fw.mp4	0.0	201.0424017906189	2.49989914894104
41	179.8578929901123	pulse	1	t		39.0	2.5	/experiments/AOT/AOT_stimuli/rescaled_final/0457_fw.mp4	0.0	201.42595291137695	
41	181.4576849937439	pulse	1	t		39.0	2.5	/experiments/AOT/AOT_stimuli/rescaled_final/0457_fw.mp4	0.0	203.02574491500854	
41	181.9742410182953	fix_post	2		12	39.0	2.5	/experiments/AOT/AOT_stimuli/rescaled_final/0457_fw.mp4	0.0	203.54230093955994	0.10005593299865723
42	182.07429695129395	fix_pre	0		119	40.0	2.5	/experiments/AOT/AOT_stimuli/rescaled_final/1087_rv.mp4	0.0	203.6423568725586	0.9915850162506104
42	183.05780696868896	pulse	0	t		40.0	2.5	/experiments/AOT/AOT_stimuli/rescaled_final/1087_rv.mp4	0.0	204.6258668899536	
42	183.06588196754456	movie	1		245	40.0	2.5	/experiments/AOT/AOT_stimuli/rescaled_final/1087_rv.mp4	0.0	204.6339418888092	2.5083260536193848
42	184.65740394592285	pulse	1	t		40.0	2.5	/experiments/AOT/AOT_stimuli/rescaled_final/1087_rv.mp4	0.0	206.2254638671875	
42	185.57420802116394	fix_post	2		12	40.0	2.5	/experiments/AOT/AOT_stimuli/rescaled_final/1087_rv.mp4	0.0	207.1422679424286	0.09999489784240723
43	185.67420291900635	fix_pre	0		120	41.0	2.5	blank	1.0	207.242262840271	1.0001139640808105
43	186.25776290893555	pulse	0	t		41.0	2.5	blank	1.0	207.8258228302002	
43	186.67431688308716	movie	1		300	41.0	2.5	blank	1.0	208.2423768043518	2.4998879432678223
43	187.85779190063477	pulse	1	t		41.0	2.5	blank	1.0	209.4258518218994	
43	189.17420482635498	fix_post	2		12	41.0	2.5	blank	1.0	210.74226474761963	0.10009312629699707
44	189.27429795265198	fix_pre	0		120	42.0	2.5	/experiments/AOT/AOT_stimuli/rescaled_final/1679_rv.mp4	0.0	210.84235787391663	0.9999430179595947
44	189.45779299736023	pulse	0	t		42.0	2.5	/experiments/AOT/AOT_stimuli/rescaled_final/1679_rv.mp4	0.0	211.02585291862488	
44	190.27424097061157	movie	1		243	42.0	2.5	/experiments/AOT/AOT_stimuli/rescaled_final/1679_rv.mp4	0.0	211.84230089187622	2.500016927719116
44	191.05778884887695	pulse	1	t		42.0	2.5	/experiments/AOT/AOT_stimuli/rescaled_final/1679_rv.mp4	0.0	212.6258487701416	
44	192.65636801719666	pulse	1	t		42.0	2.5	/experiments/AOT/AOT_stimuli/rescaled_final/1679_rv.mp4	0.0	214.2244279384613	
44	192.7742578983307	fix_post	2		12	42.0	2.5	/experiments/AOT/AOT_stimuli/rescaled_final/1679_rv.mp4	0.0	214.34231781959534	0.10004806518554688
45	192.87430596351624	fix_pre	0		120	43.0	2.5	/experiments/AOT/AOT_stimuli/rescaled_final/0240_fw.mp4	0.0	214.44236588478088	0.9999270439147949
45	193.87423300743103	movie	1		244	43.0	2.5	/experiments/AOT/AOT_stimuli/rescaled_final/0240_fw.mp4	0.0	215.44229292869568	2.4999678134918213
45	194.25736784934998	pulse	1	t		43.0	2.5	/experiments/AOT/AOT_stimuli/rescaled_final/0240_fw.mp4	0.0	215.82542777061462	
45	195.8577229976654	pulse	1	t		43.0	2.5	/experiments/AOT/AOT_stimuli/rescaled_final/0240_fw.mp4	0.0	217.42578291893005	
45	196.37420082092285	fix_post	2		12	43.0	2.5	/experiments/AOT/AOT_stimuli/rescaled_final/0240_fw.mp4	0.0	217.9422607421875	0.10001420974731445
46	196.47421503067017	fix_pre	0		119	44.0	2.5	/experiments/AOT/AOT_stimuli/rescaled_final/1518_rv.mp4	0.0	218.04227495193481	0.9916718006134033
46	197.45772099494934	pulse	0	t		44.0	2.5	/experiments/AOT/AOT_stimuli/rescaled_final/1518_rv.mp4	0.0	219.025780916214	
46	197.46588683128357	movie	1		244	44.0	2.5	/experiments/AOT/AOT_stimuli/rescaled_final/1518_rv.mp4	0.0	219.03394675254822	2.508268117904663
46	199.0578649044037	pulse	1	t		44.0	2.5	/experiments/AOT/AOT_stimuli/rescaled_final/1518_rv.mp4	0.0	220.62592482566833	
46	199.97415494918823	fix_post	2		12	44.0	2.5	/experiments/AOT/AOT_stimuli/rescaled_final/1518_rv.mp4	0.0	221.54221487045288	0.10002803802490234
47	200.07418298721313	fix_pre	0		120	45.0	2.5	/experiments/AOT/AOT_stimuli/rescaled_final/1098_rv.mp4	0.0	221.64224290847778	0.9999649524688721
47	200.6577389240265	pulse	0	t		45.0	2.5	/experiments/AOT/AOT_stimuli/rescaled_final/1098_rv.mp4	0.0	222.22579884529114	
47	201.074147939682	movie	1		245	45.0	2.5	/experiments/AOT/AOT_stimuli/rescaled_final/1098_rv.mp4	0.0	222.64220786094666	2.500109910964966
47	202.25790786743164	pulse	1	t		45.0	2.5	/experiments/AOT/AOT_stimuli/rescaled_final/1098_rv.mp4	0.0	223.8259677886963	
47	203.57425785064697	fix_post	2		12	45.0	2.5	/experiments/AOT/AOT_stimuli/rescaled_final/1098_rv.mp4	0.0	225.14231777191162	0.09995818138122559
48	203.6742160320282	fix_pre	0		120	46.0	2.5	/experiments/AOT/AOT_stimuli/rescaled_final/1592_rv.mp4	0.0	225.24227595329285	0.9999668598175049
48	203.85763096809387	pulse	0	t		46.0	2.5	/experiments/AOT/AOT_stimuli/rescaled_final/1592_rv.mp4	0.0	225.42569088935852	
48	204.6741828918457	movie	1		244	46.0	2.5	/experiments/AOT/AOT_stimuli/rescaled_final/1592_rv.mp4	0.0	226.24224281311035	2.500080108642578
48	205.45766401290894	pulse	1	t		46.0	2.5	/experiments/AOT/AOT_stimuli/rescaled_final/1592_rv.mp4	0.0	227.02572393417358	
48	207.0562629699707	pulse	1	t		46.0	2.5	/experiments/AOT/AOT_stimuli/rescaled_final/1592_rv.mp4	0.0	228.62432289123535	
48	207.17426300048828	fix_post	2		12	46.0	2.5	/experiments/AOT/AOT_stimuli/rescaled_final/1592_rv.mp4	0.0	228.74232292175293	0.09990692138671875
49	207.274169921875	fix_pre	0		120	47.0	2.5	/experiments/AOT/AOT_stimuli/rescaled_final/0006_rv.mp4	0.0	228.84222984313965	0.9995439052581787
49	208.27371382713318	movie	1		245	47.0	2.5	/experiments/AOT/AOT_stimuli/rescaled_final/0006_rv.mp4	0.0	229.84177374839783	2.5004360675811768
49	208.65733981132507	pulse	1	t		47.0	2.5	/experiments/AOT/AOT_stimuli/rescaled_final/0006_rv.mp4	0.0	230.22539973258972	
49	210.25768303871155	pulse	1	t		47.0	2.5	/experiments/AOT/AOT_stimuli/rescaled_final/0006_rv.mp4	0.0	231.8257429599762	
49	210.77414989471436	fix_post	2		12	47.0	2.5	/experiments/AOT/AOT_stimuli/rescaled_final/0006_rv.mp4	0.0	232.342209815979	0.09996199607849121
50	210.87411189079285	fix_pre	0		119	48.0	2.5	/experiments/AOT/AOT_stimuli/rescaled_final/1883_rv.mp4	0.0	232.4421718120575	0.9917759895324707
50	211.857745885849	pulse	0	t		48.0	2.5	/experiments/AOT/AOT_stimuli/rescaled_final/1883_rv.mp4	0.0	233.42580580711365	
50	211.86588788032532	movie	1		245	48.0	2.5	/experiments/AOT/AOT_stimuli/rescaled_final/1883_rv.mp4	0.0	233.43394780158997	2.508190155029297
50	213.4572398662567	pulse	1	t		48.0	2.5	/experiments/AOT/AOT_stimuli/rescaled_final/1883_rv.mp4	0.0	235.02529978752136	
50	214.37407803535461	fix_post	2		12	48.0	2.5	/experiments/AOT/AOT_stimuli/rescaled_final/1883_rv.mp4	0.0	235.94213795661926	0.09996485710144043
51	214.47404289245605	fix_pre	0		120	49.0	2.5	blank	1.0	236.0421028137207	1.00006103515625
51	215.05760192871094	pulse	0	t		49.0	2.5	blank	1.0	236.6256618499756	
51	215.4741039276123	movie	1		300	49.0	2.5	blank	1.0	237.04216384887695	2.4999868869781494
51	216.65767002105713	pulse	1	t		49.0	2.5	blank	1.0	238.22572994232178	
51	217.97409081459045	fix_post	2		12	49.0	2.5	blank	1.0	239.5421507358551	0.1000361442565918
52	218.07412695884705	fix_pre	0		120	50.0	2.5	/experiments/AOT/AOT_stimuli/rescaled_final/0150_fw.mp4	0.0	239.6421868801117	0.9999270439147949
52	218.25753903388977	pulse	0	t		50.0	2.5	/experiments/AOT/AOT_stimuli/rescaled_final/0150_fw.mp4	0.0	239.82559895515442	
52	219.07405400276184	movie	1		243	50.0	2.5	/experiments/AOT/AOT_stimuli/rescaled_final/0150_fw.mp4	0.0	240.6421139240265	2.500072956085205
52	219.85763001441956	pulse	1	t		50.0	2.5	/experiments/AOT/AOT_stimuli/rescaled_final/0150_fw.mp4	0.0	241.4256899356842	
52	221.45600485801697	pulse	1	t		50.0	2.5	/experiments/AOT/AOT_stimuli/rescaled_final/0150_fw.mp4	0.0	243.02406477928162	
52	221.57412695884705	fix_post	2		12	50.0	2.5	/experiments/AOT/AOT_stimuli/rescaled_final/0150_fw.mp4	0.0	243.1421868801117	0.09995889663696289
53	221.674085855484	fix_pre	0		120	51.0	2.5	/experiments/AOT/AOT_stimuli/rescaled_final/1002_rv.mp4	0.0	243.24214577674866	0.9996891021728516
53	222.67377495765686	movie	1		245	51.0	2.5	/experiments/AOT/AOT_stimuli/rescaled_final/1002_rv.mp4	0.0	244.2418348789215	2.5003440380096436
53	223.0571370124817	pulse	1	t		51.0	2.5	/experiments/AOT/AOT_stimuli/rescaled_final/1002_rv.mp4	0.0	244.62519693374634	
53	224.65754199028015	pulse	1	t		51.0	2.5	/experiments/AOT/AOT_stimuli/rescaled_final/1002_rv.mp4	0.0	246.2256019115448	
53	225.1741189956665	fix_post	2		12	51.0	2.5	/experiments/AOT/AOT_stimuli/rescaled_final/1002_rv.mp4	0.0	246.74217891693115	0.09998893737792969
54	225.27410793304443	fix_pre	0		119	52.0	2.5	/experiments/AOT/AOT_stimuli/rescaled_final/1288_rv.mp4	0.0	246.84216785430908	0.9916610717773438
54	226.25756096839905	pulse	0	t		52.0	2.5	/experiments/AOT/AOT_stimuli/rescaled_final/1288_rv.mp4	0.0	247.8256208896637	
54	226.26576900482178	movie	1		246	52.0	2.5	/experiments/AOT/AOT_stimuli/rescaled_final/1288_rv.mp4	0.0	247.83382892608643	2.5082669258117676
54	227.85733199119568	pulse	1	t		52.0	2.5	/experiments/AOT/AOT_stimuli/rescaled_final/1288_rv.mp4	0.0	249.42539191246033	
54	228.77403593063354	fix_post	2		12	52.0	2.5	/experiments/AOT/AOT_stimuli/rescaled_final/1288_rv.mp4	0.0	250.3420958518982	0.09999799728393555
55	228.87403392791748	fix_pre	0		120	53.0	2.5	/experiments/AOT/AOT_stimuli/rescaled_final/0102_rv.mp4	0.0	250.44209384918213	0.9999520778656006
55	229.45753502845764	pulse	0	t		53.0	2.5	/experiments/AOT/AOT_stimuli/rescaled_final/0102_rv.mp4	0.0	251.0255949497223	
55	229.87398600578308	movie	1		246	53.0	2.5	/experiments/AOT/AOT_stimuli/rescaled_final/0102_rv.mp4	0.0	251.44204592704773	2.500018835067749
55	231.05763983726501	pulse	1	t		53.0	2.5	/experiments/AOT/AOT_stimuli/rescaled_final/0102_rv.mp4	0.0	252.62569975852966	
55	232.37400484085083	fix_post	2		12	53.0	2.5	/experiments/AOT/AOT_stimuli/rescaled_final/0102_rv.mp4	0.0	253.94206476211548	0.10001611709594727
56	232.47402095794678	fix_pre	0		120	54.0	2.5	/experiments/AOT/AOT_stimuli/rescaled_final/1735_rv.mp4	0.0	254.04208087921143	0.9999630451202393
56	232.65763092041016	pulse	0	t		54.0	2.5	/experiments/AOT/AOT_stimuli/rescaled_final/1735_rv.mp4	0.0	254.2256908416748	
56	233.47398400306702	movie	1		246	54.0	2.5	/experiments/AOT/AOT_stimuli/rescaled_final/1735_rv.mp4	0.0	255.04204392433167	2.499976873397827
56	234.25743985176086	pulse	1	t		54.0	2.5	/experiments/AOT/AOT_stimuli/rescaled_final/1735_rv.mp4	0.0	255.8254997730255	
56	235.85624980926514	pulse	1	t		54.0	2.5	/experiments/AOT/AOT_stimuli/rescaled_final/1735_rv.mp4	0.0	257.4243097305298	
56	235.97396087646484	fix_post	2		12	54.0	2.5	/experiments/AOT/AOT_stimuli/rescaled_final/1735_rv.mp4	0.0	257.5420207977295	0.10004806518554688
57	236.0740089416504	fix_pre	0		120	55.0	2.5	/experiments/AOT/AOT_stimuli/rescaled_final/1540_fw.mp4	0.0	257.64206886291504	0.9999940395355225
57	237.0740029811859	movie	1		247	55.0	2.5	/experiments/AOT/AOT_stimuli/rescaled_final/1540_fw.mp4	0.0	258.64206290245056	2.5000128746032715
57	237.45858597755432	pulse	1	t		55.0	2.5	/experiments/AOT/AOT_stimuli/rescaled_final/1540_fw.mp4	0.0	259.02664589881897	
57	239.05743288993835	pulse	1	t		55.0	2.5	/experiments/AOT/AOT_stimuli/rescaled_final/1540_fw.mp4	0.0	260.625492811203	
57	239.57401585578918	fix_post	2		12	55.0	2.5	/experiments/AOT/AOT_stimuli/rescaled_final/1540_fw.mp4	0.0	261.14207577705383	0.09992694854736328
58	239.67394280433655	fix_pre	0		119	56.0	2.5	blank	1.0	261.2420027256012	0.991706132888794
58	240.6574628353119	pulse	0	t		56.0	2.5	blank	1.0	262.22552275657654	
58	240.66564893722534	movie	1		301	56.0	2.5	blank	1.0	262.23370885849	2.508389949798584
58	242.25768780708313	pulse	1	t		56.0	2.5	blank	1.0	263.8257477283478	
58	243.17403888702393	fix_post	2		12	56.0	2.5	blank	1.0	264.7420988082886	0.09996604919433594
59	243.27400493621826	fix_pre	0		120	57.0	2.5	/experiments/AOT/AOT_stimuli/rescaled_final/0883_rv.mp4	0.0	264.8420648574829	1.000058889389038
59	243.85748600959778	pulse	0	t		57.0	2.5	/experiments/AOT/AOT_stimuli/rescaled_final/0883_rv.mp4	0.0	265.4255459308624	
59	244.2740638256073	movie	1		244	57.0	2.5	/experiments/AOT/AOT_stimuli/rescaled_final/0883_rv.mp4	0.0	265.84212374687195	2.499946117401123
59	245.45757389068604	pulse	1	t		57.0	2.5	/experiments/AOT/AOT_stimuli/rescaled_final/0883_rv.mp4	0.0	267.0256338119507	
59	246.77400994300842	fix_post	2		12	57.0	2.5	/experiments/AOT/AOT_stimuli/rescaled_final/0883_rv.mp4	0.0	268.34206986427307	0.10004186630249023
60	246.8740518093109	fix_pre	0		120	58.0	2.5	/experiments/AOT/AOT_stimuli/rescaled_final/1883_fw.mp4	0.0	268.44211173057556	0.9998610019683838
60	247.05753302574158	pulse	0	t		58.0	2.5	/experiments/AOT/AOT_stimuli/rescaled_final/1883_fw.mp4	0.0	268.6255929470062	
60	247.8739128112793	movie	1		244	58.0	2.5	/experiments/AOT/AOT_stimuli/rescaled_final/1883_fw.mp4	0.0	269.44197273254395	2.500087022781372
60	248.6574568748474	pulse	1	t		58.0	2.5	/experiments/AOT/AOT_stimuli/rescaled_final/1883_fw.mp4	0.0	270.22551679611206	
60	250.25359392166138	pulse	1	t		58.0	2.5	/experiments/AOT/AOT_stimuli/rescaled_final/1883_fw.mp4	0.0	271.821653842926	
60	250.37399983406067	fix_post	2		12	58.0	2.5	/experiments/AOT/AOT_stimuli/rescaled_final/1883_fw.mp4	0.0	271.9420597553253	0.0999300479888916
61	250.47392988204956	fix_pre	0		120	59.0	2.5	/experiments/AOT/AOT_stimuli/rescaled_final/1126_fw.mp4	0.0	272.0419898033142	1.0000300407409668
61	251.47395992279053	movie	1		246	59.0	2.5	/experiments/AOT/AOT_stimuli/rescaled_final/1126_fw.mp4	0.0	273.0420198440552	2.4994800090789795
61	251.85727190971375	pulse	1	t		59.0	2.5	/experiments/AOT/AOT_stimuli/rescaled_final/1126_fw.mp4	0.0	273.4253318309784	
61	253.45741081237793	pulse	1	t		59.0	2.5	/experiments/AOT/AOT_stimuli/rescaled_final/1126_fw.mp4	0.0	275.0254707336426	
61	253.9734399318695	fix_post	2		12	59.0	2.5	/experiments/AOT/AOT_stimuli/rescaled_final/1126_fw.mp4	0.0	275.54149985313416	0.1005399227142334
62	254.07397985458374	fix_pre	0		119	60.0	2.5	/experiments/AOT/AOT_stimuli/rescaled_final/1525_fw.mp4	0.0	275.6420397758484	0.9916040897369385
62	255.0573878288269	pulse	0	t		60.0	2.5	/experiments/AOT/AOT_stimuli/rescaled_final/1525_fw.mp4	0.0	276.62544775009155	
62	255.06558394432068	movie	1		249	60.0	2.5	/experiments/AOT/AOT_stimuli/rescaled_final/1525_fw.mp4	0.0	276.6336438655853	2.5083470344543457
62	256.65766882896423	pulse	1	t		60.0	2.5	/experiments/AOT/AOT_stimuli/rescaled_final/1525_fw.mp4	0.0	278.2257287502289	
62	257.573930978775	fix_post	2		12	60.0	2.5	/experiments/AOT/AOT_stimuli/rescaled_final/1525_fw.mp4	0.0	279.1419909000397	0.09998083114624023
63	257.67391180992126	fix_pre	0		120	61.0	2.5	blank	1.0	279.2419717311859	1.0000221729278564
63	258.25741386413574	pulse	0	t		61.0	2.5	blank	1.0	279.8254737854004	
63	258.6739339828491	movie	1		300	61.0	2.5	blank	1.0	280.24199390411377	2.4999170303344727
63	259.8574650287628	pulse	1	t		61.0	2.5	blank	1.0	281.42552495002747	
63	261.1738510131836	fix_post	2		12	61.0	2.5	blank	1.0	282.74191093444824	0.09995698928833008
64	261.2738080024719	fix_pre	0		120	62.0	2.5	/experiments/AOT/AOT_stimuli/rescaled_final/1940_rv.mp4	0.0	282.8418679237366	1.000013828277588
64	261.45739698410034	pulse	0	t		62.0	2.5	/experiments/AOT/AOT_stimuli/rescaled_final/1940_rv.mp4	0.0	283.025456905365	
64	262.2738218307495	movie	1		244	62.0	2.5	/experiments/AOT/AOT_stimuli/rescaled_final/1940_rv.mp4	0.0	283.84188175201416	2.5000851154327393
64	263.05741000175476	pulse	1	t		62.0	2.5	/experiments/AOT/AOT_stimuli/rescaled_final/1940_rv.mp4	0.0	284.6254699230194	
64	264.6560699939728	pulse	1	t		62.0	2.5	/experiments/AOT/AOT_stimuli/rescaled_final/1940_rv.mp4	0.0	286.2241299152374	
64	264.77390694618225	fix_post	2		12	62.0	2.5	/experiments/AOT/AOT_stimuli/rescaled_final/1940_rv.mp4	0.0	286.3419668674469	0.10003304481506348
65	264.8739399909973	fix_pre	0		120	63.0	2.5	/experiments/AOT/AOT_stimuli/rescaled_final/1712_fw.mp4	0.0	286.44199991226196	0.9999198913574219
65	265.87385988235474	movie	1		243	63.0	2.5	/experiments/AOT/AOT_stimuli/rescaled_final/1712_fw.mp4	0.0	287.4419198036194	2.500030994415283
65	266.2580749988556	pulse	1	t		63.0	2.5	/experiments/AOT/AOT_stimuli/rescaled_final/1712_fw.mp4	0.0	287.82613492012024	
65	267.8573670387268	pulse	1	t		63.0	2.5	/experiments/AOT/AOT_stimuli/rescaled_final/1712_fw.mp4	0.0	289.42542695999146	
65	268.37389087677	fix_post	2		12	63.0	2.5	/experiments/AOT/AOT_stimuli/rescaled_final/1712_fw.mp4	0.0	289.94195079803467	0.09999203681945801
66	268.4738829135895	fix_pre	0		119	64.0	2.5	/experiments/AOT/AOT_stimuli/rescaled_final/1824_rv.mp4	0.0	290.0419428348541	0.991718053817749
66	269.45736289024353	pulse	0	t		64.0	2.5	/experiments/AOT/AOT_stimuli/rescaled_final/1824_rv.mp4	0.0	291.0254228115082	
66	269.4656009674072	movie	1		246	64.0	2.5	/experiments/AOT/AOT_stimuli/rescaled_final/1824_rv.mp4	0.0	291.0336608886719	2.50832200050354
66	271.05725288391113	pulse	1	t		64.0	2.5	/experiments/AOT/AOT_stimuli/rescaled_final/1824_rv.mp4	0.0	292.6253128051758	
66	271.97392296791077	fix_post	2		12	64.0	2.5	/experiments/AOT/AOT_stimuli/rescaled_final/1824_rv.mp4	0.0	293.5419828891754	0.09987497329711914
67	272.0737979412079	fix_pre	0		120	65.0	2.5	/experiments/AOT/AOT_stimuli/rescaled_final/1690_rv.mp4	0.0	293.64185786247253	1.000148057937622
67	272.6573169231415	pulse	0	t		65.0	2.5	/experiments/AOT/AOT_stimuli/rescaled_final/1690_rv.mp4	0.0	294.2253768444061	
67	273.0739459991455	movie	1		244	65.0	2.5	/experiments/AOT/AOT_stimuli/rescaled_final/1690_rv.mp4	0.0	294.64200592041016	2.4998979568481445
67	274.2574429512024	pulse	1	t		65.0	2.5	/experiments/AOT/AOT_stimuli/rescaled_final/1690_rv.mp4	0.0	295.82550287246704	
67	275.57384395599365	fix_post	2		12	65.0	2.5	/experiments/AOT/AOT_stimuli/rescaled_final/1690_rv.mp4	0.0	297.1419038772583	0.10009288787841797
68	275.67393684387207	fix_pre	0		120	66.0	2.5	/experiments/AOT/AOT_stimuli/rescaled_final/1810_fw.mp4	0.0	297.2419967651367	1.0000050067901611
68	275.8574569225311	pulse	0	t		66.0	2.5	/experiments/AOT/AOT_stimuli/rescaled_final/1810_fw.mp4	0.0	297.4255168437958	
68	276.67394185066223	movie	1		244	66.0	2.5	/experiments/AOT/AOT_stimuli/rescaled_final/1810_fw.mp4	0.0	298.2420017719269	2.499667167663574
68	277.4568729400635	pulse	1	t		66.0	2.5	/experiments/AOT/AOT_stimuli/rescaled_final/1810_fw.mp4	0.0	299.0249328613281	
68	279.05581283569336	pulse	1	t		66.0	2.5	/experiments/AOT/AOT_stimuli/rescaled_final/1810_fw.mp4	0.0	300.623872756958	
68	279.1736090183258	fix_post	2		12	66.0	2.5	/experiments/AOT/AOT_stimuli/rescaled_final/1810_fw.mp4	0.0	300.74166893959045	0.1003568172454834
69	279.2739658355713	fix_pre	0		120	67.0	2.5	/experiments/AOT/AOT_stimuli/rescaled_final/1679_fw.mp4	0.0	300.84202575683594	0.9998071193695068
69	280.2737729549408	movie	1		245	67.0	2.5	/experiments/AOT/AOT_stimuli/rescaled_final/1679_fw.mp4	0.0	301.84183287620544	2.5000510215759277
69	280.6568899154663	pulse	1	t		67.0	2.5	/experiments/AOT/AOT_stimuli/rescaled_final/1679_fw.mp4	0.0	302.22494983673096	
69	282.2572419643402	pulse	1	t		67.0	2.5	/experiments/AOT/AOT_stimuli/rescaled_final/1679_fw.mp4	0.0	303.82530188560486	
69	282.7738239765167	fix_post	2		12	67.0	2.5	/experiments/AOT/AOT_stimuli/rescaled_final/1679_fw.mp4	0.0	304.3418838977814	0.09995889663696289
70	282.8737828731537	fix_pre	0		119	68.0	2.5	/experiments/AOT/AOT_stimuli/rescaled_final/1525_fw.mp4	0.0	304.44184279441833	0.9916939735412598
70	283.8572590351105	pulse	0	t		68.0	2.5	/experiments/AOT/AOT_stimuli/rescaled_final/1525_fw.mp4	0.0	305.4253189563751	
70	283.86547684669495	movie	1		248	68.0	2.5	/experiments/AOT/AOT_stimuli/rescaled_final/1525_fw.mp4	0.0	305.4335367679596	2.5083160400390625
70	285.4567859172821	pulse	1	t		68.0	2.5	/experiments/AOT/AOT_stimuli/rescaled_final/1525_fw.mp4	0.0	307.02484583854675	
70	286.373792886734	fix_post	2		12	68.0	2.5	/experiments/AOT/AOT_stimuli/rescaled_final/1525_fw.mp4	0.0	307.94185280799866	0.09989213943481445
71	286.4736850261688	fix_pre	0		120	69.0	2.5	/experiments/AOT/AOT_stimuli/rescaled_final/0690_rv.mp4	0.0	308.0417449474335	1.0000619888305664
71	287.05717492103577	pulse	0	t		69.0	2.5	/experiments/AOT/AOT_stimuli/rescaled_final/0690_rv.mp4	0.0	308.6252348423004	
71	287.4737470149994	movie	1		244	69.0	2.5	/experiments/AOT/AOT_stimuli/rescaled_final/0690_rv.mp4	0.0	309.04180693626404	2.5000197887420654
71	288.6572949886322	pulse	1	t		69.0	2.5	/experiments/AOT/AOT_stimuli/rescaled_final/0690_rv.mp4	0.0	310.22535490989685	
71	289.97376680374146	fix_post	2		12	69.0	2.5	/experiments/AOT/AOT_stimuli/rescaled_final/0690_rv.mp4	0.0	311.5418267250061	0.09992408752441406
72	290.07369089126587	fix_pre	0		120	70.0	2.5	blank	1.0	311.6417508125305	0.9996719360351562
72	290.2572708129883	pulse	0	t		70.0	2.5	blank	1.0	311.82533073425293	
72	291.073362827301	movie	1		300	70.0	2.5	blank	1.0	312.6414227485657	2.499988079071045
72	291.85721492767334	pulse	1	t		70.0	2.5	blank	1.0	313.425274848938	
72	293.45720386505127	pulse	1	t		70.0	2.5	blank	1.0	315.0252637863159	
72	293.57335090637207	fix_post	2		12	70.0	2.5	blank	1.0	315.1414108276367	0.10038900375366211
73	293.67373991012573	fix_pre	0		120	71.0	2.5	/experiments/AOT/AOT_stimuli/rescaled_final/1379_fw.mp4	0.0	315.2417998313904	0.9996809959411621
73	294.6734209060669	movie	1		247	71.0	2.5	/experiments/AOT/AOT_stimuli/rescaled_final/1379_fw.mp4	0.0	316.24148082733154	2.5003349781036377
73	295.0577130317688	pulse	1	t		71.0	2.5	/experiments/AOT/AOT_stimuli/rescaled_final/1379_fw.mp4	0.0	316.62577295303345	
73	296.6573178768158	pulse	1	t		71.0	2.5	/experiments/AOT/AOT_stimuli/rescaled_final/1379_fw.mp4	0.0	318.22537779808044	
73	297.17375588417053	fix_post	2		12	71.0	2.5	/experiments/AOT/AOT_stimuli/rescaled_final/1379_fw.mp4	0.0	318.7418158054352	0.09992408752441406
74	297.27367997169495	fix_pre	0		119	72.0	2.5	/experiments/AOT/AOT_stimuli/rescaled_final/0996_rv.mp4	0.0	318.8417398929596	0.9916770458221436
74	298.25718998908997	pulse	0	t		72.0	2.5	/experiments/AOT/AOT_stimuli/rescaled_final/0996_rv.mp4	0.0	319.8252499103546	
74	298.2653570175171	movie	1		247	72.0	2.5	/experiments/AOT/AOT_stimuli/rescaled_final/0996_rv.mp4	0.0	319.83341693878174	2.5079548358917236
74	299.8583059310913	pulse	1	t		72.0	2.5	/experiments/AOT/AOT_stimuli/rescaled_final/0996_rv.mp4	0.0	321.42636585235596	
74	300.7733118534088	fix_post	2		12	72.0	2.5	/experiments/AOT/AOT_stimuli/rescaled_final/0996_rv.mp4	0.0	322.34137177467346	0.10044598579406738
75	300.8737578392029	fix_pre	0		120	73.0	2.5	/experiments/AOT/AOT_stimuli/rescaled_final/0223_fw.mp4	0.0	322.44181776046753	0.9999151229858398
75	301.4572868347168	pulse	0	t		73.0	2.5	/experiments/AOT/AOT_stimuli/rescaled_final/0223_fw.mp4	0.0	323.02534675598145	
75	301.8736729621887	movie	1		245	73.0	2.5	/experiments/AOT/AOT_stimuli/rescaled_final/0223_fw.mp4	0.0	323.44173288345337	2.50007700920105
75	303.0573468208313	pulse	1	t		73.0	2.5	/experiments/AOT/AOT_stimuli/rescaled_final/0223_fw.mp4	0.0	324.62540674209595	
75	304.37374997138977	fix_post	2		12	73.0	2.5	/experiments/AOT/AOT_stimuli/rescaled_final/0223_fw.mp4	0.0	325.9418098926544	0.09999203681945801
76	304.47374200820923	fix_pre	0		120	74.0	2.5	/experiments/AOT/AOT_stimuli/rescaled_final/0601_rv.mp4	0.0	326.0418019294739	0.9999539852142334
76	304.65717601776123	pulse	0	t		74.0	2.5	/experiments/AOT/AOT_stimuli/rescaled_final/0601_rv.mp4	0.0	326.2252359390259	
76	305.47369599342346	movie	1		246	74.0	2.5	/experiments/AOT/AOT_stimuli/rescaled_final/0601_rv.mp4	0.0	327.0417559146881	2.4994988441467285
76	306.25720500946045	pulse	1	t		74.0	2.5	/experiments/AOT/AOT_stimuli/rescaled_final/0601_rv.mp4	0.0	327.8252649307251	
76	307.8567409515381	pulse	1	t		74.0	2.5	/experiments/AOT/AOT_stimuli/rescaled_final/0601_rv.mp4	0.0	329.42480087280273	
76	307.9731948375702	fix_post	2		12	74.0	2.5	/experiments/AOT/AOT_stimuli/rescaled_final/0601_rv.mp4	0.0	329.54125475883484	0.10047006607055664
77	308.07366490364075	fix_pre	0		120	75.0	2.5	blank	1.0	329.6417248249054	0.9999051094055176
77	309.07357001304626	movie	1		300	75.0	2.5	blank	1.0	330.6416299343109	2.500098943710327
77	309.4571409225464	pulse	1	t		75.0	2.5	blank	1.0	331.02520084381104	
77	311.05718302726746	pulse	1	t		75.0	2.5	blank	1.0	332.6252429485321	
77	311.5736689567566	fix_post	2		12	75.0	2.5	blank	1.0	333.14172887802124	0.10002994537353516
78	311.6736989021301	fix_pre	0		119	76.0	2.5	/experiments/AOT/AOT_stimuli/rescaled_final/1016_fw.mp4	0.0	333.2417588233948	0.9915311336517334
78	312.6571559906006	pulse	0	t		76.0	2.5	/experiments/AOT/AOT_stimuli/rescaled_final/1016_fw.mp4	0.0	334.22521591186523	
78	312.66523003578186	movie	1		245	76.0	2.5	/experiments/AOT/AOT_stimuli/rescaled_final/1016_fw.mp4	0.0	334.2332899570465	2.508434772491455
78	314.25666785240173	pulse	1	t		76.0	2.5	/experiments/AOT/AOT_stimuli/rescaled_final/1016_fw.mp4	0.0	335.8247277736664	
78	315.1736648082733	fix_post	2		12	76.0	2.5	/experiments/AOT/AOT_stimuli/rescaled_final/1016_fw.mp4	0.0	336.74172472953796	0.09993720054626465
79	315.2736020088196	fix_pre	0		120	77.0	2.5	/experiments/AOT/AOT_stimuli/rescaled_final/1161_fw.mp4	0.0	336.84166193008423	1.000119924545288
79	315.85711884498596	pulse	0	t		77.0	2.5	/experiments/AOT/AOT_stimuli/rescaled_final/1161_fw.mp4	0.0	337.4251787662506	
79	316.27372193336487	movie	1		243	77.0	2.5	/experiments/AOT/AOT_stimuli/rescaled_final/1161_fw.mp4	0.0	337.8417818546295	2.499476909637451
79	317.45713686943054	pulse	1	t		77.0	2.5	/experiments/AOT/AOT_stimuli/rescaled_final/1161_fw.mp4	0.0	339.0251967906952	
79	318.7731988430023	fix_post	2		12	77.0	2.5	/experiments/AOT/AOT_stimuli/rescaled_final/1161_fw.mp4	0.0	340.34125876426697	0.10039901733398438
80	318.8735978603363	fix_pre	0		120	78.0	2.5	/experiments/AOT/AOT_stimuli/rescaled_final/0671_fw.mp4	0.0	340.44165778160095	0.9999361038208008
80	319.05724692344666	pulse	0	t		78.0	2.5	/experiments/AOT/AOT_stimuli/rescaled_final/0671_fw.mp4	0.0	340.6253068447113	
80	319.8735339641571	movie	1		245	78.0	2.5	/experiments/AOT/AOT_stimuli/rescaled_final/0671_fw.mp4	0.0	341.44159388542175	2.5000178813934326
80	320.657222032547	pulse	1	t		78.0	2.5	/experiments/AOT/AOT_stimuli/rescaled_final/0671_fw.mp4	0.0	342.22528195381165	
80	322.2559769153595	pulse	1	t		78.0	2.5	/experiments/AOT/AOT_stimuli/rescaled_final/0671_fw.mp4	0.0	343.82403683662415	
80	322.37355184555054	fix_post	2		12	78.0	2.5	/experiments/AOT/AOT_stimuli/rescaled_final/0671_fw.mp4	0.0	343.9416117668152	0.10010409355163574
81	322.4736559391022	fix_pre	0		120	79.0	2.5	/experiments/AOT/AOT_stimuli/rescaled_final/1437_fw.mp4	0.0	344.0417158603668	0.9995620250701904
81	323.47321796417236	movie	1		245	79.0	2.5	/experiments/AOT/AOT_stimuli/rescaled_final/1437_fw.mp4	0.0	345.041277885437	2.5003509521484375
81	323.85800981521606	pulse	1	t		79.0	2.5	/experiments/AOT/AOT_stimuli/rescaled_final/1437_fw.mp4	0.0	345.4260697364807	
81	325.4571168422699	pulse	1	t		79.0	2.5	/experiments/AOT/AOT_stimuli/rescaled_final/1437_fw.mp4	0.0	347.02517676353455	
81	325.9735689163208	fix_post	2		12	79.0	2.5	/experiments/AOT/AOT_stimuli/rescaled_final/1437_fw.mp4	0.0	347.54162883758545	0.09998703002929688
82	326.0735559463501	fix_pre	0		119	80.0	2.5	/experiments/AOT/AOT_stimuli/rescaled_final/1276_fw.mp4	0.0	347.64161586761475	0.9917280673980713
82	327.0571780204773	pulse	0	t		80.0	2.5	/experiments/AOT/AOT_stimuli/rescaled_final/1276_fw.mp4	0.0	348.62523794174194	
82	327.06528401374817	movie	1		246	80.0	2.5	/experiments/AOT/AOT_stimuli/rescaled_final/1276_fw.mp4	0.0	348.6333439350128	2.5082569122314453
82	328.65680599212646	pulse	1	t		80.0	2.5	/experiments/AOT/AOT_stimuli/rescaled_final/1276_fw.mp4	0.0	350.2248659133911	
82	329.5735409259796	fix_post	2		12	80.0	2.5	/experiments/AOT/AOT_stimuli/rescaled_final/1276_fw.mp4	0.0	351.14160084724426	0.10009598731994629
83	329.67363691329956	fix_pre	0		120	81.0	2.5	/experiments/AOT/AOT_stimuli/rescaled_final/0335_fw.mp4	0.0	351.2416968345642	0.9999470710754395
83	330.25710582733154	pulse	0	t		81.0	2.5	/experiments/AOT/AOT_stimuli/rescaled_final/0335_fw.mp4	0.0	351.8251657485962	
83	330.673583984375	movie	1		246	81.0	2.5	/experiments/AOT/AOT_stimuli/rescaled_final/0335_fw.mp4	0.0	352.24164390563965	2.4995720386505127
83	331.8570189476013	pulse	1	t		81.0	2.5	/experiments/AOT/AOT_stimuli/rescaled_final/0335_fw.mp4	0.0	353.42507886886597	
83	333.1731560230255	fix_post	2		12	81.0	2.5	/experiments/AOT/AOT_stimuli/rescaled_final/0335_fw.mp4	0.0	354.74121594429016	0.0999908447265625
84	333.2731468677521	fix_pre	0		120	82.0	2.5	/experiments/AOT/AOT_stimuli/rescaled_final/1944_rv.mp4	0.0	354.8412067890167	1.0007281303405762
84	333.4566578865051	pulse	0	t		82.0	2.5	/experiments/AOT/AOT_stimuli/rescaled_final/1944_rv.mp4	0.0	355.0247178077698	
84	334.27387499809265	movie	1		244	82.0	2.5	/experiments/AOT/AOT_stimuli/rescaled_final/1944_rv.mp4	0.0	355.8419349193573	2.4996349811553955
84	335.0571320056915	pulse	1	t		82.0	2.5	/experiments/AOT/AOT_stimuli/rescaled_final/1944_rv.mp4	0.0	356.6251919269562	
84	336.65584683418274	pulse	1	t		82.0	2.5	/experiments/AOT/AOT_stimuli/rescaled_final/1944_rv.mp4	0.0	358.2239067554474	
84	336.77350997924805	fix_post	2		12	82.0	2.5	/experiments/AOT/AOT_stimuli/rescaled_final/1944_rv.mp4	0.0	358.3415699005127	0.1000528335571289
85	336.8735628128052	fix_pre	0		120	83.0	2.5	blank	1.0	358.4416227340698	0.999953031539917
85	337.8735158443451	movie	1		300	83.0	2.5	blank	1.0	359.44157576560974	2.500087022781372
85	338.2570769786835	pulse	1	t		83.0	2.5	blank	1.0	359.8251368999481	
85	339.85701990127563	pulse	1	t		83.0	2.5	blank	1.0	361.4250798225403	
85	340.37360286712646	fix_post	2		12	83.0	2.5	blank	1.0	361.9416627883911	0.099945068359375
87	340.47354793548584	stim	0		1716					362.0416078567505	14.299953937530518
87	341.4569458961487	pulse	0	t						363.02500581741333	
87	343.056932926178	pulse	0	t						364.6249928474426	
87	344.65697598457336	pulse	0	t						366.225035905838	
87	346.25696086883545	pulse	0	t						367.8250207901001	
87	347.8569369316101	pulse	0	t						369.42499685287476	
87	349.45684480667114	pulse	0	t						371.0249047279358	
87	351.0569179058075	pulse	0	t						372.62497782707214	
87	352.6568989753723	pulse	0	t						374.22495889663696	
87	354.2569088935852	pulse	0	t						375.82496881484985	
