trial_nr	onset	event_type	phase	response	nr_frames	movie_index	movie_duration	movie_file	blank	onset_abs	duration
0	0.15797090530395508	stim	0		42					20.258380889892578	0.3502500057220459
0	0.5003910064697266	response	0	space						20.60080099105835	
1	0.508220911026001	stim	0		3298					20.608630895614624	27.483214139938354
1	27.986849069595337	pulse	0	t						48.08725905418396	
1	27.991435050964355	stim	1		1717					48.09184503555298	14.308282852172852
1	29.58330011367798	pulse	1	t						49.6837100982666	
1	31.183295011520386	pulse	1	t						51.28370499610901	
1	32.783287048339844	pulse	1	t						52.88369703292847	
1	34.38330912590027	pulse	1	t						54.48371911048889	
1	35.98327612876892	pulse	1	t						56.083686113357544	
1	37.583269119262695	pulse	1	t						57.68367910385132	
1	39.18332099914551	pulse	1	t						59.28373098373413	
1	40.78336811065674	pulse	1	t						60.88377809524536	
2	42.29971790313721	fix_pre	0		11	0.0	2.5	/experiments/AOT/AOT_stimuli/rescaled_final/1778_fw.mp4	0.0	62.40012788772583	0.09174704551696777
2	42.383280992507935	pulse	0	t		0.0	2.5	/experiments/AOT/AOT_stimuli/rescaled_final/1778_fw.mp4	0.0	62.48369097709656	
2	42.391464948654175	movie	1		244	0.0	2.5	/experiments/AOT/AOT_stimuli/rescaled_final/1778_fw.mp4	0.0	62.4918749332428	2.508296012878418
2	43.982877016067505	pulse	1	t		0.0	2.5	/experiments/AOT/AOT_stimuli/rescaled_final/1778_fw.mp4	0.0	64.08328700065613	
2	44.89976096153259	fix_post	2		12	0.0	2.5	/experiments/AOT/AOT_stimuli/rescaled_final/1778_fw.mp4	0.0	65.00017094612122	0.09999799728393555
3	44.99975895881653	fix_pre	0		120	1.0	2.5	/experiments/AOT/AOT_stimuli/rescaled_final/0134_rv.mp4	0.0	65.10016894340515	1.0000250339508057
3	45.583329916000366	pulse	0	t		1.0	2.5	/experiments/AOT/AOT_stimuli/rescaled_final/0134_rv.mp4	0.0	65.68373990058899	
3	45.999783992767334	movie	1		245	1.0	2.5	/experiments/AOT/AOT_stimuli/rescaled_final/0134_rv.mp4	0.0	66.10019397735596	2.499861001968384
3	47.183260917663574	pulse	1	t		1.0	2.5	/experiments/AOT/AOT_stimuli/rescaled_final/0134_rv.mp4	0.0	67.2836709022522	
3	48.49964499473572	fix_post	2		12	1.0	2.5	/experiments/AOT/AOT_stimuli/rescaled_final/0134_rv.mp4	0.0	68.60005497932434	0.1001739501953125
4	48.59981894493103	fix_pre	0		120	2.0	2.5	/experiments/AOT/AOT_stimuli/rescaled_final/0837_fw.mp4	0.0	68.70022892951965	0.99983811378479
4	48.78318905830383	pulse	0	t		2.0	2.5	/experiments/AOT/AOT_stimuli/rescaled_final/0837_fw.mp4	0.0	68.88359904289246	
4	49.59965705871582	movie	1		243	2.0	2.5	/experiments/AOT/AOT_stimuli/rescaled_final/0837_fw.mp4	0.0	69.70006704330444	2.5000338554382324
4	50.38324499130249	pulse	1	t		2.0	2.5	/experiments/AOT/AOT_stimuli/rescaled_final/0837_fw.mp4	0.0	70.48365497589111	
4	51.98180103302002	pulse	1	t		2.0	2.5	/experiments/AOT/AOT_stimuli/rescaled_final/0837_fw.mp4	0.0	72.08221101760864	
4	52.09969091415405	fix_post	2		12	2.0	2.5	/experiments/AOT/AOT_stimuli/rescaled_final/0837_fw.mp4	0.0	72.20010089874268	0.10005903244018555
5	52.19974994659424	fix_pre	0		120	3.0	2.5	/experiments/AOT/AOT_stimuli/rescaled_final/1737_rv.mp4	0.0	72.30015993118286	0.9999971389770508
5	53.19974708557129	movie	1		243	3.0	2.5	/experiments/AOT/AOT_stimuli/rescaled_final/1737_rv.mp4	0.0	73.30015707015991	2.499974012374878
5	53.58427309989929	pulse	1	t		3.0	2.5	/experiments/AOT/AOT_stimuli/rescaled_final/1737_rv.mp4	0.0	73.68468308448792	
5	55.183115005493164	pulse	1	t		3.0	2.5	/experiments/AOT/AOT_stimuli/rescaled_final/1737_rv.mp4	0.0	75.28352499008179	
5	55.69972109794617	fix_post	2		12	3.0	2.5	/experiments/AOT/AOT_stimuli/rescaled_final/1737_rv.mp4	0.0	75.80013108253479	0.0999908447265625
6	55.79971194267273	fix_pre	0		119	4.0	2.5	/experiments/AOT/AOT_stimuli/rescaled_final/1969_rv.mp4	0.0	75.90012192726135	0.9916870594024658
6	56.783169984817505	pulse	0	t		4.0	2.5	/experiments/AOT/AOT_stimuli/rescaled_final/1969_rv.mp4	0.0	76.88357996940613	
6	56.791399002075195	movie	1		245	4.0	2.5	/experiments/AOT/AOT_stimuli/rescaled_final/1969_rv.mp4	0.0	76.89180898666382	2.5082619190216064
6	58.38325095176697	pulse	1	t		4.0	2.5	/experiments/AOT/AOT_stimuli/rescaled_final/1969_rv.mp4	0.0	78.48366093635559	
6	59.2996609210968	fix_post	2		12	4.0	2.5	/experiments/AOT/AOT_stimuli/rescaled_final/1969_rv.mp4	0.0	79.40007090568542	0.10008001327514648
7	59.39974093437195	fix_pre	0		120	5.0	2.5	/experiments/AOT/AOT_stimuli/rescaled_final/1480_rv.mp4	0.0	79.50015091896057	0.999547004699707
7	59.982754945755005	pulse	0	t		5.0	2.5	/experiments/AOT/AOT_stimuli/rescaled_final/1480_rv.mp4	0.0	80.08316493034363	
7	60.399287939071655	movie	1		244	5.0	2.5	/experiments/AOT/AOT_stimuli/rescaled_final/1480_rv.mp4	0.0	80.49969792366028	2.50039005279541
7	61.58341908454895	pulse	1	t		5.0	2.5	/experiments/AOT/AOT_stimuli/rescaled_final/1480_rv.mp4	0.0	81.68382906913757	
7	62.899677991867065	fix_post	2		12	5.0	2.5	/experiments/AOT/AOT_stimuli/rescaled_final/1480_rv.mp4	0.0	83.00008797645569	0.10000205039978027
8	62.999680042266846	fix_pre	0		120	6.0	2.5	blank	1.0	83.10009002685547	0.9999558925628662
8	63.18322706222534	pulse	0	t		6.0	2.5	blank	1.0	83.28363704681396	
8	63.99963593482971	movie	1		300	6.0	2.5	blank	1.0	84.10004591941833	2.500030994415283
8	64.78314590454102	pulse	1	t		6.0	2.5	blank	1.0	84.88355588912964	
8	66.38308906555176	pulse	1	t		6.0	2.5	blank	1.0	86.48349905014038	
8	66.499666929245	fix_post	2		12	6.0	2.5	blank	1.0	86.60007691383362	0.09993600845336914
9	66.59960293769836	fix_pre	0		120	7.0	2.5	/experiments/AOT/AOT_stimuli/rescaled_final/1014_fw.mp4	0.0	86.70001292228699	1.000028133392334
9	67.5996310710907	movie	1		245	7.0	2.5	/experiments/AOT/AOT_stimuli/rescaled_final/1014_fw.mp4	0.0	87.70004105567932	2.4999070167541504
9	67.98249006271362	pulse	1	t		7.0	2.5	/experiments/AOT/AOT_stimuli/rescaled_final/1014_fw.mp4	0.0	88.08290004730225	
9	69.58304595947266	pulse	1	t		7.0	2.5	/experiments/AOT/AOT_stimuli/rescaled_final/1014_fw.mp4	0.0	89.68345594406128	
9	70.09953808784485	fix_post	2		12	7.0	2.5	/experiments/AOT/AOT_stimuli/rescaled_final/1014_fw.mp4	0.0	90.19994807243347	0.10010886192321777
10	70.19964694976807	fix_pre	0		119	8.0	2.5	/experiments/AOT/AOT_stimuli/rescaled_final/1587_fw.mp4	0.0	90.30005693435669	0.9915950298309326
10	71.18309497833252	pulse	0	t		8.0	2.5	/experiments/AOT/AOT_stimuli/rescaled_final/1587_fw.mp4	0.0	91.28350496292114	
10	71.191241979599	movie	1		247	8.0	2.5	/experiments/AOT/AOT_stimuli/rescaled_final/1587_fw.mp4	0.0	91.29165196418762	2.508466958999634
10	72.78455591201782	pulse	1	t		8.0	2.5	/experiments/AOT/AOT_stimuli/rescaled_final/1587_fw.mp4	0.0	92.88496589660645	
10	73.69970893859863	fix_post	2		12	8.0	2.5	/experiments/AOT/AOT_stimuli/rescaled_final/1587_fw.mp4	0.0	93.80011892318726	0.09985017776489258
11	73.79955911636353	fix_pre	0		120	9.0	2.5	/experiments/AOT/AOT_stimuli/rescaled_final/1302_fw.mp4	0.0	93.89996910095215	1.0000569820404053
11	74.383052110672	pulse	0	t		9.0	2.5	/experiments/AOT/AOT_stimuli/rescaled_final/1302_fw.mp4	0.0	94.48346209526062	
11	74.79961609840393	movie	1		245	9.0	2.5	/experiments/AOT/AOT_stimuli/rescaled_final/1302_fw.mp4	0.0	94.90002608299255	2.4999217987060547
11	75.98312997817993	pulse	1	t		9.0	2.5	/experiments/AOT/AOT_stimuli/rescaled_final/1302_fw.mp4	0.0	96.08353996276855	
11	77.29953789710999	fix_post	2		12	9.0	2.5	/experiments/AOT/AOT_stimuli/rescaled_final/1302_fw.mp4	0.0	97.39994788169861	0.10001611709594727
12	77.39955401420593	fix_pre	0		120	10.0	2.5	/experiments/AOT/AOT_stimuli/rescaled_final/1320_rv.mp4	0.0	97.49996399879456	0.9999580383300781
12	77.58306694030762	pulse	0	t		10.0	2.5	/experiments/AOT/AOT_stimuli/rescaled_final/1320_rv.mp4	0.0	97.68347692489624	
12	78.39951205253601	movie	1		245	10.0	2.5	/experiments/AOT/AOT_stimuli/rescaled_final/1320_rv.mp4	0.0	98.49992203712463	2.5000109672546387
12	79.1830370426178	pulse	1	t		10.0	2.5	/experiments/AOT/AOT_stimuli/rescaled_final/1320_rv.mp4	0.0	99.28344702720642	
12	80.78152799606323	pulse	1	t		10.0	2.5	/experiments/AOT/AOT_stimuli/rescaled_final/1320_rv.mp4	0.0	100.88193798065186	
12	80.89952301979065	fix_post	2		12	10.0	2.5	/experiments/AOT/AOT_stimuli/rescaled_final/1320_rv.mp4	0.0	100.99993300437927	0.1000831127166748
13	80.99960613250732	fix_pre	0		120	11.0	2.5	/experiments/AOT/AOT_stimuli/rescaled_final/1850_rv.mp4	0.0	101.10001611709595	0.9995229244232178
13	81.99912905693054	movie	1		244	11.0	2.5	/experiments/AOT/AOT_stimuli/rescaled_final/1850_rv.mp4	0.0	102.09953904151917	2.4999568462371826
13	82.38277292251587	pulse	1	t		11.0	2.5	/experiments/AOT/AOT_stimuli/rescaled_final/1850_rv.mp4	0.0	102.48318290710449	
13	83.98316097259521	pulse	1	t		11.0	2.5	/experiments/AOT/AOT_stimuli/rescaled_final/1850_rv.mp4	0.0	104.08357095718384	
13	84.49908590316772	fix_post	2		12	11.0	2.5	/experiments/AOT/AOT_stimuli/rescaled_final/1850_rv.mp4	0.0	104.59949588775635	0.10048222541809082
14	84.59956812858582	fix_pre	0		119	12.0	2.5	/experiments/AOT/AOT_stimuli/rescaled_final/1818_rv.mp4	0.0	104.69997811317444	0.9916379451751709
14	85.58306694030762	pulse	0	t		12.0	2.5	/experiments/AOT/AOT_stimuli/rescaled_final/1818_rv.mp4	0.0	105.68347692489624	
14	85.59120607376099	movie	1		244	12.0	2.5	/experiments/AOT/AOT_stimuli/rescaled_final/1818_rv.mp4	0.0	105.69161605834961	2.508347988128662
14	87.18258690834045	pulse	1	t		12.0	2.5	/experiments/AOT/AOT_stimuli/rescaled_final/1818_rv.mp4	0.0	107.28299689292908	
14	88.09955406188965	fix_post	2		12	12.0	2.5	/experiments/AOT/AOT_stimuli/rescaled_final/1818_rv.mp4	0.0	108.19996404647827	0.09990596771240234
15	88.19946002960205	fix_pre	0		120	13.0	2.5	/experiments/AOT/AOT_stimuli/rescaled_final/0775_rv.mp4	0.0	108.29987001419067	1.000035047531128
15	88.78304505348206	pulse	0	t		13.0	2.5	/experiments/AOT/AOT_stimuli/rescaled_final/0775_rv.mp4	0.0	108.88345503807068	
15	89.19949507713318	movie	1		244	13.0	2.5	/experiments/AOT/AOT_stimuli/rescaled_final/0775_rv.mp4	0.0	109.2999050617218	2.499572992324829
15	90.38308000564575	pulse	1	t		13.0	2.5	/experiments/AOT/AOT_stimuli/rescaled_final/0775_rv.mp4	0.0	110.48348999023438	
15	91.69906806945801	fix_post	2		12	13.0	2.5	/experiments/AOT/AOT_stimuli/rescaled_final/0775_rv.mp4	0.0	111.79947805404663	0.10049200057983398
16	91.79956007003784	fix_pre	0		120	14.0	2.5	blank	1.0	111.89997005462646	1.0000929832458496
16	91.98305201530457	pulse	0	t		14.0	2.5	blank	1.0	112.08346199989319	
16	92.79965305328369	movie	1		300	14.0	2.5	blank	1.0	112.90006303787231	2.4998369216918945
16	93.58305501937866	pulse	1	t		14.0	2.5	blank	1.0	113.68346500396729	
16	95.18297410011292	pulse	1	t		14.0	2.5	blank	1.0	115.28338408470154	
16	95.29948997497559	fix_post	2		12	14.0	2.5	blank	1.0	115.39989995956421	0.09994101524353027
17	95.39943099021912	fix_pre	0		120	15.0	2.5	/experiments/AOT/AOT_stimuli/rescaled_final/0874_rv.mp4	0.0	115.49984097480774	1.0000240802764893
17	96.3994550704956	movie	1		245	15.0	2.5	/experiments/AOT/AOT_stimuli/rescaled_final/0874_rv.mp4	0.0	116.49986505508423	2.5000498294830322
17	96.78296113014221	pulse	1	t		15.0	2.5	/experiments/AOT/AOT_stimuli/rescaled_final/0874_rv.mp4	0.0	116.88337111473083	
17	98.38295197486877	pulse	1	t		15.0	2.5	/experiments/AOT/AOT_stimuli/rescaled_final/0874_rv.mp4	0.0	118.4833619594574	
17	98.89950489997864	fix_post	2		12	15.0	2.5	/experiments/AOT/AOT_stimuli/rescaled_final/0874_rv.mp4	0.0	118.99991488456726	0.10001420974731445
18	98.99951910972595	fix_pre	0		119	16.0	2.5	/experiments/AOT/AOT_stimuli/rescaled_final/1859_fw.mp4	0.0	119.09992909431458	0.9916179180145264
18	99.98302698135376	pulse	0	t		16.0	2.5	/experiments/AOT/AOT_stimuli/rescaled_final/1859_fw.mp4	0.0	120.08343696594238	
18	99.99113702774048	movie	1		245	16.0	2.5	/experiments/AOT/AOT_stimuli/rescaled_final/1859_fw.mp4	0.0	120.0915470123291	2.5083470344543457
18	101.58256912231445	pulse	1	t		16.0	2.5	/experiments/AOT/AOT_stimuli/rescaled_final/1859_fw.mp4	0.0	121.68297910690308	
18	102.49948406219482	fix_post	2		12	16.0	2.5	/experiments/AOT/AOT_stimuli/rescaled_final/1859_fw.mp4	0.0	122.59989404678345	0.10003495216369629
19	102.59951901435852	fix_pre	0		120	17.0	2.5	/experiments/AOT/AOT_stimuli/rescaled_final/0564_fw.mp4	0.0	122.69992899894714	0.9998929500579834
19	103.18296694755554	pulse	0	t		17.0	2.5	/experiments/AOT/AOT_stimuli/rescaled_final/0564_fw.mp4	0.0	123.28337693214417	
19	103.5994119644165	movie	1		243	17.0	2.5	/experiments/AOT/AOT_stimuli/rescaled_final/0564_fw.mp4	0.0	123.69982194900513	2.4999730587005615
19	104.78292107582092	pulse	1	t		17.0	2.5	/experiments/AOT/AOT_stimuli/rescaled_final/0564_fw.mp4	0.0	124.88333106040955	
19	106.09938502311707	fix_post	2		12	17.0	2.5	/experiments/AOT/AOT_stimuli/rescaled_final/0564_fw.mp4	0.0	126.19979500770569	0.10000300407409668
20	106.19938802719116	fix_pre	0		120	18.0	2.5	/experiments/AOT/AOT_stimuli/rescaled_final/0068_rv.mp4	0.0	126.29979801177979	0.9995899200439453
20	106.38293099403381	pulse	0	t		18.0	2.5	/experiments/AOT/AOT_stimuli/rescaled_final/0068_rv.mp4	0.0	126.48334097862244	
20	107.19897794723511	movie	1		244	18.0	2.5	/experiments/AOT/AOT_stimuli/rescaled_final/0068_rv.mp4	0.0	127.29938793182373	2.500455141067505
20	107.98288607597351	pulse	1	t		18.0	2.5	/experiments/AOT/AOT_stimuli/rescaled_final/0068_rv.mp4	0.0	128.08329606056213	
20	109.5817379951477	pulse	1	t		18.0	2.5	/experiments/AOT/AOT_stimuli/rescaled_final/0068_rv.mp4	0.0	129.68214797973633	
20	109.69943308830261	fix_post	2		12	18.0	2.5	/experiments/AOT/AOT_stimuli/rescaled_final/0068_rv.mp4	0.0	129.79984307289124	0.0999908447265625
21	109.79942393302917	fix_pre	0		120	19.0	2.5	/experiments/AOT/AOT_stimuli/rescaled_final/1479_rv.mp4	0.0	129.8998339176178	0.9999620914459229
21	110.7993860244751	movie	1		243	19.0	2.5	/experiments/AOT/AOT_stimuli/rescaled_final/1479_rv.mp4	0.0	130.89979600906372	2.5000579357147217
21	111.18407392501831	pulse	1	t		19.0	2.5	/experiments/AOT/AOT_stimuli/rescaled_final/1479_rv.mp4	0.0	131.28448390960693	
21	112.78293204307556	pulse	1	t		19.0	2.5	/experiments/AOT/AOT_stimuli/rescaled_final/1479_rv.mp4	0.0	132.88334202766418	
21	113.29944396018982	fix_post	2		12	19.0	2.5	/experiments/AOT/AOT_stimuli/rescaled_final/1479_rv.mp4	0.0	133.39985394477844	0.1000370979309082
22	113.39948105812073	fix_pre	0		119	20.0	2.5	blank	1.0	133.49989104270935	0.9915978908538818
22	114.38288712501526	pulse	0	t		20.0	2.5	blank	1.0	134.48329710960388	
22	114.39107894897461	movie	1		301	20.0	2.5	blank	1.0	134.49148893356323	2.507996082305908
22	115.9828929901123	pulse	1	t		20.0	2.5	blank	1.0	136.08330297470093	
22	116.89907503128052	fix_post	2		12	20.0	2.5	blank	1.0	136.99948501586914	0.10039496421813965
23	116.99946999549866	fix_pre	0		120	21.0	2.5	/experiments/AOT/AOT_stimuli/rescaled_final/1947_rv.mp4	0.0	137.09987998008728	0.9997310638427734
23	117.58275294303894	pulse	0	t		21.0	2.5	/experiments/AOT/AOT_stimuli/rescaled_final/1947_rv.mp4	0.0	137.68316292762756	
23	117.99920105934143	movie	1		246	21.0	2.5	/experiments/AOT/AOT_stimuli/rescaled_final/1947_rv.mp4	0.0	138.09961104393005	2.50020694732666
23	119.18288898468018	pulse	1	t		21.0	2.5	/experiments/AOT/AOT_stimuli/rescaled_final/1947_rv.mp4	0.0	139.2832989692688	
23	120.49940800666809	fix_post	2		12	21.0	2.5	/experiments/AOT/AOT_stimuli/rescaled_final/1947_rv.mp4	0.0	140.5998179912567	0.09997296333312988
24	120.59938097000122	fix_pre	0		120	22.0	2.5	/experiments/AOT/AOT_stimuli/rescaled_final/1567_fw.mp4	0.0	140.69979095458984	1.0000059604644775
24	120.78281307220459	pulse	0	t		22.0	2.5	/experiments/AOT/AOT_stimuli/rescaled_final/1567_fw.mp4	0.0	140.8832230567932	
24	121.5993869304657	movie	1		246	22.0	2.5	/experiments/AOT/AOT_stimuli/rescaled_final/1567_fw.mp4	0.0	141.69979691505432	2.499512195587158
24	122.3829779624939	pulse	1	t		22.0	2.5	/experiments/AOT/AOT_stimuli/rescaled_final/1567_fw.mp4	0.0	142.48338794708252	
24	123.98127889633179	pulse	1	t		22.0	2.5	/experiments/AOT/AOT_stimuli/rescaled_final/1567_fw.mp4	0.0	144.0816888809204	
24	124.09889912605286	fix_post	2		12	22.0	2.5	/experiments/AOT/AOT_stimuli/rescaled_final/1567_fw.mp4	0.0	144.19930911064148	0.10044097900390625
25	124.19934010505676	fix_pre	0		120	23.0	2.5	/experiments/AOT/AOT_stimuli/rescaled_final/0454_rv.mp4	0.0	144.29975008964539	1.000011920928955
25	125.19935202598572	movie	1		245	23.0	2.5	/experiments/AOT/AOT_stimuli/rescaled_final/0454_rv.mp4	0.0	145.29976201057434	2.4995501041412354
25	125.58224701881409	pulse	1	t		23.0	2.5	/experiments/AOT/AOT_stimuli/rescaled_final/0454_rv.mp4	0.0	145.6826570034027	
25	127.18278002738953	pulse	1	t		23.0	2.5	/experiments/AOT/AOT_stimuli/rescaled_final/0454_rv.mp4	0.0	147.28319001197815	
25	127.69890213012695	fix_post	2		12	23.0	2.5	/experiments/AOT/AOT_stimuli/rescaled_final/0454_rv.mp4	0.0	147.79931211471558	0.10041379928588867
26	127.79931592941284	fix_pre	0		119	24.0	2.5	/experiments/AOT/AOT_stimuli/rescaled_final/1480_rv.mp4	0.0	147.89972591400146	0.9916770458221436
26	128.78277111053467	pulse	0	t		24.0	2.5	/experiments/AOT/AOT_stimuli/rescaled_final/1480_rv.mp4	0.0	148.8831810951233	
26	128.79099297523499	movie	1		244	24.0	2.5	/experiments/AOT/AOT_stimuli/rescaled_final/1480_rv.mp4	0.0	148.8914029598236	2.5083560943603516
26	130.3828089237213	pulse	1	t		24.0	2.5	/experiments/AOT/AOT_stimuli/rescaled_final/1480_rv.mp4	0.0	150.48321890830994	
26	131.29934906959534	fix_post	2		12	24.0	2.5	/experiments/AOT/AOT_stimuli/rescaled_final/1480_rv.mp4	0.0	151.39975905418396	0.10003304481506348
27	131.3993821144104	fix_pre	0		120	25.0	2.5	/experiments/AOT/AOT_stimuli/rescaled_final/1035_rv.mp4	0.0	151.49979209899902	0.9995639324188232
27	131.9828860759735	pulse	0	t		25.0	2.5	/experiments/AOT/AOT_stimuli/rescaled_final/1035_rv.mp4	0.0	152.08329606056213	
27	132.39894604682922	movie	1		245	25.0	2.5	/experiments/AOT/AOT_stimuli/rescaled_final/1035_rv.mp4	0.0	152.49935603141785	2.4999759197235107
27	133.58292412757874	pulse	1	t		25.0	2.5	/experiments/AOT/AOT_stimuli/rescaled_final/1035_rv.mp4	0.0	153.68333411216736	
27	134.89892196655273	fix_post	2		12	25.0	2.5	/experiments/AOT/AOT_stimuli/rescaled_final/1035_rv.mp4	0.0	154.99933195114136	0.1003880500793457
28	134.99931001663208	fix_pre	0		120	26.0	2.5	/experiments/AOT/AOT_stimuli/rescaled_final/1604_fw.mp4	0.0	155.0997200012207	1.0000689029693604
28	135.18277311325073	pulse	0	t		26.0	2.5	/experiments/AOT/AOT_stimuli/rescaled_final/1604_fw.mp4	0.0	155.28318309783936	
28	135.99937891960144	movie	1		243	26.0	2.5	/experiments/AOT/AOT_stimuli/rescaled_final/1604_fw.mp4	0.0	156.09978890419006	2.4999489784240723
28	136.78287601470947	pulse	1	t		26.0	2.5	/experiments/AOT/AOT_stimuli/rescaled_final/1604_fw.mp4	0.0	156.8832859992981	
28	138.39118003845215	pulse	1	t		26.0	2.5	/experiments/AOT/AOT_stimuli/rescaled_final/1604_fw.mp4	0.0	158.49159002304077	
28	138.4993278980255	fix_post	2		12	26.0	2.5	/experiments/AOT/AOT_stimuli/rescaled_final/1604_fw.mp4	0.0	158.59973788261414	0.09995102882385254
29	138.59927892684937	fix_pre	0		120	27.0	2.5	blank	1.0	158.699688911438	1.0000560283660889
29	139.59933495521545	movie	1		300	27.0	2.5	blank	1.0	159.69974493980408	2.5000109672546387
29	139.98280906677246	pulse	1	t		27.0	2.5	blank	1.0	160.08321905136108	
29	141.5827579498291	pulse	1	t		27.0	2.5	blank	1.0	161.68316793441772	
29	142.0993459224701	fix_post	2		12	27.0	2.5	blank	1.0	162.19975590705872	0.10002398490905762
30	142.19936990737915	fix_pre	0		119	28.0	2.5	/experiments/AOT/AOT_stimuli/rescaled_final/1249_rv.mp4	0.0	162.29977989196777	0.9915452003479004
30	143.18278193473816	pulse	0	t		28.0	2.5	/experiments/AOT/AOT_stimuli/rescaled_final/1249_rv.mp4	0.0	163.28319191932678	
30	143.19091510772705	movie	1		248	28.0	2.5	/experiments/AOT/AOT_stimuli/rescaled_final/1249_rv.mp4	0.0	163.29132509231567	2.508405923843384
30	144.782653093338	pulse	1	t		28.0	2.5	/experiments/AOT/AOT_stimuli/rescaled_final/1249_rv.mp4	0.0	164.88306307792664	
30	145.69932103157043	fix_post	2		12	28.0	2.5	/experiments/AOT/AOT_stimuli/rescaled_final/1249_rv.mp4	0.0	165.79973101615906	0.09993290901184082
31	145.79925394058228	fix_pre	0		120	29.0	2.5	/experiments/AOT/AOT_stimuli/rescaled_final/0149_rv.mp4	0.0	165.8996639251709	0.9999420642852783
31	146.38269090652466	pulse	0	t		29.0	2.5	/experiments/AOT/AOT_stimuli/rescaled_final/0149_rv.mp4	0.0	166.48310089111328	
31	146.79919600486755	movie	1		245	29.0	2.5	/experiments/AOT/AOT_stimuli/rescaled_final/0149_rv.mp4	0.0	166.89960598945618	2.500162124633789
31	147.98275303840637	pulse	1	t		29.0	2.5	/experiments/AOT/AOT_stimuli/rescaled_final/0149_rv.mp4	0.0	168.083163022995	
31	149.29935812950134	fix_post	2		12	29.0	2.5	/experiments/AOT/AOT_stimuli/rescaled_final/0149_rv.mp4	0.0	169.39976811408997	0.09982085227966309
32	149.399178981781	fix_pre	0		120	30.0	2.5	/experiments/AOT/AOT_stimuli/rescaled_final/0901_fw.mp4	0.0	169.49958896636963	1.0001299381256104
32	149.5826690196991	pulse	0	t		30.0	2.5	/experiments/AOT/AOT_stimuli/rescaled_final/0901_fw.mp4	0.0	169.68307900428772	
32	150.39930891990662	movie	1		248	30.0	2.5	/experiments/AOT/AOT_stimuli/rescaled_final/0901_fw.mp4	0.0	170.49971890449524	2.4999961853027344
32	151.18273210525513	pulse	1	t		30.0	2.5	/experiments/AOT/AOT_stimuli/rescaled_final/0901_fw.mp4	0.0	171.28314208984375	
32	152.78280806541443	pulse	1	t		30.0	2.5	/experiments/AOT/AOT_stimuli/rescaled_final/0901_fw.mp4	0.0	172.88321805000305	
32	152.89930510520935	fix_post	2		12	30.0	2.5	/experiments/AOT/AOT_stimuli/rescaled_final/0901_fw.mp4	0.0	172.99971508979797	0.09998202323913574
33	152.9992871284485	fix_pre	0		120	31.0	2.5	/experiments/AOT/AOT_stimuli/rescaled_final/1372_fw.mp4	0.0	173.0996971130371	1.0000088214874268
33	153.9992959499359	movie	1		243	31.0	2.5	/experiments/AOT/AOT_stimuli/rescaled_final/1372_fw.mp4	0.0	174.09970593452454	2.4995529651641846
33	154.3823380470276	pulse	1	t		31.0	2.5	/experiments/AOT/AOT_stimuli/rescaled_final/1372_fw.mp4	0.0	174.4827480316162	
33	155.98273396492004	pulse	1	t		31.0	2.5	/experiments/AOT/AOT_stimuli/rescaled_final/1372_fw.mp4	0.0	176.08314394950867	
33	156.4988489151001	fix_post	2		12	31.0	2.5	/experiments/AOT/AOT_stimuli/rescaled_final/1372_fw.mp4	0.0	176.59925889968872	0.10030698776245117
34	156.59915590286255	fix_pre	0		119	32.0	2.5	/experiments/AOT/AOT_stimuli/rescaled_final/1917_fw.mp4	0.0	176.69956588745117	0.9917521476745605
34	157.5827329158783	pulse	0	t		32.0	2.5	/experiments/AOT/AOT_stimuli/rescaled_final/1917_fw.mp4	0.0	177.68314290046692	
34	157.5909080505371	movie	1		246	32.0	2.5	/experiments/AOT/AOT_stimuli/rescaled_final/1917_fw.mp4	0.0	177.69131803512573	2.508291006088257
34	159.18279504776	pulse	1	t		32.0	2.5	/experiments/AOT/AOT_stimuli/rescaled_final/1917_fw.mp4	0.0	179.28320503234863	
34	160.09919905662537	fix_post	2		12	32.0	2.5	/experiments/AOT/AOT_stimuli/rescaled_final/1917_fw.mp4	0.0	180.199609041214	0.09991788864135742
35	160.19911694526672	fix_pre	0		120	33.0	2.5	/experiments/AOT/AOT_stimuli/rescaled_final/0631_rv.mp4	0.0	180.29952692985535	1.0001990795135498
35	160.7826910018921	pulse	0	t		33.0	2.5	/experiments/AOT/AOT_stimuli/rescaled_final/0631_rv.mp4	0.0	180.8831009864807	
35	161.19931602478027	movie	1		244	33.0	2.5	/experiments/AOT/AOT_stimuli/rescaled_final/0631_rv.mp4	0.0	181.2997260093689	2.4998650550842285
35	162.3826289176941	pulse	1	t		33.0	2.5	/experiments/AOT/AOT_stimuli/rescaled_final/0631_rv.mp4	0.0	182.48303890228271	
35	163.6991810798645	fix_post	2		12	33.0	2.5	/experiments/AOT/AOT_stimuli/rescaled_final/0631_rv.mp4	0.0	183.79959106445312	0.09993600845336914
36	163.79911708831787	fix_pre	0		120	34.0	2.5	/experiments/AOT/AOT_stimuli/rescaled_final/0937_fw.mp4	0.0	183.8995270729065	1.0000569820404053
36	163.98288106918335	pulse	0	t		34.0	2.5	/experiments/AOT/AOT_stimuli/rescaled_final/0937_fw.mp4	0.0	184.08329105377197	
36	164.79917407035828	movie	1		243	34.0	2.5	/experiments/AOT/AOT_stimuli/rescaled_final/0937_fw.mp4	0.0	184.8995840549469	2.5000288486480713
36	165.58270502090454	pulse	1	t		34.0	2.5	/experiments/AOT/AOT_stimuli/rescaled_final/0937_fw.mp4	0.0	185.68311500549316	
36	167.1910319328308	pulse	1	t		34.0	2.5	/experiments/AOT/AOT_stimuli/rescaled_final/0937_fw.mp4	0.0	187.29144191741943	
36	167.29920291900635	fix_post	2		12	34.0	2.5	/experiments/AOT/AOT_stimuli/rescaled_final/0937_fw.mp4	0.0	187.39961290359497	0.09995698928833008
37	167.39915990829468	fix_pre	0		120	35.0	2.5	blank	1.0	187.4995698928833	1.000007152557373
37	168.39916706085205	movie	1		300	35.0	2.5	blank	1.0	188.49957704544067	2.5000529289245605
37	168.78261590003967	pulse	1	t		35.0	2.5	blank	1.0	188.8830258846283	
37	170.38257503509521	pulse	1	t		35.0	2.5	blank	1.0	190.48298501968384	
37	170.8992199897766	fix_post	2		12	35.0	2.5	blank	1.0	190.99962997436523	0.09950399398803711
38	170.99872398376465	fix_pre	0		119	36.0	2.5	/experiments/AOT/AOT_stimuli/rescaled_final/0816_fw.mp4	0.0	191.09913396835327	0.9920759201049805
38	171.9821879863739	pulse	0	t		36.0	2.5	/experiments/AOT/AOT_stimuli/rescaled_final/0816_fw.mp4	0.0	192.08259797096252	
38	171.99079990386963	movie	1		246	36.0	2.5	/experiments/AOT/AOT_stimuli/rescaled_final/0816_fw.mp4	0.0	192.09120988845825	2.5083060264587402
38	173.5819981098175	pulse	1	t		36.0	2.5	/experiments/AOT/AOT_stimuli/rescaled_final/0816_fw.mp4	0.0	193.68240809440613	
38	174.49910593032837	fix_post	2		12	36.0	2.5	/experiments/AOT/AOT_stimuli/rescaled_final/0816_fw.mp4	0.0	194.599515914917	0.0999150276184082
39	174.59902095794678	fix_pre	0		120	37.0	2.5	/experiments/AOT/AOT_stimuli/rescaled_final/1386_rv.mp4	0.0	194.6994309425354	1.0000941753387451
39	175.18268609046936	pulse	0	t		37.0	2.5	/experiments/AOT/AOT_stimuli/rescaled_final/1386_rv.mp4	0.0	195.28309607505798	
39	175.59911513328552	movie	1		244	37.0	2.5	/experiments/AOT/AOT_stimuli/rescaled_final/1386_rv.mp4	0.0	195.69952511787415	2.499957799911499
39	176.78262901306152	pulse	1	t		37.0	2.5	/experiments/AOT/AOT_stimuli/rescaled_final/1386_rv.mp4	0.0	196.88303899765015	
39	178.09907293319702	fix_post	2		12	37.0	2.5	/experiments/AOT/AOT_stimuli/rescaled_final/1386_rv.mp4	0.0	198.19948291778564	0.09999799728393555
40	178.19907093048096	fix_pre	0		120	38.0	2.5	/experiments/AOT/AOT_stimuli/rescaled_final/1124_fw.mp4	0.0	198.29948091506958	0.9999971389770508
40	178.382581949234	pulse	0	t		38.0	2.5	/experiments/AOT/AOT_stimuli/rescaled_final/1124_fw.mp4	0.0	198.48299193382263	
40	179.199068069458	movie	1		244	38.0	2.5	/experiments/AOT/AOT_stimuli/rescaled_final/1124_fw.mp4	0.0	199.29947805404663	2.5000948905944824
40	179.9824800491333	pulse	1	t		38.0	2.5	/experiments/AOT/AOT_stimuli/rescaled_final/1124_fw.mp4	0.0	200.08289003372192	
40	181.5825309753418	pulse	1	t		38.0	2.5	/experiments/AOT/AOT_stimuli/rescaled_final/1124_fw.mp4	0.0	201.68294095993042	
40	181.6991629600525	fix_post	2		12	38.0	2.5	/experiments/AOT/AOT_stimuli/rescaled_final/1124_fw.mp4	0.0	201.7995729446411	0.099884033203125
41	181.79904699325562	fix_pre	0		120	39.0	2.5	/experiments/AOT/AOT_stimuli/rescaled_final/1797_rv.mp4	0.0	201.89945697784424	1.0000700950622559
41	182.79911708831787	movie	1		244	39.0	2.5	/experiments/AOT/AOT_stimuli/rescaled_final/1797_rv.mp4	0.0	202.8995270729065	2.4998738765716553
41	183.182226896286	pulse	1	t		39.0	2.5	/experiments/AOT/AOT_stimuli/rescaled_final/1797_rv.mp4	0.0	203.28263688087463	
41	184.78247904777527	pulse	1	t		39.0	2.5	/experiments/AOT/AOT_stimuli/rescaled_final/1797_rv.mp4	0.0	204.8828890323639	
41	185.29899096488953	fix_post	2		12	39.0	2.5	/experiments/AOT/AOT_stimuli/rescaled_final/1797_rv.mp4	0.0	205.39940094947815	0.10008001327514648
42	185.39907097816467	fix_pre	0		119	40.0	2.5	/experiments/AOT/AOT_stimuli/rescaled_final/0515_rv.mp4	0.0	205.4994809627533	0.9915390014648438
42	186.38252305984497	pulse	0	t		40.0	2.5	/experiments/AOT/AOT_stimuli/rescaled_final/0515_rv.mp4	0.0	206.4829330444336	
42	186.39060997962952	movie	1		247	40.0	2.5	/experiments/AOT/AOT_stimuli/rescaled_final/0515_rv.mp4	0.0	206.49101996421814	2.5084340572357178
42	187.98242807388306	pulse	1	t		40.0	2.5	/experiments/AOT/AOT_stimuli/rescaled_final/0515_rv.mp4	0.0	208.08283805847168	
42	188.89904403686523	fix_post	2		12	40.0	2.5	/experiments/AOT/AOT_stimuli/rescaled_final/0515_rv.mp4	0.0	208.99945402145386	0.09997200965881348
43	188.99901604652405	fix_pre	0		120	41.0	2.5	/experiments/AOT/AOT_stimuli/rescaled_final/1271_fw.mp4	0.0	209.09942603111267	0.9999909400939941
43	189.58244800567627	pulse	0	t		41.0	2.5	/experiments/AOT/AOT_stimuli/rescaled_final/1271_fw.mp4	0.0	209.6828579902649	
43	189.99900698661804	movie	1		246	41.0	2.5	/experiments/AOT/AOT_stimuli/rescaled_final/1271_fw.mp4	0.0	210.09941697120667	2.4999661445617676
43	191.18257904052734	pulse	1	t		41.0	2.5	/experiments/AOT/AOT_stimuli/rescaled_final/1271_fw.mp4	0.0	211.28298902511597	
43	192.4989731311798	fix_post	2		12	41.0	2.5	/experiments/AOT/AOT_stimuli/rescaled_final/1271_fw.mp4	0.0	212.59938311576843	0.09997296333312988
44	192.59894609451294	fix_pre	0		120	42.0	2.5	blank	1.0	212.69935607910156	1.0001108646392822
44	192.78253698349	pulse	0	t		42.0	2.5	blank	1.0	212.8829469680786	
44	193.59905695915222	movie	1		300	42.0	2.5	blank	1.0	213.69946694374084	2.4999561309814453
44	194.38250994682312	pulse	1	t		42.0	2.5	blank	1.0	214.48291993141174	
44	195.9825611114502	pulse	1	t		42.0	2.5	blank	1.0	216.08297109603882	
44	196.09901309013367	fix_post	2		12	42.0	2.5	blank	1.0	216.1994230747223	0.10004281997680664
45	196.19905591011047	fix_pre	0		120	43.0	2.5	/experiments/AOT/AOT_stimuli/rescaled_final/1703_rv.mp4	0.0	216.2994658946991	0.999549150466919
45	197.1986050605774	movie	1		243	43.0	2.5	/experiments/AOT/AOT_stimuli/rescaled_final/1703_rv.mp4	0.0	217.29901504516602	2.5003039836883545
45	197.58208107948303	pulse	1	t		43.0	2.5	/experiments/AOT/AOT_stimuli/rescaled_final/1703_rv.mp4	0.0	217.68249106407166	
45	199.18244409561157	pulse	1	t		43.0	2.5	/experiments/AOT/AOT_stimuli/rescaled_final/1703_rv.mp4	0.0	219.2828540802002	
45	199.69890904426575	fix_post	2		12	43.0	2.5	/experiments/AOT/AOT_stimuli/rescaled_final/1703_rv.mp4	0.0	219.79931902885437	0.10010099411010742
46	199.79901003837585	fix_pre	0		119	44.0	2.5	/experiments/AOT/AOT_stimuli/rescaled_final/1117_rv.mp4	0.0	219.89942002296448	0.9916648864746094
46	200.78246212005615	pulse	0	t		44.0	2.5	/experiments/AOT/AOT_stimuli/rescaled_final/1117_rv.mp4	0.0	220.88287210464478	
46	200.79067492485046	movie	1		244	44.0	2.5	/experiments/AOT/AOT_stimuli/rescaled_final/1117_rv.mp4	0.0	220.8910849094391	2.508301019668579
46	202.38224601745605	pulse	1	t		44.0	2.5	/experiments/AOT/AOT_stimuli/rescaled_final/1117_rv.mp4	0.0	222.48265600204468	
46	203.29897594451904	fix_post	2		12	44.0	2.5	/experiments/AOT/AOT_stimuli/rescaled_final/1117_rv.mp4	0.0	223.39938592910767	0.0999441146850586
47	203.3989200592041	fix_pre	0		120	45.0	2.5	/experiments/AOT/AOT_stimuli/rescaled_final/1169_rv.mp4	0.0	223.49933004379272	1.000020980834961
47	203.98240208625793	pulse	0	t		45.0	2.5	/experiments/AOT/AOT_stimuli/rescaled_final/1169_rv.mp4	0.0	224.08281207084656	
47	204.39894104003906	movie	1		244	45.0	2.5	/experiments/AOT/AOT_stimuli/rescaled_final/1169_rv.mp4	0.0	224.49935102462769	2.5000009536743164
47	205.58255910873413	pulse	1	t		45.0	2.5	/experiments/AOT/AOT_stimuli/rescaled_final/1169_rv.mp4	0.0	225.68296909332275	
47	206.89894199371338	fix_post	2		12	45.0	2.5	/experiments/AOT/AOT_stimuli/rescaled_final/1169_rv.mp4	0.0	226.999351978302	0.100006103515625
48	206.998948097229	fix_pre	0		120	46.0	2.5	/experiments/AOT/AOT_stimuli/rescaled_final/1703_rv.mp4	0.0	227.09935808181763	0.9999268054962158
48	207.1824450492859	pulse	0	t		46.0	2.5	/experiments/AOT/AOT_stimuli/rescaled_final/1703_rv.mp4	0.0	227.2828550338745	
48	207.99887490272522	movie	1		245	46.0	2.5	/experiments/AOT/AOT_stimuli/rescaled_final/1703_rv.mp4	0.0	228.09928488731384	2.500073194503784
48	208.78243708610535	pulse	1	t		46.0	2.5	/experiments/AOT/AOT_stimuli/rescaled_final/1703_rv.mp4	0.0	228.88284707069397	
48	210.38233399391174	pulse	1	t		46.0	2.5	/experiments/AOT/AOT_stimuli/rescaled_final/1703_rv.mp4	0.0	230.48274397850037	
48	210.498948097229	fix_post	2		12	46.0	2.5	/experiments/AOT/AOT_stimuli/rescaled_final/1703_rv.mp4	0.0	230.59935808181763	0.09998583793640137
49	210.5989339351654	fix_pre	0		120	47.0	2.5	blank	1.0	230.69934391975403	0.9999911785125732
49	211.59892511367798	movie	1		300	47.0	2.5	blank	1.0	231.6993350982666	2.499955892562866
49	211.98238396644592	pulse	1	t		47.0	2.5	blank	1.0	232.08279395103455	
49	213.58245491981506	pulse	1	t		47.0	2.5	blank	1.0	233.6828649044037	
49	214.09888100624084	fix_post	2		12	47.0	2.5	blank	1.0	234.19929099082947	0.09958910942077637
50	214.19847011566162	fix_pre	0		119	48.0	2.5	/experiments/AOT/AOT_stimuli/rescaled_final/1183_rv.mp4	0.0	234.29888010025024	0.9921269416809082
50	215.1824541091919	pulse	0	t		48.0	2.5	/experiments/AOT/AOT_stimuli/rescaled_final/1183_rv.mp4	0.0	235.28286409378052	
50	215.19059705734253	movie	1		246	48.0	2.5	/experiments/AOT/AOT_stimuli/rescaled_final/1183_rv.mp4	0.0	235.29100704193115	2.5083189010620117
50	216.78203201293945	pulse	1	t		48.0	2.5	/experiments/AOT/AOT_stimuli/rescaled_final/1183_rv.mp4	0.0	236.88244199752808	
50	217.69891595840454	fix_post	2		12	48.0	2.5	/experiments/AOT/AOT_stimuli/rescaled_final/1183_rv.mp4	0.0	237.79932594299316	0.10002493858337402
51	217.79894089698792	fix_pre	0		120	49.0	2.5	/experiments/AOT/AOT_stimuli/rescaled_final/1014_rv.mp4	0.0	237.89935088157654	1.0000131130218506
51	218.38229608535767	pulse	0	t		49.0	2.5	/experiments/AOT/AOT_stimuli/rescaled_final/1014_rv.mp4	0.0	238.4827060699463	
51	218.79895401000977	movie	1		243	49.0	2.5	/experiments/AOT/AOT_stimuli/rescaled_final/1014_rv.mp4	0.0	238.8993639945984	2.4995529651641846
51	219.982430934906	pulse	1	t		49.0	2.5	/experiments/AOT/AOT_stimuli/rescaled_final/1014_rv.mp4	0.0	240.08284091949463	
51	221.29850697517395	fix_post	2		12	49.0	2.5	/experiments/AOT/AOT_stimuli/rescaled_final/1014_rv.mp4	0.0	241.39891695976257	0.10030508041381836
52	221.39881205558777	fix_pre	0		120	50.0	2.5	/experiments/AOT/AOT_stimuli/rescaled_final/1356_fw.mp4	0.0	241.4992220401764	1.0001709461212158
52	221.5823369026184	pulse	0	t		50.0	2.5	/experiments/AOT/AOT_stimuli/rescaled_final/1356_fw.mp4	0.0	241.68274688720703	
52	222.39898300170898	movie	1		243	50.0	2.5	/experiments/AOT/AOT_stimuli/rescaled_final/1356_fw.mp4	0.0	242.4993929862976	2.499814987182617
52	223.18236899375916	pulse	1	t		50.0	2.5	/experiments/AOT/AOT_stimuli/rescaled_final/1356_fw.mp4	0.0	243.28277897834778	
52	224.79080295562744	pulse	1	t		50.0	2.5	/experiments/AOT/AOT_stimuli/rescaled_final/1356_fw.mp4	0.0	244.89121294021606	
52	224.8987979888916	fix_post	2		12	50.0	2.5	/experiments/AOT/AOT_stimuli/rescaled_final/1356_fw.mp4	0.0	244.99920797348022	0.10009407997131348
53	224.99889206886292	fix_pre	0		120	51.0	2.5	/experiments/AOT/AOT_stimuli/rescaled_final/1917_fw.mp4	0.0	245.09930205345154	1.0001349449157715
53	225.9990270137787	movie	1		246	51.0	2.5	/experiments/AOT/AOT_stimuli/rescaled_final/1917_fw.mp4	0.0	246.0994369983673	2.4995229244232178
53	226.38214206695557	pulse	1	t		51.0	2.5	/experiments/AOT/AOT_stimuli/rescaled_final/1917_fw.mp4	0.0	246.4825520515442	
53	227.98185110092163	pulse	1	t		51.0	2.5	/experiments/AOT/AOT_stimuli/rescaled_final/1917_fw.mp4	0.0	248.08226108551025	
53	228.4985499382019	fix_post	2		12	51.0	2.5	/experiments/AOT/AOT_stimuli/rescaled_final/1917_fw.mp4	0.0	248.59895992279053	0.10003304481506348
54	228.59858298301697	fix_pre	0		119	52.0	2.5	/experiments/AOT/AOT_stimuli/rescaled_final/0357_rv.mp4	0.0	248.6989929676056	0.9922010898590088
54	229.5826210975647	pulse	0	t		52.0	2.5	/experiments/AOT/AOT_stimuli/rescaled_final/0357_rv.mp4	0.0	249.68303108215332	
54	229.59078407287598	movie	1		248	52.0	2.5	/experiments/AOT/AOT_stimuli/rescaled_final/0357_rv.mp4	0.0	249.6911940574646	2.5081770420074463
54	231.1821539402008	pulse	1	t		52.0	2.5	/experiments/AOT/AOT_stimuli/rescaled_final/0357_rv.mp4	0.0	251.28256392478943	
54	232.09896111488342	fix_post	2		12	52.0	2.5	/experiments/AOT/AOT_stimuli/rescaled_final/0357_rv.mp4	0.0	252.19937109947205	0.0999147891998291
55	232.19887590408325	fix_pre	0		120	53.0	2.5	/experiments/AOT/AOT_stimuli/rescaled_final/0326_rv.mp4	0.0	252.29928588867188	0.9995729923248291
55	232.78231000900269	pulse	0	t		53.0	2.5	/experiments/AOT/AOT_stimuli/rescaled_final/0326_rv.mp4	0.0	252.8827199935913	
55	233.19844889640808	movie	1		247	53.0	2.5	/experiments/AOT/AOT_stimuli/rescaled_final/0326_rv.mp4	0.0	253.2988588809967	2.500347137451172
55	234.3824019432068	pulse	1	t		53.0	2.5	/experiments/AOT/AOT_stimuli/rescaled_final/0326_rv.mp4	0.0	254.4828119277954	
55	235.69879603385925	fix_post	2		12	53.0	2.5	/experiments/AOT/AOT_stimuli/rescaled_final/0326_rv.mp4	0.0	255.79920601844788	0.10002994537353516
56	235.7988259792328	fix_pre	0		120	54.0	2.5	blank	1.0	255.8992359638214	0.9999589920043945
56	235.98227190971375	pulse	0	t		54.0	2.5	blank	1.0	256.08268189430237	
56	236.79878497123718	movie	1		300	54.0	2.5	blank	1.0	256.8991949558258	2.4999749660491943
56	237.58225107192993	pulse	1	t		54.0	2.5	blank	1.0	257.68266105651855	
56	239.1822531223297	pulse	1	t		54.0	2.5	blank	1.0	259.28266310691833	
56	239.29875993728638	fix_post	2		12	54.0	2.5	blank	1.0	259.399169921875	0.09996914863586426
57	239.39872908592224	fix_pre	0		120	55.0	2.5	/experiments/AOT/AOT_stimuli/rescaled_final/2095_fw.mp4	0.0	259.49913907051086	1.000018835067749
57	240.39874792099	movie	1		244	55.0	2.5	/experiments/AOT/AOT_stimuli/rescaled_final/2095_fw.mp4	0.0	260.4991579055786	2.5000791549682617
57	240.78185105323792	pulse	1	t		55.0	2.5	/experiments/AOT/AOT_stimuli/rescaled_final/2095_fw.mp4	0.0	260.88226103782654	
57	242.38221096992493	pulse	1	t		55.0	2.5	/experiments/AOT/AOT_stimuli/rescaled_final/2095_fw.mp4	0.0	262.48262095451355	
57	242.89882707595825	fix_post	2		12	55.0	2.5	/experiments/AOT/AOT_stimuli/rescaled_final/2095_fw.mp4	0.0	262.9992370605469	0.09987092018127441
58	242.99869799613953	fix_pre	0		119	56.0	2.5	/experiments/AOT/AOT_stimuli/rescaled_final/2002_fw.mp4	0.0	263.09910798072815	0.9917299747467041
58	243.98224997520447	pulse	0	t		56.0	2.5	/experiments/AOT/AOT_stimuli/rescaled_final/2002_fw.mp4	0.0	264.0826599597931	
58	243.99042797088623	movie	1		245	56.0	2.5	/experiments/AOT/AOT_stimuli/rescaled_final/2002_fw.mp4	0.0	264.09083795547485	2.5079400539398193
58	245.58196306228638	pulse	1	t		56.0	2.5	/experiments/AOT/AOT_stimuli/rescaled_final/2002_fw.mp4	0.0	265.682373046875	
58	246.49836802482605	fix_post	2		12	56.0	2.5	/experiments/AOT/AOT_stimuli/rescaled_final/2002_fw.mp4	0.0	266.5987780094147	0.10036492347717285
59	246.59873294830322	fix_pre	0		120	57.0	2.5	/experiments/AOT/AOT_stimuli/rescaled_final/1135_rv.mp4	0.0	266.69914293289185	0.9999771118164062
59	247.1822109222412	pulse	0	t		57.0	2.5	/experiments/AOT/AOT_stimuli/rescaled_final/1135_rv.mp4	0.0	267.28262090682983	
59	247.59871006011963	movie	1		244	57.0	2.5	/experiments/AOT/AOT_stimuli/rescaled_final/1135_rv.mp4	0.0	267.69912004470825	2.5001718997955322
59	248.78235912322998	pulse	1	t		57.0	2.5	/experiments/AOT/AOT_stimuli/rescaled_final/1135_rv.mp4	0.0	268.8827691078186	
59	250.09888195991516	fix_post	2		12	57.0	2.5	/experiments/AOT/AOT_stimuli/rescaled_final/1135_rv.mp4	0.0	270.1992919445038	0.0998539924621582
60	250.19873595237732	fix_pre	0		120	58.0	2.5	/experiments/AOT/AOT_stimuli/rescaled_final/0149_fw.mp4	0.0	270.29914593696594	1.0000481605529785
60	250.3822329044342	pulse	0	t		58.0	2.5	/experiments/AOT/AOT_stimuli/rescaled_final/0149_fw.mp4	0.0	270.4826428890228	
60	251.1987841129303	movie	1		246	58.0	2.5	/experiments/AOT/AOT_stimuli/rescaled_final/0149_fw.mp4	0.0	271.2991940975189	2.499835968017578
60	251.98224210739136	pulse	1	t		58.0	2.5	/experiments/AOT/AOT_stimuli/rescaled_final/0149_fw.mp4	0.0	272.08265209198	
60	253.59058904647827	pulse	1	t		58.0	2.5	/experiments/AOT/AOT_stimuli/rescaled_final/0149_fw.mp4	0.0	273.6909990310669	
60	253.69862008094788	fix_post	2		12	58.0	2.5	/experiments/AOT/AOT_stimuli/rescaled_final/0149_fw.mp4	0.0	273.7990300655365	0.1000528335571289
61	253.798672914505	fix_pre	0		120	59.0	2.5	/experiments/AOT/AOT_stimuli/rescaled_final/0881_rv.mp4	0.0	273.8990828990936	0.9999520778656006
61	254.7986249923706	movie	1		246	59.0	2.5	/experiments/AOT/AOT_stimuli/rescaled_final/0881_rv.mp4	0.0	274.89903497695923	2.500138998031616
61	255.1823399066925	pulse	1	t		59.0	2.5	/experiments/AOT/AOT_stimuli/rescaled_final/0881_rv.mp4	0.0	275.2827498912811	
61	256.78212809562683	pulse	1	t		59.0	2.5	/experiments/AOT/AOT_stimuli/rescaled_final/0881_rv.mp4	0.0	276.88253808021545	
61	257.2987639904022	fix_post	2		12	59.0	2.5	/experiments/AOT/AOT_stimuli/rescaled_final/0881_rv.mp4	0.0	277.39917397499084	0.09991002082824707
62	257.39867401123047	fix_pre	0		119	60.0	2.5	/experiments/AOT/AOT_stimuli/rescaled_final/0649_fw.mp4	0.0	277.4990839958191	0.9917030334472656
62	258.3821909427643	pulse	0	t		60.0	2.5	/experiments/AOT/AOT_stimuli/rescaled_final/0649_fw.mp4	0.0	278.4826009273529	
62	258.39037704467773	movie	1		247	60.0	2.5	/experiments/AOT/AOT_stimuli/rescaled_final/0649_fw.mp4	0.0	278.49078702926636	2.5079150199890137
62	259.98172092437744	pulse	1	t		60.0	2.5	/experiments/AOT/AOT_stimuli/rescaled_final/0649_fw.mp4	0.0	280.08213090896606	
62	260.89829206466675	fix_post	2		12	60.0	2.5	/experiments/AOT/AOT_stimuli/rescaled_final/0649_fw.mp4	0.0	280.99870204925537	0.10039687156677246
63	260.9986889362335	fix_pre	0		120	61.0	2.5	blank	1.0	281.09909892082214	1.000035047531128
63	261.5821409225464	pulse	0	t		61.0	2.5	blank	1.0	281.682550907135	
63	261.99872398376465	movie	1		300	61.0	2.5	blank	1.0	282.09913396835327	2.5000009536743164
63	263.18221402168274	pulse	1	t		61.0	2.5	blank	1.0	283.28262400627136	
63	264.49872493743896	fix_post	2		12	61.0	2.5	blank	1.0	284.5991349220276	0.10005497932434082
64	264.5987799167633	fix_pre	0		120	62.0	2.5	/experiments/AOT/AOT_stimuli/rescaled_final/1660_rv.mp4	0.0	284.69918990135193	0.9999489784240723
64	264.7822480201721	pulse	0	t		62.0	2.5	/experiments/AOT/AOT_stimuli/rescaled_final/1660_rv.mp4	0.0	284.88265800476074	
64	265.5987288951874	movie	1		244	62.0	2.5	/experiments/AOT/AOT_stimuli/rescaled_final/1660_rv.mp4	0.0	285.699138879776	2.49997615814209
64	266.38209104537964	pulse	1	t		62.0	2.5	/experiments/AOT/AOT_stimuli/rescaled_final/1660_rv.mp4	0.0	286.48250102996826	
64	267.9822099208832	pulse	1	t		62.0	2.5	/experiments/AOT/AOT_stimuli/rescaled_final/1660_rv.mp4	0.0	288.0826199054718	
64	268.09870505332947	fix_post	2		12	62.0	2.5	/experiments/AOT/AOT_stimuli/rescaled_final/1660_rv.mp4	0.0	288.1991150379181	0.09990501403808594
65	268.19861006736755	fix_pre	0		120	63.0	2.5	/experiments/AOT/AOT_stimuli/rescaled_final/0372_rv.mp4	0.0	288.2990200519562	1.0000898838043213
65	269.1986999511719	movie	1		245	63.0	2.5	/experiments/AOT/AOT_stimuli/rescaled_final/0372_rv.mp4	0.0	289.2991099357605	2.4998881816864014
65	269.58208894729614	pulse	1	t		63.0	2.5	/experiments/AOT/AOT_stimuli/rescaled_final/0372_rv.mp4	0.0	289.68249893188477	
65	271.1821129322052	pulse	1	t		63.0	2.5	/experiments/AOT/AOT_stimuli/rescaled_final/0372_rv.mp4	0.0	291.2825229167938	
65	271.6985881328583	fix_post	2		12	63.0	2.5	/experiments/AOT/AOT_stimuli/rescaled_final/0372_rv.mp4	0.0	291.7989981174469	0.10008978843688965
66	271.79867792129517	fix_pre	0		119	64.0	2.5	/experiments/AOT/AOT_stimuli/rescaled_final/0934_fw.mp4	0.0	291.8990879058838	0.9915862083435059
66	272.7821190357208	pulse	0	t		64.0	2.5	/experiments/AOT/AOT_stimuli/rescaled_final/0934_fw.mp4	0.0	292.88252902030945	
66	272.7902641296387	movie	1		244	64.0	2.5	/experiments/AOT/AOT_stimuli/rescaled_final/0934_fw.mp4	0.0	292.8906741142273	2.5083799362182617
66	274.38227105140686	pulse	1	t		64.0	2.5	/experiments/AOT/AOT_stimuli/rescaled_final/0934_fw.mp4	0.0	294.4826810359955	
66	275.29864406585693	fix_post	2		12	64.0	2.5	/experiments/AOT/AOT_stimuli/rescaled_final/0934_fw.mp4	0.0	295.39905405044556	0.09996700286865234
67	275.3986110687256	fix_pre	0		120	65.0	2.5	/experiments/AOT/AOT_stimuli/rescaled_final/0170_rv.mp4	0.0	295.4990210533142	1.0000450611114502
67	275.9820599555969	pulse	0	t		65.0	2.5	/experiments/AOT/AOT_stimuli/rescaled_final/0170_rv.mp4	0.0	296.08246994018555	
67	276.39865612983704	movie	1		243	65.0	2.5	/experiments/AOT/AOT_stimuli/rescaled_final/0170_rv.mp4	0.0	296.49906611442566	2.4999189376831055
67	277.58213210105896	pulse	1	t		65.0	2.5	/experiments/AOT/AOT_stimuli/rescaled_final/0170_rv.mp4	0.0	297.6825420856476	
67	278.89857506752014	fix_post	2		12	65.0	2.5	/experiments/AOT/AOT_stimuli/rescaled_final/0170_rv.mp4	0.0	298.99898505210876	0.1000070571899414
68	278.9985821247101	fix_pre	0		120	66.0	2.5	/experiments/AOT/AOT_stimuli/rescaled_final/1856_fw.mp4	0.0	299.0989921092987	0.999614953994751
68	279.18206000328064	pulse	0	t		66.0	2.5	/experiments/AOT/AOT_stimuli/rescaled_final/1856_fw.mp4	0.0	299.28246998786926	
68	279.99819707870483	movie	1		243	66.0	2.5	/experiments/AOT/AOT_stimuli/rescaled_final/1856_fw.mp4	0.0	300.09860706329346	2.4999728202819824
68	280.7821319103241	pulse	1	t		66.0	2.5	/experiments/AOT/AOT_stimuli/rescaled_final/1856_fw.mp4	0.0	300.8825418949127	
68	282.3905680179596	pulse	1	t		66.0	2.5	/experiments/AOT/AOT_stimuli/rescaled_final/1856_fw.mp4	0.0	302.4909780025482	
68	282.4981698989868	fix_post	2		12	66.0	2.5	/experiments/AOT/AOT_stimuli/rescaled_final/1856_fw.mp4	0.0	302.59857988357544	0.10041117668151855
69	282.59858107566833	fix_pre	0		120	67.0	2.5	/experiments/AOT/AOT_stimuli/rescaled_final/0820_fw.mp4	0.0	302.69899106025696	0.9996018409729004
69	283.59818291664124	movie	1		243	67.0	2.5	/experiments/AOT/AOT_stimuli/rescaled_final/0820_fw.mp4	0.0	303.69859290122986	2.500291109085083
69	283.99053502082825	pulse	1	t		67.0	2.5	/experiments/AOT/AOT_stimuli/rescaled_final/0820_fw.mp4	0.0	304.09094500541687	
69	285.58230090141296	pulse	1	t		67.0	2.5	/experiments/AOT/AOT_stimuli/rescaled_final/0820_fw.mp4	0.0	305.6827108860016	
69	286.0984740257263	fix_post	2		12	67.0	2.5	/experiments/AOT/AOT_stimuli/rescaled_final/0820_fw.mp4	0.0	306.19888401031494	0.10003495216369629
70	286.19850897789	fix_pre	0		119	68.0	2.5	/experiments/AOT/AOT_stimuli/rescaled_final/1753_rv.mp4	0.0	306.29891896247864	0.9917480945587158
70	287.1821060180664	pulse	0	t		68.0	2.5	/experiments/AOT/AOT_stimuli/rescaled_final/1753_rv.mp4	0.0	307.28251600265503	
70	287.19025707244873	movie	1		245	68.0	2.5	/experiments/AOT/AOT_stimuli/rescaled_final/1753_rv.mp4	0.0	307.29066705703735	2.508267879486084
70	288.783282995224	pulse	1	t		68.0	2.5	/experiments/AOT/AOT_stimuli/rescaled_final/1753_rv.mp4	0.0	308.8836929798126	
70	289.6985249519348	fix_post	2		12	68.0	2.5	/experiments/AOT/AOT_stimuli/rescaled_final/1753_rv.mp4	0.0	309.79893493652344	0.0999751091003418
71	289.79850006103516	fix_pre	0		120	69.0	2.5	blank	1.0	309.8989100456238	1.0001049041748047
71	290.38208198547363	pulse	0	t		69.0	2.5	blank	1.0	310.48249197006226	
71	290.79860496520996	movie	1		300	69.0	2.5	blank	1.0	310.8990149497986	2.499894142150879
71	291.98188304901123	pulse	1	t		69.0	2.5	blank	1.0	312.08229303359985	
71	293.29849910736084	fix_post	2		12	69.0	2.5	blank	1.0	313.39890909194946	0.1000068187713623
72	293.3985059261322	fix_pre	0		120	70.0	2.5	/experiments/AOT/AOT_stimuli/rescaled_final/1111_rv.mp4	0.0	313.4989159107208	0.9999961853027344
72	293.5819890499115	pulse	0	t		70.0	2.5	/experiments/AOT/AOT_stimuli/rescaled_final/1111_rv.mp4	0.0	313.6823990345001	
72	294.39850211143494	movie	1		245	70.0	2.5	/experiments/AOT/AOT_stimuli/rescaled_final/1111_rv.mp4	0.0	314.49891209602356	2.4999468326568604
72	295.18192505836487	pulse	1	t		70.0	2.5	/experiments/AOT/AOT_stimuli/rescaled_final/1111_rv.mp4	0.0	315.2823350429535	
72	296.78192591667175	pulse	1	t		70.0	2.5	/experiments/AOT/AOT_stimuli/rescaled_final/1111_rv.mp4	0.0	316.8823359012604	
72	296.8984489440918	fix_post	2		12	70.0	2.5	/experiments/AOT/AOT_stimuli/rescaled_final/1111_rv.mp4	0.0	316.9988589286804	0.09996795654296875
73	296.99841690063477	fix_pre	0		120	71.0	2.5	/experiments/AOT/AOT_stimuli/rescaled_final/0344_rv.mp4	0.0	317.0988268852234	1.0000650882720947
73	297.99848198890686	movie	1		246	71.0	2.5	/experiments/AOT/AOT_stimuli/rescaled_final/0344_rv.mp4	0.0	318.0988919734955	2.4999871253967285
73	298.38222312927246	pulse	1	t		71.0	2.5	/experiments/AOT/AOT_stimuli/rescaled_final/0344_rv.mp4	0.0	318.4826331138611	
73	299.9819951057434	pulse	1	t		71.0	2.5	/experiments/AOT/AOT_stimuli/rescaled_final/0344_rv.mp4	0.0	320.08240509033203	
73	300.4984691143036	fix_post	2		12	71.0	2.5	/experiments/AOT/AOT_stimuli/rescaled_final/0344_rv.mp4	0.0	320.5988790988922	0.09998297691345215
74	300.59845209121704	fix_pre	0		119	72.0	2.5	/experiments/AOT/AOT_stimuli/rescaled_final/1129_rv.mp4	0.0	320.69886207580566	0.991649866104126
74	301.5820209980011	pulse	0	t		72.0	2.5	/experiments/AOT/AOT_stimuli/rescaled_final/1129_rv.mp4	0.0	321.6824309825897	
74	301.59010195732117	movie	1		246	72.0	2.5	/experiments/AOT/AOT_stimuli/rescaled_final/1129_rv.mp4	0.0	321.6905119419098	2.5083000659942627
74	303.18287801742554	pulse	1	t		72.0	2.5	/experiments/AOT/AOT_stimuli/rescaled_final/1129_rv.mp4	0.0	323.28328800201416	
74	304.09840202331543	fix_post	2		12	72.0	2.5	/experiments/AOT/AOT_stimuli/rescaled_final/1129_rv.mp4	0.0	324.19881200790405	0.10002589225769043
75	304.1984279155731	fix_pre	0		120	73.0	2.5	/experiments/AOT/AOT_stimuli/rescaled_final/0029_rv.mp4	0.0	324.29883790016174	1.0000641345977783
75	304.7819631099701	pulse	0	t		73.0	2.5	/experiments/AOT/AOT_stimuli/rescaled_final/0029_rv.mp4	0.0	324.8823730945587	
75	305.1984920501709	movie	1		246	73.0	2.5	/experiments/AOT/AOT_stimuli/rescaled_final/0029_rv.mp4	0.0	325.2989020347595	2.499464988708496
75	306.38204193115234	pulse	1	t		73.0	2.5	/experiments/AOT/AOT_stimuli/rescaled_final/0029_rv.mp4	0.0	326.48245191574097	
75	307.6979570388794	fix_post	2		12	73.0	2.5	/experiments/AOT/AOT_stimuli/rescaled_final/0029_rv.mp4	0.0	327.798367023468	0.10051298141479492
76	307.7984700202942	fix_pre	0		120	74.0	2.5	/experiments/AOT/AOT_stimuli/rescaled_final/0631_rv.mp4	0.0	327.8988800048828	0.9999899864196777
76	307.98192501068115	pulse	0	t		74.0	2.5	/experiments/AOT/AOT_stimuli/rescaled_final/0631_rv.mp4	0.0	328.0823349952698	
76	308.79846000671387	movie	1		246	74.0	2.5	/experiments/AOT/AOT_stimuli/rescaled_final/0631_rv.mp4	0.0	328.8988699913025	2.4999399185180664
76	309.5819420814514	pulse	1	t		74.0	2.5	/experiments/AOT/AOT_stimuli/rescaled_final/0631_rv.mp4	0.0	329.68235206604004	
76	311.18187403678894	pulse	1	t		74.0	2.5	/experiments/AOT/AOT_stimuli/rescaled_final/0631_rv.mp4	0.0	331.28228402137756	
76	311.29839992523193	fix_post	2		12	74.0	2.5	/experiments/AOT/AOT_stimuli/rescaled_final/0631_rv.mp4	0.0	331.39880990982056	0.10000109672546387
77	311.3984010219574	fix_pre	0		120	75.0	2.5	blank	1.0	331.498811006546	0.9999749660491943
77	312.3983759880066	movie	1		300	75.0	2.5	blank	1.0	332.4987859725952	2.5000569820404053
77	312.78190302848816	pulse	1	t		75.0	2.5	blank	1.0	332.8823130130768	
77	314.3818418979645	pulse	1	t		75.0	2.5	blank	1.0	334.4822518825531	
77	314.898432970047	fix_post	2		12	75.0	2.5	blank	1.0	334.9988429546356	0.09985613822937012
78	314.99828910827637	fix_pre	0		119	76.0	2.5	/experiments/AOT/AOT_stimuli/rescaled_final/0649_rv.mp4	0.0	335.098699092865	0.9918010234832764
78	315.9819359779358	pulse	0	t		76.0	2.5	/experiments/AOT/AOT_stimuli/rescaled_final/0649_rv.mp4	0.0	336.0823459625244	
78	315.99009013175964	movie	1		248	76.0	2.5	/experiments/AOT/AOT_stimuli/rescaled_final/0649_rv.mp4	0.0	336.09050011634827	2.5084009170532227
78	317.59025406837463	pulse	1	t		76.0	2.5	/experiments/AOT/AOT_stimuli/rescaled_final/0649_rv.mp4	0.0	337.69066405296326	
78	318.49849104881287	fix_post	2		12	76.0	2.5	/experiments/AOT/AOT_stimuli/rescaled_final/0649_rv.mp4	0.0	338.5989010334015	0.09991788864135742
79	318.5984089374542	fix_pre	0		120	77.0	2.5	/experiments/AOT/AOT_stimuli/rescaled_final/1925_fw.mp4	0.0	338.69881892204285	0.9995231628417969
79	319.181832075119	pulse	0	t		77.0	2.5	/experiments/AOT/AOT_stimuli/rescaled_final/1925_fw.mp4	0.0	339.28224205970764	
79	319.597932100296	movie	1		245	77.0	2.5	/experiments/AOT/AOT_stimuli/rescaled_final/1925_fw.mp4	0.0	339.69834208488464	2.5004758834838867
79	320.7818739414215	pulse	1	t		77.0	2.5	/experiments/AOT/AOT_stimuli/rescaled_final/1925_fw.mp4	0.0	340.88228392601013	
79	322.0984079837799	fix_post	2		12	77.0	2.5	/experiments/AOT/AOT_stimuli/rescaled_final/1925_fw.mp4	0.0	342.19881796836853	0.0999600887298584
80	322.19836807250977	fix_pre	0		120	78.0	2.5	/experiments/AOT/AOT_stimuli/rescaled_final/1145_rv.mp4	0.0	342.2987780570984	0.9999828338623047
80	322.38200306892395	pulse	0	t		78.0	2.5	/experiments/AOT/AOT_stimuli/rescaled_final/1145_rv.mp4	0.0	342.4824130535126	
80	323.19835090637207	movie	1		246	78.0	2.5	/experiments/AOT/AOT_stimuli/rescaled_final/1145_rv.mp4	0.0	343.2987608909607	2.4995510578155518
80	323.9817509651184	pulse	1	t		78.0	2.5	/experiments/AOT/AOT_stimuli/rescaled_final/1145_rv.mp4	0.0	344.08216094970703	
80	325.5818679332733	pulse	1	t		78.0	2.5	/experiments/AOT/AOT_stimuli/rescaled_final/1145_rv.mp4	0.0	345.68227791786194	
80	325.6979019641876	fix_post	2		12	78.0	2.5	/experiments/AOT/AOT_stimuli/rescaled_final/1145_rv.mp4	0.0	345.79831194877625	0.10042095184326172
81	325.7983229160309	fix_pre	0		120	79.0	2.5	/experiments/AOT/AOT_stimuli/rescaled_final/1415_rv.mp4	0.0	345.8987329006195	0.9997060298919678
81	326.79802894592285	movie	1		244	79.0	2.5	/experiments/AOT/AOT_stimuli/rescaled_final/1415_rv.mp4	0.0	346.8984389305115	2.499803066253662
81	327.19029903411865	pulse	1	t		79.0	2.5	/experiments/AOT/AOT_stimuli/rescaled_final/1415_rv.mp4	0.0	347.2907090187073	
81	328.7818169593811	pulse	1	t		79.0	2.5	/experiments/AOT/AOT_stimuli/rescaled_final/1415_rv.mp4	0.0	348.8822269439697	
81	329.2978320121765	fix_post	2		12	79.0	2.5	/experiments/AOT/AOT_stimuli/rescaled_final/1415_rv.mp4	0.0	349.39824199676514	0.10045289993286133
82	329.3982849121094	fix_pre	0		119	80.0	2.5	/experiments/AOT/AOT_stimuli/rescaled_final/1955_fw.mp4	0.0	349.498694896698	0.9916541576385498
82	330.3818140029907	pulse	0	t		80.0	2.5	/experiments/AOT/AOT_stimuli/rescaled_final/1955_fw.mp4	0.0	350.48222398757935	
82	330.3899390697479	movie	1		245	80.0	2.5	/experiments/AOT/AOT_stimuli/rescaled_final/1955_fw.mp4	0.0	350.49034905433655	2.5083558559417725
82	331.98164200782776	pulse	1	t		80.0	2.5	/experiments/AOT/AOT_stimuli/rescaled_final/1955_fw.mp4	0.0	352.0820519924164	
82	332.8982949256897	fix_post	2		12	80.0	2.5	/experiments/AOT/AOT_stimuli/rescaled_final/1955_fw.mp4	0.0	352.9987049102783	0.10013604164123535
83	332.99843096733093	fix_pre	0		120	81.0	2.5	/experiments/AOT/AOT_stimuli/rescaled_final/0075_fw.mp4	0.0	353.09884095191956	0.9999129772186279
83	333.5818350315094	pulse	0	t		81.0	2.5	/experiments/AOT/AOT_stimuli/rescaled_final/0075_fw.mp4	0.0	353.682245016098	
83	333.99834394454956	movie	1		245	81.0	2.5	/experiments/AOT/AOT_stimuli/rescaled_final/0075_fw.mp4	0.0	354.0987539291382	2.5000081062316895
83	335.18183398246765	pulse	1	t		81.0	2.5	/experiments/AOT/AOT_stimuli/rescaled_final/0075_fw.mp4	0.0	355.2822439670563	
83	336.49835205078125	fix_post	2		12	81.0	2.5	/experiments/AOT/AOT_stimuli/rescaled_final/0075_fw.mp4	0.0	356.5987620353699	0.10009098052978516
84	336.59844303131104	fix_pre	0		120	82.0	2.5	blank	1.0	356.69885301589966	0.9999699592590332
84	336.7817430496216	pulse	0	t		82.0	2.5	blank	1.0	356.8821530342102	
84	337.59841299057007	movie	1		300	82.0	2.5	blank	1.0	357.6988229751587	2.4994900226593018
84	338.38175106048584	pulse	1	t		82.0	2.5	blank	1.0	358.48216104507446	
84	339.9813930988312	pulse	1	t		82.0	2.5	blank	1.0	360.0818030834198	
84	340.09790301322937	fix_post	2		12	82.0	2.5	blank	1.0	360.198312997818	0.10004997253417969
85	340.19795298576355	fix_pre	0		120	83.0	2.5	/experiments/AOT/AOT_stimuli/rescaled_final/0856_fw.mp4	0.0	360.2983629703522	1.0003230571746826
85	341.19827604293823	movie	1		244	83.0	2.5	/experiments/AOT/AOT_stimuli/rescaled_final/0856_fw.mp4	0.0	361.29868602752686	2.500048875808716
85	341.5818009376526	pulse	1	t		83.0	2.5	/experiments/AOT/AOT_stimuli/rescaled_final/0856_fw.mp4	0.0	361.6822109222412	
85	343.18172812461853	pulse	1	t		83.0	2.5	/experiments/AOT/AOT_stimuli/rescaled_final/0856_fw.mp4	0.0	363.28213810920715	
85	343.69832491874695	fix_post	2		12	83.0	2.5	/experiments/AOT/AOT_stimuli/rescaled_final/0856_fw.mp4	0.0	363.79873490333557	0.10000109672546387
87	343.7983260154724	stim	0		1716					363.89873600006104	14.299910068511963
87	344.78172492980957	pulse	0	t						364.8821349143982	
87	346.3816890716553	pulse	0	t						366.4820990562439	
87	347.9816241264343	pulse	0	t						368.08203411102295	
87	349.5817201137543	pulse	0	t						369.6821300983429	
87	351.18169593811035	pulse	0	t						371.282105922699	
87	352.78168296813965	pulse	0	t						372.88209295272827	
87	354.3816499710083	pulse	0	t						374.4820599555969	
87	355.9815950393677	pulse	0	t						376.0820050239563	
87	357.5816841125488	pulse	0	t						377.68209409713745	
