trial_nr	onset	event_type	phase	response	nr_frames	movie_index	movie_duration	movie_file	blank	onset_abs	duration
0	0.20818305015563965	stim	0		11					21.291264057159424	0.09167909622192383
0	0.29192304611206055	response	0	space						21.375004053115845	
1	0.2998621463775635	stim	0		4630					21.382943153381348	38.59839081764221
1	38.88809013366699	pulse	0	t						59.971171140670776	
1	38.898252964019775	stim	1		1715					59.98133397102356	14.30115008354187
1	40.48118209838867	pulse	1	t						61.564263105392456	
1	42.081231117248535	pulse	1	t						63.16431212425232	
1	43.68156409263611	pulse	1	t						64.76464509963989	
1	45.281737089157104	pulse	1	t						66.36481809616089	
1	46.882084131240845	pulse	1	t						67.96516513824463	
1	48.482097148895264	pulse	1	t						69.56517815589905	
1	50.082422971725464	pulse	1	t						71.16550397872925	
1	51.682746171951294	pulse	1	t						72.76582717895508	
2	53.199403047561646	fix_pre	0		11	0.0	2.5	/experiments/knapen_AOT/AOT_stimuli/rescaled_final/1730_fw.mp4	0.0	74.28248405456543	0.09160804748535156
2	53.28288507461548	pulse	0	t		0.0	2.5	/experiments/knapen_AOT/AOT_stimuli/rescaled_final/1730_fw.mp4	0.0	74.36596608161926	
2	53.291011095047	movie	1		243	0.0	2.5	/experiments/knapen_AOT/AOT_stimuli/rescaled_final/1730_fw.mp4	0.0	74.37409210205078	2.5088019371032715
2	54.883875131607056	pulse	1	t		0.0	2.5	/experiments/knapen_AOT/AOT_stimuli/rescaled_final/1730_fw.mp4	0.0	75.96695613861084	
2	55.79981303215027	fix_post	2		12	0.0	2.5	/experiments/knapen_AOT/AOT_stimuli/rescaled_final/1730_fw.mp4	0.0	76.88289403915405	0.10001015663146973
3	55.89982318878174	fix_pre	0		120	1.0	2.5	/experiments/knapen_AOT/AOT_stimuli/rescaled_final/1495_fw.mp4	0.0	76.98290419578552	1.0000979900360107
3	56.48342299461365	pulse	0	t		1.0	2.5	/experiments/knapen_AOT/AOT_stimuli/rescaled_final/1495_fw.mp4	0.0	77.56650400161743	
3	56.89992117881775	movie	1		244	1.0	2.5	/experiments/knapen_AOT/AOT_stimuli/rescaled_final/1495_fw.mp4	0.0	77.98300218582153	2.5003747940063477
3	58.07976412773132	pulse	1	t		1.0	2.5	/experiments/knapen_AOT/AOT_stimuli/rescaled_final/1495_fw.mp4	0.0	79.16284513473511	
3	59.4002959728241	fix_post	2		12	1.0	2.5	/experiments/knapen_AOT/AOT_stimuli/rescaled_final/1495_fw.mp4	0.0	80.48337697982788	0.09997010231018066
4	59.50026607513428	fix_pre	0		120	2.0	2.5	/experiments/knapen_AOT/AOT_stimuli/rescaled_final/1410_fw.mp4	0.0	80.58334708213806	1.0001890659332275
4	59.68388509750366	pulse	0	t		2.0	2.5	/experiments/knapen_AOT/AOT_stimuli/rescaled_final/1410_fw.mp4	0.0	80.76696610450745	
4	60.500455141067505	movie	1		244	2.0	2.5	/experiments/knapen_AOT/AOT_stimuli/rescaled_final/1410_fw.mp4	0.0	81.58353614807129	2.500385046005249
4	61.28413701057434	pulse	1	t		2.0	2.5	/experiments/knapen_AOT/AOT_stimuli/rescaled_final/1410_fw.mp4	0.0	82.36721801757812	
4	62.884252071380615	pulse	1	t		2.0	2.5	/experiments/knapen_AOT/AOT_stimuli/rescaled_final/1410_fw.mp4	0.0	83.9673330783844	
4	63.000840187072754	fix_post	2		12	2.0	2.5	/experiments/knapen_AOT/AOT_stimuli/rescaled_final/1410_fw.mp4	0.0	84.08392119407654	0.10005497932434082
5	63.100895166397095	fix_pre	0		120	3.0	2.5	/experiments/knapen_AOT/AOT_stimuli/rescaled_final/1009_rv.mp4	0.0	84.18397617340088	1.0000989437103271
5	64.10099411010742	movie	1		243	3.0	2.5	/experiments/knapen_AOT/AOT_stimuli/rescaled_final/1009_rv.mp4	0.0	85.1840751171112	2.4920170307159424
5	64.48591303825378	pulse	1	t		3.0	2.5	/experiments/knapen_AOT/AOT_stimuli/rescaled_final/1009_rv.mp4	0.0	85.56899404525757	
5	66.08491015434265	pulse	1	t		3.0	2.5	/experiments/knapen_AOT/AOT_stimuli/rescaled_final/1009_rv.mp4	0.0	87.16799116134644	
5	66.59301114082336	fix_post	2		12	3.0	2.5	/experiments/knapen_AOT/AOT_stimuli/rescaled_final/1009_rv.mp4	0.0	87.67609214782715	0.10005998611450195
6	66.69307112693787	fix_pre	0		117	4.0	2.5	/experiments/knapen_AOT/AOT_stimuli/rescaled_final/1269_rv.mp4	0.0	87.77615213394165	1.000119924545288
6	67.68502998352051	pulse	0	t		4.0	2.5	/experiments/knapen_AOT/AOT_stimuli/rescaled_final/1269_rv.mp4	0.0	88.76811099052429	
6	67.69319105148315	movie	1		245	4.0	2.5	/experiments/knapen_AOT/AOT_stimuli/rescaled_final/1269_rv.mp4	0.0	88.77627205848694	2.508702039718628
6	69.28970909118652	pulse	1	t		4.0	2.5	/experiments/knapen_AOT/AOT_stimuli/rescaled_final/1269_rv.mp4	0.0	90.37279009819031	
6	70.20189309120178	fix_post	2		12	4.0	2.5	/experiments/knapen_AOT/AOT_stimuli/rescaled_final/1269_rv.mp4	0.0	91.28497409820557	0.10006499290466309
7	70.30195808410645	fix_pre	0		120	5.0	2.5	/experiments/knapen_AOT/AOT_stimuli/rescaled_final/0971_fw.mp4	0.0	91.38503909111023	1.000096082687378
7	70.88563799858093	pulse	0	t		5.0	2.5	/experiments/knapen_AOT/AOT_stimuli/rescaled_final/0971_fw.mp4	0.0	91.96871900558472	
7	71.30205416679382	movie	1		244	5.0	2.5	/experiments/knapen_AOT/AOT_stimuli/rescaled_final/0971_fw.mp4	0.0	92.38513517379761	2.5003788471221924
7	72.48593497276306	pulse	1	t		5.0	2.5	/experiments/knapen_AOT/AOT_stimuli/rescaled_final/0971_fw.mp4	0.0	93.56901597976685	
7	73.80243301391602	fix_post	2		12	5.0	2.5	/experiments/knapen_AOT/AOT_stimuli/rescaled_final/0971_fw.mp4	0.0	94.8855140209198	0.10002708435058594
8	73.9024600982666	fix_pre	0		120	6.0	2.5	/experiments/knapen_AOT/AOT_stimuli/rescaled_final/1169_fw.mp4	0.0	94.98554110527039	1.000148057937622
8	74.07861018180847	pulse	0	t		6.0	2.5	/experiments/knapen_AOT/AOT_stimuli/rescaled_final/1169_fw.mp4	0.0	95.16169118881226	
8	74.90260815620422	movie	1		244	6.0	2.5	/experiments/knapen_AOT/AOT_stimuli/rescaled_final/1169_fw.mp4	0.0	95.98568916320801	2.500361919403076
8	75.6788101196289	pulse	1	t		6.0	2.5	/experiments/knapen_AOT/AOT_stimuli/rescaled_final/1169_fw.mp4	0.0	96.76189112663269	
8	77.27825212478638	pulse	1	t		6.0	2.5	/experiments/knapen_AOT/AOT_stimuli/rescaled_final/1169_fw.mp4	0.0	98.36133313179016	
8	77.4029700756073	fix_post	2		12	6.0	2.5	/experiments/knapen_AOT/AOT_stimuli/rescaled_final/1169_fw.mp4	0.0	98.48605108261108	0.10004711151123047
9	77.50301718711853	fix_pre	0		119	7.0	2.5	blank	1.0	98.58609819412231	0.9917919635772705
9	78.4948091506958	movie	1		300	7.0	2.5	blank	1.0	99.57789015769958	2.5003929138183594
9	78.8783791065216	pulse	1	t		7.0	2.5	blank	1.0	99.96146011352539	
9	80.47861003875732	pulse	1	t		7.0	2.5	blank	1.0	101.56169104576111	
9	80.99520206451416	fix_post	2		12	7.0	2.5	blank	1.0	102.07828307151794	0.09999990463256836
10	81.09520196914673	fix_pre	0		119	8.0	2.5	/experiments/knapen_AOT/AOT_stimuli/rescaled_final/2165_rv.mp4	0.0	102.17828297615051	0.9918091297149658
10	82.07896113395691	pulse	0	t		8.0	2.5	/experiments/knapen_AOT/AOT_stimuli/rescaled_final/2165_rv.mp4	0.0	103.1620421409607	
10	82.0870110988617	movie	1		244	8.0	2.5	/experiments/knapen_AOT/AOT_stimuli/rescaled_final/2165_rv.mp4	0.0	103.17009210586548	2.508723020553589
10	83.68038511276245	pulse	1	t		8.0	2.5	/experiments/knapen_AOT/AOT_stimuli/rescaled_final/2165_rv.mp4	0.0	104.76346611976624	
10	84.59573411941528	fix_post	2		12	8.0	2.5	/experiments/knapen_AOT/AOT_stimuli/rescaled_final/2165_rv.mp4	0.0	105.67881512641907	0.09999489784240723
11	84.69572901725769	fix_pre	0		120	9.0	2.5	/experiments/knapen_AOT/AOT_stimuli/rescaled_final/2088_fw.mp4	0.0	105.77881002426147	1.0001921653747559
11	85.27933597564697	pulse	0	t		9.0	2.5	/experiments/knapen_AOT/AOT_stimuli/rescaled_final/2088_fw.mp4	0.0	106.36241698265076	
11	85.69592118263245	movie	1		244	9.0	2.5	/experiments/knapen_AOT/AOT_stimuli/rescaled_final/2088_fw.mp4	0.0	106.77900218963623	2.5003159046173096
11	86.87973117828369	pulse	1	t		9.0	2.5	/experiments/knapen_AOT/AOT_stimuli/rescaled_final/2088_fw.mp4	0.0	107.96281218528748	
11	88.19623708724976	fix_post	2		12	9.0	2.5	/experiments/knapen_AOT/AOT_stimuli/rescaled_final/2088_fw.mp4	0.0	109.27931809425354	0.10000491142272949
12	88.29624199867249	fix_pre	0		120	10.0	2.5	/experiments/knapen_AOT/AOT_stimuli/rescaled_final/1932_fw.mp4	0.0	109.37932300567627	1.0001909732818604
12	88.47982096672058	pulse	0	t		10.0	2.5	/experiments/knapen_AOT/AOT_stimuli/rescaled_final/1932_fw.mp4	0.0	109.56290197372437	
12	89.29643297195435	movie	1		245	10.0	2.5	/experiments/knapen_AOT/AOT_stimuli/rescaled_final/1932_fw.mp4	0.0	110.37951397895813	2.5004160404205322
12	90.0801169872284	pulse	1	t		10.0	2.5	/experiments/knapen_AOT/AOT_stimuli/rescaled_final/1932_fw.mp4	0.0	111.16319799423218	
12	91.67784404754639	pulse	1	t		10.0	2.5	/experiments/knapen_AOT/AOT_stimuli/rescaled_final/1932_fw.mp4	0.0	112.76092505455017	
12	91.79684901237488	fix_post	2		12	10.0	2.5	/experiments/knapen_AOT/AOT_stimuli/rescaled_final/1932_fw.mp4	0.0	112.87993001937866	0.09997105598449707
13	91.89682006835938	fix_pre	0		120	11.0	2.5	/experiments/knapen_AOT/AOT_stimuli/rescaled_final/0512_fw.mp4	0.0	112.97990107536316	1.0001320838928223
13	92.8969521522522	movie	1		243	11.0	2.5	/experiments/knapen_AOT/AOT_stimuli/rescaled_final/0512_fw.mp4	0.0	113.98003315925598	2.4920389652252197
13	93.2811119556427	pulse	1	t		11.0	2.5	/experiments/knapen_AOT/AOT_stimuli/rescaled_final/0512_fw.mp4	0.0	114.36419296264648	
13	94.88086104393005	pulse	1	t		11.0	2.5	/experiments/knapen_AOT/AOT_stimuli/rescaled_final/0512_fw.mp4	0.0	115.96394205093384	
13	95.38899111747742	fix_post	2		12	11.0	2.5	/experiments/knapen_AOT/AOT_stimuli/rescaled_final/0512_fw.mp4	0.0	116.4720721244812	0.10001587867736816
14	95.48900699615479	fix_pre	0		120	12.0	2.5	blank	1.0	116.57208800315857	1.0001370906829834
14	96.48104500770569	pulse	0	t		12.0	2.5	blank	1.0	117.56412601470947	
14	96.48914408683777	movie	1		301	12.0	2.5	blank	1.0	117.57222509384155	2.508739948272705
14	98.08119511604309	pulse	1	t		12.0	2.5	blank	1.0	119.16427612304688	
14	98.99788403511047	fix_post	2		12	12.0	2.5	blank	1.0	120.08096504211426	0.10001707077026367
15	99.09790110588074	fix_pre	0		120	13.0	2.5	/experiments/knapen_AOT/AOT_stimuli/rescaled_final/1883_fw.mp4	0.0	120.18098211288452	1.0001440048217773
15	99.6815230846405	pulse	0	t		13.0	2.5	/experiments/knapen_AOT/AOT_stimuli/rescaled_final/1883_fw.mp4	0.0	120.76460409164429	
15	100.09804511070251	movie	1		244	13.0	2.5	/experiments/knapen_AOT/AOT_stimuli/rescaled_final/1883_fw.mp4	0.0	121.1811261177063	2.5003678798675537
15	101.27782106399536	pulse	1	t		13.0	2.5	/experiments/knapen_AOT/AOT_stimuli/rescaled_final/1883_fw.mp4	0.0	122.36090207099915	
15	102.59841299057007	fix_post	2		12	13.0	2.5	/experiments/knapen_AOT/AOT_stimuli/rescaled_final/1883_fw.mp4	0.0	123.68149399757385	0.10007905960083008
16	102.6984920501709	fix_pre	0		120	14.0	2.5	/experiments/knapen_AOT/AOT_stimuli/rescaled_final/1560_fw.mp4	0.0	123.78157305717468	1.0000710487365723
16	102.8820550441742	pulse	0	t		14.0	2.5	/experiments/knapen_AOT/AOT_stimuli/rescaled_final/1560_fw.mp4	0.0	123.96513605117798	
16	103.69856309890747	movie	1		245	14.0	2.5	/experiments/knapen_AOT/AOT_stimuli/rescaled_final/1560_fw.mp4	0.0	124.78164410591125	2.500361919403076
16	104.48220109939575	pulse	1	t		14.0	2.5	/experiments/knapen_AOT/AOT_stimuli/rescaled_final/1560_fw.mp4	0.0	125.56528210639954	
16	106.07999014854431	pulse	1	t		14.0	2.5	/experiments/knapen_AOT/AOT_stimuli/rescaled_final/1560_fw.mp4	0.0	127.1630711555481	
16	106.19892501831055	fix_post	2		12	14.0	2.5	/experiments/knapen_AOT/AOT_stimuli/rescaled_final/1560_fw.mp4	0.0	127.28200602531433	0.10001516342163086
17	106.29894018173218	fix_pre	0		120	15.0	2.5	/experiments/knapen_AOT/AOT_stimuli/rescaled_final/1730_fw.mp4	0.0	127.38202118873596	1.0001440048217773
17	107.29908418655396	movie	1		242	15.0	2.5	/experiments/knapen_AOT/AOT_stimuli/rescaled_final/1730_fw.mp4	0.0	128.38216519355774	2.4920690059661865
17	107.68303298950195	pulse	1	t		15.0	2.5	/experiments/knapen_AOT/AOT_stimuli/rescaled_final/1730_fw.mp4	0.0	128.76611399650574	
17	109.2829041481018	pulse	1	t		15.0	2.5	/experiments/knapen_AOT/AOT_stimuli/rescaled_final/1730_fw.mp4	0.0	130.3659851551056	
17	109.79115319252014	fix_post	2		12	15.0	2.5	/experiments/knapen_AOT/AOT_stimuli/rescaled_final/1730_fw.mp4	0.0	130.87423419952393	0.09999990463256836
18	109.89115309715271	fix_pre	0		120	16.0	2.5	/experiments/knapen_AOT/AOT_stimuli/rescaled_final/1560_fw.mp4	0.0	130.9742341041565	1.0001349449157715
18	110.88319396972656	pulse	0	t		16.0	2.5	/experiments/knapen_AOT/AOT_stimuli/rescaled_final/1560_fw.mp4	0.0	131.96627497673035	
18	110.89128804206848	movie	1		246	16.0	2.5	/experiments/knapen_AOT/AOT_stimuli/rescaled_final/1560_fw.mp4	0.0	131.97436904907227	2.5087640285491943
18	112.48392605781555	pulse	1	t		16.0	2.5	/experiments/knapen_AOT/AOT_stimuli/rescaled_final/1560_fw.mp4	0.0	133.56700706481934	
18	113.40005207061768	fix_post	2		12	16.0	2.5	/experiments/knapen_AOT/AOT_stimuli/rescaled_final/1560_fw.mp4	0.0	134.48313307762146	0.09999608993530273
19	113.50004816055298	fix_pre	0		120	17.0	2.5	/experiments/knapen_AOT/AOT_stimuli/rescaled_final/0955_fw.mp4	0.0	134.58312916755676	1.0001139640808105
19	114.08379197120667	pulse	0	t		17.0	2.5	/experiments/knapen_AOT/AOT_stimuli/rescaled_final/0955_fw.mp4	0.0	135.16687297821045	
19	114.50016212463379	movie	1		242	17.0	2.5	/experiments/knapen_AOT/AOT_stimuli/rescaled_final/0955_fw.mp4	0.0	135.58324313163757	2.5006370544433594
19	115.67955017089844	pulse	1	t		17.0	2.5	/experiments/knapen_AOT/AOT_stimuli/rescaled_final/0955_fw.mp4	0.0	136.76263117790222	
19	117.00079917907715	fix_post	2		12	17.0	2.5	/experiments/knapen_AOT/AOT_stimuli/rescaled_final/0955_fw.mp4	0.0	138.08388018608093	0.09976387023925781
20	117.1005630493164	fix_pre	0		120	18.0	2.5	/experiments/knapen_AOT/AOT_stimuli/rescaled_final/0673_rv.mp4	0.0	138.1836440563202	1.0001440048217773
20	117.28420805931091	pulse	0	t		18.0	2.5	/experiments/knapen_AOT/AOT_stimuli/rescaled_final/0673_rv.mp4	0.0	138.3672890663147	
20	118.10070705413818	movie	1		243	18.0	2.5	/experiments/knapen_AOT/AOT_stimuli/rescaled_final/0673_rv.mp4	0.0	139.18378806114197	2.500369071960449
20	118.88432908058167	pulse	1	t		18.0	2.5	/experiments/knapen_AOT/AOT_stimuli/rescaled_final/0673_rv.mp4	0.0	139.96741008758545	
20	120.48436117172241	pulse	1	t		18.0	2.5	/experiments/knapen_AOT/AOT_stimuli/rescaled_final/0673_rv.mp4	0.0	141.5674421787262	
20	120.60107612609863	fix_post	2		12	18.0	2.5	/experiments/knapen_AOT/AOT_stimuli/rescaled_final/0673_rv.mp4	0.0	141.68415713310242	0.10000801086425781
21	120.70108413696289	fix_pre	0		120	19.0	2.5	/experiments/knapen_AOT/AOT_stimuli/rescaled_final/1546_fw.mp4	0.0	141.78416514396667	1.0002269744873047
21	121.7013111114502	movie	1		242	19.0	2.5	/experiments/knapen_AOT/AOT_stimuli/rescaled_final/1546_fw.mp4	0.0	142.78439211845398	2.492142915725708
21	122.08553314208984	pulse	1	t		19.0	2.5	/experiments/knapen_AOT/AOT_stimuli/rescaled_final/1546_fw.mp4	0.0	143.16861414909363	
21	123.67782497406006	pulse	1	t		19.0	2.5	/experiments/knapen_AOT/AOT_stimuli/rescaled_final/1546_fw.mp4	0.0	144.76090598106384	
21	124.1934540271759	fix_post	2		12	19.0	2.5	/experiments/knapen_AOT/AOT_stimuli/rescaled_final/1546_fw.mp4	0.0	145.2765350341797	0.09991002082824707
22	124.29336404800415	fix_pre	0		120	20.0	2.5	blank	1.0	145.37644505500793	1.000087022781372
22	125.2778811454773	pulse	0	t		20.0	2.5	blank	1.0	146.36096215248108	
22	125.29345107078552	movie	1		301	20.0	2.5	blank	1.0	146.3765320777893	2.508729934692383
22	126.87791299819946	pulse	1	t		20.0	2.5	blank	1.0	147.96099400520325	
22	127.8021810054779	fix_post	2		12	20.0	2.5	blank	1.0	148.8852620124817	0.10001897811889648
23	127.9021999835968	fix_pre	0		117	21.0	2.5	/experiments/knapen_AOT/AOT_stimuli/rescaled_final/1961_fw.mp4	0.0	148.9852809906006	1.0001800060272217
23	128.4783229827881	pulse	0	t		21.0	2.5	/experiments/knapen_AOT/AOT_stimuli/rescaled_final/1961_fw.mp4	0.0	149.56140398979187	
23	128.90237998962402	movie	1		243	21.0	2.5	/experiments/knapen_AOT/AOT_stimuli/rescaled_final/1961_fw.mp4	0.0	149.9854609966278	2.5003271102905273
23	130.0783770084381	pulse	1	t		21.0	2.5	/experiments/knapen_AOT/AOT_stimuli/rescaled_final/1961_fw.mp4	0.0	151.1614580154419	
23	131.40270709991455	fix_post	2		12	21.0	2.5	/experiments/knapen_AOT/AOT_stimuli/rescaled_final/1961_fw.mp4	0.0	152.48578810691833	0.10000491142272949
24	131.50271201133728	fix_pre	0		120	22.0	2.5	/experiments/knapen_AOT/AOT_stimuli/rescaled_final/1750_rv.mp4	0.0	152.58579301834106	1.0001411437988281
24	131.677903175354	pulse	0	t		22.0	2.5	/experiments/knapen_AOT/AOT_stimuli/rescaled_final/1750_rv.mp4	0.0	152.7609841823578	
24	132.5028531551361	movie	1		244	22.0	2.5	/experiments/knapen_AOT/AOT_stimuli/rescaled_final/1750_rv.mp4	0.0	153.5859341621399	2.500370979309082
24	133.27812099456787	pulse	1	t		22.0	2.5	/experiments/knapen_AOT/AOT_stimuli/rescaled_final/1750_rv.mp4	0.0	154.36120200157166	
24	134.8784999847412	pulse	1	t		22.0	2.5	/experiments/knapen_AOT/AOT_stimuli/rescaled_final/1750_rv.mp4	0.0	155.961580991745	
24	135.0032241344452	fix_post	2		12	22.0	2.5	/experiments/knapen_AOT/AOT_stimuli/rescaled_final/1750_rv.mp4	0.0	156.08630514144897	0.10005497932434082
25	135.10327911376953	fix_pre	0		119	23.0	2.5	/experiments/knapen_AOT/AOT_stimuli/rescaled_final/0413_fw.mp4	0.0	156.18636012077332	0.991786003112793
25	136.09506511688232	movie	1		245	23.0	2.5	/experiments/knapen_AOT/AOT_stimuli/rescaled_final/0413_fw.mp4	0.0	157.1781461238861	2.5003650188446045
25	136.47920107841492	pulse	1	t		23.0	2.5	/experiments/knapen_AOT/AOT_stimuli/rescaled_final/0413_fw.mp4	0.0	157.5622820854187	
25	138.07889819145203	pulse	1	t		23.0	2.5	/experiments/knapen_AOT/AOT_stimuli/rescaled_final/0413_fw.mp4	0.0	159.1619791984558	
25	138.59543013572693	fix_post	2		12	23.0	2.5	/experiments/knapen_AOT/AOT_stimuli/rescaled_final/0413_fw.mp4	0.0	159.6785111427307	0.10003089904785156
26	138.69546103477478	fix_pre	0		119	24.0	2.5	/experiments/knapen_AOT/AOT_stimuli/rescaled_final/0139_fw.mp4	0.0	159.77854204177856	0.9917969703674316
26	139.67910504341125	pulse	0	t		24.0	2.5	/experiments/knapen_AOT/AOT_stimuli/rescaled_final/0139_fw.mp4	0.0	160.76218605041504	
26	139.6872580051422	movie	1		244	24.0	2.5	/experiments/knapen_AOT/AOT_stimuli/rescaled_final/0139_fw.mp4	0.0	160.770339012146	2.5087361335754395
26	141.28013706207275	pulse	1	t		24.0	2.5	/experiments/knapen_AOT/AOT_stimuli/rescaled_final/0139_fw.mp4	0.0	162.36321806907654	
26	142.19599413871765	fix_post	2		12	24.0	2.5	/experiments/knapen_AOT/AOT_stimuli/rescaled_final/0139_fw.mp4	0.0	163.27907514572144	0.09997296333312988
27	142.29596710205078	fix_pre	0		120	25.0	2.5	/experiments/knapen_AOT/AOT_stimuli/rescaled_final/1939_fw.mp4	0.0	163.37904810905457	1.000187873840332
27	142.87963604927063	pulse	0	t		25.0	2.5	/experiments/knapen_AOT/AOT_stimuli/rescaled_final/1939_fw.mp4	0.0	163.9627170562744	
27	143.2961549758911	movie	1		244	25.0	2.5	/experiments/knapen_AOT/AOT_stimuli/rescaled_final/1939_fw.mp4	0.0	164.3792359828949	2.500357151031494
27	144.47995018959045	pulse	1	t		25.0	2.5	/experiments/knapen_AOT/AOT_stimuli/rescaled_final/1939_fw.mp4	0.0	165.56303119659424	
27	145.7965121269226	fix_post	2		12	25.0	2.5	/experiments/knapen_AOT/AOT_stimuli/rescaled_final/1939_fw.mp4	0.0	166.8795931339264	0.10000896453857422
28	145.89652109146118	fix_pre	0		120	26.0	2.5	/experiments/knapen_AOT/AOT_stimuli/rescaled_final/1747_rv.mp4	0.0	166.97960209846497	1.0001509189605713
28	146.08009314537048	pulse	0	t		26.0	2.5	/experiments/knapen_AOT/AOT_stimuli/rescaled_final/1747_rv.mp4	0.0	167.16317415237427	
28	146.89667201042175	movie	1		243	26.0	2.5	/experiments/knapen_AOT/AOT_stimuli/rescaled_final/1747_rv.mp4	0.0	167.97975301742554	2.5003700256347656
28	147.68028712272644	pulse	1	t		26.0	2.5	/experiments/knapen_AOT/AOT_stimuli/rescaled_final/1747_rv.mp4	0.0	168.76336812973022	
28	149.28046011924744	pulse	1	t		26.0	2.5	/experiments/knapen_AOT/AOT_stimuli/rescaled_final/1747_rv.mp4	0.0	170.36354112625122	
28	149.39704203605652	fix_post	2		12	26.0	2.5	/experiments/knapen_AOT/AOT_stimuli/rescaled_final/1747_rv.mp4	0.0	170.4801230430603	0.10001397132873535
29	149.49705600738525	fix_pre	0		120	27.0	2.5	blank	1.0	170.58013701438904	1.0001499652862549
29	150.4972059726715	movie	1		299	27.0	2.5	blank	1.0	171.5802869796753	2.492061138153076
29	150.88080310821533	pulse	1	t		27.0	2.5	blank	1.0	171.96388411521912	
29	152.48098802566528	pulse	1	t		27.0	2.5	blank	1.0	173.56406903266907	
29	152.98926711082458	fix_post	2		12	27.0	2.5	blank	1.0	174.07234811782837	0.09999990463256836
30	153.08926701545715	fix_pre	0		120	28.0	2.5	/experiments/knapen_AOT/AOT_stimuli/rescaled_final/0613_rv.mp4	0.0	174.17234802246094	1.000154972076416
30	154.08125805854797	pulse	0	t		28.0	2.5	/experiments/knapen_AOT/AOT_stimuli/rescaled_final/0613_rv.mp4	0.0	175.16433906555176	
30	154.08942198753357	movie	1		244	28.0	2.5	/experiments/knapen_AOT/AOT_stimuli/rescaled_final/0613_rv.mp4	0.0	175.17250299453735	2.508700132369995
30	155.68265104293823	pulse	1	t		28.0	2.5	/experiments/knapen_AOT/AOT_stimuli/rescaled_final/0613_rv.mp4	0.0	176.76573204994202	
30	156.59812211990356	fix_post	2		12	28.0	2.5	/experiments/knapen_AOT/AOT_stimuli/rescaled_final/0613_rv.mp4	0.0	177.68120312690735	0.09999895095825195
31	156.69812107086182	fix_pre	0		120	29.0	2.5	/experiments/knapen_AOT/AOT_stimuli/rescaled_final/0673_fw.mp4	0.0	177.7812020778656	1.0001649856567383
31	157.2818100452423	pulse	0	t		29.0	2.5	/experiments/knapen_AOT/AOT_stimuli/rescaled_final/0673_fw.mp4	0.0	178.3648910522461	
31	157.69828605651855	movie	1		243	29.0	2.5	/experiments/knapen_AOT/AOT_stimuli/rescaled_final/0673_fw.mp4	0.0	178.78136706352234	2.500373125076294
31	158.88209795951843	pulse	1	t		29.0	2.5	/experiments/knapen_AOT/AOT_stimuli/rescaled_final/0673_fw.mp4	0.0	179.96517896652222	
31	160.19865918159485	fix_post	2		12	29.0	2.5	/experiments/knapen_AOT/AOT_stimuli/rescaled_final/0673_fw.mp4	0.0	181.28174018859863	0.10004496574401855
32	160.29870414733887	fix_pre	0		120	30.0	2.5	/experiments/knapen_AOT/AOT_stimuli/rescaled_final/0488_rv.mp4	0.0	181.38178515434265	1.0001389980316162
32	160.48218703269958	pulse	0	t		30.0	2.5	/experiments/knapen_AOT/AOT_stimuli/rescaled_final/0488_rv.mp4	0.0	181.56526803970337	
32	161.29884314537048	movie	1		244	30.0	2.5	/experiments/knapen_AOT/AOT_stimuli/rescaled_final/0488_rv.mp4	0.0	182.38192415237427	2.5003719329833984
32	162.08257007598877	pulse	1	t		30.0	2.5	/experiments/knapen_AOT/AOT_stimuli/rescaled_final/0488_rv.mp4	0.0	183.16565108299255	
32	163.68429803848267	pulse	1	t		30.0	2.5	/experiments/knapen_AOT/AOT_stimuli/rescaled_final/0488_rv.mp4	0.0	184.76737904548645	
32	163.79921507835388	fix_post	2		12	30.0	2.5	/experiments/knapen_AOT/AOT_stimuli/rescaled_final/0488_rv.mp4	0.0	184.88229608535767	0.10001397132873535
33	163.89922904968262	fix_pre	0		119	31.0	2.5	/experiments/knapen_AOT/AOT_stimuli/rescaled_final/0311_fw.mp4	0.0	184.9823100566864	0.9918079376220703
33	164.8910369873047	movie	1		243	31.0	2.5	/experiments/knapen_AOT/AOT_stimuli/rescaled_final/0311_fw.mp4	0.0	185.97411799430847	2.500380039215088
33	165.28307509422302	pulse	1	t		31.0	2.5	/experiments/knapen_AOT/AOT_stimuli/rescaled_final/0311_fw.mp4	0.0	186.3661561012268	
33	166.8831751346588	pulse	1	t		31.0	2.5	/experiments/knapen_AOT/AOT_stimuli/rescaled_final/0311_fw.mp4	0.0	187.9662561416626	
33	167.39141702651978	fix_post	2		12	31.0	2.5	/experiments/knapen_AOT/AOT_stimuli/rescaled_final/0311_fw.mp4	0.0	188.47449803352356	0.09999299049377441
34	167.49141001701355	fix_pre	0		120	32.0	2.5	/experiments/knapen_AOT/AOT_stimuli/rescaled_final/1093_rv.mp4	0.0	188.57449102401733	1.0002269744873047
34	168.4835331439972	pulse	0	t		32.0	2.5	/experiments/knapen_AOT/AOT_stimuli/rescaled_final/1093_rv.mp4	0.0	189.56661415100098	
34	168.49163699150085	movie	1		246	32.0	2.5	/experiments/knapen_AOT/AOT_stimuli/rescaled_final/1093_rv.mp4	0.0	189.57471799850464	2.5086450576782227
34	170.0840301513672	pulse	1	t		32.0	2.5	/experiments/knapen_AOT/AOT_stimuli/rescaled_final/1093_rv.mp4	0.0	191.16711115837097	
34	171.00028204917908	fix_post	2		12	32.0	2.5	/experiments/knapen_AOT/AOT_stimuli/rescaled_final/1093_rv.mp4	0.0	192.08336305618286	0.09996795654296875
35	171.10025000572205	fix_pre	0		120	33.0	2.5	blank	1.0	192.18333101272583	1.0001981258392334
35	171.68397903442383	pulse	0	t		33.0	2.5	blank	1.0	192.7670600414276	
35	172.10044813156128	movie	1		300	33.0	2.5	blank	1.0	193.18352913856506	2.5003879070281982
35	173.28409504890442	pulse	1	t		33.0	2.5	blank	1.0	194.3671760559082	
35	174.60083603858948	fix_post	2		12	33.0	2.5	blank	1.0	195.68391704559326	0.10003399848937988
36	174.70087003707886	fix_pre	0		120	34.0	2.5	/experiments/knapen_AOT/AOT_stimuli/rescaled_final/1794_fw.mp4	0.0	195.78395104408264	1.0000879764556885
36	174.88445210456848	pulse	0	t		34.0	2.5	/experiments/knapen_AOT/AOT_stimuli/rescaled_final/1794_fw.mp4	0.0	195.96753311157227	
36	175.70095801353455	movie	1		246	34.0	2.5	/experiments/knapen_AOT/AOT_stimuli/rescaled_final/1794_fw.mp4	0.0	196.78403902053833	2.5003671646118164
36	176.48473596572876	pulse	1	t		34.0	2.5	/experiments/knapen_AOT/AOT_stimuli/rescaled_final/1794_fw.mp4	0.0	197.56781697273254	
36	178.08501410484314	pulse	1	t		34.0	2.5	/experiments/knapen_AOT/AOT_stimuli/rescaled_final/1794_fw.mp4	0.0	199.16809511184692	
36	178.20132517814636	fix_post	2		12	34.0	2.5	/experiments/knapen_AOT/AOT_stimuli/rescaled_final/1794_fw.mp4	0.0	199.28440618515015	0.10004281997680664
37	178.30136799812317	fix_pre	0		120	35.0	2.5	/experiments/knapen_AOT/AOT_stimuli/rescaled_final/0996_rv.mp4	0.0	199.38444900512695	1.0001401901245117
37	179.30150818824768	movie	1		243	35.0	2.5	/experiments/knapen_AOT/AOT_stimuli/rescaled_final/0996_rv.mp4	0.0	200.38458919525146	2.4920148849487305
37	179.68975710868835	pulse	1	t		35.0	2.5	/experiments/knapen_AOT/AOT_stimuli/rescaled_final/0996_rv.mp4	0.0	200.77283811569214	
37	181.28528213500977	pulse	1	t		35.0	2.5	/experiments/knapen_AOT/AOT_stimuli/rescaled_final/0996_rv.mp4	0.0	202.36836314201355	
37	181.7935230731964	fix_post	2		12	35.0	2.5	/experiments/knapen_AOT/AOT_stimuli/rescaled_final/0996_rv.mp4	0.0	202.8766040802002	0.10003209114074707
38	181.89355516433716	fix_pre	0		120	36.0	2.5	/experiments/knapen_AOT/AOT_stimuli/rescaled_final/1790_fw.mp4	0.0	202.97663617134094	1.0001659393310547
38	182.88570404052734	pulse	0	t		36.0	2.5	/experiments/knapen_AOT/AOT_stimuli/rescaled_final/1790_fw.mp4	0.0	203.96878504753113	
38	182.8937211036682	movie	1		245	36.0	2.5	/experiments/knapen_AOT/AOT_stimuli/rescaled_final/1790_fw.mp4	0.0	203.976802110672	2.508734941482544
38	184.4863121509552	pulse	1	t		36.0	2.5	/experiments/knapen_AOT/AOT_stimuli/rescaled_final/1790_fw.mp4	0.0	205.56939315795898	
38	185.40245604515076	fix_post	2		12	36.0	2.5	/experiments/knapen_AOT/AOT_stimuli/rescaled_final/1790_fw.mp4	0.0	206.48553705215454	0.10003995895385742
39	185.50249600410461	fix_pre	0		120	37.0	2.5	/experiments/knapen_AOT/AOT_stimuli/rescaled_final/1002_fw.mp4	0.0	206.5855770111084	1.0000951290130615
39	186.0777440071106	pulse	0	t		37.0	2.5	/experiments/knapen_AOT/AOT_stimuli/rescaled_final/1002_fw.mp4	0.0	207.16082501411438	
39	186.50259113311768	movie	1		242	37.0	2.5	/experiments/knapen_AOT/AOT_stimuli/rescaled_final/1002_fw.mp4	0.0	207.58567214012146	2.500342845916748
39	187.67843914031982	pulse	1	t		37.0	2.5	/experiments/knapen_AOT/AOT_stimuli/rescaled_final/1002_fw.mp4	0.0	208.7615201473236	
39	189.00293397903442	fix_post	2		12	37.0	2.5	/experiments/knapen_AOT/AOT_stimuli/rescaled_final/1002_fw.mp4	0.0	210.0860149860382	0.10004210472106934
40	189.1029760837555	fix_pre	0		120	38.0	2.5	/experiments/knapen_AOT/AOT_stimuli/rescaled_final/0189_fw.mp4	0.0	210.18605709075928	1.0001380443572998
40	189.2781081199646	pulse	0	t		38.0	2.5	/experiments/knapen_AOT/AOT_stimuli/rescaled_final/0189_fw.mp4	0.0	210.36118912696838	
40	190.1031141281128	movie	1		243	38.0	2.5	/experiments/knapen_AOT/AOT_stimuli/rescaled_final/0189_fw.mp4	0.0	211.18619513511658	2.5003750324249268
40	190.87849617004395	pulse	1	t		38.0	2.5	/experiments/knapen_AOT/AOT_stimuli/rescaled_final/0189_fw.mp4	0.0	211.96157717704773	
40	192.4787449836731	pulse	1	t		38.0	2.5	/experiments/knapen_AOT/AOT_stimuli/rescaled_final/0189_fw.mp4	0.0	213.56182599067688	
40	192.60348916053772	fix_post	2		12	38.0	2.5	/experiments/knapen_AOT/AOT_stimuli/rescaled_final/0189_fw.mp4	0.0	213.6865701675415	0.10001182556152344
41	192.70350098609924	fix_pre	0		120	39.0	2.5	/experiments/knapen_AOT/AOT_stimuli/rescaled_final/0923_rv.mp4	0.0	213.78658199310303	1.000154972076416
41	193.70365595817566	movie	1		243	39.0	2.5	/experiments/knapen_AOT/AOT_stimuli/rescaled_final/0923_rv.mp4	0.0	214.78673696517944	2.492061138153076
41	194.07889914512634	pulse	1	t		39.0	2.5	/experiments/knapen_AOT/AOT_stimuli/rescaled_final/0923_rv.mp4	0.0	215.16198015213013	
41	195.67921710014343	pulse	1	t		39.0	2.5	/experiments/knapen_AOT/AOT_stimuli/rescaled_final/0923_rv.mp4	0.0	216.76229810714722	
41	196.19571709632874	fix_post	2		12	39.0	2.5	/experiments/knapen_AOT/AOT_stimuli/rescaled_final/0923_rv.mp4	0.0	217.27879810333252	0.10002803802490234
42	196.29574513435364	fix_pre	0		119	40.0	2.5	/experiments/knapen_AOT/AOT_stimuli/rescaled_final/0350_fw.mp4	0.0	217.37882614135742	0.9917948246002197
42	197.27941298484802	pulse	0	t		40.0	2.5	/experiments/knapen_AOT/AOT_stimuli/rescaled_final/0350_fw.mp4	0.0	218.3624939918518	
42	197.28753995895386	movie	1		244	40.0	2.5	/experiments/knapen_AOT/AOT_stimuli/rescaled_final/0350_fw.mp4	0.0	218.37062096595764	2.5086960792541504
42	198.88005805015564	pulse	1	t		40.0	2.5	/experiments/knapen_AOT/AOT_stimuli/rescaled_final/0350_fw.mp4	0.0	219.96313905715942	
42	199.796236038208	fix_post	2		12	40.0	2.5	/experiments/knapen_AOT/AOT_stimuli/rescaled_final/0350_fw.mp4	0.0	220.8793170452118	0.09998798370361328
43	199.89622402191162	fix_pre	0		120	41.0	2.5	blank	1.0	220.9793050289154	1.000209093093872
43	200.4799439907074	pulse	0	t		41.0	2.5	blank	1.0	221.56302499771118	
43	200.8964331150055	movie	1		300	41.0	2.5	blank	1.0	221.97951412200928	2.5003318786621094
43	202.08005213737488	pulse	1	t		41.0	2.5	blank	1.0	223.16313314437866	
43	203.3967649936676	fix_post	2		12	41.0	2.5	blank	1.0	224.4798460006714	0.10000801086425781
44	203.49677300453186	fix_pre	0		120	42.0	2.5	/experiments/knapen_AOT/AOT_stimuli/rescaled_final/1725_fw.mp4	0.0	224.57985401153564	1.000157117843628
44	203.6802921295166	pulse	0	t		42.0	2.5	/experiments/knapen_AOT/AOT_stimuli/rescaled_final/1725_fw.mp4	0.0	224.76337313652039	
44	204.4969301223755	movie	1		244	42.0	2.5	/experiments/knapen_AOT/AOT_stimuli/rescaled_final/1725_fw.mp4	0.0	225.58001112937927	2.5003600120544434
44	205.28061199188232	pulse	1	t		42.0	2.5	/experiments/knapen_AOT/AOT_stimuli/rescaled_final/1725_fw.mp4	0.0	226.3636929988861	
44	206.88067817687988	pulse	1	t		42.0	2.5	/experiments/knapen_AOT/AOT_stimuli/rescaled_final/1725_fw.mp4	0.0	227.96375918388367	
44	206.99729013442993	fix_post	2		12	42.0	2.5	/experiments/knapen_AOT/AOT_stimuli/rescaled_final/1725_fw.mp4	0.0	228.08037114143372	0.10001683235168457
45	207.09730696678162	fix_pre	0		119	43.0	2.5	/experiments/knapen_AOT/AOT_stimuli/rescaled_final/1856_rv.mp4	0.0	228.1803879737854	0.9918241500854492
45	208.08913111686707	movie	1		243	43.0	2.5	/experiments/knapen_AOT/AOT_stimuli/rescaled_final/1856_rv.mp4	0.0	229.17221212387085	2.500375986099243
45	208.48119711875916	pulse	1	t		43.0	2.5	/experiments/knapen_AOT/AOT_stimuli/rescaled_final/1856_rv.mp4	0.0	229.56427812576294	
45	210.0812611579895	pulse	1	t		43.0	2.5	/experiments/knapen_AOT/AOT_stimuli/rescaled_final/1856_rv.mp4	0.0	231.1643421649933	
45	210.5895071029663	fix_post	2		12	43.0	2.5	/experiments/knapen_AOT/AOT_stimuli/rescaled_final/1856_rv.mp4	0.0	231.6725881099701	0.10002398490905762
46	210.68953108787537	fix_pre	0		120	44.0	2.5	/experiments/knapen_AOT/AOT_stimuli/rescaled_final/0996_fw.mp4	0.0	231.77261209487915	1.0001740455627441
46	211.68149614334106	pulse	0	t		44.0	2.5	/experiments/knapen_AOT/AOT_stimuli/rescaled_final/0996_fw.mp4	0.0	232.76457715034485	
46	211.6897051334381	movie	1		246	44.0	2.5	/experiments/knapen_AOT/AOT_stimuli/rescaled_final/0996_fw.mp4	0.0	232.7727861404419	2.5086748600006104
46	213.2830719947815	pulse	1	t		44.0	2.5	/experiments/knapen_AOT/AOT_stimuli/rescaled_final/0996_fw.mp4	0.0	234.36615300178528	
46	214.19837999343872	fix_post	2		12	44.0	2.5	/experiments/knapen_AOT/AOT_stimuli/rescaled_final/0996_fw.mp4	0.0	235.2814610004425	0.10002398490905762
47	214.29840397834778	fix_pre	0		120	45.0	2.5	/experiments/knapen_AOT/AOT_stimuli/rescaled_final/1002_rv.mp4	0.0	235.38148498535156	1.0001649856567383
47	214.88211011886597	pulse	0	t		45.0	2.5	/experiments/knapen_AOT/AOT_stimuli/rescaled_final/1002_rv.mp4	0.0	235.96519112586975	
47	215.29856896400452	movie	1		244	45.0	2.5	/experiments/knapen_AOT/AOT_stimuli/rescaled_final/1002_rv.mp4	0.0	236.3816499710083	2.500347137451172
47	216.48236918449402	pulse	1	t		45.0	2.5	/experiments/knapen_AOT/AOT_stimuli/rescaled_final/1002_rv.mp4	0.0	237.5654501914978	
47	217.7989161014557	fix_post	2		12	45.0	2.5	/experiments/knapen_AOT/AOT_stimuli/rescaled_final/1002_rv.mp4	0.0	238.88199710845947	0.1000070571899414
48	217.89892315864563	fix_pre	0		120	46.0	2.5	/experiments/knapen_AOT/AOT_stimuli/rescaled_final/1729_fw.mp4	0.0	238.9820041656494	1.0001559257507324
48	218.08249711990356	pulse	0	t		46.0	2.5	/experiments/knapen_AOT/AOT_stimuli/rescaled_final/1729_fw.mp4	0.0	239.16557812690735	
48	218.89907908439636	movie	1		243	46.0	2.5	/experiments/knapen_AOT/AOT_stimuli/rescaled_final/1729_fw.mp4	0.0	239.98216009140015	2.5003459453582764
48	219.682785987854	pulse	1	t		46.0	2.5	/experiments/knapen_AOT/AOT_stimuli/rescaled_final/1729_fw.mp4	0.0	240.7658669948578	
48	221.28309297561646	pulse	1	t		46.0	2.5	/experiments/knapen_AOT/AOT_stimuli/rescaled_final/1729_fw.mp4	0.0	242.36617398262024	
48	221.39942502975464	fix_post	2		12	46.0	2.5	/experiments/knapen_AOT/AOT_stimuli/rescaled_final/1729_fw.mp4	0.0	242.48250603675842	0.10001993179321289
49	221.49944496154785	fix_pre	0		120	47.0	2.5	blank	1.0	242.58252596855164	1.0001611709594727
49	222.49960613250732	movie	1		299	47.0	2.5	blank	1.0	243.5826871395111	2.492133855819702
49	222.8831651210785	pulse	1	t		47.0	2.5	blank	1.0	243.96624612808228	
49	224.48343896865845	pulse	1	t		47.0	2.5	blank	1.0	245.56651997566223	
49	224.99173998832703	fix_post	2		12	47.0	2.5	blank	1.0	246.0748209953308	0.09999203681945801
50	225.09173202514648	fix_pre	0		120	48.0	2.5	/experiments/knapen_AOT/AOT_stimuli/rescaled_final/1383_fw.mp4	0.0	246.17481303215027	1.0001411437988281
50	226.08361315727234	pulse	0	t		48.0	2.5	/experiments/knapen_AOT/AOT_stimuli/rescaled_final/1383_fw.mp4	0.0	247.16669416427612	
50	226.0918731689453	movie	1		244	48.0	2.5	/experiments/knapen_AOT/AOT_stimuli/rescaled_final/1383_fw.mp4	0.0	247.1749541759491	2.508641004562378
50	227.68473601341248	pulse	1	t		48.0	2.5	/experiments/knapen_AOT/AOT_stimuli/rescaled_final/1383_fw.mp4	0.0	248.76781702041626	
50	228.6005141735077	fix_post	2		12	48.0	2.5	/experiments/knapen_AOT/AOT_stimuli/rescaled_final/1383_fw.mp4	0.0	249.68359518051147	0.1000068187713623
51	228.70052099227905	fix_pre	0		120	49.0	2.5	/experiments/knapen_AOT/AOT_stimuli/rescaled_final/0622_fw.mp4	0.0	249.78360199928284	1.000169038772583
51	229.28409695625305	pulse	0	t		49.0	2.5	/experiments/knapen_AOT/AOT_stimuli/rescaled_final/0622_fw.mp4	0.0	250.36717796325684	
51	229.70069003105164	movie	1		244	49.0	2.5	/experiments/knapen_AOT/AOT_stimuli/rescaled_final/0622_fw.mp4	0.0	250.78377103805542	2.5003719329833984
51	230.88452696800232	pulse	1	t		49.0	2.5	/experiments/knapen_AOT/AOT_stimuli/rescaled_final/0622_fw.mp4	0.0	251.9676079750061	
51	232.20106196403503	fix_post	2		12	49.0	2.5	/experiments/knapen_AOT/AOT_stimuli/rescaled_final/0622_fw.mp4	0.0	253.28414297103882	0.10001206398010254
52	232.30107402801514	fix_pre	0		120	50.0	2.5	/experiments/knapen_AOT/AOT_stimuli/rescaled_final/1358_fw.mp4	0.0	253.38415503501892	1.0001590251922607
52	232.4846580028534	pulse	0	t		50.0	2.5	/experiments/knapen_AOT/AOT_stimuli/rescaled_final/1358_fw.mp4	0.0	253.56773900985718	
52	233.3012330532074	movie	1		244	50.0	2.5	/experiments/knapen_AOT/AOT_stimuli/rescaled_final/1358_fw.mp4	0.0	254.38431406021118	2.500385046005249
52	234.08486413955688	pulse	1	t		50.0	2.5	/experiments/knapen_AOT/AOT_stimuli/rescaled_final/1358_fw.mp4	0.0	255.16794514656067	
52	235.68541502952576	pulse	1	t		50.0	2.5	/experiments/knapen_AOT/AOT_stimuli/rescaled_final/1358_fw.mp4	0.0	256.76849603652954	
52	235.80161809921265	fix_post	2		12	50.0	2.5	/experiments/knapen_AOT/AOT_stimuli/rescaled_final/1358_fw.mp4	0.0	256.88469910621643	0.09997701644897461
53	235.90159511566162	fix_pre	0		120	51.0	2.5	/experiments/knapen_AOT/AOT_stimuli/rescaled_final/0207_rv.mp4	0.0	256.9846761226654	1.0002179145812988
53	236.90181303024292	movie	1		243	51.0	2.5	/experiments/knapen_AOT/AOT_stimuli/rescaled_final/0207_rv.mp4	0.0	257.9848940372467	2.4919559955596924
53	237.2859070301056	pulse	1	t		51.0	2.5	/experiments/knapen_AOT/AOT_stimuli/rescaled_final/0207_rv.mp4	0.0	258.3689880371094	
53	238.8783040046692	pulse	1	t		51.0	2.5	/experiments/knapen_AOT/AOT_stimuli/rescaled_final/0207_rv.mp4	0.0	259.961385011673	
53	239.3937690258026	fix_post	2		12	51.0	2.5	/experiments/knapen_AOT/AOT_stimuli/rescaled_final/0207_rv.mp4	0.0	260.4768500328064	0.10004115104675293
54	239.49381017684937	fix_pre	0		120	52.0	2.5	/experiments/knapen_AOT/AOT_stimuli/rescaled_final/1079_rv.mp4	0.0	260.57689118385315	1.0001838207244873
54	240.4784061908722	pulse	0	t		52.0	2.5	/experiments/knapen_AOT/AOT_stimuli/rescaled_final/1079_rv.mp4	0.0	261.561487197876	
54	240.49399399757385	movie	1		244	52.0	2.5	/experiments/knapen_AOT/AOT_stimuli/rescaled_final/1079_rv.mp4	0.0	261.57707500457764	2.5086731910705566
54	242.08703112602234	pulse	1	t		52.0	2.5	/experiments/knapen_AOT/AOT_stimuli/rescaled_final/1079_rv.mp4	0.0	263.1701121330261	
54	243.0026671886444	fix_post	2		12	52.0	2.5	/experiments/knapen_AOT/AOT_stimuli/rescaled_final/1079_rv.mp4	0.0	264.0857481956482	0.10002279281616211
55	243.10268998146057	fix_pre	0		120	53.0	2.5	/experiments/knapen_AOT/AOT_stimuli/rescaled_final/1287_fw.mp4	0.0	264.18577098846436	1.0001440048217773
55	243.67812705039978	pulse	0	t		53.0	2.5	/experiments/knapen_AOT/AOT_stimuli/rescaled_final/1287_fw.mp4	0.0	264.76120805740356	
55	244.10283398628235	movie	1		244	53.0	2.5	/experiments/knapen_AOT/AOT_stimuli/rescaled_final/1287_fw.mp4	0.0	265.18591499328613	2.5003581047058105
55	245.27898716926575	pulse	1	t		53.0	2.5	/experiments/knapen_AOT/AOT_stimuli/rescaled_final/1287_fw.mp4	0.0	266.36206817626953	
55	246.60319209098816	fix_post	2		12	53.0	2.5	/experiments/knapen_AOT/AOT_stimuli/rescaled_final/1287_fw.mp4	0.0	267.68627309799194	0.10000801086425781
56	246.70320010185242	fix_pre	0		120	54.0	2.5	/experiments/knapen_AOT/AOT_stimuli/rescaled_final/1283_rv.mp4	0.0	267.7862811088562	1.0002620220184326
56	246.8783860206604	pulse	0	t		54.0	2.5	/experiments/knapen_AOT/AOT_stimuli/rescaled_final/1283_rv.mp4	0.0	267.9614670276642	
56	247.70346212387085	movie	1		243	54.0	2.5	/experiments/knapen_AOT/AOT_stimuli/rescaled_final/1283_rv.mp4	0.0	268.78654313087463	2.5007848739624023
56	248.47870802879333	pulse	1	t		54.0	2.5	/experiments/knapen_AOT/AOT_stimuli/rescaled_final/1283_rv.mp4	0.0	269.5617890357971	
56	250.0789761543274	pulse	1	t		54.0	2.5	/experiments/knapen_AOT/AOT_stimuli/rescaled_final/1283_rv.mp4	0.0	271.1620571613312	
56	250.20424699783325	fix_post	2		9	54.0	2.5	/experiments/knapen_AOT/AOT_stimuli/rescaled_final/1283_rv.mp4	0.0	271.28732800483704	0.09952402114868164
57	250.30377101898193	fix_pre	0		119	55.0	2.5	blank	1.0	271.3868520259857	0.9917960166931152
57	251.29556703567505	movie	1		300	55.0	2.5	blank	1.0	272.37864804267883	2.5003740787506104
57	251.6791009902954	pulse	1	t		55.0	2.5	blank	1.0	272.7621819972992	
57	253.27939915657043	pulse	1	t		55.0	2.5	blank	1.0	274.3624801635742	
57	253.79594111442566	fix_post	2		12	55.0	2.5	blank	1.0	274.87902212142944	0.10003089904785156
58	253.8959720134735	fix_pre	0		119	56.0	2.5	/experiments/knapen_AOT/AOT_stimuli/rescaled_final/0034_fw.mp4	0.0	274.9790530204773	0.9917941093444824
58	254.87962198257446	pulse	0	t		56.0	2.5	/experiments/knapen_AOT/AOT_stimuli/rescaled_final/0034_fw.mp4	0.0	275.96270298957825	
58	254.887766122818	movie	1		244	56.0	2.5	/experiments/knapen_AOT/AOT_stimuli/rescaled_final/0034_fw.mp4	0.0	275.9708471298218	2.508723020553589
58	256.4811441898346	pulse	1	t		56.0	2.5	/experiments/knapen_AOT/AOT_stimuli/rescaled_final/0034_fw.mp4	0.0	277.5642251968384	
58	257.3964891433716	fix_post	2		12	56.0	2.5	/experiments/knapen_AOT/AOT_stimuli/rescaled_final/0034_fw.mp4	0.0	278.47957015037537	0.09999990463256836
59	257.49648904800415	fix_pre	0		120	57.0	2.5	/experiments/knapen_AOT/AOT_stimuli/rescaled_final/0935_fw.mp4	0.0	278.57957005500793	1.0001630783081055
59	258.08006715774536	pulse	0	t		57.0	2.5	/experiments/knapen_AOT/AOT_stimuli/rescaled_final/0935_fw.mp4	0.0	279.16314816474915	
59	258.49665212631226	movie	1		243	57.0	2.5	/experiments/knapen_AOT/AOT_stimuli/rescaled_final/0935_fw.mp4	0.0	279.57973313331604	2.50034499168396
59	259.6806330680847	pulse	1	t		57.0	2.5	/experiments/knapen_AOT/AOT_stimuli/rescaled_final/0935_fw.mp4	0.0	280.7637140750885	
59	260.9969971179962	fix_post	2		12	57.0	2.5	/experiments/knapen_AOT/AOT_stimuli/rescaled_final/0935_fw.mp4	0.0	282.080078125	0.10003495216369629
60	261.0970320701599	fix_pre	0		120	58.0	2.5	/experiments/knapen_AOT/AOT_stimuli/rescaled_final/0507_fw.mp4	0.0	282.1801130771637	1.0001449584960938
60	261.2806510925293	pulse	0	t		58.0	2.5	/experiments/knapen_AOT/AOT_stimuli/rescaled_final/0507_fw.mp4	0.0	282.3637320995331	
60	262.097177028656	movie	1		243	58.0	2.5	/experiments/knapen_AOT/AOT_stimuli/rescaled_final/0507_fw.mp4	0.0	283.1802580356598	2.5003881454467773
60	262.88083004951477	pulse	1	t		58.0	2.5	/experiments/knapen_AOT/AOT_stimuli/rescaled_final/0507_fw.mp4	0.0	283.96391105651855	
60	264.4812321662903	pulse	1	t		58.0	2.5	/experiments/knapen_AOT/AOT_stimuli/rescaled_final/0507_fw.mp4	0.0	285.56431317329407	
60	264.5975651741028	fix_post	2		12	58.0	2.5	/experiments/knapen_AOT/AOT_stimuli/rescaled_final/0507_fw.mp4	0.0	285.68064618110657	0.09999895095825195
61	264.69756412506104	fix_pre	0		120	59.0	2.5	/experiments/knapen_AOT/AOT_stimuli/rescaled_final/0913_fw.mp4	0.0	285.7806451320648	1.0001380443572998
61	265.69770216941833	movie	1		243	59.0	2.5	/experiments/knapen_AOT/AOT_stimuli/rescaled_final/0913_fw.mp4	0.0	286.7807831764221	2.492051839828491
61	266.08198618888855	pulse	1	t		59.0	2.5	/experiments/knapen_AOT/AOT_stimuli/rescaled_final/0913_fw.mp4	0.0	287.16506719589233	
61	267.68162512779236	pulse	1	t		59.0	2.5	/experiments/knapen_AOT/AOT_stimuli/rescaled_final/0913_fw.mp4	0.0	288.76470613479614	
61	268.1897540092468	fix_post	2		12	59.0	2.5	/experiments/knapen_AOT/AOT_stimuli/rescaled_final/0913_fw.mp4	0.0	289.2728350162506	0.10000896453857422
62	268.2897629737854	fix_pre	0		120	60.0	2.5	/experiments/knapen_AOT/AOT_stimuli/rescaled_final/1560_rv.mp4	0.0	289.3728439807892	1.0001721382141113
62	269.2817590236664	pulse	0	t		60.0	2.5	/experiments/knapen_AOT/AOT_stimuli/rescaled_final/1560_rv.mp4	0.0	290.36484003067017	
62	269.2899351119995	movie	1		246	60.0	2.5	/experiments/knapen_AOT/AOT_stimuli/rescaled_final/1560_rv.mp4	0.0	290.3730161190033	2.508702039718628
62	270.88404607772827	pulse	1	t		60.0	2.5	/experiments/knapen_AOT/AOT_stimuli/rescaled_final/1560_rv.mp4	0.0	291.96712708473206	
62	271.79863715171814	fix_post	2		12	60.0	2.5	/experiments/knapen_AOT/AOT_stimuli/rescaled_final/1560_rv.mp4	0.0	292.8817181587219	0.10007381439208984
63	271.89871096611023	fix_pre	0		120	61.0	2.5	/experiments/knapen_AOT/AOT_stimuli/rescaled_final/0202_rv.mp4	0.0	292.981791973114	1.000096082687378
63	272.48223900794983	pulse	0	t		61.0	2.5	/experiments/knapen_AOT/AOT_stimuli/rescaled_final/0202_rv.mp4	0.0	293.5653200149536	
63	272.8988070487976	movie	1		244	61.0	2.5	/experiments/knapen_AOT/AOT_stimuli/rescaled_final/0202_rv.mp4	0.0	293.9818880558014	2.500370979309082
63	274.08269596099854	pulse	1	t		61.0	2.5	/experiments/knapen_AOT/AOT_stimuli/rescaled_final/0202_rv.mp4	0.0	295.1657769680023	
63	275.3991780281067	fix_post	2		12	61.0	2.5	/experiments/knapen_AOT/AOT_stimuli/rescaled_final/0202_rv.mp4	0.0	296.4822590351105	0.10001993179321289
64	275.4991979598999	fix_pre	0		120	62.0	2.5	blank	1.0	296.5822789669037	1.0001540184020996
64	275.68285608291626	pulse	0	t		62.0	2.5	blank	1.0	296.76593708992004	
64	276.499351978302	movie	1		300	62.0	2.5	blank	1.0	297.5824329853058	2.50034499168396
64	277.28306102752686	pulse	1	t		62.0	2.5	blank	1.0	298.36614203453064	
64	278.88312816619873	pulse	1	t		62.0	2.5	blank	1.0	299.9662091732025	
64	278.99969696998596	fix_post	2		12	62.0	2.5	blank	1.0	300.08277797698975	0.10004806518554688
65	279.0997450351715	fix_pre	0		120	63.0	2.5	/experiments/knapen_AOT/AOT_stimuli/rescaled_final/1940_rv.mp4	0.0	300.1828260421753	1.0001640319824219
65	280.09990906715393	movie	1		243	63.0	2.5	/experiments/knapen_AOT/AOT_stimuli/rescaled_final/1940_rv.mp4	0.0	301.1829900741577	2.4920239448547363
65	280.4839839935303	pulse	1	t		63.0	2.5	/experiments/knapen_AOT/AOT_stimuli/rescaled_final/1940_rv.mp4	0.0	301.56706500053406	
65	282.08383297920227	pulse	1	t		63.0	2.5	/experiments/knapen_AOT/AOT_stimuli/rescaled_final/1940_rv.mp4	0.0	303.16691398620605	
65	282.59193301200867	fix_post	2		12	63.0	2.5	/experiments/knapen_AOT/AOT_stimuli/rescaled_final/1940_rv.mp4	0.0	303.67501401901245	0.09999513626098633
66	282.69192814826965	fix_pre	0		120	64.0	2.5	/experiments/knapen_AOT/AOT_stimuli/rescaled_final/1826_fw.mp4	0.0	303.77500915527344	1.000119924545288
66	283.6840350627899	pulse	0	t		64.0	2.5	/experiments/knapen_AOT/AOT_stimuli/rescaled_final/1826_fw.mp4	0.0	304.7671160697937	
66	283.69204807281494	movie	1		246	64.0	2.5	/experiments/knapen_AOT/AOT_stimuli/rescaled_final/1826_fw.mp4	0.0	304.7751290798187	2.508708953857422
66	285.2850241661072	pulse	1	t		64.0	2.5	/experiments/knapen_AOT/AOT_stimuli/rescaled_final/1826_fw.mp4	0.0	306.36810517311096	
66	286.20075702667236	fix_post	2		12	64.0	2.5	/experiments/knapen_AOT/AOT_stimuli/rescaled_final/1826_fw.mp4	0.0	307.28383803367615	0.1000511646270752
67	286.30080819129944	fix_pre	0		120	65.0	2.5	/experiments/knapen_AOT/AOT_stimuli/rescaled_final/0234_rv.mp4	0.0	307.3838891983032	1.0001308917999268
67	286.88439416885376	pulse	0	t		65.0	2.5	/experiments/knapen_AOT/AOT_stimuli/rescaled_final/0234_rv.mp4	0.0	307.96747517585754	
67	287.30093908309937	movie	1		245	65.0	2.5	/experiments/knapen_AOT/AOT_stimuli/rescaled_final/0234_rv.mp4	0.0	308.38402009010315	2.5003700256347656
67	288.48487997055054	pulse	1	t		65.0	2.5	/experiments/knapen_AOT/AOT_stimuli/rescaled_final/0234_rv.mp4	0.0	309.5679609775543	
67	289.80130910873413	fix_post	2		12	65.0	2.5	/experiments/knapen_AOT/AOT_stimuli/rescaled_final/0234_rv.mp4	0.0	310.8843901157379	0.10003900527954102
68	289.9013481140137	fix_pre	0		120	66.0	2.5	/experiments/knapen_AOT/AOT_stimuli/rescaled_final/0613_fw.mp4	0.0	310.98442912101746	1.0001180171966553
68	290.08494901657104	pulse	0	t		66.0	2.5	/experiments/knapen_AOT/AOT_stimuli/rescaled_final/0613_fw.mp4	0.0	311.16803002357483	
68	290.9014661312103	movie	1		243	66.0	2.5	/experiments/knapen_AOT/AOT_stimuli/rescaled_final/0613_fw.mp4	0.0	311.9845471382141	2.500396966934204
68	291.6778521537781	pulse	1	t		66.0	2.5	/experiments/knapen_AOT/AOT_stimuli/rescaled_final/0613_fw.mp4	0.0	312.76093316078186	
68	293.2853741645813	pulse	1	t		66.0	2.5	/experiments/knapen_AOT/AOT_stimuli/rescaled_final/0613_fw.mp4	0.0	314.3684551715851	
68	293.40186309814453	fix_post	2		12	66.0	2.5	/experiments/knapen_AOT/AOT_stimuli/rescaled_final/0613_fw.mp4	0.0	314.4849441051483	0.10000801086425781
69	293.5018711090088	fix_pre	0		120	67.0	2.5	/experiments/knapen_AOT/AOT_stimuli/rescaled_final/1105_fw.mp4	0.0	314.5849521160126	1.000180959701538
69	294.5020520687103	movie	1		242	67.0	2.5	/experiments/knapen_AOT/AOT_stimuli/rescaled_final/1105_fw.mp4	0.0	315.5851330757141	2.4919700622558594
69	294.8861041069031	pulse	1	t		67.0	2.5	/experiments/knapen_AOT/AOT_stimuli/rescaled_final/1105_fw.mp4	0.0	315.96918511390686	
69	296.4784541130066	pulse	1	t		67.0	2.5	/experiments/knapen_AOT/AOT_stimuli/rescaled_final/1105_fw.mp4	0.0	317.5615351200104	
69	296.9940221309662	fix_post	2		12	67.0	2.5	/experiments/knapen_AOT/AOT_stimuli/rescaled_final/1105_fw.mp4	0.0	318.07710313796997	0.10005593299865723
70	297.09407806396484	fix_pre	0		119	68.0	2.5	blank	1.0	318.1771590709686	0.9918138980865479
70	298.0778081417084	pulse	0	t		68.0	2.5	blank	1.0	319.16088914871216	
70	298.0858919620514	movie	1		301	68.0	2.5	blank	1.0	319.1689729690552	2.508759021759033
70	299.6779320240021	pulse	1	t		68.0	2.5	blank	1.0	320.76101303100586	
70	300.5946509838104	fix_post	2		12	68.0	2.5	blank	1.0	321.6777319908142	0.09993505477905273
71	300.6945860385895	fix_pre	0		120	69.0	2.5	/experiments/knapen_AOT/AOT_stimuli/rescaled_final/0905_fw.mp4	0.0	321.77766704559326	1.0001609325408936
71	301.278156042099	pulse	0	t		69.0	2.5	/experiments/knapen_AOT/AOT_stimuli/rescaled_final/0905_fw.mp4	0.0	322.3612370491028	
71	301.69474697113037	movie	1		248	69.0	2.5	/experiments/knapen_AOT/AOT_stimuli/rescaled_final/0905_fw.mp4	0.0	322.77782797813416	2.5003740787506104
71	302.87857007980347	pulse	1	t		69.0	2.5	/experiments/knapen_AOT/AOT_stimuli/rescaled_final/0905_fw.mp4	0.0	323.96165108680725	
71	304.195121049881	fix_post	2		12	69.0	2.5	/experiments/knapen_AOT/AOT_stimuli/rescaled_final/0905_fw.mp4	0.0	325.27820205688477	0.1000220775604248
72	304.2951431274414	fix_pre	0		120	70.0	2.5	/experiments/knapen_AOT/AOT_stimuli/rescaled_final/1820_fw.mp4	0.0	325.3782241344452	1.0001740455627441
72	304.47870111465454	pulse	0	t		70.0	2.5	/experiments/knapen_AOT/AOT_stimuli/rescaled_final/1820_fw.mp4	0.0	325.5617821216583	
72	305.29531717300415	movie	1		245	70.0	2.5	/experiments/knapen_AOT/AOT_stimuli/rescaled_final/1820_fw.mp4	0.0	326.37839818000793	2.500347852706909
72	306.0790491104126	pulse	1	t		70.0	2.5	/experiments/knapen_AOT/AOT_stimuli/rescaled_final/1820_fw.mp4	0.0	327.1621301174164	
72	307.679160118103	pulse	1	t		70.0	2.5	/experiments/knapen_AOT/AOT_stimuli/rescaled_final/1820_fw.mp4	0.0	328.7622411251068	
72	307.79566502571106	fix_post	2		12	70.0	2.5	/experiments/knapen_AOT/AOT_stimuli/rescaled_final/1820_fw.mp4	0.0	328.87874603271484	0.09998106956481934
73	307.8956460952759	fix_pre	0		120	71.0	2.5	/experiments/knapen_AOT/AOT_stimuli/rescaled_final/2009_fw.mp4	0.0	328.97872710227966	1.0002210140228271
73	308.8958671092987	movie	1		242	71.0	2.5	/experiments/knapen_AOT/AOT_stimuli/rescaled_final/2009_fw.mp4	0.0	329.9789481163025	2.4919779300689697
73	309.2808711528778	pulse	1	t		71.0	2.5	/experiments/knapen_AOT/AOT_stimuli/rescaled_final/2009_fw.mp4	0.0	330.3639521598816	
73	310.87962102890015	pulse	1	t		71.0	2.5	/experiments/knapen_AOT/AOT_stimuli/rescaled_final/2009_fw.mp4	0.0	331.96270203590393	
73	311.3878450393677	fix_post	2		12	71.0	2.5	/experiments/knapen_AOT/AOT_stimuli/rescaled_final/2009_fw.mp4	0.0	332.47092604637146	0.1000220775604248
74	311.4878671169281	fix_pre	0		120	72.0	2.5	/experiments/knapen_AOT/AOT_stimuli/rescaled_final/1794_fw.mp4	0.0	332.5709481239319	1.000148057937622
74	312.4800591468811	pulse	0	t		72.0	2.5	/experiments/knapen_AOT/AOT_stimuli/rescaled_final/1794_fw.mp4	0.0	333.5631401538849	
74	312.4880151748657	movie	1		247	72.0	2.5	/experiments/knapen_AOT/AOT_stimuli/rescaled_final/1794_fw.mp4	0.0	333.5710961818695	2.508713960647583
74	314.0809471607208	pulse	1	t		72.0	2.5	/experiments/knapen_AOT/AOT_stimuli/rescaled_final/1794_fw.mp4	0.0	335.1640281677246	
74	314.9967291355133	fix_post	2		12	72.0	2.5	/experiments/knapen_AOT/AOT_stimuli/rescaled_final/1794_fw.mp4	0.0	336.0798101425171	0.10011005401611328
75	315.0968391895294	fix_pre	0		120	73.0	2.5	/experiments/knapen_AOT/AOT_stimuli/rescaled_final/0963_rv.mp4	0.0	336.1799201965332	1.0000598430633545
75	315.68037605285645	pulse	0	t		73.0	2.5	/experiments/knapen_AOT/AOT_stimuli/rescaled_final/0963_rv.mp4	0.0	336.76345705986023	
75	316.0968990325928	movie	1		244	73.0	2.5	/experiments/knapen_AOT/AOT_stimuli/rescaled_final/0963_rv.mp4	0.0	337.17998003959656	2.500373125076294
75	317.2806770801544	pulse	1	t		73.0	2.5	/experiments/knapen_AOT/AOT_stimuli/rescaled_final/0963_rv.mp4	0.0	338.3637580871582	
75	318.59727215766907	fix_post	2		12	73.0	2.5	/experiments/knapen_AOT/AOT_stimuli/rescaled_final/0963_rv.mp4	0.0	339.68035316467285	0.10002398490905762
76	318.6972961425781	fix_pre	0		120	74.0	2.5	/experiments/knapen_AOT/AOT_stimuli/rescaled_final/0887_fw.mp4	0.0	339.7803771495819	1.0001349449157715
76	318.8808500766754	pulse	0	t		74.0	2.5	/experiments/knapen_AOT/AOT_stimuli/rescaled_final/0887_fw.mp4	0.0	339.9639310836792	
76	319.6974310874939	movie	1		244	74.0	2.5	/experiments/knapen_AOT/AOT_stimuli/rescaled_final/0887_fw.mp4	0.0	340.7805120944977	2.5004069805145264
76	320.48114013671875	pulse	1	t		74.0	2.5	/experiments/knapen_AOT/AOT_stimuli/rescaled_final/0887_fw.mp4	0.0	341.56422114372253	
76	322.08138704299927	pulse	1	t		74.0	2.5	/experiments/knapen_AOT/AOT_stimuli/rescaled_final/0887_fw.mp4	0.0	343.16446805000305	
76	322.1978380680084	fix_post	2		12	74.0	2.5	/experiments/knapen_AOT/AOT_stimuli/rescaled_final/0887_fw.mp4	0.0	343.2809190750122	0.09996700286865234
77	322.2978050708771	fix_pre	0		120	75.0	2.5	blank	1.0	343.38088607788086	1.0001540184020996
77	323.2979590892792	movie	1		299	75.0	2.5	blank	1.0	344.38104009628296	2.4921040534973145
77	323.68161702156067	pulse	1	t		75.0	2.5	blank	1.0	344.76469802856445	
77	325.281809091568	pulse	1	t		75.0	2.5	blank	1.0	346.3648900985718	
77	325.7900631427765	fix_post	2		12	75.0	2.5	blank	1.0	346.8731441497803	0.09996891021728516
78	325.8900320529938	fix_pre	0		120	76.0	2.5	/experiments/knapen_AOT/AOT_stimuli/rescaled_final/1867_fw.mp4	0.0	346.97311305999756	1.0001370906829834
78	326.88218212127686	pulse	0	t		76.0	2.5	/experiments/knapen_AOT/AOT_stimuli/rescaled_final/1867_fw.mp4	0.0	347.96526312828064	
78	326.89016914367676	movie	1		246	76.0	2.5	/experiments/knapen_AOT/AOT_stimuli/rescaled_final/1867_fw.mp4	0.0	347.97325015068054	2.508729934692383
78	328.48298811912537	pulse	1	t		76.0	2.5	/experiments/knapen_AOT/AOT_stimuli/rescaled_final/1867_fw.mp4	0.0	349.56606912612915	
78	329.39889907836914	fix_post	2		12	76.0	2.5	/experiments/knapen_AOT/AOT_stimuli/rescaled_final/1867_fw.mp4	0.0	350.4819800853729	0.09998893737792969
79	329.49888801574707	fix_pre	0		120	77.0	2.5	/experiments/knapen_AOT/AOT_stimuli/rescaled_final/0963_fw.mp4	0.0	350.58196902275085	1.0001771450042725
79	330.0826439857483	pulse	0	t		77.0	2.5	/experiments/knapen_AOT/AOT_stimuli/rescaled_final/0963_fw.mp4	0.0	351.1657249927521	
79	330.49906516075134	movie	1		244	77.0	2.5	/experiments/knapen_AOT/AOT_stimuli/rescaled_final/0963_fw.mp4	0.0	351.5821461677551	2.5003089904785156
79	331.6828420162201	pulse	1	t		77.0	2.5	/experiments/knapen_AOT/AOT_stimuli/rescaled_final/0963_fw.mp4	0.0	352.7659230232239	
79	332.99937415122986	fix_post	2		12	77.0	2.5	/experiments/knapen_AOT/AOT_stimuli/rescaled_final/0963_fw.mp4	0.0	354.08245515823364	0.10005903244018555
80	333.09943318367004	fix_pre	0		120	78.0	2.5	/experiments/knapen_AOT/AOT_stimuli/rescaled_final/0038_fw.mp4	0.0	354.1825141906738	1.0001349449157715
80	333.283007144928	pulse	0	t		78.0	2.5	/experiments/knapen_AOT/AOT_stimuli/rescaled_final/0038_fw.mp4	0.0	354.36608815193176	
80	334.0995681285858	movie	1		244	78.0	2.5	/experiments/knapen_AOT/AOT_stimuli/rescaled_final/0038_fw.mp4	0.0	355.1826491355896	2.5003838539123535
80	334.8831980228424	pulse	1	t		78.0	2.5	/experiments/knapen_AOT/AOT_stimuli/rescaled_final/0038_fw.mp4	0.0	355.9662790298462	
80	336.48352098464966	pulse	1	t		78.0	2.5	/experiments/knapen_AOT/AOT_stimuli/rescaled_final/0038_fw.mp4	0.0	357.56660199165344	
80	336.59995198249817	fix_post	2		12	78.0	2.5	/experiments/knapen_AOT/AOT_stimuli/rescaled_final/0038_fw.mp4	0.0	357.68303298950195	0.10005617141723633
81	336.7000081539154	fix_pre	0		120	79.0	2.5	/experiments/knapen_AOT/AOT_stimuli/rescaled_final/0512_rv.mp4	0.0	357.7830891609192	1.00010085105896
81	337.70010900497437	movie	1		243	79.0	2.5	/experiments/knapen_AOT/AOT_stimuli/rescaled_final/0512_rv.mp4	0.0	358.78319001197815	2.492016077041626
81	338.0849361419678	pulse	1	t		79.0	2.5	/experiments/knapen_AOT/AOT_stimuli/rescaled_final/0512_rv.mp4	0.0	359.16801714897156	
81	339.68394804000854	pulse	1	t		79.0	2.5	/experiments/knapen_AOT/AOT_stimuli/rescaled_final/0512_rv.mp4	0.0	360.76702904701233	
81	340.192125082016	fix_post	2		12	79.0	2.5	/experiments/knapen_AOT/AOT_stimuli/rescaled_final/0512_rv.mp4	0.0	361.2752060890198	0.10002493858337402
82	340.29215002059937	fix_pre	0		120	80.0	2.5	/experiments/knapen_AOT/AOT_stimuli/rescaled_final/1287_fw.mp4	0.0	361.37523102760315	1.00018310546875
82	341.2841320037842	pulse	0	t		80.0	2.5	/experiments/knapen_AOT/AOT_stimuli/rescaled_final/1287_fw.mp4	0.0	362.36721301078796	
82	341.2923331260681	movie	1		245	80.0	2.5	/experiments/knapen_AOT/AOT_stimuli/rescaled_final/1287_fw.mp4	0.0	362.3754141330719	2.508699893951416
82	342.8853511810303	pulse	1	t		80.0	2.5	/experiments/knapen_AOT/AOT_stimuli/rescaled_final/1287_fw.mp4	0.0	363.96843218803406	
82	343.80103302001953	fix_post	2		12	80.0	2.5	/experiments/knapen_AOT/AOT_stimuli/rescaled_final/1287_fw.mp4	0.0	364.8841140270233	0.09999799728393555
83	343.90103101730347	fix_pre	0		120	81.0	2.5	/experiments/knapen_AOT/AOT_stimuli/rescaled_final/1939_rv.mp4	0.0	364.98411202430725	1.0001881122589111
83	344.48470306396484	pulse	0	t		81.0	2.5	/experiments/knapen_AOT/AOT_stimuli/rescaled_final/1939_rv.mp4	0.0	365.5677840709686	
83	344.9012191295624	movie	1		245	81.0	2.5	/experiments/knapen_AOT/AOT_stimuli/rescaled_final/1939_rv.mp4	0.0	365.98430013656616	2.500342845916748
83	346.0849380493164	pulse	1	t		81.0	2.5	/experiments/knapen_AOT/AOT_stimuli/rescaled_final/1939_rv.mp4	0.0	367.1680190563202	
83	347.4015619754791	fix_post	2		12	81.0	2.5	/experiments/knapen_AOT/AOT_stimuli/rescaled_final/1939_rv.mp4	0.0	368.4846429824829	0.10007500648498535
84	347.5016369819641	fix_pre	0		120	82.0	2.5	/experiments/knapen_AOT/AOT_stimuli/rescaled_final/1642_rv.mp4	0.0	368.5847179889679	1.0001521110534668
84	347.6851279735565	pulse	0	t		82.0	2.5	/experiments/knapen_AOT/AOT_stimuli/rescaled_final/1642_rv.mp4	0.0	368.7682089805603	
84	348.5017890930176	movie	1		245	82.0	2.5	/experiments/knapen_AOT/AOT_stimuli/rescaled_final/1642_rv.mp4	0.0	369.58487010002136	2.500314950942993
84	349.2853829860687	pulse	1	t		82.0	2.5	/experiments/knapen_AOT/AOT_stimuli/rescaled_final/1642_rv.mp4	0.0	370.3684639930725	
84	350.8857560157776	pulse	1	t		82.0	2.5	/experiments/knapen_AOT/AOT_stimuli/rescaled_final/1642_rv.mp4	0.0	371.9688370227814	
84	351.00210404396057	fix_post	2		12	82.0	2.5	/experiments/knapen_AOT/AOT_stimuli/rescaled_final/1642_rv.mp4	0.0	372.08518505096436	0.10000205039978027
85	351.10210609436035	fix_pre	0		119	83.0	2.5	blank	1.0	372.18518710136414	0.9918110370635986
85	352.09391713142395	movie	1		300	83.0	2.5	blank	1.0	373.17699813842773	2.5003979206085205
85	352.4783821105957	pulse	1	t		83.0	2.5	blank	1.0	373.5614631175995	
85	354.078586101532	pulse	1	t		83.0	2.5	blank	1.0	375.16166710853577	
85	354.59431505203247	fix_post	2		12	83.0	2.5	blank	1.0	375.67739605903625	0.10002708435058594
87	354.69434213638306	stim	0		1716					375.77742314338684	14.302284955978394
87	355.67906308174133	pulse	0	t						376.7621440887451	
87	357.27917313575745	pulse	0	t						378.36225414276123	
87	358.8783881664276	pulse	0	t						379.9614691734314	
87	360.47870802879333	pulse	0	t						381.5617890357971	
87	362.07895016670227	pulse	0	t						383.16203117370605	
87	363.6791021823883	pulse	0	t						384.7621831893921	
87	365.2794051170349	pulse	0	t						386.3624861240387	
87	366.8796429634094	pulse	0	t						387.9627239704132	
87	368.4798469543457	pulse	0	t						389.5629279613495	
