trial_nr	onset	event_type	phase	response	nr_frames	movie_index	movie_duration	movie_file	blank	onset_abs	duration
0	0.1916675567626953	stim	0		1					31.85655450820923	0.03320908546447754
0	0.13165974617004395	response	0	space						31.796546697616577	
1	0.22487664222717285	stim	0		4667					31.889763593673706	38.90642857551575
1	39.118863344192505	pulse	0	t						70.78375029563904	
1	39.13130521774292	stim	1		1715					70.79619216918945	14.301549434661865
1	40.71451473236084	pulse	1	t						72.37940168380737	
1	42.31472301483154	pulse	1	t						73.97960996627808	
1	43.91504955291748	pulse	1	t						75.57993650436401	
1	45.5151572227478	pulse	1	t						77.18004417419434	
1	47.11537575721741	pulse	1	t						78.78026270866394	
1	48.7156765460968	pulse	1	t						80.38056349754333	
1	50.31596755981445	pulse	1	t						81.98085451126099	
1	51.91619420051575	pulse	1	t						83.58108115196228	
2	53.432854652404785	fix_pre	0		6	0.0	2.5	/experiments/knapen_AOT/AOT_stimuli/rescaled_final/1375_rv.mp4	0.0	85.09774160385132	0.1668229103088379
2	53.5164430141449	pulse	0	t		0.0	2.5	/experiments/knapen_AOT/AOT_stimuli/rescaled_final/1375_rv.mp4	0.0	85.18132996559143	
2	53.59967756271362	movie	1		282	0.0	2.5	/experiments/knapen_AOT/AOT_stimuli/rescaled_final/1375_rv.mp4	0.0	85.26456451416016	2.4503116607666016
2	55.112972259521484	pulse	1	t		0.0	2.5	/experiments/knapen_AOT/AOT_stimuli/rescaled_final/1375_rv.mp4	0.0	86.77785921096802	
2	56.049989223480225	fix_post	2		12	0.0	2.5	/experiments/knapen_AOT/AOT_stimuli/rescaled_final/1375_rv.mp4	0.0	87.71487617492676	0.0999760627746582
3	56.14996528625488	fix_pre	0		120	1.0	2.5	/experiments/knapen_AOT/AOT_stimuli/rescaled_final/1985_rv.mp4	0.0	87.81485223770142	1.0084972381591797
3	56.71695899963379	pulse	0	t		1.0	2.5	/experiments/knapen_AOT/AOT_stimuli/rescaled_final/1985_rv.mp4	0.0	88.38184595108032	
3	57.15846252441406	movie	1		280	1.0	2.5	/experiments/knapen_AOT/AOT_stimuli/rescaled_final/1985_rv.mp4	0.0	88.8233494758606	2.4920461177825928
3	58.3159236907959	pulse	1	t		1.0	2.5	/experiments/knapen_AOT/AOT_stimuli/rescaled_final/1985_rv.mp4	0.0	89.98081064224243	
3	59.650508642196655	fix_post	2		12	1.0	2.5	/experiments/knapen_AOT/AOT_stimuli/rescaled_final/1985_rv.mp4	0.0	91.31539559364319	0.10000181198120117
4	59.750510454177856	fix_pre	0		120	2.0	2.5	/experiments/knapen_AOT/AOT_stimuli/rescaled_final/1415_fw.mp4	0.0	91.41539740562439	1.0168015956878662
4	59.91731405258179	pulse	0	t		2.0	2.5	/experiments/knapen_AOT/AOT_stimuli/rescaled_final/1415_fw.mp4	0.0	91.58220100402832	
4	60.76731204986572	movie	1		282	2.0	2.5	/experiments/knapen_AOT/AOT_stimuli/rescaled_final/1415_fw.mp4	0.0	92.43219900131226	2.483701229095459
4	61.513733863830566	pulse	1	t		2.0	2.5	/experiments/knapen_AOT/AOT_stimuli/rescaled_final/1415_fw.mp4	0.0	93.1786208152771	
4	63.11601400375366	pulse	1	t		2.0	2.5	/experiments/knapen_AOT/AOT_stimuli/rescaled_final/1415_fw.mp4	0.0	94.7809009552002	
4	63.25101327896118	fix_post	2		12	2.0	2.5	/experiments/knapen_AOT/AOT_stimuli/rescaled_final/1415_fw.mp4	0.0	94.91590023040771	0.1000213623046875
5	63.35103464126587	fix_pre	0		120	3.0	2.5	/experiments/knapen_AOT/AOT_stimuli/rescaled_final/1418_rv.mp4	0.0	95.0159215927124	1.0084996223449707
5	64.35953426361084	movie	1		288	3.0	2.5	/experiments/knapen_AOT/AOT_stimuli/rescaled_final/1418_rv.mp4	0.0	96.02442121505737	2.4836769104003906
5	64.71396589279175	pulse	1	t		3.0	2.5	/experiments/knapen_AOT/AOT_stimuli/rescaled_final/1418_rv.mp4	0.0	96.37885284423828	
5	66.31752252578735	pulse	1	t		3.0	2.5	/experiments/knapen_AOT/AOT_stimuli/rescaled_final/1418_rv.mp4	0.0	97.98240947723389	
5	66.84321117401123	fix_post	2		12	3.0	2.5	/experiments/knapen_AOT/AOT_stimuli/rescaled_final/1418_rv.mp4	0.0	98.50809812545776	0.10018110275268555
6	66.94339227676392	fix_pre	0		118	4.0	2.5	/experiments/knapen_AOT/AOT_stimuli/rescaled_final/0431_rv.mp4	0.0	98.60827922821045	0.991640567779541
6	67.9187502861023	pulse	0	t		4.0	2.5	/experiments/knapen_AOT/AOT_stimuli/rescaled_final/0431_rv.mp4	0.0	99.58363723754883	
6	67.93503284454346	movie	1		295	4.0	2.5	/experiments/knapen_AOT/AOT_stimuli/rescaled_final/0431_rv.mp4	0.0	99.59991979598999	2.500413656234741
6	69.51463603973389	pulse	1	t		4.0	2.5	/experiments/knapen_AOT/AOT_stimuli/rescaled_final/0431_rv.mp4	0.0	101.17952299118042	
6	70.4354465007782	fix_post	2		12	4.0	2.5	/experiments/knapen_AOT/AOT_stimuli/rescaled_final/0431_rv.mp4	0.0	102.10033345222473	0.1001596450805664
7	70.53560614585876	fix_pre	0		120	5.0	2.5	/experiments/knapen_AOT/AOT_stimuli/rescaled_final/0206_fw.mp4	0.0	102.2004930973053	1.0167558193206787
7	71.11086773872375	pulse	0	t		5.0	2.5	/experiments/knapen_AOT/AOT_stimuli/rescaled_final/0206_fw.mp4	0.0	102.77575469017029	
7	71.55236196517944	movie	1		294	5.0	2.5	/experiments/knapen_AOT/AOT_stimuli/rescaled_final/0206_fw.mp4	0.0	103.21724891662598	2.483635187149048
7	72.71096205711365	pulse	1	t		5.0	2.5	/experiments/knapen_AOT/AOT_stimuli/rescaled_final/0206_fw.mp4	0.0	104.37584900856018	
7	74.03599715232849	fix_post	2		12	5.0	2.5	/experiments/knapen_AOT/AOT_stimuli/rescaled_final/0206_fw.mp4	0.0	105.70088410377502	0.10012316703796387
8	74.13612031936646	fix_pre	0		120	6.0	2.5	blank	1.0	105.80100727081299	1.000018835067749
8	74.31124091148376	pulse	0	t		6.0	2.5	blank	1.0	105.9761278629303	
8	75.1361391544342	movie	1		300	6.0	2.5	blank	1.0	106.80102610588074	2.5004212856292725
8	75.91147232055664	pulse	1	t		6.0	2.5	blank	1.0	107.57635927200317	
8	77.51171708106995	pulse	1	t		6.0	2.5	blank	1.0	109.17660403251648	
8	77.63656044006348	fix_post	2		12	6.0	2.5	blank	1.0	109.30144739151001	0.10002422332763672
9	77.73658466339111	fix_pre	0		120	7.0	2.5	/experiments/knapen_AOT/AOT_stimuli/rescaled_final/0464_fw.mp4	0.0	109.40147161483765	1.016887903213501
9	78.75347256660461	movie	1		272	7.0	2.5	/experiments/knapen_AOT/AOT_stimuli/rescaled_final/0464_fw.mp4	0.0	110.41835951805115	2.4836108684539795
9	79.11199045181274	pulse	1	t		7.0	2.5	/experiments/knapen_AOT/AOT_stimuli/rescaled_final/0464_fw.mp4	0.0	110.77687740325928	
9	80.71278023719788	pulse	1	t		7.0	2.5	/experiments/knapen_AOT/AOT_stimuli/rescaled_final/0464_fw.mp4	0.0	112.37766718864441	
9	81.2370834350586	fix_post	2		12	7.0	2.5	/experiments/knapen_AOT/AOT_stimuli/rescaled_final/0464_fw.mp4	0.0	112.90197038650513	0.1000206470489502
10	81.33710408210754	fix_pre	0		118	8.0	2.5	/experiments/knapen_AOT/AOT_stimuli/rescaled_final/0277_fw.mp4	0.0	113.00199103355408	1.0088789463043213
10	82.31265234947205	pulse	0	t		8.0	2.5	/experiments/knapen_AOT/AOT_stimuli/rescaled_final/0277_fw.mp4	0.0	113.97753930091858	
10	82.34598302841187	movie	1		276	8.0	2.5	/experiments/knapen_AOT/AOT_stimuli/rescaled_final/0277_fw.mp4	0.0	114.0108699798584	2.4833366870880127
10	83.91285395622253	pulse	1	t		8.0	2.5	/experiments/knapen_AOT/AOT_stimuli/rescaled_final/0277_fw.mp4	0.0	115.57774090766907	
10	84.82931971549988	fix_post	2		12	8.0	2.5	/experiments/knapen_AOT/AOT_stimuli/rescaled_final/0277_fw.mp4	0.0	116.49420666694641	0.10001182556152344
11	84.9293315410614	fix_pre	0		120	9.0	2.5	/experiments/knapen_AOT/AOT_stimuli/rescaled_final/0014_fw.mp4	0.0	116.59421849250793	1.0253510475158691
11	85.51308345794678	pulse	0	t		9.0	2.5	/experiments/knapen_AOT/AOT_stimuli/rescaled_final/0014_fw.mp4	0.0	117.17797040939331	
11	85.95468258857727	movie	1		260	9.0	2.5	/experiments/knapen_AOT/AOT_stimuli/rescaled_final/0014_fw.mp4	0.0	117.6195695400238	2.4751698970794678
11	87.11142349243164	pulse	1	t		9.0	2.5	/experiments/knapen_AOT/AOT_stimuli/rescaled_final/0014_fw.mp4	0.0	118.77631044387817	
11	88.42985248565674	fix_post	2		12	9.0	2.5	/experiments/knapen_AOT/AOT_stimuli/rescaled_final/0014_fw.mp4	0.0	120.09473943710327	0.10015249252319336
12	88.53000497817993	fix_pre	0		120	10.0	2.5	/experiments/knapen_AOT/AOT_stimuli/rescaled_final/1770_rv.mp4	0.0	120.19489192962646	1.0167851448059082
12	88.71364164352417	pulse	0	t		10.0	2.5	/experiments/knapen_AOT/AOT_stimuli/rescaled_final/1770_rv.mp4	0.0	120.3785285949707	
12	89.54679012298584	movie	1		256	10.0	2.5	/experiments/knapen_AOT/AOT_stimuli/rescaled_final/1770_rv.mp4	0.0	121.21167707443237	2.483785390853882
12	90.31425786018372	pulse	1	t		10.0	2.5	/experiments/knapen_AOT/AOT_stimuli/rescaled_final/1770_rv.mp4	0.0	121.97914481163025	
12	91.91339683532715	pulse	1	t		10.0	2.5	/experiments/knapen_AOT/AOT_stimuli/rescaled_final/1770_rv.mp4	0.0	123.57828378677368	
12	92.03057551383972	fix_post	2		12	10.0	2.5	/experiments/knapen_AOT/AOT_stimuli/rescaled_final/1770_rv.mp4	0.0	123.69546246528625	0.09984993934631348
13	92.13042545318604	fix_pre	0		120	11.0	2.5	/experiments/knapen_AOT/AOT_stimuli/rescaled_final/2072_fw.mp4	0.0	123.79531240463257	1.0168111324310303
13	93.14723658561707	movie	1		270	11.0	2.5	/experiments/knapen_AOT/AOT_stimuli/rescaled_final/2072_fw.mp4	0.0	124.8121235370636	2.4836809635162354
13	93.51250290870667	pulse	1	t		11.0	2.5	/experiments/knapen_AOT/AOT_stimuli/rescaled_final/2072_fw.mp4	0.0	125.1773898601532	
13	95.11466097831726	pulse	1	t		11.0	2.5	/experiments/knapen_AOT/AOT_stimuli/rescaled_final/2072_fw.mp4	0.0	126.7795479297638	
13	95.6309175491333	fix_post	2		12	11.0	2.5	/experiments/knapen_AOT/AOT_stimuli/rescaled_final/2072_fw.mp4	0.0	127.29580450057983	0.10001945495605469
14	95.73093700408936	fix_pre	0		119	12.0	2.5	/experiments/knapen_AOT/AOT_stimuli/rescaled_final/1424_fw.mp4	0.0	127.39582395553589	1.0170807838439941
14	96.7149715423584	pulse	0	t		12.0	2.5	/experiments/knapen_AOT/AOT_stimuli/rescaled_final/1424_fw.mp4	0.0	128.37985849380493	
14	96.74801778793335	movie	1		273	12.0	2.5	/experiments/knapen_AOT/AOT_stimuli/rescaled_final/1424_fw.mp4	0.0	128.41290473937988	2.483553647994995
14	98.31439185142517	pulse	1	t		12.0	2.5	/experiments/knapen_AOT/AOT_stimuli/rescaled_final/1424_fw.mp4	0.0	129.9792788028717	
14	99.23157143592834	fix_post	2		12	12.0	2.5	/experiments/knapen_AOT/AOT_stimuli/rescaled_final/1424_fw.mp4	0.0	130.89645838737488	0.0999002456665039
15	99.33147168159485	fix_pre	0		120	13.0	2.5	/experiments/knapen_AOT/AOT_stimuli/rescaled_final/1363_rv.mp4	0.0	130.99635863304138	1.025181531906128
15	99.91514086723328	pulse	0	t		13.0	2.5	/experiments/knapen_AOT/AOT_stimuli/rescaled_final/1363_rv.mp4	0.0	131.5800278186798	
15	100.35665321350098	movie	1		261	13.0	2.5	/experiments/knapen_AOT/AOT_stimuli/rescaled_final/1363_rv.mp4	0.0	132.0215401649475	2.47568416595459
15	101.5165057182312	pulse	1	t		13.0	2.5	/experiments/knapen_AOT/AOT_stimuli/rescaled_final/1363_rv.mp4	0.0	133.18139266967773	
15	102.83233737945557	fix_post	2		12	13.0	2.5	/experiments/knapen_AOT/AOT_stimuli/rescaled_final/1363_rv.mp4	0.0	134.4972243309021	0.09979701042175293
16	102.93213438987732	fix_pre	0		120	14.0	2.5	blank	1.0	134.59702134132385	1.0001757144927979
16	103.11555480957031	pulse	0	t		14.0	2.5	blank	1.0	134.78044176101685	
16	103.93231010437012	movie	1		300	14.0	2.5	blank	1.0	135.59719705581665	2.5002195835113525
16	104.71592998504639	pulse	1	t		14.0	2.5	blank	1.0	136.38081693649292	
16	106.31606554985046	pulse	1	t		14.0	2.5	blank	1.0	137.980952501297	
16	106.43252968788147	fix_post	2		12	14.0	2.5	blank	1.0	138.097416639328	0.10001921653747559
17	106.53254890441895	fix_pre	0		120	15.0	2.5	/experiments/knapen_AOT/AOT_stimuli/rescaled_final/2065_rv.mp4	0.0	138.19743585586548	1.0252902507781982
17	107.55783915519714	movie	1		272	15.0	2.5	/experiments/knapen_AOT/AOT_stimuli/rescaled_final/2065_rv.mp4	0.0	139.22272610664368	2.4753453731536865
17	107.91430974006653	pulse	1	t		15.0	2.5	/experiments/knapen_AOT/AOT_stimuli/rescaled_final/2065_rv.mp4	0.0	139.57919669151306	
17	109.51422643661499	pulse	1	t		15.0	2.5	/experiments/knapen_AOT/AOT_stimuli/rescaled_final/2065_rv.mp4	0.0	141.17911338806152	
17	110.03318452835083	fix_post	2		12	15.0	2.5	/experiments/knapen_AOT/AOT_stimuli/rescaled_final/2065_rv.mp4	0.0	141.69807147979736	0.09991765022277832
18	110.13310217857361	fix_pre	0		119	16.0	2.5	/experiments/knapen_AOT/AOT_stimuli/rescaled_final/1550_fw.mp4	0.0	141.79798913002014	1.0085012912750244
18	111.11682057380676	pulse	0	t		16.0	2.5	/experiments/knapen_AOT/AOT_stimuli/rescaled_final/1550_fw.mp4	0.0	142.7817075252533	
18	111.14160346984863	movie	1		271	16.0	2.5	/experiments/knapen_AOT/AOT_stimuli/rescaled_final/1550_fw.mp4	0.0	142.80649042129517	2.492579460144043
18	112.71652030944824	pulse	1	t		16.0	2.5	/experiments/knapen_AOT/AOT_stimuli/rescaled_final/1550_fw.mp4	0.0	144.38140726089478	
18	113.63418292999268	fix_post	2		12	16.0	2.5	/experiments/knapen_AOT/AOT_stimuli/rescaled_final/1550_fw.mp4	0.0	145.2990698814392	0.09977579116821289
19	113.73395872116089	fix_pre	0		120	17.0	2.5	/experiments/knapen_AOT/AOT_stimuli/rescaled_final/0941_fw.mp4	0.0	145.39884567260742	1.0250959396362305
19	114.31732606887817	pulse	0	t		17.0	2.5	/experiments/knapen_AOT/AOT_stimuli/rescaled_final/0941_fw.mp4	0.0	145.9822130203247	
19	114.75905466079712	movie	1		271	17.0	2.5	/experiments/knapen_AOT/AOT_stimuli/rescaled_final/0941_fw.mp4	0.0	146.42394161224365	2.4838011264801025
19	115.91658854484558	pulse	1	t		17.0	2.5	/experiments/knapen_AOT/AOT_stimuli/rescaled_final/0941_fw.mp4	0.0	147.58147549629211	
19	117.24285578727722	fix_post	2		11	17.0	2.5	/experiments/knapen_AOT/AOT_stimuli/rescaled_final/0941_fw.mp4	0.0	148.90774273872375	0.09146332740783691
20	117.33431911468506	fix_pre	0		120	18.0	2.5	/experiments/knapen_AOT/AOT_stimuli/rescaled_final/0736_rv.mp4	0.0	148.9992060661316	1.0166740417480469
20	117.5179693698883	pulse	0	t		18.0	2.5	/experiments/knapen_AOT/AOT_stimuli/rescaled_final/0736_rv.mp4	0.0	149.18285632133484	
20	118.3509931564331	movie	1		277	18.0	2.5	/experiments/knapen_AOT/AOT_stimuli/rescaled_final/0736_rv.mp4	0.0	150.01588010787964	2.4837679862976074
20	119.11635708808899	pulse	1	t		18.0	2.5	/experiments/knapen_AOT/AOT_stimuli/rescaled_final/0736_rv.mp4	0.0	150.78124403953552	
20	120.71610522270203	pulse	1	t		18.0	2.5	/experiments/knapen_AOT/AOT_stimuli/rescaled_final/0736_rv.mp4	0.0	152.38099217414856	
20	120.83476114273071	fix_post	2		12	18.0	2.5	/experiments/knapen_AOT/AOT_stimuli/rescaled_final/0736_rv.mp4	0.0	152.49964809417725	0.10000324249267578
21	120.93476438522339	fix_pre	0		120	19.0	2.5	/experiments/knapen_AOT/AOT_stimuli/rescaled_final/0210_rv.mp4	0.0	152.59965133666992	1.0167851448059082
21	121.9515495300293	movie	1		255	19.0	2.5	/experiments/knapen_AOT/AOT_stimuli/rescaled_final/0210_rv.mp4	0.0	153.61643648147583	2.4837870597839355
21	122.3188726902008	pulse	1	t		19.0	2.5	/experiments/knapen_AOT/AOT_stimuli/rescaled_final/0210_rv.mp4	0.0	153.98375964164734	
21	123.91676306724548	pulse	1	t		19.0	2.5	/experiments/knapen_AOT/AOT_stimuli/rescaled_final/0210_rv.mp4	0.0	155.58165001869202	
21	124.43533658981323	fix_post	2		12	19.0	2.5	/experiments/knapen_AOT/AOT_stimuli/rescaled_final/0210_rv.mp4	0.0	156.10022354125977	0.09995079040527344
22	124.5352873802185	fix_pre	0		119	20.0	2.5	/experiments/knapen_AOT/AOT_stimuli/rescaled_final/1467_rv.mp4	0.0	156.20017433166504	1.0169637203216553
22	125.519033908844	pulse	0	t		20.0	2.5	/experiments/knapen_AOT/AOT_stimuli/rescaled_final/1467_rv.mp4	0.0	157.18392086029053	
22	125.55225110054016	movie	1		274	20.0	2.5	/experiments/knapen_AOT/AOT_stimuli/rescaled_final/1467_rv.mp4	0.0	157.2171380519867	2.4838128089904785
22	127.12045955657959	pulse	1	t		20.0	2.5	/experiments/knapen_AOT/AOT_stimuli/rescaled_final/1467_rv.mp4	0.0	158.78534650802612	
22	128.03606390953064	fix_post	2		12	20.0	2.5	/experiments/knapen_AOT/AOT_stimuli/rescaled_final/1467_rv.mp4	0.0	159.70095086097717	0.09987854957580566
23	128.13594245910645	fix_pre	0		120	21.0	2.5	blank	1.0	159.80082941055298	1.0000035762786865
23	128.71172714233398	pulse	0	t		21.0	2.5	blank	1.0	160.37661409378052	
23	129.13594603538513	movie	1		300	21.0	2.5	blank	1.0	160.80083298683167	2.500401496887207
23	130.3119192123413	pulse	1	t		21.0	2.5	blank	1.0	161.97680616378784	
23	131.63634753227234	fix_post	2		12	21.0	2.5	blank	1.0	163.30123448371887	0.10016155242919922
24	131.73650908470154	fix_pre	0		120	22.0	2.5	/experiments/knapen_AOT/AOT_stimuli/rescaled_final/1192_rv.mp4	0.0	163.40139603614807	1.0166821479797363
24	131.9119851589203	pulse	0	t		22.0	2.5	/experiments/knapen_AOT/AOT_stimuli/rescaled_final/1192_rv.mp4	0.0	163.57687211036682	
24	132.75319123268127	movie	1		282	22.0	2.5	/experiments/knapen_AOT/AOT_stimuli/rescaled_final/1192_rv.mp4	0.0	164.4180781841278	2.4839835166931152
24	133.51195645332336	pulse	1	t		22.0	2.5	/experiments/knapen_AOT/AOT_stimuli/rescaled_final/1192_rv.mp4	0.0	165.1768434047699	
24	135.11209344863892	pulse	1	t		22.0	2.5	/experiments/knapen_AOT/AOT_stimuli/rescaled_final/1192_rv.mp4	0.0	166.77698040008545	
24	135.2371747493744	fix_post	2		12	22.0	2.5	/experiments/knapen_AOT/AOT_stimuli/rescaled_final/1192_rv.mp4	0.0	166.90206170082092	0.09975147247314453
25	135.33692622184753	fix_pre	0		120	23.0	2.5	/experiments/knapen_AOT/AOT_stimuli/rescaled_final/0498_rv.mp4	0.0	167.00181317329407	1.0252625942230225
25	136.36218881607056	movie	1		283	23.0	2.5	/experiments/knapen_AOT/AOT_stimuli/rescaled_final/0498_rv.mp4	0.0	168.0270757675171	2.475318431854248
25	136.71090459823608	pulse	1	t		23.0	2.5	/experiments/knapen_AOT/AOT_stimuli/rescaled_final/0498_rv.mp4	0.0	168.37579154968262	
25	138.310608625412	pulse	1	t		23.0	2.5	/experiments/knapen_AOT/AOT_stimuli/rescaled_final/0498_rv.mp4	0.0	169.97549557685852	
25	138.8375072479248	fix_post	2		12	23.0	2.5	/experiments/knapen_AOT/AOT_stimuli/rescaled_final/0498_rv.mp4	0.0	170.50239419937134	0.09992337226867676
26	138.93743062019348	fix_pre	0		118	24.0	2.5	/experiments/knapen_AOT/AOT_stimuli/rescaled_final/0787_fw.mp4	0.0	170.60231757164001	1.0001676082611084
26	139.9133698940277	pulse	0	t		24.0	2.5	/experiments/knapen_AOT/AOT_stimuli/rescaled_final/0787_fw.mp4	0.0	171.57825684547424	
26	139.9375982284546	movie	1		273	24.0	2.5	/experiments/knapen_AOT/AOT_stimuli/rescaled_final/0787_fw.mp4	0.0	171.60248517990112	2.492013931274414
26	141.51279211044312	pulse	1	t		24.0	2.5	/experiments/knapen_AOT/AOT_stimuli/rescaled_final/0787_fw.mp4	0.0	173.17767906188965	
26	142.429612159729	fix_post	2		12	24.0	2.5	/experiments/knapen_AOT/AOT_stimuli/rescaled_final/0787_fw.mp4	0.0	174.09449911117554	0.10022735595703125
27	142.52983951568604	fix_pre	0		120	25.0	2.5	/experiments/knapen_AOT/AOT_stimuli/rescaled_final/1750_rv.mp4	0.0	174.19472646713257	1.016813039779663
27	143.11325979232788	pulse	0	t		25.0	2.5	/experiments/knapen_AOT/AOT_stimuli/rescaled_final/1750_rv.mp4	0.0	174.7781467437744	
27	143.5466525554657	movie	1		264	25.0	2.5	/experiments/knapen_AOT/AOT_stimuli/rescaled_final/1750_rv.mp4	0.0	175.21153950691223	2.4836175441741943
27	144.71283149719238	pulse	1	t		25.0	2.5	/experiments/knapen_AOT/AOT_stimuli/rescaled_final/1750_rv.mp4	0.0	176.37771844863892	
27	146.0302700996399	fix_post	2		12	25.0	2.5	/experiments/knapen_AOT/AOT_stimuli/rescaled_final/1750_rv.mp4	0.0	177.69515705108643	0.09992814064025879
28	146.13019824028015	fix_pre	0		120	26.0	2.5	/experiments/knapen_AOT/AOT_stimuli/rescaled_final/1345_rv.mp4	0.0	177.79508519172668	1.0253269672393799
28	146.31394910812378	pulse	0	t		26.0	2.5	/experiments/knapen_AOT/AOT_stimuli/rescaled_final/1345_rv.mp4	0.0	177.9788360595703	
28	147.15552520751953	movie	1		260	26.0	2.5	/experiments/knapen_AOT/AOT_stimuli/rescaled_final/1345_rv.mp4	0.0	178.82041215896606	2.475306749343872
28	147.91210889816284	pulse	1	t		26.0	2.5	/experiments/knapen_AOT/AOT_stimuli/rescaled_final/1345_rv.mp4	0.0	179.57699584960938	
28	149.51209568977356	pulse	1	t		26.0	2.5	/experiments/knapen_AOT/AOT_stimuli/rescaled_final/1345_rv.mp4	0.0	181.1769826412201	
28	149.6308319568634	fix_post	2		12	26.0	2.5	/experiments/knapen_AOT/AOT_stimuli/rescaled_final/1345_rv.mp4	0.0	181.29571890830994	0.09990882873535156
29	149.73074078559875	fix_pre	0		120	27.0	2.5	/experiments/knapen_AOT/AOT_stimuli/rescaled_final/2049_rv.mp4	0.0	181.3956277370453	1.0254087448120117
29	150.75614953041077	movie	1		263	27.0	2.5	/experiments/knapen_AOT/AOT_stimuli/rescaled_final/2049_rv.mp4	0.0	182.4210364818573	2.4754762649536133
29	151.11305689811707	pulse	1	t		27.0	2.5	/experiments/knapen_AOT/AOT_stimuli/rescaled_final/2049_rv.mp4	0.0	182.7779438495636	
29	152.71265244483948	pulse	1	t		27.0	2.5	/experiments/knapen_AOT/AOT_stimuli/rescaled_final/2049_rv.mp4	0.0	184.377539396286	
29	153.23162579536438	fix_post	2		12	27.0	2.5	/experiments/knapen_AOT/AOT_stimuli/rescaled_final/2049_rv.mp4	0.0	184.8965127468109	0.09968090057373047
30	153.3313066959381	fix_pre	0		119	28.0	2.5	blank	1.0	184.99619364738464	0.9917876720428467
30	154.3149127960205	pulse	0	t		28.0	2.5	blank	1.0	185.97979974746704	
30	154.32309436798096	movie	1		301	28.0	2.5	blank	1.0	185.9879813194275	2.5087006092071533
30	155.91511487960815	pulse	1	t		28.0	2.5	blank	1.0	187.5800018310547	
30	156.8317949771881	fix_post	2		12	28.0	2.5	blank	1.0	188.49668192863464	0.10001611709594727
31	156.93181109428406	fix_pre	0		120	29.0	2.5	/experiments/knapen_AOT/AOT_stimuli/rescaled_final/1643_fw.mp4	0.0	188.5966980457306	1.025465488433838
31	157.51537203788757	pulse	0	t		29.0	2.5	/experiments/knapen_AOT/AOT_stimuli/rescaled_final/1643_fw.mp4	0.0	189.1802589893341	
31	157.9572765827179	movie	1		280	29.0	2.5	/experiments/knapen_AOT/AOT_stimuli/rescaled_final/1643_fw.mp4	0.0	189.62216353416443	2.475158929824829
31	159.11361980438232	pulse	1	t		29.0	2.5	/experiments/knapen_AOT/AOT_stimuli/rescaled_final/1643_fw.mp4	0.0	190.77850675582886	
31	160.43243551254272	fix_post	2		12	29.0	2.5	/experiments/knapen_AOT/AOT_stimuli/rescaled_final/1643_fw.mp4	0.0	192.09732246398926	0.09992456436157227
32	160.5323600769043	fix_pre	0		120	30.0	2.5	/experiments/knapen_AOT/AOT_stimuli/rescaled_final/1231_fw.mp4	0.0	192.19724702835083	1.0168118476867676
32	160.71597838401794	pulse	0	t		30.0	2.5	/experiments/knapen_AOT/AOT_stimuli/rescaled_final/1231_fw.mp4	0.0	192.38086533546448	
32	161.54917192459106	movie	1		282	30.0	2.5	/experiments/knapen_AOT/AOT_stimuli/rescaled_final/1231_fw.mp4	0.0	193.2140588760376	2.483935594558716
32	162.31421184539795	pulse	1	t		30.0	2.5	/experiments/knapen_AOT/AOT_stimuli/rescaled_final/1231_fw.mp4	0.0	193.97909879684448	
32	163.9162585735321	pulse	1	t		30.0	2.5	/experiments/knapen_AOT/AOT_stimuli/rescaled_final/1231_fw.mp4	0.0	195.58114552497864	
32	164.03310751914978	fix_post	2		12	30.0	2.5	/experiments/knapen_AOT/AOT_stimuli/rescaled_final/1231_fw.mp4	0.0	195.6979944705963	0.09977841377258301
33	164.13288593292236	fix_pre	0		120	31.0	2.5	/experiments/knapen_AOT/AOT_stimuli/rescaled_final/0014_rv.mp4	0.0	195.7977728843689	1.0086650848388672
33	165.14155101776123	movie	1		277	31.0	2.5	/experiments/knapen_AOT/AOT_stimuli/rescaled_final/0014_rv.mp4	0.0	196.80643796920776	2.491852283477783
33	165.5146243572235	pulse	1	t		31.0	2.5	/experiments/knapen_AOT/AOT_stimuli/rescaled_final/0014_rv.mp4	0.0	197.17951130867004	
33	167.11490440368652	pulse	1	t		31.0	2.5	/experiments/knapen_AOT/AOT_stimuli/rescaled_final/0014_rv.mp4	0.0	198.77979135513306	
33	167.633403301239	fix_post	2		12	31.0	2.5	/experiments/knapen_AOT/AOT_stimuli/rescaled_final/0014_rv.mp4	0.0	199.29829025268555	0.1000220775604248
34	167.73342537879944	fix_pre	0		119	32.0	2.5	/experiments/knapen_AOT/AOT_stimuli/rescaled_final/0516_rv.mp4	0.0	199.39831233024597	1.0001707077026367
34	168.71711087226868	pulse	0	t		32.0	2.5	/experiments/knapen_AOT/AOT_stimuli/rescaled_final/0516_rv.mp4	0.0	200.3819978237152	
34	168.73359608650208	movie	1		278	32.0	2.5	/experiments/knapen_AOT/AOT_stimuli/rescaled_final/0516_rv.mp4	0.0	200.3984830379486	2.5005269050598145
34	170.3157136440277	pulse	1	t		32.0	2.5	/experiments/knapen_AOT/AOT_stimuli/rescaled_final/0516_rv.mp4	0.0	201.98060059547424	
34	171.2341229915619	fix_post	2		12	32.0	2.5	/experiments/knapen_AOT/AOT_stimuli/rescaled_final/0516_rv.mp4	0.0	202.89900994300842	0.09988856315612793
35	171.33401155471802	fix_pre	0		120	33.0	2.5	/experiments/knapen_AOT/AOT_stimuli/rescaled_final/0917_rv.mp4	0.0	202.99889850616455	1.0084514617919922
35	171.91770935058594	pulse	0	t		33.0	2.5	/experiments/knapen_AOT/AOT_stimuli/rescaled_final/0917_rv.mp4	0.0	203.58259630203247	
35	172.34246301651	movie	1		247	33.0	2.5	/experiments/knapen_AOT/AOT_stimuli/rescaled_final/0917_rv.mp4	0.0	204.00734996795654	2.492302656173706
35	173.51824688911438	pulse	1	t		33.0	2.5	/experiments/knapen_AOT/AOT_stimuli/rescaled_final/0917_rv.mp4	0.0	205.1831338405609	
35	174.83476567268372	fix_post	2		12	33.0	2.5	/experiments/knapen_AOT/AOT_stimuli/rescaled_final/0917_rv.mp4	0.0	206.49965262413025	0.0997457504272461
36	174.93451142311096	fix_pre	0		120	34.0	2.5	blank	1.0	206.5993983745575	1.0004825592041016
36	175.1182243824005	pulse	0	t		34.0	2.5	blank	1.0	206.78311133384705	
36	175.93499398231506	movie	1		300	34.0	2.5	blank	1.0	207.5998809337616	2.5000481605529785
36	176.7183756828308	pulse	1	t		34.0	2.5	blank	1.0	208.38326263427734	
36	178.3112187385559	pulse	1	t		34.0	2.5	blank	1.0	209.97610569000244	
36	178.43504214286804	fix_post	2		12	34.0	2.5	blank	1.0	210.09992909431458	0.10004496574401855
37	178.53508710861206	fix_pre	0		120	35.0	2.5	/experiments/knapen_AOT/AOT_stimuli/rescaled_final/1855_fw.mp4	0.0	210.1999740600586	1.0086565017700195
37	179.54374361038208	movie	1		273	35.0	2.5	/experiments/knapen_AOT/AOT_stimuli/rescaled_final/1855_fw.mp4	0.0	211.2086305618286	2.4920666217803955
37	179.91745281219482	pulse	1	t		35.0	2.5	/experiments/knapen_AOT/AOT_stimuli/rescaled_final/1855_fw.mp4	0.0	211.58233976364136	
37	181.51113390922546	pulse	1	t		35.0	2.5	/experiments/knapen_AOT/AOT_stimuli/rescaled_final/1855_fw.mp4	0.0	213.176020860672	
37	182.03581023216248	fix_post	2		12	35.0	2.5	/experiments/knapen_AOT/AOT_stimuli/rescaled_final/1855_fw.mp4	0.0	213.700697183609	0.09982085227966309
38	182.13563108444214	fix_pre	0		118	36.0	2.5	/experiments/knapen_AOT/AOT_stimuli/rescaled_final/1495_fw.mp4	0.0	213.80051803588867	0.9918186664581299
38	183.11152720451355	pulse	0	t		36.0	2.5	/experiments/knapen_AOT/AOT_stimuli/rescaled_final/1495_fw.mp4	0.0	214.77641415596008	
38	183.12744975090027	movie	1		267	36.0	2.5	/experiments/knapen_AOT/AOT_stimuli/rescaled_final/1495_fw.mp4	0.0	214.7923367023468	2.5004701614379883
38	184.72007417678833	pulse	1	t		36.0	2.5	/experiments/knapen_AOT/AOT_stimuli/rescaled_final/1495_fw.mp4	0.0	216.38496112823486	
38	185.62791991233826	fix_post	2		12	36.0	2.5	/experiments/knapen_AOT/AOT_stimuli/rescaled_final/1495_fw.mp4	0.0	217.2928068637848	0.09989356994628906
39	185.72781348228455	fix_pre	0		120	37.0	2.5	/experiments/knapen_AOT/AOT_stimuli/rescaled_final/2107_rv.mp4	0.0	217.39270043373108	1.008573055267334
39	186.31150317192078	pulse	0	t		37.0	2.5	/experiments/knapen_AOT/AOT_stimuli/rescaled_final/2107_rv.mp4	0.0	217.9763901233673	
39	186.73638653755188	movie	1		281	37.0	2.5	/experiments/knapen_AOT/AOT_stimuli/rescaled_final/2107_rv.mp4	0.0	218.4012734889984	2.4919533729553223
39	187.91165494918823	pulse	1	t		37.0	2.5	/experiments/knapen_AOT/AOT_stimuli/rescaled_final/2107_rv.mp4	0.0	219.57654190063477	
39	189.2283399105072	fix_post	2		12	37.0	2.5	/experiments/knapen_AOT/AOT_stimuli/rescaled_final/2107_rv.mp4	0.0	220.89322686195374	0.10000872611999512
40	189.3283486366272	fix_pre	0		120	38.0	2.5	/experiments/knapen_AOT/AOT_stimuli/rescaled_final/1025_rv.mp4	0.0	220.99323558807373	1.0086050033569336
40	189.5119571685791	pulse	0	t		38.0	2.5	/experiments/knapen_AOT/AOT_stimuli/rescaled_final/1025_rv.mp4	0.0	221.17684412002563	
40	190.33695363998413	movie	1		266	38.0	2.5	/experiments/knapen_AOT/AOT_stimuli/rescaled_final/1025_rv.mp4	0.0	222.00184059143066	2.4922988414764404
40	191.112154006958	pulse	1	t		38.0	2.5	/experiments/knapen_AOT/AOT_stimuli/rescaled_final/1025_rv.mp4	0.0	222.77704095840454	
40	192.7110779285431	pulse	1	t		38.0	2.5	/experiments/knapen_AOT/AOT_stimuli/rescaled_final/1025_rv.mp4	0.0	224.37596487998962	
40	192.82925248146057	fix_post	2		12	38.0	2.5	/experiments/knapen_AOT/AOT_stimuli/rescaled_final/1025_rv.mp4	0.0	224.4941394329071	0.0996403694152832
41	192.92889285087585	fix_pre	0		120	39.0	2.5	/experiments/knapen_AOT/AOT_stimuli/rescaled_final/0144_rv.mp4	0.0	224.5937798023224	1.0084757804870605
41	193.93736863136292	movie	1		278	39.0	2.5	/experiments/knapen_AOT/AOT_stimuli/rescaled_final/0144_rv.mp4	0.0	225.60225558280945	2.4922256469726562
41	194.31196522712708	pulse	1	t		39.0	2.5	/experiments/knapen_AOT/AOT_stimuli/rescaled_final/0144_rv.mp4	0.0	225.9768521785736	
41	195.91212058067322	pulse	1	t		39.0	2.5	/experiments/knapen_AOT/AOT_stimuli/rescaled_final/0144_rv.mp4	0.0	227.57700753211975	
41	196.42959427833557	fix_post	2		12	39.0	2.5	/experiments/knapen_AOT/AOT_stimuli/rescaled_final/0144_rv.mp4	0.0	228.0944812297821	0.09989070892333984
42	196.5294849872589	fix_pre	0		119	40.0	2.5	blank	1.0	228.19437193870544	0.991767168045044
42	197.5130958557129	pulse	0	t		40.0	2.5	blank	1.0	229.17798280715942	
42	197.52125215530396	movie	1		301	40.0	2.5	blank	1.0	229.1861391067505	2.5087101459503174
42	199.11351561546326	pulse	1	t		40.0	2.5	blank	1.0	230.7784025669098	
42	200.02996230125427	fix_post	2		12	40.0	2.5	blank	1.0	231.6948492527008	0.10001468658447266
43	200.12997698783875	fix_pre	0		120	41.0	2.5	/experiments/knapen_AOT/AOT_stimuli/rescaled_final/0569_rv.mp4	0.0	231.79486393928528	1.0085184574127197
43	200.7135784626007	pulse	0	t		41.0	2.5	/experiments/knapen_AOT/AOT_stimuli/rescaled_final/0569_rv.mp4	0.0	232.37846541404724	
43	201.13849544525146	movie	1		272	41.0	2.5	/experiments/knapen_AOT/AOT_stimuli/rescaled_final/0569_rv.mp4	0.0	232.803382396698	2.500553607940674
43	202.3130714893341	pulse	1	t		41.0	2.5	/experiments/knapen_AOT/AOT_stimuli/rescaled_final/0569_rv.mp4	0.0	233.97795844078064	
43	203.63904905319214	fix_post	2		11	41.0	2.5	/experiments/knapen_AOT/AOT_stimuli/rescaled_final/0569_rv.mp4	0.0	235.30393600463867	0.0915684700012207
44	203.73061752319336	fix_pre	0		120	42.0	2.5	/experiments/knapen_AOT/AOT_stimuli/rescaled_final/1219_rv.mp4	0.0	235.3955044746399	1.008399248123169
44	203.91421842575073	pulse	0	t		42.0	2.5	/experiments/knapen_AOT/AOT_stimuli/rescaled_final/1219_rv.mp4	0.0	235.57910537719727	
44	204.73901677131653	movie	1		276	42.0	2.5	/experiments/knapen_AOT/AOT_stimuli/rescaled_final/1219_rv.mp4	0.0	236.40390372276306	2.492083787918091
44	205.51239323616028	pulse	1	t		42.0	2.5	/experiments/knapen_AOT/AOT_stimuli/rescaled_final/1219_rv.mp4	0.0	237.1772801876068	
44	207.11292457580566	pulse	1	t		42.0	2.5	/experiments/knapen_AOT/AOT_stimuli/rescaled_final/1219_rv.mp4	0.0	238.7778115272522	
44	207.23110055923462	fix_post	2		12	42.0	2.5	/experiments/knapen_AOT/AOT_stimuli/rescaled_final/1219_rv.mp4	0.0	238.89598751068115	0.09994864463806152
45	207.33104920387268	fix_pre	0		120	43.0	2.5	/experiments/knapen_AOT/AOT_stimuli/rescaled_final/0565_fw.mp4	0.0	238.9959361553192	1.008507251739502
45	208.33955645561218	movie	1		264	43.0	2.5	/experiments/knapen_AOT/AOT_stimuli/rescaled_final/0565_fw.mp4	0.0	240.00444340705872	2.4922420978546143
45	208.7127501964569	pulse	1	t		43.0	2.5	/experiments/knapen_AOT/AOT_stimuli/rescaled_final/0565_fw.mp4	0.0	240.37763714790344	
45	210.31323266029358	pulse	1	t		43.0	2.5	/experiments/knapen_AOT/AOT_stimuli/rescaled_final/0565_fw.mp4	0.0	241.9781196117401	
45	210.8317985534668	fix_post	2		12	43.0	2.5	/experiments/knapen_AOT/AOT_stimuli/rescaled_final/0565_fw.mp4	0.0	242.49668550491333	0.09980154037475586
46	210.93160009384155	fix_pre	0		119	44.0	2.5	/experiments/knapen_AOT/AOT_stimuli/rescaled_final/1893_rv.mp4	0.0	242.5964870452881	1.0002009868621826
46	211.91543102264404	pulse	0	t		44.0	2.5	/experiments/knapen_AOT/AOT_stimuli/rescaled_final/1893_rv.mp4	0.0	243.58031797409058	
46	211.93180108070374	movie	1		292	44.0	2.5	/experiments/knapen_AOT/AOT_stimuli/rescaled_final/1893_rv.mp4	0.0	243.59668803215027	2.5004894733428955
46	213.51399207115173	pulse	1	t		44.0	2.5	/experiments/knapen_AOT/AOT_stimuli/rescaled_final/1893_rv.mp4	0.0	245.17887902259827	
46	214.43229055404663	fix_post	2		12	44.0	2.5	/experiments/knapen_AOT/AOT_stimuli/rescaled_final/1893_rv.mp4	0.0	246.09717750549316	0.09995293617248535
47	214.53224349021912	fix_pre	0		120	45.0	2.5	/experiments/knapen_AOT/AOT_stimuli/rescaled_final/1913_fw.mp4	0.0	246.19713044166565	1.0083942413330078
47	215.1158149242401	pulse	0	t		45.0	2.5	/experiments/knapen_AOT/AOT_stimuli/rescaled_final/1913_fw.mp4	0.0	246.78070187568665	
47	215.54063773155212	movie	1		283	45.0	2.5	/experiments/knapen_AOT/AOT_stimuli/rescaled_final/1913_fw.mp4	0.0	247.20552468299866	2.4921154975891113
47	216.714373588562	pulse	1	t		45.0	2.5	/experiments/knapen_AOT/AOT_stimuli/rescaled_final/1913_fw.mp4	0.0	248.37926054000854	
47	218.03275322914124	fix_post	2		12	45.0	2.5	/experiments/knapen_AOT/AOT_stimuli/rescaled_final/1913_fw.mp4	0.0	249.69764018058777	0.09998106956481934
48	218.13273429870605	fix_pre	0		120	46.0	2.5	/experiments/knapen_AOT/AOT_stimuli/rescaled_final/1192_rv.mp4	0.0	249.7976212501526	1.0084364414215088
48	218.31659817695618	pulse	0	t		46.0	2.5	/experiments/knapen_AOT/AOT_stimuli/rescaled_final/1192_rv.mp4	0.0	249.9814851284027	
48	219.14117074012756	movie	1		227	46.0	2.5	/experiments/knapen_AOT/AOT_stimuli/rescaled_final/1192_rv.mp4	0.0	250.8060576915741	2.6006369590759277
48	219.91500735282898	pulse	1	t		46.0	2.5	/experiments/knapen_AOT/AOT_stimuli/rescaled_final/1192_rv.mp4	0.0	251.5798943042755	
48	221.7418076992035	fix_post	2		0	46.0	2.5	/experiments/knapen_AOT/AOT_stimuli/rescaled_final/1192_rv.mp4	0.0	253.40669465065002	0.002801656723022461
49	221.7446093559265	fix_pre	0		119	47.0	2.5	/experiments/knapen_AOT/AOT_stimuli/rescaled_final/1418_fw.mp4	0.0	253.40949630737305	0.9971368312835693
49	221.73541402816772	pulse	0	t		47.0	2.5	/experiments/knapen_AOT/AOT_stimuli/rescaled_final/1418_fw.mp4	0.0	253.40030097961426	
49	222.74174618721008	movie	1		266	47.0	2.5	/experiments/knapen_AOT/AOT_stimuli/rescaled_final/1418_fw.mp4	0.0	254.40663313865662	2.4920196533203125
49	223.11511063575745	pulse	1	t		47.0	2.5	/experiments/knapen_AOT/AOT_stimuli/rescaled_final/1418_fw.mp4	0.0	254.77999758720398	
49	224.71731090545654	pulse	1	t		47.0	2.5	/experiments/knapen_AOT/AOT_stimuli/rescaled_final/1418_fw.mp4	0.0	256.3821978569031	
49	225.2337658405304	fix_post	2		12	47.0	2.5	/experiments/knapen_AOT/AOT_stimuli/rescaled_final/1418_fw.mp4	0.0	256.89865279197693	0.10002970695495605
50	225.33379554748535	fix_pre	0		119	48.0	2.5	blank	1.0	256.9986824989319	0.9918169975280762
50	226.3174774646759	pulse	0	t		48.0	2.5	blank	1.0	257.98236441612244	
50	226.32561254501343	movie	1		301	48.0	2.5	blank	1.0	257.99049949645996	2.5086772441864014
50	227.91771864891052	pulse	1	t		48.0	2.5	blank	1.0	259.58260560035706	
50	228.83428978919983	fix_post	2		12	48.0	2.5	blank	1.0	260.49917674064636	0.10000991821289062
51	228.93429970741272	fix_pre	0		120	49.0	2.5	/experiments/knapen_AOT/AOT_stimuli/rescaled_final/1106_rv.mp4	0.0	260.59918665885925	1.0084989070892334
51	229.51796174049377	pulse	0	t		49.0	2.5	/experiments/knapen_AOT/AOT_stimuli/rescaled_final/1106_rv.mp4	0.0	261.1828486919403	
51	229.94279861450195	movie	1		274	49.0	2.5	/experiments/knapen_AOT/AOT_stimuli/rescaled_final/1106_rv.mp4	0.0	261.6076855659485	2.492318630218506
51	231.1183738708496	pulse	1	t		49.0	2.5	/experiments/knapen_AOT/AOT_stimuli/rescaled_final/1106_rv.mp4	0.0	262.78326082229614	
51	232.43511724472046	fix_post	2		12	49.0	2.5	/experiments/knapen_AOT/AOT_stimuli/rescaled_final/1106_rv.mp4	0.0	264.100004196167	0.09978890419006348
52	232.53490614891052	fix_pre	0		120	50.0	2.5	/experiments/knapen_AOT/AOT_stimuli/rescaled_final/0140_fw.mp4	0.0	264.19979310035706	1.0084142684936523
52	232.7184543609619	pulse	0	t		50.0	2.5	/experiments/knapen_AOT/AOT_stimuli/rescaled_final/0140_fw.mp4	0.0	264.38334131240845	
52	233.54332041740417	movie	1		266	50.0	2.5	/experiments/knapen_AOT/AOT_stimuli/rescaled_final/0140_fw.mp4	0.0	265.2082073688507	2.4920501708984375
52	234.32160210609436	pulse	1	t		50.0	2.5	/experiments/knapen_AOT/AOT_stimuli/rescaled_final/0140_fw.mp4	0.0	265.9864890575409	
52	235.91693258285522	pulse	1	t		50.0	2.5	/experiments/knapen_AOT/AOT_stimuli/rescaled_final/0140_fw.mp4	0.0	267.58181953430176	
52	236.0353705883026	fix_post	2		12	50.0	2.5	/experiments/knapen_AOT/AOT_stimuli/rescaled_final/0140_fw.mp4	0.0	267.70025753974915	0.10027170181274414
53	236.13564229011536	fix_pre	0		120	51.0	2.5	/experiments/knapen_AOT/AOT_stimuli/rescaled_final/0464_rv.mp4	0.0	267.8005292415619	1.0082662105560303
53	237.1439085006714	movie	1		281	51.0	2.5	/experiments/knapen_AOT/AOT_stimuli/rescaled_final/0464_rv.mp4	0.0	268.8087954521179	2.492238998413086
53	237.5181529521942	pulse	1	t		51.0	2.5	/experiments/knapen_AOT/AOT_stimuli/rescaled_final/0464_rv.mp4	0.0	269.18303990364075	
53	239.11169600486755	pulse	1	t		51.0	2.5	/experiments/knapen_AOT/AOT_stimuli/rescaled_final/0464_rv.mp4	0.0	270.7765829563141	
53	239.63614749908447	fix_post	2		12	51.0	2.5	/experiments/knapen_AOT/AOT_stimuli/rescaled_final/0464_rv.mp4	0.0	271.301034450531	0.09978389739990234
54	239.73593139648438	fix_pre	0		118	52.0	2.5	/experiments/knapen_AOT/AOT_stimuli/rescaled_final/1985_fw.mp4	0.0	271.4008183479309	0.9918932914733887
54	240.71139240264893	pulse	0	t		52.0	2.5	/experiments/knapen_AOT/AOT_stimuli/rescaled_final/1985_fw.mp4	0.0	272.37627935409546	
54	240.72782468795776	movie	1		274	52.0	2.5	/experiments/knapen_AOT/AOT_stimuli/rescaled_final/1985_fw.mp4	0.0	272.3927116394043	2.5004725456237793
54	242.3115849494934	pulse	1	t		52.0	2.5	/experiments/knapen_AOT/AOT_stimuli/rescaled_final/1985_fw.mp4	0.0	273.97647190093994	
54	243.22829723358154	fix_post	2		12	52.0	2.5	/experiments/knapen_AOT/AOT_stimuli/rescaled_final/1985_fw.mp4	0.0	274.8931841850281	0.09988236427307129
55	243.32817959785461	fix_pre	0		120	53.0	2.5	/experiments/knapen_AOT/AOT_stimuli/rescaled_final/0963_rv.mp4	0.0	274.99306654930115	1.0089712142944336
55	243.9118137359619	pulse	0	t		53.0	2.5	/experiments/knapen_AOT/AOT_stimuli/rescaled_final/0963_rv.mp4	0.0	275.57670068740845	
55	244.33715081214905	movie	1		280	53.0	2.5	/experiments/knapen_AOT/AOT_stimuli/rescaled_final/0963_rv.mp4	0.0	276.0020377635956	2.4915218353271484
55	245.5114781856537	pulse	1	t		53.0	2.5	/experiments/knapen_AOT/AOT_stimuli/rescaled_final/0963_rv.mp4	0.0	277.1763651371002	
55	246.8286726474762	fix_post	2		12	53.0	2.5	/experiments/knapen_AOT/AOT_stimuli/rescaled_final/0963_rv.mp4	0.0	278.49355959892273	0.10003972053527832
56	246.92871236801147	fix_pre	0		120	54.0	2.5	/experiments/knapen_AOT/AOT_stimuli/rescaled_final/1893_fw.mp4	0.0	278.593599319458	1.0084819793701172
56	247.11223363876343	pulse	0	t		54.0	2.5	/experiments/knapen_AOT/AOT_stimuli/rescaled_final/1893_fw.mp4	0.0	278.77712059020996	
56	247.9371943473816	movie	1		268	54.0	2.5	/experiments/knapen_AOT/AOT_stimuli/rescaled_final/1893_fw.mp4	0.0	279.6020812988281	2.4921987056732178
56	248.71271920204163	pulse	1	t		54.0	2.5	/experiments/knapen_AOT/AOT_stimuli/rescaled_final/1893_fw.mp4	0.0	280.37760615348816	
56	250.3131809234619	pulse	1	t		54.0	2.5	/experiments/knapen_AOT/AOT_stimuli/rescaled_final/1893_fw.mp4	0.0	281.97806787490845	
56	250.4293930530548	fix_post	2		12	54.0	2.5	/experiments/knapen_AOT/AOT_stimuli/rescaled_final/1893_fw.mp4	0.0	282.09428000450134	0.09982466697692871
57	250.52921772003174	fix_pre	0		120	55.0	2.5	blank	1.0	282.19410467147827	1.000148057937622
57	251.52936577796936	movie	1		300	55.0	2.5	blank	1.0	283.1942527294159	2.500394821166992
57	251.91327619552612	pulse	1	t		55.0	2.5	blank	1.0	283.57816314697266	
57	253.5131711959839	pulse	1	t		55.0	2.5	blank	1.0	285.1780581474304	
57	254.02976059913635	fix_post	2		12	55.0	2.5	blank	1.0	285.6946475505829	0.10005044937133789
58	254.1298110485077	fix_pre	0		119	56.0	2.5	/experiments/knapen_AOT/AOT_stimuli/rescaled_final/0486_rv.mp4	0.0	285.7946979999542	1.0001566410064697
58	255.11341547966003	pulse	0	t		56.0	2.5	/experiments/knapen_AOT/AOT_stimuli/rescaled_final/0486_rv.mp4	0.0	286.77830243110657	
58	255.12996768951416	movie	1		263	56.0	2.5	/experiments/knapen_AOT/AOT_stimuli/rescaled_final/0486_rv.mp4	0.0	286.7948546409607	2.5003082752227783
58	256.71237683296204	pulse	1	t		56.0	2.5	/experiments/knapen_AOT/AOT_stimuli/rescaled_final/0486_rv.mp4	0.0	288.37726378440857	
58	257.63027596473694	fix_post	2		12	56.0	2.5	/experiments/knapen_AOT/AOT_stimuli/rescaled_final/0486_rv.mp4	0.0	289.2951629161835	0.10003042221069336
59	257.73030638694763	fix_pre	0		120	57.0	2.5	/experiments/knapen_AOT/AOT_stimuli/rescaled_final/1952_fw.mp4	0.0	289.39519333839417	1.0085909366607666
59	258.3138699531555	pulse	0	t		57.0	2.5	/experiments/knapen_AOT/AOT_stimuli/rescaled_final/1952_fw.mp4	0.0	289.97875690460205	
59	258.7388973236084	movie	1		274	57.0	2.5	/experiments/knapen_AOT/AOT_stimuli/rescaled_final/1952_fw.mp4	0.0	290.40378427505493	2.4920828342437744
59	259.91334986686707	pulse	1	t		57.0	2.5	/experiments/knapen_AOT/AOT_stimuli/rescaled_final/1952_fw.mp4	0.0	291.5782368183136	
59	261.2309801578522	fix_post	2		12	57.0	2.5	/experiments/knapen_AOT/AOT_stimuli/rescaled_final/1952_fw.mp4	0.0	292.8958671092987	0.09998941421508789
60	261.33096957206726	fix_pre	0		120	58.0	2.5	/experiments/knapen_AOT/AOT_stimuli/rescaled_final/0219_fw.mp4	0.0	292.9958565235138	1.0084500312805176
60	261.51439595222473	pulse	0	t		58.0	2.5	/experiments/knapen_AOT/AOT_stimuli/rescaled_final/0219_fw.mp4	0.0	293.17928290367126	
60	262.3394196033478	movie	1		266	58.0	2.5	/experiments/knapen_AOT/AOT_stimuli/rescaled_final/0219_fw.mp4	0.0	294.0043065547943	2.4919681549072266
60	263.1129062175751	pulse	1	t		58.0	2.5	/experiments/knapen_AOT/AOT_stimuli/rescaled_final/0219_fw.mp4	0.0	294.7777931690216	
60	264.7151174545288	pulse	1	t		58.0	2.5	/experiments/knapen_AOT/AOT_stimuli/rescaled_final/0219_fw.mp4	0.0	296.38000440597534	
60	264.831387758255	fix_post	2		12	58.0	2.5	/experiments/knapen_AOT/AOT_stimuli/rescaled_final/0219_fw.mp4	0.0	296.49627470970154	0.10000896453857422
61	264.9313967227936	fix_pre	0		120	59.0	2.5	/experiments/knapen_AOT/AOT_stimuli/rescaled_final/0019_rv.mp4	0.0	296.5962836742401	1.0084826946258545
61	265.93987941741943	movie	1		266	59.0	2.5	/experiments/knapen_AOT/AOT_stimuli/rescaled_final/0019_rv.mp4	0.0	297.60476636886597	2.492044687271118
61	266.31357645988464	pulse	1	t		59.0	2.5	/experiments/knapen_AOT/AOT_stimuli/rescaled_final/0019_rv.mp4	0.0	297.9784634113312	
61	267.9134545326233	pulse	1	t		59.0	2.5	/experiments/knapen_AOT/AOT_stimuli/rescaled_final/0019_rv.mp4	0.0	299.5783414840698	
61	268.43192410469055	fix_post	2		12	59.0	2.5	/experiments/knapen_AOT/AOT_stimuli/rescaled_final/0019_rv.mp4	0.0	300.0968110561371	0.10001873970031738
62	268.53194284439087	fix_pre	0		119	60.0	2.5	/experiments/knapen_AOT/AOT_stimuli/rescaled_final/1581_rv.mp4	0.0	300.1968297958374	1.0001800060272217
62	269.5157690048218	pulse	0	t		60.0	2.5	/experiments/knapen_AOT/AOT_stimuli/rescaled_final/1581_rv.mp4	0.0	301.1806559562683	
62	269.5321228504181	movie	1		288	60.0	2.5	/experiments/knapen_AOT/AOT_stimuli/rescaled_final/1581_rv.mp4	0.0	301.1970098018646	2.5005087852478027
62	271.1143045425415	pulse	1	t		60.0	2.5	/experiments/knapen_AOT/AOT_stimuli/rescaled_final/1581_rv.mp4	0.0	302.77919149398804	
62	272.0326316356659	fix_post	2		12	60.0	2.5	/experiments/knapen_AOT/AOT_stimuli/rescaled_final/1581_rv.mp4	0.0	303.6975185871124	0.09983539581298828
63	272.1324670314789	fix_pre	0		120	61.0	2.5	/experiments/knapen_AOT/AOT_stimuli/rescaled_final/0562_rv.mp4	0.0	303.7973539829254	1.008470058441162
63	272.7161555290222	pulse	0	t		61.0	2.5	/experiments/knapen_AOT/AOT_stimuli/rescaled_final/0562_rv.mp4	0.0	304.38104248046875	
63	273.14093708992004	movie	1		272	61.0	2.5	/experiments/knapen_AOT/AOT_stimuli/rescaled_final/0562_rv.mp4	0.0	304.8058240413666	2.492117166519165
63	274.31437587738037	pulse	1	t		61.0	2.5	/experiments/knapen_AOT/AOT_stimuli/rescaled_final/0562_rv.mp4	0.0	305.9792628288269	
63	275.6330542564392	fix_post	2		12	61.0	2.5	/experiments/knapen_AOT/AOT_stimuli/rescaled_final/0562_rv.mp4	0.0	307.29794120788574	0.10009932518005371
64	275.73315358161926	fix_pre	0		120	62.0	2.5	/experiments/knapen_AOT/AOT_stimuli/rescaled_final/0582_fw.mp4	0.0	307.3980405330658	1.0083835124969482
64	275.9165654182434	pulse	0	t		62.0	2.5	/experiments/knapen_AOT/AOT_stimuli/rescaled_final/0582_fw.mp4	0.0	307.58145236968994	
64	276.7415370941162	movie	1		262	62.0	2.5	/experiments/knapen_AOT/AOT_stimuli/rescaled_final/0582_fw.mp4	0.0	308.40642404556274	2.4920153617858887
64	277.5172369480133	pulse	1	t		62.0	2.5	/experiments/knapen_AOT/AOT_stimuli/rescaled_final/0582_fw.mp4	0.0	309.18212389945984	
64	279.11491894721985	pulse	1	t		62.0	2.5	/experiments/knapen_AOT/AOT_stimuli/rescaled_final/0582_fw.mp4	0.0	310.7798058986664	
64	279.2335524559021	fix_post	2		12	62.0	2.5	/experiments/knapen_AOT/AOT_stimuli/rescaled_final/0582_fw.mp4	0.0	310.89843940734863	0.10000061988830566
65	279.3335530757904	fix_pre	0		120	63.0	2.5	blank	1.0	310.99844002723694	1.0001487731933594
65	280.33370184898376	movie	1		300	63.0	2.5	blank	1.0	311.9985888004303	2.500384569168091
65	280.7172865867615	pulse	1	t		63.0	2.5	blank	1.0	312.382173538208	
65	282.31755352020264	pulse	1	t		63.0	2.5	blank	1.0	313.98244047164917	
65	282.83408641815186	fix_post	2		12	63.0	2.5	blank	1.0	314.4989733695984	0.1000666618347168
66	282.9341530799866	fix_pre	0		119	64.0	2.5	/experiments/knapen_AOT/AOT_stimuli/rescaled_final/0406_fw.mp4	0.0	314.5990400314331	1.0000429153442383
66	283.91779613494873	pulse	0	t		64.0	2.5	/experiments/knapen_AOT/AOT_stimuli/rescaled_final/0406_fw.mp4	0.0	315.58268308639526	
66	283.9341959953308	movie	1		281	64.0	2.5	/experiments/knapen_AOT/AOT_stimuli/rescaled_final/0406_fw.mp4	0.0	315.59908294677734	2.5005600452423096
66	285.5165457725525	pulse	1	t		64.0	2.5	/experiments/knapen_AOT/AOT_stimuli/rescaled_final/0406_fw.mp4	0.0	317.181432723999	
66	286.4347560405731	fix_post	2		12	64.0	2.5	/experiments/knapen_AOT/AOT_stimuli/rescaled_final/0406_fw.mp4	0.0	318.09964299201965	0.10004210472106934
67	286.5347981452942	fix_pre	0		120	65.0	2.5	/experiments/knapen_AOT/AOT_stimuli/rescaled_final/1025_rv.mp4	0.0	318.1996850967407	1.0083446502685547
67	287.1184163093567	pulse	0	t		65.0	2.5	/experiments/knapen_AOT/AOT_stimuli/rescaled_final/1025_rv.mp4	0.0	318.7833032608032	
67	287.54314279556274	movie	1		265	65.0	2.5	/experiments/knapen_AOT/AOT_stimuli/rescaled_final/1025_rv.mp4	0.0	319.2080297470093	2.4922502040863037
67	288.71750259399414	pulse	1	t		65.0	2.5	/experiments/knapen_AOT/AOT_stimuli/rescaled_final/1025_rv.mp4	0.0	320.3823895454407	
67	290.03539299964905	fix_post	2		12	65.0	2.5	/experiments/knapen_AOT/AOT_stimuli/rescaled_final/1025_rv.mp4	0.0	321.7002799510956	0.09986567497253418
68	290.1352586746216	fix_pre	0		120	66.0	2.5	/experiments/knapen_AOT/AOT_stimuli/rescaled_final/1939_rv.mp4	0.0	321.8001456260681	1.0084354877471924
68	290.3187439441681	pulse	0	t		66.0	2.5	/experiments/knapen_AOT/AOT_stimuli/rescaled_final/1939_rv.mp4	0.0	321.9836308956146	
68	291.1436941623688	movie	1		289	66.0	2.5	/experiments/knapen_AOT/AOT_stimuli/rescaled_final/1939_rv.mp4	0.0	322.8085811138153	2.492137908935547
68	291.9171447753906	pulse	1	t		66.0	2.5	/experiments/knapen_AOT/AOT_stimuli/rescaled_final/1939_rv.mp4	0.0	323.58203172683716	
68	293.51729249954224	pulse	1	t		66.0	2.5	/experiments/knapen_AOT/AOT_stimuli/rescaled_final/1939_rv.mp4	0.0	325.18217945098877	
68	293.6358320713043	fix_post	2		12	66.0	2.5	/experiments/knapen_AOT/AOT_stimuli/rescaled_final/1939_rv.mp4	0.0	325.30071902275085	0.09990906715393066
69	293.73574113845825	fix_pre	0		120	67.0	2.5	/experiments/knapen_AOT/AOT_stimuli/rescaled_final/1553_rv.mp4	0.0	325.4006280899048	1.0085358619689941
69	294.74427700042725	movie	1		276	67.0	2.5	/experiments/knapen_AOT/AOT_stimuli/rescaled_final/1553_rv.mp4	0.0	326.4091639518738	2.4919726848602295
69	295.1185929775238	pulse	1	t		67.0	2.5	/experiments/knapen_AOT/AOT_stimuli/rescaled_final/1553_rv.mp4	0.0	326.78347992897034	
69	296.717896938324	pulse	1	t		67.0	2.5	/experiments/knapen_AOT/AOT_stimuli/rescaled_final/1553_rv.mp4	0.0	328.3827838897705	
69	297.2362496852875	fix_post	2		12	67.0	2.5	/experiments/knapen_AOT/AOT_stimuli/rescaled_final/1553_rv.mp4	0.0	328.901136636734	0.10001564025878906
70	297.33626532554626	fix_pre	0		118	68.0	2.5	/experiments/knapen_AOT/AOT_stimuli/rescaled_final/0923_fw.mp4	0.0	329.0011522769928	0.9918327331542969
70	298.311815738678	pulse	0	t		68.0	2.5	/experiments/knapen_AOT/AOT_stimuli/rescaled_final/0923_fw.mp4	0.0	329.9767026901245	
70	298.32809805870056	movie	1		263	68.0	2.5	/experiments/knapen_AOT/AOT_stimuli/rescaled_final/0923_fw.mp4	0.0	329.9929850101471	2.50079607963562
70	299.9127974510193	pulse	1	t		68.0	2.5	/experiments/knapen_AOT/AOT_stimuli/rescaled_final/0923_fw.mp4	0.0	331.5776844024658	
70	300.8288941383362	fix_post	2		12	68.0	2.5	/experiments/knapen_AOT/AOT_stimuli/rescaled_final/0923_fw.mp4	0.0	332.4937810897827	0.0997476577758789
71	300.92864179611206	fix_pre	0		120	69.0	2.5	/experiments/knapen_AOT/AOT_stimuli/rescaled_final/1205_rv.mp4	0.0	332.5935287475586	1.0083658695220947
71	301.51210260391235	pulse	0	t		69.0	2.5	/experiments/knapen_AOT/AOT_stimuli/rescaled_final/1205_rv.mp4	0.0	333.1769895553589	
71	301.93700766563416	movie	1		273	69.0	2.5	/experiments/knapen_AOT/AOT_stimuli/rescaled_final/1205_rv.mp4	0.0	333.6018946170807	2.491994619369507
71	303.11337637901306	pulse	1	t		69.0	2.5	/experiments/knapen_AOT/AOT_stimuli/rescaled_final/1205_rv.mp4	0.0	334.7782633304596	
71	304.42900228500366	fix_post	2		12	69.0	2.5	/experiments/knapen_AOT/AOT_stimuli/rescaled_final/1205_rv.mp4	0.0	336.0938892364502	0.10006213188171387
72	304.5290644168854	fix_pre	0		120	70.0	2.5	blank	1.0	336.1939513683319	1.0000879764556885
72	304.71255254745483	pulse	0	t		70.0	2.5	blank	1.0	336.37743949890137	
72	305.52915239334106	movie	1		300	70.0	2.5	blank	1.0	337.1940393447876	2.5004160404205322
72	306.3127830028534	pulse	1	t		70.0	2.5	blank	1.0	337.9776699542999	
72	307.91310238838196	pulse	1	t		70.0	2.5	blank	1.0	339.5779893398285	
72	308.0295684337616	fix_post	2		12	70.0	2.5	blank	1.0	339.69445538520813	0.10001826286315918
73	308.12958669662476	fix_pre	0		120	71.0	2.5	/experiments/knapen_AOT/AOT_stimuli/rescaled_final/0279_rv.mp4	0.0	339.7944736480713	1.0087618827819824
73	309.13834857940674	movie	1		269	71.0	2.5	/experiments/knapen_AOT/AOT_stimuli/rescaled_final/0279_rv.mp4	0.0	340.80323553085327	2.4922263622283936
73	309.5133066177368	pulse	1	t		71.0	2.5	/experiments/knapen_AOT/AOT_stimuli/rescaled_final/0279_rv.mp4	0.0	341.17819356918335	
73	311.11196517944336	pulse	1	t		71.0	2.5	/experiments/knapen_AOT/AOT_stimuli/rescaled_final/0279_rv.mp4	0.0	342.7768521308899	
73	311.63057494163513	fix_post	2		12	71.0	2.5	/experiments/knapen_AOT/AOT_stimuli/rescaled_final/0279_rv.mp4	0.0	343.29546189308167	0.09959053993225098
74	311.7301654815674	fix_pre	0		119	72.0	2.5	/experiments/knapen_AOT/AOT_stimuli/rescaled_final/1913_rv.mp4	0.0	343.3950524330139	1.0000872611999512
74	312.7142515182495	pulse	0	t		72.0	2.5	/experiments/knapen_AOT/AOT_stimuli/rescaled_final/1913_rv.mp4	0.0	344.37913846969604	
74	312.73025274276733	movie	1		271	72.0	2.5	/experiments/knapen_AOT/AOT_stimuli/rescaled_final/1913_rv.mp4	0.0	344.39513969421387	2.5004079341888428
74	314.31417512893677	pulse	1	t		72.0	2.5	/experiments/knapen_AOT/AOT_stimuli/rescaled_final/1913_rv.mp4	0.0	345.9790620803833	
74	315.2306606769562	fix_post	2		12	72.0	2.5	/experiments/knapen_AOT/AOT_stimuli/rescaled_final/1913_rv.mp4	0.0	346.8955476284027	0.10001587867736816
75	315.33067655563354	fix_pre	0		120	73.0	2.5	/experiments/knapen_AOT/AOT_stimuli/rescaled_final/0671_fw.mp4	0.0	346.9955635070801	1.0084567070007324
75	315.9144513607025	pulse	0	t		73.0	2.5	/experiments/knapen_AOT/AOT_stimuli/rescaled_final/0671_fw.mp4	0.0	347.57933831214905	
75	316.3391332626343	movie	1		278	73.0	2.5	/experiments/knapen_AOT/AOT_stimuli/rescaled_final/0671_fw.mp4	0.0	348.0040202140808	2.492187023162842
75	317.51268005371094	pulse	1	t		73.0	2.5	/experiments/knapen_AOT/AOT_stimuli/rescaled_final/0671_fw.mp4	0.0	349.17756700515747	
75	318.8313202857971	fix_post	2		12	73.0	2.5	/experiments/knapen_AOT/AOT_stimuli/rescaled_final/0671_fw.mp4	0.0	350.49620723724365	0.10005831718444824
76	318.93137860298157	fix_pre	0		120	74.0	2.5	/experiments/knapen_AOT/AOT_stimuli/rescaled_final/1491_fw.mp4	0.0	350.5962655544281	1.0084006786346436
76	319.114785194397	pulse	0	t		74.0	2.5	/experiments/knapen_AOT/AOT_stimuli/rescaled_final/1491_fw.mp4	0.0	350.7796721458435	
76	319.9397792816162	movie	1		281	74.0	2.5	/experiments/knapen_AOT/AOT_stimuli/rescaled_final/1491_fw.mp4	0.0	351.60466623306274	2.4920308589935303
76	320.71328353881836	pulse	1	t		74.0	2.5	/experiments/knapen_AOT/AOT_stimuli/rescaled_final/1491_fw.mp4	0.0	352.3781704902649	
76	322.31320309638977	pulse	1	t		74.0	2.5	/experiments/knapen_AOT/AOT_stimuli/rescaled_final/1491_fw.mp4	0.0	353.9780900478363	
76	322.43181014060974	fix_post	2		12	74.0	2.5	/experiments/knapen_AOT/AOT_stimuli/rescaled_final/1491_fw.mp4	0.0	354.0966970920563	0.09997797012329102
77	322.53178811073303	fix_pre	0		120	75.0	2.5	/experiments/knapen_AOT/AOT_stimuli/rescaled_final/1267_fw.mp4	0.0	354.19667506217957	1.0084946155548096
77	323.54028272628784	movie	1		267	75.0	2.5	/experiments/knapen_AOT/AOT_stimuli/rescaled_final/1267_fw.mp4	0.0	355.2051696777344	2.491990089416504
77	323.91525959968567	pulse	1	t		75.0	2.5	/experiments/knapen_AOT/AOT_stimuli/rescaled_final/1267_fw.mp4	0.0	355.5801465511322	
77	325.5146999359131	pulse	1	t		75.0	2.5	/experiments/knapen_AOT/AOT_stimuli/rescaled_final/1267_fw.mp4	0.0	357.1795868873596	
77	326.03227281570435	fix_post	2		12	75.0	2.5	/experiments/knapen_AOT/AOT_stimuli/rescaled_final/1267_fw.mp4	0.0	357.6971597671509	0.10020685195922852
78	326.1324796676636	fix_pre	0		119	76.0	2.5	/experiments/knapen_AOT/AOT_stimuli/rescaled_final/1855_fw.mp4	0.0	357.7973666191101	0.9999756813049316
78	327.1160566806793	pulse	0	t		76.0	2.5	/experiments/knapen_AOT/AOT_stimuli/rescaled_final/1855_fw.mp4	0.0	358.78094363212585	
78	327.1324553489685	movie	1		270	76.0	2.5	/experiments/knapen_AOT/AOT_stimuli/rescaled_final/1855_fw.mp4	0.0	358.79734230041504	2.508845329284668
78	328.71634459495544	pulse	1	t		76.0	2.5	/experiments/knapen_AOT/AOT_stimuli/rescaled_final/1855_fw.mp4	0.0	360.381231546402	
78	329.6413006782532	fix_post	2		11	76.0	2.5	/experiments/knapen_AOT/AOT_stimuli/rescaled_final/1855_fw.mp4	0.0	361.3061876296997	0.0915384292602539
79	329.7328391075134	fix_pre	0		120	77.0	2.5	blank	1.0	361.39772605895996	1.0001027584075928
79	330.3164529800415	pulse	0	t		77.0	2.5	blank	1.0	361.98133993148804	
79	330.732941865921	movie	1		300	77.0	2.5	blank	1.0	362.39782881736755	2.500382900238037
79	331.9167103767395	pulse	1	t		77.0	2.5	blank	1.0	363.58159732818604	
79	333.23332476615906	fix_post	2		12	77.0	2.5	blank	1.0	364.8982117176056	0.1000063419342041
80	333.33333110809326	fix_pre	0		120	78.0	2.5	/experiments/knapen_AOT/AOT_stimuli/rescaled_final/1422_fw.mp4	0.0	364.9982180595398	1.0084998607635498
80	333.516961812973	pulse	0	t		78.0	2.5	/experiments/knapen_AOT/AOT_stimuli/rescaled_final/1422_fw.mp4	0.0	365.18184876441956	
80	334.3418309688568	movie	1		276	78.0	2.5	/experiments/knapen_AOT/AOT_stimuli/rescaled_final/1422_fw.mp4	0.0	366.00671792030334	2.492117404937744
80	335.11585807800293	pulse	1	t		78.0	2.5	/experiments/knapen_AOT/AOT_stimuli/rescaled_final/1422_fw.mp4	0.0	366.78074502944946	
80	336.7173681259155	pulse	1	t		78.0	2.5	/experiments/knapen_AOT/AOT_stimuli/rescaled_final/1422_fw.mp4	0.0	368.38225507736206	
80	336.83394837379456	fix_post	2		12	78.0	2.5	/experiments/knapen_AOT/AOT_stimuli/rescaled_final/1422_fw.mp4	0.0	368.4988353252411	0.09998750686645508
81	336.933935880661	fix_pre	0		120	79.0	2.5	/experiments/knapen_AOT/AOT_stimuli/rescaled_final/1408_rv.mp4	0.0	368.59882283210754	1.00846529006958
81	337.9424011707306	movie	1		256	79.0	2.5	/experiments/knapen_AOT/AOT_stimuli/rescaled_final/1408_rv.mp4	0.0	369.6072881221771	2.4923574924468994
81	338.31665110588074	pulse	1	t		79.0	2.5	/experiments/knapen_AOT/AOT_stimuli/rescaled_final/1408_rv.mp4	0.0	369.98153805732727	
81	339.91574811935425	pulse	1	t		79.0	2.5	/experiments/knapen_AOT/AOT_stimuli/rescaled_final/1408_rv.mp4	0.0	371.5806350708008	
81	340.4347586631775	fix_post	2		12	79.0	2.5	/experiments/knapen_AOT/AOT_stimuli/rescaled_final/1408_rv.mp4	0.0	372.099645614624	0.09966802597045898
82	340.53442668914795	fix_pre	0		119	80.0	2.5	/experiments/knapen_AOT/AOT_stimuli/rescaled_final/0856_rv.mp4	0.0	372.1993136405945	1.0086634159088135
82	341.51924562454224	pulse	0	t		80.0	2.5	/experiments/knapen_AOT/AOT_stimuli/rescaled_final/0856_rv.mp4	0.0	373.18413257598877	
82	341.54309010505676	movie	1		258	80.0	2.5	/experiments/knapen_AOT/AOT_stimuli/rescaled_final/0856_rv.mp4	0.0	373.2079770565033	2.492042064666748
82	343.11794090270996	pulse	1	t		80.0	2.5	/experiments/knapen_AOT/AOT_stimuli/rescaled_final/0856_rv.mp4	0.0	374.7828278541565	
82	344.0351321697235	fix_post	2		12	80.0	2.5	/experiments/knapen_AOT/AOT_stimuli/rescaled_final/0856_rv.mp4	0.0	375.70001912117004	0.0998685359954834
83	344.135000705719	fix_pre	0		120	81.0	2.5	/experiments/knapen_AOT/AOT_stimuli/rescaled_final/1939_fw.mp4	0.0	375.7998876571655	1.0084574222564697
83	344.71862983703613	pulse	0	t		81.0	2.5	/experiments/knapen_AOT/AOT_stimuli/rescaled_final/1939_fw.mp4	0.0	376.38351678848267	
83	345.14345812797546	movie	1		267	81.0	2.5	/experiments/knapen_AOT/AOT_stimuli/rescaled_final/1939_fw.mp4	0.0	376.808345079422	2.492065191268921
83	346.31876158714294	pulse	1	t		81.0	2.5	/experiments/knapen_AOT/AOT_stimuli/rescaled_final/1939_fw.mp4	0.0	377.9836485385895	
83	347.6355233192444	fix_post	2		12	81.0	2.5	/experiments/knapen_AOT/AOT_stimuli/rescaled_final/1939_fw.mp4	0.0	379.3004102706909	0.10013651847839355
84	347.7356598377228	fix_pre	0		120	82.0	2.5	/experiments/knapen_AOT/AOT_stimuli/rescaled_final/0019_fw.mp4	0.0	379.4005467891693	1.0084426403045654
84	347.9113621711731	pulse	0	t		82.0	2.5	/experiments/knapen_AOT/AOT_stimuli/rescaled_final/0019_fw.mp4	0.0	379.57624912261963	
84	348.74410247802734	movie	1		264	82.0	2.5	/experiments/knapen_AOT/AOT_stimuli/rescaled_final/0019_fw.mp4	0.0	380.4089894294739	2.492130756378174
84	349.5110764503479	pulse	1	t		82.0	2.5	/experiments/knapen_AOT/AOT_stimuli/rescaled_final/0019_fw.mp4	0.0	381.17596340179443	
84	351.1112461090088	pulse	1	t		82.0	2.5	/experiments/knapen_AOT/AOT_stimuli/rescaled_final/0019_fw.mp4	0.0	382.7761330604553	
84	351.2362332344055	fix_post	2		12	82.0	2.5	/experiments/knapen_AOT/AOT_stimuli/rescaled_final/0019_fw.mp4	0.0	382.90112018585205	0.0999753475189209
85	351.33620858192444	fix_pre	0		120	83.0	2.5	blank	1.0	383.001095533371	1.0001132488250732
85	352.3363218307495	movie	1		299	83.0	2.5	blank	1.0	384.00120878219604	2.500251054763794
85	352.71158146858215	pulse	1	t		83.0	2.5	blank	1.0	384.3764684200287	
85	354.3125367164612	pulse	1	t		83.0	2.5	blank	1.0	385.9774236679077	
85	354.8365728855133	fix_post	2		12	83.0	2.5	blank	1.0	386.50145983695984	0.1083829402923584
87	354.94495582580566	stim	0		1715					386.6098427772522	14.293830871582031
87	355.9119725227356	pulse	0	t						387.57685947418213	
87	357.5121912956238	pulse	0	t						389.1770782470703	
87	359.11267924308777	pulse	0	t						390.7775661945343	
87	360.7127649784088	pulse	0	t						392.37765192985535	
87	362.3131675720215	pulse	0	t						393.978054523468	
87	363.91313910484314	pulse	0	t						395.5780260562897	
87	365.51346826553345	pulse	0	t						397.17835521698	
87	367.1136453151703	pulse	0	t						398.7785322666168	
87	368.71389389038086	pulse	0	t						400.3787808418274	
