trial_nr	onset	event_type	phase	response	nr_frames	movie_index	movie_duration	movie_file	blank	onset_abs	duration
0	0.13375592231750488	stim	0		119					19.894691705703735	0.9916648864746094
0	1.1173288822174072	response	0	space						20.878264665603638	
1	1.1254208087921143	stim	0		3478					20.886356592178345	28.98310399055481
1	30.10073685646057	pulse	0	t						49.8616726398468	
1	30.108524799346924	stim	1		1717					49.869460582733154	14.308309078216553
1	31.700424909591675	pulse	1	t						51.461360692977905	
1	33.30045795440674	pulse	1	t						53.06139373779297	
1	34.90045881271362	pulse	1	t						54.66139459609985	
1	36.500365018844604	pulse	1	t						56.261300802230835	
1	38.10042381286621	pulse	1	t						57.86135959625244	
1	39.70041298866272	pulse	1	t						59.46134877204895	
1	41.300397872924805	pulse	1	t						61.061333656311035	
1	42.90038084983826	pulse	1	t						62.66131663322449	
2	44.41683387756348	fix_pre	0		11	0.0	2.5	/experiments/AOT/AOT_stimuli/rescaled_final/0500_fw.mp4	0.0	64.1777696609497	0.09174013137817383
2	44.50041484832764	pulse	0	t		0.0	2.5	/experiments/AOT/AOT_stimuli/rescaled_final/0500_fw.mp4	0.0	64.26135063171387	
2	44.50857400894165	movie	1		247	0.0	2.5	/experiments/AOT/AOT_stimuli/rescaled_final/0500_fw.mp4	0.0	64.26950979232788	2.508237838745117
2	46.099825859069824	pulse	1	t		0.0	2.5	/experiments/AOT/AOT_stimuli/rescaled_final/0500_fw.mp4	0.0	65.86076164245605	
2	47.01681184768677	fix_post	2		12	0.0	2.5	/experiments/AOT/AOT_stimuli/rescaled_final/0500_fw.mp4	0.0	66.777747631073	0.10009503364562988
3	47.1169068813324	fix_pre	0		120	1.0	2.5	/experiments/AOT/AOT_stimuli/rescaled_final/1227_fw.mp4	0.0	66.87784266471863	0.9999620914459229
3	47.700408935546875	pulse	0	t		1.0	2.5	/experiments/AOT/AOT_stimuli/rescaled_final/1227_fw.mp4	0.0	67.4613447189331	
3	48.11686897277832	movie	1		244	1.0	2.5	/experiments/AOT/AOT_stimuli/rescaled_final/1227_fw.mp4	0.0	67.87780475616455	2.500056028366089
3	49.300442934036255	pulse	1	t		1.0	2.5	/experiments/AOT/AOT_stimuli/rescaled_final/1227_fw.mp4	0.0	69.06137871742249	
3	50.61692500114441	fix_post	2		12	1.0	2.5	/experiments/AOT/AOT_stimuli/rescaled_final/1227_fw.mp4	0.0	70.37786078453064	0.09991788864135742
4	50.71684288978577	fix_pre	0		120	2.0	2.5	/experiments/AOT/AOT_stimuli/rescaled_final/1144_rv.mp4	0.0	70.477778673172	1.000054121017456
4	50.90030884742737	pulse	0	t		2.0	2.5	/experiments/AOT/AOT_stimuli/rescaled_final/1144_rv.mp4	0.0	70.6612446308136	
4	51.71689701080322	movie	1		244	2.0	2.5	/experiments/AOT/AOT_stimuli/rescaled_final/1144_rv.mp4	0.0	71.47783279418945	2.499950885772705
4	52.500356912612915	pulse	1	t		2.0	2.5	/experiments/AOT/AOT_stimuli/rescaled_final/1144_rv.mp4	0.0	72.26129269599915	
4	54.09874987602234	pulse	1	t		2.0	2.5	/experiments/AOT/AOT_stimuli/rescaled_final/1144_rv.mp4	0.0	73.85968565940857	
4	54.21684789657593	fix_post	2		12	2.0	2.5	/experiments/AOT/AOT_stimuli/rescaled_final/1144_rv.mp4	0.0	73.97778367996216	0.09994292259216309
5	54.31679081916809	fix_pre	0		120	3.0	2.5	/experiments/AOT/AOT_stimuli/rescaled_final/1141_fw.mp4	0.0	74.07772660255432	1.0001521110534668
5	55.31694293022156	movie	1		246	3.0	2.5	/experiments/AOT/AOT_stimuli/rescaled_final/1141_fw.mp4	0.0	75.07787871360779	2.5003950595855713
5	55.699824810028076	pulse	1	t		3.0	2.5	/experiments/AOT/AOT_stimuli/rescaled_final/1141_fw.mp4	0.0	75.4607605934143	
5	57.30038499832153	pulse	1	t		3.0	2.5	/experiments/AOT/AOT_stimuli/rescaled_final/1141_fw.mp4	0.0	77.06132078170776	
5	57.81733798980713	fix_post	2		12	3.0	2.5	/experiments/AOT/AOT_stimuli/rescaled_final/1141_fw.mp4	0.0	77.57827377319336	0.099517822265625
6	57.916855812072754	fix_pre	0		119	4.0	2.5	/experiments/AOT/AOT_stimuli/rescaled_final/0680_rv.mp4	0.0	77.67779159545898	0.9916391372680664
6	58.900317907333374	pulse	0	t		4.0	2.5	/experiments/AOT/AOT_stimuli/rescaled_final/0680_rv.mp4	0.0	78.6612536907196	
6	58.90849494934082	movie	1		244	4.0	2.5	/experiments/AOT/AOT_stimuli/rescaled_final/0680_rv.mp4	0.0	78.66943073272705	2.508281946182251
6	60.500595808029175	pulse	1	t		4.0	2.5	/experiments/AOT/AOT_stimuli/rescaled_final/0680_rv.mp4	0.0	80.2615315914154	
6	61.41677689552307	fix_post	2		12	4.0	2.5	/experiments/AOT/AOT_stimuli/rescaled_final/0680_rv.mp4	0.0	81.1777126789093	0.10009407997131348
7	61.516870975494385	fix_pre	0		120	5.0	2.5	blank	1.0	81.27780675888062	0.9999749660491943
7	62.100456953048706	pulse	0	t		5.0	2.5	blank	1.0	81.86139273643494	
7	62.51684594154358	movie	1		300	5.0	2.5	blank	1.0	82.27778172492981	2.4999449253082275
7	63.70027494430542	pulse	1	t		5.0	2.5	blank	1.0	83.46121072769165	
7	65.0167908668518	fix_post	2		12	5.0	2.5	blank	1.0	84.77772665023804	0.10001897811889648
8	65.1168098449707	fix_pre	0		120	6.0	2.5	/experiments/AOT/AOT_stimuli/rescaled_final/0343_rv.mp4	0.0	84.87774562835693	0.999643087387085
8	65.30037784576416	pulse	0	t		6.0	2.5	/experiments/AOT/AOT_stimuli/rescaled_final/0343_rv.mp4	0.0	85.06131362915039	
8	66.11645293235779	movie	1		244	6.0	2.5	/experiments/AOT/AOT_stimuli/rescaled_final/0343_rv.mp4	0.0	85.87738871574402	2.500016927719116
8	66.89998388290405	pulse	1	t		6.0	2.5	/experiments/AOT/AOT_stimuli/rescaled_final/0343_rv.mp4	0.0	86.66091966629028	
8	68.49847793579102	pulse	1	t		6.0	2.5	/experiments/AOT/AOT_stimuli/rescaled_final/0343_rv.mp4	0.0	88.25941371917725	
8	68.6164698600769	fix_post	2		12	6.0	2.5	/experiments/AOT/AOT_stimuli/rescaled_final/0343_rv.mp4	0.0	88.37740564346313	0.10032510757446289
9	68.71679496765137	fix_pre	0		120	7.0	2.5	/experiments/AOT/AOT_stimuli/rescaled_final/1608_rv.mp4	0.0	88.4777307510376	0.9999849796295166
9	69.71677994728088	movie	1		244	7.0	2.5	/experiments/AOT/AOT_stimuli/rescaled_final/1608_rv.mp4	0.0	89.47771573066711	2.4999430179595947
9	70.09952783584595	pulse	1	t		7.0	2.5	/experiments/AOT/AOT_stimuli/rescaled_final/1608_rv.mp4	0.0	89.86046361923218	
9	71.70020198822021	pulse	1	t		7.0	2.5	/experiments/AOT/AOT_stimuli/rescaled_final/1608_rv.mp4	0.0	91.46113777160645	
9	72.21672296524048	fix_post	2		12	7.0	2.5	/experiments/AOT/AOT_stimuli/rescaled_final/1608_rv.mp4	0.0	91.97765874862671	0.10001587867736816
10	72.31673884391785	fix_pre	0		119	8.0	2.5	/experiments/AOT/AOT_stimuli/rescaled_final/1203_rv.mp4	0.0	92.07767462730408	0.9918210506439209
10	73.30015802383423	pulse	0	t		8.0	2.5	/experiments/AOT/AOT_stimuli/rescaled_final/1203_rv.mp4	0.0	93.06109380722046	
10	73.30855989456177	movie	1		248	8.0	2.5	/experiments/AOT/AOT_stimuli/rescaled_final/1203_rv.mp4	0.0	93.069495677948	2.5081570148468018
10	74.89990091323853	pulse	1	t		8.0	2.5	/experiments/AOT/AOT_stimuli/rescaled_final/1203_rv.mp4	0.0	94.66083669662476	
10	75.81671690940857	fix_post	2		12	8.0	2.5	/experiments/AOT/AOT_stimuli/rescaled_final/1203_rv.mp4	0.0	95.5776526927948	0.0999600887298584
11	75.91667699813843	fix_pre	0		120	9.0	2.5	/experiments/AOT/AOT_stimuli/rescaled_final/1767_rv.mp4	0.0	95.67761278152466	1.0001590251922607
11	76.5002748966217	pulse	0	t		9.0	2.5	/experiments/AOT/AOT_stimuli/rescaled_final/1767_rv.mp4	0.0	96.26121068000793	
11	76.91683602333069	movie	1		245	9.0	2.5	/experiments/AOT/AOT_stimuli/rescaled_final/1767_rv.mp4	0.0	96.67777180671692	2.4998998641967773
11	78.10029101371765	pulse	1	t		9.0	2.5	/experiments/AOT/AOT_stimuli/rescaled_final/1767_rv.mp4	0.0	97.86122679710388	
11	79.41673588752747	fix_post	2		12	9.0	2.5	/experiments/AOT/AOT_stimuli/rescaled_final/1767_rv.mp4	0.0	99.1776716709137	0.09997105598449707
12	79.51670694351196	fix_pre	0		120	10.0	2.5	/experiments/AOT/AOT_stimuli/rescaled_final/0133_fw.mp4	0.0	99.2776427268982	1.0000100135803223
12	79.70022583007812	pulse	0	t		10.0	2.5	/experiments/AOT/AOT_stimuli/rescaled_final/0133_fw.mp4	0.0	99.46116161346436	
12	80.51671695709229	movie	1		243	10.0	2.5	/experiments/AOT/AOT_stimuli/rescaled_final/0133_fw.mp4	0.0	100.27765274047852	2.500040054321289
12	81.30013298988342	pulse	1	t		10.0	2.5	/experiments/AOT/AOT_stimuli/rescaled_final/0133_fw.mp4	0.0	101.06106877326965	
12	82.8986439704895	pulse	1	t		10.0	2.5	/experiments/AOT/AOT_stimuli/rescaled_final/0133_fw.mp4	0.0	102.65957975387573	
12	83.01675701141357	fix_post	2		12	10.0	2.5	/experiments/AOT/AOT_stimuli/rescaled_final/0133_fw.mp4	0.0	102.7776927947998	0.09992194175720215
13	83.11667895317078	fix_pre	0		120	11.0	2.5	/experiments/AOT/AOT_stimuli/rescaled_final/0970_fw.mp4	0.0	102.877614736557	1.0000638961791992
13	84.11674284934998	movie	1		244	11.0	2.5	/experiments/AOT/AOT_stimuli/rescaled_final/0970_fw.mp4	0.0	103.8776786327362	2.4999799728393555
13	84.49998998641968	pulse	1	t		11.0	2.5	/experiments/AOT/AOT_stimuli/rescaled_final/0970_fw.mp4	0.0	104.26092576980591	
13	86.10017085075378	pulse	1	t		11.0	2.5	/experiments/AOT/AOT_stimuli/rescaled_final/0970_fw.mp4	0.0	105.86110663414001	
13	86.61672282218933	fix_post	2		12	11.0	2.5	/experiments/AOT/AOT_stimuli/rescaled_final/0970_fw.mp4	0.0	106.37765860557556	0.10010218620300293
14	86.71682500839233	fix_pre	0		119	12.0	2.5	/experiments/AOT/AOT_stimuli/rescaled_final/0254_rv.mp4	0.0	106.47776079177856	0.991447925567627
14	87.7001838684082	pulse	0	t		12.0	2.5	/experiments/AOT/AOT_stimuli/rescaled_final/0254_rv.mp4	0.0	107.46111965179443	
14	87.70827293395996	movie	1		245	12.0	2.5	/experiments/AOT/AOT_stimuli/rescaled_final/0254_rv.mp4	0.0	107.46920871734619	2.508396863937378
14	89.29956102371216	pulse	1	t		12.0	2.5	/experiments/AOT/AOT_stimuli/rescaled_final/0254_rv.mp4	0.0	109.06049680709839	
14	90.21666979789734	fix_post	2		12	12.0	2.5	/experiments/AOT/AOT_stimuli/rescaled_final/0254_rv.mp4	0.0	109.97760558128357	0.09992623329162598
15	90.31659603118896	fix_pre	0		120	13.0	2.5	blank	1.0	110.0775318145752	1.0000338554382324
15	90.90008401870728	pulse	0	t		13.0	2.5	blank	1.0	110.6610198020935	
15	91.3166298866272	movie	1		300	13.0	2.5	blank	1.0	111.07756567001343	2.5000340938568115
15	92.50010585784912	pulse	1	t		13.0	2.5	blank	1.0	112.26104164123535	
15	93.81666398048401	fix_post	2		12	13.0	2.5	blank	1.0	113.57759976387024	0.10006499290466309
16	93.91672897338867	fix_pre	0		120	14.0	2.5	/experiments/AOT/AOT_stimuli/rescaled_final/1080_rv.mp4	0.0	113.6776647567749	0.9998569488525391
16	94.10017800331116	pulse	0	t		14.0	2.5	/experiments/AOT/AOT_stimuli/rescaled_final/1080_rv.mp4	0.0	113.86111378669739	
16	94.91658592224121	movie	1		245	14.0	2.5	/experiments/AOT/AOT_stimuli/rescaled_final/1080_rv.mp4	0.0	114.67752170562744	2.500025987625122
16	95.70016288757324	pulse	1	t		14.0	2.5	/experiments/AOT/AOT_stimuli/rescaled_final/1080_rv.mp4	0.0	115.46109867095947	
16	97.29885482788086	pulse	1	t		14.0	2.5	/experiments/AOT/AOT_stimuli/rescaled_final/1080_rv.mp4	0.0	117.05979061126709	
16	97.41661190986633	fix_post	2		12	14.0	2.5	/experiments/AOT/AOT_stimuli/rescaled_final/1080_rv.mp4	0.0	117.17754769325256	0.10000395774841309
17	97.51661586761475	fix_pre	0		120	15.0	2.5	/experiments/AOT/AOT_stimuli/rescaled_final/0479_rv.mp4	0.0	117.27755165100098	0.9999971389770508
17	98.5166130065918	movie	1		244	15.0	2.5	/experiments/AOT/AOT_stimuli/rescaled_final/0479_rv.mp4	0.0	118.27754878997803	2.499969005584717
17	98.89979386329651	pulse	1	t		15.0	2.5	/experiments/AOT/AOT_stimuli/rescaled_final/0479_rv.mp4	0.0	118.66072964668274	
17	100.49995183944702	pulse	1	t		15.0	2.5	/experiments/AOT/AOT_stimuli/rescaled_final/0479_rv.mp4	0.0	120.26088762283325	
17	101.01658201217651	fix_post	2		12	15.0	2.5	/experiments/AOT/AOT_stimuli/rescaled_final/0479_rv.mp4	0.0	120.77751779556274	0.09999680519104004
18	101.11657881736755	fix_pre	0		119	16.0	2.5	/experiments/AOT/AOT_stimuli/rescaled_final/1021_rv.mp4	0.0	120.87751460075378	0.9917941093444824
18	102.1001238822937	pulse	0	t		16.0	2.5	/experiments/AOT/AOT_stimuli/rescaled_final/1021_rv.mp4	0.0	121.86105966567993	
18	102.10837292671204	movie	1		243	16.0	2.5	/experiments/AOT/AOT_stimuli/rescaled_final/1021_rv.mp4	0.0	121.86930871009827	2.5082640647888184
18	103.7011878490448	pulse	1	t		16.0	2.5	/experiments/AOT/AOT_stimuli/rescaled_final/1021_rv.mp4	0.0	123.46212363243103	
18	104.61663699150085	fix_post	2		12	16.0	2.5	/experiments/AOT/AOT_stimuli/rescaled_final/1021_rv.mp4	0.0	124.37757277488708	0.09999799728393555
19	104.71663498878479	fix_pre	0		120	17.0	2.5	/experiments/AOT/AOT_stimuli/rescaled_final/1767_rv.mp4	0.0	124.47757077217102	0.9999809265136719
19	105.30018401145935	pulse	0	t		17.0	2.5	/experiments/AOT/AOT_stimuli/rescaled_final/1767_rv.mp4	0.0	125.06111979484558	
19	105.71661591529846	movie	1		242	17.0	2.5	/experiments/AOT/AOT_stimuli/rescaled_final/1767_rv.mp4	0.0	125.47755169868469	2.4998741149902344
19	106.90029501914978	pulse	1	t		17.0	2.5	/experiments/AOT/AOT_stimuli/rescaled_final/1767_rv.mp4	0.0	126.66123080253601	
19	108.2164900302887	fix_post	2		12	17.0	2.5	/experiments/AOT/AOT_stimuli/rescaled_final/1767_rv.mp4	0.0	127.97742581367493	0.10002589225769043
20	108.31651592254639	fix_pre	0		120	18.0	2.5	/experiments/AOT/AOT_stimuli/rescaled_final/0211_fw.mp4	0.0	128.07745170593262	1.0000190734863281
20	108.50012993812561	pulse	0	t		18.0	2.5	/experiments/AOT/AOT_stimuli/rescaled_final/0211_fw.mp4	0.0	128.26106572151184	
20	109.31653499603271	movie	1		243	18.0	2.5	/experiments/AOT/AOT_stimuli/rescaled_final/0211_fw.mp4	0.0	129.07747077941895	2.5000948905944824
20	110.10028195381165	pulse	1	t		18.0	2.5	/experiments/AOT/AOT_stimuli/rescaled_final/0211_fw.mp4	0.0	129.86121773719788	
20	111.69872093200684	pulse	1	t		18.0	2.5	/experiments/AOT/AOT_stimuli/rescaled_final/0211_fw.mp4	0.0	131.45965671539307	
20	111.8166298866272	fix_post	2		12	18.0	2.5	/experiments/AOT/AOT_stimuli/rescaled_final/0211_fw.mp4	0.0	131.57756567001343	0.10004711151123047
21	111.91667699813843	fix_pre	0		120	19.0	2.5	/experiments/AOT/AOT_stimuli/rescaled_final/1214_fw.mp4	0.0	131.67761278152466	0.9999468326568604
21	112.91662383079529	movie	1		244	19.0	2.5	/experiments/AOT/AOT_stimuli/rescaled_final/1214_fw.mp4	0.0	132.67755961418152	2.4999241828918457
21	113.29958486557007	pulse	1	t		19.0	2.5	/experiments/AOT/AOT_stimuli/rescaled_final/1214_fw.mp4	0.0	133.0605206489563	
21	114.90004682540894	pulse	1	t		19.0	2.5	/experiments/AOT/AOT_stimuli/rescaled_final/1214_fw.mp4	0.0	134.66098260879517	
21	115.41654801368713	fix_post	2		12	19.0	2.5	/experiments/AOT/AOT_stimuli/rescaled_final/1214_fw.mp4	0.0	135.17748379707336	0.10004782676696777
22	115.5165958404541	fix_pre	0		119	20.0	2.5	/experiments/AOT/AOT_stimuli/rescaled_final/1185_rv.mp4	0.0	135.27753162384033	0.9915750026702881
22	116.50008702278137	pulse	0	t		20.0	2.5	/experiments/AOT/AOT_stimuli/rescaled_final/1185_rv.mp4	0.0	136.2610228061676	
22	116.50817084312439	movie	1		245	20.0	2.5	/experiments/AOT/AOT_stimuli/rescaled_final/1185_rv.mp4	0.0	136.26910662651062	2.5084080696105957
22	118.09969902038574	pulse	1	t		20.0	2.5	/experiments/AOT/AOT_stimuli/rescaled_final/1185_rv.mp4	0.0	137.86063480377197	
22	119.01657891273499	fix_post	2		12	20.0	2.5	/experiments/AOT/AOT_stimuli/rescaled_final/1185_rv.mp4	0.0	138.77751469612122	0.10003995895385742
23	119.11661887168884	fix_pre	0		120	21.0	2.5	blank	1.0	138.87755465507507	0.9999251365661621
23	119.70018100738525	pulse	0	t		21.0	2.5	blank	1.0	139.46111679077148	
23	120.116544008255	movie	1		300	21.0	2.5	blank	1.0	139.87747979164124	2.4996798038482666
23	121.29953193664551	pulse	1	t		21.0	2.5	blank	1.0	141.06046772003174	
23	122.61622381210327	fix_post	2		12	21.0	2.5	blank	1.0	142.3771595954895	0.10004615783691406
24	122.71626996994019	fix_pre	0		120	22.0	2.5	/experiments/AOT/AOT_stimuli/rescaled_final/0034_fw.mp4	0.0	142.47720575332642	1.000143051147461
24	122.89982080459595	pulse	0	t		22.0	2.5	/experiments/AOT/AOT_stimuli/rescaled_final/0034_fw.mp4	0.0	142.66075658798218	
24	123.71641302108765	movie	1		243	22.0	2.5	/experiments/AOT/AOT_stimuli/rescaled_final/0034_fw.mp4	0.0	143.47734880447388	2.500098943710327
24	124.5001289844513	pulse	1	t		22.0	2.5	/experiments/AOT/AOT_stimuli/rescaled_final/0034_fw.mp4	0.0	144.26106476783752	
24	126.09826183319092	pulse	1	t		22.0	2.5	/experiments/AOT/AOT_stimuli/rescaled_final/0034_fw.mp4	0.0	145.85919761657715	
24	126.21651196479797	fix_post	2		12	22.0	2.5	/experiments/AOT/AOT_stimuli/rescaled_final/0034_fw.mp4	0.0	145.9774477481842	0.09998393058776855
25	126.31649589538574	fix_pre	0		120	23.0	2.5	/experiments/AOT/AOT_stimuli/rescaled_final/2008_fw.mp4	0.0	146.07743167877197	0.9999880790710449
25	127.31648397445679	movie	1		244	23.0	2.5	/experiments/AOT/AOT_stimuli/rescaled_final/2008_fw.mp4	0.0	147.07741975784302	2.4999239444732666
25	127.69969701766968	pulse	1	t		23.0	2.5	/experiments/AOT/AOT_stimuli/rescaled_final/2008_fw.mp4	0.0	147.4606328010559	
25	129.29991388320923	pulse	1	t		23.0	2.5	/experiments/AOT/AOT_stimuli/rescaled_final/2008_fw.mp4	0.0	149.06084966659546	
25	129.81640791893005	fix_post	2		12	23.0	2.5	/experiments/AOT/AOT_stimuli/rescaled_final/2008_fw.mp4	0.0	149.57734370231628	0.10002303123474121
26	129.9164309501648	fix_pre	0		119	24.0	2.5	/experiments/AOT/AOT_stimuli/rescaled_final/0374_fw.mp4	0.0	149.67736673355103	0.991657018661499
26	130.89996790885925	pulse	0	t		24.0	2.5	/experiments/AOT/AOT_stimuli/rescaled_final/0374_fw.mp4	0.0	150.66090369224548	
26	130.9080879688263	movie	1		245	24.0	2.5	/experiments/AOT/AOT_stimuli/rescaled_final/0374_fw.mp4	0.0	150.66902375221252	2.508509874343872
26	132.49965691566467	pulse	1	t		24.0	2.5	/experiments/AOT/AOT_stimuli/rescaled_final/0374_fw.mp4	0.0	152.2605926990509	
26	133.41659784317017	fix_post	2		12	24.0	2.5	/experiments/AOT/AOT_stimuli/rescaled_final/0374_fw.mp4	0.0	153.1775336265564	0.09983110427856445
27	133.51642894744873	fix_pre	0		120	25.0	2.5	/experiments/AOT/AOT_stimuli/rescaled_final/0235_rv.mp4	0.0	153.27736473083496	1.0000090599060059
27	134.09992289543152	pulse	0	t		25.0	2.5	/experiments/AOT/AOT_stimuli/rescaled_final/0235_rv.mp4	0.0	153.86085867881775	
27	134.51643800735474	movie	1		244	25.0	2.5	/experiments/AOT/AOT_stimuli/rescaled_final/0235_rv.mp4	0.0	154.27737379074097	2.5000720024108887
27	135.6999819278717	pulse	1	t		25.0	2.5	/experiments/AOT/AOT_stimuli/rescaled_final/0235_rv.mp4	0.0	155.46091771125793	
27	137.01651000976562	fix_post	2		12	25.0	2.5	/experiments/AOT/AOT_stimuli/rescaled_final/0235_rv.mp4	0.0	156.77744579315186	0.09984493255615234
28	137.11635494232178	fix_pre	0		120	26.0	2.5	/experiments/AOT/AOT_stimuli/rescaled_final/1445_fw.mp4	0.0	156.877290725708	1.0001020431518555
28	137.29990196228027	pulse	0	t		26.0	2.5	/experiments/AOT/AOT_stimuli/rescaled_final/1445_fw.mp4	0.0	157.0608377456665	
28	138.11645698547363	movie	1		245	26.0	2.5	/experiments/AOT/AOT_stimuli/rescaled_final/1445_fw.mp4	0.0	157.87739276885986	2.499955892562866
28	138.89993500709534	pulse	1	t		26.0	2.5	/experiments/AOT/AOT_stimuli/rescaled_final/1445_fw.mp4	0.0	158.66087079048157	
28	140.49828791618347	pulse	1	t		26.0	2.5	/experiments/AOT/AOT_stimuli/rescaled_final/1445_fw.mp4	0.0	160.2592236995697	
28	140.6164128780365	fix_post	2		12	26.0	2.5	/experiments/AOT/AOT_stimuli/rescaled_final/1445_fw.mp4	0.0	160.37734866142273	0.09999799728393555
29	140.71641087532043	fix_pre	0		120	27.0	2.5	blank	1.0	160.47734665870667	1.000002145767212
29	141.71641302108765	movie	1		300	27.0	2.5	blank	1.0	161.47734880447388	2.499940872192383
29	142.099848985672	pulse	1	t		27.0	2.5	blank	1.0	161.86078476905823	
29	143.6998770236969	pulse	1	t		27.0	2.5	blank	1.0	163.46081280708313	
29	144.21635389328003	fix_post	2		12	27.0	2.5	blank	1.0	163.97728967666626	0.10001492500305176
30	144.31636881828308	fix_pre	0		119	28.0	2.5	/experiments/AOT/AOT_stimuli/rescaled_final/0372_fw.mp4	0.0	164.0773046016693	0.9916031360626221
30	145.29990601539612	pulse	0	t		28.0	2.5	/experiments/AOT/AOT_stimuli/rescaled_final/0372_fw.mp4	0.0	165.06084179878235	
30	145.3079719543457	movie	1		245	28.0	2.5	/experiments/AOT/AOT_stimuli/rescaled_final/0372_fw.mp4	0.0	165.06890773773193	2.5084118843078613
30	146.900043964386	pulse	1	t		28.0	2.5	/experiments/AOT/AOT_stimuli/rescaled_final/0372_fw.mp4	0.0	166.66097974777222	
30	147.81638383865356	fix_post	2		12	28.0	2.5	/experiments/AOT/AOT_stimuli/rescaled_final/0372_fw.mp4	0.0	167.5773196220398	0.10005402565002441
31	147.9164378643036	fix_pre	0		120	29.0	2.5	/experiments/AOT/AOT_stimuli/rescaled_final/1594_fw.mp4	0.0	167.67737364768982	0.9999599456787109
31	148.49983882904053	pulse	0	t		29.0	2.5	/experiments/AOT/AOT_stimuli/rescaled_final/1594_fw.mp4	0.0	168.26077461242676	
31	148.9163978099823	movie	1		244	29.0	2.5	/experiments/AOT/AOT_stimuli/rescaled_final/1594_fw.mp4	0.0	168.67733359336853	2.4999141693115234
31	150.0999538898468	pulse	1	t		29.0	2.5	/experiments/AOT/AOT_stimuli/rescaled_final/1594_fw.mp4	0.0	169.86088967323303	
31	151.41631197929382	fix_post	2		12	29.0	2.5	/experiments/AOT/AOT_stimuli/rescaled_final/1594_fw.mp4	0.0	171.17724776268005	0.10000205039978027
32	151.5163140296936	fix_pre	0		120	30.0	2.5	/experiments/AOT/AOT_stimuli/rescaled_final/0593_rv.mp4	0.0	171.27724981307983	1.0000579357147217
32	151.69989490509033	pulse	0	t		30.0	2.5	/experiments/AOT/AOT_stimuli/rescaled_final/0593_rv.mp4	0.0	171.46083068847656	
32	152.51637196540833	movie	1		243	30.0	2.5	/experiments/AOT/AOT_stimuli/rescaled_final/0593_rv.mp4	0.0	172.27730774879456	2.5000228881835938
32	153.29978895187378	pulse	1	t		30.0	2.5	/experiments/AOT/AOT_stimuli/rescaled_final/0593_rv.mp4	0.0	173.06072473526	
32	154.8980588912964	pulse	1	t		30.0	2.5	/experiments/AOT/AOT_stimuli/rescaled_final/0593_rv.mp4	0.0	174.65899467468262	
32	155.01639485359192	fix_post	2		12	30.0	2.5	/experiments/AOT/AOT_stimuli/rescaled_final/0593_rv.mp4	0.0	174.77733063697815	0.09984803199768066
33	155.1162428855896	fix_pre	0		120	31.0	2.5	/experiments/AOT/AOT_stimuli/rescaled_final/1793_rv.mp4	0.0	174.87717866897583	1.0001299381256104
33	156.1163728237152	movie	1		245	31.0	2.5	/experiments/AOT/AOT_stimuli/rescaled_final/1793_rv.mp4	0.0	175.87730860710144	2.5000011920928955
33	156.49926280975342	pulse	1	t		31.0	2.5	/experiments/AOT/AOT_stimuli/rescaled_final/1793_rv.mp4	0.0	176.26019859313965	
33	158.09983801841736	pulse	1	t		31.0	2.5	/experiments/AOT/AOT_stimuli/rescaled_final/1793_rv.mp4	0.0	177.8607738018036	
33	158.6163740158081	fix_post	2		12	31.0	2.5	/experiments/AOT/AOT_stimuli/rescaled_final/1793_rv.mp4	0.0	178.37730979919434	0.09996700286865234
34	158.71634101867676	fix_pre	0		119	32.0	2.5	/experiments/AOT/AOT_stimuli/rescaled_final/0672_rv.mp4	0.0	178.477276802063	0.991649866104126
34	159.69976782798767	pulse	0	t		32.0	2.5	/experiments/AOT/AOT_stimuli/rescaled_final/0672_rv.mp4	0.0	179.4607036113739	
34	159.70799088478088	movie	1		246	32.0	2.5	/experiments/AOT/AOT_stimuli/rescaled_final/0672_rv.mp4	0.0	179.46892666816711	2.5083940029144287
34	161.29943299293518	pulse	1	t		32.0	2.5	/experiments/AOT/AOT_stimuli/rescaled_final/0672_rv.mp4	0.0	181.0603687763214	
34	162.2163848876953	fix_post	2		12	32.0	2.5	/experiments/AOT/AOT_stimuli/rescaled_final/0672_rv.mp4	0.0	181.97732067108154	0.10000109672546387
35	162.31638598442078	fix_pre	0		120	33.0	2.5	/experiments/AOT/AOT_stimuli/rescaled_final/1924_rv.mp4	0.0	182.077321767807	0.9999229907989502
35	162.89983296394348	pulse	0	t		33.0	2.5	/experiments/AOT/AOT_stimuli/rescaled_final/1924_rv.mp4	0.0	182.6607687473297	
35	163.31630897521973	movie	1		245	33.0	2.5	/experiments/AOT/AOT_stimuli/rescaled_final/1924_rv.mp4	0.0	183.07724475860596	2.499997854232788
35	164.499902009964	pulse	1	t		33.0	2.5	/experiments/AOT/AOT_stimuli/rescaled_final/1924_rv.mp4	0.0	184.26083779335022	
35	165.81630682945251	fix_post	2		12	33.0	2.5	/experiments/AOT/AOT_stimuli/rescaled_final/1924_rv.mp4	0.0	185.57724261283875	0.09995198249816895
36	165.91625881195068	fix_pre	0		120	34.0	2.5	/experiments/AOT/AOT_stimuli/rescaled_final/1694_rv.mp4	0.0	185.6771945953369	1.000040054321289
36	166.0997359752655	pulse	0	t		34.0	2.5	/experiments/AOT/AOT_stimuli/rescaled_final/1694_rv.mp4	0.0	185.86067175865173	
36	166.91629886627197	movie	1		243	34.0	2.5	/experiments/AOT/AOT_stimuli/rescaled_final/1694_rv.mp4	0.0	186.6772346496582	2.499958038330078
36	167.69980788230896	pulse	1	t		34.0	2.5	/experiments/AOT/AOT_stimuli/rescaled_final/1694_rv.mp4	0.0	187.4607436656952	
36	169.29809093475342	pulse	1	t		34.0	2.5	/experiments/AOT/AOT_stimuli/rescaled_final/1694_rv.mp4	0.0	189.05902671813965	
36	169.41625690460205	fix_post	2		12	34.0	2.5	/experiments/AOT/AOT_stimuli/rescaled_final/1694_rv.mp4	0.0	189.17719268798828	0.10001397132873535
37	169.5162708759308	fix_pre	0		120	35.0	2.5	blank	1.0	189.27720665931702	0.9999730587005615
37	170.51624393463135	movie	1		300	35.0	2.5	blank	1.0	190.27717971801758	2.500006914138794
37	170.89976000785828	pulse	1	t		35.0	2.5	blank	1.0	190.6606957912445	
37	172.49981594085693	pulse	1	t		35.0	2.5	blank	1.0	192.26075172424316	
37	173.01625084877014	fix_post	2		12	35.0	2.5	blank	1.0	192.77718663215637	0.09997105598449707
38	173.11622190475464	fix_pre	0		119	36.0	2.5	/experiments/AOT/AOT_stimuli/rescaled_final/0754_fw.mp4	0.0	192.87715768814087	0.9916119575500488
38	174.099750995636	pulse	0	t		36.0	2.5	/experiments/AOT/AOT_stimuli/rescaled_final/0754_fw.mp4	0.0	193.86068677902222	
38	174.1078338623047	movie	1		247	36.0	2.5	/experiments/AOT/AOT_stimuli/rescaled_final/0754_fw.mp4	0.0	193.86876964569092	2.508371114730835
38	175.6995530128479	pulse	1	t		36.0	2.5	/experiments/AOT/AOT_stimuli/rescaled_final/0754_fw.mp4	0.0	195.46048879623413	
38	176.61620497703552	fix_post	2		12	36.0	2.5	/experiments/AOT/AOT_stimuli/rescaled_final/0754_fw.mp4	0.0	196.37714076042175	0.09960103034973145
39	176.71580600738525	fix_pre	0		120	37.0	2.5	/experiments/AOT/AOT_stimuli/rescaled_final/0932_rv.mp4	0.0	196.47674179077148	1.0000410079956055
39	177.29941391944885	pulse	0	t		37.0	2.5	/experiments/AOT/AOT_stimuli/rescaled_final/0932_rv.mp4	0.0	197.06034970283508	
39	177.71584701538086	movie	1		244	37.0	2.5	/experiments/AOT/AOT_stimuli/rescaled_final/0932_rv.mp4	0.0	197.4767827987671	2.5004148483276367
39	178.90009784698486	pulse	1	t		37.0	2.5	/experiments/AOT/AOT_stimuli/rescaled_final/0932_rv.mp4	0.0	198.6610336303711	
39	180.2162618637085	fix_post	2		12	37.0	2.5	/experiments/AOT/AOT_stimuli/rescaled_final/0932_rv.mp4	0.0	199.97719764709473	0.09997296333312988
40	180.31623482704163	fix_pre	0		120	38.0	2.5	/experiments/AOT/AOT_stimuli/rescaled_final/1481_rv.mp4	0.0	200.07717061042786	1.000014066696167
40	180.49972701072693	pulse	0	t		38.0	2.5	/experiments/AOT/AOT_stimuli/rescaled_final/1481_rv.mp4	0.0	200.26066279411316	
40	181.3162488937378	movie	1		244	38.0	2.5	/experiments/AOT/AOT_stimuli/rescaled_final/1481_rv.mp4	0.0	201.07718467712402	2.4999520778656006
40	182.0996959209442	pulse	1	t		38.0	2.5	/experiments/AOT/AOT_stimuli/rescaled_final/1481_rv.mp4	0.0	201.86063170433044	
40	183.69796991348267	pulse	1	t		38.0	2.5	/experiments/AOT/AOT_stimuli/rescaled_final/1481_rv.mp4	0.0	203.4589056968689	
40	183.8162009716034	fix_post	2		12	38.0	2.5	/experiments/AOT/AOT_stimuli/rescaled_final/1481_rv.mp4	0.0	203.57713675498962	0.10002303123474121
41	183.91622400283813	fix_pre	0		120	39.0	2.5	/experiments/AOT/AOT_stimuli/rescaled_final/0932_rv.mp4	0.0	203.67715978622437	0.9999368190765381
41	184.91616082191467	movie	1		247	39.0	2.5	/experiments/AOT/AOT_stimuli/rescaled_final/0932_rv.mp4	0.0	204.6770966053009	2.4999940395355225
41	185.29930186271667	pulse	1	t		39.0	2.5	/experiments/AOT/AOT_stimuli/rescaled_final/0932_rv.mp4	0.0	205.0602376461029	
41	186.8997778892517	pulse	1	t		39.0	2.5	/experiments/AOT/AOT_stimuli/rescaled_final/0932_rv.mp4	0.0	206.66071367263794	
41	187.4161548614502	fix_post	2		12	39.0	2.5	/experiments/AOT/AOT_stimuli/rescaled_final/0932_rv.mp4	0.0	207.17709064483643	0.10003995895385742
42	187.51619482040405	fix_pre	0		119	40.0	2.5	/experiments/AOT/AOT_stimuli/rescaled_final/0246_fw.mp4	0.0	207.27713060379028	0.9916481971740723
42	188.49962902069092	pulse	0	t		40.0	2.5	/experiments/AOT/AOT_stimuli/rescaled_final/0246_fw.mp4	0.0	208.26056480407715	
42	188.50784301757812	movie	1		246	40.0	2.5	/experiments/AOT/AOT_stimuli/rescaled_final/0246_fw.mp4	0.0	208.26877880096436	2.5083439350128174
42	190.09931087493896	pulse	1	t		40.0	2.5	/experiments/AOT/AOT_stimuli/rescaled_final/0246_fw.mp4	0.0	209.8602466583252	
42	191.01618695259094	fix_post	2		12	40.0	2.5	/experiments/AOT/AOT_stimuli/rescaled_final/0246_fw.mp4	0.0	210.77712273597717	0.10003995895385742
43	191.1162269115448	fix_pre	0		120	41.0	2.5	/experiments/AOT/AOT_stimuli/rescaled_final/0500_rv.mp4	0.0	210.87716269493103	0.9999639987945557
43	191.6997468471527	pulse	0	t		41.0	2.5	/experiments/AOT/AOT_stimuli/rescaled_final/0500_rv.mp4	0.0	211.46068263053894	
43	192.11619091033936	movie	1		244	41.0	2.5	/experiments/AOT/AOT_stimuli/rescaled_final/0500_rv.mp4	0.0	211.8771266937256	2.500044107437134
43	193.29972195625305	pulse	1	t		41.0	2.5	/experiments/AOT/AOT_stimuli/rescaled_final/0500_rv.mp4	0.0	213.06065773963928	
43	194.6162350177765	fix_post	2		12	41.0	2.5	/experiments/AOT/AOT_stimuli/rescaled_final/0500_rv.mp4	0.0	214.37717080116272	0.09996199607849121
44	194.71619701385498	fix_pre	0		120	42.0	2.5	blank	1.0	214.4771327972412	0.9998769760131836
44	194.89961099624634	pulse	0	t		42.0	2.5	blank	1.0	214.66054677963257	
44	195.71607398986816	movie	1		300	42.0	2.5	blank	1.0	215.4770097732544	2.500062942504883
44	196.49955201148987	pulse	1	t		42.0	2.5	blank	1.0	216.2604877948761	
44	198.09954500198364	pulse	1	t		42.0	2.5	blank	1.0	217.86048078536987	
44	198.21613693237305	fix_post	2		12	42.0	2.5	blank	1.0	217.97707271575928	0.09993886947631836
45	198.31607580184937	fix_pre	0		120	43.0	2.5	/experiments/AOT/AOT_stimuli/rescaled_final/1063_fw.mp4	0.0	218.0770115852356	1.0000190734863281
45	199.3160948753357	movie	1		244	43.0	2.5	/experiments/AOT/AOT_stimuli/rescaled_final/1063_fw.mp4	0.0	219.07703065872192	2.5000009536743164
45	199.69940781593323	pulse	1	t		43.0	2.5	/experiments/AOT/AOT_stimuli/rescaled_final/1063_fw.mp4	0.0	219.46034359931946	
45	201.29962491989136	pulse	1	t		43.0	2.5	/experiments/AOT/AOT_stimuli/rescaled_final/1063_fw.mp4	0.0	221.0605607032776	
45	201.81609582901	fix_post	2		12	43.0	2.5	/experiments/AOT/AOT_stimuli/rescaled_final/1063_fw.mp4	0.0	221.57703161239624	0.10002613067626953
46	201.91612195968628	fix_pre	0		119	44.0	2.5	/experiments/AOT/AOT_stimuli/rescaled_final/0317_fw.mp4	0.0	221.6770577430725	0.991628885269165
46	202.8996298313141	pulse	0	t		44.0	2.5	/experiments/AOT/AOT_stimuli/rescaled_final/0317_fw.mp4	0.0	222.66056561470032	
46	202.90775084495544	movie	1		245	44.0	2.5	/experiments/AOT/AOT_stimuli/rescaled_final/0317_fw.mp4	0.0	222.66868662834167	2.508334159851074
46	204.4998939037323	pulse	1	t		44.0	2.5	/experiments/AOT/AOT_stimuli/rescaled_final/0317_fw.mp4	0.0	224.26082968711853	
46	205.41608500480652	fix_post	2		12	44.0	2.5	/experiments/AOT/AOT_stimuli/rescaled_final/0317_fw.mp4	0.0	225.17702078819275	0.09998893737792969
47	205.51607394218445	fix_pre	0		120	45.0	2.5	/experiments/AOT/AOT_stimuli/rescaled_final/1911_fw.mp4	0.0	225.27700972557068	1.0000219345092773
47	206.09959983825684	pulse	0	t		45.0	2.5	/experiments/AOT/AOT_stimuli/rescaled_final/1911_fw.mp4	0.0	225.86053562164307	
47	206.51609587669373	movie	1		245	45.0	2.5	/experiments/AOT/AOT_stimuli/rescaled_final/1911_fw.mp4	0.0	226.27703166007996	2.499962091445923
47	207.69969201087952	pulse	1	t		45.0	2.5	/experiments/AOT/AOT_stimuli/rescaled_final/1911_fw.mp4	0.0	227.46062779426575	
47	209.01605796813965	fix_post	2		12	45.0	2.5	/experiments/AOT/AOT_stimuli/rescaled_final/1911_fw.mp4	0.0	228.77699375152588	0.10005402565002441
48	209.11611199378967	fix_pre	0		120	46.0	2.5	/experiments/AOT/AOT_stimuli/rescaled_final/0799_rv.mp4	0.0	228.8770477771759	1.000006914138794
48	209.29965782165527	pulse	0	t		46.0	2.5	/experiments/AOT/AOT_stimuli/rescaled_final/0799_rv.mp4	0.0	229.0605936050415	
48	210.11611890792847	movie	1		243	46.0	2.5	/experiments/AOT/AOT_stimuli/rescaled_final/0799_rv.mp4	0.0	229.8770546913147	2.499951124191284
48	210.89958500862122	pulse	1	t		46.0	2.5	/experiments/AOT/AOT_stimuli/rescaled_final/0799_rv.mp4	0.0	230.66052079200745	
48	212.49819898605347	pulse	1	t		46.0	2.5	/experiments/AOT/AOT_stimuli/rescaled_final/0799_rv.mp4	0.0	232.2591347694397	
48	212.61607003211975	fix_post	2		12	46.0	2.5	/experiments/AOT/AOT_stimuli/rescaled_final/0799_rv.mp4	0.0	232.37700581550598	0.10003399848937988
49	212.71610403060913	fix_pre	0		120	47.0	2.5	/experiments/AOT/AOT_stimuli/rescaled_final/0949_rv.mp4	0.0	232.47703981399536	0.9999988079071045
49	213.71610283851624	movie	1		244	47.0	2.5	/experiments/AOT/AOT_stimuli/rescaled_final/0949_rv.mp4	0.0	233.47703862190247	2.500014066696167
49	214.10096883773804	pulse	1	t		47.0	2.5	/experiments/AOT/AOT_stimuli/rescaled_final/0949_rv.mp4	0.0	233.86190462112427	
49	215.69957780838013	pulse	1	t		47.0	2.5	/experiments/AOT/AOT_stimuli/rescaled_final/0949_rv.mp4	0.0	235.46051359176636	
49	216.2161169052124	fix_post	2		12	47.0	2.5	/experiments/AOT/AOT_stimuli/rescaled_final/0949_rv.mp4	0.0	235.97705268859863	0.09990596771240234
50	216.3160228729248	fix_pre	0		119	48.0	2.5	blank	1.0	236.07695865631104	0.9916660785675049
50	217.29955983161926	pulse	0	t		48.0	2.5	blank	1.0	237.0604956150055	
50	217.3076889514923	movie	1		301	48.0	2.5	blank	1.0	237.06862473487854	2.5083069801330566
50	218.89952182769775	pulse	1	t		48.0	2.5	blank	1.0	238.66045761108398	
50	219.81599593162537	fix_post	2		12	48.0	2.5	blank	1.0	239.5769317150116	0.10003995895385742
51	219.91603589057922	fix_pre	0		120	49.0	2.5	/experiments/AOT/AOT_stimuli/rescaled_final/0471_fw.mp4	0.0	239.67697167396545	1.0000109672546387
51	220.4995288848877	pulse	0	t		49.0	2.5	/experiments/AOT/AOT_stimuli/rescaled_final/0471_fw.mp4	0.0	240.26046466827393	
51	220.91604685783386	movie	1		244	49.0	2.5	/experiments/AOT/AOT_stimuli/rescaled_final/0471_fw.mp4	0.0	240.6769826412201	2.500058174133301
51	222.0996057987213	pulse	1	t		49.0	2.5	/experiments/AOT/AOT_stimuli/rescaled_final/0471_fw.mp4	0.0	241.86054158210754	
51	223.41610503196716	fix_post	2		12	49.0	2.5	/experiments/AOT/AOT_stimuli/rescaled_final/0471_fw.mp4	0.0	243.1770408153534	0.09996986389160156
52	223.51607489585876	fix_pre	0		120	50.0	2.5	/experiments/AOT/AOT_stimuli/rescaled_final/0620_rv.mp4	0.0	243.277010679245	0.9999120235443115
52	223.69954681396484	pulse	0	t		50.0	2.5	/experiments/AOT/AOT_stimuli/rescaled_final/0620_rv.mp4	0.0	243.46048259735107	
52	224.51598691940308	movie	1		243	50.0	2.5	/experiments/AOT/AOT_stimuli/rescaled_final/0620_rv.mp4	0.0	244.2769227027893	2.5000391006469727
52	225.29950594902039	pulse	1	t		50.0	2.5	/experiments/AOT/AOT_stimuli/rescaled_final/0620_rv.mp4	0.0	245.06044173240662	
52	226.89787602424622	pulse	1	t		50.0	2.5	/experiments/AOT/AOT_stimuli/rescaled_final/0620_rv.mp4	0.0	246.65881180763245	
52	227.01602602005005	fix_post	2		12	50.0	2.5	/experiments/AOT/AOT_stimuli/rescaled_final/0620_rv.mp4	0.0	246.77696180343628	0.09996199607849121
53	227.11598801612854	fix_pre	0		120	51.0	2.5	/experiments/AOT/AOT_stimuli/rescaled_final/1267_rv.mp4	0.0	246.87692379951477	0.9999668598175049
53	228.11595487594604	movie	1		245	51.0	2.5	/experiments/AOT/AOT_stimuli/rescaled_final/1267_rv.mp4	0.0	247.87689065933228	2.5000951290130615
53	228.49926280975342	pulse	1	t		51.0	2.5	/experiments/AOT/AOT_stimuli/rescaled_final/1267_rv.mp4	0.0	248.26019859313965	
53	230.09958696365356	pulse	1	t		51.0	2.5	/experiments/AOT/AOT_stimuli/rescaled_final/1267_rv.mp4	0.0	249.8605227470398	
53	230.6160500049591	fix_post	2		12	51.0	2.5	/experiments/AOT/AOT_stimuli/rescaled_final/1267_rv.mp4	0.0	250.37698578834534	0.09997081756591797
54	230.71602082252502	fix_pre	0		119	52.0	2.5	/experiments/AOT/AOT_stimuli/rescaled_final/0620_rv.mp4	0.0	250.47695660591125	0.991631031036377
54	231.69949793815613	pulse	0	t		52.0	2.5	/experiments/AOT/AOT_stimuli/rescaled_final/0620_rv.mp4	0.0	251.46043372154236	
54	231.7076518535614	movie	1		246	52.0	2.5	/experiments/AOT/AOT_stimuli/rescaled_final/0620_rv.mp4	0.0	251.46858763694763	2.5084691047668457
54	233.29921698570251	pulse	1	t		52.0	2.5	/experiments/AOT/AOT_stimuli/rescaled_final/0620_rv.mp4	0.0	253.06015276908875	
54	234.21612095832825	fix_post	2		12	52.0	2.5	/experiments/AOT/AOT_stimuli/rescaled_final/0620_rv.mp4	0.0	253.97705674171448	0.09995007514953613
55	234.31607103347778	fix_pre	0		120	53.0	2.5	/experiments/AOT/AOT_stimuli/rescaled_final/1694_fw.mp4	0.0	254.077006816864	1.000220775604248
55	234.89965796470642	pulse	0	t		53.0	2.5	/experiments/AOT/AOT_stimuli/rescaled_final/1694_fw.mp4	0.0	254.66059374809265	
55	235.31629180908203	movie	1		244	53.0	2.5	/experiments/AOT/AOT_stimuli/rescaled_final/1694_fw.mp4	0.0	255.07722759246826	2.499667167663574
55	236.49963188171387	pulse	1	t		53.0	2.5	/experiments/AOT/AOT_stimuli/rescaled_final/1694_fw.mp4	0.0	256.2605676651001	
55	237.8159589767456	fix_post	2		12	53.0	2.5	/experiments/AOT/AOT_stimuli/rescaled_final/1694_fw.mp4	0.0	257.57689476013184	0.09997105598449707
56	237.9159300327301	fix_pre	0		120	54.0	2.5	/experiments/AOT/AOT_stimuli/rescaled_final/1241_fw.mp4	0.0	257.67686581611633	1.000020980834961
56	238.09943199157715	pulse	0	t		54.0	2.5	/experiments/AOT/AOT_stimuli/rescaled_final/1241_fw.mp4	0.0	257.8603677749634	
56	238.91595101356506	movie	1		244	54.0	2.5	/experiments/AOT/AOT_stimuli/rescaled_final/1241_fw.mp4	0.0	258.6768867969513	2.499955892562866
56	239.69942498207092	pulse	1	t		54.0	2.5	/experiments/AOT/AOT_stimuli/rescaled_final/1241_fw.mp4	0.0	259.46036076545715	
56	241.29799699783325	pulse	1	t		54.0	2.5	/experiments/AOT/AOT_stimuli/rescaled_final/1241_fw.mp4	0.0	261.0589327812195	
56	241.41590690612793	fix_post	2		12	54.0	2.5	/experiments/AOT/AOT_stimuli/rescaled_final/1241_fw.mp4	0.0	261.17684268951416	0.09995102882385254
57	241.51585793495178	fix_pre	0		120	55.0	2.5	/experiments/AOT/AOT_stimuli/rescaled_final/0359_fw.mp4	0.0	261.276793718338	0.9999799728393555
57	242.51583790779114	movie	1		245	55.0	2.5	/experiments/AOT/AOT_stimuli/rescaled_final/0359_fw.mp4	0.0	262.27677369117737	2.5000100135803223
57	242.8991379737854	pulse	1	t		55.0	2.5	/experiments/AOT/AOT_stimuli/rescaled_final/0359_fw.mp4	0.0	262.66007375717163	
57	244.49932098388672	pulse	1	t		55.0	2.5	/experiments/AOT/AOT_stimuli/rescaled_final/0359_fw.mp4	0.0	264.26025676727295	
57	245.01584792137146	fix_post	2		12	55.0	2.5	/experiments/AOT/AOT_stimuli/rescaled_final/0359_fw.mp4	0.0	264.7767837047577	0.10005402565002441
58	245.11590194702148	fix_pre	0		119	56.0	2.5	blank	1.0	264.8768377304077	0.9915468692779541
58	246.09932589530945	pulse	0	t		56.0	2.5	blank	1.0	265.8602616786957	
58	246.10744881629944	movie	1		301	56.0	2.5	blank	1.0	265.86838459968567	2.5083940029144287
58	247.69941592216492	pulse	1	t		56.0	2.5	blank	1.0	267.46035170555115	
58	248.61584281921387	fix_post	2		12	56.0	2.5	blank	1.0	268.3767786026001	0.10003519058227539
59	248.71587800979614	fix_pre	0		120	57.0	2.5	/experiments/AOT/AOT_stimuli/rescaled_final/1578_fw.mp4	0.0	268.4768137931824	0.9998948574066162
59	249.29937887191772	pulse	0	t		57.0	2.5	/experiments/AOT/AOT_stimuli/rescaled_final/1578_fw.mp4	0.0	269.06031465530396	
59	249.71577286720276	movie	1		249	57.0	2.5	/experiments/AOT/AOT_stimuli/rescaled_final/1578_fw.mp4	0.0	269.476708650589	2.50016713142395
59	250.89943194389343	pulse	1	t		57.0	2.5	/experiments/AOT/AOT_stimuli/rescaled_final/1578_fw.mp4	0.0	270.66036772727966	
59	252.2159399986267	fix_post	2		12	57.0	2.5	/experiments/AOT/AOT_stimuli/rescaled_final/1578_fw.mp4	0.0	271.97687578201294	0.09994888305664062
60	252.31588888168335	fix_pre	0		120	58.0	2.5	/experiments/AOT/AOT_stimuli/rescaled_final/0949_rv.mp4	0.0	272.0768246650696	1.000007152557373
60	252.49938082695007	pulse	0	t		58.0	2.5	/experiments/AOT/AOT_stimuli/rescaled_final/0949_rv.mp4	0.0	272.2603166103363	
60	253.31589603424072	movie	1		246	58.0	2.5	/experiments/AOT/AOT_stimuli/rescaled_final/0949_rv.mp4	0.0	273.07683181762695	2.4998908042907715
60	254.09933590888977	pulse	1	t		58.0	2.5	/experiments/AOT/AOT_stimuli/rescaled_final/0949_rv.mp4	0.0	273.860271692276	
60	255.69775080680847	pulse	1	t		58.0	2.5	/experiments/AOT/AOT_stimuli/rescaled_final/0949_rv.mp4	0.0	275.4586865901947	
60	255.8157868385315	fix_post	2		12	58.0	2.5	/experiments/AOT/AOT_stimuli/rescaled_final/0949_rv.mp4	0.0	275.5767226219177	0.10014104843139648
61	255.9159278869629	fix_pre	0		120	59.0	2.5	/experiments/AOT/AOT_stimuli/rescaled_final/1348_rv.mp4	0.0	275.6768636703491	0.9999001026153564
61	256.91582798957825	movie	1		245	59.0	2.5	/experiments/AOT/AOT_stimuli/rescaled_final/1348_rv.mp4	0.0	276.6767637729645	2.500098943710327
61	257.29918599128723	pulse	1	t		59.0	2.5	/experiments/AOT/AOT_stimuli/rescaled_final/1348_rv.mp4	0.0	277.06012177467346	
61	258.8992919921875	pulse	1	t		59.0	2.5	/experiments/AOT/AOT_stimuli/rescaled_final/1348_rv.mp4	0.0	278.66022777557373	
61	259.4159269332886	fix_post	2		12	59.0	2.5	/experiments/AOT/AOT_stimuli/rescaled_final/1348_rv.mp4	0.0	279.1768627166748	0.09990787506103516
62	259.5158348083496	fix_pre	0		119	60.0	2.5	/experiments/AOT/AOT_stimuli/rescaled_final/1063_fw.mp4	0.0	279.27677059173584	0.9916431903839111
62	260.49929189682007	pulse	0	t		60.0	2.5	/experiments/AOT/AOT_stimuli/rescaled_final/1063_fw.mp4	0.0	280.2602276802063	
62	260.5074779987335	movie	1		245	60.0	2.5	/experiments/AOT/AOT_stimuli/rescaled_final/1063_fw.mp4	0.0	280.26841378211975	2.5084099769592285
62	262.0988838672638	pulse	1	t		60.0	2.5	/experiments/AOT/AOT_stimuli/rescaled_final/1063_fw.mp4	0.0	281.85981965065	
62	263.01588797569275	fix_post	2		12	60.0	2.5	/experiments/AOT/AOT_stimuli/rescaled_final/1063_fw.mp4	0.0	282.776823759079	0.09984397888183594
63	263.1157319545746	fix_pre	0		120	61.0	2.5	/experiments/AOT/AOT_stimuli/rescaled_final/1895_fw.mp4	0.0	282.8766677379608	1.0000920295715332
63	263.69922494888306	pulse	0	t		61.0	2.5	/experiments/AOT/AOT_stimuli/rescaled_final/1895_fw.mp4	0.0	283.4601607322693	
63	264.1158239841461	movie	1		246	61.0	2.5	/experiments/AOT/AOT_stimuli/rescaled_final/1895_fw.mp4	0.0	283.87675976753235	2.5000059604644775
63	265.29931592941284	pulse	1	t		61.0	2.5	/experiments/AOT/AOT_stimuli/rescaled_final/1895_fw.mp4	0.0	285.0602517127991	
63	266.6158299446106	fix_post	2		12	61.0	2.5	/experiments/AOT/AOT_stimuli/rescaled_final/1895_fw.mp4	0.0	286.3767657279968	0.10004806518554688
64	266.71587800979614	fix_pre	0		120	62.0	2.5	blank	1.0	286.4768137931824	0.9999139308929443
64	266.89926385879517	pulse	0	t		62.0	2.5	blank	1.0	286.6601996421814	
64	267.7157919406891	movie	1		300	62.0	2.5	blank	1.0	287.4767277240753	2.5000128746032715
64	268.4992949962616	pulse	1	t		62.0	2.5	blank	1.0	288.2602307796478	
64	270.0991849899292	pulse	1	t		62.0	2.5	blank	1.0	289.86012077331543	
64	270.21580481529236	fix_post	2		12	62.0	2.5	blank	1.0	289.9767405986786	0.0999600887298584
65	270.3157649040222	fix_pre	0		120	63.0	2.5	/experiments/AOT/AOT_stimuli/rescaled_final/2063_fw.mp4	0.0	290.07670068740845	1.0000278949737549
65	271.315792798996	movie	1		246	63.0	2.5	/experiments/AOT/AOT_stimuli/rescaled_final/2063_fw.mp4	0.0	291.0767285823822	2.500012159347534
65	271.6988298892975	pulse	1	t		63.0	2.5	/experiments/AOT/AOT_stimuli/rescaled_final/2063_fw.mp4	0.0	291.4597656726837	
65	273.2993919849396	pulse	1	t		63.0	2.5	/experiments/AOT/AOT_stimuli/rescaled_final/2063_fw.mp4	0.0	293.0603277683258	
65	273.8158049583435	fix_post	2		12	63.0	2.5	/experiments/AOT/AOT_stimuli/rescaled_final/2063_fw.mp4	0.0	293.57674074172974	0.09998703002929688
66	273.9157919883728	fix_pre	0		119	64.0	2.5	/experiments/AOT/AOT_stimuli/rescaled_final/1345_fw.mp4	0.0	293.67672777175903	0.9915628433227539
66	274.8993020057678	pulse	0	t		64.0	2.5	/experiments/AOT/AOT_stimuli/rescaled_final/1345_fw.mp4	0.0	294.66023778915405	
66	274.90735483169556	movie	1		246	64.0	2.5	/experiments/AOT/AOT_stimuli/rescaled_final/1345_fw.mp4	0.0	294.6682906150818	2.50839900970459
66	276.4990019798279	pulse	1	t		64.0	2.5	/experiments/AOT/AOT_stimuli/rescaled_final/1345_fw.mp4	0.0	296.2599377632141	
66	277.41575384140015	fix_post	2		12	64.0	2.5	/experiments/AOT/AOT_stimuli/rescaled_final/1345_fw.mp4	0.0	297.1766896247864	0.09997415542602539
67	277.5157279968262	fix_pre	0		120	65.0	2.5	/experiments/AOT/AOT_stimuli/rescaled_final/0414_rv.mp4	0.0	297.2766637802124	1.0000560283660889
67	278.0992360115051	pulse	0	t		65.0	2.5	/experiments/AOT/AOT_stimuli/rescaled_final/0414_rv.mp4	0.0	297.86017179489136	
67	278.51578402519226	movie	1		243	65.0	2.5	/experiments/AOT/AOT_stimuli/rescaled_final/0414_rv.mp4	0.0	298.2767198085785	2.5000147819519043
67	279.69929099082947	pulse	1	t		65.0	2.5	/experiments/AOT/AOT_stimuli/rescaled_final/0414_rv.mp4	0.0	299.4602267742157	
67	281.01579880714417	fix_post	2		12	65.0	2.5	/experiments/AOT/AOT_stimuli/rescaled_final/0414_rv.mp4	0.0	300.7767345905304	0.09991812705993652
68	281.1157169342041	fix_pre	0		120	66.0	2.5	/experiments/AOT/AOT_stimuli/rescaled_final/1703_fw.mp4	0.0	300.87665271759033	1.0000510215759277
68	281.29921293258667	pulse	0	t		66.0	2.5	/experiments/AOT/AOT_stimuli/rescaled_final/1703_fw.mp4	0.0	301.0601487159729	
68	282.11576795578003	movie	1		242	66.0	2.5	/experiments/AOT/AOT_stimuli/rescaled_final/1703_fw.mp4	0.0	301.87670373916626	2.499907970428467
68	282.89920592308044	pulse	1	t		66.0	2.5	/experiments/AOT/AOT_stimuli/rescaled_final/1703_fw.mp4	0.0	302.6601417064667	
68	284.4974319934845	pulse	1	t		66.0	2.5	/experiments/AOT/AOT_stimuli/rescaled_final/1703_fw.mp4	0.0	304.2583677768707	
68	284.6156759262085	fix_post	2		12	66.0	2.5	/experiments/AOT/AOT_stimuli/rescaled_final/1703_fw.mp4	0.0	304.3766117095947	0.1000819206237793
69	284.7157578468323	fix_pre	0		120	67.0	2.5	/experiments/AOT/AOT_stimuli/rescaled_final/0010_rv.mp4	0.0	304.4766936302185	1.0000650882720947
69	285.71582293510437	movie	1		246	67.0	2.5	/experiments/AOT/AOT_stimuli/rescaled_final/0010_rv.mp4	0.0	305.4767587184906	2.499439001083374
69	286.09879183769226	pulse	1	t		67.0	2.5	/experiments/AOT/AOT_stimuli/rescaled_final/0010_rv.mp4	0.0	305.8597276210785	
69	287.69931387901306	pulse	1	t		67.0	2.5	/experiments/AOT/AOT_stimuli/rescaled_final/0010_rv.mp4	0.0	307.4602496623993	
69	288.21526193618774	fix_post	2		12	67.0	2.5	/experiments/AOT/AOT_stimuli/rescaled_final/0010_rv.mp4	0.0	307.976197719574	0.10043692588806152
70	288.3156988620758	fix_pre	0		119	68.0	2.5	/experiments/AOT/AOT_stimuli/rescaled_final/0096_rv.mp4	0.0	308.07663464546204	0.991253137588501
70	289.29875802993774	pulse	0	t		68.0	2.5	/experiments/AOT/AOT_stimuli/rescaled_final/0096_rv.mp4	0.0	309.059693813324	
70	289.3069519996643	movie	1		244	68.0	2.5	/experiments/AOT/AOT_stimuli/rescaled_final/0096_rv.mp4	0.0	309.06788778305054	2.508840799331665
70	290.8990910053253	pulse	1	t		68.0	2.5	/experiments/AOT/AOT_stimuli/rescaled_final/0096_rv.mp4	0.0	310.66002678871155	
70	291.815792798996	fix_post	2		12	68.0	2.5	/experiments/AOT/AOT_stimuli/rescaled_final/0096_rv.mp4	0.0	311.5767285823822	0.09989213943481445
71	291.9156849384308	fix_pre	0		120	69.0	2.5	/experiments/AOT/AOT_stimuli/rescaled_final/2044_fw.mp4	0.0	311.676620721817	1.0000159740447998
71	292.4992139339447	pulse	0	t		69.0	2.5	/experiments/AOT/AOT_stimuli/rescaled_final/2044_fw.mp4	0.0	312.26014971733093	
71	292.9157009124756	movie	1		244	69.0	2.5	/experiments/AOT/AOT_stimuli/rescaled_final/2044_fw.mp4	0.0	312.6766366958618	2.499988079071045
71	294.0992360115051	pulse	1	t		69.0	2.5	/experiments/AOT/AOT_stimuli/rescaled_final/2044_fw.mp4	0.0	313.86017179489136	
71	295.41568899154663	fix_post	2		12	69.0	2.5	/experiments/AOT/AOT_stimuli/rescaled_final/2044_fw.mp4	0.0	315.17662477493286	0.09994196891784668
72	295.5156309604645	fix_pre	0		120	70.0	2.5	blank	1.0	315.2765667438507	0.9999799728393555
72	295.6993019580841	pulse	0	t		70.0	2.5	blank	1.0	315.46023774147034	
72	296.51561093330383	movie	1		300	70.0	2.5	blank	1.0	316.27654671669006	2.4999940395355225
72	297.2990689277649	pulse	1	t		70.0	2.5	blank	1.0	317.0600047111511	
72	298.89910101890564	pulse	1	t		70.0	2.5	blank	1.0	318.66003680229187	
72	299.01560497283936	fix_post	2		12	70.0	2.5	blank	1.0	318.7765407562256	0.09996390342712402
73	299.1155688762665	fix_pre	0		120	71.0	2.5	/experiments/AOT/AOT_stimuli/rescaled_final/0451_rv.mp4	0.0	318.8765046596527	1.000049114227295
73	300.1156179904938	movie	1		245	71.0	2.5	/experiments/AOT/AOT_stimuli/rescaled_final/0451_rv.mp4	0.0	319.87655377388	2.4999728202819824
73	300.4991888999939	pulse	1	t		71.0	2.5	/experiments/AOT/AOT_stimuli/rescaled_final/0451_rv.mp4	0.0	320.2601246833801	
73	302.09901785850525	pulse	1	t		71.0	2.5	/experiments/AOT/AOT_stimuli/rescaled_final/0451_rv.mp4	0.0	321.8599536418915	
73	302.61559081077576	fix_post	2		12	71.0	2.5	/experiments/AOT/AOT_stimuli/rescaled_final/0451_rv.mp4	0.0	322.376526594162	0.09997320175170898
74	302.71556401252747	fix_pre	0		119	72.0	2.5	/experiments/AOT/AOT_stimuli/rescaled_final/1155_fw.mp4	0.0	322.4764997959137	0.991710901260376
74	303.6990969181061	pulse	0	t		72.0	2.5	/experiments/AOT/AOT_stimuli/rescaled_final/1155_fw.mp4	0.0	323.4600327014923	
74	303.70727491378784	movie	1		247	72.0	2.5	/experiments/AOT/AOT_stimuli/rescaled_final/1155_fw.mp4	0.0	323.4682106971741	2.508301019668579
74	305.29877400398254	pulse	1	t		72.0	2.5	/experiments/AOT/AOT_stimuli/rescaled_final/1155_fw.mp4	0.0	325.0597097873688	
74	306.2155759334564	fix_post	2		12	72.0	2.5	/experiments/AOT/AOT_stimuli/rescaled_final/1155_fw.mp4	0.0	325.97651171684265	0.09994101524353027
75	306.31551694869995	fix_pre	0		120	73.0	2.5	/experiments/AOT/AOT_stimuli/rescaled_final/1595_fw.mp4	0.0	326.0764527320862	1.0000560283660889
75	306.8989839553833	pulse	0	t		73.0	2.5	/experiments/AOT/AOT_stimuli/rescaled_final/1595_fw.mp4	0.0	326.65991973876953	
75	307.31557297706604	movie	1		244	73.0	2.5	/experiments/AOT/AOT_stimuli/rescaled_final/1595_fw.mp4	0.0	327.07650876045227	2.4999940395355225
75	308.4991569519043	pulse	1	t		73.0	2.5	/experiments/AOT/AOT_stimuli/rescaled_final/1595_fw.mp4	0.0	328.2600927352905	
75	309.81556701660156	fix_post	2		12	73.0	2.5	/experiments/AOT/AOT_stimuli/rescaled_final/1595_fw.mp4	0.0	329.5765027999878	0.09999990463256836
76	309.91556692123413	fix_pre	0		120	74.0	2.5	/experiments/AOT/AOT_stimuli/rescaled_final/0828_rv.mp4	0.0	329.67650270462036	0.9999959468841553
76	310.0990889072418	pulse	0	t		74.0	2.5	/experiments/AOT/AOT_stimuli/rescaled_final/0828_rv.mp4	0.0	329.86002469062805	
76	310.9155628681183	movie	1		244	74.0	2.5	/experiments/AOT/AOT_stimuli/rescaled_final/0828_rv.mp4	0.0	330.6764986515045	2.5000410079956055
76	311.6990749835968	pulse	1	t		74.0	2.5	/experiments/AOT/AOT_stimuli/rescaled_final/0828_rv.mp4	0.0	331.46001076698303	
76	313.2975878715515	pulse	1	t		74.0	2.5	/experiments/AOT/AOT_stimuli/rescaled_final/0828_rv.mp4	0.0	333.05852365493774	
76	313.4156038761139	fix_post	2		12	74.0	2.5	/experiments/AOT/AOT_stimuli/rescaled_final/0828_rv.mp4	0.0	333.1765396595001	0.0998849868774414
77	313.51548886299133	fix_pre	0		120	75.0	2.5	/experiments/AOT/AOT_stimuli/rescaled_final/1477_rv.mp4	0.0	333.27642464637756	1.0000979900360107
77	314.51558685302734	movie	1		244	75.0	2.5	/experiments/AOT/AOT_stimuli/rescaled_final/1477_rv.mp4	0.0	334.2765226364136	2.499941110610962
77	314.8989329338074	pulse	1	t		75.0	2.5	/experiments/AOT/AOT_stimuli/rescaled_final/1477_rv.mp4	0.0	334.6598687171936	
77	316.4990608692169	pulse	1	t		75.0	2.5	/experiments/AOT/AOT_stimuli/rescaled_final/1477_rv.mp4	0.0	336.25999665260315	
77	317.0155279636383	fix_post	2		12	75.0	2.5	/experiments/AOT/AOT_stimuli/rescaled_final/1477_rv.mp4	0.0	336.77646374702454	0.10004997253417969
78	317.1155779361725	fix_pre	0		119	76.0	2.5	/experiments/AOT/AOT_stimuli/rescaled_final/1487_fw.mp4	0.0	336.8765137195587	0.9915828704833984
78	318.09902691841125	pulse	0	t		76.0	2.5	/experiments/AOT/AOT_stimuli/rescaled_final/1487_fw.mp4	0.0	337.8599627017975	
78	318.1071608066559	movie	1		248	76.0	2.5	/experiments/AOT/AOT_stimuli/rescaled_final/1487_fw.mp4	0.0	337.8680965900421	2.5083889961242676
78	319.69858384132385	pulse	1	t		76.0	2.5	/experiments/AOT/AOT_stimuli/rescaled_final/1487_fw.mp4	0.0	339.4595196247101	
78	320.61554980278015	fix_post	2		12	76.0	2.5	/experiments/AOT/AOT_stimuli/rescaled_final/1487_fw.mp4	0.0	340.3764855861664	0.10002303123474121
79	320.7155728340149	fix_pre	0		120	77.0	2.5	blank	1.0	340.4765086174011	1.0000090599060059
79	321.2990698814392	pulse	0	t		77.0	2.5	blank	1.0	341.06000566482544	
79	321.7155818939209	movie	1		300	77.0	2.5	blank	1.0	341.47651767730713	2.499969005584717
79	322.898983001709	pulse	1	t		77.0	2.5	blank	1.0	342.6599187850952	
79	324.2155508995056	fix_post	2		12	77.0	2.5	blank	1.0	343.97648668289185	0.09996795654296875
80	324.3155188560486	fix_pre	0		120	78.0	2.5	/experiments/AOT/AOT_stimuli/rescaled_final/1431_rv.mp4	0.0	344.0764546394348	1.000007152557373
80	324.4989719390869	pulse	0	t		78.0	2.5	/experiments/AOT/AOT_stimuli/rescaled_final/1431_rv.mp4	0.0	344.25990772247314	
80	325.31552600860596	movie	1		245	78.0	2.5	/experiments/AOT/AOT_stimuli/rescaled_final/1431_rv.mp4	0.0	345.0764617919922	2.4999380111694336
80	326.0989480018616	pulse	1	t		78.0	2.5	/experiments/AOT/AOT_stimuli/rescaled_final/1431_rv.mp4	0.0	345.8598837852478	
80	327.6989758014679	pulse	1	t		78.0	2.5	/experiments/AOT/AOT_stimuli/rescaled_final/1431_rv.mp4	0.0	347.4599115848541	
80	327.8154640197754	fix_post	2		12	78.0	2.5	/experiments/AOT/AOT_stimuli/rescaled_final/1431_rv.mp4	0.0	347.5763998031616	0.09999990463256836
81	327.91546392440796	fix_pre	0		120	79.0	2.5	/experiments/AOT/AOT_stimuli/rescaled_final/0501_fw.mp4	0.0	347.6763997077942	1.0000278949737549
81	328.9154918193817	movie	1		243	79.0	2.5	/experiments/AOT/AOT_stimuli/rescaled_final/0501_fw.mp4	0.0	348.67642760276794	2.500047206878662
81	329.29879689216614	pulse	1	t		79.0	2.5	/experiments/AOT/AOT_stimuli/rescaled_final/0501_fw.mp4	0.0	349.05973267555237	
81	330.8989839553833	pulse	1	t		79.0	2.5	/experiments/AOT/AOT_stimuli/rescaled_final/0501_fw.mp4	0.0	350.65991973876953	
81	331.4155390262604	fix_post	2		12	79.0	2.5	/experiments/AOT/AOT_stimuli/rescaled_final/0501_fw.mp4	0.0	351.1764748096466	0.09993386268615723
82	331.51547288894653	fix_pre	0		119	80.0	2.5	/experiments/AOT/AOT_stimuli/rescaled_final/1352_rv.mp4	0.0	351.27640867233276	0.9915769100189209
82	332.4989778995514	pulse	0	t		80.0	2.5	/experiments/AOT/AOT_stimuli/rescaled_final/1352_rv.mp4	0.0	352.2599136829376	
82	332.50704979896545	movie	1		244	80.0	2.5	/experiments/AOT/AOT_stimuli/rescaled_final/1352_rv.mp4	0.0	352.2679855823517	2.5084850788116455
82	334.09871101379395	pulse	1	t		80.0	2.5	/experiments/AOT/AOT_stimuli/rescaled_final/1352_rv.mp4	0.0	353.8596467971802	
82	335.0155348777771	fix_post	2		12	80.0	2.5	/experiments/AOT/AOT_stimuli/rescaled_final/1352_rv.mp4	0.0	354.77647066116333	0.0999441146850586
83	335.11547899246216	fix_pre	0		120	81.0	2.5	/experiments/AOT/AOT_stimuli/rescaled_final/0592_rv.mp4	0.0	354.8764147758484	1.0002779960632324
83	335.6989529132843	pulse	0	t		81.0	2.5	/experiments/AOT/AOT_stimuli/rescaled_final/0592_rv.mp4	0.0	355.45988869667053	
83	336.1157569885254	movie	1		245	81.0	2.5	/experiments/AOT/AOT_stimuli/rescaled_final/0592_rv.mp4	0.0	355.8766927719116	2.499711036682129
83	337.2990069389343	pulse	1	t		81.0	2.5	/experiments/AOT/AOT_stimuli/rescaled_final/0592_rv.mp4	0.0	357.05994272232056	
83	338.6154680252075	fix_post	2		12	81.0	2.5	/experiments/AOT/AOT_stimuli/rescaled_final/0592_rv.mp4	0.0	358.37640380859375	0.0999298095703125
84	338.71539783477783	fix_pre	0		120	82.0	2.5	blank	1.0	358.47633361816406	1.0000991821289062
84	338.89894795417786	pulse	0	t		82.0	2.5	blank	1.0	358.6598837375641	
84	339.71549701690674	movie	1		300	82.0	2.5	blank	1.0	359.47643280029297	2.500005006790161
84	340.49883484840393	pulse	1	t		82.0	2.5	blank	1.0	360.25977063179016	
84	342.0990469455719	pulse	1	t		82.0	2.5	blank	1.0	361.85998272895813	
84	342.2155020236969	fix_post	2		12	82.0	2.5	blank	1.0	361.97643780708313	0.09997200965881348
85	342.3154740333557	fix_pre	0		120	83.0	2.5	/experiments/AOT/AOT_stimuli/rescaled_final/1981_fw.mp4	0.0	362.07640981674194	0.9999198913574219
85	343.31539392471313	movie	1		243	83.0	2.5	/experiments/AOT/AOT_stimuli/rescaled_final/1981_fw.mp4	0.0	363.07632970809937	2.5001189708709717
85	343.69812083244324	pulse	1	t		83.0	2.5	/experiments/AOT/AOT_stimuli/rescaled_final/1981_fw.mp4	0.0	363.45905661582947	
85	345.29848289489746	pulse	1	t		83.0	2.5	/experiments/AOT/AOT_stimuli/rescaled_final/1981_fw.mp4	0.0	365.0594186782837	
85	345.8155128955841	fix_post	2		12	83.0	2.5	/experiments/AOT/AOT_stimuli/rescaled_final/1981_fw.mp4	0.0	365.57644867897034	0.10002398490905762
87	345.91553688049316	stim	0		1716					365.6764726638794	14.299978971481323
87	346.89880990982056	pulse	0	t						366.6597456932068	
87	348.4989240169525	pulse	0	t						368.25985980033875	
87	350.09884691238403	pulse	0	t						369.85978269577026	
87	351.69888186454773	pulse	0	t						371.45981764793396	
87	353.29875087738037	pulse	0	t						373.0596866607666	
87	354.89877700805664	pulse	0	t						374.65971279144287	
87	356.49878001213074	pulse	0	t						376.25971579551697	
87	358.098757982254	pulse	0	t						377.85969376564026	
87	359.6987090110779	pulse	0	t						379.4596447944641	
