trial_nr	onset	event_type	phase	response	nr_frames	movie_index	movie_duration	movie_file	blank	onset_abs	duration
0	0.1582167148590088	stim	0		13					16.86560583114624	0.10820317268371582
0	0.2583189010620117	response	0	space						16.965708017349243	
1	0.2664198875427246	stim	0		4620					16.973809003829956	38.51523232460022
1	38.772305727005005	pulse	0	t						55.479694843292236	
1	38.781652212142944	stim	1		1715					55.489041328430176	14.301085233688354
1	40.36445069313049	pulse	1	t						57.071839809417725	
1	41.96456336975098	pulse	1	t						58.67195248603821	
1	43.5648148059845	pulse	1	t						60.27220392227173	
1	45.165021896362305	pulse	1	t						61.872411012649536	
1	46.76541829109192	pulse	1	t						63.47280740737915	
1	48.365498781204224	pulse	1	t						65.07288789749146	
1	49.965840339660645	pulse	1	t						66.67322945594788	
1	51.566105365753174	pulse	1	t						68.2734944820404	
2	53.0827374458313	fix_pre	0		11	0.0	2.5	/experiments/knapen_AOT/AOT_stimuli/rescaled_final/1838_rv.mp4	0.0	69.79012656211853	0.10848021507263184
2	53.16666030883789	pulse	0	t		0.0	2.5	/experiments/knapen_AOT/AOT_stimuli/rescaled_final/1838_rv.mp4	0.0	69.87404942512512	
2	53.19121766090393	movie	1		279	0.0	2.5	/experiments/knapen_AOT/AOT_stimuli/rescaled_final/1838_rv.mp4	0.0	69.89860677719116	2.492295742034912
2	54.764904737472534	pulse	1	t		0.0	2.5	/experiments/knapen_AOT/AOT_stimuli/rescaled_final/1838_rv.mp4	0.0	71.47229385375977	
2	55.68351340293884	fix_post	2		12	0.0	2.5	/experiments/knapen_AOT/AOT_stimuli/rescaled_final/1838_rv.mp4	0.0	72.39090251922607	0.0996091365814209
3	55.783122539520264	fix_pre	0		120	1.0	2.5	/experiments/knapen_AOT/AOT_stimuli/rescaled_final/1901_rv.mp4	0.0	72.4905116558075	1.0084991455078125
3	56.36673903465271	pulse	0	t		1.0	2.5	/experiments/knapen_AOT/AOT_stimuli/rescaled_final/1901_rv.mp4	0.0	73.07412815093994	
3	56.791621685028076	movie	1		292	1.0	2.5	/experiments/knapen_AOT/AOT_stimuli/rescaled_final/1901_rv.mp4	0.0	73.49901080131531	2.4920992851257324
3	57.96514320373535	pulse	1	t		1.0	2.5	/experiments/knapen_AOT/AOT_stimuli/rescaled_final/1901_rv.mp4	0.0	74.67253232002258	
3	59.28372097015381	fix_post	2		12	1.0	2.5	/experiments/knapen_AOT/AOT_stimuli/rescaled_final/1901_rv.mp4	0.0	75.99111008644104	0.10002589225769043
4	59.3837468624115	fix_pre	0		120	2.0	2.5	/experiments/knapen_AOT/AOT_stimuli/rescaled_final/1727_fw.mp4	0.0	76.09113597869873	1.0086669921875
4	59.567304849624634	pulse	0	t		2.0	2.5	/experiments/knapen_AOT/AOT_stimuli/rescaled_final/1727_fw.mp4	0.0	76.27469396591187	
4	60.392413854599	movie	1		276	2.0	2.5	/experiments/knapen_AOT/AOT_stimuli/rescaled_final/1727_fw.mp4	0.0	77.09980297088623	2.4920573234558105
4	61.16534447669983	pulse	1	t		2.0	2.5	/experiments/knapen_AOT/AOT_stimuli/rescaled_final/1727_fw.mp4	0.0	77.87273359298706	
4	62.7655611038208	pulse	1	t		2.0	2.5	/experiments/knapen_AOT/AOT_stimuli/rescaled_final/1727_fw.mp4	0.0	79.47295022010803	
4	62.88447117805481	fix_post	2		12	2.0	2.5	/experiments/knapen_AOT/AOT_stimuli/rescaled_final/1727_fw.mp4	0.0	79.59186029434204	0.09975242614746094
5	62.98422360420227	fix_pre	0		120	3.0	2.5	/experiments/knapen_AOT/AOT_stimuli/rescaled_final/0715_rv.mp4	0.0	79.6916127204895	1.0086257457733154
5	63.992849349975586	movie	1		290	3.0	2.5	/experiments/knapen_AOT/AOT_stimuli/rescaled_final/0715_rv.mp4	0.0	80.70023846626282	2.4920570850372314
5	64.36632704734802	pulse	1	t		3.0	2.5	/experiments/knapen_AOT/AOT_stimuli/rescaled_final/0715_rv.mp4	0.0	81.07371616363525	
5	65.9660074710846	pulse	1	t		3.0	2.5	/experiments/knapen_AOT/AOT_stimuli/rescaled_final/0715_rv.mp4	0.0	82.67339658737183	
5	66.48490643501282	fix_post	2		12	3.0	2.5	/experiments/knapen_AOT/AOT_stimuli/rescaled_final/0715_rv.mp4	0.0	83.19229555130005	0.09986352920532227
6	66.58476996421814	fix_pre	0		119	4.0	2.5	/experiments/knapen_AOT/AOT_stimuli/rescaled_final/0538_fw.mp4	0.0	83.29215908050537	1.0001585483551025
6	67.56842923164368	pulse	0	t		4.0	2.5	/experiments/knapen_AOT/AOT_stimuli/rescaled_final/0538_fw.mp4	0.0	84.27581834793091	
6	67.58492851257324	movie	1		278	4.0	2.5	/experiments/knapen_AOT/AOT_stimuli/rescaled_final/0538_fw.mp4	0.0	84.29231762886047	2.5004353523254395
6	69.16686725616455	pulse	1	t		4.0	2.5	/experiments/knapen_AOT/AOT_stimuli/rescaled_final/0538_fw.mp4	0.0	85.87425637245178	
6	70.08536386489868	fix_post	2		12	4.0	2.5	/experiments/knapen_AOT/AOT_stimuli/rescaled_final/0538_fw.mp4	0.0	86.79275298118591	0.09992766380310059
7	70.18529152870178	fix_pre	0		120	5.0	2.5	blank	1.0	86.89268064498901	1.0001754760742188
7	70.76895546913147	pulse	0	t		5.0	2.5	blank	1.0	87.4763445854187	
7	71.185467004776	movie	1		300	5.0	2.5	blank	1.0	87.89285612106323	2.500351667404175
7	72.36931347846985	pulse	1	t		5.0	2.5	blank	1.0	89.07670259475708	
7	73.68581867218018	fix_post	2		12	5.0	2.5	blank	1.0	90.39320778846741	0.10008668899536133
8	73.78590536117554	fix_pre	0		120	6.0	2.5	/experiments/knapen_AOT/AOT_stimuli/rescaled_final/0118_rv.mp4	0.0	90.49329447746277	1.0085346698760986
8	73.96160435676575	pulse	0	t		6.0	2.5	/experiments/knapen_AOT/AOT_stimuli/rescaled_final/0118_rv.mp4	0.0	90.66899347305298	
8	74.79444003105164	movie	1		269	6.0	2.5	/experiments/knapen_AOT/AOT_stimuli/rescaled_final/0118_rv.mp4	0.0	91.50182914733887	2.4921908378601074
8	75.56167817115784	pulse	1	t		6.0	2.5	/experiments/knapen_AOT/AOT_stimuli/rescaled_final/0118_rv.mp4	0.0	92.26906728744507	
8	77.16178393363953	pulse	1	t		6.0	2.5	/experiments/knapen_AOT/AOT_stimuli/rescaled_final/0118_rv.mp4	0.0	93.86917304992676	
8	77.28663086891174	fix_post	2		12	6.0	2.5	/experiments/knapen_AOT/AOT_stimuli/rescaled_final/0118_rv.mp4	0.0	93.99401998519897	0.09982609748840332
9	77.38645696640015	fix_pre	0		120	7.0	2.5	/experiments/knapen_AOT/AOT_stimuli/rescaled_final/1087_rv.mp4	0.0	94.09384608268738	1.0085153579711914
9	78.39497232437134	movie	1		269	7.0	2.5	/experiments/knapen_AOT/AOT_stimuli/rescaled_final/1087_rv.mp4	0.0	95.10236144065857	2.4919629096984863
9	78.76214694976807	pulse	1	t		7.0	2.5	/experiments/knapen_AOT/AOT_stimuli/rescaled_final/1087_rv.mp4	0.0	95.4695360660553	
9	80.36205506324768	pulse	1	t		7.0	2.5	/experiments/knapen_AOT/AOT_stimuli/rescaled_final/1087_rv.mp4	0.0	97.06944417953491	
9	80.88693523406982	fix_post	2		12	7.0	2.5	/experiments/knapen_AOT/AOT_stimuli/rescaled_final/1087_rv.mp4	0.0	97.59432435035706	0.10004472732543945
10	80.98697996139526	fix_pre	0		118	8.0	2.5	/experiments/knapen_AOT/AOT_stimuli/rescaled_final/1562_rv.mp4	0.0	97.6943690776825	0.9917471408843994
10	81.96226930618286	pulse	0	t		8.0	2.5	/experiments/knapen_AOT/AOT_stimuli/rescaled_final/1562_rv.mp4	0.0	98.66965842247009	
10	81.97872710227966	movie	1		271	8.0	2.5	/experiments/knapen_AOT/AOT_stimuli/rescaled_final/1562_rv.mp4	0.0	98.6861162185669	2.500579595565796
10	83.56261658668518	pulse	1	t		8.0	2.5	/experiments/knapen_AOT/AOT_stimuli/rescaled_final/1562_rv.mp4	0.0	100.27000570297241	
10	84.47930669784546	fix_post	2		12	8.0	2.5	/experiments/knapen_AOT/AOT_stimuli/rescaled_final/1562_rv.mp4	0.0	101.18669581413269	0.0999443531036377
11	84.5792510509491	fix_pre	0		120	9.0	2.5	/experiments/knapen_AOT/AOT_stimuli/rescaled_final/1938_rv.mp4	0.0	101.28664016723633	1.0083742141723633
11	85.16286134719849	pulse	0	t		9.0	2.5	/experiments/knapen_AOT/AOT_stimuli/rescaled_final/1938_rv.mp4	0.0	101.87025046348572	
11	85.58762526512146	movie	1		275	9.0	2.5	/experiments/knapen_AOT/AOT_stimuli/rescaled_final/1938_rv.mp4	0.0	102.29501438140869	2.4920260906219482
11	86.7634265422821	pulse	1	t		9.0	2.5	/experiments/knapen_AOT/AOT_stimuli/rescaled_final/1938_rv.mp4	0.0	103.47081565856934	
11	88.07965135574341	fix_post	2		12	9.0	2.5	/experiments/knapen_AOT/AOT_stimuli/rescaled_final/1938_rv.mp4	0.0	104.78704047203064	0.10001850128173828
12	88.17966985702515	fix_pre	0		120	10.0	2.5	/experiments/knapen_AOT/AOT_stimuli/rescaled_final/1727_rv.mp4	0.0	104.88705897331238	1.0087575912475586
12	88.36333584785461	pulse	0	t		10.0	2.5	/experiments/knapen_AOT/AOT_stimuli/rescaled_final/1727_rv.mp4	0.0	105.07072496414185	
12	89.1884274482727	movie	1		264	10.0	2.5	/experiments/knapen_AOT/AOT_stimuli/rescaled_final/1727_rv.mp4	0.0	105.89581656455994	2.4918906688690186
12	89.9635956287384	pulse	1	t		10.0	2.5	/experiments/knapen_AOT/AOT_stimuli/rescaled_final/1727_rv.mp4	0.0	106.67098474502563	
12	91.56209206581116	pulse	1	t		10.0	2.5	/experiments/knapen_AOT/AOT_stimuli/rescaled_final/1727_rv.mp4	0.0	108.26948118209839	
12	91.68031811714172	fix_post	2		12	10.0	2.5	/experiments/knapen_AOT/AOT_stimuli/rescaled_final/1727_rv.mp4	0.0	108.38770723342896	0.0999293327331543
13	91.78024744987488	fix_pre	0		120	11.0	2.5	/experiments/knapen_AOT/AOT_stimuli/rescaled_final/1995_rv.mp4	0.0	108.48763656616211	1.008598804473877
13	92.78884625434875	movie	1		264	11.0	2.5	/experiments/knapen_AOT/AOT_stimuli/rescaled_final/1995_rv.mp4	0.0	109.49623537063599	2.4918835163116455
13	93.16319060325623	pulse	1	t		11.0	2.5	/experiments/knapen_AOT/AOT_stimuli/rescaled_final/1995_rv.mp4	0.0	109.87057971954346	
13	94.76204919815063	pulse	1	t		11.0	2.5	/experiments/knapen_AOT/AOT_stimuli/rescaled_final/1995_rv.mp4	0.0	111.46943831443787	
13	95.2807297706604	fix_post	2		12	11.0	2.5	/experiments/knapen_AOT/AOT_stimuli/rescaled_final/1995_rv.mp4	0.0	111.98811888694763	0.10016512870788574
14	95.38089489936829	fix_pre	0		119	12.0	2.5	blank	1.0	112.08828401565552	0.9916958808898926
14	96.3643970489502	pulse	0	t		12.0	2.5	blank	1.0	113.07178616523743	
14	96.37259078025818	movie	1		301	12.0	2.5	blank	1.0	113.07997989654541	2.5089757442474365
14	97.96488356590271	pulse	1	t		12.0	2.5	blank	1.0	114.67227268218994	
14	98.88156652450562	fix_post	2		12	12.0	2.5	blank	1.0	115.58895564079285	0.10000133514404297
15	98.98156785964966	fix_pre	0		120	13.0	2.5	/experiments/knapen_AOT/AOT_stimuli/rescaled_final/0379_fw.mp4	0.0	115.68895697593689	1.0082108974456787
15	99.56491374969482	pulse	0	t		13.0	2.5	/experiments/knapen_AOT/AOT_stimuli/rescaled_final/0379_fw.mp4	0.0	116.27230286598206	
15	99.98977875709534	movie	1		251	13.0	2.5	/experiments/knapen_AOT/AOT_stimuli/rescaled_final/0379_fw.mp4	0.0	116.69716787338257	2.4920709133148193
15	101.16389966011047	pulse	1	t		13.0	2.5	/experiments/knapen_AOT/AOT_stimuli/rescaled_final/0379_fw.mp4	0.0	117.8712887763977	
15	102.48184967041016	fix_post	2		12	13.0	2.5	/experiments/knapen_AOT/AOT_stimuli/rescaled_final/0379_fw.mp4	0.0	119.18923878669739	0.10000157356262207
16	102.58185124397278	fix_pre	0		120	14.0	2.5	/experiments/knapen_AOT/AOT_stimuli/rescaled_final/1439_fw.mp4	0.0	119.28924036026001	1.008577585220337
16	102.76543927192688	pulse	0	t		14.0	2.5	/experiments/knapen_AOT/AOT_stimuli/rescaled_final/1439_fw.mp4	0.0	119.47282838821411	
16	103.59042882919312	movie	1		272	14.0	2.5	/experiments/knapen_AOT/AOT_stimuli/rescaled_final/1439_fw.mp4	0.0	120.29781794548035	2.4923386573791504
16	104.36410427093506	pulse	1	t		14.0	2.5	/experiments/knapen_AOT/AOT_stimuli/rescaled_final/1439_fw.mp4	0.0	121.07149338722229	
16	105.96371412277222	pulse	1	t		14.0	2.5	/experiments/knapen_AOT/AOT_stimuli/rescaled_final/1439_fw.mp4	0.0	122.67110323905945	
16	106.08276748657227	fix_post	2		12	14.0	2.5	/experiments/knapen_AOT/AOT_stimuli/rescaled_final/1439_fw.mp4	0.0	122.7901566028595	0.09962010383605957
17	106.18238759040833	fix_pre	0		120	15.0	2.5	/experiments/knapen_AOT/AOT_stimuli/rescaled_final/0628_rv.mp4	0.0	122.88977670669556	1.0086476802825928
17	107.19103527069092	movie	1		258	15.0	2.5	/experiments/knapen_AOT/AOT_stimuli/rescaled_final/0628_rv.mp4	0.0	123.89842438697815	2.49189829826355
17	107.56644439697266	pulse	1	t		15.0	2.5	/experiments/knapen_AOT/AOT_stimuli/rescaled_final/0628_rv.mp4	0.0	124.27383351325989	
17	109.16444826126099	pulse	1	t		15.0	2.5	/experiments/knapen_AOT/AOT_stimuli/rescaled_final/0628_rv.mp4	0.0	125.87183737754822	
17	109.68293356895447	fix_post	2		12	15.0	2.5	/experiments/knapen_AOT/AOT_stimuli/rescaled_final/0628_rv.mp4	0.0	126.3903226852417	0.10004925727844238
18	109.78298282623291	fix_pre	0		119	16.0	2.5	/experiments/knapen_AOT/AOT_stimuli/rescaled_final/1967_fw.mp4	0.0	126.49037194252014	1.0001440048217773
18	110.76662540435791	pulse	0	t		16.0	2.5	/experiments/knapen_AOT/AOT_stimuli/rescaled_final/1967_fw.mp4	0.0	127.47401452064514	
18	110.78312683105469	movie	1		262	16.0	2.5	/experiments/knapen_AOT/AOT_stimuli/rescaled_final/1967_fw.mp4	0.0	127.49051594734192	2.5004284381866455
18	112.36588025093079	pulse	1	t		16.0	2.5	/experiments/knapen_AOT/AOT_stimuli/rescaled_final/1967_fw.mp4	0.0	129.07326936721802	
18	113.28355526924133	fix_post	2		12	16.0	2.5	/experiments/knapen_AOT/AOT_stimuli/rescaled_final/1967_fw.mp4	0.0	129.99094438552856	0.10006022453308105
19	113.38361549377441	fix_pre	0		120	17.0	2.5	/experiments/knapen_AOT/AOT_stimuli/rescaled_final/0655_rv.mp4	0.0	130.09100461006165	1.0083317756652832
19	113.96178770065308	pulse	0	t		17.0	2.5	/experiments/knapen_AOT/AOT_stimuli/rescaled_final/0655_rv.mp4	0.0	130.6691768169403	
19	114.3919472694397	movie	1		276	17.0	2.5	/experiments/knapen_AOT/AOT_stimuli/rescaled_final/0655_rv.mp4	0.0	131.09933638572693	2.4920315742492676
19	115.56551575660706	pulse	1	t		17.0	2.5	/experiments/knapen_AOT/AOT_stimuli/rescaled_final/0655_rv.mp4	0.0	132.2729048728943	
19	116.88397884368896	fix_post	2		12	17.0	2.5	/experiments/knapen_AOT/AOT_stimuli/rescaled_final/0655_rv.mp4	0.0	133.5913679599762	0.10003328323364258
20	116.98401212692261	fix_pre	0		120	18.0	2.5	/experiments/knapen_AOT/AOT_stimuli/rescaled_final/1322_rv.mp4	0.0	133.69140124320984	1.0085158348083496
20	117.16765475273132	pulse	0	t		18.0	2.5	/experiments/knapen_AOT/AOT_stimuli/rescaled_final/1322_rv.mp4	0.0	133.87504386901855	
20	117.99252796173096	movie	1		259	18.0	2.5	/experiments/knapen_AOT/AOT_stimuli/rescaled_final/1322_rv.mp4	0.0	134.6999170780182	2.492048978805542
20	118.76571011543274	pulse	1	t		18.0	2.5	/experiments/knapen_AOT/AOT_stimuli/rescaled_final/1322_rv.mp4	0.0	135.47309923171997	
20	120.36664628982544	pulse	1	t		18.0	2.5	/experiments/knapen_AOT/AOT_stimuli/rescaled_final/1322_rv.mp4	0.0	137.07403540611267	
20	120.4845769405365	fix_post	2		12	18.0	2.5	/experiments/knapen_AOT/AOT_stimuli/rescaled_final/1322_rv.mp4	0.0	137.19196605682373	0.0999898910522461
21	120.58456683158875	fix_pre	0		120	19.0	2.5	/experiments/knapen_AOT/AOT_stimuli/rescaled_final/0621_rv.mp4	0.0	137.29195594787598	1.0086259841918945
21	121.59319281578064	movie	1		271	19.0	2.5	/experiments/knapen_AOT/AOT_stimuli/rescaled_final/0621_rv.mp4	0.0	138.30058193206787	2.4919662475585938
21	121.9666850566864	pulse	1	t		19.0	2.5	/experiments/knapen_AOT/AOT_stimuli/rescaled_final/0621_rv.mp4	0.0	138.67407417297363	
21	123.56618666648865	pulse	1	t		19.0	2.5	/experiments/knapen_AOT/AOT_stimuli/rescaled_final/0621_rv.mp4	0.0	140.27357578277588	
21	124.08515906333923	fix_post	2		12	19.0	2.5	/experiments/knapen_AOT/AOT_stimuli/rescaled_final/0621_rv.mp4	0.0	140.79254817962646	0.10017919540405273
22	124.18533825874329	fix_pre	0		119	20.0	2.5	/experiments/knapen_AOT/AOT_stimuli/rescaled_final/1583_rv.mp4	0.0	140.89272737503052	0.9999282360076904
22	125.16109490394592	pulse	0	t		20.0	2.5	/experiments/knapen_AOT/AOT_stimuli/rescaled_final/1583_rv.mp4	0.0	141.86848402023315	
22	125.18526649475098	movie	1		267	20.0	2.5	/experiments/knapen_AOT/AOT_stimuli/rescaled_final/1583_rv.mp4	0.0	141.8926556110382	2.5004990100860596
22	126.7611014842987	pulse	1	t		20.0	2.5	/experiments/knapen_AOT/AOT_stimuli/rescaled_final/1583_rv.mp4	0.0	143.46849060058594	
22	127.68576550483704	fix_post	2		12	20.0	2.5	/experiments/knapen_AOT/AOT_stimuli/rescaled_final/1583_rv.mp4	0.0	144.39315462112427	0.0999140739440918
23	127.78567957878113	fix_pre	0		120	21.0	2.5	blank	1.0	144.49306869506836	1.0000970363616943
23	128.36115765571594	pulse	0	t		21.0	2.5	blank	1.0	145.06854677200317	
23	128.78577661514282	movie	1		300	21.0	2.5	blank	1.0	145.49316573143005	2.5003702640533447
23	129.9612431526184	pulse	1	t		21.0	2.5	blank	1.0	146.66863226890564	
23	131.28614687919617	fix_post	2		12	21.0	2.5	blank	1.0	147.9935359954834	0.10011601448059082
24	131.38626289367676	fix_pre	0		120	22.0	2.5	/experiments/knapen_AOT/AOT_stimuli/rescaled_final/0438_rv.mp4	0.0	148.093652009964	1.0084238052368164
24	131.56148266792297	pulse	0	t		22.0	2.5	/experiments/knapen_AOT/AOT_stimuli/rescaled_final/0438_rv.mp4	0.0	148.2688717842102	
24	132.39468669891357	movie	1		273	22.0	2.5	/experiments/knapen_AOT/AOT_stimuli/rescaled_final/0438_rv.mp4	0.0	149.1020758152008	2.491995096206665
24	133.16184735298157	pulse	1	t		22.0	2.5	/experiments/knapen_AOT/AOT_stimuli/rescaled_final/0438_rv.mp4	0.0	149.8692364692688	
24	134.76186418533325	pulse	1	t		22.0	2.5	/experiments/knapen_AOT/AOT_stimuli/rescaled_final/0438_rv.mp4	0.0	151.46925330162048	
24	134.88668179512024	fix_post	2		12	22.0	2.5	/experiments/knapen_AOT/AOT_stimuli/rescaled_final/0438_rv.mp4	0.0	151.59407091140747	0.10017013549804688
25	134.9868519306183	fix_pre	0		120	23.0	2.5	/experiments/knapen_AOT/AOT_stimuli/rescaled_final/1230_fw.mp4	0.0	151.69424104690552	1.008470058441162
25	135.99532198905945	movie	1		272	23.0	2.5	/experiments/knapen_AOT/AOT_stimuli/rescaled_final/1230_fw.mp4	0.0	152.70271110534668	2.492202043533325
25	136.36217737197876	pulse	1	t		23.0	2.5	/experiments/knapen_AOT/AOT_stimuli/rescaled_final/1230_fw.mp4	0.0	153.069566488266	
25	137.96268320083618	pulse	1	t		23.0	2.5	/experiments/knapen_AOT/AOT_stimuli/rescaled_final/1230_fw.mp4	0.0	154.6700723171234	
25	138.48752403259277	fix_post	2		12	23.0	2.5	/experiments/knapen_AOT/AOT_stimuli/rescaled_final/1230_fw.mp4	0.0	155.19491314888	0.09975337982177734
26	138.58727741241455	fix_pre	0		118	24.0	2.5	/experiments/knapen_AOT/AOT_stimuli/rescaled_final/1955_rv.mp4	0.0	155.29466652870178	0.9918427467346191
26	139.56262969970703	pulse	0	t		24.0	2.5	/experiments/knapen_AOT/AOT_stimuli/rescaled_final/1955_rv.mp4	0.0	156.27001881599426	
26	139.57912015914917	movie	1		272	24.0	2.5	/experiments/knapen_AOT/AOT_stimuli/rescaled_final/1955_rv.mp4	0.0	156.2865092754364	2.500537633895874
26	141.16111874580383	pulse	1	t		24.0	2.5	/experiments/knapen_AOT/AOT_stimuli/rescaled_final/1955_rv.mp4	0.0	157.86850786209106	
26	142.07965779304504	fix_post	2		12	24.0	2.5	/experiments/knapen_AOT/AOT_stimuli/rescaled_final/1955_rv.mp4	0.0	158.78704690933228	0.09987711906433105
27	142.17953491210938	fix_pre	0		120	25.0	2.5	/experiments/knapen_AOT/AOT_stimuli/rescaled_final/0724_fw.mp4	0.0	158.8869240283966	1.0084500312805176
27	142.76310110092163	pulse	0	t		25.0	2.5	/experiments/knapen_AOT/AOT_stimuli/rescaled_final/0724_fw.mp4	0.0	159.47049021720886	
27	143.1879849433899	movie	1		273	25.0	2.5	/experiments/knapen_AOT/AOT_stimuli/rescaled_final/0724_fw.mp4	0.0	159.89537405967712	2.4920895099639893
27	144.3620686531067	pulse	1	t		25.0	2.5	/experiments/knapen_AOT/AOT_stimuli/rescaled_final/0724_fw.mp4	0.0	161.06945776939392	
27	145.68007445335388	fix_post	2		12	25.0	2.5	/experiments/knapen_AOT/AOT_stimuli/rescaled_final/0724_fw.mp4	0.0	162.3874635696411	0.0999300479888916
28	145.78000450134277	fix_pre	0		120	26.0	2.5	blank	1.0	162.48739361763	1.0002391338348389
28	145.96354913711548	pulse	0	t		26.0	2.5	blank	1.0	162.6709382534027	
28	146.7802436351776	movie	1		300	26.0	2.5	blank	1.0	163.48763275146484	2.500303030014038
28	147.5638780593872	pulse	1	t		26.0	2.5	blank	1.0	164.27126717567444	
28	149.16422772407532	pulse	1	t		26.0	2.5	blank	1.0	165.87161684036255	
28	149.28054666519165	fix_post	2		12	26.0	2.5	blank	1.0	165.98793578147888	0.10001420974731445
29	149.38056087493896	fix_pre	0		120	27.0	2.5	/experiments/knapen_AOT/AOT_stimuli/rescaled_final/0983_fw.mp4	0.0	166.0879499912262	1.0084636211395264
29	150.3890244960785	movie	1		257	27.0	2.5	/experiments/knapen_AOT/AOT_stimuli/rescaled_final/0983_fw.mp4	0.0	167.09641361236572	2.5003790855407715
29	150.76304483413696	pulse	1	t		27.0	2.5	/experiments/knapen_AOT/AOT_stimuli/rescaled_final/0983_fw.mp4	0.0	167.4704339504242	
29	152.36277079582214	pulse	1	t		27.0	2.5	/experiments/knapen_AOT/AOT_stimuli/rescaled_final/0983_fw.mp4	0.0	169.07015991210938	
29	152.88940358161926	fix_post	2		11	27.0	2.5	/experiments/knapen_AOT/AOT_stimuli/rescaled_final/0983_fw.mp4	0.0	169.5967926979065	0.09171676635742188
30	152.98112034797668	fix_pre	0		119	28.0	2.5	/experiments/knapen_AOT/AOT_stimuli/rescaled_final/1583_fw.mp4	0.0	169.68850946426392	1.0002408027648926
30	153.9647433757782	pulse	0	t		28.0	2.5	/experiments/knapen_AOT/AOT_stimuli/rescaled_final/1583_fw.mp4	0.0	170.67213249206543	
30	153.98136115074158	movie	1		261	28.0	2.5	/experiments/knapen_AOT/AOT_stimuli/rescaled_final/1583_fw.mp4	0.0	170.6887502670288	2.50028395652771
30	155.56322312355042	pulse	1	t		28.0	2.5	/experiments/knapen_AOT/AOT_stimuli/rescaled_final/1583_fw.mp4	0.0	172.27061223983765	
30	156.4816451072693	fix_post	2		12	28.0	2.5	/experiments/knapen_AOT/AOT_stimuli/rescaled_final/1583_fw.mp4	0.0	173.18903422355652	0.10009169578552246
31	156.5817368030548	fix_pre	0		120	29.0	2.5	/experiments/knapen_AOT/AOT_stimuli/rescaled_final/0631_rv.mp4	0.0	173.28912591934204	1.008415937423706
31	157.16522979736328	pulse	0	t		29.0	2.5	/experiments/knapen_AOT/AOT_stimuli/rescaled_final/0631_rv.mp4	0.0	173.8726189136505	
31	157.59015274047852	movie	1		276	29.0	2.5	/experiments/knapen_AOT/AOT_stimuli/rescaled_final/0631_rv.mp4	0.0	174.29754185676575	2.4921505451202393
31	158.76355957984924	pulse	1	t		29.0	2.5	/experiments/knapen_AOT/AOT_stimuli/rescaled_final/0631_rv.mp4	0.0	175.47094869613647	
31	160.08230328559875	fix_post	2		12	29.0	2.5	/experiments/knapen_AOT/AOT_stimuli/rescaled_final/0631_rv.mp4	0.0	176.789692401886	0.09997892379760742
32	160.18228220939636	fix_pre	0		120	30.0	2.5	/experiments/knapen_AOT/AOT_stimuli/rescaled_final/0188_rv.mp4	0.0	176.8896713256836	1.0083892345428467
32	160.36566472053528	pulse	0	t		30.0	2.5	/experiments/knapen_AOT/AOT_stimuli/rescaled_final/0188_rv.mp4	0.0	177.0730538368225	
32	161.1906714439392	movie	1		272	30.0	2.5	/experiments/knapen_AOT/AOT_stimuli/rescaled_final/0188_rv.mp4	0.0	177.89806056022644	2.492178440093994
32	161.96452116966248	pulse	1	t		30.0	2.5	/experiments/knapen_AOT/AOT_stimuli/rescaled_final/0188_rv.mp4	0.0	178.6719102859497	
32	163.5642237663269	pulse	1	t		30.0	2.5	/experiments/knapen_AOT/AOT_stimuli/rescaled_final/0188_rv.mp4	0.0	180.27161288261414	
32	163.6828498840332	fix_post	2		12	30.0	2.5	/experiments/knapen_AOT/AOT_stimuli/rescaled_final/0188_rv.mp4	0.0	180.39023900032043	0.10004115104675293
33	163.78289103507996	fix_pre	0		120	31.0	2.5	/experiments/knapen_AOT/AOT_stimuli/rescaled_final/1322_rv.mp4	0.0	180.4902801513672	1.0084283351898193
33	164.79131937026978	movie	1		264	31.0	2.5	/experiments/knapen_AOT/AOT_stimuli/rescaled_final/1322_rv.mp4	0.0	181.498708486557	2.491926670074463
33	165.16510558128357	pulse	1	t		31.0	2.5	/experiments/knapen_AOT/AOT_stimuli/rescaled_final/1322_rv.mp4	0.0	181.8724946975708	
33	166.7645800113678	pulse	1	t		31.0	2.5	/experiments/knapen_AOT/AOT_stimuli/rescaled_final/1322_rv.mp4	0.0	183.47196912765503	
33	167.28324604034424	fix_post	2		12	31.0	2.5	/experiments/knapen_AOT/AOT_stimuli/rescaled_final/1322_rv.mp4	0.0	183.99063515663147	0.10002756118774414
34	167.38327360153198	fix_pre	0		119	32.0	2.5	/experiments/knapen_AOT/AOT_stimuli/rescaled_final/1265_fw.mp4	0.0	184.0906627178192	1.0086867809295654
34	168.3670208454132	pulse	0	t		32.0	2.5	/experiments/knapen_AOT/AOT_stimuli/rescaled_final/1265_fw.mp4	0.0	185.07440996170044	
34	168.39196038246155	movie	1		274	32.0	2.5	/experiments/knapen_AOT/AOT_stimuli/rescaled_final/1265_fw.mp4	0.0	185.09934949874878	2.492454767227173
34	169.96540188789368	pulse	1	t		32.0	2.5	/experiments/knapen_AOT/AOT_stimuli/rescaled_final/1265_fw.mp4	0.0	186.6727910041809	
34	170.88441514968872	fix_post	2		12	32.0	2.5	/experiments/knapen_AOT/AOT_stimuli/rescaled_final/1265_fw.mp4	0.0	187.59180426597595	0.09986567497253418
35	170.98428082466125	fix_pre	0		120	33.0	2.5	/experiments/knapen_AOT/AOT_stimuli/rescaled_final/0063_rv.mp4	0.0	187.6916699409485	1.0081455707550049
35	171.56752014160156	pulse	0	t		33.0	2.5	/experiments/knapen_AOT/AOT_stimuli/rescaled_final/0063_rv.mp4	0.0	188.2749092578888	
35	171.99242639541626	movie	1		272	33.0	2.5	/experiments/knapen_AOT/AOT_stimuli/rescaled_final/0063_rv.mp4	0.0	188.6998155117035	2.4920473098754883
35	173.16614723205566	pulse	1	t		33.0	2.5	/experiments/knapen_AOT/AOT_stimuli/rescaled_final/0063_rv.mp4	0.0	189.8735363483429	
35	174.48447370529175	fix_post	2		12	33.0	2.5	/experiments/knapen_AOT/AOT_stimuli/rescaled_final/0063_rv.mp4	0.0	191.19186282157898	0.09987020492553711
36	174.58434391021729	fix_pre	0		120	34.0	2.5	/experiments/knapen_AOT/AOT_stimuli/rescaled_final/0210_rv.mp4	0.0	191.29173302650452	1.0084986686706543
36	174.76790022850037	pulse	0	t		34.0	2.5	/experiments/knapen_AOT/AOT_stimuli/rescaled_final/0210_rv.mp4	0.0	191.4752893447876	
36	175.59284257888794	movie	1		259	34.0	2.5	/experiments/knapen_AOT/AOT_stimuli/rescaled_final/0210_rv.mp4	0.0	192.30023169517517	2.492232322692871
36	176.36784529685974	pulse	1	t		34.0	2.5	/experiments/knapen_AOT/AOT_stimuli/rescaled_final/0210_rv.mp4	0.0	193.07523441314697	
36	177.96665120124817	pulse	1	t		34.0	2.5	/experiments/knapen_AOT/AOT_stimuli/rescaled_final/0210_rv.mp4	0.0	194.6740403175354	
36	178.0850749015808	fix_post	2		12	34.0	2.5	/experiments/knapen_AOT/AOT_stimuli/rescaled_final/0210_rv.mp4	0.0	194.79246401786804	0.09986019134521484
37	178.18493509292603	fix_pre	0		120	35.0	2.5	blank	1.0	194.89232420921326	1.000145435333252
37	179.18508052825928	movie	1		300	35.0	2.5	blank	1.0	195.8924696445465	2.5004055500030518
37	179.56876349449158	pulse	1	t		35.0	2.5	blank	1.0	196.2761526107788	
37	181.1691131591797	pulse	1	t		35.0	2.5	blank	1.0	197.87650227546692	
37	181.68548607826233	fix_post	2		12	35.0	2.5	blank	1.0	198.39287519454956	0.09997034072875977
38	181.7854564189911	fix_pre	0		119	36.0	2.5	/experiments/knapen_AOT/AOT_stimuli/rescaled_final/2042_fw.mp4	0.0	198.49284553527832	1.000136137008667
38	182.76932954788208	pulse	0	t		36.0	2.5	/experiments/knapen_AOT/AOT_stimuli/rescaled_final/2042_fw.mp4	0.0	199.4767186641693	
38	182.78559255599976	movie	1		271	36.0	2.5	/experiments/knapen_AOT/AOT_stimuli/rescaled_final/2042_fw.mp4	0.0	199.492981672287	2.500513792037964
38	184.36790490150452	pulse	1	t		36.0	2.5	/experiments/knapen_AOT/AOT_stimuli/rescaled_final/2042_fw.mp4	0.0	201.07529401779175	
38	185.28610634803772	fix_post	2		12	36.0	2.5	/experiments/knapen_AOT/AOT_stimuli/rescaled_final/2042_fw.mp4	0.0	201.99349546432495	0.09995889663696289
39	185.38606524467468	fix_pre	0		120	37.0	2.5	/experiments/knapen_AOT/AOT_stimuli/rescaled_final/1178_fw.mp4	0.0	202.0934543609619	1.0085115432739258
39	185.96154761314392	pulse	0	t		37.0	2.5	/experiments/knapen_AOT/AOT_stimuli/rescaled_final/1178_fw.mp4	0.0	202.66893672943115	
39	186.3945767879486	movie	1		265	37.0	2.5	/experiments/knapen_AOT/AOT_stimuli/rescaled_final/1178_fw.mp4	0.0	203.10196590423584	2.4920706748962402
39	187.56180357933044	pulse	1	t		37.0	2.5	/experiments/knapen_AOT/AOT_stimuli/rescaled_final/1178_fw.mp4	0.0	204.26919269561768	
39	188.88664746284485	fix_post	2		12	37.0	2.5	/experiments/knapen_AOT/AOT_stimuli/rescaled_final/1178_fw.mp4	0.0	205.59403657913208	0.10004925727844238
40	188.9866967201233	fix_pre	0		120	38.0	2.5	/experiments/knapen_AOT/AOT_stimuli/rescaled_final/0863_rv.mp4	0.0	205.69408583641052	1.0085418224334717
40	189.16178584098816	pulse	0	t		38.0	2.5	/experiments/knapen_AOT/AOT_stimuli/rescaled_final/0863_rv.mp4	0.0	205.8691749572754	
40	189.99523854255676	movie	1		266	38.0	2.5	/experiments/knapen_AOT/AOT_stimuli/rescaled_final/0863_rv.mp4	0.0	206.702627658844	2.4920897483825684
40	190.76226091384888	pulse	1	t		38.0	2.5	/experiments/knapen_AOT/AOT_stimuli/rescaled_final/0863_rv.mp4	0.0	207.4696500301361	
40	192.36228799819946	pulse	1	t		38.0	2.5	/experiments/knapen_AOT/AOT_stimuli/rescaled_final/0863_rv.mp4	0.0	209.0696771144867	
40	192.48732829093933	fix_post	2		12	38.0	2.5	/experiments/knapen_AOT/AOT_stimuli/rescaled_final/0863_rv.mp4	0.0	209.19471740722656	0.09972500801086426
41	192.5870532989502	fix_pre	0		120	39.0	2.5	/experiments/knapen_AOT/AOT_stimuli/rescaled_final/1927_fw.mp4	0.0	209.29444241523743	1.008612871170044
41	193.59566617012024	movie	1		275	39.0	2.5	/experiments/knapen_AOT/AOT_stimuli/rescaled_final/1927_fw.mp4	0.0	210.30305528640747	2.4919071197509766
41	193.9626169204712	pulse	1	t		39.0	2.5	/experiments/knapen_AOT/AOT_stimuli/rescaled_final/1927_fw.mp4	0.0	210.67000603675842	
41	195.56278705596924	pulse	1	t		39.0	2.5	/experiments/knapen_AOT/AOT_stimuli/rescaled_final/1927_fw.mp4	0.0	212.27017617225647	
41	196.08757328987122	fix_post	2		12	39.0	2.5	/experiments/knapen_AOT/AOT_stimuli/rescaled_final/1927_fw.mp4	0.0	212.79496240615845	0.10011625289916992
42	196.18768954277039	fix_pre	0		118	40.0	2.5	/experiments/knapen_AOT/AOT_stimuli/rescaled_final/1081_fw.mp4	0.0	212.89507865905762	0.991767168045044
42	197.16294527053833	pulse	0	t		40.0	2.5	/experiments/knapen_AOT/AOT_stimuli/rescaled_final/1081_fw.mp4	0.0	213.87033438682556	
42	197.17945671081543	movie	1		285	40.0	2.5	/experiments/knapen_AOT/AOT_stimuli/rescaled_final/1081_fw.mp4	0.0	213.88684582710266	2.5005152225494385
42	198.76148009300232	pulse	1	t		40.0	2.5	/experiments/knapen_AOT/AOT_stimuli/rescaled_final/1081_fw.mp4	0.0	215.46886920928955	
42	199.67997193336487	fix_post	2		12	40.0	2.5	/experiments/knapen_AOT/AOT_stimuli/rescaled_final/1081_fw.mp4	0.0	216.3873610496521	0.09982633590698242
43	199.77979826927185	fix_pre	0		120	41.0	2.5	blank	1.0	216.48718738555908	1.0001764297485352
43	200.36343932151794	pulse	0	t		41.0	2.5	blank	1.0	217.07082843780518	
43	200.77997469902039	movie	1		300	41.0	2.5	blank	1.0	217.48736381530762	2.5003550052642822
43	201.96377301216125	pulse	1	t		41.0	2.5	blank	1.0	218.6711621284485	
43	203.28032970428467	fix_post	2		12	41.0	2.5	blank	1.0	219.9877188205719	0.10002279281616211
44	203.38035249710083	fix_pre	0		120	42.0	2.5	/experiments/knapen_AOT/AOT_stimuli/rescaled_final/1224_fw.mp4	0.0	220.08774161338806	1.008570671081543
44	203.56388068199158	pulse	0	t		42.0	2.5	/experiments/knapen_AOT/AOT_stimuli/rescaled_final/1224_fw.mp4	0.0	220.2712697982788	
44	204.38892316818237	movie	1		263	42.0	2.5	/experiments/knapen_AOT/AOT_stimuli/rescaled_final/1224_fw.mp4	0.0	221.0963122844696	2.4921538829803467
44	205.1624457836151	pulse	1	t		42.0	2.5	/experiments/knapen_AOT/AOT_stimuli/rescaled_final/1224_fw.mp4	0.0	221.86983489990234	
44	206.76467728614807	pulse	1	t		42.0	2.5	/experiments/knapen_AOT/AOT_stimuli/rescaled_final/1224_fw.mp4	0.0	223.4720664024353	
44	206.88107705116272	fix_post	2		12	42.0	2.5	/experiments/knapen_AOT/AOT_stimuli/rescaled_final/1224_fw.mp4	0.0	223.58846616744995	0.09982156753540039
45	206.98089861869812	fix_pre	0		120	43.0	2.5	/experiments/knapen_AOT/AOT_stimuli/rescaled_final/0438_fw.mp4	0.0	223.68828773498535	1.0086498260498047
45	207.98954844474792	movie	1		274	43.0	2.5	/experiments/knapen_AOT/AOT_stimuli/rescaled_final/0438_fw.mp4	0.0	224.69693756103516	2.4918761253356934
45	208.36331248283386	pulse	1	t		43.0	2.5	/experiments/knapen_AOT/AOT_stimuli/rescaled_final/0438_fw.mp4	0.0	225.0707015991211	
45	209.96297574043274	pulse	1	t		43.0	2.5	/experiments/knapen_AOT/AOT_stimuli/rescaled_final/0438_fw.mp4	0.0	226.67036485671997	
45	210.48142457008362	fix_post	2		12	43.0	2.5	/experiments/knapen_AOT/AOT_stimuli/rescaled_final/0438_fw.mp4	0.0	227.18881368637085	0.10009956359863281
46	210.58152413368225	fix_pre	0		119	44.0	2.5	/experiments/knapen_AOT/AOT_stimuli/rescaled_final/1154_rv.mp4	0.0	227.28891324996948	1.008584976196289
46	211.5650954246521	pulse	0	t		44.0	2.5	/experiments/knapen_AOT/AOT_stimuli/rescaled_final/1154_rv.mp4	0.0	228.27248454093933	
46	211.59010910987854	movie	1		258	44.0	2.5	/experiments/knapen_AOT/AOT_stimuli/rescaled_final/1154_rv.mp4	0.0	228.29749822616577	2.492277145385742
46	213.16396951675415	pulse	1	t		44.0	2.5	/experiments/knapen_AOT/AOT_stimuli/rescaled_final/1154_rv.mp4	0.0	229.87135863304138	
46	214.08238625526428	fix_post	2		12	44.0	2.5	/experiments/knapen_AOT/AOT_stimuli/rescaled_final/1154_rv.mp4	0.0	230.7897753715515	0.09967851638793945
47	214.18206477165222	fix_pre	0		120	45.0	2.5	/experiments/knapen_AOT/AOT_stimuli/rescaled_final/1859_fw.mp4	0.0	230.88945388793945	1.0084221363067627
47	214.76565742492676	pulse	0	t		45.0	2.5	/experiments/knapen_AOT/AOT_stimuli/rescaled_final/1859_fw.mp4	0.0	231.473046541214	
47	215.19048690795898	movie	1		262	45.0	2.5	/experiments/knapen_AOT/AOT_stimuli/rescaled_final/1859_fw.mp4	0.0	231.89787602424622	2.492035388946533
47	216.36401772499084	pulse	1	t		45.0	2.5	/experiments/knapen_AOT/AOT_stimuli/rescaled_final/1859_fw.mp4	0.0	233.07140684127808	
47	217.68252229690552	fix_post	2		12	45.0	2.5	/experiments/knapen_AOT/AOT_stimuli/rescaled_final/1859_fw.mp4	0.0	234.38991141319275	0.0999906063079834
48	217.7825129032135	fix_pre	0		120	46.0	2.5	/experiments/knapen_AOT/AOT_stimuli/rescaled_final/0952_rv.mp4	0.0	234.48990201950073	1.0087220668792725
48	217.96635365486145	pulse	0	t		46.0	2.5	/experiments/knapen_AOT/AOT_stimuli/rescaled_final/0952_rv.mp4	0.0	234.67374277114868	
48	218.79123497009277	movie	1		266	46.0	2.5	/experiments/knapen_AOT/AOT_stimuli/rescaled_final/0952_rv.mp4	0.0	235.49862408638	2.4918007850646973
48	219.5644929409027	pulse	1	t		46.0	2.5	/experiments/knapen_AOT/AOT_stimuli/rescaled_final/0952_rv.mp4	0.0	236.27188205718994	
48	221.165997505188	pulse	1	t		46.0	2.5	/experiments/knapen_AOT/AOT_stimuli/rescaled_final/0952_rv.mp4	0.0	237.87338662147522	
48	221.28303575515747	fix_post	2		12	46.0	2.5	/experiments/knapen_AOT/AOT_stimuli/rescaled_final/0952_rv.mp4	0.0	237.9904248714447	0.10005593299865723
49	221.38309168815613	fix_pre	0		120	47.0	2.5	/experiments/knapen_AOT/AOT_stimuli/rescaled_final/1752_rv.mp4	0.0	238.09048080444336	1.0084490776062012
49	222.39154076576233	movie	1		253	47.0	2.5	/experiments/knapen_AOT/AOT_stimuli/rescaled_final/1752_rv.mp4	0.0	239.09892988204956	2.49210786819458
49	222.76701879501343	pulse	1	t		47.0	2.5	/experiments/knapen_AOT/AOT_stimuli/rescaled_final/1752_rv.mp4	0.0	239.47440791130066	
49	224.36476850509644	pulse	1	t		47.0	2.5	/experiments/knapen_AOT/AOT_stimuli/rescaled_final/1752_rv.mp4	0.0	241.07215762138367	
49	224.8836486339569	fix_post	2		12	47.0	2.5	/experiments/knapen_AOT/AOT_stimuli/rescaled_final/1752_rv.mp4	0.0	241.59103775024414	0.09992051124572754
50	224.98356914520264	fix_pre	0		119	48.0	2.5	/experiments/knapen_AOT/AOT_stimuli/rescaled_final/0807_fw.mp4	0.0	241.69095826148987	1.0001764297485352
50	225.96727919578552	pulse	0	t		48.0	2.5	/experiments/knapen_AOT/AOT_stimuli/rescaled_final/0807_fw.mp4	0.0	242.67466831207275	
50	225.98374557495117	movie	1		266	48.0	2.5	/experiments/knapen_AOT/AOT_stimuli/rescaled_final/0807_fw.mp4	0.0	242.6911346912384	2.5005784034729004
50	227.56603145599365	pulse	1	t		48.0	2.5	/experiments/knapen_AOT/AOT_stimuli/rescaled_final/0807_fw.mp4	0.0	244.27342057228088	
50	228.48432397842407	fix_post	2		12	48.0	2.5	/experiments/knapen_AOT/AOT_stimuli/rescaled_final/0807_fw.mp4	0.0	245.1917130947113	0.0998237133026123
51	228.58414769172668	fix_pre	0		120	49.0	2.5	blank	1.0	245.29153680801392	1.0001349449157715
51	229.16788721084595	pulse	0	t		49.0	2.5	blank	1.0	245.87527632713318	
51	229.58428263664246	movie	1		300	49.0	2.5	blank	1.0	246.2916717529297	2.5004146099090576
51	230.76812601089478	pulse	1	t		49.0	2.5	blank	1.0	247.475515127182	
51	232.0846972465515	fix_post	2		12	49.0	2.5	blank	1.0	248.79208636283875	0.09998512268066406
52	232.18468236923218	fix_pre	0		120	50.0	2.5	/experiments/knapen_AOT/AOT_stimuli/rescaled_final/1198_fw.mp4	0.0	248.8920714855194	1.0084795951843262
52	232.36852979660034	pulse	0	t		50.0	2.5	/experiments/knapen_AOT/AOT_stimuli/rescaled_final/1198_fw.mp4	0.0	249.07591891288757	
52	233.1931619644165	movie	1		265	50.0	2.5	/experiments/knapen_AOT/AOT_stimuli/rescaled_final/1198_fw.mp4	0.0	249.90055108070374	2.4923477172851562
52	233.9665868282318	pulse	1	t		50.0	2.5	/experiments/knapen_AOT/AOT_stimuli/rescaled_final/1198_fw.mp4	0.0	250.67397594451904	
52	235.56697058677673	pulse	1	t		50.0	2.5	/experiments/knapen_AOT/AOT_stimuli/rescaled_final/1198_fw.mp4	0.0	252.27435970306396	
52	235.68550968170166	fix_post	2		12	50.0	2.5	/experiments/knapen_AOT/AOT_stimuli/rescaled_final/1198_fw.mp4	0.0	252.3928987979889	0.09974431991577148
53	235.78525400161743	fix_pre	0		120	51.0	2.5	/experiments/knapen_AOT/AOT_stimuli/rescaled_final/1484_rv.mp4	0.0	252.49264311790466	1.0084729194641113
53	236.79372692108154	movie	1		262	51.0	2.5	/experiments/knapen_AOT/AOT_stimuli/rescaled_final/1484_rv.mp4	0.0	253.50111603736877	2.4923055171966553
53	237.16904401779175	pulse	1	t		51.0	2.5	/experiments/knapen_AOT/AOT_stimuli/rescaled_final/1484_rv.mp4	0.0	253.87643313407898	
53	238.7670955657959	pulse	1	t		51.0	2.5	/experiments/knapen_AOT/AOT_stimuli/rescaled_final/1484_rv.mp4	0.0	255.47448468208313	
53	239.2860324382782	fix_post	2		12	51.0	2.5	/experiments/knapen_AOT/AOT_stimuli/rescaled_final/1484_rv.mp4	0.0	255.99342155456543	0.09978485107421875
54	239.38581728935242	fix_pre	0		119	52.0	2.5	/experiments/knapen_AOT/AOT_stimuli/rescaled_final/1693_fw.mp4	0.0	256.09320640563965	1.0001215934753418
54	240.36977887153625	pulse	0	t		52.0	2.5	/experiments/knapen_AOT/AOT_stimuli/rescaled_final/1693_fw.mp4	0.0	257.0771679878235	
54	240.38593888282776	movie	1		293	52.0	2.5	/experiments/knapen_AOT/AOT_stimuli/rescaled_final/1693_fw.mp4	0.0	257.093327999115	2.5003366470336914
54	241.96802592277527	pulse	1	t		52.0	2.5	/experiments/knapen_AOT/AOT_stimuli/rescaled_final/1693_fw.mp4	0.0	258.6754150390625	
54	242.88627552986145	fix_post	2		12	52.0	2.5	/experiments/knapen_AOT/AOT_stimuli/rescaled_final/1693_fw.mp4	0.0	259.5936646461487	0.10004425048828125
55	242.98631978034973	fix_pre	0		120	53.0	2.5	/experiments/knapen_AOT/AOT_stimuli/rescaled_final/0188_fw.mp4	0.0	259.69370889663696	1.0085866451263428
55	243.56180715560913	pulse	0	t		53.0	2.5	/experiments/knapen_AOT/AOT_stimuli/rescaled_final/0188_fw.mp4	0.0	260.26919627189636	
55	243.99490642547607	movie	1		282	53.0	2.5	/experiments/knapen_AOT/AOT_stimuli/rescaled_final/0188_fw.mp4	0.0	260.7022955417633	2.4921085834503174
55	245.16215348243713	pulse	1	t		53.0	2.5	/experiments/knapen_AOT/AOT_stimuli/rescaled_final/0188_fw.mp4	0.0	261.86954259872437	
55	246.4870150089264	fix_post	2		12	53.0	2.5	/experiments/knapen_AOT/AOT_stimuli/rescaled_final/0188_fw.mp4	0.0	263.1944041252136	0.09979867935180664
56	246.5868136882782	fix_pre	0		120	54.0	2.5	blank	1.0	263.29420280456543	1.0002057552337646
56	246.76210808753967	pulse	0	t		54.0	2.5	blank	1.0	263.4694972038269	
56	247.58701944351196	movie	1		300	54.0	2.5	blank	1.0	264.2944085597992	2.500345230102539
56	248.36239957809448	pulse	1	t		54.0	2.5	blank	1.0	265.0697886943817	
56	249.9628632068634	pulse	1	t		54.0	2.5	blank	1.0	266.67025232315063	
56	250.0873646736145	fix_post	2		12	54.0	2.5	blank	1.0	266.79475378990173	0.10001301765441895
57	250.18737769126892	fix_pre	0		120	55.0	2.5	/experiments/knapen_AOT/AOT_stimuli/rescaled_final/1572_rv.mp4	0.0	266.89476680755615	1.00850248336792
57	251.19588017463684	movie	1		273	55.0	2.5	/experiments/knapen_AOT/AOT_stimuli/rescaled_final/1572_rv.mp4	0.0	267.9032692909241	2.4922170639038086
57	251.5629379749298	pulse	1	t		55.0	2.5	/experiments/knapen_AOT/AOT_stimuli/rescaled_final/1572_rv.mp4	0.0	268.27032709121704	
57	253.1632878780365	pulse	1	t		55.0	2.5	/experiments/knapen_AOT/AOT_stimuli/rescaled_final/1572_rv.mp4	0.0	269.87067699432373	
57	253.68809723854065	fix_post	2		12	55.0	2.5	/experiments/knapen_AOT/AOT_stimuli/rescaled_final/1572_rv.mp4	0.0	270.3954863548279	0.09983563423156738
58	253.78793287277222	fix_pre	0		118	56.0	2.5	/experiments/knapen_AOT/AOT_stimuli/rescaled_final/2071_rv.mp4	0.0	270.49532198905945	0.9918472766876221
58	254.76327514648438	pulse	0	t		56.0	2.5	/experiments/knapen_AOT/AOT_stimuli/rescaled_final/2071_rv.mp4	0.0	271.4706642627716	
58	254.77978014945984	movie	1		289	56.0	2.5	/experiments/knapen_AOT/AOT_stimuli/rescaled_final/2071_rv.mp4	0.0	271.48716926574707	2.500549793243408
58	256.36311435699463	pulse	1	t		56.0	2.5	/experiments/knapen_AOT/AOT_stimuli/rescaled_final/2071_rv.mp4	0.0	273.07050347328186	
58	257.28032994270325	fix_post	2		12	56.0	2.5	/experiments/knapen_AOT/AOT_stimuli/rescaled_final/2071_rv.mp4	0.0	273.9877190589905	0.09984254837036133
59	257.3801724910736	fix_pre	0		120	57.0	2.5	/experiments/knapen_AOT/AOT_stimuli/rescaled_final/1859_rv.mp4	0.0	274.08756160736084	1.008460283279419
59	257.9637794494629	pulse	0	t		57.0	2.5	/experiments/knapen_AOT/AOT_stimuli/rescaled_final/1859_rv.mp4	0.0	274.6711685657501	
59	258.388632774353	movie	1		266	57.0	2.5	/experiments/knapen_AOT/AOT_stimuli/rescaled_final/1859_rv.mp4	0.0	275.09602189064026	2.4923486709594727
59	259.56199979782104	pulse	1	t		57.0	2.5	/experiments/knapen_AOT/AOT_stimuli/rescaled_final/1859_rv.mp4	0.0	276.2693889141083	
59	260.8809814453125	fix_post	2		12	57.0	2.5	/experiments/knapen_AOT/AOT_stimuli/rescaled_final/1859_rv.mp4	0.0	277.58837056159973	0.09981989860534668
60	260.98080134391785	fix_pre	0		120	58.0	2.5	/experiments/knapen_AOT/AOT_stimuli/rescaled_final/0917_fw.mp4	0.0	277.6881904602051	1.0083518028259277
60	261.16441559791565	pulse	0	t		58.0	2.5	/experiments/knapen_AOT/AOT_stimuli/rescaled_final/0917_fw.mp4	0.0	277.8718047142029	
60	261.9891531467438	movie	1		276	58.0	2.5	/experiments/knapen_AOT/AOT_stimuli/rescaled_final/0917_fw.mp4	0.0	278.696542263031	2.492633104324341
60	262.76266956329346	pulse	1	t		58.0	2.5	/experiments/knapen_AOT/AOT_stimuli/rescaled_final/0917_fw.mp4	0.0	279.4700586795807	
60	264.36270475387573	pulse	1	t		58.0	2.5	/experiments/knapen_AOT/AOT_stimuli/rescaled_final/0917_fw.mp4	0.0	281.07009387016296	
60	264.4817862510681	fix_post	2		12	58.0	2.5	/experiments/knapen_AOT/AOT_stimuli/rescaled_final/0917_fw.mp4	0.0	281.18917536735535	0.09953784942626953
61	264.5813241004944	fix_pre	0		120	59.0	2.5	/experiments/knapen_AOT/AOT_stimuli/rescaled_final/0510_fw.mp4	0.0	281.2887132167816	1.008371353149414
61	265.5896954536438	movie	1		264	59.0	2.5	/experiments/knapen_AOT/AOT_stimuli/rescaled_final/0510_fw.mp4	0.0	282.29708456993103	2.4920337200164795
61	265.9638395309448	pulse	1	t		59.0	2.5	/experiments/knapen_AOT/AOT_stimuli/rescaled_final/0510_fw.mp4	0.0	282.67122864723206	
61	267.5628457069397	pulse	1	t		59.0	2.5	/experiments/knapen_AOT/AOT_stimuli/rescaled_final/0510_fw.mp4	0.0	284.27023482322693	
61	268.0817291736603	fix_post	2		12	59.0	2.5	/experiments/knapen_AOT/AOT_stimuli/rescaled_final/0510_fw.mp4	0.0	284.7891182899475	0.10002517700195312
62	268.18175435066223	fix_pre	0		119	60.0	2.5	/experiments/knapen_AOT/AOT_stimuli/rescaled_final/1199_fw.mp4	0.0	284.88914346694946	1.0002384185791016
62	269.1656725406647	pulse	0	t		60.0	2.5	/experiments/knapen_AOT/AOT_stimuli/rescaled_final/1199_fw.mp4	0.0	285.8730616569519	
62	269.18199276924133	movie	1		276	60.0	2.5	/experiments/knapen_AOT/AOT_stimuli/rescaled_final/1199_fw.mp4	0.0	285.88938188552856	2.5003230571746826
62	270.7641954421997	pulse	1	t		60.0	2.5	/experiments/knapen_AOT/AOT_stimuli/rescaled_final/1199_fw.mp4	0.0	287.47158455848694	
62	271.682315826416	fix_post	2		12	60.0	2.5	/experiments/knapen_AOT/AOT_stimuli/rescaled_final/1199_fw.mp4	0.0	288.38970494270325	0.09997677803039551
63	271.7822926044464	fix_pre	0		120	61.0	2.5	/experiments/knapen_AOT/AOT_stimuli/rescaled_final/1040_rv.mp4	0.0	288.48968172073364	1.0087032318115234
63	272.3659772872925	pulse	0	t		61.0	2.5	/experiments/knapen_AOT/AOT_stimuli/rescaled_final/1040_rv.mp4	0.0	289.0733664035797	
63	272.79099583625793	movie	1		279	61.0	2.5	/experiments/knapen_AOT/AOT_stimuli/rescaled_final/1040_rv.mp4	0.0	289.49838495254517	2.491929292678833
63	273.9646372795105	pulse	1	t		61.0	2.5	/experiments/knapen_AOT/AOT_stimuli/rescaled_final/1040_rv.mp4	0.0	290.67202639579773	
63	275.28292512893677	fix_post	2		12	61.0	2.5	/experiments/knapen_AOT/AOT_stimuli/rescaled_final/1040_rv.mp4	0.0	291.990314245224	0.09996485710144043
64	275.3828899860382	fix_pre	0		120	62.0	2.5	blank	1.0	292.09027910232544	1.0000879764556885
64	275.56689190864563	pulse	0	t		62.0	2.5	blank	1.0	292.27428102493286	
64	276.3829779624939	movie	1		300	62.0	2.5	blank	1.0	293.0903670787811	2.5003905296325684
64	277.1668863296509	pulse	1	t		62.0	2.5	blank	1.0	293.8742754459381	
64	278.7671501636505	pulse	1	t		62.0	2.5	blank	1.0	295.47453927993774	
64	278.88336849212646	fix_post	2		12	62.0	2.5	blank	1.0	295.5907576084137	0.10019087791442871
65	278.9835593700409	fix_pre	0		120	63.0	2.5	/experiments/knapen_AOT/AOT_stimuli/rescaled_final/2010_rv.mp4	0.0	295.6909484863281	1.0083074569702148
65	279.9918668270111	movie	1		273	63.0	2.5	/experiments/knapen_AOT/AOT_stimuli/rescaled_final/2010_rv.mp4	0.0	296.69925594329834	2.4920425415039062
65	280.3673927783966	pulse	1	t		63.0	2.5	/experiments/knapen_AOT/AOT_stimuli/rescaled_final/2010_rv.mp4	0.0	297.07478189468384	
65	281.9664545059204	pulse	1	t		63.0	2.5	/experiments/knapen_AOT/AOT_stimuli/rescaled_final/2010_rv.mp4	0.0	298.67384362220764	
65	282.483909368515	fix_post	2		12	63.0	2.5	/experiments/knapen_AOT/AOT_stimuli/rescaled_final/2010_rv.mp4	0.0	299.19129848480225	0.10001635551452637
66	282.58392572402954	fix_pre	0		119	64.0	2.5	/experiments/knapen_AOT/AOT_stimuli/rescaled_final/1824_rv.mp4	0.0	299.2913148403168	1.0001418590545654
66	283.5676302909851	pulse	0	t		64.0	2.5	/experiments/knapen_AOT/AOT_stimuli/rescaled_final/1824_rv.mp4	0.0	300.27501940727234	
66	283.5840675830841	movie	1		277	64.0	2.5	/experiments/knapen_AOT/AOT_stimuli/rescaled_final/1824_rv.mp4	0.0	300.29145669937134	2.50063419342041
66	285.16658067703247	pulse	1	t		64.0	2.5	/experiments/knapen_AOT/AOT_stimuli/rescaled_final/1824_rv.mp4	0.0	301.8739697933197	
66	286.0847017765045	fix_post	2		12	64.0	2.5	/experiments/knapen_AOT/AOT_stimuli/rescaled_final/1824_rv.mp4	0.0	302.79209089279175	0.09982180595397949
67	286.1845235824585	fix_pre	0		120	65.0	2.5	/experiments/knapen_AOT/AOT_stimuli/rescaled_final/1838_fw.mp4	0.0	302.8919126987457	1.008500337600708
67	286.7682387828827	pulse	0	t		65.0	2.5	/experiments/knapen_AOT/AOT_stimuli/rescaled_final/1838_fw.mp4	0.0	303.4756278991699	
67	287.1930239200592	movie	1		283	65.0	2.5	/experiments/knapen_AOT/AOT_stimuli/rescaled_final/1838_fw.mp4	0.0	303.90041303634644	2.4919674396514893
67	288.36630964279175	pulse	1	t		65.0	2.5	/experiments/knapen_AOT/AOT_stimuli/rescaled_final/1838_fw.mp4	0.0	305.073698759079	
67	289.6849913597107	fix_post	2		12	65.0	2.5	/experiments/knapen_AOT/AOT_stimuli/rescaled_final/1838_fw.mp4	0.0	306.3923804759979	0.10008525848388672
68	289.7850766181946	fix_pre	0		120	66.0	2.5	/experiments/knapen_AOT/AOT_stimuli/rescaled_final/0118_rv.mp4	0.0	306.4924657344818	1.0084660053253174
68	289.9686276912689	pulse	0	t		66.0	2.5	/experiments/knapen_AOT/AOT_stimuli/rescaled_final/0118_rv.mp4	0.0	306.67601680755615	
68	290.7935426235199	movie	1		272	66.0	2.5	/experiments/knapen_AOT/AOT_stimuli/rescaled_final/0118_rv.mp4	0.0	307.50093173980713	2.500500202178955
68	291.5667164325714	pulse	1	t		66.0	2.5	/experiments/knapen_AOT/AOT_stimuli/rescaled_final/0118_rv.mp4	0.0	308.27410554885864	
68	293.16818714141846	pulse	1	t		66.0	2.5	/experiments/knapen_AOT/AOT_stimuli/rescaled_final/0118_rv.mp4	0.0	309.8755762577057	
68	293.29404282569885	fix_post	2		11	66.0	2.5	/experiments/knapen_AOT/AOT_stimuli/rescaled_final/0118_rv.mp4	0.0	310.0014319419861	0.09150385856628418
69	293.38554668426514	fix_pre	0		120	67.0	2.5	/experiments/knapen_AOT/AOT_stimuli/rescaled_final/0166_rv.mp4	0.0	310.09293580055237	1.008596658706665
69	294.3941433429718	movie	1		264	67.0	2.5	/experiments/knapen_AOT/AOT_stimuli/rescaled_final/0166_rv.mp4	0.0	311.10153245925903	2.4922330379486084
69	294.7682902812958	pulse	1	t		67.0	2.5	/experiments/knapen_AOT/AOT_stimuli/rescaled_final/0166_rv.mp4	0.0	311.475679397583	
69	296.3614330291748	pulse	1	t		67.0	2.5	/experiments/knapen_AOT/AOT_stimuli/rescaled_final/0166_rv.mp4	0.0	313.06882214546204	
69	296.8863763809204	fix_post	2		12	67.0	2.5	/experiments/knapen_AOT/AOT_stimuli/rescaled_final/0166_rv.mp4	0.0	313.59376549720764	0.0997164249420166
70	296.9860928058624	fix_pre	0		118	68.0	2.5	/experiments/knapen_AOT/AOT_stimuli/rescaled_final/2135_rv.mp4	0.0	313.69348192214966	0.9918363094329834
70	297.9615144729614	pulse	0	t		68.0	2.5	/experiments/knapen_AOT/AOT_stimuli/rescaled_final/2135_rv.mp4	0.0	314.66890358924866	
70	297.9779291152954	movie	1		286	68.0	2.5	/experiments/knapen_AOT/AOT_stimuli/rescaled_final/2135_rv.mp4	0.0	314.68531823158264	2.500349760055542
70	299.5617723464966	pulse	1	t		68.0	2.5	/experiments/knapen_AOT/AOT_stimuli/rescaled_final/2135_rv.mp4	0.0	316.2691614627838	
70	300.47827887535095	fix_post	2		12	68.0	2.5	/experiments/knapen_AOT/AOT_stimuli/rescaled_final/2135_rv.mp4	0.0	317.1856679916382	0.10006403923034668
71	300.5783429145813	fix_pre	0		120	69.0	2.5	blank	1.0	317.28573203086853	1.000128984451294
71	301.1619050502777	pulse	0	t		69.0	2.5	blank	1.0	317.86929416656494	
71	301.5784718990326	movie	1		300	69.0	2.5	blank	1.0	318.2858610153198	2.500364065170288
71	302.76245880126953	pulse	1	t		69.0	2.5	blank	1.0	319.46984791755676	
71	304.0788359642029	fix_post	2		12	69.0	2.5	blank	1.0	320.7862250804901	0.10001254081726074
72	304.17884850502014	fix_pre	0		120	70.0	2.5	/experiments/knapen_AOT/AOT_stimuli/rescaled_final/0863_fw.mp4	0.0	320.8862376213074	1.0086839199066162
72	304.3626525402069	pulse	0	t		70.0	2.5	/experiments/knapen_AOT/AOT_stimuli/rescaled_final/0863_fw.mp4	0.0	321.07004165649414	
72	305.18753242492676	movie	1		286	70.0	2.5	/experiments/knapen_AOT/AOT_stimuli/rescaled_final/0863_fw.mp4	0.0	321.894921541214	2.4921875
72	305.96265411376953	pulse	1	t		70.0	2.5	/experiments/knapen_AOT/AOT_stimuli/rescaled_final/0863_fw.mp4	0.0	322.67004323005676	
72	307.5629405975342	pulse	1	t		70.0	2.5	/experiments/knapen_AOT/AOT_stimuli/rescaled_final/0863_fw.mp4	0.0	324.2703297138214	
72	307.67971992492676	fix_post	2		12	70.0	2.5	/experiments/knapen_AOT/AOT_stimuli/rescaled_final/0863_fw.mp4	0.0	324.387109041214	0.0996551513671875
73	307.77937507629395	fix_pre	0		120	71.0	2.5	/experiments/knapen_AOT/AOT_stimuli/rescaled_final/1583_rv.mp4	0.0	324.4867641925812	1.0086781978607178
73	308.78805327415466	movie	1		267	71.0	2.5	/experiments/knapen_AOT/AOT_stimuli/rescaled_final/1583_rv.mp4	0.0	325.4954423904419	2.4918930530548096
73	309.16138648986816	pulse	1	t		71.0	2.5	/experiments/knapen_AOT/AOT_stimuli/rescaled_final/1583_rv.mp4	0.0	325.8687756061554	
73	310.76139283180237	pulse	1	t		71.0	2.5	/experiments/knapen_AOT/AOT_stimuli/rescaled_final/1583_rv.mp4	0.0	327.4687819480896	
73	311.2799463272095	fix_post	2		12	71.0	2.5	/experiments/knapen_AOT/AOT_stimuli/rescaled_final/1583_rv.mp4	0.0	327.9873354434967	0.09998226165771484
74	311.3799285888672	fix_pre	0		119	72.0	2.5	/experiments/knapen_AOT/AOT_stimuli/rescaled_final/0655_fw.mp4	0.0	328.0873177051544	1.0001611709594727
74	312.3638229370117	pulse	0	t		72.0	2.5	/experiments/knapen_AOT/AOT_stimuli/rescaled_final/0655_fw.mp4	0.0	329.07121205329895	
74	312.38008975982666	movie	1		285	72.0	2.5	/experiments/knapen_AOT/AOT_stimuli/rescaled_final/0655_fw.mp4	0.0	329.0874788761139	2.500340223312378
74	313.9621260166168	pulse	1	t		72.0	2.5	/experiments/knapen_AOT/AOT_stimuli/rescaled_final/0655_fw.mp4	0.0	330.66951513290405	
74	314.88042998313904	fix_post	2		12	72.0	2.5	/experiments/knapen_AOT/AOT_stimuli/rescaled_final/0655_fw.mp4	0.0	331.58781909942627	0.10002541542053223
75	314.98045539855957	fix_pre	0		120	73.0	2.5	/experiments/knapen_AOT/AOT_stimuli/rescaled_final/1262_fw.mp4	0.0	331.6878445148468	1.0086309909820557
75	315.564110994339	pulse	0	t		73.0	2.5	/experiments/knapen_AOT/AOT_stimuli/rescaled_final/1262_fw.mp4	0.0	332.2715001106262	
75	315.9890863895416	movie	1		275	73.0	2.5	/experiments/knapen_AOT/AOT_stimuli/rescaled_final/1262_fw.mp4	0.0	332.69647550582886	2.4918899536132812
75	317.1629662513733	pulse	1	t		73.0	2.5	/experiments/knapen_AOT/AOT_stimuli/rescaled_final/1262_fw.mp4	0.0	333.8703553676605	
75	318.4809763431549	fix_post	2		12	73.0	2.5	/experiments/knapen_AOT/AOT_stimuli/rescaled_final/1262_fw.mp4	0.0	335.18836545944214	0.10003519058227539
76	318.5810115337372	fix_pre	0		120	74.0	2.5	/experiments/knapen_AOT/AOT_stimuli/rescaled_final/0423_rv.mp4	0.0	335.2884006500244	1.0086185932159424
76	318.7648437023163	pulse	0	t		74.0	2.5	/experiments/knapen_AOT/AOT_stimuli/rescaled_final/0423_rv.mp4	0.0	335.4722328186035	
76	319.5896301269531	movie	1		280	74.0	2.5	/experiments/knapen_AOT/AOT_stimuli/rescaled_final/0423_rv.mp4	0.0	336.29701924324036	2.491896152496338
76	320.3630487918854	pulse	1	t		74.0	2.5	/experiments/knapen_AOT/AOT_stimuli/rescaled_final/0423_rv.mp4	0.0	337.0704379081726	
76	321.9630546569824	pulse	1	t		74.0	2.5	/experiments/knapen_AOT/AOT_stimuli/rescaled_final/0423_rv.mp4	0.0	338.67044377326965	
76	322.08152627944946	fix_post	2		12	74.0	2.5	/experiments/knapen_AOT/AOT_stimuli/rescaled_final/0423_rv.mp4	0.0	338.7889153957367	0.1000669002532959
77	322.18159317970276	fix_pre	0		120	75.0	2.5	/experiments/knapen_AOT/AOT_stimuli/rescaled_final/2076_rv.mp4	0.0	338.88898229599	1.0085034370422363
77	323.190096616745	movie	1		255	75.0	2.5	/experiments/knapen_AOT/AOT_stimuli/rescaled_final/2076_rv.mp4	0.0	339.8974857330322	2.492058277130127
77	323.5635356903076	pulse	1	t		75.0	2.5	/experiments/knapen_AOT/AOT_stimuli/rescaled_final/2076_rv.mp4	0.0	340.27092480659485	
77	325.1639075279236	pulse	1	t		75.0	2.5	/experiments/knapen_AOT/AOT_stimuli/rescaled_final/2076_rv.mp4	0.0	341.8712966442108	
77	325.6821548938751	fix_post	2		12	75.0	2.5	/experiments/knapen_AOT/AOT_stimuli/rescaled_final/2076_rv.mp4	0.0	342.38954401016235	0.10012435913085938
78	325.782279253006	fix_pre	0		119	76.0	2.5	/experiments/knapen_AOT/AOT_stimuli/rescaled_final/0118_fw.mp4	0.0	342.4896683692932	1.0000176429748535
78	326.7657639980316	pulse	0	t		76.0	2.5	/experiments/knapen_AOT/AOT_stimuli/rescaled_final/0118_fw.mp4	0.0	343.47315311431885	
78	326.78229689598083	movie	1		271	76.0	2.5	/experiments/knapen_AOT/AOT_stimuli/rescaled_final/0118_fw.mp4	0.0	343.48968601226807	2.500520706176758
78	328.3645932674408	pulse	1	t		76.0	2.5	/experiments/knapen_AOT/AOT_stimuli/rescaled_final/0118_fw.mp4	0.0	345.071982383728	
78	329.2828176021576	fix_post	2		12	76.0	2.5	/experiments/knapen_AOT/AOT_stimuli/rescaled_final/0118_fw.mp4	0.0	345.9902067184448	0.09980368614196777
79	329.38262128829956	fix_pre	0		120	77.0	2.5	blank	1.0	346.0900104045868	1.0001585483551025
79	329.9662411212921	pulse	0	t		77.0	2.5	blank	1.0	346.67363023757935	
79	330.38277983665466	movie	1		300	77.0	2.5	blank	1.0	347.0901689529419	2.5003836154937744
79	331.56663751602173	pulse	1	t		77.0	2.5	blank	1.0	348.27402663230896	
79	332.88316345214844	fix_post	2		12	77.0	2.5	blank	1.0	349.59055256843567	0.10001087188720703
80	332.98317432403564	fix_pre	0		120	78.0	2.5	/experiments/knapen_AOT/AOT_stimuli/rescaled_final/1784_fw.mp4	0.0	349.6905634403229	1.0084922313690186
80	333.1667845249176	pulse	0	t		78.0	2.5	/experiments/knapen_AOT/AOT_stimuli/rescaled_final/1784_fw.mp4	0.0	349.87417364120483	
80	333.99166655540466	movie	1		281	78.0	2.5	/experiments/knapen_AOT/AOT_stimuli/rescaled_final/1784_fw.mp4	0.0	350.6990556716919	2.492269992828369
80	334.7650566101074	pulse	1	t		78.0	2.5	/experiments/knapen_AOT/AOT_stimuli/rescaled_final/1784_fw.mp4	0.0	351.47244572639465	
80	336.365118265152	pulse	1	t		78.0	2.5	/experiments/knapen_AOT/AOT_stimuli/rescaled_final/1784_fw.mp4	0.0	353.0725073814392	
80	336.48393654823303	fix_post	2		12	78.0	2.5	/experiments/knapen_AOT/AOT_stimuli/rescaled_final/1784_fw.mp4	0.0	353.19132566452026	0.09981322288513184
81	336.58374977111816	fix_pre	0		120	79.0	2.5	/experiments/knapen_AOT/AOT_stimuli/rescaled_final/0255_rv.mp4	0.0	353.2911388874054	1.0087733268737793
81	337.59252309799194	movie	1		265	79.0	2.5	/experiments/knapen_AOT/AOT_stimuli/rescaled_final/0255_rv.mp4	0.0	354.2999122142792	2.4919800758361816
81	337.9669418334961	pulse	1	t		79.0	2.5	/experiments/knapen_AOT/AOT_stimuli/rescaled_final/0255_rv.mp4	0.0	354.6743309497833	
81	339.56571912765503	pulse	1	t		79.0	2.5	/experiments/knapen_AOT/AOT_stimuli/rescaled_final/0255_rv.mp4	0.0	356.27310824394226	
81	340.0845031738281	fix_post	2		12	79.0	2.5	/experiments/knapen_AOT/AOT_stimuli/rescaled_final/0255_rv.mp4	0.0	356.79189229011536	0.09980964660644531
82	340.18431282043457	fix_pre	0		119	80.0	2.5	/experiments/knapen_AOT/AOT_stimuli/rescaled_final/1527_rv.mp4	0.0	356.8917019367218	1.0002434253692627
82	341.1679391860962	pulse	0	t		80.0	2.5	/experiments/knapen_AOT/AOT_stimuli/rescaled_final/1527_rv.mp4	0.0	357.8753283023834	
82	341.18455624580383	movie	1		280	80.0	2.5	/experiments/knapen_AOT/AOT_stimuli/rescaled_final/1527_rv.mp4	0.0	357.89194536209106	2.500365972518921
82	342.7667775154114	pulse	1	t		80.0	2.5	/experiments/knapen_AOT/AOT_stimuli/rescaled_final/1527_rv.mp4	0.0	359.4741666316986	
82	343.68492221832275	fix_post	2		12	80.0	2.5	/experiments/knapen_AOT/AOT_stimuli/rescaled_final/1527_rv.mp4	0.0	360.39231133461	0.09987330436706543
83	343.7847955226898	fix_pre	0		120	81.0	2.5	/experiments/knapen_AOT/AOT_stimuli/rescaled_final/1245_rv.mp4	0.0	360.49218463897705	1.0085124969482422
83	344.36877727508545	pulse	0	t		81.0	2.5	/experiments/knapen_AOT/AOT_stimuli/rescaled_final/1245_rv.mp4	0.0	361.0761663913727	
83	344.79330801963806	movie	1		283	81.0	2.5	/experiments/knapen_AOT/AOT_stimuli/rescaled_final/1245_rv.mp4	0.0	361.5006971359253	2.492154836654663
83	345.96702218055725	pulse	1	t		81.0	2.5	/experiments/knapen_AOT/AOT_stimuli/rescaled_final/1245_rv.mp4	0.0	362.6744112968445	
83	347.2854628562927	fix_post	2		12	81.0	2.5	/experiments/knapen_AOT/AOT_stimuli/rescaled_final/1245_rv.mp4	0.0	363.99285197257996	0.09987473487854004
84	347.38533759117126	fix_pre	0		120	82.0	2.5	/experiments/knapen_AOT/AOT_stimuli/rescaled_final/2112_rv.mp4	0.0	364.0927267074585	1.0085861682891846
84	347.56895756721497	pulse	0	t		82.0	2.5	/experiments/knapen_AOT/AOT_stimuli/rescaled_final/2112_rv.mp4	0.0	364.2763466835022	
84	348.39392375946045	movie	1		282	82.0	2.5	/experiments/knapen_AOT/AOT_stimuli/rescaled_final/2112_rv.mp4	0.0	365.1013128757477	2.492049217224121
84	349.16758942604065	pulse	1	t		82.0	2.5	/experiments/knapen_AOT/AOT_stimuli/rescaled_final/2112_rv.mp4	0.0	365.8749785423279	
84	350.76739263534546	pulse	1	t		82.0	2.5	/experiments/knapen_AOT/AOT_stimuli/rescaled_final/2112_rv.mp4	0.0	367.4747817516327	
84	350.88597297668457	fix_post	2		12	82.0	2.5	/experiments/knapen_AOT/AOT_stimuli/rescaled_final/2112_rv.mp4	0.0	367.5933620929718	0.0999455451965332
85	350.9859185218811	fix_pre	0		120	83.0	2.5	blank	1.0	367.69330763816833	1.0003929138183594
85	351.98631143569946	movie	1		300	83.0	2.5	blank	1.0	368.6937005519867	2.5000970363616943
85	352.3618016242981	pulse	1	t		83.0	2.5	blank	1.0	369.0691907405853	
85	353.96171617507935	pulse	1	t		83.0	2.5	blank	1.0	370.6691052913666	
85	354.48640847206116	fix_post	2		12	83.0	2.5	blank	1.0	371.1937975883484	0.10002708435058594
87	354.58643555641174	stim	0		1716					371.293824672699	14.302168607711792
87	355.56265687942505	pulse	0	t						372.2700459957123	
87	357.162091255188	pulse	0	t						373.8694803714752	
87	358.76269125938416	pulse	0	t						375.4700803756714	
87	360.3625547885895	pulse	0	t						377.0699439048767	
87	361.9627547264099	pulse	0	t						378.67014384269714	
87	363.56295800209045	pulse	0	t						380.2703471183777	
87	365.1632125377655	pulse	0	t						381.87060165405273	
87	366.76343989372253	pulse	0	t						383.47082901000977	
87	368.3637843132019	pulse	0	t						385.07117342948914	
