trial_nr	onset	event_type	phase	response	nr_frames	movie_index	movie_duration	movie_file	blank	onset_abs	duration
0	0.15807795524597168	stim	0		57					17.801047563552856	0.4749264717102051
0	0.6249747276306152	response	0	space						18.2679443359375	
1	0.6330044269561768	stim	0		4866					18.27597403526306	40.56688570976257
1	41.18962383270264	pulse	0	t						58.83259344100952	
1	41.19989013671875	stim	1		1714					58.842859745025635	14.299772262573242
1	42.78141236305237	pulse	1	t						60.42438197135925	
1	44.38183569908142	pulse	1	t						62.024805307388306	
1	45.98178172111511	pulse	1	t						63.624751329422	
1	47.581968784332275	pulse	1	t						65.22493839263916	
1	49.18220853805542	pulse	1	t						66.8251781463623	
1	50.78245449066162	pulse	1	t						68.4254240989685	
1	52.38273739814758	pulse	1	t						70.02570700645447	
1	53.98295760154724	pulse	1	t						71.62592720985413	
2	55.49966239929199	fix_pre	0		11	0.0	2.5	/experiments/Knapen_AOT/AOT_stimuli/rescaled_final/1158_rv.mp4	0.0	73.14263200759888	0.10845065116882324
2	55.58324694633484	pulse	0	t		0.0	2.5	/experiments/Knapen_AOT/AOT_stimuli/rescaled_final/1158_rv.mp4	0.0	73.22621655464172	
2	55.608113050460815	movie	1		269	0.0	2.5	/experiments/Knapen_AOT/AOT_stimuli/rescaled_final/1158_rv.mp4	0.0	73.2510826587677	2.4919633865356445
2	57.18168067932129	pulse	1	t		0.0	2.5	/experiments/Knapen_AOT/AOT_stimuli/rescaled_final/1158_rv.mp4	0.0	74.82465028762817	
2	58.10007643699646	fix_post	2		12	0.0	2.5	/experiments/Knapen_AOT/AOT_stimuli/rescaled_final/1158_rv.mp4	0.0	75.74304604530334	0.10000944137573242
3	58.20008587837219	fix_pre	0		120	1.0	2.5	/experiments/Knapen_AOT/AOT_stimuli/rescaled_final/1645_rv.mp4	0.0	75.84305548667908	1.008488416671753
3	58.783695220947266	pulse	0	t		1.0	2.5	/experiments/Knapen_AOT/AOT_stimuli/rescaled_final/1645_rv.mp4	0.0	76.42666482925415	
3	59.208574295043945	movie	1		279	1.0	2.5	/experiments/Knapen_AOT/AOT_stimuli/rescaled_final/1645_rv.mp4	0.0	76.85154390335083	2.4919936656951904
3	60.38198494911194	pulse	1	t		1.0	2.5	/experiments/Knapen_AOT/AOT_stimuli/rescaled_final/1645_rv.mp4	0.0	78.02495455741882	
3	61.700567960739136	fix_post	2		12	1.0	2.5	/experiments/Knapen_AOT/AOT_stimuli/rescaled_final/1645_rv.mp4	0.0	79.34353756904602	0.10004615783691406
4	61.80061411857605	fix_pre	0		120	2.0	2.5	/experiments/Knapen_AOT/AOT_stimuli/rescaled_final/1354_fw.mp4	0.0	79.44358372688293	1.008469581604004
4	61.984129190444946	pulse	0	t		2.0	2.5	/experiments/Knapen_AOT/AOT_stimuli/rescaled_final/1354_fw.mp4	0.0	79.62709879875183	
4	62.809083700180054	movie	1		282	2.0	2.5	/experiments/Knapen_AOT/AOT_stimuli/rescaled_final/1354_fw.mp4	0.0	80.45205330848694	2.4921178817749023
4	63.582860708236694	pulse	1	t		2.0	2.5	/experiments/Knapen_AOT/AOT_stimuli/rescaled_final/1354_fw.mp4	0.0	81.22583031654358	
4	65.18473267555237	pulse	1	t		2.0	2.5	/experiments/Knapen_AOT/AOT_stimuli/rescaled_final/1354_fw.mp4	0.0	82.82770228385925	
4	65.30120158195496	fix_post	2		12	2.0	2.5	/experiments/Knapen_AOT/AOT_stimuli/rescaled_final/1354_fw.mp4	0.0	82.94417119026184	0.09994292259216309
5	65.40114450454712	fix_pre	0		120	3.0	2.5	/experiments/Knapen_AOT/AOT_stimuli/rescaled_final/1808_fw.mp4	0.0	83.044114112854	1.0085139274597168
5	66.40965843200684	movie	1		278	3.0	2.5	/experiments/Knapen_AOT/AOT_stimuli/rescaled_final/1808_fw.mp4	0.0	84.05262804031372	2.4920146465301514
5	66.78505539894104	pulse	1	t		3.0	2.5	/experiments/Knapen_AOT/AOT_stimuli/rescaled_final/1808_fw.mp4	0.0	84.42802500724792	
5	68.38303065299988	pulse	1	t		3.0	2.5	/experiments/Knapen_AOT/AOT_stimuli/rescaled_final/1808_fw.mp4	0.0	86.02600026130676	
5	68.90167307853699	fix_post	2		12	3.0	2.5	/experiments/Knapen_AOT/AOT_stimuli/rescaled_final/1808_fw.mp4	0.0	86.54464268684387	0.10005426406860352
6	69.00172734260559	fix_pre	0		119	4.0	2.5	/experiments/Knapen_AOT/AOT_stimuli/rescaled_final/0704_fw.mp4	0.0	86.64469695091248	1.0000920295715332
6	69.98543095588684	pulse	0	t		4.0	2.5	/experiments/Knapen_AOT/AOT_stimuli/rescaled_final/0704_fw.mp4	0.0	87.62840056419373	
6	70.00181937217712	movie	1		285	4.0	2.5	/experiments/Knapen_AOT/AOT_stimuli/rescaled_final/0704_fw.mp4	0.0	87.64478898048401	2.5004687309265137
6	71.58593893051147	pulse	1	t		4.0	2.5	/experiments/Knapen_AOT/AOT_stimuli/rescaled_final/0704_fw.mp4	0.0	89.22890853881836	
6	72.50228810310364	fix_post	2		12	4.0	2.5	/experiments/Knapen_AOT/AOT_stimuli/rescaled_final/0704_fw.mp4	0.0	90.14525771141052	0.09996843338012695
7	72.60225653648376	fix_pre	0		120	5.0	2.5	/experiments/Knapen_AOT/AOT_stimuli/rescaled_final/0774_rv.mp4	0.0	90.24522614479065	1.008476734161377
7	73.18585419654846	pulse	0	t		5.0	2.5	/experiments/Knapen_AOT/AOT_stimuli/rescaled_final/0774_rv.mp4	0.0	90.82882380485535	
7	73.61073327064514	movie	1		291	5.0	2.5	/experiments/Knapen_AOT/AOT_stimuli/rescaled_final/0774_rv.mp4	0.0	91.25370287895203	2.4920082092285156
7	74.78402972221375	pulse	1	t		5.0	2.5	/experiments/Knapen_AOT/AOT_stimuli/rescaled_final/0774_rv.mp4	0.0	92.42699933052063	
7	76.10274147987366	fix_post	2		12	5.0	2.5	/experiments/Knapen_AOT/AOT_stimuli/rescaled_final/0774_rv.mp4	0.0	93.74571108818054	0.10007929801940918
8	76.20282077789307	fix_pre	0		120	6.0	2.5	blank	1.0	93.84579038619995	1.0000970363616943
8	76.38636112213135	pulse	0	t		6.0	2.5	blank	1.0	94.02933073043823	
8	77.20291781425476	movie	1		300	6.0	2.5	blank	1.0	94.84588742256165	2.500530242919922
8	77.98657584190369	pulse	1	t		6.0	2.5	blank	1.0	95.62954545021057	
8	79.58010482788086	pulse	1	t		6.0	2.5	blank	1.0	97.22307443618774	
8	79.70344805717468	fix_post	2		12	6.0	2.5	blank	1.0	97.34641766548157	0.09992837905883789
9	79.80337643623352	fix_pre	0		120	7.0	2.5	/experiments/Knapen_AOT/AOT_stimuli/rescaled_final/1481_rv.mp4	0.0	97.4463460445404	1.0084116458892822
9	80.8117880821228	movie	1		275	7.0	2.5	/experiments/Knapen_AOT/AOT_stimuli/rescaled_final/1481_rv.mp4	0.0	98.45475769042969	2.492067813873291
9	81.1800262928009	pulse	1	t		7.0	2.5	/experiments/Knapen_AOT/AOT_stimuli/rescaled_final/1481_rv.mp4	0.0	98.82299590110779	
9	82.77916955947876	pulse	1	t		7.0	2.5	/experiments/Knapen_AOT/AOT_stimuli/rescaled_final/1481_rv.mp4	0.0	100.42213916778564	
9	83.3038558959961	fix_post	2		12	7.0	2.5	/experiments/Knapen_AOT/AOT_stimuli/rescaled_final/1481_rv.mp4	0.0	100.94682550430298	0.10004329681396484
10	83.40389919281006	fix_pre	0		118	8.0	2.5	/experiments/Knapen_AOT/AOT_stimuli/rescaled_final/1186_fw.mp4	0.0	101.04686880111694	0.991786003112793
10	84.37920308113098	pulse	0	t		8.0	2.5	/experiments/Knapen_AOT/AOT_stimuli/rescaled_final/1186_fw.mp4	0.0	102.02217268943787	
10	84.39568519592285	movie	1		278	8.0	2.5	/experiments/Knapen_AOT/AOT_stimuli/rescaled_final/1186_fw.mp4	0.0	102.03865480422974	2.500352382659912
10	85.97942972183228	pulse	1	t		8.0	2.5	/experiments/Knapen_AOT/AOT_stimuli/rescaled_final/1186_fw.mp4	0.0	103.62239933013916	
10	86.89603757858276	fix_post	2		12	8.0	2.5	/experiments/Knapen_AOT/AOT_stimuli/rescaled_final/1186_fw.mp4	0.0	104.53900718688965	0.10008668899536133
11	86.99612426757812	fix_pre	0		120	9.0	2.5	/experiments/Knapen_AOT/AOT_stimuli/rescaled_final/1110_rv.mp4	0.0	104.63909387588501	1.0084724426269531
11	87.5796468257904	pulse	0	t		9.0	2.5	/experiments/Knapen_AOT/AOT_stimuli/rescaled_final/1110_rv.mp4	0.0	105.22261643409729	
11	88.00459671020508	movie	1		286	9.0	2.5	/experiments/Knapen_AOT/AOT_stimuli/rescaled_final/1110_rv.mp4	0.0	105.64756631851196	2.491989850997925
11	89.17986011505127	pulse	1	t		9.0	2.5	/experiments/Knapen_AOT/AOT_stimuli/rescaled_final/1110_rv.mp4	0.0	106.82282972335815	
11	90.496586561203	fix_post	2		12	9.0	2.5	/experiments/Knapen_AOT/AOT_stimuli/rescaled_final/1110_rv.mp4	0.0	108.13955616950989	0.10000896453857422
12	90.59659552574158	fix_pre	0		120	10.0	2.5	/experiments/Knapen_AOT/AOT_stimuli/rescaled_final/1900_rv.mp4	0.0	108.23956513404846	1.0085103511810303
12	90.78023409843445	pulse	0	t		10.0	2.5	/experiments/Knapen_AOT/AOT_stimuli/rescaled_final/1900_rv.mp4	0.0	108.42320370674133	
12	91.60510587692261	movie	1		283	10.0	2.5	/experiments/Knapen_AOT/AOT_stimuli/rescaled_final/1900_rv.mp4	0.0	109.24807548522949	2.492023468017578
12	92.38047122955322	pulse	1	t		10.0	2.5	/experiments/Knapen_AOT/AOT_stimuli/rescaled_final/1900_rv.mp4	0.0	110.02344083786011	
12	93.98065280914307	pulse	1	t		10.0	2.5	/experiments/Knapen_AOT/AOT_stimuli/rescaled_final/1900_rv.mp4	0.0	111.62362241744995	
12	94.09712934494019	fix_post	2		12	10.0	2.5	/experiments/Knapen_AOT/AOT_stimuli/rescaled_final/1900_rv.mp4	0.0	111.74009895324707	0.10003328323364258
13	94.19716262817383	fix_pre	0		120	11.0	2.5	/experiments/Knapen_AOT/AOT_stimuli/rescaled_final/0729_rv.mp4	0.0	111.84013223648071	1.0084755420684814
13	95.20563817024231	movie	1		279	11.0	2.5	/experiments/Knapen_AOT/AOT_stimuli/rescaled_final/0729_rv.mp4	0.0	112.8486077785492	2.492034912109375
13	95.58094453811646	pulse	1	t		11.0	2.5	/experiments/Knapen_AOT/AOT_stimuli/rescaled_final/0729_rv.mp4	0.0	113.22391414642334	
13	97.17990970611572	pulse	1	t		11.0	2.5	/experiments/Knapen_AOT/AOT_stimuli/rescaled_final/0729_rv.mp4	0.0	114.82287931442261	
13	97.69767308235168	fix_post	2		12	11.0	2.5	/experiments/Knapen_AOT/AOT_stimuli/rescaled_final/0729_rv.mp4	0.0	115.34064269065857	0.10018038749694824
14	97.79785346984863	fix_pre	0		119	12.0	2.5	/experiments/Knapen_AOT/AOT_stimuli/rescaled_final/0382_fw.mp4	0.0	115.44082307815552	1.000086784362793
14	98.78143000602722	pulse	0	t		12.0	2.5	/experiments/Knapen_AOT/AOT_stimuli/rescaled_final/0382_fw.mp4	0.0	116.4243996143341	
14	98.79794025421143	movie	1		283	12.0	2.5	/experiments/Knapen_AOT/AOT_stimuli/rescaled_final/0382_fw.mp4	0.0	116.44090986251831	2.5002779960632324
14	100.38014841079712	pulse	1	t		12.0	2.5	/experiments/Knapen_AOT/AOT_stimuli/rescaled_final/0382_fw.mp4	0.0	118.023118019104	
14	101.29821825027466	fix_post	2		12	12.0	2.5	/experiments/Knapen_AOT/AOT_stimuli/rescaled_final/0382_fw.mp4	0.0	118.94118785858154	0.10008668899536133
15	101.39830493927002	fix_pre	0		120	13.0	2.5	blank	1.0	119.0412745475769	1.000084638595581
15	101.98185300827026	pulse	0	t		13.0	2.5	blank	1.0	119.62482261657715	
15	102.3983895778656	movie	1		300	13.0	2.5	blank	1.0	120.04135918617249	2.5003585815429688
15	103.58209443092346	pulse	1	t		13.0	2.5	blank	1.0	121.22506403923035	
15	104.89874815940857	fix_post	2		12	13.0	2.5	blank	1.0	122.54171776771545	0.10007143020629883
16	104.99881958961487	fix_pre	0		120	14.0	2.5	/experiments/Knapen_AOT/AOT_stimuli/rescaled_final/0249_rv.mp4	0.0	122.64178919792175	1.0084340572357178
16	105.18238687515259	pulse	0	t		14.0	2.5	/experiments/Knapen_AOT/AOT_stimuli/rescaled_final/0249_rv.mp4	0.0	122.82535648345947	
16	106.00725364685059	movie	1		288	14.0	2.5	/experiments/Knapen_AOT/AOT_stimuli/rescaled_final/0249_rv.mp4	0.0	123.65022325515747	2.4920434951782227
16	106.78040480613708	pulse	1	t		14.0	2.5	/experiments/Knapen_AOT/AOT_stimuli/rescaled_final/0249_rv.mp4	0.0	124.42337441444397	
16	108.38073992729187	pulse	1	t		14.0	2.5	/experiments/Knapen_AOT/AOT_stimuli/rescaled_final/0249_rv.mp4	0.0	126.02370953559875	
16	108.49929714202881	fix_post	2		12	14.0	2.5	/experiments/Knapen_AOT/AOT_stimuli/rescaled_final/0249_rv.mp4	0.0	126.1422667503357	0.10001087188720703
17	108.59930801391602	fix_pre	0		120	15.0	2.5	/experiments/Knapen_AOT/AOT_stimuli/rescaled_final/1958_fw.mp4	0.0	126.2422776222229	1.0084912776947021
17	109.60779929161072	movie	1		280	15.0	2.5	/experiments/Knapen_AOT/AOT_stimuli/rescaled_final/1958_fw.mp4	0.0	127.2507688999176	2.492065191268921
17	109.98153972625732	pulse	1	t		15.0	2.5	/experiments/Knapen_AOT/AOT_stimuli/rescaled_final/1958_fw.mp4	0.0	127.62450933456421	
17	111.5812292098999	pulse	1	t		15.0	2.5	/experiments/Knapen_AOT/AOT_stimuli/rescaled_final/1958_fw.mp4	0.0	129.2241988182068	
17	112.09986448287964	fix_post	2		12	15.0	2.5	/experiments/Knapen_AOT/AOT_stimuli/rescaled_final/1958_fw.mp4	0.0	129.74283409118652	0.09998965263366699
18	112.1998541355133	fix_pre	0		119	16.0	2.5	/experiments/Knapen_AOT/AOT_stimuli/rescaled_final/0318_rv.mp4	0.0	129.8428237438202	1.0001521110534668
18	113.18360447883606	pulse	0	t		16.0	2.5	/experiments/Knapen_AOT/AOT_stimuli/rescaled_final/0318_rv.mp4	0.0	130.82657408714294	
18	113.20000624656677	movie	1		289	16.0	2.5	/experiments/Knapen_AOT/AOT_stimuli/rescaled_final/0318_rv.mp4	0.0	130.84297585487366	2.5003740787506104
18	114.78266716003418	pulse	1	t		16.0	2.5	/experiments/Knapen_AOT/AOT_stimuli/rescaled_final/0318_rv.mp4	0.0	132.42563676834106	
18	115.70038032531738	fix_post	2		12	16.0	2.5	/experiments/Knapen_AOT/AOT_stimuli/rescaled_final/0318_rv.mp4	0.0	133.34334993362427	0.10033416748046875
19	115.80071449279785	fix_pre	0		120	17.0	2.5	/experiments/Knapen_AOT/AOT_stimuli/rescaled_final/0279_fw.mp4	0.0	133.44368410110474	1.0081589221954346
19	116.384037733078	pulse	0	t		17.0	2.5	/experiments/Knapen_AOT/AOT_stimuli/rescaled_final/0279_fw.mp4	0.0	134.0270073413849	
19	116.80887341499329	movie	1		284	17.0	2.5	/experiments/Knapen_AOT/AOT_stimuli/rescaled_final/0279_fw.mp4	0.0	134.45184302330017	2.4920427799224854
19	117.98314452171326	pulse	1	t		17.0	2.5	/experiments/Knapen_AOT/AOT_stimuli/rescaled_final/0279_fw.mp4	0.0	135.62611413002014	
19	119.30091619491577	fix_post	2		12	17.0	2.5	/experiments/Knapen_AOT/AOT_stimuli/rescaled_final/0279_fw.mp4	0.0	136.94388580322266	0.10002255439758301
20	119.40093874931335	fix_pre	0		120	18.0	2.5	/experiments/Knapen_AOT/AOT_stimuli/rescaled_final/0706_fw.mp4	0.0	137.04390835762024	1.0084972381591797
20	119.58450293540955	pulse	0	t		18.0	2.5	/experiments/Knapen_AOT/AOT_stimuli/rescaled_final/0706_fw.mp4	0.0	137.22747254371643	
20	120.40943598747253	movie	1		278	18.0	2.5	/experiments/Knapen_AOT/AOT_stimuli/rescaled_final/0706_fw.mp4	0.0	138.05240559577942	2.4922432899475098
20	121.1845006942749	pulse	1	t		18.0	2.5	/experiments/Knapen_AOT/AOT_stimuli/rescaled_final/0706_fw.mp4	0.0	138.8274703025818	
20	122.78289771080017	pulse	1	t		18.0	2.5	/experiments/Knapen_AOT/AOT_stimuli/rescaled_final/0706_fw.mp4	0.0	140.42586731910706	
20	122.90167927742004	fix_post	2		12	18.0	2.5	/experiments/Knapen_AOT/AOT_stimuli/rescaled_final/0706_fw.mp4	0.0	140.54464888572693	0.0998082160949707
21	123.00148749351501	fix_pre	0		120	19.0	2.5	blank	1.0	140.6444571018219	1.0001451969146729
21	124.00163269042969	movie	1		300	19.0	2.5	blank	1.0	141.64460229873657	2.500375509262085
21	124.38529539108276	pulse	1	t		19.0	2.5	blank	1.0	142.02826499938965	
21	125.98547959327698	pulse	1	t		19.0	2.5	blank	1.0	143.62844920158386	
21	126.50200819969177	fix_post	2		12	19.0	2.5	blank	1.0	144.14497780799866	0.10000896453857422
22	126.60201716423035	fix_pre	0		119	20.0	2.5	/experiments/Knapen_AOT/AOT_stimuli/rescaled_final/1871_rv.mp4	0.0	144.24498677253723	1.0003101825714111
22	127.58573722839355	pulse	0	t		20.0	2.5	/experiments/Knapen_AOT/AOT_stimuli/rescaled_final/1871_rv.mp4	0.0	145.22870683670044	
22	127.60232734680176	movie	1		285	20.0	2.5	/experiments/Knapen_AOT/AOT_stimuli/rescaled_final/1871_rv.mp4	0.0	145.24529695510864	2.5002264976501465
22	129.18425941467285	pulse	1	t		20.0	2.5	/experiments/Knapen_AOT/AOT_stimuli/rescaled_final/1871_rv.mp4	0.0	146.82722902297974	
22	130.1025538444519	fix_post	2		12	20.0	2.5	/experiments/Knapen_AOT/AOT_stimuli/rescaled_final/1871_rv.mp4	0.0	147.7455234527588	0.10001420974731445
23	130.20256805419922	fix_pre	0		120	21.0	2.5	/experiments/Knapen_AOT/AOT_stimuli/rescaled_final/1492_fw.mp4	0.0	147.8455376625061	1.0085082054138184
23	130.78620052337646	pulse	0	t		21.0	2.5	/experiments/Knapen_AOT/AOT_stimuli/rescaled_final/1492_fw.mp4	0.0	148.42917013168335	
23	131.21107625961304	movie	1		273	21.0	2.5	/experiments/Knapen_AOT/AOT_stimuli/rescaled_final/1492_fw.mp4	0.0	148.85404586791992	2.4921536445617676
23	132.38449239730835	pulse	1	t		21.0	2.5	/experiments/Knapen_AOT/AOT_stimuli/rescaled_final/1492_fw.mp4	0.0	150.02746200561523	
23	133.7032299041748	fix_post	2		12	21.0	2.5	/experiments/Knapen_AOT/AOT_stimuli/rescaled_final/1492_fw.mp4	0.0	151.3461995124817	0.09986543655395508
24	133.80309534072876	fix_pre	0		120	22.0	2.5	/experiments/Knapen_AOT/AOT_stimuli/rescaled_final/0040_rv.mp4	0.0	151.44606494903564	1.00858736038208
24	133.97862219810486	pulse	0	t		22.0	2.5	/experiments/Knapen_AOT/AOT_stimuli/rescaled_final/0040_rv.mp4	0.0	151.62159180641174	
24	134.81168270111084	movie	1		282	22.0	2.5	/experiments/Knapen_AOT/AOT_stimuli/rescaled_final/0040_rv.mp4	0.0	152.45465230941772	2.4919397830963135
24	135.57870030403137	pulse	1	t		22.0	2.5	/experiments/Knapen_AOT/AOT_stimuli/rescaled_final/0040_rv.mp4	0.0	153.22166991233826	
24	137.178950548172	pulse	1	t		22.0	2.5	/experiments/Knapen_AOT/AOT_stimuli/rescaled_final/0040_rv.mp4	0.0	154.82192015647888	
24	137.30362248420715	fix_post	2		12	22.0	2.5	/experiments/Knapen_AOT/AOT_stimuli/rescaled_final/0040_rv.mp4	0.0	154.94659209251404	0.10008025169372559
25	137.40370273590088	fix_pre	0		120	23.0	2.5	/experiments/Knapen_AOT/AOT_stimuli/rescaled_final/2126_rv.mp4	0.0	155.04667234420776	1.0084443092346191
25	138.4121470451355	movie	1		279	23.0	2.5	/experiments/Knapen_AOT/AOT_stimuli/rescaled_final/2126_rv.mp4	0.0	156.05511665344238	2.4920339584350586
25	138.77913975715637	pulse	1	t		23.0	2.5	/experiments/Knapen_AOT/AOT_stimuli/rescaled_final/2126_rv.mp4	0.0	156.42210936546326	
25	140.37971210479736	pulse	1	t		23.0	2.5	/experiments/Knapen_AOT/AOT_stimuli/rescaled_final/2126_rv.mp4	0.0	158.02268171310425	
25	140.90418100357056	fix_post	2		12	23.0	2.5	/experiments/Knapen_AOT/AOT_stimuli/rescaled_final/2126_rv.mp4	0.0	158.54715061187744	0.10004734992980957
26	141.00422835350037	fix_pre	0		118	24.0	2.5	/experiments/Knapen_AOT/AOT_stimuli/rescaled_final/2070_fw.mp4	0.0	158.64719796180725	0.9917831420898438
26	141.97957468032837	pulse	0	t		24.0	2.5	/experiments/Knapen_AOT/AOT_stimuli/rescaled_final/2070_fw.mp4	0.0	159.62254428863525	
26	141.9960114955902	movie	1		293	24.0	2.5	/experiments/Knapen_AOT/AOT_stimuli/rescaled_final/2070_fw.mp4	0.0	159.6389811038971	2.5003747940063477
26	143.5800609588623	pulse	1	t		24.0	2.5	/experiments/Knapen_AOT/AOT_stimuli/rescaled_final/2070_fw.mp4	0.0	161.2230305671692	
26	144.49638628959656	fix_post	2		12	24.0	2.5	/experiments/Knapen_AOT/AOT_stimuli/rescaled_final/2070_fw.mp4	0.0	162.13935589790344	0.10011959075927734
27	144.59650588035583	fix_pre	0		120	25.0	2.5	/experiments/Knapen_AOT/AOT_stimuli/rescaled_final/0382_fw.mp4	0.0	162.23947548866272	1.0083999633789062
27	145.18049311637878	pulse	0	t		25.0	2.5	/experiments/Knapen_AOT/AOT_stimuli/rescaled_final/0382_fw.mp4	0.0	162.82346272468567	
27	145.60490584373474	movie	1		278	25.0	2.5	/experiments/Knapen_AOT/AOT_stimuli/rescaled_final/0382_fw.mp4	0.0	163.24787545204163	2.4920108318328857
27	146.78019857406616	pulse	1	t		25.0	2.5	/experiments/Knapen_AOT/AOT_stimuli/rescaled_final/0382_fw.mp4	0.0	164.42316818237305	
27	148.09691667556763	fix_post	2		12	25.0	2.5	/experiments/Knapen_AOT/AOT_stimuli/rescaled_final/0382_fw.mp4	0.0	165.7398862838745	0.10007309913635254
28	148.19698977470398	fix_pre	0		120	26.0	2.5	/experiments/Knapen_AOT/AOT_stimuli/rescaled_final/1095_fw.mp4	0.0	165.83995938301086	1.0084762573242188
28	148.3804805278778	pulse	0	t		26.0	2.5	/experiments/Knapen_AOT/AOT_stimuli/rescaled_final/1095_fw.mp4	0.0	166.0234501361847	
28	149.2054660320282	movie	1		292	26.0	2.5	/experiments/Knapen_AOT/AOT_stimuli/rescaled_final/1095_fw.mp4	0.0	166.84843564033508	2.4919984340667725
28	149.9788360595703	pulse	1	t		26.0	2.5	/experiments/Knapen_AOT/AOT_stimuli/rescaled_final/1095_fw.mp4	0.0	167.6218056678772	
28	151.57925128936768	pulse	1	t		26.0	2.5	/experiments/Knapen_AOT/AOT_stimuli/rescaled_final/1095_fw.mp4	0.0	169.22222089767456	
28	151.69746446609497	fix_post	2		12	26.0	2.5	/experiments/Knapen_AOT/AOT_stimuli/rescaled_final/1095_fw.mp4	0.0	169.34043407440186	0.10000967979431152
29	151.79747414588928	fix_pre	0		120	27.0	2.5	blank	1.0	169.44044375419617	1.0001373291015625
29	152.79761147499084	movie	1		300	27.0	2.5	blank	1.0	170.44058108329773	2.500401735305786
29	153.18164777755737	pulse	1	t		27.0	2.5	blank	1.0	170.82461738586426	
29	154.78145003318787	pulse	1	t		27.0	2.5	blank	1.0	172.42441964149475	
29	155.29801321029663	fix_post	2		12	27.0	2.5	blank	1.0	172.94098281860352	0.1000375747680664
30	155.3980507850647	fix_pre	0		119	28.0	2.5	/experiments/Knapen_AOT/AOT_stimuli/rescaled_final/1186_rv.mp4	0.0	173.04102039337158	1.0084967613220215
30	156.38175892829895	pulse	0	t		28.0	2.5	/experiments/Knapen_AOT/AOT_stimuli/rescaled_final/1186_rv.mp4	0.0	174.02472853660583	
30	156.40654754638672	movie	1		271	28.0	2.5	/experiments/Knapen_AOT/AOT_stimuli/rescaled_final/1186_rv.mp4	0.0	174.0495171546936	2.4920172691345215
30	157.9807209968567	pulse	1	t		28.0	2.5	/experiments/Knapen_AOT/AOT_stimuli/rescaled_final/1186_rv.mp4	0.0	175.62369060516357	
30	158.89856481552124	fix_post	2		12	28.0	2.5	/experiments/Knapen_AOT/AOT_stimuli/rescaled_final/1186_rv.mp4	0.0	176.54153442382812	0.09999847412109375
31	158.99856328964233	fix_pre	0		120	29.0	2.5	/experiments/Knapen_AOT/AOT_stimuli/rescaled_final/0034_rv.mp4	0.0	176.64153289794922	1.0084974765777588
31	159.58241271972656	pulse	0	t		29.0	2.5	/experiments/Knapen_AOT/AOT_stimuli/rescaled_final/0034_rv.mp4	0.0	177.22538232803345	
31	160.0070607662201	movie	1		273	29.0	2.5	/experiments/Knapen_AOT/AOT_stimuli/rescaled_final/0034_rv.mp4	0.0	177.65003037452698	2.4920318126678467
31	161.18125653266907	pulse	1	t		29.0	2.5	/experiments/Knapen_AOT/AOT_stimuli/rescaled_final/0034_rv.mp4	0.0	178.82422614097595	
31	162.49909257888794	fix_post	2		12	29.0	2.5	/experiments/Knapen_AOT/AOT_stimuli/rescaled_final/0034_rv.mp4	0.0	180.14206218719482	0.10000896453857422
32	162.5991015434265	fix_pre	0		120	30.0	2.5	/experiments/Knapen_AOT/AOT_stimuli/rescaled_final/0249_fw.mp4	0.0	180.2420711517334	1.0085136890411377
32	162.7826795578003	pulse	0	t		30.0	2.5	/experiments/Knapen_AOT/AOT_stimuli/rescaled_final/0249_fw.mp4	0.0	180.42564916610718	
32	163.60761523246765	movie	1		293	30.0	2.5	/experiments/Knapen_AOT/AOT_stimuli/rescaled_final/0249_fw.mp4	0.0	181.25058484077454	2.492008686065674
32	164.38098335266113	pulse	1	t		30.0	2.5	/experiments/Knapen_AOT/AOT_stimuli/rescaled_final/0249_fw.mp4	0.0	182.02395296096802	
32	165.98113369941711	pulse	1	t		30.0	2.5	/experiments/Knapen_AOT/AOT_stimuli/rescaled_final/0249_fw.mp4	0.0	183.624103307724	
32	166.09962391853333	fix_post	2		12	30.0	2.5	/experiments/Knapen_AOT/AOT_stimuli/rescaled_final/0249_fw.mp4	0.0	183.7425935268402	0.10002493858337402
33	166.1996488571167	fix_pre	0		120	31.0	2.5	/experiments/Knapen_AOT/AOT_stimuli/rescaled_final/1492_rv.mp4	0.0	183.84261846542358	1.00848388671875
33	167.20813274383545	movie	1		285	31.0	2.5	/experiments/Knapen_AOT/AOT_stimuli/rescaled_final/1492_rv.mp4	0.0	184.85110235214233	2.4920494556427
33	167.58178901672363	pulse	1	t		31.0	2.5	/experiments/Knapen_AOT/AOT_stimuli/rescaled_final/1492_rv.mp4	0.0	185.22475862503052	
33	169.18173670768738	pulse	1	t		31.0	2.5	/experiments/Knapen_AOT/AOT_stimuli/rescaled_final/1492_rv.mp4	0.0	186.82470631599426	
33	169.70018219947815	fix_post	2		12	31.0	2.5	/experiments/Knapen_AOT/AOT_stimuli/rescaled_final/1492_rv.mp4	0.0	187.34315180778503	0.10000920295715332
34	169.8001914024353	fix_pre	0		119	32.0	2.5	/experiments/Knapen_AOT/AOT_stimuli/rescaled_final/0329_fw.mp4	0.0	187.4431610107422	1.0002825260162354
34	170.78408789634705	pulse	0	t		32.0	2.5	/experiments/Knapen_AOT/AOT_stimuli/rescaled_final/0329_fw.mp4	0.0	188.42705750465393	
34	170.80047392845154	movie	1		281	32.0	2.5	/experiments/Knapen_AOT/AOT_stimuli/rescaled_final/0329_fw.mp4	0.0	188.44344353675842	2.5002331733703613
34	172.3824872970581	pulse	1	t		32.0	2.5	/experiments/Knapen_AOT/AOT_stimuli/rescaled_final/0329_fw.mp4	0.0	190.025456905365	
34	173.3007071018219	fix_post	2		12	32.0	2.5	/experiments/Knapen_AOT/AOT_stimuli/rescaled_final/0329_fw.mp4	0.0	190.94367671012878	0.1000208854675293
35	173.40072798728943	fix_pre	0		120	33.0	2.5	/experiments/Knapen_AOT/AOT_stimuli/rescaled_final/1495_fw.mp4	0.0	191.0436975955963	1.0084874629974365
35	173.9844663143158	pulse	0	t		33.0	2.5	/experiments/Knapen_AOT/AOT_stimuli/rescaled_final/1495_fw.mp4	0.0	191.62743592262268	
35	174.40921545028687	movie	1		288	33.0	2.5	/experiments/Knapen_AOT/AOT_stimuli/rescaled_final/1495_fw.mp4	0.0	192.05218505859375	2.4920613765716553
35	175.58488154411316	pulse	1	t		33.0	2.5	/experiments/Knapen_AOT/AOT_stimuli/rescaled_final/1495_fw.mp4	0.0	193.22785115242004	
35	176.90127682685852	fix_post	2		12	33.0	2.5	/experiments/Knapen_AOT/AOT_stimuli/rescaled_final/1495_fw.mp4	0.0	194.5442464351654	0.10001659393310547
36	177.00129342079163	fix_pre	0		120	34.0	2.5	/experiments/Knapen_AOT/AOT_stimuli/rescaled_final/1801_rv.mp4	0.0	194.6442630290985	1.0085103511810303
36	177.18483448028564	pulse	0	t		34.0	2.5	/experiments/Knapen_AOT/AOT_stimuli/rescaled_final/1801_rv.mp4	0.0	194.82780408859253	
36	178.00980377197266	movie	1		285	34.0	2.5	/experiments/Knapen_AOT/AOT_stimuli/rescaled_final/1801_rv.mp4	0.0	195.65277338027954	2.4919958114624023
36	178.7827970981598	pulse	1	t		34.0	2.5	/experiments/Knapen_AOT/AOT_stimuli/rescaled_final/1801_rv.mp4	0.0	196.42576670646667	
36	180.3832643032074	pulse	1	t		34.0	2.5	/experiments/Knapen_AOT/AOT_stimuli/rescaled_final/1801_rv.mp4	0.0	198.02623391151428	
36	180.50179958343506	fix_post	2		12	34.0	2.5	/experiments/Knapen_AOT/AOT_stimuli/rescaled_final/1801_rv.mp4	0.0	198.14476919174194	0.10001397132873535
37	180.6018135547638	fix_pre	0		120	35.0	2.5	blank	1.0	198.24478316307068	1.000192403793335
37	181.60200595855713	movie	1		300	35.0	2.5	blank	1.0	199.244975566864	2.5003180503845215
37	181.9856424331665	pulse	1	t		35.0	2.5	blank	1.0	199.6286120414734	
37	183.58583068847656	pulse	1	t		35.0	2.5	blank	1.0	201.22880029678345	
37	184.10232400894165	fix_post	2		12	35.0	2.5	blank	1.0	201.74529361724854	0.10001707077026367
38	184.2023410797119	fix_pre	0		119	36.0	2.5	/experiments/Knapen_AOT/AOT_stimuli/rescaled_final/1363_fw.mp4	0.0	201.8453106880188	1.0001423358917236
38	185.1861035823822	pulse	0	t		36.0	2.5	/experiments/Knapen_AOT/AOT_stimuli/rescaled_final/1363_fw.mp4	0.0	202.8290731906891	
38	185.20248341560364	movie	1		279	36.0	2.5	/experiments/Knapen_AOT/AOT_stimuli/rescaled_final/1363_fw.mp4	0.0	202.84545302391052	2.500396251678467
38	186.78535842895508	pulse	1	t		36.0	2.5	/experiments/Knapen_AOT/AOT_stimuli/rescaled_final/1363_fw.mp4	0.0	204.42832803726196	
38	187.7028796672821	fix_post	2		12	36.0	2.5	/experiments/Knapen_AOT/AOT_stimuli/rescaled_final/1363_fw.mp4	0.0	205.345849275589	0.10001659393310547
39	187.8028962612152	fix_pre	0		120	37.0	2.5	/experiments/Knapen_AOT/AOT_stimuli/rescaled_final/1571_fw.mp4	0.0	205.4458658695221	1.0084879398345947
39	188.38661932945251	pulse	0	t		37.0	2.5	/experiments/Knapen_AOT/AOT_stimuli/rescaled_final/1571_fw.mp4	0.0	206.0295889377594	
39	188.8113842010498	movie	1		283	37.0	2.5	/experiments/Knapen_AOT/AOT_stimuli/rescaled_final/1571_fw.mp4	0.0	206.4543538093567	2.4920363426208496
39	189.98498129844666	pulse	1	t		37.0	2.5	/experiments/Knapen_AOT/AOT_stimuli/rescaled_final/1571_fw.mp4	0.0	207.62795090675354	
39	191.30342054367065	fix_post	2		12	37.0	2.5	/experiments/Knapen_AOT/AOT_stimuli/rescaled_final/1571_fw.mp4	0.0	208.94639015197754	0.1000833511352539
40	191.4035038948059	fix_pre	0		120	38.0	2.5	/experiments/Knapen_AOT/AOT_stimuli/rescaled_final/0144_fw.mp4	0.0	209.0464735031128	1.0085415840148926
40	191.5791220664978	pulse	0	t		38.0	2.5	/experiments/Knapen_AOT/AOT_stimuli/rescaled_final/0144_fw.mp4	0.0	209.2220916748047	
40	192.4120454788208	movie	1		279	38.0	2.5	/experiments/Knapen_AOT/AOT_stimuli/rescaled_final/0144_fw.mp4	0.0	210.05501508712769	2.4919064044952393
40	193.1791477203369	pulse	1	t		38.0	2.5	/experiments/Knapen_AOT/AOT_stimuli/rescaled_final/0144_fw.mp4	0.0	210.8221173286438	
40	194.7791531085968	pulse	1	t		38.0	2.5	/experiments/Knapen_AOT/AOT_stimuli/rescaled_final/0144_fw.mp4	0.0	212.4221227169037	
40	194.90395188331604	fix_post	2		12	38.0	2.5	/experiments/Knapen_AOT/AOT_stimuli/rescaled_final/0144_fw.mp4	0.0	212.54692149162292	0.09999966621398926
41	195.00395154953003	fix_pre	0		120	39.0	2.5	/experiments/Knapen_AOT/AOT_stimuli/rescaled_final/0171_rv.mp4	0.0	212.6469211578369	1.0085556507110596
41	196.0125072002411	movie	1		278	39.0	2.5	/experiments/Knapen_AOT/AOT_stimuli/rescaled_final/0171_rv.mp4	0.0	213.65547680854797	2.4919986724853516
41	196.38790440559387	pulse	1	t		39.0	2.5	/experiments/Knapen_AOT/AOT_stimuli/rescaled_final/0171_rv.mp4	0.0	214.03087401390076	
41	197.97962737083435	pulse	1	t		39.0	2.5	/experiments/Knapen_AOT/AOT_stimuli/rescaled_final/0171_rv.mp4	0.0	215.62259697914124	
41	198.50450587272644	fix_post	2		12	39.0	2.5	/experiments/Knapen_AOT/AOT_stimuli/rescaled_final/0171_rv.mp4	0.0	216.14747548103333	0.10002303123474121
42	198.60452890396118	fix_pre	0		118	40.0	2.5	/experiments/Knapen_AOT/AOT_stimuli/rescaled_final/2035_fw.mp4	0.0	216.24749851226807	0.9917964935302734
42	199.5800108909607	pulse	0	t		40.0	2.5	/experiments/Knapen_AOT/AOT_stimuli/rescaled_final/2035_fw.mp4	0.0	217.22298049926758	
42	199.59632539749146	movie	1		275	40.0	2.5	/experiments/Knapen_AOT/AOT_stimuli/rescaled_final/2035_fw.mp4	0.0	217.23929500579834	2.500392198562622
42	201.1801462173462	pulse	1	t		40.0	2.5	/experiments/Knapen_AOT/AOT_stimuli/rescaled_final/2035_fw.mp4	0.0	218.82311582565308	
42	202.09671759605408	fix_post	2		12	40.0	2.5	/experiments/Knapen_AOT/AOT_stimuli/rescaled_final/2035_fw.mp4	0.0	219.73968720436096	0.1000063419342041
43	202.19672393798828	fix_pre	0		120	41.0	2.5	blank	1.0	219.83969354629517	1.0001442432403564
43	202.78042244911194	pulse	0	t		41.0	2.5	blank	1.0	220.42339205741882	
43	203.19686818122864	movie	1		300	41.0	2.5	blank	1.0	220.83983778953552	2.5003821849823
43	204.38066411018372	pulse	1	t		41.0	2.5	blank	1.0	222.0236337184906	
43	205.69725036621094	fix_post	2		12	41.0	2.5	blank	1.0	223.34021997451782	0.1000514030456543
44	205.7973017692566	fix_pre	0		120	42.0	2.5	/experiments/Knapen_AOT/AOT_stimuli/rescaled_final/0212_fw.mp4	0.0	223.44027137756348	1.0084919929504395
44	205.98083639144897	pulse	0	t		42.0	2.5	/experiments/Knapen_AOT/AOT_stimuli/rescaled_final/0212_fw.mp4	0.0	223.62380599975586	
44	206.80579376220703	movie	1		280	42.0	2.5	/experiments/Knapen_AOT/AOT_stimuli/rescaled_final/0212_fw.mp4	0.0	224.44876337051392	2.4921035766601562
44	207.57919812202454	pulse	1	t		42.0	2.5	/experiments/Knapen_AOT/AOT_stimuli/rescaled_final/0212_fw.mp4	0.0	225.22216773033142	
44	209.18135118484497	pulse	1	t		42.0	2.5	/experiments/Knapen_AOT/AOT_stimuli/rescaled_final/0212_fw.mp4	0.0	226.82432079315186	
44	209.2978973388672	fix_post	2		12	42.0	2.5	/experiments/Knapen_AOT/AOT_stimuli/rescaled_final/0212_fw.mp4	0.0	226.94086694717407	0.09994125366210938
45	209.3978385925293	fix_pre	0		120	43.0	2.5	/experiments/Knapen_AOT/AOT_stimuli/rescaled_final/0702_rv.mp4	0.0	227.04080820083618	1.0084898471832275
45	210.40632843971252	movie	1		284	43.0	2.5	/experiments/Knapen_AOT/AOT_stimuli/rescaled_final/0702_rv.mp4	0.0	228.0492980480194	2.4920027256011963
45	210.78013372421265	pulse	1	t		43.0	2.5	/experiments/Knapen_AOT/AOT_stimuli/rescaled_final/0702_rv.mp4	0.0	228.42310333251953	
45	212.37958312034607	pulse	1	t		43.0	2.5	/experiments/Knapen_AOT/AOT_stimuli/rescaled_final/0702_rv.mp4	0.0	230.02255272865295	
45	212.89833116531372	fix_post	2		12	43.0	2.5	/experiments/Knapen_AOT/AOT_stimuli/rescaled_final/0702_rv.mp4	0.0	230.5413007736206	0.1000356674194336
46	212.99836683273315	fix_pre	0		119	44.0	2.5	/experiments/Knapen_AOT/AOT_stimuli/rescaled_final/0114_fw.mp4	0.0	230.64133644104004	1.0002329349517822
46	213.9820785522461	pulse	0	t		44.0	2.5	/experiments/Knapen_AOT/AOT_stimuli/rescaled_final/0114_fw.mp4	0.0	231.62504816055298	
46	213.99859976768494	movie	1		290	44.0	2.5	/experiments/Knapen_AOT/AOT_stimuli/rescaled_final/0114_fw.mp4	0.0	231.64156937599182	2.5002548694610596
46	215.58097767829895	pulse	1	t		44.0	2.5	/experiments/Knapen_AOT/AOT_stimuli/rescaled_final/0114_fw.mp4	0.0	233.22394728660583	
46	216.498854637146	fix_post	2		12	44.0	2.5	/experiments/Knapen_AOT/AOT_stimuli/rescaled_final/0114_fw.mp4	0.0	234.14182424545288	0.10005688667297363
47	216.59891152381897	fix_pre	0		120	45.0	2.5	/experiments/Knapen_AOT/AOT_stimuli/rescaled_final/0212_fw.mp4	0.0	234.24188113212585	1.0085012912750244
47	217.18283677101135	pulse	0	t		45.0	2.5	/experiments/Knapen_AOT/AOT_stimuli/rescaled_final/0212_fw.mp4	0.0	234.82580637931824	
47	217.607412815094	movie	1		262	45.0	2.5	/experiments/Knapen_AOT/AOT_stimuli/rescaled_final/0212_fw.mp4	0.0	235.25038242340088	2.492041826248169
47	218.78097343444824	pulse	1	t		45.0	2.5	/experiments/Knapen_AOT/AOT_stimuli/rescaled_final/0212_fw.mp4	0.0	236.42394304275513	
47	220.09945464134216	fix_post	2		12	45.0	2.5	/experiments/Knapen_AOT/AOT_stimuli/rescaled_final/0212_fw.mp4	0.0	237.74242424964905	0.09996342658996582
48	220.19941806793213	fix_pre	0		120	46.0	2.5	/experiments/Knapen_AOT/AOT_stimuli/rescaled_final/1559_fw.mp4	0.0	237.842387676239	1.0085585117340088
48	220.38308882713318	pulse	0	t		46.0	2.5	/experiments/Knapen_AOT/AOT_stimuli/rescaled_final/1559_fw.mp4	0.0	238.02605843544006	
48	221.20797657966614	movie	1		282	46.0	2.5	/experiments/Knapen_AOT/AOT_stimuli/rescaled_final/1559_fw.mp4	0.0	238.85094618797302	2.492000102996826
48	221.98091292381287	pulse	1	t		46.0	2.5	/experiments/Knapen_AOT/AOT_stimuli/rescaled_final/1559_fw.mp4	0.0	239.62388253211975	
48	223.58148431777954	pulse	1	t		46.0	2.5	/experiments/Knapen_AOT/AOT_stimuli/rescaled_final/1559_fw.mp4	0.0	241.22445392608643	
48	223.69997668266296	fix_post	2		12	46.0	2.5	/experiments/Knapen_AOT/AOT_stimuli/rescaled_final/1559_fw.mp4	0.0	241.34294629096985	0.10000824928283691
49	223.7999849319458	fix_pre	0		120	47.0	2.5	blank	1.0	241.44295454025269	1.0001459121704102
49	224.8001308441162	movie	1		300	47.0	2.5	blank	1.0	242.4431004524231	2.50036883354187
49	225.18370032310486	pulse	1	t		47.0	2.5	blank	1.0	242.82666993141174	
49	226.78411483764648	pulse	1	t		47.0	2.5	blank	1.0	244.42708444595337	
49	227.30049967765808	fix_post	2		12	47.0	2.5	blank	1.0	244.94346928596497	0.10001230239868164
50	227.40051198005676	fix_pre	0		119	48.0	2.5	/experiments/Knapen_AOT/AOT_stimuli/rescaled_final/1453_fw.mp4	0.0	245.04348158836365	1.0001845359802246
50	228.38428950309753	pulse	0	t		48.0	2.5	/experiments/Knapen_AOT/AOT_stimuli/rescaled_final/1453_fw.mp4	0.0	246.02725911140442	
50	228.400696516037	movie	1		275	48.0	2.5	/experiments/Knapen_AOT/AOT_stimuli/rescaled_final/1453_fw.mp4	0.0	246.04366612434387	2.50034761428833
50	229.9829592704773	pulse	1	t		48.0	2.5	/experiments/Knapen_AOT/AOT_stimuli/rescaled_final/1453_fw.mp4	0.0	247.62592887878418	
50	230.90104413032532	fix_post	2		12	48.0	2.5	/experiments/Knapen_AOT/AOT_stimuli/rescaled_final/1453_fw.mp4	0.0	248.5440137386322	0.10005855560302734
51	231.00110268592834	fix_pre	0		120	49.0	2.5	/experiments/Knapen_AOT/AOT_stimuli/rescaled_final/1874_rv.mp4	0.0	248.64407229423523	1.0084190368652344
51	231.58470153808594	pulse	0	t		49.0	2.5	/experiments/Knapen_AOT/AOT_stimuli/rescaled_final/1874_rv.mp4	0.0	249.22767114639282	
51	232.00952172279358	movie	1		285	49.0	2.5	/experiments/Knapen_AOT/AOT_stimuli/rescaled_final/1874_rv.mp4	0.0	249.65249133110046	2.4920759201049805
51	233.182767868042	pulse	1	t		49.0	2.5	/experiments/Knapen_AOT/AOT_stimuli/rescaled_final/1874_rv.mp4	0.0	250.82573747634888	
51	234.50159764289856	fix_post	2		12	49.0	2.5	/experiments/Knapen_AOT/AOT_stimuli/rescaled_final/1874_rv.mp4	0.0	252.14456725120544	0.10001564025878906
52	234.60161328315735	fix_pre	0		120	50.0	2.5	/experiments/Knapen_AOT/AOT_stimuli/rescaled_final/0252_fw.mp4	0.0	252.24458289146423	1.0084877014160156
52	234.7851917743683	pulse	0	t		50.0	2.5	/experiments/Knapen_AOT/AOT_stimuli/rescaled_final/0252_fw.mp4	0.0	252.42816138267517	
52	235.61010098457336	movie	1		275	50.0	2.5	/experiments/Knapen_AOT/AOT_stimuli/rescaled_final/0252_fw.mp4	0.0	253.25307059288025	2.4920296669006348
52	236.3835575580597	pulse	1	t		50.0	2.5	/experiments/Knapen_AOT/AOT_stimuli/rescaled_final/0252_fw.mp4	0.0	254.02652716636658	
52	237.9834988117218	pulse	1	t		50.0	2.5	/experiments/Knapen_AOT/AOT_stimuli/rescaled_final/0252_fw.mp4	0.0	255.6264684200287	
52	238.102130651474	fix_post	2		12	50.0	2.5	/experiments/Knapen_AOT/AOT_stimuli/rescaled_final/0252_fw.mp4	0.0	255.74510025978088	0.1000213623046875
53	238.2021520137787	fix_pre	0		120	51.0	2.5	/experiments/Knapen_AOT/AOT_stimuli/rescaled_final/0144_rv.mp4	0.0	255.84512162208557	1.0085532665252686
53	239.21070528030396	movie	1		278	51.0	2.5	/experiments/Knapen_AOT/AOT_stimuli/rescaled_final/0144_rv.mp4	0.0	256.85367488861084	2.491976261138916
53	239.5843107700348	pulse	1	t		51.0	2.5	/experiments/Knapen_AOT/AOT_stimuli/rescaled_final/0144_rv.mp4	0.0	257.2272803783417	
53	241.18410468101501	pulse	1	t		51.0	2.5	/experiments/Knapen_AOT/AOT_stimuli/rescaled_final/0144_rv.mp4	0.0	258.8270742893219	
53	241.70268154144287	fix_post	2		12	51.0	2.5	/experiments/Knapen_AOT/AOT_stimuli/rescaled_final/0144_rv.mp4	0.0	259.34565114974976	0.10019326210021973
54	241.8028748035431	fix_pre	0		119	52.0	2.5	/experiments/Knapen_AOT/AOT_stimuli/rescaled_final/2126_rv.mp4	0.0	259.44584441185	0.9999678134918213
54	242.7864375114441	pulse	0	t		52.0	2.5	/experiments/Knapen_AOT/AOT_stimuli/rescaled_final/2126_rv.mp4	0.0	260.429407119751	
54	242.8028426170349	movie	1		284	52.0	2.5	/experiments/Knapen_AOT/AOT_stimuli/rescaled_final/2126_rv.mp4	0.0	260.4458122253418	2.50038480758667
54	244.3851432800293	pulse	1	t		52.0	2.5	/experiments/Knapen_AOT/AOT_stimuli/rescaled_final/2126_rv.mp4	0.0	262.0281128883362	
54	245.30322742462158	fix_post	2		12	52.0	2.5	/experiments/Knapen_AOT/AOT_stimuli/rescaled_final/2126_rv.mp4	0.0	262.94619703292847	0.10000300407409668
55	245.40323042869568	fix_pre	0		120	53.0	2.5	/experiments/Knapen_AOT/AOT_stimuli/rescaled_final/0259_fw.mp4	0.0	263.04620003700256	1.0085184574127197
55	245.9869945049286	pulse	0	t		53.0	2.5	/experiments/Knapen_AOT/AOT_stimuli/rescaled_final/0259_fw.mp4	0.0	263.6299641132355	
55	246.4117488861084	movie	1		293	53.0	2.5	/experiments/Knapen_AOT/AOT_stimuli/rescaled_final/0259_fw.mp4	0.0	264.0547184944153	2.492013454437256
55	247.58535432815552	pulse	1	t		53.0	2.5	/experiments/Knapen_AOT/AOT_stimuli/rescaled_final/0259_fw.mp4	0.0	265.2283239364624	
55	248.90376234054565	fix_post	2		12	53.0	2.5	/experiments/Knapen_AOT/AOT_stimuli/rescaled_final/0259_fw.mp4	0.0	266.54673194885254	0.09997439384460449
56	249.00373673439026	fix_pre	0		120	54.0	2.5	/experiments/Knapen_AOT/AOT_stimuli/rescaled_final/0704_fw.mp4	0.0	266.64670634269714	1.0085511207580566
56	249.17988538742065	pulse	0	t		54.0	2.5	/experiments/Knapen_AOT/AOT_stimuli/rescaled_final/0704_fw.mp4	0.0	266.82285499572754	
56	250.01228785514832	movie	1		290	54.0	2.5	/experiments/Knapen_AOT/AOT_stimuli/rescaled_final/0704_fw.mp4	0.0	267.6552574634552	2.4920148849487305
56	250.77933764457703	pulse	1	t		54.0	2.5	/experiments/Knapen_AOT/AOT_stimuli/rescaled_final/0704_fw.mp4	0.0	268.4223072528839	
56	252.37939524650574	pulse	1	t		54.0	2.5	/experiments/Knapen_AOT/AOT_stimuli/rescaled_final/0704_fw.mp4	0.0	270.0223648548126	
56	252.50430274009705	fix_post	2		12	54.0	2.5	/experiments/Knapen_AOT/AOT_stimuli/rescaled_final/0704_fw.mp4	0.0	270.14727234840393	0.10004782676696777
57	252.604350566864	fix_pre	0		120	55.0	2.5	/experiments/Knapen_AOT/AOT_stimuli/rescaled_final/1845_rv.mp4	0.0	270.2473201751709	1.0002679824829102
57	253.60461854934692	movie	1		293	55.0	2.5	/experiments/Knapen_AOT/AOT_stimuli/rescaled_final/1845_rv.mp4	0.0	271.2475881576538	2.5001943111419678
57	253.9796621799469	pulse	1	t		55.0	2.5	/experiments/Knapen_AOT/AOT_stimuli/rescaled_final/1845_rv.mp4	0.0	271.6226317882538	
57	255.57991909980774	pulse	1	t		55.0	2.5	/experiments/Knapen_AOT/AOT_stimuli/rescaled_final/1845_rv.mp4	0.0	273.2228887081146	
57	256.1048128604889	fix_post	2		12	55.0	2.5	/experiments/Knapen_AOT/AOT_stimuli/rescaled_final/1845_rv.mp4	0.0	273.7477824687958	0.10001134872436523
58	256.20482420921326	fix_pre	0		118	56.0	2.5	blank	1.0	273.84779381752014	0.9834778308868408
58	257.1802303791046	pulse	0	t		56.0	2.5	blank	1.0	274.8231999874115	
58	257.1883020401001	movie	1		301	56.0	2.5	blank	1.0	274.831271648407	2.5087480545043945
58	258.7804584503174	pulse	1	t		56.0	2.5	blank	1.0	276.42342805862427	
58	259.6970500946045	fix_post	2		12	56.0	2.5	blank	1.0	277.3400197029114	0.10005354881286621
59	259.79710364341736	fix_pre	0		120	57.0	2.5	/experiments/Knapen_AOT/AOT_stimuli/rescaled_final/0532_fw.mp4	0.0	277.44007325172424	1.0084764957427979
59	260.38072538375854	pulse	0	t		57.0	2.5	/experiments/Knapen_AOT/AOT_stimuli/rescaled_final/0532_fw.mp4	0.0	278.02369499206543	
59	260.80558013916016	movie	1		281	57.0	2.5	/experiments/Knapen_AOT/AOT_stimuli/rescaled_final/0532_fw.mp4	0.0	278.44854974746704	2.49200701713562
59	261.9809398651123	pulse	1	t		57.0	2.5	/experiments/Knapen_AOT/AOT_stimuli/rescaled_final/0532_fw.mp4	0.0	279.6239094734192	
59	263.2975871562958	fix_post	2		12	57.0	2.5	/experiments/Knapen_AOT/AOT_stimuli/rescaled_final/0532_fw.mp4	0.0	280.94055676460266	0.10001993179321289
60	263.397607088089	fix_pre	0		120	58.0	2.5	/experiments/Knapen_AOT/AOT_stimuli/rescaled_final/1783_fw.mp4	0.0	281.0405766963959	1.0085389614105225
60	263.5811576843262	pulse	0	t		58.0	2.5	/experiments/Knapen_AOT/AOT_stimuli/rescaled_final/1783_fw.mp4	0.0	281.22412729263306	
60	264.4061460494995	movie	1		281	58.0	2.5	/experiments/Knapen_AOT/AOT_stimuli/rescaled_final/1783_fw.mp4	0.0	282.0491156578064	2.492018938064575
60	265.18014430999756	pulse	1	t		58.0	2.5	/experiments/Knapen_AOT/AOT_stimuli/rescaled_final/1783_fw.mp4	0.0	282.82311391830444	
60	266.7800362110138	pulse	1	t		58.0	2.5	/experiments/Knapen_AOT/AOT_stimuli/rescaled_final/1783_fw.mp4	0.0	284.4230058193207	
60	266.8981649875641	fix_post	2		12	58.0	2.5	/experiments/Knapen_AOT/AOT_stimuli/rescaled_final/1783_fw.mp4	0.0	284.541134595871	0.1000068187713623
61	266.99817180633545	fix_pre	0		120	59.0	2.5	/experiments/Knapen_AOT/AOT_stimuli/rescaled_final/1996_rv.mp4	0.0	284.64114141464233	1.0085046291351318
61	268.0066764354706	movie	1		277	59.0	2.5	/experiments/Knapen_AOT/AOT_stimuli/rescaled_final/1996_rv.mp4	0.0	285.64964604377747	2.4920051097869873
61	268.3802833557129	pulse	1	t		59.0	2.5	/experiments/Knapen_AOT/AOT_stimuli/rescaled_final/1996_rv.mp4	0.0	286.0232529640198	
61	269.9799473285675	pulse	1	t		59.0	2.5	/experiments/Knapen_AOT/AOT_stimuli/rescaled_final/1996_rv.mp4	0.0	287.6229169368744	
61	270.49868154525757	fix_post	2		12	59.0	2.5	/experiments/Knapen_AOT/AOT_stimuli/rescaled_final/1996_rv.mp4	0.0	288.14165115356445	0.10001921653747559
62	270.59870076179504	fix_pre	0		119	60.0	2.5	/experiments/Knapen_AOT/AOT_stimuli/rescaled_final/0396_fw.mp4	0.0	288.24167037010193	1.0085878372192383
62	271.58256697654724	pulse	0	t		60.0	2.5	/experiments/Knapen_AOT/AOT_stimuli/rescaled_final/0396_fw.mp4	0.0	289.2255365848541	
62	271.6072885990143	movie	1		276	60.0	2.5	/experiments/Knapen_AOT/AOT_stimuli/rescaled_final/0396_fw.mp4	0.0	289.25025820732117	2.491926670074463
62	273.18165016174316	pulse	1	t		60.0	2.5	/experiments/Knapen_AOT/AOT_stimuli/rescaled_final/0396_fw.mp4	0.0	290.82461977005005	
62	274.09921526908875	fix_post	2		12	60.0	2.5	/experiments/Knapen_AOT/AOT_stimuli/rescaled_final/0396_fw.mp4	0.0	291.74218487739563	0.10002565383911133
63	274.19924092292786	fix_pre	0		120	61.0	2.5	/experiments/Knapen_AOT/AOT_stimuli/rescaled_final/0849_rv.mp4	0.0	291.84221053123474	1.008488655090332
63	274.78283762931824	pulse	0	t		61.0	2.5	/experiments/Knapen_AOT/AOT_stimuli/rescaled_final/0849_rv.mp4	0.0	292.4258072376251	
63	275.2077295780182	movie	1		288	61.0	2.5	/experiments/Knapen_AOT/AOT_stimuli/rescaled_final/0849_rv.mp4	0.0	292.8506991863251	2.4920337200164795
63	276.3813428878784	pulse	1	t		61.0	2.5	/experiments/Knapen_AOT/AOT_stimuli/rescaled_final/0849_rv.mp4	0.0	294.0243124961853	
63	277.69976329803467	fix_post	2		12	61.0	2.5	/experiments/Knapen_AOT/AOT_stimuli/rescaled_final/0849_rv.mp4	0.0	295.34273290634155	0.09998941421508789
64	277.79975271224976	fix_pre	0		120	62.0	2.5	blank	1.0	295.44272232055664	1.00016188621521
64	277.9833302497864	pulse	0	t		62.0	2.5	blank	1.0	295.62629985809326	
64	278.79991459846497	movie	1		300	62.0	2.5	blank	1.0	296.44288420677185	2.5003600120544434
64	279.5835087299347	pulse	1	t		62.0	2.5	blank	1.0	297.2264783382416	
64	281.18374133110046	pulse	1	t		62.0	2.5	blank	1.0	298.82671093940735	
64	281.3002746105194	fix_post	2		12	62.0	2.5	blank	1.0	298.9432442188263	0.10015439987182617
65	281.40042901039124	fix_pre	0		120	63.0	2.5	/experiments/Knapen_AOT/AOT_stimuli/rescaled_final/0301_rv.mp4	0.0	299.0433986186981	1.0083680152893066
65	282.40879702568054	movie	1		286	63.0	2.5	/experiments/Knapen_AOT/AOT_stimuli/rescaled_final/0301_rv.mp4	0.0	300.0517666339874	2.4920849800109863
65	282.7802975177765	pulse	1	t		63.0	2.5	/experiments/Knapen_AOT/AOT_stimuli/rescaled_final/0301_rv.mp4	0.0	300.4232671260834	
65	284.3826494216919	pulse	1	t		63.0	2.5	/experiments/Knapen_AOT/AOT_stimuli/rescaled_final/0301_rv.mp4	0.0	302.0256190299988	
65	284.9008820056915	fix_post	2		12	63.0	2.5	/experiments/Knapen_AOT/AOT_stimuli/rescaled_final/0301_rv.mp4	0.0	302.5438516139984	0.09996461868286133
66	285.0008466243744	fix_pre	0		119	64.0	2.5	/experiments/Knapen_AOT/AOT_stimuli/rescaled_final/1110_rv.mp4	0.0	302.6438162326813	1.0001294612884521
66	285.9846329689026	pulse	0	t		64.0	2.5	/experiments/Knapen_AOT/AOT_stimuli/rescaled_final/1110_rv.mp4	0.0	303.6276025772095	
66	286.00097608566284	movie	1		260	64.0	2.5	/experiments/Knapen_AOT/AOT_stimuli/rescaled_final/1110_rv.mp4	0.0	303.6439456939697	2.500444173812866
66	287.5833263397217	pulse	1	t		64.0	2.5	/experiments/Knapen_AOT/AOT_stimuli/rescaled_final/1110_rv.mp4	0.0	305.22629594802856	
66	288.5014202594757	fix_post	2		12	64.0	2.5	/experiments/Knapen_AOT/AOT_stimuli/rescaled_final/1110_rv.mp4	0.0	306.1443898677826	0.10008859634399414
67	288.6015088558197	fix_pre	0		120	65.0	2.5	/experiments/Knapen_AOT/AOT_stimuli/rescaled_final/1395_fw.mp4	0.0	306.2444784641266	1.0084125995635986
67	289.1852023601532	pulse	0	t		65.0	2.5	/experiments/Knapen_AOT/AOT_stimuli/rescaled_final/1395_fw.mp4	0.0	306.8281719684601	
67	289.6099214553833	movie	1		273	65.0	2.5	/experiments/Knapen_AOT/AOT_stimuli/rescaled_final/1395_fw.mp4	0.0	307.2528910636902	2.4920461177825928
67	290.78372526168823	pulse	1	t		65.0	2.5	/experiments/Knapen_AOT/AOT_stimuli/rescaled_final/1395_fw.mp4	0.0	308.4266948699951	
67	292.1019675731659	fix_post	2		12	65.0	2.5	/experiments/Knapen_AOT/AOT_stimuli/rescaled_final/1395_fw.mp4	0.0	309.7449371814728	0.09994888305664062
68	292.20191645622253	fix_pre	0		120	66.0	2.5	/experiments/Knapen_AOT/AOT_stimuli/rescaled_final/1314_fw.mp4	0.0	309.8448860645294	1.008528232574463
68	292.3857605457306	pulse	0	t		66.0	2.5	/experiments/Knapen_AOT/AOT_stimuli/rescaled_final/1314_fw.mp4	0.0	310.0287301540375	
68	293.210444688797	movie	1		276	66.0	2.5	/experiments/Knapen_AOT/AOT_stimuli/rescaled_final/1314_fw.mp4	0.0	310.8534142971039	2.492029905319214
68	293.98377084732056	pulse	1	t		66.0	2.5	/experiments/Knapen_AOT/AOT_stimuli/rescaled_final/1314_fw.mp4	0.0	311.62674045562744	
68	295.58425283432007	pulse	1	t		66.0	2.5	/experiments/Knapen_AOT/AOT_stimuli/rescaled_final/1314_fw.mp4	0.0	313.22722244262695	
68	295.7024745941162	fix_post	2		12	66.0	2.5	/experiments/Knapen_AOT/AOT_stimuli/rescaled_final/1314_fw.mp4	0.0	313.3454442024231	0.10001683235168457
69	295.8024914264679	fix_pre	0		120	67.0	2.5	/experiments/Knapen_AOT/AOT_stimuli/rescaled_final/0860_rv.mp4	0.0	313.4454610347748	1.0085687637329102
69	296.8110601902008	movie	1		278	67.0	2.5	/experiments/Knapen_AOT/AOT_stimuli/rescaled_final/0860_rv.mp4	0.0	314.4540297985077	2.491943836212158
69	297.18474316596985	pulse	1	t		67.0	2.5	/experiments/Knapen_AOT/AOT_stimuli/rescaled_final/0860_rv.mp4	0.0	314.82771277427673	
69	298.78453850746155	pulse	1	t		67.0	2.5	/experiments/Knapen_AOT/AOT_stimuli/rescaled_final/0860_rv.mp4	0.0	316.42750811576843	
69	299.30300402641296	fix_post	2		12	67.0	2.5	/experiments/Knapen_AOT/AOT_stimuli/rescaled_final/0860_rv.mp4	0.0	316.94597363471985	0.10015583038330078
70	299.40315985679626	fix_pre	0		119	68.0	2.5	/experiments/Knapen_AOT/AOT_stimuli/rescaled_final/0488_fw.mp4	0.0	317.04612946510315	0.9999878406524658
70	300.3790054321289	pulse	0	t		68.0	2.5	/experiments/Knapen_AOT/AOT_stimuli/rescaled_final/0488_fw.mp4	0.0	318.0219750404358	
70	300.40314769744873	movie	1		269	68.0	2.5	/experiments/Knapen_AOT/AOT_stimuli/rescaled_final/0488_fw.mp4	0.0	318.0461173057556	2.50046706199646
70	301.9789695739746	pulse	1	t		68.0	2.5	/experiments/Knapen_AOT/AOT_stimuli/rescaled_final/0488_fw.mp4	0.0	319.6219391822815	
70	302.9036147594452	fix_post	2		12	68.0	2.5	/experiments/Knapen_AOT/AOT_stimuli/rescaled_final/0488_fw.mp4	0.0	320.5465843677521	0.09995365142822266
71	303.0035684108734	fix_pre	0		120	69.0	2.5	/experiments/Knapen_AOT/AOT_stimuli/rescaled_final/1171_rv.mp4	0.0	320.6465380191803	1.0085103511810303
71	303.57899498939514	pulse	0	t		69.0	2.5	/experiments/Knapen_AOT/AOT_stimuli/rescaled_final/1171_rv.mp4	0.0	321.221964597702	
71	304.01207876205444	movie	1		279	69.0	2.5	/experiments/Knapen_AOT/AOT_stimuli/rescaled_final/1171_rv.mp4	0.0	321.6550483703613	2.4920578002929688
71	305.18784856796265	pulse	1	t		69.0	2.5	/experiments/Knapen_AOT/AOT_stimuli/rescaled_final/1171_rv.mp4	0.0	322.83081817626953	
71	306.5041365623474	fix_post	2		12	69.0	2.5	/experiments/Knapen_AOT/AOT_stimuli/rescaled_final/1171_rv.mp4	0.0	324.1471061706543	0.10003972053527832
72	306.6041762828827	fix_pre	0		120	70.0	2.5	blank	1.0	324.2471458911896	1.0001416206359863
72	306.7804536819458	pulse	0	t		70.0	2.5	blank	1.0	324.4234232902527	
72	307.6043179035187	movie	1		300	70.0	2.5	blank	1.0	325.24728751182556	2.500312089920044
72	308.3795876502991	pulse	1	t		70.0	2.5	blank	1.0	326.02255725860596	
72	309.97988748550415	pulse	1	t		70.0	2.5	blank	1.0	327.62285709381104	
72	310.1046299934387	fix_post	2		12	70.0	2.5	blank	1.0	327.7475996017456	0.10003423690795898
73	310.2046642303467	fix_pre	0		120	71.0	2.5	/experiments/Knapen_AOT/AOT_stimuli/rescaled_final/2046_rv.mp4	0.0	327.84763383865356	1.0084984302520752
73	311.21316266059875	movie	1		273	71.0	2.5	/experiments/Knapen_AOT/AOT_stimuli/rescaled_final/2046_rv.mp4	0.0	328.85613226890564	2.4920287132263184
73	311.57875323295593	pulse	1	t		71.0	2.5	/experiments/Knapen_AOT/AOT_stimuli/rescaled_final/2046_rv.mp4	0.0	329.2217228412628	
73	313.17988562583923	pulse	1	t		71.0	2.5	/experiments/Knapen_AOT/AOT_stimuli/rescaled_final/2046_rv.mp4	0.0	330.8228552341461	
73	313.7051913738251	fix_post	2		12	71.0	2.5	/experiments/Knapen_AOT/AOT_stimuli/rescaled_final/2046_rv.mp4	0.0	331.34816098213196	0.10000824928283691
74	313.8051996231079	fix_pre	0		118	72.0	2.5	/experiments/Knapen_AOT/AOT_stimuli/rescaled_final/1337_fw.mp4	0.0	331.4481692314148	0.9918961524963379
74	314.7806348800659	pulse	0	t		72.0	2.5	/experiments/Knapen_AOT/AOT_stimuli/rescaled_final/1337_fw.mp4	0.0	332.4236044883728	
74	314.79709577560425	movie	1		269	72.0	2.5	/experiments/Knapen_AOT/AOT_stimuli/rescaled_final/1337_fw.mp4	0.0	332.44006538391113	2.5003347396850586
74	316.3796579837799	pulse	1	t		72.0	2.5	/experiments/Knapen_AOT/AOT_stimuli/rescaled_final/1337_fw.mp4	0.0	334.0226275920868	
74	317.2974305152893	fix_post	2		12	72.0	2.5	/experiments/Knapen_AOT/AOT_stimuli/rescaled_final/1337_fw.mp4	0.0	334.9404001235962	0.10003066062927246
75	317.3974611759186	fix_pre	0		120	73.0	2.5	/experiments/Knapen_AOT/AOT_stimuli/rescaled_final/1871_fw.mp4	0.0	335.04043078422546	1.008453130722046
75	317.9811227321625	pulse	0	t		73.0	2.5	/experiments/Knapen_AOT/AOT_stimuli/rescaled_final/1871_fw.mp4	0.0	335.62409234046936	
75	318.4059143066406	movie	1		277	73.0	2.5	/experiments/Knapen_AOT/AOT_stimuli/rescaled_final/1871_fw.mp4	0.0	336.0488839149475	2.4919891357421875
75	319.5797472000122	pulse	1	t		73.0	2.5	/experiments/Knapen_AOT/AOT_stimuli/rescaled_final/1871_fw.mp4	0.0	337.2227168083191	
75	320.8979034423828	fix_post	2		12	73.0	2.5	/experiments/Knapen_AOT/AOT_stimuli/rescaled_final/1871_fw.mp4	0.0	338.5408730506897	0.10007667541503906
76	320.99798011779785	fix_pre	0		120	74.0	2.5	/experiments/Knapen_AOT/AOT_stimuli/rescaled_final/0259_rv.mp4	0.0	338.64094972610474	1.008530616760254
76	321.1815595626831	pulse	0	t		74.0	2.5	/experiments/Knapen_AOT/AOT_stimuli/rescaled_final/0259_rv.mp4	0.0	338.82452917099	
76	322.0065107345581	movie	1		277	74.0	2.5	/experiments/Knapen_AOT/AOT_stimuli/rescaled_final/0259_rv.mp4	0.0	339.649480342865	2.4919776916503906
76	322.77970814704895	pulse	1	t		74.0	2.5	/experiments/Knapen_AOT/AOT_stimuli/rescaled_final/0259_rv.mp4	0.0	340.42267775535583	
76	324.3821020126343	pulse	1	t		74.0	2.5	/experiments/Knapen_AOT/AOT_stimuli/rescaled_final/0259_rv.mp4	0.0	342.02507162094116	
76	324.4984884262085	fix_post	2		12	74.0	2.5	/experiments/Knapen_AOT/AOT_stimuli/rescaled_final/0259_rv.mp4	0.0	342.1414580345154	0.10002946853637695
77	324.5985178947449	fix_pre	0		120	75.0	2.5	/experiments/Knapen_AOT/AOT_stimuli/rescaled_final/1901_fw.mp4	0.0	342.24148750305176	1.0084552764892578
77	325.60697317123413	movie	1		285	75.0	2.5	/experiments/Knapen_AOT/AOT_stimuli/rescaled_final/1901_fw.mp4	0.0	343.249942779541	2.4920268058776855
77	325.98111152648926	pulse	1	t		75.0	2.5	/experiments/Knapen_AOT/AOT_stimuli/rescaled_final/1901_fw.mp4	0.0	343.62408113479614	
77	327.5811367034912	pulse	1	t		75.0	2.5	/experiments/Knapen_AOT/AOT_stimuli/rescaled_final/1901_fw.mp4	0.0	345.2241063117981	
77	328.0989999771118	fix_post	2		12	75.0	2.5	/experiments/Knapen_AOT/AOT_stimuli/rescaled_final/1901_fw.mp4	0.0	345.7419695854187	0.10002589225769043
78	328.1990258693695	fix_pre	0		119	76.0	2.5	/experiments/Knapen_AOT/AOT_stimuli/rescaled_final/0249_fw.mp4	0.0	345.8419954776764	1.0001554489135742
78	329.18282437324524	pulse	0	t		76.0	2.5	/experiments/Knapen_AOT/AOT_stimuli/rescaled_final/0249_fw.mp4	0.0	346.8257939815521	
78	329.1991813182831	movie	1		279	76.0	2.5	/experiments/Knapen_AOT/AOT_stimuli/rescaled_final/0249_fw.mp4	0.0	346.84215092658997	2.500464677810669
78	330.78160071372986	pulse	1	t		76.0	2.5	/experiments/Knapen_AOT/AOT_stimuli/rescaled_final/0249_fw.mp4	0.0	348.42457032203674	
78	331.69964599609375	fix_post	2		12	76.0	2.5	/experiments/Knapen_AOT/AOT_stimuli/rescaled_final/0249_fw.mp4	0.0	349.34261560440063	0.09995770454406738
79	331.7996037006378	fix_pre	0		120	77.0	2.5	blank	1.0	349.4425733089447	1.0001249313354492
79	332.38337445259094	pulse	0	t		77.0	2.5	blank	1.0	350.0263440608978	
79	332.79972863197327	movie	1		300	77.0	2.5	blank	1.0	350.44269824028015	2.50036883354187
79	333.98345041275024	pulse	1	t		77.0	2.5	blank	1.0	351.62642002105713	
79	335.30009746551514	fix_post	2		12	77.0	2.5	blank	1.0	352.943067073822	0.10004067420959473
80	335.40013813972473	fix_pre	0		120	78.0	2.5	/experiments/Knapen_AOT/AOT_stimuli/rescaled_final/1091_fw.mp4	0.0	353.0431077480316	1.008568525314331
80	335.5837433338165	pulse	0	t		78.0	2.5	/experiments/Knapen_AOT/AOT_stimuli/rescaled_final/1091_fw.mp4	0.0	353.2267129421234	
80	336.40870666503906	movie	1		262	78.0	2.5	/experiments/Knapen_AOT/AOT_stimuli/rescaled_final/1091_fw.mp4	0.0	354.05167627334595	2.491968870162964
80	337.18248414993286	pulse	1	t		78.0	2.5	/experiments/Knapen_AOT/AOT_stimuli/rescaled_final/1091_fw.mp4	0.0	354.82545375823975	
80	338.782310962677	pulse	1	t		78.0	2.5	/experiments/Knapen_AOT/AOT_stimuli/rescaled_final/1091_fw.mp4	0.0	356.4252805709839	
80	338.900675535202	fix_post	2		12	78.0	2.5	/experiments/Knapen_AOT/AOT_stimuli/rescaled_final/1091_fw.mp4	0.0	356.5436451435089	0.10015535354614258
81	339.00083088874817	fix_pre	0		120	79.0	2.5	/experiments/Knapen_AOT/AOT_stimuli/rescaled_final/1685_rv.mp4	0.0	356.64380049705505	1.0084047317504883
81	340.00923562049866	movie	1		267	79.0	2.5	/experiments/Knapen_AOT/AOT_stimuli/rescaled_final/1685_rv.mp4	0.0	357.65220522880554	2.4919331073760986
81	340.3847963809967	pulse	1	t		79.0	2.5	/experiments/Knapen_AOT/AOT_stimuli/rescaled_final/1685_rv.mp4	0.0	358.0277659893036	
81	341.9848051071167	pulse	1	t		79.0	2.5	/experiments/Knapen_AOT/AOT_stimuli/rescaled_final/1685_rv.mp4	0.0	359.6277747154236	
81	342.50116872787476	fix_post	2		12	79.0	2.5	/experiments/Knapen_AOT/AOT_stimuli/rescaled_final/1685_rv.mp4	0.0	360.14413833618164	0.10003423690795898
82	342.6012029647827	fix_pre	0		119	80.0	2.5	/experiments/Knapen_AOT/AOT_stimuli/rescaled_final/0674_rv.mp4	0.0	360.2441725730896	1.000117540359497
82	343.58498215675354	pulse	0	t		80.0	2.5	/experiments/Knapen_AOT/AOT_stimuli/rescaled_final/0674_rv.mp4	0.0	361.2279517650604	
82	343.6013205051422	movie	1		253	80.0	2.5	/experiments/Knapen_AOT/AOT_stimuli/rescaled_final/0674_rv.mp4	0.0	361.2442901134491	2.5004422664642334
82	345.18382453918457	pulse	1	t		80.0	2.5	/experiments/Knapen_AOT/AOT_stimuli/rescaled_final/0674_rv.mp4	0.0	362.82679414749146	
82	346.10176277160645	fix_post	2		12	80.0	2.5	/experiments/Knapen_AOT/AOT_stimuli/rescaled_final/0674_rv.mp4	0.0	363.74473237991333	0.10005974769592285
83	346.20182251930237	fix_pre	0		120	81.0	2.5	/experiments/Knapen_AOT/AOT_stimuli/rescaled_final/1302_fw.mp4	0.0	363.84479212760925	1.0084092617034912
83	346.78559923171997	pulse	0	t		81.0	2.5	/experiments/Knapen_AOT/AOT_stimuli/rescaled_final/1302_fw.mp4	0.0	364.42856884002686	
83	347.21023178100586	movie	1		264	81.0	2.5	/experiments/Knapen_AOT/AOT_stimuli/rescaled_final/1302_fw.mp4	0.0	364.85320138931274	2.492015838623047
83	348.38425040245056	pulse	1	t		81.0	2.5	/experiments/Knapen_AOT/AOT_stimuli/rescaled_final/1302_fw.mp4	0.0	366.02722001075745	
83	349.7022476196289	fix_post	2		12	81.0	2.5	/experiments/Knapen_AOT/AOT_stimuli/rescaled_final/1302_fw.mp4	0.0	367.3452172279358	0.10002899169921875
84	349.8022766113281	fix_pre	0		120	82.0	2.5	/experiments/Knapen_AOT/AOT_stimuli/rescaled_final/0757_fw.mp4	0.0	367.445246219635	1.0085537433624268
84	349.98598432540894	pulse	0	t		82.0	2.5	/experiments/Knapen_AOT/AOT_stimuli/rescaled_final/0757_fw.mp4	0.0	367.6289539337158	
84	350.81083035469055	movie	1		273	82.0	2.5	/experiments/Knapen_AOT/AOT_stimuli/rescaled_final/0757_fw.mp4	0.0	368.45379996299744	2.492021083831787
84	351.5842046737671	pulse	1	t		82.0	2.5	/experiments/Knapen_AOT/AOT_stimuli/rescaled_final/0757_fw.mp4	0.0	369.227174282074	
84	353.1846604347229	pulse	1	t		82.0	2.5	/experiments/Knapen_AOT/AOT_stimuli/rescaled_final/0757_fw.mp4	0.0	370.8276300430298	
84	353.30285143852234	fix_post	2		12	82.0	2.5	/experiments/Knapen_AOT/AOT_stimuli/rescaled_final/0757_fw.mp4	0.0	370.9458210468292	0.10008716583251953
85	353.40293860435486	fix_pre	0		120	83.0	2.5	blank	1.0	371.04590821266174	1.000030755996704
85	354.40296936035156	movie	1		300	83.0	2.5	blank	1.0	372.04593896865845	2.500384569168091
85	354.78665828704834	pulse	1	t		83.0	2.5	blank	1.0	372.4296278953552	
85	356.38011288642883	pulse	1	t		83.0	2.5	blank	1.0	374.0230824947357	
85	356.90335392951965	fix_post	2		12	83.0	2.5	blank	1.0	374.54632353782654	0.10003018379211426
87	357.00338411331177	stim	0		1716					374.64635372161865	14.302143812179565
87	357.9795808792114	pulse	0	t						375.6225504875183	
87	359.5793037414551	pulse	0	t						377.22227334976196	
87	361.1792850494385	pulse	0	t						378.82225465774536	
87	362.7795407772064	pulse	0	t						380.4225103855133	
87	364.38008213043213	pulse	0	t						382.023051738739	
87	365.9799265861511	pulse	0	t						383.622896194458	
87	367.58019042015076	pulse	0	t						385.22316002845764	
87	369.18044209480286	pulse	0	t						386.82341170310974	
87	370.78072142601013	pulse	0	t						388.423691034317	
