trial_nr	onset	event_type	phase	response	nr_frames	movie_index	movie_duration	movie_file	blank	onset_abs	duration
0	0.1081690788269043	stim	0		75298					69.39860510826111	627.5549340248108
0	627.6405940055847	response	0	space						696.9310300350189	
1	627.6631031036377	stim	0		5303					696.9535391330719	44.191827058792114
1	671.8507280349731	pulse	0	t						741.1411640644073	
1	671.8549301624298	stim	1		1717					741.145366191864	14.30833101272583
1	673.4467439651489	pulse	1	t						742.7371799945831	
1	675.0467929840088	pulse	1	t						744.337229013443	
1	676.6468751430511	pulse	1	t						745.9373111724854	
1	678.2466940879822	pulse	1	t						747.5371301174164	
1	679.846773147583	pulse	1	t						749.1372091770172	
1	681.4467270374298	pulse	1	t						750.737163066864	
1	683.0467910766602	pulse	1	t						752.3372271060944	
1	684.6466710567474	pulse	1	t						753.9371070861816	
2	686.1632611751556	fix_pre	0		11	0.0	2.5	/experiments/AOT/AOT_stimuli/rescaled_final/1413_rv.mp4	0.0	755.4536972045898	0.09964895248413086
2	686.2469050884247	pulse	0	t		0.0	2.5	/experiments/AOT/AOT_stimuli/rescaled_final/1413_rv.mp4	0.0	755.5373411178589	
2	686.2629101276398	movie	1		241	0.0	2.5	/experiments/AOT/AOT_stimuli/rescaled_final/1413_rv.mp4	0.0	755.553346157074	2.5003268718719482
2	687.8463170528412	pulse	1	t		0.0	2.5	/experiments/AOT/AOT_stimuli/rescaled_final/1413_rv.mp4	0.0	757.1367530822754	
2	688.7632369995117	fix_post	2		12	0.0	2.5	/experiments/AOT/AOT_stimuli/rescaled_final/1413_rv.mp4	0.0	758.0536730289459	0.100006103515625
3	688.8632431030273	fix_pre	0		120	1.0	2.5	/experiments/AOT/AOT_stimuli/rescaled_final/0184_rv.mp4	0.0	758.1536791324615	1.000035047531128
3	689.4468469619751	pulse	0	t		1.0	2.5	/experiments/AOT/AOT_stimuli/rescaled_final/0184_rv.mp4	0.0	758.7372829914093	
3	689.8632781505585	movie	1		244	1.0	2.5	/experiments/AOT/AOT_stimuli/rescaled_final/0184_rv.mp4	0.0	759.1537141799927	2.4999639987945557
3	691.0468440055847	pulse	1	t		1.0	2.5	/experiments/AOT/AOT_stimuli/rescaled_final/0184_rv.mp4	0.0	760.3372800350189	
3	692.363242149353	fix_post	2		12	1.0	2.5	/experiments/AOT/AOT_stimuli/rescaled_final/0184_rv.mp4	0.0	761.6536781787872	0.09997892379760742
4	692.4632210731506	fix_pre	0		120	2.0	2.5	/experiments/AOT/AOT_stimuli/rescaled_final/0864_rv.mp4	0.0	761.7536571025848	1.000195026397705
4	692.6467361450195	pulse	0	t		2.0	2.5	/experiments/AOT/AOT_stimuli/rescaled_final/0864_rv.mp4	0.0	761.9371721744537	
4	693.4634160995483	movie	1		244	2.0	2.5	/experiments/AOT/AOT_stimuli/rescaled_final/0864_rv.mp4	0.0	762.7538521289825	2.4998819828033447
4	694.2466790676117	pulse	1	t		2.0	2.5	/experiments/AOT/AOT_stimuli/rescaled_final/0864_rv.mp4	0.0	763.5371150970459	
4	695.8453640937805	pulse	1	t		2.0	2.5	/experiments/AOT/AOT_stimuli/rescaled_final/0864_rv.mp4	0.0	765.1358001232147	
4	695.9632980823517	fix_post	2		12	2.0	2.5	/experiments/AOT/AOT_stimuli/rescaled_final/0864_rv.mp4	0.0	765.2537341117859	0.09999394416809082
5	696.0632920265198	fix_pre	0		120	3.0	2.5	/experiments/AOT/AOT_stimuli/rescaled_final/0419_fw.mp4	0.0	765.353728055954	1.0000410079956055
5	697.0633330345154	movie	1		244	3.0	2.5	/experiments/AOT/AOT_stimuli/rescaled_final/0419_fw.mp4	0.0	766.3537690639496	2.5000879764556885
5	697.446298122406	pulse	1	t		3.0	2.5	/experiments/AOT/AOT_stimuli/rescaled_final/0419_fw.mp4	0.0	766.7367341518402	
5	699.0467321872711	pulse	1	t		3.0	2.5	/experiments/AOT/AOT_stimuli/rescaled_final/0419_fw.mp4	0.0	768.3371682167053	
5	699.5634210109711	fix_post	2		12	3.0	2.5	/experiments/AOT/AOT_stimuli/rescaled_final/0419_fw.mp4	0.0	768.8538570404053	0.09987401962280273
6	699.6632950305939	fix_pre	0		119	4.0	2.5	/experiments/AOT/AOT_stimuli/rescaled_final/1282_rv.mp4	0.0	768.9537310600281	0.9916830062866211
6	700.6469230651855	pulse	0	t		4.0	2.5	/experiments/AOT/AOT_stimuli/rescaled_final/1282_rv.mp4	0.0	769.9373590946198	
6	700.6549780368805	movie	1		243	4.0	2.5	/experiments/AOT/AOT_stimuli/rescaled_final/1282_rv.mp4	0.0	769.9454140663147	2.507875919342041
6	702.2463021278381	pulse	1	t		4.0	2.5	/experiments/AOT/AOT_stimuli/rescaled_final/1282_rv.mp4	0.0	771.5367381572723	
6	703.1628539562225	fix_post	2		12	4.0	2.5	/experiments/AOT/AOT_stimuli/rescaled_final/1282_rv.mp4	0.0	772.4532899856567	0.10039520263671875
7	703.2632491588593	fix_pre	0		120	5.0	2.5	blank	1.0	772.5536851882935	1.000135898590088
7	703.8468050956726	pulse	0	t		5.0	2.5	blank	1.0	773.1372411251068	
7	704.2633850574493	movie	1		300	5.0	2.5	blank	1.0	773.5538210868835	2.499898910522461
7	705.4468421936035	pulse	1	t		5.0	2.5	blank	1.0	774.7372782230377	
7	706.7632839679718	fix_post	2		12	5.0	2.5	blank	1.0	776.053719997406	0.10000300407409668
8	706.8632869720459	fix_pre	0		120	6.0	2.5	/experiments/AOT/AOT_stimuli/rescaled_final/0379_rv.mp4	0.0	776.1537230014801	1.000054121017456
8	707.0467600822449	pulse	0	t		6.0	2.5	/experiments/AOT/AOT_stimuli/rescaled_final/0379_rv.mp4	0.0	776.3371961116791	
8	707.8633410930634	movie	1		242	6.0	2.5	/experiments/AOT/AOT_stimuli/rescaled_final/0379_rv.mp4	0.0	777.1537771224976	2.5000269412994385
8	708.6467499732971	pulse	1	t		6.0	2.5	/experiments/AOT/AOT_stimuli/rescaled_final/0379_rv.mp4	0.0	777.9371860027313	
8	710.2452299594879	pulse	1	t		6.0	2.5	/experiments/AOT/AOT_stimuli/rescaled_final/0379_rv.mp4	0.0	779.5356659889221	
8	710.3633680343628	fix_post	2		12	6.0	2.5	/experiments/AOT/AOT_stimuli/rescaled_final/0379_rv.mp4	0.0	779.653804063797	0.09998512268066406
9	710.4633531570435	fix_pre	0		120	7.0	2.5	/experiments/AOT/AOT_stimuli/rescaled_final/1226_rv.mp4	0.0	779.7537891864777	0.9998998641967773
9	711.4632530212402	movie	1		244	7.0	2.5	/experiments/AOT/AOT_stimuli/rescaled_final/1226_rv.mp4	0.0	780.7536890506744	2.5000691413879395
9	711.8464579582214	pulse	1	t		7.0	2.5	/experiments/AOT/AOT_stimuli/rescaled_final/1226_rv.mp4	0.0	781.1368939876556	
9	713.4468190670013	pulse	1	t		7.0	2.5	/experiments/AOT/AOT_stimuli/rescaled_final/1226_rv.mp4	0.0	782.7372550964355	
9	713.9633221626282	fix_post	2		12	7.0	2.5	/experiments/AOT/AOT_stimuli/rescaled_final/1226_rv.mp4	0.0	783.2537581920624	0.10007882118225098
10	714.0634009838104	fix_pre	0		119	8.0	2.5	/experiments/AOT/AOT_stimuli/rescaled_final/0460_rv.mp4	0.0	783.3538370132446	0.9914801120758057
10	715.0467929840088	pulse	0	t		8.0	2.5	/experiments/AOT/AOT_stimuli/rescaled_final/0460_rv.mp4	0.0	784.337229013443	
10	715.0548810958862	movie	1		243	8.0	2.5	/experiments/AOT/AOT_stimuli/rescaled_final/0460_rv.mp4	0.0	784.3453171253204	2.5078999996185303
10	716.6463651657104	pulse	1	t		8.0	2.5	/experiments/AOT/AOT_stimuli/rescaled_final/0460_rv.mp4	0.0	785.9368011951447	
10	717.5627810955048	fix_post	2		12	8.0	2.5	/experiments/AOT/AOT_stimuli/rescaled_final/0460_rv.mp4	0.0	786.853217124939	0.1005239486694336
11	717.6633050441742	fix_pre	0		120	9.0	2.5	/experiments/AOT/AOT_stimuli/rescaled_final/0240_fw.mp4	0.0	786.9537410736084	0.9999229907989502
11	718.246798992157	pulse	0	t		9.0	2.5	/experiments/AOT/AOT_stimuli/rescaled_final/0240_fw.mp4	0.0	787.5372350215912	
11	718.6632280349731	movie	1		245	9.0	2.5	/experiments/AOT/AOT_stimuli/rescaled_final/0240_fw.mp4	0.0	787.9536640644073	2.500035047531128
11	719.8468961715698	pulse	1	t		9.0	2.5	/experiments/AOT/AOT_stimuli/rescaled_final/0240_fw.mp4	0.0	789.137332201004	
11	721.1632630825043	fix_post	2		12	9.0	2.5	/experiments/AOT/AOT_stimuli/rescaled_final/0240_fw.mp4	0.0	790.4536991119385	0.09995508193969727
12	721.263218164444	fix_pre	0		120	10.0	2.5	/experiments/AOT/AOT_stimuli/rescaled_final/2157_rv.mp4	0.0	790.5536541938782	1.0000619888305664
12	721.4469139575958	pulse	0	t		10.0	2.5	/experiments/AOT/AOT_stimuli/rescaled_final/2157_rv.mp4	0.0	790.73734998703	
12	722.2632801532745	movie	1		242	10.0	2.5	/experiments/AOT/AOT_stimuli/rescaled_final/2157_rv.mp4	0.0	791.5537161827087	2.4999818801879883
12	723.0467391014099	pulse	1	t		10.0	2.5	/experiments/AOT/AOT_stimuli/rescaled_final/2157_rv.mp4	0.0	792.3371751308441	
12	724.6451141834259	pulse	1	t		10.0	2.5	/experiments/AOT/AOT_stimuli/rescaled_final/2157_rv.mp4	0.0	793.9355502128601	
12	724.7632620334625	fix_post	2		12	10.0	2.5	/experiments/AOT/AOT_stimuli/rescaled_final/2157_rv.mp4	0.0	794.0536980628967	0.09997200965881348
13	724.8632340431213	fix_pre	0		120	11.0	2.5	/experiments/AOT/AOT_stimuli/rescaled_final/0857_rv.mp4	0.0	794.1536700725555	1.000049114227295
13	725.8632831573486	movie	1		242	11.0	2.5	/experiments/AOT/AOT_stimuli/rescaled_final/0857_rv.mp4	0.0	795.1537191867828	2.4999468326568604
13	726.2464761734009	pulse	1	t		11.0	2.5	/experiments/AOT/AOT_stimuli/rescaled_final/0857_rv.mp4	0.0	795.5369122028351	
13	727.8467559814453	pulse	1	t		11.0	2.5	/experiments/AOT/AOT_stimuli/rescaled_final/0857_rv.mp4	0.0	797.1371920108795	
13	728.3632299900055	fix_post	2		12	11.0	2.5	/experiments/AOT/AOT_stimuli/rescaled_final/0857_rv.mp4	0.0	797.6536660194397	0.09995698928833008
14	728.4631869792938	fix_pre	0		119	12.0	2.5	blank	1.0	797.753623008728	0.9917721748352051
14	729.4468071460724	pulse	0	t		12.0	2.5	blank	1.0	798.7372431755066	
14	729.454959154129	movie	1		301	12.0	2.5	blank	1.0	798.7453951835632	2.5082788467407227
14	731.0467751026154	pulse	1	t		12.0	2.5	blank	1.0	800.3372111320496	
14	731.9632380008698	fix_post	2		12	12.0	2.5	blank	1.0	801.253674030304	0.10003519058227539
15	732.063273191452	fix_pre	0		120	13.0	2.5	/experiments/AOT/AOT_stimuli/rescaled_final/0770_fw.mp4	0.0	801.3537092208862	0.9999439716339111
15	732.6467831134796	pulse	0	t		13.0	2.5	/experiments/AOT/AOT_stimuli/rescaled_final/0770_fw.mp4	0.0	801.9372191429138	
15	733.0632171630859	movie	1		244	13.0	2.5	/experiments/AOT/AOT_stimuli/rescaled_final/0770_fw.mp4	0.0	802.3536531925201	2.4999608993530273
15	734.246778011322	pulse	1	t		13.0	2.5	/experiments/AOT/AOT_stimuli/rescaled_final/0770_fw.mp4	0.0	803.5372140407562	
15	735.563178062439	fix_post	2		12	13.0	2.5	/experiments/AOT/AOT_stimuli/rescaled_final/0770_fw.mp4	0.0	804.8536140918732	0.1000819206237793
16	735.6632599830627	fix_pre	0		120	14.0	2.5	/experiments/AOT/AOT_stimuli/rescaled_final/0046_rv.mp4	0.0	804.953696012497	1.000007152557373
16	735.8468461036682	pulse	0	t		14.0	2.5	/experiments/AOT/AOT_stimuli/rescaled_final/0046_rv.mp4	0.0	805.1372821331024	
16	736.6632671356201	movie	1		245	14.0	2.5	/experiments/AOT/AOT_stimuli/rescaled_final/0046_rv.mp4	0.0	805.9537031650543	2.5000879764556885
16	737.4462690353394	pulse	1	t		14.0	2.5	/experiments/AOT/AOT_stimuli/rescaled_final/0046_rv.mp4	0.0	806.7367050647736	
16	739.0448820590973	pulse	1	t		14.0	2.5	/experiments/AOT/AOT_stimuli/rescaled_final/0046_rv.mp4	0.0	808.3353180885315	
16	739.1633551120758	fix_post	2		12	14.0	2.5	/experiments/AOT/AOT_stimuli/rescaled_final/0046_rv.mp4	0.0	808.45379114151	0.10006999969482422
17	739.2634251117706	fix_pre	0		120	15.0	2.5	/experiments/AOT/AOT_stimuli/rescaled_final/1021_rv.mp4	0.0	808.5538611412048	0.9997799396514893
17	740.2632050514221	movie	1		244	15.0	2.5	/experiments/AOT/AOT_stimuli/rescaled_final/1021_rv.mp4	0.0	809.5536410808563	2.4995269775390625
17	740.6461570262909	pulse	1	t		15.0	2.5	/experiments/AOT/AOT_stimuli/rescaled_final/1021_rv.mp4	0.0	809.9365930557251	
17	742.2466089725494	pulse	1	t		15.0	2.5	/experiments/AOT/AOT_stimuli/rescaled_final/1021_rv.mp4	0.0	811.5370450019836	
17	742.7627320289612	fix_post	2		12	15.0	2.5	/experiments/AOT/AOT_stimuli/rescaled_final/1021_rv.mp4	0.0	812.0531680583954	0.10049295425415039
18	742.8632249832153	fix_pre	0		119	16.0	2.5	/experiments/AOT/AOT_stimuli/rescaled_final/1272_rv.mp4	0.0	812.1536610126495	0.9917349815368652
18	743.8467140197754	pulse	0	t		16.0	2.5	/experiments/AOT/AOT_stimuli/rescaled_final/1272_rv.mp4	0.0	813.1371500492096	
18	743.8549599647522	movie	1		247	16.0	2.5	/experiments/AOT/AOT_stimuli/rescaled_final/1272_rv.mp4	0.0	813.1453959941864	2.5082461833953857
18	745.4467730522156	pulse	1	t		16.0	2.5	/experiments/AOT/AOT_stimuli/rescaled_final/1272_rv.mp4	0.0	814.7372090816498	
18	746.3632061481476	fix_post	2		12	16.0	2.5	/experiments/AOT/AOT_stimuli/rescaled_final/1272_rv.mp4	0.0	815.6536421775818	0.09992003440856934
19	746.4631261825562	fix_pre	0		120	17.0	2.5	/experiments/AOT/AOT_stimuli/rescaled_final/0596_rv.mp4	0.0	815.7535622119904	1.0001089572906494
19	747.0466251373291	pulse	0	t		17.0	2.5	/experiments/AOT/AOT_stimuli/rescaled_final/0596_rv.mp4	0.0	816.3370611667633	
19	747.4632351398468	movie	1		244	17.0	2.5	/experiments/AOT/AOT_stimuli/rescaled_final/0596_rv.mp4	0.0	816.753671169281	2.4999589920043945
19	748.6466450691223	pulse	1	t		17.0	2.5	/experiments/AOT/AOT_stimuli/rescaled_final/0596_rv.mp4	0.0	817.9370810985565	
19	749.9631941318512	fix_post	2		12	17.0	2.5	/experiments/AOT/AOT_stimuli/rescaled_final/0596_rv.mp4	0.0	819.2536301612854	0.09995698928833008
20	750.0631511211395	fix_pre	0		120	18.0	2.5	/experiments/AOT/AOT_stimuli/rescaled_final/1844_fw.mp4	0.0	819.3535871505737	0.9999749660491943
20	750.2467901706696	pulse	0	t		18.0	2.5	/experiments/AOT/AOT_stimuli/rescaled_final/1844_fw.mp4	0.0	819.5372262001038	
20	751.0631260871887	movie	1		245	18.0	2.5	/experiments/AOT/AOT_stimuli/rescaled_final/1844_fw.mp4	0.0	820.3535621166229	2.499545097351074
20	751.846654176712	pulse	1	t		18.0	2.5	/experiments/AOT/AOT_stimuli/rescaled_final/1844_fw.mp4	0.0	821.1370902061462	
20	753.4463670253754	pulse	1	t		18.0	2.5	/experiments/AOT/AOT_stimuli/rescaled_final/1844_fw.mp4	0.0	822.7368030548096	
20	753.5626711845398	fix_post	2		12	18.0	2.5	/experiments/AOT/AOT_stimuli/rescaled_final/1844_fw.mp4	0.0	822.853107213974	0.10044479370117188
21	753.663115978241	fix_pre	0		120	19.0	2.5	/experiments/AOT/AOT_stimuli/rescaled_final/0466_fw.mp4	0.0	822.9535520076752	1.0000150203704834
21	754.6631309986115	movie	1		243	19.0	2.5	/experiments/AOT/AOT_stimuli/rescaled_final/0466_fw.mp4	0.0	823.9535670280457	2.499965190887451
21	755.046266078949	pulse	1	t		19.0	2.5	/experiments/AOT/AOT_stimuli/rescaled_final/0466_fw.mp4	0.0	824.3367021083832	
21	756.6466221809387	pulse	1	t		19.0	2.5	/experiments/AOT/AOT_stimuli/rescaled_final/0466_fw.mp4	0.0	825.9370582103729	
21	757.1630961894989	fix_post	2		12	19.0	2.5	/experiments/AOT/AOT_stimuli/rescaled_final/0466_fw.mp4	0.0	826.4535322189331	0.09997987747192383
22	757.2630760669708	fix_pre	0		119	20.0	2.5	/experiments/AOT/AOT_stimuli/rescaled_final/0540_rv.mp4	0.0	826.553512096405	0.9916610717773438
22	758.2466139793396	pulse	0	t		20.0	2.5	/experiments/AOT/AOT_stimuli/rescaled_final/0540_rv.mp4	0.0	827.5370500087738	
22	758.2547371387482	movie	1		246	20.0	2.5	/experiments/AOT/AOT_stimuli/rescaled_final/0540_rv.mp4	0.0	827.5451731681824	2.5083768367767334
22	759.8463010787964	pulse	1	t		20.0	2.5	/experiments/AOT/AOT_stimuli/rescaled_final/0540_rv.mp4	0.0	829.1367371082306	
22	760.7631139755249	fix_post	2		12	20.0	2.5	/experiments/AOT/AOT_stimuli/rescaled_final/0540_rv.mp4	0.0	830.0535500049591	0.09998703002929688
23	760.8631010055542	fix_pre	0		120	21.0	2.5	blank	1.0	830.1535370349884	0.9999730587005615
23	761.44793009758	pulse	0	t		21.0	2.5	blank	1.0	830.7383661270142	
23	761.8630740642548	movie	1		300	21.0	2.5	blank	1.0	831.153510093689	2.5000479221343994
23	763.0466530323029	pulse	1	t		21.0	2.5	blank	1.0	832.3370890617371	
23	764.3631219863892	fix_post	2		12	21.0	2.5	blank	1.0	833.6535580158234	0.09988212585449219
24	764.4630041122437	fix_pre	0		120	22.0	2.5	/experiments/AOT/AOT_stimuli/rescaled_final/2007_fw.mp4	0.0	833.7534401416779	1.0000889301300049
24	764.646555185318	pulse	0	t		22.0	2.5	/experiments/AOT/AOT_stimuli/rescaled_final/2007_fw.mp4	0.0	833.9369912147522	
24	765.4630930423737	movie	1		244	22.0	2.5	/experiments/AOT/AOT_stimuli/rescaled_final/2007_fw.mp4	0.0	834.7535290718079	2.5000641345977783
24	766.2465670108795	pulse	1	t		22.0	2.5	/experiments/AOT/AOT_stimuli/rescaled_final/2007_fw.mp4	0.0	835.5370030403137	
24	767.8451631069183	pulse	1	t		22.0	2.5	/experiments/AOT/AOT_stimuli/rescaled_final/2007_fw.mp4	0.0	837.1355991363525	
24	767.9631571769714	fix_post	2		12	22.0	2.5	/experiments/AOT/AOT_stimuli/rescaled_final/2007_fw.mp4	0.0	837.2535932064056	0.09990882873535156
25	768.0630660057068	fix_pre	0		120	23.0	2.5	/experiments/AOT/AOT_stimuli/rescaled_final/1190_rv.mp4	0.0	837.353502035141	1.0001380443572998
25	769.0632040500641	movie	1		243	23.0	2.5	/experiments/AOT/AOT_stimuli/rescaled_final/1190_rv.mp4	0.0	838.3536400794983	2.4998700618743896
25	769.4464349746704	pulse	1	t		23.0	2.5	/experiments/AOT/AOT_stimuli/rescaled_final/1190_rv.mp4	0.0	838.7368710041046	
25	771.046581029892	pulse	1	t		23.0	2.5	/experiments/AOT/AOT_stimuli/rescaled_final/1190_rv.mp4	0.0	840.3370170593262	
25	771.5630741119385	fix_post	2		12	23.0	2.5	/experiments/AOT/AOT_stimuli/rescaled_final/1190_rv.mp4	0.0	840.8535101413727	0.10001993179321289
26	771.6630940437317	fix_pre	0		119	24.0	2.5	/experiments/AOT/AOT_stimuli/rescaled_final/1879_fw.mp4	0.0	840.9535300731659	0.9916720390319824
26	772.6466071605682	pulse	0	t		24.0	2.5	/experiments/AOT/AOT_stimuli/rescaled_final/1879_fw.mp4	0.0	841.9370431900024	
26	772.6547660827637	movie	1		244	24.0	2.5	/experiments/AOT/AOT_stimuli/rescaled_final/1879_fw.mp4	0.0	841.9452021121979	2.508342981338501
26	774.2462301254272	pulse	1	t		24.0	2.5	/experiments/AOT/AOT_stimuli/rescaled_final/1879_fw.mp4	0.0	843.5366661548615	
26	775.1631090641022	fix_post	2		12	24.0	2.5	/experiments/AOT/AOT_stimuli/rescaled_final/1879_fw.mp4	0.0	844.4535450935364	0.09997200965881348
27	775.263081073761	fix_pre	0		120	25.0	2.5	/experiments/AOT/AOT_stimuli/rescaled_final/1372_fw.mp4	0.0	844.5535171031952	1.0000660419464111
27	775.8465540409088	pulse	0	t		25.0	2.5	/experiments/AOT/AOT_stimuli/rescaled_final/1372_fw.mp4	0.0	845.136990070343	
27	776.2631471157074	movie	1		242	25.0	2.5	/experiments/AOT/AOT_stimuli/rescaled_final/1372_fw.mp4	0.0	845.5535831451416	2.499842882156372
27	777.4466180801392	pulse	1	t		25.0	2.5	/experiments/AOT/AOT_stimuli/rescaled_final/1372_fw.mp4	0.0	846.7370541095734	
27	778.7629899978638	fix_post	2		12	25.0	2.5	/experiments/AOT/AOT_stimuli/rescaled_final/1372_fw.mp4	0.0	848.053426027298	0.10009908676147461
28	778.8630890846252	fix_pre	0		120	26.0	2.5	/experiments/AOT/AOT_stimuli/rescaled_final/0155_rv.mp4	0.0	848.1535251140594	0.9999339580535889
28	779.0465049743652	pulse	0	t		26.0	2.5	/experiments/AOT/AOT_stimuli/rescaled_final/0155_rv.mp4	0.0	848.3369410037994	
28	779.8630230426788	movie	1		242	26.0	2.5	/experiments/AOT/AOT_stimuli/rescaled_final/0155_rv.mp4	0.0	849.153459072113	2.500030994415283
28	780.6465439796448	pulse	1	t		26.0	2.5	/experiments/AOT/AOT_stimuli/rescaled_final/0155_rv.mp4	0.0	849.936980009079	
28	782.2447550296783	pulse	1	t		26.0	2.5	/experiments/AOT/AOT_stimuli/rescaled_final/0155_rv.mp4	0.0	851.5351910591125	
28	782.3630540370941	fix_post	2		12	26.0	2.5	/experiments/AOT/AOT_stimuli/rescaled_final/0155_rv.mp4	0.0	851.6534900665283	0.09999299049377441
29	782.4630470275879	fix_pre	0		120	27.0	2.5	/experiments/AOT/AOT_stimuli/rescaled_final/0064_rv.mp4	0.0	851.7534830570221	0.9999899864196777
29	783.4630370140076	movie	1		243	27.0	2.5	/experiments/AOT/AOT_stimuli/rescaled_final/0064_rv.mp4	0.0	852.7534730434418	2.500070095062256
29	783.8461179733276	pulse	1	t		27.0	2.5	/experiments/AOT/AOT_stimuli/rescaled_final/0064_rv.mp4	0.0	853.1365540027618	
29	785.4465200901031	pulse	1	t		27.0	2.5	/experiments/AOT/AOT_stimuli/rescaled_final/0064_rv.mp4	0.0	854.7369561195374	
29	785.9631071090698	fix_post	2		12	27.0	2.5	/experiments/AOT/AOT_stimuli/rescaled_final/0064_rv.mp4	0.0	855.253543138504	0.0998690128326416
30	786.0629761219025	fix_pre	0		119	28.0	2.5	blank	1.0	855.3534121513367	0.9917268753051758
30	787.046569108963	pulse	0	t		28.0	2.5	blank	1.0	856.3370051383972	
30	787.0547029972076	movie	1		301	28.0	2.5	blank	1.0	856.3451390266418	2.5082411766052246
30	788.6465470790863	pulse	1	t		28.0	2.5	blank	1.0	857.9369831085205	
30	789.5629441738129	fix_post	2		12	28.0	2.5	blank	1.0	858.8533802032471	0.09995698928833008
31	789.6629011631012	fix_pre	0		120	29.0	2.5	/experiments/AOT/AOT_stimuli/rescaled_final/0194_rv.mp4	0.0	858.9533371925354	1.0000638961791992
31	790.2466151714325	pulse	0	t		29.0	2.5	/experiments/AOT/AOT_stimuli/rescaled_final/0194_rv.mp4	0.0	859.5370512008667	
31	790.6629650592804	movie	1		247	29.0	2.5	/experiments/AOT/AOT_stimuli/rescaled_final/0194_rv.mp4	0.0	859.9534010887146	2.499969959259033
31	791.8466091156006	pulse	1	t		29.0	2.5	/experiments/AOT/AOT_stimuli/rescaled_final/0194_rv.mp4	0.0	861.1370451450348	
31	793.1629350185394	fix_post	2		12	29.0	2.5	/experiments/AOT/AOT_stimuli/rescaled_final/0194_rv.mp4	0.0	862.4533710479736	0.09968304634094238
32	793.2626180648804	fix_pre	0		120	30.0	2.5	/experiments/AOT/AOT_stimuli/rescaled_final/1623_rv.mp4	0.0	862.5530540943146	0.9999558925628662
32	793.4461090564728	pulse	0	t		30.0	2.5	/experiments/AOT/AOT_stimuli/rescaled_final/1623_rv.mp4	0.0	862.736545085907	
32	794.2625739574432	movie	1		244	30.0	2.5	/experiments/AOT/AOT_stimuli/rescaled_final/1623_rv.mp4	0.0	863.5530099868774	2.500430107116699
32	795.0461730957031	pulse	1	t		30.0	2.5	/experiments/AOT/AOT_stimuli/rescaled_final/1623_rv.mp4	0.0	864.3366091251373	
32	796.6450381278992	pulse	1	t		30.0	2.5	/experiments/AOT/AOT_stimuli/rescaled_final/1623_rv.mp4	0.0	865.9354741573334	
32	796.7630040645599	fix_post	2		12	30.0	2.5	/experiments/AOT/AOT_stimuli/rescaled_final/1623_rv.mp4	0.0	866.0534400939941	0.10004401206970215
33	796.8630480766296	fix_pre	0		120	31.0	2.5	/experiments/AOT/AOT_stimuli/rescaled_final/0693_fw.mp4	0.0	866.1534841060638	0.999985933303833
33	797.8630340099335	movie	1		242	31.0	2.5	/experiments/AOT/AOT_stimuli/rescaled_final/0693_fw.mp4	0.0	867.1534700393677	2.4999380111694336
33	798.2459120750427	pulse	1	t		31.0	2.5	/experiments/AOT/AOT_stimuli/rescaled_final/0693_fw.mp4	0.0	867.5363481044769	
33	799.8464171886444	pulse	1	t		31.0	2.5	/experiments/AOT/AOT_stimuli/rescaled_final/0693_fw.mp4	0.0	869.1368532180786	
33	800.3629720211029	fix_post	2		12	31.0	2.5	/experiments/AOT/AOT_stimuli/rescaled_final/0693_fw.mp4	0.0	869.6534080505371	0.09993100166320801
34	800.4629030227661	fix_pre	0		119	32.0	2.5	/experiments/AOT/AOT_stimuli/rescaled_final/0194_fw.mp4	0.0	869.7533390522003	0.9917740821838379
34	801.4463369846344	pulse	0	t		32.0	2.5	/experiments/AOT/AOT_stimuli/rescaled_final/0194_fw.mp4	0.0	870.7367730140686	
34	801.45467710495	movie	1		247	32.0	2.5	/experiments/AOT/AOT_stimuli/rescaled_final/0194_fw.mp4	0.0	870.7451131343842	2.508194923400879
34	803.0460641384125	pulse	1	t		32.0	2.5	/experiments/AOT/AOT_stimuli/rescaled_final/0194_fw.mp4	0.0	872.3365001678467	
34	803.9628720283508	fix_post	2		12	32.0	2.5	/experiments/AOT/AOT_stimuli/rescaled_final/0194_fw.mp4	0.0	873.253308057785	0.10000300407409668
35	804.0628750324249	fix_pre	0		120	33.0	2.5	blank	1.0	873.3533110618591	1.0000391006469727
35	804.646322965622	pulse	0	t		33.0	2.5	blank	1.0	873.9367589950562	
35	805.0629141330719	movie	1		300	33.0	2.5	blank	1.0	874.3533501625061	2.499964952468872
35	806.2463800907135	pulse	1	t		33.0	2.5	blank	1.0	875.5368161201477	
35	807.5628790855408	fix_post	2		12	33.0	2.5	blank	1.0	876.853315114975	0.0999600887298584
36	807.6628391742706	fix_pre	0		120	34.0	2.5	/experiments/AOT/AOT_stimuli/rescaled_final/1695_fw.mp4	0.0	876.9532752037048	1.000018835067749
36	807.846363067627	pulse	0	t		34.0	2.5	/experiments/AOT/AOT_stimuli/rescaled_final/1695_fw.mp4	0.0	877.1367990970612	
36	808.6628580093384	movie	1		242	34.0	2.5	/experiments/AOT/AOT_stimuli/rescaled_final/1695_fw.mp4	0.0	877.9532940387726	2.49997615814209
36	809.4463410377502	pulse	1	t		34.0	2.5	/experiments/AOT/AOT_stimuli/rescaled_final/1695_fw.mp4	0.0	878.7367770671844	
36	811.0448310375214	pulse	1	t		34.0	2.5	/experiments/AOT/AOT_stimuli/rescaled_final/1695_fw.mp4	0.0	880.3352670669556	
36	811.1628341674805	fix_post	2		12	34.0	2.5	/experiments/AOT/AOT_stimuli/rescaled_final/1695_fw.mp4	0.0	880.4532701969147	0.1000218391418457
37	811.2628560066223	fix_pre	0		120	35.0	2.5	/experiments/AOT/AOT_stimuli/rescaled_final/2161_fw.mp4	0.0	880.5532920360565	0.9999761581420898
37	812.2628321647644	movie	1		244	35.0	2.5	/experiments/AOT/AOT_stimuli/rescaled_final/2161_fw.mp4	0.0	881.5532681941986	2.500058889389038
37	812.6458930969238	pulse	1	t		35.0	2.5	/experiments/AOT/AOT_stimuli/rescaled_final/2161_fw.mp4	0.0	881.936329126358	
37	814.2463240623474	pulse	1	t		35.0	2.5	/experiments/AOT/AOT_stimuli/rescaled_final/2161_fw.mp4	0.0	883.5367600917816	
37	814.7628910541534	fix_post	2		12	35.0	2.5	/experiments/AOT/AOT_stimuli/rescaled_final/2161_fw.mp4	0.0	884.0533270835876	0.09991812705993652
38	814.8628091812134	fix_pre	0		119	36.0	2.5	/experiments/AOT/AOT_stimuli/rescaled_final/1907_rv.mp4	0.0	884.1532452106476	0.9916808605194092
38	815.8463671207428	pulse	0	t		36.0	2.5	/experiments/AOT/AOT_stimuli/rescaled_final/1907_rv.mp4	0.0	885.136803150177	
38	815.8544900417328	movie	1		246	36.0	2.5	/experiments/AOT/AOT_stimuli/rescaled_final/1907_rv.mp4	0.0	885.144926071167	2.50832200050354
38	817.4460661411285	pulse	1	t		36.0	2.5	/experiments/AOT/AOT_stimuli/rescaled_final/1907_rv.mp4	0.0	886.7365021705627	
38	818.3628120422363	fix_post	2		12	36.0	2.5	/experiments/AOT/AOT_stimuli/rescaled_final/1907_rv.mp4	0.0	887.6532480716705	0.1000051498413086
39	818.4628171920776	fix_pre	0		120	37.0	2.5	/experiments/AOT/AOT_stimuli/rescaled_final/0875_rv.mp4	0.0	887.7532532215118	1.0000848770141602
39	819.0463171005249	pulse	0	t		37.0	2.5	/experiments/AOT/AOT_stimuli/rescaled_final/0875_rv.mp4	0.0	888.3367531299591	
39	819.4629020690918	movie	1		242	37.0	2.5	/experiments/AOT/AOT_stimuli/rescaled_final/0875_rv.mp4	0.0	888.753338098526	2.499453067779541
39	820.6463670730591	pulse	1	t		37.0	2.5	/experiments/AOT/AOT_stimuli/rescaled_final/0875_rv.mp4	0.0	889.9368031024933	
39	821.9623551368713	fix_post	2		12	37.0	2.5	/experiments/AOT/AOT_stimuli/rescaled_final/0875_rv.mp4	0.0	891.2527911663055	0.1004629135131836
40	822.0628180503845	fix_pre	0		120	38.0	2.5	/experiments/AOT/AOT_stimuli/rescaled_final/0419_fw.mp4	0.0	891.3532540798187	1.000011920928955
40	822.2462980747223	pulse	0	t		38.0	2.5	/experiments/AOT/AOT_stimuli/rescaled_final/0419_fw.mp4	0.0	891.5367341041565	
40	823.0628299713135	movie	1		243	38.0	2.5	/experiments/AOT/AOT_stimuli/rescaled_final/0419_fw.mp4	0.0	892.3532660007477	2.499920129776001
40	823.8464109897614	pulse	1	t		38.0	2.5	/experiments/AOT/AOT_stimuli/rescaled_final/0419_fw.mp4	0.0	893.1368470191956	
40	825.4449381828308	pulse	1	t		38.0	2.5	/experiments/AOT/AOT_stimuli/rescaled_final/0419_fw.mp4	0.0	894.735374212265	
40	825.5627501010895	fix_post	2		12	38.0	2.5	/experiments/AOT/AOT_stimuli/rescaled_final/0419_fw.mp4	0.0	894.8531861305237	0.10017704963684082
41	825.6629271507263	fix_pre	0		120	39.0	2.5	/experiments/AOT/AOT_stimuli/rescaled_final/0291_rv.mp4	0.0	894.9533631801605	0.9999058246612549
41	826.6628329753876	movie	1		244	39.0	2.5	/experiments/AOT/AOT_stimuli/rescaled_final/0291_rv.mp4	0.0	895.9532690048218	2.5002009868621826
41	827.047021150589	pulse	1	t		39.0	2.5	/experiments/AOT/AOT_stimuli/rescaled_final/0291_rv.mp4	0.0	896.3374571800232	
41	828.6462850570679	pulse	1	t		39.0	2.5	/experiments/AOT/AOT_stimuli/rescaled_final/0291_rv.mp4	0.0	897.9367210865021	
41	829.1630339622498	fix_post	2		12	39.0	2.5	/experiments/AOT/AOT_stimuli/rescaled_final/0291_rv.mp4	0.0	898.453469991684	0.09986710548400879
42	829.2629010677338	fix_pre	0		119	40.0	2.5	/experiments/AOT/AOT_stimuli/rescaled_final/0377_rv.mp4	0.0	898.553337097168	0.9915339946746826
42	830.246335029602	pulse	0	t		40.0	2.5	/experiments/AOT/AOT_stimuli/rescaled_final/0377_rv.mp4	0.0	899.5367710590363	
42	830.2544350624084	movie	1		244	40.0	2.5	/experiments/AOT/AOT_stimuli/rescaled_final/0377_rv.mp4	0.0	899.5448710918427	2.5079360008239746
42	831.8457720279694	pulse	1	t		40.0	2.5	/experiments/AOT/AOT_stimuli/rescaled_final/0377_rv.mp4	0.0	901.1362080574036	
42	832.7623710632324	fix_post	2		12	40.0	2.5	/experiments/AOT/AOT_stimuli/rescaled_final/0377_rv.mp4	0.0	902.0528070926666	0.10036206245422363
43	832.8627331256866	fix_pre	0		120	41.0	2.5	/experiments/AOT/AOT_stimuli/rescaled_final/0240_rv.mp4	0.0	902.1531691551208	1.0000739097595215
43	833.4462921619415	pulse	0	t		41.0	2.5	/experiments/AOT/AOT_stimuli/rescaled_final/0240_rv.mp4	0.0	902.7367281913757	
43	833.8628070354462	movie	1		244	41.0	2.5	/experiments/AOT/AOT_stimuli/rescaled_final/0240_rv.mp4	0.0	903.1532430648804	2.499920129776001
43	835.0463650226593	pulse	1	t		41.0	2.5	/experiments/AOT/AOT_stimuli/rescaled_final/0240_rv.mp4	0.0	904.3368010520935	
43	836.3627271652222	fix_post	2		12	41.0	2.5	/experiments/AOT/AOT_stimuli/rescaled_final/0240_rv.mp4	0.0	905.6531631946564	0.10005593299865723
44	836.4627830982208	fix_pre	0		120	42.0	2.5	blank	1.0	905.753219127655	0.9999880790710449
44	836.6462440490723	pulse	0	t		42.0	2.5	blank	1.0	905.9366800785065	
44	837.4627711772919	movie	1		300	42.0	2.5	blank	1.0	906.7532072067261	2.499936819076538
44	838.2462849617004	pulse	1	t		42.0	2.5	blank	1.0	907.5367209911346	
44	839.8461670875549	pulse	1	t		42.0	2.5	blank	1.0	909.1366031169891	
44	839.9627079963684	fix_post	2		12	42.0	2.5	blank	1.0	909.2531440258026	0.10000300407409668
45	840.0627110004425	fix_pre	0		120	43.0	2.5	/experiments/AOT/AOT_stimuli/rescaled_final/1255_fw.mp4	0.0	909.3531470298767	0.9999961853027344
45	841.0627071857452	movie	1		242	43.0	2.5	/experiments/AOT/AOT_stimuli/rescaled_final/1255_fw.mp4	0.0	910.3531432151794	2.5000698566436768
45	841.4458031654358	pulse	1	t		43.0	2.5	/experiments/AOT/AOT_stimuli/rescaled_final/1255_fw.mp4	0.0	910.73623919487	
45	843.0461640357971	pulse	1	t		43.0	2.5	/experiments/AOT/AOT_stimuli/rescaled_final/1255_fw.mp4	0.0	912.3366000652313	
45	843.5627770423889	fix_post	2		12	43.0	2.5	/experiments/AOT/AOT_stimuli/rescaled_final/1255_fw.mp4	0.0	912.8532130718231	0.09998798370361328
46	843.6627650260925	fix_pre	0		119	44.0	2.5	/experiments/AOT/AOT_stimuli/rescaled_final/2053_fw.mp4	0.0	912.9532010555267	0.9916460514068604
46	844.6462140083313	pulse	0	t		44.0	2.5	/experiments/AOT/AOT_stimuli/rescaled_final/2053_fw.mp4	0.0	913.9366500377655	
46	844.6544110774994	movie	1		244	44.0	2.5	/experiments/AOT/AOT_stimuli/rescaled_final/2053_fw.mp4	0.0	913.9448471069336	2.508310079574585
46	846.2462329864502	pulse	1	t		44.0	2.5	/experiments/AOT/AOT_stimuli/rescaled_final/2053_fw.mp4	0.0	915.5366690158844	
46	847.162721157074	fix_post	2		12	44.0	2.5	/experiments/AOT/AOT_stimuli/rescaled_final/2053_fw.mp4	0.0	916.4531571865082	0.09992790222167969
47	847.2626490592957	fix_pre	0		120	45.0	2.5	/experiments/AOT/AOT_stimuli/rescaled_final/1903_rv.mp4	0.0	916.5530850887299	1.0001070499420166
47	847.8462090492249	pulse	0	t		45.0	2.5	/experiments/AOT/AOT_stimuli/rescaled_final/1903_rv.mp4	0.0	917.1366450786591	
47	848.2627561092377	movie	1		245	45.0	2.5	/experiments/AOT/AOT_stimuli/rescaled_final/1903_rv.mp4	0.0	917.5531921386719	2.499626874923706
47	849.4458010196686	pulse	1	t		45.0	2.5	/experiments/AOT/AOT_stimuli/rescaled_final/1903_rv.mp4	0.0	918.7362370491028	
47	850.7623829841614	fix_post	2		12	45.0	2.5	/experiments/AOT/AOT_stimuli/rescaled_final/1903_rv.mp4	0.0	920.0528190135956	0.10001802444458008
48	850.862401008606	fix_pre	0		120	46.0	2.5	/experiments/AOT/AOT_stimuli/rescaled_final/1508_rv.mp4	0.0	920.1528370380402	1.0001239776611328
48	851.0463480949402	pulse	0	t		46.0	2.5	/experiments/AOT/AOT_stimuli/rescaled_final/1508_rv.mp4	0.0	920.3367841243744	
48	851.8625249862671	movie	1		242	46.0	2.5	/experiments/AOT/AOT_stimuli/rescaled_final/1508_rv.mp4	0.0	921.1529610157013	2.499711036682129
48	852.6462121009827	pulse	1	t		46.0	2.5	/experiments/AOT/AOT_stimuli/rescaled_final/1508_rv.mp4	0.0	921.9366481304169	
48	854.2445809841156	pulse	1	t		46.0	2.5	/experiments/AOT/AOT_stimuli/rescaled_final/1508_rv.mp4	0.0	923.5350170135498	
48	854.3622360229492	fix_post	2		12	46.0	2.5	/experiments/AOT/AOT_stimuli/rescaled_final/1508_rv.mp4	0.0	923.6526720523834	0.0999290943145752
49	854.4621651172638	fix_pre	0		120	47.0	2.5	/experiments/AOT/AOT_stimuli/rescaled_final/1213_rv.mp4	0.0	923.752601146698	1.0004808902740479
49	855.4626460075378	movie	1		245	47.0	2.5	/experiments/AOT/AOT_stimuli/rescaled_final/1213_rv.mp4	0.0	924.753082036972	2.4999210834503174
49	855.8457810878754	pulse	1	t		47.0	2.5	/experiments/AOT/AOT_stimuli/rescaled_final/1213_rv.mp4	0.0	925.1362171173096	
49	857.4460701942444	pulse	1	t		47.0	2.5	/experiments/AOT/AOT_stimuli/rescaled_final/1213_rv.mp4	0.0	926.7365062236786	
49	857.9625670909882	fix_post	2		12	47.0	2.5	/experiments/AOT/AOT_stimuli/rescaled_final/1213_rv.mp4	0.0	927.2530031204224	0.10000300407409668
50	858.0625700950623	fix_pre	0		119	48.0	2.5	blank	1.0	927.3530061244965	0.9917669296264648
50	859.0461120605469	pulse	0	t		48.0	2.5	blank	1.0	928.3365480899811	
50	859.0543370246887	movie	1		301	48.0	2.5	blank	1.0	928.3447730541229	2.508275032043457
50	860.6461601257324	pulse	1	t		48.0	2.5	blank	1.0	929.9365961551666	
50	861.5626120567322	fix_post	2		12	48.0	2.5	blank	1.0	930.8530480861664	0.09995198249816895
51	861.6625640392303	fix_pre	0		120	49.0	2.5	/experiments/AOT/AOT_stimuli/rescaled_final/0136_fw.mp4	0.0	930.9530000686646	1.0000479221343994
51	862.246059179306	pulse	0	t		49.0	2.5	/experiments/AOT/AOT_stimuli/rescaled_final/0136_fw.mp4	0.0	931.5364952087402	
51	862.6626119613647	movie	1		242	49.0	2.5	/experiments/AOT/AOT_stimuli/rescaled_final/0136_fw.mp4	0.0	931.953047990799	2.499948024749756
51	863.8463129997253	pulse	1	t		49.0	2.5	/experiments/AOT/AOT_stimuli/rescaled_final/0136_fw.mp4	0.0	933.1367490291595	
51	865.1625599861145	fix_post	2		12	49.0	2.5	/experiments/AOT/AOT_stimuli/rescaled_final/0136_fw.mp4	0.0	934.4529960155487	0.100067138671875
52	865.2626271247864	fix_pre	0		120	50.0	2.5	/experiments/AOT/AOT_stimuli/rescaled_final/0184_rv.mp4	0.0	934.5530631542206	1.0000128746032715
52	865.4461071491241	pulse	0	t		50.0	2.5	/experiments/AOT/AOT_stimuli/rescaled_final/0184_rv.mp4	0.0	934.7365431785583	
52	866.2626399993896	movie	1		243	50.0	2.5	/experiments/AOT/AOT_stimuli/rescaled_final/0184_rv.mp4	0.0	935.5530760288239	2.4999680519104004
52	867.0460290908813	pulse	1	t		50.0	2.5	/experiments/AOT/AOT_stimuli/rescaled_final/0184_rv.mp4	0.0	936.3364651203156	
52	868.6446390151978	pulse	1	t		50.0	2.5	/experiments/AOT/AOT_stimuli/rescaled_final/0184_rv.mp4	0.0	937.935075044632	
52	868.7626080513	fix_post	2		12	50.0	2.5	/experiments/AOT/AOT_stimuli/rescaled_final/0184_rv.mp4	0.0	938.0530440807343	0.0999460220336914
53	868.8625540733337	fix_pre	0		120	51.0	2.5	/experiments/AOT/AOT_stimuli/rescaled_final/0123_fw.mp4	0.0	938.152990102768	1.0000550746917725
53	869.8626091480255	movie	1		242	51.0	2.5	/experiments/AOT/AOT_stimuli/rescaled_final/0123_fw.mp4	0.0	939.1530451774597	2.499987840652466
53	870.2462041378021	pulse	1	t		51.0	2.5	/experiments/AOT/AOT_stimuli/rescaled_final/0123_fw.mp4	0.0	939.5366401672363	
53	871.8459839820862	pulse	1	t		51.0	2.5	/experiments/AOT/AOT_stimuli/rescaled_final/0123_fw.mp4	0.0	941.1364200115204	
53	872.362596988678	fix_post	2		12	51.0	2.5	/experiments/AOT/AOT_stimuli/rescaled_final/0123_fw.mp4	0.0	941.6530330181122	0.09995913505554199
54	872.4625561237335	fix_pre	0		119	52.0	2.5	/experiments/AOT/AOT_stimuli/rescaled_final/1989_fw.mp4	0.0	941.7529921531677	0.9916698932647705
54	873.4460740089417	pulse	0	t		52.0	2.5	/experiments/AOT/AOT_stimuli/rescaled_final/1989_fw.mp4	0.0	942.7365100383759	
54	873.4542260169983	movie	1		245	52.0	2.5	/experiments/AOT/AOT_stimuli/rescaled_final/1989_fw.mp4	0.0	942.7446620464325	2.5083601474761963
54	875.0458869934082	pulse	1	t		52.0	2.5	/experiments/AOT/AOT_stimuli/rescaled_final/1989_fw.mp4	0.0	944.3363230228424	
54	875.9625861644745	fix_post	2		12	52.0	2.5	/experiments/AOT/AOT_stimuli/rescaled_final/1989_fw.mp4	0.0	945.2530221939087	0.09996390342712402
55	876.0625500679016	fix_pre	0		120	53.0	2.5	/experiments/AOT/AOT_stimuli/rescaled_final/0400_fw.mp4	0.0	945.3529860973358	0.9999780654907227
55	876.646017074585	pulse	0	t		53.0	2.5	/experiments/AOT/AOT_stimuli/rescaled_final/0400_fw.mp4	0.0	945.9364531040192	
55	877.0625281333923	movie	1		244	53.0	2.5	/experiments/AOT/AOT_stimuli/rescaled_final/0400_fw.mp4	0.0	946.3529641628265	2.4999990463256836
55	878.2460601329803	pulse	1	t		53.0	2.5	/experiments/AOT/AOT_stimuli/rescaled_final/0400_fw.mp4	0.0	947.5364961624146	
55	879.562527179718	fix_post	2		12	53.0	2.5	/experiments/AOT/AOT_stimuli/rescaled_final/0400_fw.mp4	0.0	948.8529632091522	0.0999598503112793
56	879.6624870300293	fix_pre	0		120	54.0	2.5	/experiments/AOT/AOT_stimuli/rescaled_final/0832_fw.mp4	0.0	948.9529230594635	0.9999890327453613
56	879.8459689617157	pulse	0	t		54.0	2.5	/experiments/AOT/AOT_stimuli/rescaled_final/0832_fw.mp4	0.0	949.1364049911499	
56	880.6624760627747	movie	1		245	54.0	2.5	/experiments/AOT/AOT_stimuli/rescaled_final/0832_fw.mp4	0.0	949.9529120922089	2.5001020431518555
56	881.44597697258	pulse	1	t		54.0	2.5	/experiments/AOT/AOT_stimuli/rescaled_final/0832_fw.mp4	0.0	950.7364130020142	
56	883.044774055481	pulse	1	t		54.0	2.5	/experiments/AOT/AOT_stimuli/rescaled_final/0832_fw.mp4	0.0	952.3352100849152	
56	883.1625781059265	fix_post	2		12	54.0	2.5	/experiments/AOT/AOT_stimuli/rescaled_final/0832_fw.mp4	0.0	952.4530141353607	0.09992289543151855
57	883.262501001358	fix_pre	0		120	55.0	2.5	blank	1.0	952.5529370307922	0.9999511241912842
57	884.2624521255493	movie	1		300	55.0	2.5	blank	1.0	953.5528881549835	2.4999468326568604
57	884.646133184433	pulse	1	t		55.0	2.5	blank	1.0	953.9365692138672	
57	886.2460739612579	pulse	1	t		55.0	2.5	blank	1.0	955.5365099906921	
57	886.7623989582062	fix_post	2		12	55.0	2.5	blank	1.0	956.0528349876404	0.10014700889587402
58	886.862545967102	fix_pre	0		119	56.0	2.5	/experiments/AOT/AOT_stimuli/rescaled_final/0460_fw.mp4	0.0	956.1529819965363	0.9915580749511719
58	887.8459861278534	pulse	0	t		56.0	2.5	/experiments/AOT/AOT_stimuli/rescaled_final/0460_fw.mp4	0.0	957.1364221572876	
58	887.8541040420532	movie	1		243	56.0	2.5	/experiments/AOT/AOT_stimuli/rescaled_final/0460_fw.mp4	0.0	957.1445400714874	2.5083560943603516
58	889.4463610649109	pulse	1	t		56.0	2.5	/experiments/AOT/AOT_stimuli/rescaled_final/0460_fw.mp4	0.0	958.7367970943451	
58	890.3624601364136	fix_post	2		12	56.0	2.5	/experiments/AOT/AOT_stimuli/rescaled_final/0460_fw.mp4	0.0	959.6528961658478	0.10002803802490234
59	890.4624881744385	fix_pre	0		120	57.0	2.5	/experiments/AOT/AOT_stimuli/rescaled_final/0791_rv.mp4	0.0	959.7529242038727	1.0079607963562012
59	891.0459861755371	pulse	0	t		57.0	2.5	/experiments/AOT/AOT_stimuli/rescaled_final/0791_rv.mp4	0.0	960.3364222049713	
59	891.4704489707947	movie	1		242	57.0	2.5	/experiments/AOT/AOT_stimuli/rescaled_final/0791_rv.mp4	0.0	960.7608850002289	2.4920761585235596
59	892.6460280418396	pulse	1	t		57.0	2.5	/experiments/AOT/AOT_stimuli/rescaled_final/0791_rv.mp4	0.0	961.9364640712738	
59	893.9625251293182	fix_post	2		12	57.0	2.5	/experiments/AOT/AOT_stimuli/rescaled_final/0791_rv.mp4	0.0	963.2529611587524	0.0999460220336914
60	894.0624711513519	fix_pre	0		120	58.0	2.5	/experiments/AOT/AOT_stimuli/rescaled_final/0825_fw.mp4	0.0	963.3529071807861	0.9995570182800293
60	894.2459499835968	pulse	0	t		58.0	2.5	/experiments/AOT/AOT_stimuli/rescaled_final/0825_fw.mp4	0.0	963.536386013031	
60	895.062028169632	movie	1		243	58.0	2.5	/experiments/AOT/AOT_stimuli/rescaled_final/0825_fw.mp4	0.0	964.3524641990662	2.5003838539123535
60	895.8459551334381	pulse	1	t		58.0	2.5	/experiments/AOT/AOT_stimuli/rescaled_final/0825_fw.mp4	0.0	965.1363911628723	
60	897.4446310997009	pulse	1	t		58.0	2.5	/experiments/AOT/AOT_stimuli/rescaled_final/0825_fw.mp4	0.0	966.7350671291351	
60	897.5624120235443	fix_post	2		12	58.0	2.5	/experiments/AOT/AOT_stimuli/rescaled_final/0825_fw.mp4	0.0	966.8528480529785	0.10001206398010254
61	897.6624240875244	fix_pre	0		120	59.0	2.5	/experiments/AOT/AOT_stimuli/rescaled_final/0092_rv.mp4	0.0	966.9528601169586	0.9999759197235107
61	898.6624000072479	movie	1		242	59.0	2.5	/experiments/AOT/AOT_stimuli/rescaled_final/0092_rv.mp4	0.0	967.9528360366821	2.500028133392334
61	899.0452241897583	pulse	1	t		59.0	2.5	/experiments/AOT/AOT_stimuli/rescaled_final/0092_rv.mp4	0.0	968.3356602191925	
61	900.6458790302277	pulse	1	t		59.0	2.5	/experiments/AOT/AOT_stimuli/rescaled_final/0092_rv.mp4	0.0	969.9363150596619	
61	901.1624281406403	fix_post	2		12	59.0	2.5	/experiments/AOT/AOT_stimuli/rescaled_final/0092_rv.mp4	0.0	970.4528641700745	0.09991693496704102
62	901.2623450756073	fix_pre	0		119	60.0	2.5	/experiments/AOT/AOT_stimuli/rescaled_final/0134_rv.mp4	0.0	970.5527811050415	0.9917280673980713
62	902.2459239959717	pulse	0	t		60.0	2.5	/experiments/AOT/AOT_stimuli/rescaled_final/0134_rv.mp4	0.0	971.5363600254059	
62	902.2540731430054	movie	1		244	60.0	2.5	/experiments/AOT/AOT_stimuli/rescaled_final/0134_rv.mp4	0.0	971.5445091724396	2.508453845977783
62	903.8456139564514	pulse	1	t		60.0	2.5	/experiments/AOT/AOT_stimuli/rescaled_final/0134_rv.mp4	0.0	973.1360499858856	
62	904.7625269889832	fix_post	2		12	60.0	2.5	/experiments/AOT/AOT_stimuli/rescaled_final/0134_rv.mp4	0.0	974.0529630184174	0.09949016571044922
63	904.8620171546936	fix_pre	0		120	61.0	2.5	blank	1.0	974.1524531841278	1.0000278949737549
63	905.4458680152893	pulse	0	t		61.0	2.5	blank	1.0	974.7363040447235	
63	905.8620450496674	movie	1		300	61.0	2.5	blank	1.0	975.1524810791016	2.5003581047058105
63	907.0456411838531	pulse	1	t		61.0	2.5	blank	1.0	976.3360772132874	
63	908.3624031543732	fix_post	2		12	61.0	2.5	blank	1.0	977.6528391838074	0.10007190704345703
64	908.4624750614166	fix_pre	0		120	62.0	2.5	/experiments/AOT/AOT_stimuli/rescaled_final/1062_fw.mp4	0.0	977.7529110908508	0.9999299049377441
64	908.6459851264954	pulse	0	t		62.0	2.5	/experiments/AOT/AOT_stimuli/rescaled_final/1062_fw.mp4	0.0	977.9364211559296	
64	909.4624049663544	movie	1		244	62.0	2.5	/experiments/AOT/AOT_stimuli/rescaled_final/1062_fw.mp4	0.0	978.7528409957886	2.4999401569366455
64	910.2458100318909	pulse	1	t		62.0	2.5	/experiments/AOT/AOT_stimuli/rescaled_final/1062_fw.mp4	0.0	979.5362460613251	
64	911.8443751335144	pulse	1	t		62.0	2.5	/experiments/AOT/AOT_stimuli/rescaled_final/1062_fw.mp4	0.0	981.1348111629486	
64	911.962345123291	fix_post	2		12	62.0	2.5	/experiments/AOT/AOT_stimuli/rescaled_final/1062_fw.mp4	0.0	981.2527811527252	0.10001587867736816
65	912.0623610019684	fix_pre	0		120	63.0	2.5	/experiments/AOT/AOT_stimuli/rescaled_final/1724_fw.mp4	0.0	981.3527970314026	0.9999041557312012
65	913.0622651576996	movie	1		243	63.0	2.5	/experiments/AOT/AOT_stimuli/rescaled_final/1724_fw.mp4	0.0	982.3527011871338	2.4996538162231445
65	913.4467740058899	pulse	1	t		63.0	2.5	/experiments/AOT/AOT_stimuli/rescaled_final/1724_fw.mp4	0.0	982.7372100353241	
65	915.0457999706268	pulse	1	t		63.0	2.5	/experiments/AOT/AOT_stimuli/rescaled_final/1724_fw.mp4	0.0	984.336236000061	
65	915.5619189739227	fix_post	2		12	63.0	2.5	/experiments/AOT/AOT_stimuli/rescaled_final/1724_fw.mp4	0.0	984.8523550033569	0.09998106956481934
66	915.6619000434875	fix_pre	0		119	64.0	2.5	/experiments/AOT/AOT_stimuli/rescaled_final/0027_fw.mp4	0.0	984.9523360729218	0.9920229911804199
66	916.6458160877228	pulse	0	t		64.0	2.5	/experiments/AOT/AOT_stimuli/rescaled_final/0027_fw.mp4	0.0	985.936252117157	
66	916.653923034668	movie	1		243	64.0	2.5	/experiments/AOT/AOT_stimuli/rescaled_final/0027_fw.mp4	0.0	985.9443590641022	2.5084609985351562
66	918.2453801631927	pulse	1	t		64.0	2.5	/experiments/AOT/AOT_stimuli/rescaled_final/0027_fw.mp4	0.0	987.535816192627	
66	919.1623840332031	fix_post	2		12	64.0	2.5	/experiments/AOT/AOT_stimuli/rescaled_final/0027_fw.mp4	0.0	988.4528200626373	0.09989213943481445
67	919.2622761726379	fix_pre	0		120	65.0	2.5	/experiments/AOT/AOT_stimuli/rescaled_final/2039_fw.mp4	0.0	988.5527122020721	1.0000369548797607
67	919.8458030223846	pulse	0	t		65.0	2.5	/experiments/AOT/AOT_stimuli/rescaled_final/2039_fw.mp4	0.0	989.1362390518188	
67	920.2623131275177	movie	1		244	65.0	2.5	/experiments/AOT/AOT_stimuli/rescaled_final/2039_fw.mp4	0.0	989.5527491569519	2.49993896484375
67	921.4458830356598	pulse	1	t		65.0	2.5	/experiments/AOT/AOT_stimuli/rescaled_final/2039_fw.mp4	0.0	990.736319065094	
67	922.7622520923615	fix_post	2		12	65.0	2.5	/experiments/AOT/AOT_stimuli/rescaled_final/2039_fw.mp4	0.0	992.0526881217957	0.09999608993530273
68	922.8622481822968	fix_pre	0		120	66.0	2.5	/experiments/AOT/AOT_stimuli/rescaled_final/0048_rv.mp4	0.0	992.152684211731	1.000086784362793
68	923.0458061695099	pulse	0	t		66.0	2.5	/experiments/AOT/AOT_stimuli/rescaled_final/0048_rv.mp4	0.0	992.3362421989441	
68	923.8623349666595	movie	1		242	66.0	2.5	/experiments/AOT/AOT_stimuli/rescaled_final/0048_rv.mp4	0.0	993.1527709960938	2.4995532035827637
68	924.6457390785217	pulse	1	t		66.0	2.5	/experiments/AOT/AOT_stimuli/rescaled_final/0048_rv.mp4	0.0	993.9361751079559	
68	926.2441229820251	pulse	1	t		66.0	2.5	/experiments/AOT/AOT_stimuli/rescaled_final/0048_rv.mp4	0.0	995.5345590114594	
68	926.3618881702423	fix_post	2		12	66.0	2.5	/experiments/AOT/AOT_stimuli/rescaled_final/0048_rv.mp4	0.0	995.6523241996765	0.10036897659301758
69	926.4622571468353	fix_pre	0		120	67.0	2.5	/experiments/AOT/AOT_stimuli/rescaled_final/1063_fw.mp4	0.0	995.7526931762695	1.0000338554382324
69	927.4622910022736	movie	1		245	67.0	2.5	/experiments/AOT/AOT_stimuli/rescaled_final/1063_fw.mp4	0.0	996.7527270317078	2.5000040531158447
69	927.8459260463715	pulse	1	t		67.0	2.5	/experiments/AOT/AOT_stimuli/rescaled_final/1063_fw.mp4	0.0	997.1363620758057	
69	929.4457721710205	pulse	1	t		67.0	2.5	/experiments/AOT/AOT_stimuli/rescaled_final/1063_fw.mp4	0.0	998.7362082004547	
69	929.9622950553894	fix_post	2		12	67.0	2.5	/experiments/AOT/AOT_stimuli/rescaled_final/1063_fw.mp4	0.0	999.2527310848236	0.10005807876586914
70	930.0623531341553	fix_pre	0		119	68.0	2.5	/experiments/AOT/AOT_stimuli/rescaled_final/1299_fw.mp4	0.0	999.3527891635895	0.9915409088134766
70	931.0457639694214	pulse	0	t		68.0	2.5	/experiments/AOT/AOT_stimuli/rescaled_final/1299_fw.mp4	0.0	1000.3361999988556	
70	931.0538940429688	movie	1		244	68.0	2.5	/experiments/AOT/AOT_stimuli/rescaled_final/1299_fw.mp4	0.0	1000.344330072403	2.508388042449951
70	932.6450281143188	pulse	1	t		68.0	2.5	/experiments/AOT/AOT_stimuli/rescaled_final/1299_fw.mp4	0.0	1001.935464143753	
70	933.5622820854187	fix_post	2		12	68.0	2.5	/experiments/AOT/AOT_stimuli/rescaled_final/1299_fw.mp4	0.0	1002.8527181148529	0.09999608993530273
71	933.662278175354	fix_pre	0		120	69.0	2.5	blank	1.0	1002.9527142047882	0.9999179840087891
71	934.245735168457	pulse	0	t		69.0	2.5	blank	1.0	1003.5361711978912	
71	934.6621961593628	movie	1		300	69.0	2.5	blank	1.0	1003.952632188797	2.4997568130493164
71	935.8456420898438	pulse	1	t		69.0	2.5	blank	1.0	1005.136078119278	
71	937.1619529724121	fix_post	2		12	69.0	2.5	blank	1.0	1006.4523890018463	0.10032010078430176
72	937.2622730731964	fix_pre	0		120	70.0	2.5	/experiments/AOT/AOT_stimuli/rescaled_final/0829_rv.mp4	0.0	1006.5527091026306	0.9998838901519775
72	937.4456939697266	pulse	0	t		70.0	2.5	/experiments/AOT/AOT_stimuli/rescaled_final/0829_rv.mp4	0.0	1006.7361299991608	
72	938.2621569633484	movie	1		242	70.0	2.5	/experiments/AOT/AOT_stimuli/rescaled_final/0829_rv.mp4	0.0	1007.5525929927826	2.500087022781372
72	939.0456631183624	pulse	1	t		70.0	2.5	/experiments/AOT/AOT_stimuli/rescaled_final/0829_rv.mp4	0.0	1008.3360991477966	
72	940.6443231105804	pulse	1	t		70.0	2.5	/experiments/AOT/AOT_stimuli/rescaled_final/0829_rv.mp4	0.0	1009.9347591400146	
72	940.7622439861298	fix_post	2		12	70.0	2.5	/experiments/AOT/AOT_stimuli/rescaled_final/0829_rv.mp4	0.0	1010.052680015564	0.10013318061828613
73	940.862377166748	fix_pre	0		120	71.0	2.5	/experiments/AOT/AOT_stimuli/rescaled_final/0139_rv.mp4	0.0	1010.1528131961823	0.9998350143432617
73	941.8622121810913	movie	1		244	71.0	2.5	/experiments/AOT/AOT_stimuli/rescaled_final/0139_rv.mp4	0.0	1011.1526482105255	2.4999568462371826
73	942.2467641830444	pulse	1	t		71.0	2.5	/experiments/AOT/AOT_stimuli/rescaled_final/0139_rv.mp4	0.0	1011.5372002124786	
73	943.8456981182098	pulse	1	t		71.0	2.5	/experiments/AOT/AOT_stimuli/rescaled_final/0139_rv.mp4	0.0	1013.136134147644	
73	944.3621690273285	fix_post	2		12	71.0	2.5	/experiments/AOT/AOT_stimuli/rescaled_final/0139_rv.mp4	0.0	1013.6526050567627	0.09960794448852539
74	944.461776971817	fix_pre	0		119	72.0	2.5	/experiments/AOT/AOT_stimuli/rescaled_final/0050_fw.mp4	0.0	1013.7522130012512	0.9920530319213867
74	945.4457070827484	pulse	0	t		72.0	2.5	/experiments/AOT/AOT_stimuli/rescaled_final/0050_fw.mp4	0.0	1014.7361431121826	
74	945.4538300037384	movie	1		245	72.0	2.5	/experiments/AOT/AOT_stimuli/rescaled_final/0050_fw.mp4	0.0	1014.7442660331726	2.508342981338501
74	947.0456650257111	pulse	1	t		72.0	2.5	/experiments/AOT/AOT_stimuli/rescaled_final/0050_fw.mp4	0.0	1016.3361010551453	
74	947.9621729850769	fix_post	2		12	72.0	2.5	/experiments/AOT/AOT_stimuli/rescaled_final/0050_fw.mp4	0.0	1017.2526090145111	0.09997010231018066
75	948.0621430873871	fix_pre	0		120	73.0	2.5	/experiments/AOT/AOT_stimuli/rescaled_final/0693_fw.mp4	0.0	1017.3525791168213	1.0000228881835938
75	948.6457481384277	pulse	0	t		73.0	2.5	/experiments/AOT/AOT_stimuli/rescaled_final/0693_fw.mp4	0.0	1017.9361841678619	
75	949.0621659755707	movie	1		242	73.0	2.5	/experiments/AOT/AOT_stimuli/rescaled_final/0693_fw.mp4	0.0	1018.3526020050049	2.500030040740967
75	950.2457201480865	pulse	1	t		73.0	2.5	/experiments/AOT/AOT_stimuli/rescaled_final/0693_fw.mp4	0.0	1019.5361561775208	
75	951.5621960163116	fix_post	2		12	73.0	2.5	/experiments/AOT/AOT_stimuli/rescaled_final/0693_fw.mp4	0.0	1020.8526320457458	0.09985804557800293
76	951.6620540618896	fix_pre	0		120	74.0	2.5	/experiments/AOT/AOT_stimuli/rescaled_final/0330_fw.mp4	0.0	1020.9524900913239	1.0000979900360107
76	951.8456451892853	pulse	0	t		74.0	2.5	/experiments/AOT/AOT_stimuli/rescaled_final/0330_fw.mp4	0.0	1021.1360812187195	
76	952.6621520519257	movie	1		242	74.0	2.5	/experiments/AOT/AOT_stimuli/rescaled_final/0330_fw.mp4	0.0	1021.9525880813599	2.5000340938568115
76	953.4456241130829	pulse	1	t		74.0	2.5	/experiments/AOT/AOT_stimuli/rescaled_final/0330_fw.mp4	0.0	1022.7360601425171	
76	955.0440721511841	pulse	1	t		74.0	2.5	/experiments/AOT/AOT_stimuli/rescaled_final/0330_fw.mp4	0.0	1024.3345081806183	
76	955.1621861457825	fix_post	2		12	74.0	2.5	/experiments/AOT/AOT_stimuli/rescaled_final/0330_fw.mp4	0.0	1024.4526221752167	0.09993982315063477
77	955.2621259689331	fix_pre	0		120	75.0	2.5	/experiments/AOT/AOT_stimuli/rescaled_final/2101_fw.mp4	0.0	1024.5525619983673	0.9995110034942627
77	956.2616369724274	movie	1		243	75.0	2.5	/experiments/AOT/AOT_stimuli/rescaled_final/2101_fw.mp4	0.0	1025.5520730018616	2.500102996826172
77	956.645229101181	pulse	1	t		75.0	2.5	/experiments/AOT/AOT_stimuli/rescaled_final/2101_fw.mp4	0.0	1025.9356651306152	
77	958.2456450462341	pulse	1	t		75.0	2.5	/experiments/AOT/AOT_stimuli/rescaled_final/2101_fw.mp4	0.0	1027.5360810756683	
77	958.7617399692535	fix_post	2		12	75.0	2.5	/experiments/AOT/AOT_stimuli/rescaled_final/2101_fw.mp4	0.0	1028.0521759986877	0.10038399696350098
78	958.862123966217	fix_pre	0		119	76.0	2.5	/experiments/AOT/AOT_stimuli/rescaled_final/1220_rv.mp4	0.0	1028.1525599956512	0.9916911125183105
78	959.8456761837006	pulse	0	t		76.0	2.5	/experiments/AOT/AOT_stimuli/rescaled_final/1220_rv.mp4	0.0	1029.1361122131348	
78	959.8538150787354	movie	1		244	76.0	2.5	/experiments/AOT/AOT_stimuli/rescaled_final/1220_rv.mp4	0.0	1029.1442511081696	2.5080580711364746
78	961.4449501037598	pulse	1	t		76.0	2.5	/experiments/AOT/AOT_stimuli/rescaled_final/1220_rv.mp4	0.0	1030.735386133194	
78	962.3618731498718	fix_post	2		12	76.0	2.5	/experiments/AOT/AOT_stimuli/rescaled_final/1220_rv.mp4	0.0	1031.652309179306	0.09993696212768555
79	962.4618101119995	fix_pre	0		120	77.0	2.5	blank	1.0	1031.7522461414337	1.0006120204925537
79	963.0454120635986	pulse	0	t		77.0	2.5	blank	1.0	1032.3358480930328	
79	963.4624221324921	movie	1		300	77.0	2.5	blank	1.0	1032.7528581619263	2.4992120265960693
79	964.6456451416016	pulse	1	t		77.0	2.5	blank	1.0	1033.9360811710358	
79	965.9616341590881	fix_post	2		12	77.0	2.5	blank	1.0	1035.2520701885223	0.10042095184326172
80	966.0620551109314	fix_pre	0		120	78.0	2.5	/experiments/AOT/AOT_stimuli/rescaled_final/1453_rv.mp4	0.0	1035.3524911403656	1.0080480575561523
80	966.2455790042877	pulse	0	t		78.0	2.5	/experiments/AOT/AOT_stimuli/rescaled_final/1453_rv.mp4	0.0	1035.536015033722	
80	967.0701031684875	movie	1		244	78.0	2.5	/experiments/AOT/AOT_stimuli/rescaled_final/1453_rv.mp4	0.0	1036.3605391979218	2.49194598197937
80	967.845545053482	pulse	1	t		78.0	2.5	/experiments/AOT/AOT_stimuli/rescaled_final/1453_rv.mp4	0.0	1037.1359810829163	
80	969.4439401626587	pulse	1	t		78.0	2.5	/experiments/AOT/AOT_stimuli/rescaled_final/1453_rv.mp4	0.0	1038.734376192093	
80	969.5620491504669	fix_post	2		12	78.0	2.5	/experiments/AOT/AOT_stimuli/rescaled_final/1453_rv.mp4	0.0	1038.8524851799011	0.10001397132873535
81	969.6620631217957	fix_pre	0		120	79.0	2.5	/experiments/AOT/AOT_stimuli/rescaled_final/0540_fw.mp4	0.0	1038.9524991512299	0.9995489120483398
81	970.661612033844	movie	1		246	79.0	2.5	/experiments/AOT/AOT_stimuli/rescaled_final/0540_fw.mp4	0.0	1039.9520480632782	2.5000269412994385
81	971.0452790260315	pulse	1	t		79.0	2.5	/experiments/AOT/AOT_stimuli/rescaled_final/0540_fw.mp4	0.0	1040.3357150554657	
81	972.6455001831055	pulse	1	t		79.0	2.5	/experiments/AOT/AOT_stimuli/rescaled_final/0540_fw.mp4	0.0	1041.9359362125397	
81	973.1616389751434	fix_post	2		12	79.0	2.5	/experiments/AOT/AOT_stimuli/rescaled_final/0540_fw.mp4	0.0	1042.4520750045776	0.10037612915039062
82	973.2620151042938	fix_pre	0		119	80.0	2.5	/experiments/AOT/AOT_stimuli/rescaled_final/0240_fw.mp4	0.0	1042.552451133728	0.9916989803314209
82	974.2455451488495	pulse	0	t		80.0	2.5	/experiments/AOT/AOT_stimuli/rescaled_final/0240_fw.mp4	0.0	1043.5359811782837	
82	974.2537140846252	movie	1		245	80.0	2.5	/experiments/AOT/AOT_stimuli/rescaled_final/0240_fw.mp4	0.0	1043.5441501140594	2.508289098739624
82	975.8452920913696	pulse	1	t		80.0	2.5	/experiments/AOT/AOT_stimuli/rescaled_final/0240_fw.mp4	0.0	1045.1357281208038	
82	976.7620031833649	fix_post	2		12	80.0	2.5	/experiments/AOT/AOT_stimuli/rescaled_final/0240_fw.mp4	0.0	1046.052439212799	0.09967684745788574
83	976.8616800308228	fix_pre	0		120	81.0	2.5	/experiments/AOT/AOT_stimuli/rescaled_final/0875_rv.mp4	0.0	1046.152116060257	1.0003669261932373
83	977.4455089569092	pulse	0	t		81.0	2.5	/experiments/AOT/AOT_stimuli/rescaled_final/0875_rv.mp4	0.0	1046.7359449863434	
83	977.862046957016	movie	1		242	81.0	2.5	/experiments/AOT/AOT_stimuli/rescaled_final/0875_rv.mp4	0.0	1047.1524829864502	2.499523162841797
83	979.0456531047821	pulse	1	t		81.0	2.5	/experiments/AOT/AOT_stimuli/rescaled_final/0875_rv.mp4	0.0	1048.3360891342163	
83	980.3615701198578	fix_post	2		12	81.0	2.5	/experiments/AOT/AOT_stimuli/rescaled_final/0875_rv.mp4	0.0	1049.652006149292	0.10038995742797852
84	980.4619600772858	fix_pre	0		120	82.0	2.5	blank	1.0	1049.75239610672	1.0000979900360107
84	980.6454789638519	pulse	0	t		82.0	2.5	blank	1.0	1049.9359149932861	
84	981.4620580673218	movie	1		300	82.0	2.5	blank	1.0	1050.752494096756	2.49950909614563
84	982.2454521656036	pulse	1	t		82.0	2.5	blank	1.0	1051.5358881950378	
84	983.8454930782318	pulse	1	t		82.0	2.5	blank	1.0	1053.135929107666	
84	983.9615671634674	fix_post	2		12	82.0	2.5	blank	1.0	1053.2520031929016	0.10042786598205566
85	984.0619950294495	fix_pre	0		120	83.0	2.5	/experiments/AOT/AOT_stimuli/rescaled_final/0040_rv.mp4	0.0	1053.3524310588837	0.999993085861206
85	985.0619881153107	movie	1		244	83.0	2.5	/experiments/AOT/AOT_stimuli/rescaled_final/0040_rv.mp4	0.0	1054.3524241447449	2.500030994415283
85	985.4453401565552	pulse	1	t		83.0	2.5	/experiments/AOT/AOT_stimuli/rescaled_final/0040_rv.mp4	0.0	1054.7357761859894	
85	987.0455350875854	pulse	1	t		83.0	2.5	/experiments/AOT/AOT_stimuli/rescaled_final/0040_rv.mp4	0.0	1056.3359711170197	
85	987.562019109726	fix_post	2		12	83.0	2.5	/experiments/AOT/AOT_stimuli/rescaled_final/0040_rv.mp4	0.0	1056.8524551391602	0.09985685348510742
87	987.6618759632111	stim	0		1716					1056.9523119926453	14.300032138824463
87	988.6455070972443	pulse	0	t						1057.9359431266785	
87	990.2454600334167	pulse	0	t						1059.535896062851	
87	991.8454389572144	pulse	0	t						1061.1358749866486	
87	993.445484161377	pulse	0	t						1062.7359201908112	
87	995.0453929901123	pulse	0	t						1064.3358290195465	
87	996.6454021930695	pulse	0	t						1065.9358382225037	
87	998.2454521656036	pulse	0	t						1067.5358881950378	
87	999.8453180789948	pulse	0	t						1069.135754108429	
87	1001.4453041553497	pulse	0	t						1070.735740184784	
