trial_nr	onset	event_type	phase	response	nr_frames	movie_index	movie_duration	movie_file	blank	onset_abs	duration
0	0.20815205574035645	stim	0		108					32.674774169921875	0.9001150131225586
0	1.100189208984375	response	0	space						33.566811323165894	
1	1.108267068862915	stim	0		4889					33.574889183044434	40.75798010826111
1	41.840726137161255	pulse	0	t						74.30734825134277	
1	41.86624717712402	stim	1		1716					74.33286929130554	14.300314903259277
1	43.440556049346924	pulse	1	t						75.90717816352844	
1	45.04091715812683	pulse	1	t						77.50753927230835	
1	46.64103722572327	pulse	1	t						79.10765933990479	
1	48.24058222770691	pulse	1	t						80.70720434188843	
1	49.84064602851868	pulse	1	t						82.3072681427002	
1	51.44098401069641	pulse	1	t						83.90760612487793	
1	53.04113221168518	pulse	1	t						85.5077543258667	
1	54.641414165496826	pulse	1	t						87.10803627967834	
2	56.1665620803833	fix_pre	0		10	0.0	2.5	/experiments/knapen_AOT/AOT_stimuli/rescaled_final/0896_fw.mp4	0.0	88.63318419456482	0.08331108093261719
2	56.24181008338928	pulse	0	t		0.0	2.5	/experiments/knapen_AOT/AOT_stimuli/rescaled_final/0896_fw.mp4	0.0	88.7084321975708	
2	56.24987316131592	movie	1		242	0.0	2.5	/experiments/knapen_AOT/AOT_stimuli/rescaled_final/0896_fw.mp4	0.0	88.71649527549744	2.5086629390716553
2	57.846954107284546	pulse	1	t		0.0	2.5	/experiments/knapen_AOT/AOT_stimuli/rescaled_final/0896_fw.mp4	0.0	90.31357622146606	
2	58.75853610038757	fix_post	2		12	0.0	2.5	/experiments/knapen_AOT/AOT_stimuli/rescaled_final/0896_fw.mp4	0.0	91.22515821456909	0.10002613067626953
3	58.85856223106384	fix_pre	0		120	1.0	2.5	/experiments/knapen_AOT/AOT_stimuli/rescaled_final/0432_rv.mp4	0.0	91.32518434524536	1.000121831893921
3	59.44213914871216	pulse	0	t		1.0	2.5	/experiments/knapen_AOT/AOT_stimuli/rescaled_final/0432_rv.mp4	0.0	91.90876126289368	
3	59.858684062957764	movie	1		244	1.0	2.5	/experiments/knapen_AOT/AOT_stimuli/rescaled_final/0432_rv.mp4	0.0	92.32530617713928	2.500364065170288
3	61.0424690246582	pulse	1	t		1.0	2.5	/experiments/knapen_AOT/AOT_stimuli/rescaled_final/0432_rv.mp4	0.0	93.50909113883972	
3	62.35904812812805	fix_post	2		12	1.0	2.5	/experiments/knapen_AOT/AOT_stimuli/rescaled_final/0432_rv.mp4	0.0	94.82567024230957	0.10003805160522461
4	62.459086179733276	fix_pre	0		120	2.0	2.5	/experiments/knapen_AOT/AOT_stimuli/rescaled_final/1568_rv.mp4	0.0	94.9257082939148	1.0001590251922607
4	62.64278602600098	pulse	0	t		2.0	2.5	/experiments/knapen_AOT/AOT_stimuli/rescaled_final/1568_rv.mp4	0.0	95.1094081401825	
4	63.45924520492554	movie	1		244	2.0	2.5	/experiments/knapen_AOT/AOT_stimuli/rescaled_final/1568_rv.mp4	0.0	95.92586731910706	2.50034499168396
4	64.24297022819519	pulse	1	t		2.0	2.5	/experiments/knapen_AOT/AOT_stimuli/rescaled_final/1568_rv.mp4	0.0	96.70959234237671	
4	65.84324216842651	pulse	1	t		2.0	2.5	/experiments/knapen_AOT/AOT_stimuli/rescaled_final/1568_rv.mp4	0.0	98.30986428260803	
4	65.9595901966095	fix_post	2		12	2.0	2.5	/experiments/knapen_AOT/AOT_stimuli/rescaled_final/1568_rv.mp4	0.0	98.42621231079102	0.10003900527954102
5	66.05962920188904	fix_pre	0		120	3.0	2.5	/experiments/knapen_AOT/AOT_stimuli/rescaled_final/0154_rv.mp4	0.0	98.52625131607056	1.000196933746338
5	67.05982613563538	movie	1		244	3.0	2.5	/experiments/knapen_AOT/AOT_stimuli/rescaled_final/0154_rv.mp4	0.0	99.5264482498169	2.4919869899749756
5	67.44404602050781	pulse	1	t		3.0	2.5	/experiments/knapen_AOT/AOT_stimuli/rescaled_final/0154_rv.mp4	0.0	99.91066813468933	
5	69.04376912117004	pulse	1	t		3.0	2.5	/experiments/knapen_AOT/AOT_stimuli/rescaled_final/0154_rv.mp4	0.0	101.51039123535156	
5	69.55181312561035	fix_post	2		12	3.0	2.5	/experiments/knapen_AOT/AOT_stimuli/rescaled_final/0154_rv.mp4	0.0	102.01843523979187	0.10004305839538574
6	69.65185618400574	fix_pre	0		120	4.0	2.5	/experiments/knapen_AOT/AOT_stimuli/rescaled_final/0966_fw.mp4	0.0	102.11847829818726	1.0001749992370605
6	70.64396810531616	pulse	0	t		4.0	2.5	/experiments/knapen_AOT/AOT_stimuli/rescaled_final/0966_fw.mp4	0.0	103.11059021949768	
6	70.6520311832428	movie	1		246	4.0	2.5	/experiments/knapen_AOT/AOT_stimuli/rescaled_final/0966_fw.mp4	0.0	103.11865329742432	2.508671998977661
6	72.24448704719543	pulse	1	t		4.0	2.5	/experiments/knapen_AOT/AOT_stimuli/rescaled_final/0966_fw.mp4	0.0	104.71110916137695	
6	73.16070318222046	fix_post	2		12	4.0	2.5	/experiments/knapen_AOT/AOT_stimuli/rescaled_final/0966_fw.mp4	0.0	105.62732529640198	0.10004186630249023
7	73.26074504852295	fix_pre	0		120	5.0	2.5	blank	1.0	105.72736716270447	1.0001170635223389
7	73.84427118301392	pulse	0	t		5.0	2.5	blank	1.0	106.31089329719543	
7	74.26086211204529	movie	1		300	5.0	2.5	blank	1.0	106.7274842262268	2.500364065170288
7	75.44468522071838	pulse	1	t		5.0	2.5	blank	1.0	107.9113073348999	
7	76.76122617721558	fix_post	2		12	5.0	2.5	blank	1.0	109.2278482913971	0.10007095336914062
8	76.86129713058472	fix_pre	0		120	6.0	2.5	/experiments/knapen_AOT/AOT_stimuli/rescaled_final/1499_fw.mp4	0.0	109.32791924476624	1.0000889301300049
8	77.04491901397705	pulse	0	t		6.0	2.5	/experiments/knapen_AOT/AOT_stimuli/rescaled_final/1499_fw.mp4	0.0	109.51154112815857	
8	77.86138606071472	movie	1		244	6.0	2.5	/experiments/knapen_AOT/AOT_stimuli/rescaled_final/1499_fw.mp4	0.0	110.32800817489624	2.5003671646118164
8	78.64507102966309	pulse	1	t		6.0	2.5	/experiments/knapen_AOT/AOT_stimuli/rescaled_final/1499_fw.mp4	0.0	111.1116931438446	
8	80.24538516998291	pulse	1	t		6.0	2.5	/experiments/knapen_AOT/AOT_stimuli/rescaled_final/1499_fw.mp4	0.0	112.71200728416443	
8	80.36175322532654	fix_post	2		12	6.0	2.5	/experiments/knapen_AOT/AOT_stimuli/rescaled_final/1499_fw.mp4	0.0	112.82837533950806	0.10004997253417969
9	80.46180319786072	fix_pre	0		120	7.0	2.5	/experiments/knapen_AOT/AOT_stimuli/rescaled_final/1933_rv.mp4	0.0	112.92842531204224	1.000128984451294
9	81.46193218231201	movie	1		243	7.0	2.5	/experiments/knapen_AOT/AOT_stimuli/rescaled_final/1933_rv.mp4	0.0	113.92855429649353	2.4920690059661865
9	81.84616422653198	pulse	1	t		7.0	2.5	/experiments/knapen_AOT/AOT_stimuli/rescaled_final/1933_rv.mp4	0.0	114.3127863407135	
9	83.44589614868164	pulse	1	t		7.0	2.5	/experiments/knapen_AOT/AOT_stimuli/rescaled_final/1933_rv.mp4	0.0	115.91251826286316	
9	83.9540011882782	fix_post	2		12	7.0	2.5	/experiments/knapen_AOT/AOT_stimuli/rescaled_final/1933_rv.mp4	0.0	116.42062330245972	0.0999758243560791
10	84.05397701263428	fix_pre	0		120	8.0	2.5	/experiments/knapen_AOT/AOT_stimuli/rescaled_final/0167_rv.mp4	0.0	116.5205991268158	1.0001420974731445
10	85.04607319831848	pulse	0	t		8.0	2.5	/experiments/knapen_AOT/AOT_stimuli/rescaled_final/0167_rv.mp4	0.0	117.5126953125	
10	85.05411911010742	movie	1		244	8.0	2.5	/experiments/knapen_AOT/AOT_stimuli/rescaled_final/0167_rv.mp4	0.0	117.52074122428894	2.508704900741577
10	86.64679718017578	pulse	1	t		8.0	2.5	/experiments/knapen_AOT/AOT_stimuli/rescaled_final/0167_rv.mp4	0.0	119.1134192943573	
10	87.562824010849	fix_post	2		12	8.0	2.5	/experiments/knapen_AOT/AOT_stimuli/rescaled_final/0167_rv.mp4	0.0	120.02944612503052	0.10005712509155273
11	87.66288113594055	fix_pre	0		120	9.0	2.5	/experiments/knapen_AOT/AOT_stimuli/rescaled_final/2056_rv.mp4	0.0	120.12950325012207	1.0001120567321777
11	88.24645519256592	pulse	0	t		9.0	2.5	/experiments/knapen_AOT/AOT_stimuli/rescaled_final/2056_rv.mp4	0.0	120.71307730674744	
11	88.66299319267273	movie	1		245	9.0	2.5	/experiments/knapen_AOT/AOT_stimuli/rescaled_final/2056_rv.mp4	0.0	121.12961530685425	2.500356912612915
11	89.8467960357666	pulse	1	t		9.0	2.5	/experiments/knapen_AOT/AOT_stimuli/rescaled_final/2056_rv.mp4	0.0	122.31341814994812	
11	91.16335010528564	fix_post	2		12	9.0	2.5	/experiments/knapen_AOT/AOT_stimuli/rescaled_final/2056_rv.mp4	0.0	123.62997221946716	0.10009193420410156
12	91.26344203948975	fix_pre	0		120	10.0	2.5	/experiments/knapen_AOT/AOT_stimuli/rescaled_final/0776_fw.mp4	0.0	123.73006415367126	1.0001540184020996
12	91.44701218605042	pulse	0	t		10.0	2.5	/experiments/knapen_AOT/AOT_stimuli/rescaled_final/0776_fw.mp4	0.0	123.91363430023193	
12	92.26359605789185	movie	1		244	10.0	2.5	/experiments/knapen_AOT/AOT_stimuli/rescaled_final/0776_fw.mp4	0.0	124.73021817207336	2.5003271102905273
12	93.04716515541077	pulse	1	t		10.0	2.5	/experiments/knapen_AOT/AOT_stimuli/rescaled_final/0776_fw.mp4	0.0	125.51378726959229	
12	94.64745306968689	pulse	1	t		10.0	2.5	/experiments/knapen_AOT/AOT_stimuli/rescaled_final/0776_fw.mp4	0.0	127.11407518386841	
12	94.76392316818237	fix_post	2		12	10.0	2.5	/experiments/knapen_AOT/AOT_stimuli/rescaled_final/0776_fw.mp4	0.0	127.23054528236389	0.10001397132873535
13	94.86393713951111	fix_pre	0		120	11.0	2.5	/experiments/knapen_AOT/AOT_stimuli/rescaled_final/1131_rv.mp4	0.0	127.33055925369263	1.000140905380249
13	95.86407804489136	movie	1		243	11.0	2.5	/experiments/knapen_AOT/AOT_stimuli/rescaled_final/1131_rv.mp4	0.0	128.33070015907288	2.4920570850372314
13	96.24872708320618	pulse	1	t		11.0	2.5	/experiments/knapen_AOT/AOT_stimuli/rescaled_final/1131_rv.mp4	0.0	128.7153491973877	
13	97.84798812866211	pulse	1	t		11.0	2.5	/experiments/knapen_AOT/AOT_stimuli/rescaled_final/1131_rv.mp4	0.0	130.31461024284363	
13	98.35613512992859	fix_post	2		12	11.0	2.5	/experiments/knapen_AOT/AOT_stimuli/rescaled_final/1131_rv.mp4	0.0	130.8227572441101	0.10000991821289062
14	98.45614504814148	fix_pre	0		120	12.0	2.5	blank	1.0	130.922767162323	1.000209093093872
14	99.44813108444214	pulse	0	t		12.0	2.5	blank	1.0	131.91475319862366	
14	99.45635414123535	movie	1		301	12.0	2.5	blank	1.0	131.92297625541687	2.5086240768432617
14	101.04834604263306	pulse	1	t		12.0	2.5	blank	1.0	133.51496815681458	
14	101.96497821807861	fix_post	2		12	12.0	2.5	blank	1.0	134.43160033226013	0.10003185272216797
15	102.06501007080078	fix_pre	0		120	13.0	2.5	/experiments/knapen_AOT/AOT_stimuli/rescaled_final/0252_rv.mp4	0.0	134.5316321849823	1.0001640319824219
15	102.64108514785767	pulse	0	t		13.0	2.5	/experiments/knapen_AOT/AOT_stimuli/rescaled_final/0252_rv.mp4	0.0	135.10770726203918	
15	103.0651741027832	movie	1		244	13.0	2.5	/experiments/knapen_AOT/AOT_stimuli/rescaled_final/0252_rv.mp4	0.0	135.53179621696472	2.5003530979156494
15	104.24904012680054	pulse	1	t		13.0	2.5	/experiments/knapen_AOT/AOT_stimuli/rescaled_final/0252_rv.mp4	0.0	136.71566224098206	
15	105.56552720069885	fix_post	2		12	13.0	2.5	/experiments/knapen_AOT/AOT_stimuli/rescaled_final/0252_rv.mp4	0.0	138.03214931488037	0.10010981559753418
16	105.66563701629639	fix_pre	0		120	14.0	2.5	/experiments/knapen_AOT/AOT_stimuli/rescaled_final/1233_fw.mp4	0.0	138.1322591304779	1.0000941753387451
16	105.84167623519897	pulse	0	t		14.0	2.5	/experiments/knapen_AOT/AOT_stimuli/rescaled_final/1233_fw.mp4	0.0	138.3082983493805	
16	106.66573119163513	movie	1		244	14.0	2.5	/experiments/knapen_AOT/AOT_stimuli/rescaled_final/1233_fw.mp4	0.0	139.13235330581665	2.500349998474121
16	107.4421181678772	pulse	1	t		14.0	2.5	/experiments/knapen_AOT/AOT_stimuli/rescaled_final/1233_fw.mp4	0.0	139.90874028205872	
16	109.04151821136475	pulse	1	t		14.0	2.5	/experiments/knapen_AOT/AOT_stimuli/rescaled_final/1233_fw.mp4	0.0	141.50814032554626	
16	109.16608119010925	fix_post	2		12	14.0	2.5	/experiments/knapen_AOT/AOT_stimuli/rescaled_final/1233_fw.mp4	0.0	141.63270330429077	0.09996986389160156
17	109.26605105400085	fix_pre	0		115	15.0	2.5	/experiments/knapen_AOT/AOT_stimuli/rescaled_final/0366_fw.mp4	0.0	141.73267316818237	0.9918601512908936
17	110.25791120529175	movie	1		244	15.0	2.5	/experiments/knapen_AOT/AOT_stimuli/rescaled_final/0366_fw.mp4	0.0	142.72453331947327	2.500356912612915
17	110.64206123352051	pulse	1	t		15.0	2.5	/experiments/knapen_AOT/AOT_stimuli/rescaled_final/0366_fw.mp4	0.0	143.10868334770203	
17	112.24167799949646	pulse	1	t		15.0	2.5	/experiments/knapen_AOT/AOT_stimuli/rescaled_final/0366_fw.mp4	0.0	144.70830011367798	
17	112.75826811790466	fix_post	2		12	15.0	2.5	/experiments/knapen_AOT/AOT_stimuli/rescaled_final/0366_fw.mp4	0.0	145.22489023208618	0.10003399848937988
18	112.85830211639404	fix_pre	0		119	16.0	2.5	/experiments/knapen_AOT/AOT_stimuli/rescaled_final/1745_fw.mp4	0.0	145.32492423057556	0.9918560981750488
18	113.84194016456604	pulse	0	t		16.0	2.5	/experiments/knapen_AOT/AOT_stimuli/rescaled_final/1745_fw.mp4	0.0	146.30856227874756	
18	113.85015821456909	movie	1		244	16.0	2.5	/experiments/knapen_AOT/AOT_stimuli/rescaled_final/1745_fw.mp4	0.0	146.3167803287506	2.508739948272705
18	115.44281101226807	pulse	1	t		16.0	2.5	/experiments/knapen_AOT/AOT_stimuli/rescaled_final/1745_fw.mp4	0.0	147.90943312644958	
18	116.3588981628418	fix_post	2		12	16.0	2.5	/experiments/knapen_AOT/AOT_stimuli/rescaled_final/1745_fw.mp4	0.0	148.82552027702332	0.09994006156921387
19	116.45883822441101	fix_pre	0		120	17.0	2.5	/experiments/knapen_AOT/AOT_stimuli/rescaled_final/1457_rv.mp4	0.0	148.92546033859253	1.0001518726348877
19	117.04239821434021	pulse	0	t		17.0	2.5	/experiments/knapen_AOT/AOT_stimuli/rescaled_final/1457_rv.mp4	0.0	149.50902032852173	
19	117.4589900970459	movie	1		244	17.0	2.5	/experiments/knapen_AOT/AOT_stimuli/rescaled_final/1457_rv.mp4	0.0	149.92561221122742	2.5003340244293213
19	118.64280414581299	pulse	1	t		17.0	2.5	/experiments/knapen_AOT/AOT_stimuli/rescaled_final/1457_rv.mp4	0.0	151.1094262599945	
19	119.95932412147522	fix_post	2		12	17.0	2.5	/experiments/knapen_AOT/AOT_stimuli/rescaled_final/1457_rv.mp4	0.0	152.42594623565674	0.1000220775604248
20	120.05934619903564	fix_pre	0		120	18.0	2.5	/experiments/knapen_AOT/AOT_stimuli/rescaled_final/2167_fw.mp4	0.0	152.52596831321716	1.0001749992370605
20	120.24290704727173	pulse	0	t		18.0	2.5	/experiments/knapen_AOT/AOT_stimuli/rescaled_final/2167_fw.mp4	0.0	152.70952916145325	
20	121.0595211982727	movie	1		243	18.0	2.5	/experiments/knapen_AOT/AOT_stimuli/rescaled_final/2167_fw.mp4	0.0	153.52614331245422	2.5003418922424316
20	121.84323310852051	pulse	1	t		18.0	2.5	/experiments/knapen_AOT/AOT_stimuli/rescaled_final/2167_fw.mp4	0.0	154.30985522270203	
20	123.4432361125946	pulse	1	t		18.0	2.5	/experiments/knapen_AOT/AOT_stimuli/rescaled_final/2167_fw.mp4	0.0	155.90985822677612	
20	123.55986309051514	fix_post	2		12	18.0	2.5	/experiments/knapen_AOT/AOT_stimuli/rescaled_final/2167_fw.mp4	0.0	156.02648520469666	0.10004901885986328
21	123.659912109375	fix_pre	0		120	19.0	2.5	/experiments/knapen_AOT/AOT_stimuli/rescaled_final/1498_rv.mp4	0.0	156.12653422355652	1.0001370906829834
21	124.66004920005798	movie	1		243	19.0	2.5	/experiments/knapen_AOT/AOT_stimuli/rescaled_final/1498_rv.mp4	0.0	157.1266713142395	2.492029905319214
21	125.044105052948	pulse	1	t		19.0	2.5	/experiments/knapen_AOT/AOT_stimuli/rescaled_final/1498_rv.mp4	0.0	157.51072716712952	
21	126.64395904541016	pulse	1	t		19.0	2.5	/experiments/knapen_AOT/AOT_stimuli/rescaled_final/1498_rv.mp4	0.0	159.11058115959167	
21	127.1520791053772	fix_post	2		12	19.0	2.5	/experiments/knapen_AOT/AOT_stimuli/rescaled_final/1498_rv.mp4	0.0	159.61870121955872	0.10001993179321289
22	127.25209903717041	fix_pre	0		120	20.0	2.5	/experiments/knapen_AOT/AOT_stimuli/rescaled_final/0789_fw.mp4	0.0	159.71872115135193	1.0001749992370605
22	128.24422216415405	pulse	0	t		20.0	2.5	/experiments/knapen_AOT/AOT_stimuli/rescaled_final/0789_fw.mp4	0.0	160.71084427833557	
22	128.25227403640747	movie	1		245	20.0	2.5	/experiments/knapen_AOT/AOT_stimuli/rescaled_final/0789_fw.mp4	0.0	160.718896150589	2.5086941719055176
22	129.8451750278473	pulse	1	t		20.0	2.5	/experiments/knapen_AOT/AOT_stimuli/rescaled_final/0789_fw.mp4	0.0	162.3117971420288	
22	130.760968208313	fix_post	2		12	20.0	2.5	/experiments/knapen_AOT/AOT_stimuli/rescaled_final/0789_fw.mp4	0.0	163.2275903224945	0.10002279281616211
23	130.86099100112915	fix_pre	0		120	21.0	2.5	blank	1.0	163.32761311531067	1.0001580715179443
23	131.4446132183075	pulse	0	t		21.0	2.5	blank	1.0	163.911235332489	
23	131.8611490726471	movie	1		300	21.0	2.5	blank	1.0	164.3277711868286	2.500339984893799
23	133.0448751449585	pulse	1	t		21.0	2.5	blank	1.0	165.51149725914001	
23	134.3614890575409	fix_post	2		12	21.0	2.5	blank	1.0	166.8281111717224	0.10006999969482422
24	134.46155905723572	fix_pre	0		120	22.0	2.5	/experiments/knapen_AOT/AOT_stimuli/rescaled_final/0535_fw.mp4	0.0	166.92818117141724	1.0000970363616943
24	134.64518117904663	pulse	0	t		22.0	2.5	/experiments/knapen_AOT/AOT_stimuli/rescaled_final/0535_fw.mp4	0.0	167.11180329322815	
24	135.4616560935974	movie	1		243	22.0	2.5	/experiments/knapen_AOT/AOT_stimuli/rescaled_final/0535_fw.mp4	0.0	167.92827820777893	2.500356912612915
24	136.24527716636658	pulse	1	t		22.0	2.5	/experiments/knapen_AOT/AOT_stimuli/rescaled_final/0535_fw.mp4	0.0	168.7118992805481	
24	137.8453872203827	pulse	1	t		22.0	2.5	/experiments/knapen_AOT/AOT_stimuli/rescaled_final/0535_fw.mp4	0.0	170.3120093345642	
24	137.96201300621033	fix_post	2		12	22.0	2.5	/experiments/knapen_AOT/AOT_stimuli/rescaled_final/0535_fw.mp4	0.0	170.42863512039185	0.10000920295715332
25	138.06202220916748	fix_pre	0		120	23.0	2.5	/experiments/knapen_AOT/AOT_stimuli/rescaled_final/2011_rv.mp4	0.0	170.528644323349	1.000196933746338
25	139.06221914291382	movie	1		244	23.0	2.5	/experiments/knapen_AOT/AOT_stimuli/rescaled_final/2011_rv.mp4	0.0	171.52884125709534	2.4920220375061035
25	139.44713616371155	pulse	1	t		23.0	2.5	/experiments/knapen_AOT/AOT_stimuli/rescaled_final/2011_rv.mp4	0.0	171.91375827789307	
25	141.04606223106384	pulse	1	t		23.0	2.5	/experiments/knapen_AOT/AOT_stimuli/rescaled_final/2011_rv.mp4	0.0	173.51268434524536	
25	141.55424118041992	fix_post	2		12	23.0	2.5	/experiments/knapen_AOT/AOT_stimuli/rescaled_final/2011_rv.mp4	0.0	174.02086329460144	0.10000205039978027
26	141.6542432308197	fix_pre	0		120	24.0	2.5	/experiments/knapen_AOT/AOT_stimuli/rescaled_final/1188_fw.mp4	0.0	174.12086534500122	1.000173807144165
26	142.64631819725037	pulse	0	t		24.0	2.5	/experiments/knapen_AOT/AOT_stimuli/rescaled_final/1188_fw.mp4	0.0	175.11294031143188	
26	142.65441703796387	movie	1		245	24.0	2.5	/experiments/knapen_AOT/AOT_stimuli/rescaled_final/1188_fw.mp4	0.0	175.12103915214539	2.5086829662323
26	144.24797916412354	pulse	1	t		24.0	2.5	/experiments/knapen_AOT/AOT_stimuli/rescaled_final/1188_fw.mp4	0.0	176.71460127830505	
26	145.16310000419617	fix_post	2		12	24.0	2.5	/experiments/knapen_AOT/AOT_stimuli/rescaled_final/1188_fw.mp4	0.0	177.62972211837769	0.10003113746643066
27	145.2631311416626	fix_pre	0		120	25.0	2.5	/experiments/knapen_AOT/AOT_stimuli/rescaled_final/0535_fw.mp4	0.0	177.72975325584412	1.0001559257507324
27	145.84673404693604	pulse	0	t		25.0	2.5	/experiments/knapen_AOT/AOT_stimuli/rescaled_final/0535_fw.mp4	0.0	178.31335616111755	
27	146.26328706741333	movie	1		243	25.0	2.5	/experiments/knapen_AOT/AOT_stimuli/rescaled_final/0535_fw.mp4	0.0	178.72990918159485	2.5003700256347656
27	147.4470820426941	pulse	1	t		25.0	2.5	/experiments/knapen_AOT/AOT_stimuli/rescaled_final/0535_fw.mp4	0.0	179.9137041568756	
27	148.7636570930481	fix_post	2		12	25.0	2.5	/experiments/knapen_AOT/AOT_stimuli/rescaled_final/0535_fw.mp4	0.0	181.23027920722961	0.09998393058776855
28	148.86364102363586	fix_pre	0		120	26.0	2.5	/experiments/knapen_AOT/AOT_stimuli/rescaled_final/2009_fw.mp4	0.0	181.33026313781738	1.0001740455627441
28	149.04726314544678	pulse	0	t		26.0	2.5	/experiments/knapen_AOT/AOT_stimuli/rescaled_final/2009_fw.mp4	0.0	181.5138852596283	
28	149.8638150691986	movie	1		246	26.0	2.5	/experiments/knapen_AOT/AOT_stimuli/rescaled_final/2009_fw.mp4	0.0	182.33043718338013	2.500368118286133
28	150.64753603935242	pulse	1	t		26.0	2.5	/experiments/knapen_AOT/AOT_stimuli/rescaled_final/2009_fw.mp4	0.0	183.11415815353394	
28	152.2477560043335	pulse	1	t		26.0	2.5	/experiments/knapen_AOT/AOT_stimuli/rescaled_final/2009_fw.mp4	0.0	184.71437811851501	
28	152.36418318748474	fix_post	2		12	26.0	2.5	/experiments/knapen_AOT/AOT_stimuli/rescaled_final/2009_fw.mp4	0.0	184.83080530166626	0.10001301765441895
29	152.46419620513916	fix_pre	0		120	27.0	2.5	/experiments/knapen_AOT/AOT_stimuli/rescaled_final/1912_fw.mp4	0.0	184.93081831932068	1.0001540184020996
29	153.46435022354126	movie	1		245	27.0	2.5	/experiments/knapen_AOT/AOT_stimuli/rescaled_final/1912_fw.mp4	0.0	185.93097233772278	2.492002010345459
29	153.8485860824585	pulse	1	t		27.0	2.5	/experiments/knapen_AOT/AOT_stimuli/rescaled_final/1912_fw.mp4	0.0	186.31520819664001	
29	155.44090104103088	pulse	1	t		27.0	2.5	/experiments/knapen_AOT/AOT_stimuli/rescaled_final/1912_fw.mp4	0.0	187.9075231552124	
29	155.95635223388672	fix_post	2		12	27.0	2.5	/experiments/knapen_AOT/AOT_stimuli/rescaled_final/1912_fw.mp4	0.0	188.42297434806824	0.10004878044128418
30	156.056401014328	fix_pre	0		120	28.0	2.5	blank	1.0	188.52302312850952	1.0002641677856445
30	157.04085111618042	pulse	0	t		28.0	2.5	blank	1.0	189.50747323036194	
30	157.05666518211365	movie	1		301	28.0	2.5	blank	1.0	189.52328729629517	2.5086278915405273
30	158.64111304283142	pulse	1	t		28.0	2.5	blank	1.0	191.10773515701294	
30	159.56529307365417	fix_post	2		12	28.0	2.5	blank	1.0	192.0319151878357	0.09998703002929688
31	159.66528010368347	fix_pre	0		120	29.0	2.5	/experiments/knapen_AOT/AOT_stimuli/rescaled_final/1813_fw.mp4	0.0	192.131902217865	1.0002551078796387
31	160.24147009849548	pulse	0	t		29.0	2.5	/experiments/knapen_AOT/AOT_stimuli/rescaled_final/1813_fw.mp4	0.0	192.708092212677	
31	160.6655352115631	movie	1		245	29.0	2.5	/experiments/knapen_AOT/AOT_stimuli/rescaled_final/1813_fw.mp4	0.0	193.13215732574463	2.500257968902588
31	161.84118604660034	pulse	1	t		29.0	2.5	/experiments/knapen_AOT/AOT_stimuli/rescaled_final/1813_fw.mp4	0.0	194.30780816078186	
31	163.1657931804657	fix_post	2		12	29.0	2.5	/experiments/knapen_AOT/AOT_stimuli/rescaled_final/1813_fw.mp4	0.0	195.63241529464722	0.10008001327514648
32	163.26587319374084	fix_pre	0		120	30.0	2.5	/experiments/knapen_AOT/AOT_stimuli/rescaled_final/1217_rv.mp4	0.0	195.73249530792236	1.0001180171966553
32	163.44109916687012	pulse	0	t		30.0	2.5	/experiments/knapen_AOT/AOT_stimuli/rescaled_final/1217_rv.mp4	0.0	195.90772128105164	
32	164.2659912109375	movie	1		243	30.0	2.5	/experiments/knapen_AOT/AOT_stimuli/rescaled_final/1217_rv.mp4	0.0	196.73261332511902	2.4920120239257812
32	165.04123616218567	pulse	1	t		30.0	2.5	/experiments/knapen_AOT/AOT_stimuli/rescaled_final/1217_rv.mp4	0.0	197.5078582763672	
32	166.64147400856018	pulse	1	t		30.0	2.5	/experiments/knapen_AOT/AOT_stimuli/rescaled_final/1217_rv.mp4	0.0	199.1080961227417	
32	166.75800323486328	fix_post	2		12	30.0	2.5	/experiments/knapen_AOT/AOT_stimuli/rescaled_final/1217_rv.mp4	0.0	199.2246253490448	0.10001683235168457
33	166.85802006721497	fix_pre	0		120	31.0	2.5	/experiments/knapen_AOT/AOT_stimuli/rescaled_final/0596_rv.mp4	0.0	199.32464218139648	1.000157117843628
33	167.8581771850586	movie	1		244	31.0	2.5	/experiments/knapen_AOT/AOT_stimuli/rescaled_final/0596_rv.mp4	0.0	200.3247992992401	2.5005128383636475
33	168.24225616455078	pulse	1	t		31.0	2.5	/experiments/knapen_AOT/AOT_stimuli/rescaled_final/0596_rv.mp4	0.0	200.7088782787323	
33	169.8420250415802	pulse	1	t		31.0	2.5	/experiments/knapen_AOT/AOT_stimuli/rescaled_final/0596_rv.mp4	0.0	202.30864715576172	
33	170.35869002342224	fix_post	2		11	31.0	2.5	/experiments/knapen_AOT/AOT_stimuli/rescaled_final/0596_rv.mp4	0.0	202.82531213760376	0.09987807273864746
34	170.4585680961609	fix_pre	0		119	32.0	2.5	/experiments/knapen_AOT/AOT_stimuli/rescaled_final/1702_fw.mp4	0.0	202.9251902103424	0.991847038269043
34	171.44220113754272	pulse	0	t		32.0	2.5	/experiments/knapen_AOT/AOT_stimuli/rescaled_final/1702_fw.mp4	0.0	203.90882325172424	
34	171.45041513442993	movie	1		244	32.0	2.5	/experiments/knapen_AOT/AOT_stimuli/rescaled_final/1702_fw.mp4	0.0	203.91703724861145	2.508702039718628
34	173.04305410385132	pulse	1	t		32.0	2.5	/experiments/knapen_AOT/AOT_stimuli/rescaled_final/1702_fw.mp4	0.0	205.50967621803284	
34	173.95911717414856	fix_post	2		12	32.0	2.5	/experiments/knapen_AOT/AOT_stimuli/rescaled_final/1702_fw.mp4	0.0	206.42573928833008	0.09997200965881348
35	174.05908918380737	fix_pre	0		120	33.0	2.5	/experiments/knapen_AOT/AOT_stimuli/rescaled_final/0674_fw.mp4	0.0	206.5257112979889	1.000147819519043
35	174.6428291797638	pulse	0	t		33.0	2.5	/experiments/knapen_AOT/AOT_stimuli/rescaled_final/0674_fw.mp4	0.0	207.1094512939453	
35	175.05923700332642	movie	1		244	33.0	2.5	/experiments/knapen_AOT/AOT_stimuli/rescaled_final/0674_fw.mp4	0.0	207.52585911750793	2.5003840923309326
35	176.24314308166504	pulse	1	t		33.0	2.5	/experiments/knapen_AOT/AOT_stimuli/rescaled_final/0674_fw.mp4	0.0	208.70976519584656	
35	177.55962109565735	fix_post	2		12	33.0	2.5	/experiments/knapen_AOT/AOT_stimuli/rescaled_final/0674_fw.mp4	0.0	210.02624320983887	0.10002899169921875
36	177.65965008735657	fix_pre	0		120	34.0	2.5	blank	1.0	210.1262722015381	1.000133991241455
36	177.84316515922546	pulse	0	t		34.0	2.5	blank	1.0	210.30978727340698	
36	178.65978407859802	movie	1		300	34.0	2.5	blank	1.0	211.12640619277954	2.500375986099243
36	179.4434130191803	pulse	1	t		34.0	2.5	blank	1.0	211.91003513336182	
36	181.04374718666077	pulse	1	t		34.0	2.5	blank	1.0	213.51036930084229	
36	181.16016006469727	fix_post	2		12	34.0	2.5	blank	1.0	213.62678217887878	0.100006103515625
37	181.2601661682129	fix_pre	0		120	35.0	2.5	/experiments/knapen_AOT/AOT_stimuli/rescaled_final/0587_rv.mp4	0.0	213.7267882823944	1.0001728534698486
37	182.26033902168274	movie	1		243	35.0	2.5	/experiments/knapen_AOT/AOT_stimuli/rescaled_final/0587_rv.mp4	0.0	214.72696113586426	2.4920310974121094
37	182.64443516731262	pulse	1	t		35.0	2.5	/experiments/knapen_AOT/AOT_stimuli/rescaled_final/0587_rv.mp4	0.0	215.11105728149414	
37	184.24415016174316	pulse	1	t		35.0	2.5	/experiments/knapen_AOT/AOT_stimuli/rescaled_final/0587_rv.mp4	0.0	216.71077227592468	
37	184.75237011909485	fix_post	2		12	35.0	2.5	/experiments/knapen_AOT/AOT_stimuli/rescaled_final/0587_rv.mp4	0.0	217.21899223327637	0.09998893737792969
38	184.85235905647278	fix_pre	0		120	36.0	2.5	/experiments/knapen_AOT/AOT_stimuli/rescaled_final/0069_fw.mp4	0.0	217.3189811706543	1.0002110004425049
38	185.84433913230896	pulse	0	t		36.0	2.5	/experiments/knapen_AOT/AOT_stimuli/rescaled_final/0069_fw.mp4	0.0	218.31096124649048	
38	185.85257005691528	movie	1		246	36.0	2.5	/experiments/knapen_AOT/AOT_stimuli/rescaled_final/0069_fw.mp4	0.0	218.3191921710968	2.5086519718170166
38	187.44589614868164	pulse	1	t		36.0	2.5	/experiments/knapen_AOT/AOT_stimuli/rescaled_final/0069_fw.mp4	0.0	219.91251826286316	
38	188.3612220287323	fix_post	2		12	36.0	2.5	/experiments/knapen_AOT/AOT_stimuli/rescaled_final/0069_fw.mp4	0.0	220.82784414291382	0.10004019737243652
39	188.46126222610474	fix_pre	0		120	37.0	2.5	/experiments/knapen_AOT/AOT_stimuli/rescaled_final/1880_rv.mp4	0.0	220.92788434028625	1.0001490116119385
39	189.04500722885132	pulse	0	t		37.0	2.5	/experiments/knapen_AOT/AOT_stimuli/rescaled_final/1880_rv.mp4	0.0	221.51162934303284	
39	189.46141123771667	movie	1		244	37.0	2.5	/experiments/knapen_AOT/AOT_stimuli/rescaled_final/1880_rv.mp4	0.0	221.9280333518982	2.500349998474121
39	190.64521408081055	pulse	1	t		37.0	2.5	/experiments/knapen_AOT/AOT_stimuli/rescaled_final/1880_rv.mp4	0.0	223.11183619499207	
39	191.9617612361908	fix_post	2		12	37.0	2.5	/experiments/knapen_AOT/AOT_stimuli/rescaled_final/1880_rv.mp4	0.0	224.42838335037231	0.10002899169921875
40	192.06179022789001	fix_pre	0		120	38.0	2.5	/experiments/knapen_AOT/AOT_stimuli/rescaled_final/1108_rv.mp4	0.0	224.52841234207153	1.000166893005371
40	192.24532222747803	pulse	0	t		38.0	2.5	/experiments/knapen_AOT/AOT_stimuli/rescaled_final/1108_rv.mp4	0.0	224.71194434165955	
40	193.06195712089539	movie	1		244	38.0	2.5	/experiments/knapen_AOT/AOT_stimuli/rescaled_final/1108_rv.mp4	0.0	225.5285792350769	2.50034499168396
40	193.84569001197815	pulse	1	t		38.0	2.5	/experiments/knapen_AOT/AOT_stimuli/rescaled_final/1108_rv.mp4	0.0	226.31231212615967	
40	195.44945907592773	pulse	1	t		38.0	2.5	/experiments/knapen_AOT/AOT_stimuli/rescaled_final/1108_rv.mp4	0.0	227.91608119010925	
40	195.56230211257935	fix_post	2		12	38.0	2.5	/experiments/knapen_AOT/AOT_stimuli/rescaled_final/1108_rv.mp4	0.0	228.02892422676086	0.10000991821289062
41	195.66231203079224	fix_pre	0		119	39.0	2.5	/experiments/knapen_AOT/AOT_stimuli/rescaled_final/2011_rv.mp4	0.0	228.12893414497375	0.9918391704559326
41	196.65415120124817	movie	1		245	39.0	2.5	/experiments/knapen_AOT/AOT_stimuli/rescaled_final/2011_rv.mp4	0.0	229.1207733154297	2.50038480758667
41	197.04628610610962	pulse	1	t		39.0	2.5	/experiments/knapen_AOT/AOT_stimuli/rescaled_final/2011_rv.mp4	0.0	229.51290822029114	
41	198.64629411697388	pulse	1	t		39.0	2.5	/experiments/knapen_AOT/AOT_stimuli/rescaled_final/2011_rv.mp4	0.0	231.1129162311554	
41	199.15453600883484	fix_post	2		12	39.0	2.5	/experiments/knapen_AOT/AOT_stimuli/rescaled_final/2011_rv.mp4	0.0	231.62115812301636	0.09998512268066406
42	199.2545211315155	fix_pre	0		120	40.0	2.5	blank	1.0	231.72114324569702	1.0002269744873047
42	200.24657106399536	pulse	0	t		40.0	2.5	blank	1.0	232.71319317817688	
42	200.2547481060028	movie	1		301	40.0	2.5	blank	1.0	232.72137022018433	2.5086429119110107
42	201.84686303138733	pulse	1	t		40.0	2.5	blank	1.0	234.31348514556885	
42	202.76339101791382	fix_post	2		12	40.0	2.5	blank	1.0	235.23001313209534	0.09999918937683105
43	202.86339020729065	fix_pre	0		120	41.0	2.5	/experiments/knapen_AOT/AOT_stimuli/rescaled_final/0137_fw.mp4	0.0	235.33001232147217	1.0001718997955322
43	203.4471070766449	pulse	0	t		41.0	2.5	/experiments/knapen_AOT/AOT_stimuli/rescaled_final/0137_fw.mp4	0.0	235.91372919082642	
43	203.86356210708618	movie	1		243	41.0	2.5	/experiments/knapen_AOT/AOT_stimuli/rescaled_final/0137_fw.mp4	0.0	236.3301842212677	2.500330924987793
43	205.0474090576172	pulse	1	t		41.0	2.5	/experiments/knapen_AOT/AOT_stimuli/rescaled_final/0137_fw.mp4	0.0	237.5140311717987	
43	206.36389303207397	fix_post	2		12	41.0	2.5	/experiments/knapen_AOT/AOT_stimuli/rescaled_final/0137_fw.mp4	0.0	238.8305151462555	0.1000511646270752
44	206.46394419670105	fix_pre	0		120	42.0	2.5	/experiments/knapen_AOT/AOT_stimuli/rescaled_final/0612_rv.mp4	0.0	238.93056631088257	1.0001559257507324
44	206.64747619628906	pulse	0	t		42.0	2.5	/experiments/knapen_AOT/AOT_stimuli/rescaled_final/0612_rv.mp4	0.0	239.11409831047058	
44	207.46410012245178	movie	1		244	42.0	2.5	/experiments/knapen_AOT/AOT_stimuli/rescaled_final/0612_rv.mp4	0.0	239.9307222366333	2.500339984893799
44	208.24785900115967	pulse	1	t		42.0	2.5	/experiments/knapen_AOT/AOT_stimuli/rescaled_final/0612_rv.mp4	0.0	240.7144811153412	
44	209.84796404838562	pulse	1	t		42.0	2.5	/experiments/knapen_AOT/AOT_stimuli/rescaled_final/0612_rv.mp4	0.0	242.31458616256714	
44	209.96444010734558	fix_post	2		12	42.0	2.5	/experiments/knapen_AOT/AOT_stimuli/rescaled_final/0612_rv.mp4	0.0	242.4310622215271	0.1000370979309082
45	210.0644772052765	fix_pre	0		119	43.0	2.5	/experiments/knapen_AOT/AOT_stimuli/rescaled_final/1053_fw.mp4	0.0	242.531099319458	0.9918229579925537
45	211.05630016326904	movie	1		243	43.0	2.5	/experiments/knapen_AOT/AOT_stimuli/rescaled_final/1053_fw.mp4	0.0	243.52292227745056	2.500375986099243
45	211.44835114479065	pulse	1	t		43.0	2.5	/experiments/knapen_AOT/AOT_stimuli/rescaled_final/1053_fw.mp4	0.0	243.91497325897217	
45	213.04107308387756	pulse	1	t		43.0	2.5	/experiments/knapen_AOT/AOT_stimuli/rescaled_final/1053_fw.mp4	0.0	245.50769519805908	
45	213.5566761493683	fix_post	2		12	43.0	2.5	/experiments/knapen_AOT/AOT_stimuli/rescaled_final/1053_fw.mp4	0.0	246.0232982635498	0.10005807876586914
46	213.65673422813416	fix_pre	0		120	44.0	2.5	/experiments/knapen_AOT/AOT_stimuli/rescaled_final/0851_rv.mp4	0.0	246.12335634231567	1.0001449584960938
46	214.64113116264343	pulse	0	t		44.0	2.5	/experiments/knapen_AOT/AOT_stimuli/rescaled_final/0851_rv.mp4	0.0	247.10775327682495	
46	214.65687918663025	movie	1		245	44.0	2.5	/experiments/knapen_AOT/AOT_stimuli/rescaled_final/0851_rv.mp4	0.0	247.12350130081177	2.5086798667907715
46	216.24060916900635	pulse	1	t		44.0	2.5	/experiments/knapen_AOT/AOT_stimuli/rescaled_final/0851_rv.mp4	0.0	248.70723128318787	
46	217.16555905342102	fix_post	2		12	44.0	2.5	/experiments/knapen_AOT/AOT_stimuli/rescaled_final/0851_rv.mp4	0.0	249.63218116760254	0.10004615783691406
47	217.26560521125793	fix_pre	0		120	45.0	2.5	/experiments/knapen_AOT/AOT_stimuli/rescaled_final/1217_rv.mp4	0.0	249.73222732543945	1.0001788139343262
47	217.84080410003662	pulse	0	t		45.0	2.5	/experiments/knapen_AOT/AOT_stimuli/rescaled_final/1217_rv.mp4	0.0	250.30742621421814	
47	218.26578402519226	movie	1		244	45.0	2.5	/experiments/knapen_AOT/AOT_stimuli/rescaled_final/1217_rv.mp4	0.0	250.73240613937378	2.5002942085266113
47	219.44227409362793	pulse	1	t		45.0	2.5	/experiments/knapen_AOT/AOT_stimuli/rescaled_final/1217_rv.mp4	0.0	251.90889620780945	
47	220.76607823371887	fix_post	2		12	45.0	2.5	/experiments/knapen_AOT/AOT_stimuli/rescaled_final/1217_rv.mp4	0.0	253.2327003479004	0.10000491142272949
48	220.8660831451416	fix_pre	0		120	46.0	2.5	/experiments/knapen_AOT/AOT_stimuli/rescaled_final/0811_fw.mp4	0.0	253.33270525932312	1.0001800060272217
48	221.04128623008728	pulse	0	t		46.0	2.5	/experiments/knapen_AOT/AOT_stimuli/rescaled_final/0811_fw.mp4	0.0	253.5079083442688	
48	221.86626315116882	movie	1		244	46.0	2.5	/experiments/knapen_AOT/AOT_stimuli/rescaled_final/0811_fw.mp4	0.0	254.33288526535034	2.4920239448547363
48	222.64164900779724	pulse	1	t		46.0	2.5	/experiments/knapen_AOT/AOT_stimuli/rescaled_final/0811_fw.mp4	0.0	255.10827112197876	
48	224.2417860031128	pulse	1	t		46.0	2.5	/experiments/knapen_AOT/AOT_stimuli/rescaled_final/0811_fw.mp4	0.0	256.7084081172943	
48	224.35828709602356	fix_post	2		12	46.0	2.5	/experiments/knapen_AOT/AOT_stimuli/rescaled_final/0811_fw.mp4	0.0	256.8249092102051	0.1000969409942627
49	224.45838403701782	fix_pre	0		120	47.0	2.5	blank	1.0	256.92500615119934	1.000089168548584
49	225.4584732055664	movie	1		300	47.0	2.5	blank	1.0	257.9250953197479	2.50032901763916
49	225.8420181274414	pulse	1	t		47.0	2.5	blank	1.0	258.3086402416229	
49	227.44220900535583	pulse	1	t		47.0	2.5	blank	1.0	259.90883111953735	
49	227.95880222320557	fix_post	2		12	47.0	2.5	blank	1.0	260.4254243373871	0.10004997253417969
50	228.05885219573975	fix_pre	0		118	48.0	2.5	/experiments/knapen_AOT/AOT_stimuli/rescaled_final/0213_fw.mp4	0.0	260.52547430992126	0.9917819499969482
50	229.04260516166687	pulse	0	t		48.0	2.5	/experiments/knapen_AOT/AOT_stimuli/rescaled_final/0213_fw.mp4	0.0	261.5092272758484	
50	229.0506341457367	movie	1		246	48.0	2.5	/experiments/knapen_AOT/AOT_stimuli/rescaled_final/0213_fw.mp4	0.0	261.5172562599182	2.5086848735809326
50	230.64317202568054	pulse	1	t		48.0	2.5	/experiments/knapen_AOT/AOT_stimuli/rescaled_final/0213_fw.mp4	0.0	263.10979413986206	
50	231.55931901931763	fix_post	2		12	48.0	2.5	/experiments/knapen_AOT/AOT_stimuli/rescaled_final/0213_fw.mp4	0.0	264.02594113349915	0.10007119178771973
51	231.65939021110535	fix_pre	0		120	49.0	2.5	/experiments/knapen_AOT/AOT_stimuli/rescaled_final/1762_fw.mp4	0.0	264.12601232528687	1.0001578330993652
51	232.24298810958862	pulse	0	t		49.0	2.5	/experiments/knapen_AOT/AOT_stimuli/rescaled_final/1762_fw.mp4	0.0	264.70961022377014	
51	232.6595480442047	movie	1		243	49.0	2.5	/experiments/knapen_AOT/AOT_stimuli/rescaled_final/1762_fw.mp4	0.0	265.12617015838623	2.500317096710205
51	233.84326004981995	pulse	1	t		49.0	2.5	/experiments/knapen_AOT/AOT_stimuli/rescaled_final/1762_fw.mp4	0.0	266.30988216400146	
51	235.15986514091492	fix_post	2		12	49.0	2.5	/experiments/knapen_AOT/AOT_stimuli/rescaled_final/1762_fw.mp4	0.0	267.62648725509644	0.10004806518554688
52	235.25991320610046	fix_pre	0		120	50.0	2.5	/experiments/knapen_AOT/AOT_stimuli/rescaled_final/0414_rv.mp4	0.0	267.726535320282	1.0001318454742432
52	235.44352316856384	pulse	0	t		50.0	2.5	/experiments/knapen_AOT/AOT_stimuli/rescaled_final/0414_rv.mp4	0.0	267.91014528274536	
52	236.2600450515747	movie	1		243	50.0	2.5	/experiments/knapen_AOT/AOT_stimuli/rescaled_final/0414_rv.mp4	0.0	268.7266671657562	2.5003981590270996
52	237.0437650680542	pulse	1	t		50.0	2.5	/experiments/knapen_AOT/AOT_stimuli/rescaled_final/0414_rv.mp4	0.0	269.5103871822357	
52	238.64400911331177	pulse	1	t		50.0	2.5	/experiments/knapen_AOT/AOT_stimuli/rescaled_final/0414_rv.mp4	0.0	271.1106312274933	
52	238.7604432106018	fix_post	2		12	50.0	2.5	/experiments/knapen_AOT/AOT_stimuli/rescaled_final/0414_rv.mp4	0.0	271.2270653247833	0.10001897811889648
53	238.8604621887207	fix_pre	0		120	51.0	2.5	/experiments/knapen_AOT/AOT_stimuli/rescaled_final/0072_fw.mp4	0.0	271.3270843029022	1.0001909732818604
53	239.86065316200256	movie	1		244	51.0	2.5	/experiments/knapen_AOT/AOT_stimuli/rescaled_final/0072_fw.mp4	0.0	272.3272752761841	2.4919869899749756
53	240.24479007720947	pulse	1	t		51.0	2.5	/experiments/knapen_AOT/AOT_stimuli/rescaled_final/0072_fw.mp4	0.0	272.711412191391	
53	241.84437608718872	pulse	1	t		51.0	2.5	/experiments/knapen_AOT/AOT_stimuli/rescaled_final/0072_fw.mp4	0.0	274.31099820137024	
53	242.35264015197754	fix_post	2		12	51.0	2.5	/experiments/knapen_AOT/AOT_stimuli/rescaled_final/0072_fw.mp4	0.0	274.81926226615906	0.10001301765441895
54	242.45265316963196	fix_pre	0		120	52.0	2.5	/experiments/knapen_AOT/AOT_stimuli/rescaled_final/0146_rv.mp4	0.0	274.9192752838135	1.0001499652862549
54	243.444726228714	pulse	0	t		52.0	2.5	/experiments/knapen_AOT/AOT_stimuli/rescaled_final/0146_rv.mp4	0.0	275.9113483428955	
54	243.4528031349182	movie	1		245	52.0	2.5	/experiments/knapen_AOT/AOT_stimuli/rescaled_final/0146_rv.mp4	0.0	275.91942524909973	2.5086920261383057
54	245.046156167984	pulse	1	t		52.0	2.5	/experiments/knapen_AOT/AOT_stimuli/rescaled_final/0146_rv.mp4	0.0	277.5127782821655	
54	245.96149516105652	fix_post	2		12	52.0	2.5	/experiments/knapen_AOT/AOT_stimuli/rescaled_final/0146_rv.mp4	0.0	278.42811727523804	0.1000368595123291
55	246.06153202056885	fix_pre	0		120	53.0	2.5	/experiments/knapen_AOT/AOT_stimuli/rescaled_final/0672_rv.mp4	0.0	278.52815413475037	1.0001351833343506
55	246.645170211792	pulse	0	t		53.0	2.5	/experiments/knapen_AOT/AOT_stimuli/rescaled_final/0672_rv.mp4	0.0	279.1117923259735	
55	247.0616672039032	movie	1		243	53.0	2.5	/experiments/knapen_AOT/AOT_stimuli/rescaled_final/0672_rv.mp4	0.0	279.5282893180847	2.5003318786621094
55	248.2455232143402	pulse	1	t		53.0	2.5	/experiments/knapen_AOT/AOT_stimuli/rescaled_final/0672_rv.mp4	0.0	280.71214532852173	
55	249.5619990825653	fix_post	2		12	53.0	2.5	/experiments/knapen_AOT/AOT_stimuli/rescaled_final/0672_rv.mp4	0.0	282.0286211967468	0.10007309913635254
56	249.66207218170166	fix_pre	0		120	54.0	2.5	blank	1.0	282.1286942958832	1.0001540184020996
56	249.8457260131836	pulse	0	t		54.0	2.5	blank	1.0	282.3123481273651	
56	250.66222620010376	movie	1		300	54.0	2.5	blank	1.0	283.1288483142853	2.5003609657287598
56	251.44596910476685	pulse	1	t		54.0	2.5	blank	1.0	283.91259121894836	
56	253.0460901260376	pulse	1	t		54.0	2.5	blank	1.0	285.5127122402191	
56	253.16258716583252	fix_post	2		12	54.0	2.5	blank	1.0	285.62920928001404	0.10004901885986328
57	253.26263618469238	fix_pre	0		120	55.0	2.5	/experiments/knapen_AOT/AOT_stimuli/rescaled_final/0608_rv.mp4	0.0	285.7292582988739	1.000133991241455
57	254.26277017593384	movie	1		243	55.0	2.5	/experiments/knapen_AOT/AOT_stimuli/rescaled_final/0608_rv.mp4	0.0	286.72939229011536	2.492004871368408
57	254.64778017997742	pulse	1	t		55.0	2.5	/experiments/knapen_AOT/AOT_stimuli/rescaled_final/0608_rv.mp4	0.0	287.11440229415894	
57	256.24671721458435	pulse	1	t		55.0	2.5	/experiments/knapen_AOT/AOT_stimuli/rescaled_final/0608_rv.mp4	0.0	288.71333932876587	
57	256.75477504730225	fix_post	2		12	55.0	2.5	/experiments/knapen_AOT/AOT_stimuli/rescaled_final/0608_rv.mp4	0.0	289.22139716148376	0.100006103515625
58	256.85478115081787	fix_pre	0		120	56.0	2.5	/experiments/knapen_AOT/AOT_stimuli/rescaled_final/0348_fw.mp4	0.0	289.3214032649994	1.0001449584960938
58	257.8468680381775	pulse	0	t		56.0	2.5	/experiments/knapen_AOT/AOT_stimuli/rescaled_final/0348_fw.mp4	0.0	290.313490152359	
58	257.85492610931396	movie	1		245	56.0	2.5	/experiments/knapen_AOT/AOT_stimuli/rescaled_final/0348_fw.mp4	0.0	290.3215482234955	2.5088069438934326
58	259.44772601127625	pulse	1	t		56.0	2.5	/experiments/knapen_AOT/AOT_stimuli/rescaled_final/0348_fw.mp4	0.0	291.91434812545776	
58	260.3637330532074	fix_post	2		12	56.0	2.5	/experiments/knapen_AOT/AOT_stimuli/rescaled_final/0348_fw.mp4	0.0	292.8303551673889	0.09990715980529785
59	260.4636402130127	fix_pre	0		120	57.0	2.5	/experiments/knapen_AOT/AOT_stimuli/rescaled_final/0673_fw.mp4	0.0	292.9302623271942	1.0001778602600098
59	261.0472481250763	pulse	0	t		57.0	2.5	/experiments/knapen_AOT/AOT_stimuli/rescaled_final/0673_fw.mp4	0.0	293.5138702392578	
59	261.4638180732727	movie	1		244	57.0	2.5	/experiments/knapen_AOT/AOT_stimuli/rescaled_final/0673_fw.mp4	0.0	293.9304401874542	2.5003819465637207
59	262.64373207092285	pulse	1	t		57.0	2.5	/experiments/knapen_AOT/AOT_stimuli/rescaled_final/0673_fw.mp4	0.0	295.11035418510437	
59	263.9642000198364	fix_post	2		12	57.0	2.5	/experiments/knapen_AOT/AOT_stimuli/rescaled_final/0673_fw.mp4	0.0	296.43082213401794	0.10001516342163086
60	264.06421518325806	fix_pre	0		120	58.0	2.5	/experiments/knapen_AOT/AOT_stimuli/rescaled_final/0637_rv.mp4	0.0	296.5308372974396	1.000187873840332
60	264.24794721603394	pulse	0	t		58.0	2.5	/experiments/knapen_AOT/AOT_stimuli/rescaled_final/0637_rv.mp4	0.0	296.71456933021545	
60	265.0644030570984	movie	1		244	58.0	2.5	/experiments/knapen_AOT/AOT_stimuli/rescaled_final/0637_rv.mp4	0.0	297.5310251712799	2.5003600120544434
60	265.84813117980957	pulse	1	t		58.0	2.5	/experiments/knapen_AOT/AOT_stimuli/rescaled_final/0637_rv.mp4	0.0	298.3147532939911	
60	267.44839215278625	pulse	1	t		58.0	2.5	/experiments/knapen_AOT/AOT_stimuli/rescaled_final/0637_rv.mp4	0.0	299.9150142669678	
60	267.56476306915283	fix_post	2		12	58.0	2.5	/experiments/knapen_AOT/AOT_stimuli/rescaled_final/0637_rv.mp4	0.0	300.03138518333435	0.10001611709594727
61	267.6647791862488	fix_pre	0		120	59.0	2.5	/experiments/knapen_AOT/AOT_stimuli/rescaled_final/2131_fw.mp4	0.0	300.1314013004303	1.000140905380249
61	268.664920091629	movie	1		243	59.0	2.5	/experiments/knapen_AOT/AOT_stimuli/rescaled_final/2131_fw.mp4	0.0	301.13154220581055	2.492002010345459
61	269.0529911518097	pulse	1	t		59.0	2.5	/experiments/knapen_AOT/AOT_stimuli/rescaled_final/2131_fw.mp4	0.0	301.5196132659912	
61	270.6413040161133	pulse	1	t		59.0	2.5	/experiments/knapen_AOT/AOT_stimuli/rescaled_final/2131_fw.mp4	0.0	303.1079261302948	
61	271.1569221019745	fix_post	2		12	59.0	2.5	/experiments/knapen_AOT/AOT_stimuli/rescaled_final/2131_fw.mp4	0.0	303.623544216156	0.1000359058380127
62	271.2569580078125	fix_pre	0		120	60.0	2.5	/experiments/knapen_AOT/AOT_stimuli/rescaled_final/0674_rv.mp4	0.0	303.723580121994	1.0001370906829834
62	272.2415192127228	pulse	0	t		60.0	2.5	/experiments/knapen_AOT/AOT_stimuli/rescaled_final/0674_rv.mp4	0.0	304.7081413269043	
62	272.2570950984955	movie	1		245	60.0	2.5	/experiments/knapen_AOT/AOT_stimuli/rescaled_final/0674_rv.mp4	0.0	304.723717212677	2.5087621212005615
62	273.8498911857605	pulse	1	t		60.0	2.5	/experiments/knapen_AOT/AOT_stimuli/rescaled_final/0674_rv.mp4	0.0	306.316513299942	
62	274.76585721969604	fix_post	2		12	60.0	2.5	/experiments/knapen_AOT/AOT_stimuli/rescaled_final/0674_rv.mp4	0.0	307.23247933387756	0.09995198249816895
63	274.8658092021942	fix_pre	0		120	61.0	2.5	blank	1.0	307.33243131637573	1.000168800354004
63	275.4419150352478	pulse	0	t		61.0	2.5	blank	1.0	307.9085371494293	
63	275.8659780025482	movie	1		300	61.0	2.5	blank	1.0	308.33260011672974	2.5003721714019775
63	277.04136419296265	pulse	1	t		61.0	2.5	blank	1.0	309.50798630714417	
63	278.3663501739502	fix_post	2		12	61.0	2.5	blank	1.0	310.8329722881317	0.10002899169921875
64	278.4663791656494	fix_pre	0		120	62.0	2.5	/experiments/knapen_AOT/AOT_stimuli/rescaled_final/1754_rv.mp4	0.0	310.93300127983093	1.000135898590088
64	278.64152121543884	pulse	0	t		62.0	2.5	/experiments/knapen_AOT/AOT_stimuli/rescaled_final/1754_rv.mp4	0.0	311.10814332962036	
64	279.4665150642395	movie	1		247	62.0	2.5	/experiments/knapen_AOT/AOT_stimuli/rescaled_final/1754_rv.mp4	0.0	311.933137178421	2.5003631114959717
64	280.2418110370636	pulse	1	t		62.0	2.5	/experiments/knapen_AOT/AOT_stimuli/rescaled_final/1754_rv.mp4	0.0	312.7084331512451	
64	281.84215116500854	pulse	1	t		62.0	2.5	/experiments/knapen_AOT/AOT_stimuli/rescaled_final/1754_rv.mp4	0.0	314.30877327919006	
64	281.9668781757355	fix_post	2		12	62.0	2.5	/experiments/knapen_AOT/AOT_stimuli/rescaled_final/1754_rv.mp4	0.0	314.433500289917	0.10002994537353516
65	282.066908121109	fix_pre	0		119	63.0	2.5	/experiments/knapen_AOT/AOT_stimuli/rescaled_final/0160_fw.mp4	0.0	314.5335302352905	0.9918029308319092
65	283.0587110519409	movie	1		244	63.0	2.5	/experiments/knapen_AOT/AOT_stimuli/rescaled_final/0160_fw.mp4	0.0	315.52533316612244	2.5003480911254883
65	283.44365406036377	pulse	1	t		63.0	2.5	/experiments/knapen_AOT/AOT_stimuli/rescaled_final/0160_fw.mp4	0.0	315.9102761745453	
65	285.0426821708679	pulse	1	t		63.0	2.5	/experiments/knapen_AOT/AOT_stimuli/rescaled_final/0160_fw.mp4	0.0	317.50930428504944	
65	285.5590591430664	fix_post	2		12	63.0	2.5	/experiments/knapen_AOT/AOT_stimuli/rescaled_final/0160_fw.mp4	0.0	318.0256812572479	0.10001802444458008
66	285.659077167511	fix_pre	0		119	64.0	2.5	/experiments/knapen_AOT/AOT_stimuli/rescaled_final/0348_fw.mp4	0.0	318.1256992816925	0.9919240474700928
66	286.642774105072	pulse	0	t		64.0	2.5	/experiments/knapen_AOT/AOT_stimuli/rescaled_final/0348_fw.mp4	0.0	319.10939621925354	
66	286.6510012149811	movie	1		244	64.0	2.5	/experiments/knapen_AOT/AOT_stimuli/rescaled_final/0348_fw.mp4	0.0	319.1176233291626	2.508615016937256
66	288.24438405036926	pulse	1	t		64.0	2.5	/experiments/knapen_AOT/AOT_stimuli/rescaled_final/0348_fw.mp4	0.0	320.7110061645508	
66	289.15961623191833	fix_post	2		9	64.0	2.5	/experiments/knapen_AOT/AOT_stimuli/rescaled_final/0348_fw.mp4	0.0	321.62623834609985	0.10002589225769043
67	289.259642124176	fix_pre	0		120	65.0	2.5	/experiments/knapen_AOT/AOT_stimuli/rescaled_final/0558_fw.mp4	0.0	321.72626423835754	1.0001559257507324
67	289.8432071208954	pulse	0	t		65.0	2.5	/experiments/knapen_AOT/AOT_stimuli/rescaled_final/0558_fw.mp4	0.0	322.3098292350769	
67	290.25979804992676	movie	1		244	65.0	2.5	/experiments/knapen_AOT/AOT_stimuli/rescaled_final/0558_fw.mp4	0.0	322.7264201641083	2.500375986099243
67	291.44360423088074	pulse	1	t		65.0	2.5	/experiments/knapen_AOT/AOT_stimuli/rescaled_final/0558_fw.mp4	0.0	323.91022634506226	
67	292.760174036026	fix_post	2		12	65.0	2.5	/experiments/knapen_AOT/AOT_stimuli/rescaled_final/0558_fw.mp4	0.0	325.2267961502075	0.1000220775604248
68	292.8601961135864	fix_pre	0		120	66.0	2.5	/experiments/knapen_AOT/AOT_stimuli/rescaled_final/1813_rv.mp4	0.0	325.32681822776794	1.0001270771026611
68	293.0437481403351	pulse	0	t		66.0	2.5	/experiments/knapen_AOT/AOT_stimuli/rescaled_final/1813_rv.mp4	0.0	325.5103702545166	
68	293.8603231906891	movie	1		245	66.0	2.5	/experiments/knapen_AOT/AOT_stimuli/rescaled_final/1813_rv.mp4	0.0	326.3269453048706	2.500386953353882
68	294.64399003982544	pulse	1	t		66.0	2.5	/experiments/knapen_AOT/AOT_stimuli/rescaled_final/1813_rv.mp4	0.0	327.11061215400696	
68	296.24190521240234	pulse	1	t		66.0	2.5	/experiments/knapen_AOT/AOT_stimuli/rescaled_final/1813_rv.mp4	0.0	328.70852732658386	
68	296.36071014404297	fix_post	2		12	66.0	2.5	/experiments/knapen_AOT/AOT_stimuli/rescaled_final/1813_rv.mp4	0.0	328.8273322582245	0.10010504722595215
69	296.4608151912689	fix_pre	0		120	67.0	2.5	/experiments/knapen_AOT/AOT_stimuli/rescaled_final/0072_fw.mp4	0.0	328.92743730545044	1.0000560283660889
69	297.460871219635	movie	1		244	67.0	2.5	/experiments/knapen_AOT/AOT_stimuli/rescaled_final/0072_fw.mp4	0.0	329.9274933338165	2.492050886154175
69	297.8450632095337	pulse	1	t		67.0	2.5	/experiments/knapen_AOT/AOT_stimuli/rescaled_final/0072_fw.mp4	0.0	330.3116853237152	
69	299.44469809532166	pulse	1	t		67.0	2.5	/experiments/knapen_AOT/AOT_stimuli/rescaled_final/0072_fw.mp4	0.0	331.9113202095032	
69	299.9529221057892	fix_post	2		12	67.0	2.5	/experiments/knapen_AOT/AOT_stimuli/rescaled_final/0072_fw.mp4	0.0	332.4195442199707	0.09998297691345215
70	300.05290508270264	fix_pre	0		120	68.0	2.5	/experiments/knapen_AOT/AOT_stimuli/rescaled_final/1046_rv.mp4	0.0	332.51952719688416	1.0002009868621826
70	301.0450541973114	pulse	0	t		68.0	2.5	/experiments/knapen_AOT/AOT_stimuli/rescaled_final/1046_rv.mp4	0.0	333.5116763114929	
70	301.0531060695648	movie	1		245	68.0	2.5	/experiments/knapen_AOT/AOT_stimuli/rescaled_final/1046_rv.mp4	0.0	333.51972818374634	2.5086510181427
70	302.6462891101837	pulse	1	t		68.0	2.5	/experiments/knapen_AOT/AOT_stimuli/rescaled_final/1046_rv.mp4	0.0	335.11291122436523	
70	303.5617570877075	fix_post	2		12	68.0	2.5	/experiments/knapen_AOT/AOT_stimuli/rescaled_final/1046_rv.mp4	0.0	336.02837920188904	0.10013198852539062
71	303.6618890762329	fix_pre	0		120	69.0	2.5	blank	1.0	336.12851119041443	1.000035047531128
71	304.2454240322113	pulse	0	t		69.0	2.5	blank	1.0	336.7120461463928	
71	304.66192412376404	movie	1		300	69.0	2.5	blank	1.0	337.12854623794556	2.5004138946533203
71	305.8456552028656	pulse	1	t		69.0	2.5	blank	1.0	338.3122773170471	
71	307.16233801841736	fix_post	2		12	69.0	2.5	blank	1.0	339.6289601325989	0.1000070571899414
72	307.2623450756073	fix_pre	0		120	70.0	2.5	/experiments/knapen_AOT/AOT_stimuli/rescaled_final/1132_rv.mp4	0.0	339.7289671897888	1.0001461505889893
72	307.44596314430237	pulse	0	t		70.0	2.5	/experiments/knapen_AOT/AOT_stimuli/rescaled_final/1132_rv.mp4	0.0	339.9125852584839	
72	308.2624912261963	movie	1		245	70.0	2.5	/experiments/knapen_AOT/AOT_stimuli/rescaled_final/1132_rv.mp4	0.0	340.7291133403778	2.5003418922424316
72	309.04616522789	pulse	1	t		70.0	2.5	/experiments/knapen_AOT/AOT_stimuli/rescaled_final/1132_rv.mp4	0.0	341.51278734207153	
72	310.64409613609314	pulse	1	t		70.0	2.5	/experiments/knapen_AOT/AOT_stimuli/rescaled_final/1132_rv.mp4	0.0	343.11071825027466	
72	310.7628331184387	fix_post	2		12	70.0	2.5	/experiments/knapen_AOT/AOT_stimuli/rescaled_final/1132_rv.mp4	0.0	343.22945523262024	0.10003209114074707
73	310.86286520957947	fix_pre	0		120	71.0	2.5	/experiments/knapen_AOT/AOT_stimuli/rescaled_final/2093_fw.mp4	0.0	343.329487323761	1.0001389980316162
73	311.8630042076111	movie	1		242	71.0	2.5	/experiments/knapen_AOT/AOT_stimuli/rescaled_final/2093_fw.mp4	0.0	344.3296263217926	2.492017984390259
73	312.2476282119751	pulse	1	t		71.0	2.5	/experiments/knapen_AOT/AOT_stimuli/rescaled_final/2093_fw.mp4	0.0	344.7142503261566	
73	313.8468542098999	pulse	1	t		71.0	2.5	/experiments/knapen_AOT/AOT_stimuli/rescaled_final/2093_fw.mp4	0.0	346.3134763240814	
73	314.35502219200134	fix_post	2		12	71.0	2.5	/experiments/knapen_AOT/AOT_stimuli/rescaled_final/2093_fw.mp4	0.0	346.82164430618286	0.10004997253417969
74	314.4550721645355	fix_pre	0		120	72.0	2.5	/experiments/knapen_AOT/AOT_stimuli/rescaled_final/0414_fw.mp4	0.0	346.92169427871704	1.0002119541168213
74	315.4472072124481	pulse	0	t		72.0	2.5	/experiments/knapen_AOT/AOT_stimuli/rescaled_final/0414_fw.mp4	0.0	347.91382932662964	
74	315.45528411865234	movie	1		245	72.0	2.5	/experiments/knapen_AOT/AOT_stimuli/rescaled_final/0414_fw.mp4	0.0	347.92190623283386	2.5086309909820557
74	317.0480020046234	pulse	1	t		72.0	2.5	/experiments/knapen_AOT/AOT_stimuli/rescaled_final/0414_fw.mp4	0.0	349.51462411880493	
74	317.9639151096344	fix_post	2		12	72.0	2.5	/experiments/knapen_AOT/AOT_stimuli/rescaled_final/0414_fw.mp4	0.0	350.4305372238159	0.10001707077026367
75	318.06393218040466	fix_pre	0		120	73.0	2.5	/experiments/knapen_AOT/AOT_stimuli/rescaled_final/0764_fw.mp4	0.0	350.5305542945862	1.0001709461212158
75	318.64762020111084	pulse	0	t		73.0	2.5	/experiments/knapen_AOT/AOT_stimuli/rescaled_final/0764_fw.mp4	0.0	351.11424231529236	
75	319.0641031265259	movie	1		245	73.0	2.5	/experiments/knapen_AOT/AOT_stimuli/rescaled_final/0764_fw.mp4	0.0	351.5307252407074	2.500364065170288
75	320.24789118766785	pulse	1	t		73.0	2.5	/experiments/knapen_AOT/AOT_stimuli/rescaled_final/0764_fw.mp4	0.0	352.71451330184937	
75	321.56446719169617	fix_post	2		12	73.0	2.5	/experiments/knapen_AOT/AOT_stimuli/rescaled_final/0764_fw.mp4	0.0	354.0310893058777	0.1000359058380127
76	321.6645030975342	fix_pre	0		120	74.0	2.5	/experiments/knapen_AOT/AOT_stimuli/rescaled_final/1930_rv.mp4	0.0	354.1311252117157	1.0001499652862549
76	321.84811902046204	pulse	0	t		74.0	2.5	/experiments/knapen_AOT/AOT_stimuli/rescaled_final/1930_rv.mp4	0.0	354.31474113464355	
76	322.66465306282043	movie	1		244	74.0	2.5	/experiments/knapen_AOT/AOT_stimuli/rescaled_final/1930_rv.mp4	0.0	355.13127517700195	2.5003249645233154
76	323.4408221244812	pulse	1	t		74.0	2.5	/experiments/knapen_AOT/AOT_stimuli/rescaled_final/1930_rv.mp4	0.0	355.9074442386627	
76	325.0460901260376	pulse	1	t		74.0	2.5	/experiments/knapen_AOT/AOT_stimuli/rescaled_final/1930_rv.mp4	0.0	357.5127122402191	
76	325.16497802734375	fix_post	2		12	74.0	2.5	/experiments/knapen_AOT/AOT_stimuli/rescaled_final/1930_rv.mp4	0.0	357.63160014152527	0.10005903244018555
77	325.26503705978394	fix_pre	0		120	75.0	2.5	/experiments/knapen_AOT/AOT_stimuli/rescaled_final/0453_fw.mp4	0.0	357.73165917396545	1.0001070499420166
77	326.26514410972595	movie	1		244	75.0	2.5	/experiments/knapen_AOT/AOT_stimuli/rescaled_final/0453_fw.mp4	0.0	358.73176622390747	2.4920361042022705
77	326.649334192276	pulse	1	t		75.0	2.5	/experiments/knapen_AOT/AOT_stimuli/rescaled_final/0453_fw.mp4	0.0	359.1159563064575	
77	328.241660118103	pulse	1	t		75.0	2.5	/experiments/knapen_AOT/AOT_stimuli/rescaled_final/0453_fw.mp4	0.0	360.70828223228455	
77	328.7571802139282	fix_post	2		12	75.0	2.5	/experiments/knapen_AOT/AOT_stimuli/rescaled_final/0453_fw.mp4	0.0	361.22380232810974	0.10002684593200684
78	328.85720705986023	fix_pre	0		119	76.0	2.5	/experiments/knapen_AOT/AOT_stimuli/rescaled_final/1765_rv.mp4	0.0	361.32382917404175	0.9918191432952881
78	329.8409860134125	pulse	0	t		76.0	2.5	/experiments/knapen_AOT/AOT_stimuli/rescaled_final/1765_rv.mp4	0.0	362.307608127594	
78	329.8490262031555	movie	1		244	76.0	2.5	/experiments/knapen_AOT/AOT_stimuli/rescaled_final/1765_rv.mp4	0.0	362.31564831733704	2.5087409019470215
78	331.4416220188141	pulse	1	t		76.0	2.5	/experiments/knapen_AOT/AOT_stimuli/rescaled_final/1765_rv.mp4	0.0	363.9082441329956	
78	332.35776710510254	fix_post	2		12	76.0	2.5	/experiments/knapen_AOT/AOT_stimuli/rescaled_final/1765_rv.mp4	0.0	364.82438921928406	0.0999751091003418
79	332.4577422142029	fix_pre	0		120	77.0	2.5	blank	1.0	364.9243643283844	1.0001609325408936
79	333.0413010120392	pulse	0	t		77.0	2.5	blank	1.0	365.5079231262207	
79	333.4579031467438	movie	1		300	77.0	2.5	blank	1.0	365.9245252609253	2.500375986099243
79	334.641725063324	pulse	1	t		77.0	2.5	blank	1.0	367.1083471775055	
79	335.958279132843	fix_post	2		12	77.0	2.5	blank	1.0	368.42490124702454	0.09999394416809082
80	336.0582730770111	fix_pre	0		120	78.0	2.5	/experiments/knapen_AOT/AOT_stimuli/rescaled_final/0146_fw.mp4	0.0	368.5248951911926	1.000190019607544
80	336.24188804626465	pulse	0	t		78.0	2.5	/experiments/knapen_AOT/AOT_stimuli/rescaled_final/0146_fw.mp4	0.0	368.70851016044617	
80	337.05846309661865	movie	1		244	78.0	2.5	/experiments/knapen_AOT/AOT_stimuli/rescaled_final/0146_fw.mp4	0.0	369.52508521080017	2.500347137451172
80	337.8420641422272	pulse	1	t		78.0	2.5	/experiments/knapen_AOT/AOT_stimuli/rescaled_final/0146_fw.mp4	0.0	370.3086862564087	
80	339.44234323501587	pulse	1	t		78.0	2.5	/experiments/knapen_AOT/AOT_stimuli/rescaled_final/0146_fw.mp4	0.0	371.9089653491974	
80	339.5588102340698	fix_post	2		12	78.0	2.5	/experiments/knapen_AOT/AOT_stimuli/rescaled_final/0146_fw.mp4	0.0	372.02543234825134	0.10005784034729004
81	339.6588680744171	fix_pre	0		120	79.0	2.5	/experiments/knapen_AOT/AOT_stimuli/rescaled_final/1657_fw.mp4	0.0	372.12549018859863	1.0001411437988281
81	340.65900921821594	movie	1		243	79.0	2.5	/experiments/knapen_AOT/AOT_stimuli/rescaled_final/1657_fw.mp4	0.0	373.12563133239746	2.4920029640197754
81	341.0430591106415	pulse	1	t		79.0	2.5	/experiments/knapen_AOT/AOT_stimuli/rescaled_final/1657_fw.mp4	0.0	373.509681224823	
81	342.64286708831787	pulse	1	t		79.0	2.5	/experiments/knapen_AOT/AOT_stimuli/rescaled_final/1657_fw.mp4	0.0	375.1094892024994	
81	343.1510121822357	fix_post	2		12	79.0	2.5	/experiments/knapen_AOT/AOT_stimuli/rescaled_final/1657_fw.mp4	0.0	375.61763429641724	0.10001897811889648
82	343.2510311603546	fix_pre	0		120	80.0	2.5	/experiments/knapen_AOT/AOT_stimuli/rescaled_final/1962_rv.mp4	0.0	375.71765327453613	1.0001649856567383
82	344.24304604530334	pulse	0	t		80.0	2.5	/experiments/knapen_AOT/AOT_stimuli/rescaled_final/1962_rv.mp4	0.0	376.70966815948486	
82	344.25119614601135	movie	1		246	80.0	2.5	/experiments/knapen_AOT/AOT_stimuli/rescaled_final/1962_rv.mp4	0.0	376.71781826019287	2.5086588859558105
82	345.8443012237549	pulse	1	t		80.0	2.5	/experiments/knapen_AOT/AOT_stimuli/rescaled_final/1962_rv.mp4	0.0	378.3109233379364	
82	346.75985503196716	fix_post	2		12	80.0	2.5	/experiments/knapen_AOT/AOT_stimuli/rescaled_final/1962_rv.mp4	0.0	379.2264771461487	0.10004520416259766
83	346.85990023612976	fix_pre	0		120	81.0	2.5	/experiments/knapen_AOT/AOT_stimuli/rescaled_final/1745_rv.mp4	0.0	379.3265223503113	1.0001578330993652
83	347.44362711906433	pulse	0	t		81.0	2.5	/experiments/knapen_AOT/AOT_stimuli/rescaled_final/1745_rv.mp4	0.0	379.91024923324585	
83	347.8600580692291	movie	1		240	81.0	2.5	/experiments/knapen_AOT/AOT_stimuli/rescaled_final/1745_rv.mp4	0.0	380.32668018341064	2.5003550052642822
83	349.0439021587372	pulse	1	t		81.0	2.5	/experiments/knapen_AOT/AOT_stimuli/rescaled_final/1745_rv.mp4	0.0	381.5105242729187	
83	350.3604130744934	fix_post	2		12	81.0	2.5	/experiments/knapen_AOT/AOT_stimuli/rescaled_final/1745_rv.mp4	0.0	382.8270351886749	0.10006093978881836
84	350.4604740142822	fix_pre	0		120	82.0	2.5	/experiments/knapen_AOT/AOT_stimuli/rescaled_final/0154_fw.mp4	0.0	382.92709612846375	1.0001590251922607
84	350.64409613609314	pulse	0	t		82.0	2.5	/experiments/knapen_AOT/AOT_stimuli/rescaled_final/0154_fw.mp4	0.0	383.11071825027466	
84	351.4606330394745	movie	1		245	82.0	2.5	/experiments/knapen_AOT/AOT_stimuli/rescaled_final/0154_fw.mp4	0.0	383.927255153656	2.500343084335327
84	352.24418020248413	pulse	1	t		82.0	2.5	/experiments/knapen_AOT/AOT_stimuli/rescaled_final/0154_fw.mp4	0.0	384.71080231666565	
84	353.8445930480957	pulse	1	t		82.0	2.5	/experiments/knapen_AOT/AOT_stimuli/rescaled_final/0154_fw.mp4	0.0	386.3112151622772	
84	353.9609761238098	fix_post	2		12	82.0	2.5	/experiments/knapen_AOT/AOT_stimuli/rescaled_final/0154_fw.mp4	0.0	386.42759823799133	0.09999704360961914
85	354.06097316741943	fix_pre	0		120	83.0	2.5	blank	1.0	386.52759528160095	1.000187873840332
85	355.06116104125977	movie	1		299	83.0	2.5	blank	1.0	387.5277831554413	2.4920339584350586
85	355.44481205940247	pulse	1	t		83.0	2.5	blank	1.0	387.911434173584	
85	357.04505610466003	pulse	1	t		83.0	2.5	blank	1.0	389.51167821884155	
85	357.5531949996948	fix_post	2		12	83.0	2.5	blank	1.0	390.01981711387634	0.09998512268066406
87	357.6531801223755	stim	0		1716					390.119802236557	14.302166938781738
87	358.6451771259308	pulse	0	t						391.1117992401123	
87	360.24538803100586	pulse	0	t						392.7120101451874	
87	361.8457250595093	pulse	0	t						394.3123471736908	
87	363.445992231369	pulse	0	t						395.91261434555054	
87	365.0461540222168	pulse	0	t						397.5127761363983	
87	366.64630103111267	pulse	0	t						399.1129231452942	
87	368.24664211273193	pulse	0	t						400.71326422691345	
87	369.8469731807709	pulse	0	t						402.3135952949524	
87	371.44716906547546	pulse	0	t						403.913791179657	
