trial_nr	onset	event_type	phase	response	nr_frames	movie_index	movie_duration	movie_file	blank	onset_abs	duration
0	0.13380813598632812	stim	0		57					46.526538133621216	0.47460389137268066
0	0.6009509563446045	response	0	space						46.99368095397949	
1	0.6084120273590088	stim	0		4754					47.0011420249939	39.616533041000366
1	40.21825098991394	pulse	0	t						86.61098098754883	
1	40.224945068359375	stim	1		1717					86.61767506599426	14.30782699584961
1	41.808470010757446	pulse	1	t						88.20120000839233	
1	43.408437967300415	pulse	1	t						89.8011679649353	
1	45.00835299491882	pulse	1	t						91.40108299255371	
1	46.608402967453	pulse	1	t						93.00113296508789	
1	48.20833992958069	pulse	1	t						94.60106992721558	
1	49.80844593048096	pulse	1	t						96.20117592811584	
1	51.408393144607544	pulse	1	t						97.80112314224243	
1	53.00861692428589	pulse	1	t						99.40134692192078	
2	54.532772064208984	fix_pre	0		10	0.0	2.5	/experiments/AOT/AOT_stimuli/rescaled_final/0565_fw.mp4	0.0	100.92550206184387	0.08382701873779297
2	54.6084189414978	pulse	0	t		0.0	2.5	/experiments/AOT/AOT_stimuli/rescaled_final/0565_fw.mp4	0.0	101.00114893913269	
2	54.61659908294678	movie	1		243	0.0	2.5	/experiments/AOT/AOT_stimuli/rescaled_final/0565_fw.mp4	0.0	101.00932908058167	2.5082688331604004
2	56.21658492088318	pulse	1	t		0.0	2.5	/experiments/AOT/AOT_stimuli/rescaled_final/0565_fw.mp4	0.0	102.60931491851807	
2	57.12486791610718	fix_post	2		12	0.0	2.5	/experiments/AOT/AOT_stimuli/rescaled_final/0565_fw.mp4	0.0	103.51759791374207	0.10006403923034668
3	57.224931955337524	fix_pre	0		120	1.0	2.5	/experiments/AOT/AOT_stimuli/rescaled_final/1565_fw.mp4	0.0	103.61766195297241	0.9999229907989502
3	57.80834102630615	pulse	0	t		1.0	2.5	/experiments/AOT/AOT_stimuli/rescaled_final/1565_fw.mp4	0.0	104.20107102394104	
3	58.224854946136475	movie	1		246	1.0	2.5	/experiments/AOT/AOT_stimuli/rescaled_final/1565_fw.mp4	0.0	104.61758494377136	2.499464988708496
3	59.40834712982178	pulse	1	t		1.0	2.5	/experiments/AOT/AOT_stimuli/rescaled_final/1565_fw.mp4	0.0	105.80107712745667	
3	60.72431993484497	fix_post	2		12	1.0	2.5	/experiments/AOT/AOT_stimuli/rescaled_final/1565_fw.mp4	0.0	107.11704993247986	0.10048103332519531
4	60.824800968170166	fix_pre	0		120	2.0	2.5	/experiments/AOT/AOT_stimuli/rescaled_final/0944_rv.mp4	0.0	107.21753096580505	0.9999661445617676
4	61.00829100608826	pulse	0	t		2.0	2.5	/experiments/AOT/AOT_stimuli/rescaled_final/0944_rv.mp4	0.0	107.40102100372314	
4	61.824767112731934	movie	1		245	2.0	2.5	/experiments/AOT/AOT_stimuli/rescaled_final/0944_rv.mp4	0.0	108.21749711036682	2.500027894973755
4	62.60826897621155	pulse	1	t		2.0	2.5	/experiments/AOT/AOT_stimuli/rescaled_final/0944_rv.mp4	0.0	109.00099897384644	
4	64.20826005935669	pulse	1	t		2.0	2.5	/experiments/AOT/AOT_stimuli/rescaled_final/0944_rv.mp4	0.0	110.60099005699158	
4	64.32479500770569	fix_post	2		12	2.0	2.5	/experiments/AOT/AOT_stimuli/rescaled_final/0944_rv.mp4	0.0	110.71752500534058	0.0999600887298584
5	64.42475509643555	fix_pre	0		120	3.0	2.5	/experiments/AOT/AOT_stimuli/rescaled_final/1713_rv.mp4	0.0	110.81748509407043	1.0000228881835938
5	65.42477798461914	movie	1		245	3.0	2.5	/experiments/AOT/AOT_stimuli/rescaled_final/1713_rv.mp4	0.0	111.81750798225403	2.4999401569366455
5	65.80761814117432	pulse	1	t		3.0	2.5	/experiments/AOT/AOT_stimuli/rescaled_final/1713_rv.mp4	0.0	112.2003481388092	
5	67.4083149433136	pulse	1	t		3.0	2.5	/experiments/AOT/AOT_stimuli/rescaled_final/1713_rv.mp4	0.0	113.80104494094849	
5	67.92471814155579	fix_post	2		12	3.0	2.5	/experiments/AOT/AOT_stimuli/rescaled_final/1713_rv.mp4	0.0	114.31744813919067	0.10001778602600098
6	68.02473592758179	fix_pre	0		120	4.0	2.5	/experiments/AOT/AOT_stimuli/rescaled_final/0073_rv.mp4	0.0	114.41746592521667	1.0000100135803223
6	69.00898003578186	pulse	0	t		4.0	2.5	/experiments/AOT/AOT_stimuli/rescaled_final/0073_rv.mp4	0.0	115.40171003341675	
6	69.02474594116211	movie	1		244	4.0	2.5	/experiments/AOT/AOT_stimuli/rescaled_final/0073_rv.mp4	0.0	115.417475938797	2.5083181858062744
6	70.60827302932739	pulse	1	t		4.0	2.5	/experiments/AOT/AOT_stimuli/rescaled_final/0073_rv.mp4	0.0	117.00100302696228	
6	71.53306412696838	fix_post	2		12	4.0	2.5	/experiments/AOT/AOT_stimuli/rescaled_final/0073_rv.mp4	0.0	117.92579412460327	0.10006499290466309
7	71.63312911987305	fix_pre	0		120	5.0	2.5	blank	1.0	118.02585911750793	0.9999568462371826
7	72.20821213722229	pulse	0	t		5.0	2.5	blank	1.0	118.60094213485718	
7	72.63308596611023	movie	1		300	5.0	2.5	blank	1.0	119.02581596374512	2.499972105026245
7	73.8082799911499	pulse	1	t		5.0	2.5	blank	1.0	120.20100998878479	
7	75.13305807113647	fix_post	2		12	5.0	2.5	blank	1.0	121.52578806877136	0.09995102882385254
8	75.23300909996033	fix_pre	0		120	6.0	2.5	/experiments/AOT/AOT_stimuli/rescaled_final/1208_fw.mp4	0.0	121.62573909759521	1.000126838684082
8	75.40824508666992	pulse	0	t		6.0	2.5	/experiments/AOT/AOT_stimuli/rescaled_final/1208_fw.mp4	0.0	121.80097508430481	
8	76.23313593864441	movie	1		245	6.0	2.5	/experiments/AOT/AOT_stimuli/rescaled_final/1208_fw.mp4	0.0	122.6258659362793	2.4999351501464844
8	77.00816798210144	pulse	1	t		6.0	2.5	/experiments/AOT/AOT_stimuli/rescaled_final/1208_fw.mp4	0.0	123.40089797973633	
8	78.60819911956787	pulse	1	t		6.0	2.5	/experiments/AOT/AOT_stimuli/rescaled_final/1208_fw.mp4	0.0	125.00092911720276	
8	78.7330710887909	fix_post	2		12	6.0	2.5	/experiments/AOT/AOT_stimuli/rescaled_final/1208_fw.mp4	0.0	125.12580108642578	0.09998083114624023
9	78.83305191993713	fix_pre	0		120	7.0	2.5	/experiments/AOT/AOT_stimuli/rescaled_final/1648_fw.mp4	0.0	125.22578191757202	1.0000309944152832
9	79.83308291435242	movie	1		243	7.0	2.5	/experiments/AOT/AOT_stimuli/rescaled_final/1648_fw.mp4	0.0	126.2258129119873	2.499948024749756
9	80.20823001861572	pulse	1	t		7.0	2.5	/experiments/AOT/AOT_stimuli/rescaled_final/1648_fw.mp4	0.0	126.60096001625061	
9	81.80822610855103	pulse	1	t		7.0	2.5	/experiments/AOT/AOT_stimuli/rescaled_final/1648_fw.mp4	0.0	128.2009561061859	
9	82.33303093910217	fix_post	2		12	7.0	2.5	/experiments/AOT/AOT_stimuli/rescaled_final/1648_fw.mp4	0.0	128.72576093673706	0.09990406036376953
10	82.43293499946594	fix_pre	0		118	8.0	2.5	/experiments/AOT/AOT_stimuli/rescaled_final/0879_rv.mp4	0.0	128.82566499710083	0.9834010601043701
10	83.4082350730896	pulse	0	t		8.0	2.5	/experiments/AOT/AOT_stimuli/rescaled_final/0879_rv.mp4	0.0	129.8009650707245	
10	83.41633605957031	movie	1		245	8.0	2.5	/experiments/AOT/AOT_stimuli/rescaled_final/0879_rv.mp4	0.0	129.8090660572052	2.508336067199707
10	85.01654696464539	pulse	1	t		8.0	2.5	/experiments/AOT/AOT_stimuli/rescaled_final/0879_rv.mp4	0.0	131.40927696228027	
10	85.92467212677002	fix_post	2		12	8.0	2.5	/experiments/AOT/AOT_stimuli/rescaled_final/0879_rv.mp4	0.0	132.3174021244049	0.10001683235168457
11	86.0246889591217	fix_pre	0		120	9.0	2.5	/experiments/AOT/AOT_stimuli/rescaled_final/1033_fw.mp4	0.0	132.4174189567566	1.0000240802764893
11	86.60819911956787	pulse	0	t		9.0	2.5	/experiments/AOT/AOT_stimuli/rescaled_final/1033_fw.mp4	0.0	133.00092911720276	
11	87.0247130393982	movie	1		243	9.0	2.5	/experiments/AOT/AOT_stimuli/rescaled_final/1033_fw.mp4	0.0	133.41744303703308	2.4995920658111572
11	88.20827293395996	pulse	1	t		9.0	2.5	/experiments/AOT/AOT_stimuli/rescaled_final/1033_fw.mp4	0.0	134.60100293159485	
11	89.52430510520935	fix_post	2		12	9.0	2.5	/experiments/AOT/AOT_stimuli/rescaled_final/1033_fw.mp4	0.0	135.91703510284424	0.10039997100830078
12	89.62470507621765	fix_pre	0		120	10.0	2.5	/experiments/AOT/AOT_stimuli/rescaled_final/0845_fw.mp4	0.0	136.01743507385254	1.000058889389038
12	89.80818796157837	pulse	0	t		10.0	2.5	/experiments/AOT/AOT_stimuli/rescaled_final/0845_fw.mp4	0.0	136.20091795921326	
12	90.62476396560669	movie	1		243	10.0	2.5	/experiments/AOT/AOT_stimuli/rescaled_final/0845_fw.mp4	0.0	137.01749396324158	2.4999029636383057
12	91.40808701515198	pulse	1	t		10.0	2.5	/experiments/AOT/AOT_stimuli/rescaled_final/0845_fw.mp4	0.0	137.80081701278687	
12	93.0084400177002	pulse	1	t		10.0	2.5	/experiments/AOT/AOT_stimuli/rescaled_final/0845_fw.mp4	0.0	139.40117001533508	
12	93.124666929245	fix_post	2		12	10.0	2.5	/experiments/AOT/AOT_stimuli/rescaled_final/0845_fw.mp4	0.0	139.51739692687988	0.10001206398010254
13	93.2246789932251	fix_pre	0		120	11.0	2.5	/experiments/AOT/AOT_stimuli/rescaled_final/0491_fw.mp4	0.0	139.61740899085999	0.999967098236084
13	94.22464609146118	movie	1		244	11.0	2.5	/experiments/AOT/AOT_stimuli/rescaled_final/0491_fw.mp4	0.0	140.61737608909607	2.4999799728393555
13	94.60807800292969	pulse	1	t		11.0	2.5	/experiments/AOT/AOT_stimuli/rescaled_final/0491_fw.mp4	0.0	141.00080800056458	
13	96.20814299583435	pulse	1	t		11.0	2.5	/experiments/AOT/AOT_stimuli/rescaled_final/0491_fw.mp4	0.0	142.60087299346924	
13	96.72462606430054	fix_post	2		12	11.0	2.5	/experiments/AOT/AOT_stimuli/rescaled_final/0491_fw.mp4	0.0	143.11735606193542	0.09997892379760742
14	96.82460498809814	fix_pre	0		119	12.0	2.5	blank	1.0	143.21733498573303	0.9916069507598877
14	97.80807995796204	pulse	0	t		12.0	2.5	blank	1.0	144.20080995559692	
14	97.81621193885803	movie	1		301	12.0	2.5	blank	1.0	144.20894193649292	2.5085270404815674
14	99.4081780910492	pulse	1	t		12.0	2.5	blank	1.0	145.80090808868408	
14	100.3247389793396	fix_post	2		12	12.0	2.5	blank	1.0	146.7174689769745	0.09995508193969727
15	100.4246940612793	fix_pre	0		120	13.0	2.5	/experiments/AOT/AOT_stimuli/rescaled_final/0509_rv.mp4	0.0	146.81742405891418	0.9999439716339111
15	101.0089020729065	pulse	0	t		13.0	2.5	/experiments/AOT/AOT_stimuli/rescaled_final/0509_rv.mp4	0.0	147.40163207054138	
15	101.42463803291321	movie	1		247	13.0	2.5	/experiments/AOT/AOT_stimuli/rescaled_final/0509_rv.mp4	0.0	147.8173680305481	2.4999730587005615
15	102.6092140674591	pulse	1	t		13.0	2.5	/experiments/AOT/AOT_stimuli/rescaled_final/0509_rv.mp4	0.0	149.001944065094	
15	103.92461109161377	fix_post	2		12	13.0	2.5	/experiments/AOT/AOT_stimuli/rescaled_final/0509_rv.mp4	0.0	150.31734108924866	0.10015583038330078
16	104.02476692199707	fix_pre	0		120	14.0	2.5	/experiments/AOT/AOT_stimuli/rescaled_final/0284_fw.mp4	0.0	150.41749691963196	0.9998822212219238
16	104.20818996429443	pulse	0	t		14.0	2.5	/experiments/AOT/AOT_stimuli/rescaled_final/0284_fw.mp4	0.0	150.60091996192932	
16	105.024649143219	movie	1		242	14.0	2.5	/experiments/AOT/AOT_stimuli/rescaled_final/0284_fw.mp4	0.0	151.41737914085388	2.500398874282837
16	105.80806612968445	pulse	1	t		14.0	2.5	/experiments/AOT/AOT_stimuli/rescaled_final/0284_fw.mp4	0.0	152.20079612731934	
16	107.41662907600403	pulse	1	t		14.0	2.5	/experiments/AOT/AOT_stimuli/rescaled_final/0284_fw.mp4	0.0	153.80935907363892	
16	107.52504801750183	fix_post	2		12	14.0	2.5	/experiments/AOT/AOT_stimuli/rescaled_final/0284_fw.mp4	0.0	153.91777801513672	0.0996088981628418
17	107.62465691566467	fix_pre	0		120	15.0	2.5	/experiments/AOT/AOT_stimuli/rescaled_final/1872_rv.mp4	0.0	154.01738691329956	0.9999392032623291
17	108.624596118927	movie	1		243	15.0	2.5	/experiments/AOT/AOT_stimuli/rescaled_final/1872_rv.mp4	0.0	155.0173261165619	2.4997169971466064
17	109.01655507087708	pulse	1	t		15.0	2.5	/experiments/AOT/AOT_stimuli/rescaled_final/1872_rv.mp4	0.0	155.40928506851196	
17	110.60808610916138	pulse	1	t		15.0	2.5	/experiments/AOT/AOT_stimuli/rescaled_final/1872_rv.mp4	0.0	157.00081610679626	
17	111.12431311607361	fix_post	2		12	15.0	2.5	/experiments/AOT/AOT_stimuli/rescaled_final/1872_rv.mp4	0.0	157.5170431137085	0.10045790672302246
18	111.22477102279663	fix_pre	0		119	16.0	2.5	/experiments/AOT/AOT_stimuli/rescaled_final/0971_rv.mp4	0.0	157.61750102043152	0.9913780689239502
18	112.20797801017761	pulse	0	t		16.0	2.5	/experiments/AOT/AOT_stimuli/rescaled_final/0971_rv.mp4	0.0	158.6007080078125	
18	112.21614909172058	movie	1		246	16.0	2.5	/experiments/AOT/AOT_stimuli/rescaled_final/0971_rv.mp4	0.0	158.60887908935547	2.508427858352661
18	113.80766105651855	pulse	1	t		16.0	2.5	/experiments/AOT/AOT_stimuli/rescaled_final/0971_rv.mp4	0.0	160.20039105415344	
18	114.72457695007324	fix_post	2		12	16.0	2.5	/experiments/AOT/AOT_stimuli/rescaled_final/0971_rv.mp4	0.0	161.11730694770813	0.10002303123474121
19	114.82459998130798	fix_pre	0		120	17.0	2.5	/experiments/AOT/AOT_stimuli/rescaled_final/1171_rv.mp4	0.0	161.21732997894287	0.9999799728393555
19	115.40808200836182	pulse	0	t		17.0	2.5	/experiments/AOT/AOT_stimuli/rescaled_final/1171_rv.mp4	0.0	161.8008120059967	
19	115.82457995414734	movie	1		243	17.0	2.5	/experiments/AOT/AOT_stimuli/rescaled_final/1171_rv.mp4	0.0	162.21730995178223	2.49989914894104
19	117.00896906852722	pulse	1	t		17.0	2.5	/experiments/AOT/AOT_stimuli/rescaled_final/1171_rv.mp4	0.0	163.4016990661621	
19	118.32447910308838	fix_post	2		12	17.0	2.5	/experiments/AOT/AOT_stimuli/rescaled_final/1171_rv.mp4	0.0	164.71720910072327	0.1000068187713623
20	118.42448592185974	fix_pre	0		120	18.0	2.5	/experiments/AOT/AOT_stimuli/rescaled_final/0595_rv.mp4	0.0	164.81721591949463	1.0000131130218506
20	118.60872912406921	pulse	0	t		18.0	2.5	/experiments/AOT/AOT_stimuli/rescaled_final/0595_rv.mp4	0.0	165.0014591217041	
20	119.42449903488159	movie	1		243	18.0	2.5	/experiments/AOT/AOT_stimuli/rescaled_final/0595_rv.mp4	0.0	165.81722903251648	2.499972105026245
20	120.20887994766235	pulse	1	t		18.0	2.5	/experiments/AOT/AOT_stimuli/rescaled_final/0595_rv.mp4	0.0	166.60160994529724	
20	121.81638598442078	pulse	1	t		18.0	2.5	/experiments/AOT/AOT_stimuli/rescaled_final/0595_rv.mp4	0.0	168.20911598205566	
20	121.92447113990784	fix_post	2		12	18.0	2.5	/experiments/AOT/AOT_stimuli/rescaled_final/0595_rv.mp4	0.0	168.31720113754272	0.0999908447265625
21	122.0244619846344	fix_pre	0		120	19.0	2.5	blank	1.0	168.4171919822693	0.9999649524688721
21	123.02442693710327	movie	1		300	19.0	2.5	blank	1.0	169.41715693473816	2.500169038772583
21	123.40872001647949	pulse	1	t		19.0	2.5	blank	1.0	169.80145001411438	
21	125.00791311264038	pulse	1	t		19.0	2.5	blank	1.0	171.40064311027527	
21	125.52459597587585	fix_post	2		12	19.0	2.5	blank	1.0	171.91732597351074	0.09987401962280273
22	125.62446999549866	fix_pre	0		119	20.0	2.5	/experiments/AOT/AOT_stimuli/rescaled_final/1049_fw.mp4	0.0	172.01719999313354	0.9916961193084717
22	126.60808897018433	pulse	0	t		20.0	2.5	/experiments/AOT/AOT_stimuli/rescaled_final/1049_fw.mp4	0.0	173.0008189678192	
22	126.61616611480713	movie	1		245	20.0	2.5	/experiments/AOT/AOT_stimuli/rescaled_final/1049_fw.mp4	0.0	173.00889611244202	2.5084099769592285
22	128.2091200351715	pulse	1	t		20.0	2.5	/experiments/AOT/AOT_stimuli/rescaled_final/1049_fw.mp4	0.0	174.6018500328064	
22	129.12457609176636	fix_post	2		12	20.0	2.5	/experiments/AOT/AOT_stimuli/rescaled_final/1049_fw.mp4	0.0	175.51730608940125	0.09962105751037598
23	129.22419714927673	fix_pre	0		120	21.0	2.5	/experiments/AOT/AOT_stimuli/rescaled_final/0214_rv.mp4	0.0	175.61692714691162	1.0003178119659424
23	129.80797696113586	pulse	0	t		21.0	2.5	/experiments/AOT/AOT_stimuli/rescaled_final/0214_rv.mp4	0.0	176.20070695877075	
23	130.22451496124268	movie	1		244	21.0	2.5	/experiments/AOT/AOT_stimuli/rescaled_final/0214_rv.mp4	0.0	176.61724495887756	2.499552011489868
23	131.40802597999573	pulse	1	t		21.0	2.5	/experiments/AOT/AOT_stimuli/rescaled_final/0214_rv.mp4	0.0	177.80075597763062	
23	132.72406697273254	fix_post	2		12	21.0	2.5	/experiments/AOT/AOT_stimuli/rescaled_final/0214_rv.mp4	0.0	179.11679697036743	0.0999140739440918
24	132.82398104667664	fix_pre	0		120	22.0	2.5	/experiments/AOT/AOT_stimuli/rescaled_final/1024_rv.mp4	0.0	179.21671104431152	1.0005218982696533
24	133.0087239742279	pulse	0	t		22.0	2.5	/experiments/AOT/AOT_stimuli/rescaled_final/1024_rv.mp4	0.0	179.4014539718628	
24	133.8245029449463	movie	1		245	22.0	2.5	/experiments/AOT/AOT_stimuli/rescaled_final/1024_rv.mp4	0.0	180.21723294258118	2.499906063079834
24	134.60887813568115	pulse	1	t		22.0	2.5	/experiments/AOT/AOT_stimuli/rescaled_final/1024_rv.mp4	0.0	181.00160813331604	
24	136.20883107185364	pulse	1	t		22.0	2.5	/experiments/AOT/AOT_stimuli/rescaled_final/1024_rv.mp4	0.0	182.60156106948853	
24	136.32440900802612	fix_post	2		12	22.0	2.5	/experiments/AOT/AOT_stimuli/rescaled_final/1024_rv.mp4	0.0	182.717139005661	0.10003399848937988
25	136.4244430065155	fix_pre	0		120	23.0	2.5	/experiments/AOT/AOT_stimuli/rescaled_final/2082_rv.mp4	0.0	182.8171730041504	1.0000450611114502
25	137.42448806762695	movie	1		244	23.0	2.5	/experiments/AOT/AOT_stimuli/rescaled_final/2082_rv.mp4	0.0	183.81721806526184	2.4995150566101074
25	137.81623911857605	pulse	1	t		23.0	2.5	/experiments/AOT/AOT_stimuli/rescaled_final/2082_rv.mp4	0.0	184.20896911621094	
25	139.40884494781494	pulse	1	t		23.0	2.5	/experiments/AOT/AOT_stimuli/rescaled_final/2082_rv.mp4	0.0	185.80157494544983	
25	139.92400312423706	fix_post	2		12	23.0	2.5	/experiments/AOT/AOT_stimuli/rescaled_final/2082_rv.mp4	0.0	186.31673312187195	0.10040998458862305
26	140.02441310882568	fix_pre	0		119	24.0	2.5	/experiments/AOT/AOT_stimuli/rescaled_final/0157_rv.mp4	0.0	186.41714310646057	0.9916739463806152
26	141.00794100761414	pulse	0	t		24.0	2.5	/experiments/AOT/AOT_stimuli/rescaled_final/0157_rv.mp4	0.0	187.40067100524902	
26	141.0160870552063	movie	1		244	24.0	2.5	/experiments/AOT/AOT_stimuli/rescaled_final/0157_rv.mp4	0.0	187.4088170528412	2.50838303565979
26	142.61629104614258	pulse	1	t		24.0	2.5	/experiments/AOT/AOT_stimuli/rescaled_final/0157_rv.mp4	0.0	189.00902104377747	
26	143.5244700908661	fix_post	2		12	24.0	2.5	/experiments/AOT/AOT_stimuli/rescaled_final/0157_rv.mp4	0.0	189.91720008850098	0.09990692138671875
27	143.6243770122528	fix_pre	0		120	25.0	2.5	/experiments/AOT/AOT_stimuli/rescaled_final/0935_rv.mp4	0.0	190.0171070098877	0.9997289180755615
27	144.20793509483337	pulse	0	t		25.0	2.5	/experiments/AOT/AOT_stimuli/rescaled_final/0935_rv.mp4	0.0	190.60066509246826	
27	144.62410593032837	movie	1		243	25.0	2.5	/experiments/AOT/AOT_stimuli/rescaled_final/0935_rv.mp4	0.0	191.01683592796326	2.4998061656951904
27	145.80800604820251	pulse	1	t		25.0	2.5	/experiments/AOT/AOT_stimuli/rescaled_final/0935_rv.mp4	0.0	192.2007360458374	
27	147.12391209602356	fix_post	2		12	25.0	2.5	/experiments/AOT/AOT_stimuli/rescaled_final/0935_rv.mp4	0.0	193.51664209365845	0.1004178524017334
28	147.2243299484253	fix_pre	0		120	26.0	2.5	/experiments/AOT/AOT_stimuli/rescaled_final/0918_rv.mp4	0.0	193.61705994606018	1.0000109672546387
28	147.407977104187	pulse	0	t		26.0	2.5	/experiments/AOT/AOT_stimuli/rescaled_final/0918_rv.mp4	0.0	193.8007071018219	
28	148.22434091567993	movie	1		244	26.0	2.5	/experiments/AOT/AOT_stimuli/rescaled_final/0918_rv.mp4	0.0	194.61707091331482	2.4997432231903076
28	149.00890111923218	pulse	1	t		26.0	2.5	/experiments/AOT/AOT_stimuli/rescaled_final/0918_rv.mp4	0.0	195.40163111686707	
28	150.61618900299072	pulse	1	t		26.0	2.5	/experiments/AOT/AOT_stimuli/rescaled_final/0918_rv.mp4	0.0	197.0089190006256	
28	150.72408413887024	fix_post	2		12	26.0	2.5	/experiments/AOT/AOT_stimuli/rescaled_final/0918_rv.mp4	0.0	197.11681413650513	0.10031580924987793
29	150.82439994812012	fix_pre	0		120	27.0	2.5	blank	1.0	197.217129945755	1.0000309944152832
29	151.8244309425354	movie	1		300	27.0	2.5	blank	1.0	198.2171609401703	2.4995341300964355
29	152.20867896080017	pulse	1	t		27.0	2.5	blank	1.0	198.60140895843506	
29	153.80856895446777	pulse	1	t		27.0	2.5	blank	1.0	200.20129895210266	
29	154.32396507263184	fix_post	2		12	27.0	2.5	blank	1.0	200.71669507026672	0.1003730297088623
30	154.4243381023407	fix_pre	0		120	28.0	2.5	/experiments/AOT/AOT_stimuli/rescaled_final/1261_rv.mp4	0.0	200.8170680999756	1.0001168251037598
30	155.4085819721222	pulse	0	t		28.0	2.5	/experiments/AOT/AOT_stimuli/rescaled_final/1261_rv.mp4	0.0	201.80131196975708	
30	155.42445492744446	movie	1		245	28.0	2.5	/experiments/AOT/AOT_stimuli/rescaled_final/1261_rv.mp4	0.0	201.81718492507935	2.508235216140747
30	157.01557898521423	pulse	1	t		28.0	2.5	/experiments/AOT/AOT_stimuli/rescaled_final/1261_rv.mp4	0.0	203.40830898284912	
30	157.9326901435852	fix_post	2		12	28.0	2.5	/experiments/AOT/AOT_stimuli/rescaled_final/1261_rv.mp4	0.0	204.3254201412201	0.09992694854736328
31	158.03261709213257	fix_pre	0		120	29.0	2.5	/experiments/AOT/AOT_stimuli/rescaled_final/0869_fw.mp4	0.0	204.42534708976746	1.0000648498535156
31	158.60783410072327	pulse	0	t		29.0	2.5	/experiments/AOT/AOT_stimuli/rescaled_final/0869_fw.mp4	0.0	205.00056409835815	
31	159.03268194198608	movie	1		243	29.0	2.5	/experiments/AOT/AOT_stimuli/rescaled_final/0869_fw.mp4	0.0	205.42541193962097	2.4999680519104004
31	160.2162880897522	pulse	1	t		29.0	2.5	/experiments/AOT/AOT_stimuli/rescaled_final/0869_fw.mp4	0.0	206.60901808738708	
31	161.53264999389648	fix_post	2		12	29.0	2.5	/experiments/AOT/AOT_stimuli/rescaled_final/0869_fw.mp4	0.0	207.92537999153137	0.10003900527954102
32	161.63268899917603	fix_pre	0		120	30.0	2.5	/experiments/AOT/AOT_stimuli/rescaled_final/0971_fw.mp4	0.0	208.0254189968109	0.9999439716339111
32	161.8077609539032	pulse	0	t		30.0	2.5	/experiments/AOT/AOT_stimuli/rescaled_final/0971_fw.mp4	0.0	208.2004909515381	
32	162.63263297080994	movie	1		246	30.0	2.5	/experiments/AOT/AOT_stimuli/rescaled_final/0971_fw.mp4	0.0	209.02536296844482	2.5000221729278564
32	163.40784406661987	pulse	1	t		30.0	2.5	/experiments/AOT/AOT_stimuli/rescaled_final/0971_fw.mp4	0.0	209.80057406425476	
32	165.01492714881897	pulse	1	t		30.0	2.5	/experiments/AOT/AOT_stimuli/rescaled_final/0971_fw.mp4	0.0	211.40765714645386	
32	165.1326551437378	fix_post	2		12	30.0	2.5	/experiments/AOT/AOT_stimuli/rescaled_final/0971_fw.mp4	0.0	211.52538514137268	0.09997081756591797
33	165.2326259613037	fix_pre	0		120	31.0	2.5	/experiments/AOT/AOT_stimuli/rescaled_final/2113_fw.mp4	0.0	211.6253559589386	1.0001411437988281
33	166.23276710510254	movie	1		244	31.0	2.5	/experiments/AOT/AOT_stimuli/rescaled_final/2113_fw.mp4	0.0	212.62549710273743	2.4998538494110107
33	166.61549711227417	pulse	1	t		31.0	2.5	/experiments/AOT/AOT_stimuli/rescaled_final/2113_fw.mp4	0.0	213.00822710990906	
33	168.2086570262909	pulse	1	t		31.0	2.5	/experiments/AOT/AOT_stimuli/rescaled_final/2113_fw.mp4	0.0	214.60138702392578	
33	168.73262095451355	fix_post	2		12	31.0	2.5	/experiments/AOT/AOT_stimuli/rescaled_final/2113_fw.mp4	0.0	215.12535095214844	0.10006213188171387
34	168.83268308639526	fix_pre	0		119	32.0	2.5	/experiments/AOT/AOT_stimuli/rescaled_final/1655_rv.mp4	0.0	215.22541308403015	0.9916918277740479
34	169.8086221218109	pulse	0	t		32.0	2.5	/experiments/AOT/AOT_stimuli/rescaled_final/1655_rv.mp4	0.0	216.2013521194458	
34	169.8243749141693	movie	1		245	32.0	2.5	/experiments/AOT/AOT_stimuli/rescaled_final/1655_rv.mp4	0.0	216.2171049118042	2.508334159851074
34	171.4156301021576	pulse	1	t		32.0	2.5	/experiments/AOT/AOT_stimuli/rescaled_final/1655_rv.mp4	0.0	217.80836009979248	
34	172.33270907402039	fix_post	2		12	32.0	2.5	/experiments/AOT/AOT_stimuli/rescaled_final/1655_rv.mp4	0.0	218.72543907165527	0.09988188743591309
35	172.4325909614563	fix_pre	0		120	33.0	2.5	blank	1.0	218.8253209590912	0.9999570846557617
35	173.00864601135254	pulse	0	t		33.0	2.5	blank	1.0	219.40137600898743	
35	173.43254804611206	movie	1		300	33.0	2.5	blank	1.0	219.82527804374695	2.5000009536743164
35	174.6084520816803	pulse	1	t		33.0	2.5	blank	1.0	221.00118207931519	
35	175.93254899978638	fix_post	2		12	33.0	2.5	blank	1.0	222.32527899742126	0.09996414184570312
36	176.03251314163208	fix_pre	0		120	34.0	2.5	/experiments/AOT/AOT_stimuli/rescaled_final/1837_fw.mp4	0.0	222.42524313926697	1.0001039505004883
36	176.2077190876007	pulse	0	t		34.0	2.5	/experiments/AOT/AOT_stimuli/rescaled_final/1837_fw.mp4	0.0	222.6004490852356	
36	177.03261709213257	movie	1		242	34.0	2.5	/experiments/AOT/AOT_stimuli/rescaled_final/1837_fw.mp4	0.0	223.42534708976746	2.4999589920043945
36	177.80853509902954	pulse	1	t		34.0	2.5	/experiments/AOT/AOT_stimuli/rescaled_final/1837_fw.mp4	0.0	224.20126509666443	
36	179.40767407417297	pulse	1	t		34.0	2.5	/experiments/AOT/AOT_stimuli/rescaled_final/1837_fw.mp4	0.0	225.80040407180786	
36	179.53257608413696	fix_post	2		12	34.0	2.5	/experiments/AOT/AOT_stimuli/rescaled_final/1837_fw.mp4	0.0	225.92530608177185	0.1000208854675293
37	179.6325969696045	fix_pre	0		120	35.0	2.5	/experiments/AOT/AOT_stimuli/rescaled_final/0843_rv.mp4	0.0	226.02532696723938	0.9999890327453613
37	180.63258600234985	movie	1		243	35.0	2.5	/experiments/AOT/AOT_stimuli/rescaled_final/0843_rv.mp4	0.0	227.02531599998474	2.4999821186065674
37	181.01558208465576	pulse	1	t		35.0	2.5	/experiments/AOT/AOT_stimuli/rescaled_final/0843_rv.mp4	0.0	227.40831208229065	
37	182.60879492759705	pulse	1	t		35.0	2.5	/experiments/AOT/AOT_stimuli/rescaled_final/0843_rv.mp4	0.0	229.00152492523193	
37	183.13256812095642	fix_post	2		12	35.0	2.5	/experiments/AOT/AOT_stimuli/rescaled_final/0843_rv.mp4	0.0	229.5252981185913	0.09993481636047363
38	183.2325029373169	fix_pre	0		119	36.0	2.5	/experiments/AOT/AOT_stimuli/rescaled_final/0326_fw.mp4	0.0	229.62523293495178	0.9917140007019043
38	184.20850205421448	pulse	0	t		36.0	2.5	/experiments/AOT/AOT_stimuli/rescaled_final/0326_fw.mp4	0.0	230.60123205184937	
38	184.2242169380188	movie	1		246	36.0	2.5	/experiments/AOT/AOT_stimuli/rescaled_final/0326_fw.mp4	0.0	230.6169469356537	2.508287191390991
38	185.817449092865	pulse	1	t		36.0	2.5	/experiments/AOT/AOT_stimuli/rescaled_final/0326_fw.mp4	0.0	232.21017909049988	
38	186.7325041294098	fix_post	2		12	36.0	2.5	/experiments/AOT/AOT_stimuli/rescaled_final/0326_fw.mp4	0.0	233.12523412704468	0.09958982467651367
39	186.8320939540863	fix_pre	0		120	37.0	2.5	/experiments/AOT/AOT_stimuli/rescaled_final/1558_rv.mp4	0.0	233.2248239517212	1.0003721714019775
39	187.40844702720642	pulse	0	t		37.0	2.5	/experiments/AOT/AOT_stimuli/rescaled_final/1558_rv.mp4	0.0	233.8011770248413	
39	187.83246612548828	movie	1		244	37.0	2.5	/experiments/AOT/AOT_stimuli/rescaled_final/1558_rv.mp4	0.0	234.22519612312317	2.500065803527832
39	189.01611804962158	pulse	1	t		37.0	2.5	/experiments/AOT/AOT_stimuli/rescaled_final/1558_rv.mp4	0.0	235.40884804725647	
39	190.3325319290161	fix_post	2		12	37.0	2.5	/experiments/AOT/AOT_stimuli/rescaled_final/1558_rv.mp4	0.0	236.725261926651	0.10002303123474121
40	190.43255496025085	fix_pre	0		120	38.0	2.5	/experiments/AOT/AOT_stimuli/rescaled_final/1618_fw.mp4	0.0	236.82528495788574	0.9999861717224121
40	190.6084909439087	pulse	0	t		38.0	2.5	/experiments/AOT/AOT_stimuli/rescaled_final/1618_fw.mp4	0.0	237.00122094154358	
40	191.43254113197327	movie	1		250	38.0	2.5	/experiments/AOT/AOT_stimuli/rescaled_final/1618_fw.mp4	0.0	237.82527112960815	2.4999239444732666
40	192.20853209495544	pulse	1	t		38.0	2.5	/experiments/AOT/AOT_stimuli/rescaled_final/1618_fw.mp4	0.0	238.60126209259033	
40	193.80765199661255	pulse	1	t		38.0	2.5	/experiments/AOT/AOT_stimuli/rescaled_final/1618_fw.mp4	0.0	240.20038199424744	
40	193.93246507644653	fix_post	2		12	38.0	2.5	/experiments/AOT/AOT_stimuli/rescaled_final/1618_fw.mp4	0.0	240.32519507408142	0.09999489784240723
41	194.03245997428894	fix_pre	0		120	39.0	2.5	/experiments/AOT/AOT_stimuli/rescaled_final/0827_rv.mp4	0.0	240.42518997192383	0.9999740123748779
41	195.03243398666382	movie	1		248	39.0	2.5	/experiments/AOT/AOT_stimuli/rescaled_final/0827_rv.mp4	0.0	241.4251639842987	2.500059127807617
41	195.4076669216156	pulse	1	t		39.0	2.5	/experiments/AOT/AOT_stimuli/rescaled_final/0827_rv.mp4	0.0	241.8003969192505	
41	197.00855612754822	pulse	1	t		39.0	2.5	/experiments/AOT/AOT_stimuli/rescaled_final/0827_rv.mp4	0.0	243.4012861251831	
41	197.53249311447144	fix_post	2		12	39.0	2.5	/experiments/AOT/AOT_stimuli/rescaled_final/0827_rv.mp4	0.0	243.92522311210632	0.09999895095825195
42	197.6324920654297	fix_pre	0		119	40.0	2.5	blank	1.0	244.02522206306458	0.9916720390319824
42	198.60864806175232	pulse	0	t		40.0	2.5	blank	1.0	245.0013780593872	
42	198.62416410446167	movie	1		301	40.0	2.5	blank	1.0	245.01689410209656	2.5082828998565674
42	200.20840096473694	pulse	1	t		40.0	2.5	blank	1.0	246.60113096237183	
42	201.13244700431824	fix_post	2		12	40.0	2.5	blank	1.0	247.52517700195312	0.10011911392211914
43	201.23256611824036	fix_pre	0		120	41.0	2.5	/experiments/AOT/AOT_stimuli/rescaled_final/1713_fw.mp4	0.0	247.62529611587524	0.9999918937683105
43	201.8084020614624	pulse	0	t		41.0	2.5	/experiments/AOT/AOT_stimuli/rescaled_final/1713_fw.mp4	0.0	248.2011320590973	
43	202.23255801200867	movie	1		244	41.0	2.5	/experiments/AOT/AOT_stimuli/rescaled_final/1713_fw.mp4	0.0	248.62528800964355	2.499933958053589
43	203.40870904922485	pulse	1	t		41.0	2.5	/experiments/AOT/AOT_stimuli/rescaled_final/1713_fw.mp4	0.0	249.80143904685974	
43	204.73249197006226	fix_post	2		12	41.0	2.5	/experiments/AOT/AOT_stimuli/rescaled_final/1713_fw.mp4	0.0	251.12522196769714	0.10000395774841309
44	204.83249592781067	fix_pre	0		120	42.0	2.5	/experiments/AOT/AOT_stimuli/rescaled_final/1146_fw.mp4	0.0	251.22522592544556	0.9999921321868896
44	205.0084159374237	pulse	0	t		42.0	2.5	/experiments/AOT/AOT_stimuli/rescaled_final/1146_fw.mp4	0.0	251.4011459350586	
44	205.83248805999756	movie	1		244	42.0	2.5	/experiments/AOT/AOT_stimuli/rescaled_final/1146_fw.mp4	0.0	252.22521805763245	2.4999709129333496
44	206.60852909088135	pulse	1	t		42.0	2.5	/experiments/AOT/AOT_stimuli/rescaled_final/1146_fw.mp4	0.0	253.00125908851624	
44	208.2146499156952	pulse	1	t		42.0	2.5	/experiments/AOT/AOT_stimuli/rescaled_final/1146_fw.mp4	0.0	254.60737991333008	
44	208.3324589729309	fix_post	2		12	42.0	2.5	/experiments/AOT/AOT_stimuli/rescaled_final/1146_fw.mp4	0.0	254.7251889705658	0.10001707077026367
45	208.43247604370117	fix_pre	0		120	43.0	2.5	/experiments/AOT/AOT_stimuli/rescaled_final/0914_fw.mp4	0.0	254.82520604133606	1.0000619888305664
45	209.43253803253174	movie	1		246	43.0	2.5	/experiments/AOT/AOT_stimuli/rescaled_final/0914_fw.mp4	0.0	255.82526803016663	2.499850034713745
45	209.8157069683075	pulse	1	t		43.0	2.5	/experiments/AOT/AOT_stimuli/rescaled_final/0914_fw.mp4	0.0	256.2084369659424	
45	211.40761613845825	pulse	1	t		43.0	2.5	/experiments/AOT/AOT_stimuli/rescaled_final/0914_fw.mp4	0.0	257.80034613609314	
45	211.93238806724548	fix_post	2		12	43.0	2.5	/experiments/AOT/AOT_stimuli/rescaled_final/0914_fw.mp4	0.0	258.32511806488037	0.10004687309265137
46	212.03243494033813	fix_pre	0		119	44.0	2.5	/experiments/AOT/AOT_stimuli/rescaled_final/1265_rv.mp4	0.0	258.425164937973	0.991631031036377
46	213.01596403121948	pulse	0	t		44.0	2.5	/experiments/AOT/AOT_stimuli/rescaled_final/1265_rv.mp4	0.0	259.40869402885437	
46	213.0240659713745	movie	1		244	44.0	2.5	/experiments/AOT/AOT_stimuli/rescaled_final/1265_rv.mp4	0.0	259.4167959690094	2.5083670616149902
46	214.6154270172119	pulse	1	t		44.0	2.5	/experiments/AOT/AOT_stimuli/rescaled_final/1265_rv.mp4	0.0	261.0081570148468	
46	215.5324330329895	fix_post	2		12	44.0	2.5	/experiments/AOT/AOT_stimuli/rescaled_final/1265_rv.mp4	0.0	261.9251630306244	0.0999898910522461
47	215.63242292404175	fix_pre	0		120	45.0	2.5	/experiments/AOT/AOT_stimuli/rescaled_final/1814_rv.mp4	0.0	262.02515292167664	0.999953031539917
47	216.2082929611206	pulse	0	t		45.0	2.5	/experiments/AOT/AOT_stimuli/rescaled_final/1814_rv.mp4	0.0	262.6010229587555	
47	216.63237595558167	movie	1		244	45.0	2.5	/experiments/AOT/AOT_stimuli/rescaled_final/1814_rv.mp4	0.0	263.02510595321655	2.4996249675750732
47	217.81595993041992	pulse	1	t		45.0	2.5	/experiments/AOT/AOT_stimuli/rescaled_final/1814_rv.mp4	0.0	264.2086899280548	
47	219.13200092315674	fix_post	2		12	45.0	2.5	/experiments/AOT/AOT_stimuli/rescaled_final/1814_rv.mp4	0.0	265.5247309207916	0.10040521621704102
48	219.23240613937378	fix_pre	0		120	46.0	2.5	/experiments/AOT/AOT_stimuli/rescaled_final/0698_rv.mp4	0.0	265.62513613700867	1.0000779628753662
48	219.40836310386658	pulse	0	t		46.0	2.5	/experiments/AOT/AOT_stimuli/rescaled_final/0698_rv.mp4	0.0	265.80109310150146	
48	220.23248410224915	movie	1		246	46.0	2.5	/experiments/AOT/AOT_stimuli/rescaled_final/0698_rv.mp4	0.0	266.62521409988403	2.500067949295044
48	221.0080051422119	pulse	1	t		46.0	2.5	/experiments/AOT/AOT_stimuli/rescaled_final/0698_rv.mp4	0.0	267.4007351398468	
48	222.61445903778076	pulse	1	t		46.0	2.5	/experiments/AOT/AOT_stimuli/rescaled_final/0698_rv.mp4	0.0	269.00718903541565	
48	222.7325520515442	fix_post	2		12	46.0	2.5	/experiments/AOT/AOT_stimuli/rescaled_final/0698_rv.mp4	0.0	269.1252820491791	0.10002589225769043
49	222.83257794380188	fix_pre	0		120	47.0	2.5	blank	1.0	269.22530794143677	1.0000979900360107
49	223.8326759338379	movie	1		300	47.0	2.5	blank	1.0	270.2254059314728	2.4997270107269287
49	224.20828294754028	pulse	1	t		47.0	2.5	blank	1.0	270.60101294517517	
49	225.80828595161438	pulse	1	t		47.0	2.5	blank	1.0	272.20101594924927	
49	226.33240294456482	fix_post	2		12	47.0	2.5	blank	1.0	272.7251329421997	0.09997797012329102
50	226.4323809146881	fix_pre	0		119	48.0	2.5	/experiments/AOT/AOT_stimuli/rescaled_final/1290_rv.mp4	0.0	272.825110912323	0.9916732311248779
50	227.4083149433136	pulse	0	t		48.0	2.5	/experiments/AOT/AOT_stimuli/rescaled_final/1290_rv.mp4	0.0	273.8010449409485	
50	227.424054145813	movie	1		245	48.0	2.5	/experiments/AOT/AOT_stimuli/rescaled_final/1290_rv.mp4	0.0	273.8167841434479	2.5081839561462402
50	229.01584100723267	pulse	1	t		48.0	2.5	/experiments/AOT/AOT_stimuli/rescaled_final/1290_rv.mp4	0.0	275.40857100486755	
50	229.93223810195923	fix_post	2		12	48.0	2.5	/experiments/AOT/AOT_stimuli/rescaled_final/1290_rv.mp4	0.0	276.3249680995941	0.1000509262084961
51	230.03228902816772	fix_pre	0		120	49.0	2.5	/experiments/AOT/AOT_stimuli/rescaled_final/0043_rv.mp4	0.0	276.4250190258026	0.9999489784240723
51	230.61576509475708	pulse	0	t		49.0	2.5	/experiments/AOT/AOT_stimuli/rescaled_final/0043_rv.mp4	0.0	277.00849509239197	
51	231.0322380065918	movie	1		243	49.0	2.5	/experiments/AOT/AOT_stimuli/rescaled_final/0043_rv.mp4	0.0	277.4249680042267	2.499696969985962
51	232.2158501148224	pulse	1	t		49.0	2.5	/experiments/AOT/AOT_stimuli/rescaled_final/0043_rv.mp4	0.0	278.6085801124573	
51	233.53193497657776	fix_post	2		12	49.0	2.5	/experiments/AOT/AOT_stimuli/rescaled_final/0043_rv.mp4	0.0	279.92466497421265	0.10031914710998535
52	233.63225412368774	fix_pre	0		120	50.0	2.5	/experiments/AOT/AOT_stimuli/rescaled_final/1325_rv.mp4	0.0	280.02498412132263	1.0000548362731934
52	233.80824208259583	pulse	0	t		50.0	2.5	/experiments/AOT/AOT_stimuli/rescaled_final/1325_rv.mp4	0.0	280.2009720802307	
52	234.63230895996094	movie	1		245	50.0	2.5	/experiments/AOT/AOT_stimuli/rescaled_final/1325_rv.mp4	0.0	281.0250389575958	2.4999430179595947
52	235.40829014778137	pulse	1	t		50.0	2.5	/experiments/AOT/AOT_stimuli/rescaled_final/1325_rv.mp4	0.0	281.80102014541626	
52	237.01406502723694	pulse	1	t		50.0	2.5	/experiments/AOT/AOT_stimuli/rescaled_final/1325_rv.mp4	0.0	283.4067950248718	
52	237.13225197792053	fix_post	2		12	50.0	2.5	/experiments/AOT/AOT_stimuli/rescaled_final/1325_rv.mp4	0.0	283.5249819755554	0.09998416900634766
53	237.23223614692688	fix_pre	0		120	51.0	2.5	/experiments/AOT/AOT_stimuli/rescaled_final/0965_fw.mp4	0.0	283.62496614456177	1.0000479221343994
53	238.23228406906128	movie	1		245	51.0	2.5	/experiments/AOT/AOT_stimuli/rescaled_final/0965_fw.mp4	0.0	284.62501406669617	2.499619960784912
53	238.61557507514954	pulse	1	t		51.0	2.5	/experiments/AOT/AOT_stimuli/rescaled_final/0965_fw.mp4	0.0	285.0083050727844	
53	240.20836305618286	pulse	1	t		51.0	2.5	/experiments/AOT/AOT_stimuli/rescaled_final/0965_fw.mp4	0.0	286.60109305381775	
53	240.7319040298462	fix_post	2		12	51.0	2.5	/experiments/AOT/AOT_stimuli/rescaled_final/0965_fw.mp4	0.0	287.1246340274811	0.10033488273620605
54	240.8322389125824	fix_pre	0		119	52.0	2.5	/experiments/AOT/AOT_stimuli/rescaled_final/1567_rv.mp4	0.0	287.2249689102173	0.991706132888794
54	241.80822801589966	pulse	0	t		52.0	2.5	/experiments/AOT/AOT_stimuli/rescaled_final/1567_rv.mp4	0.0	288.20095801353455	
54	241.8239450454712	movie	1		245	52.0	2.5	/experiments/AOT/AOT_stimuli/rescaled_final/1567_rv.mp4	0.0	288.2166750431061	2.5082650184631348
54	243.4155740737915	pulse	1	t		52.0	2.5	/experiments/AOT/AOT_stimuli/rescaled_final/1567_rv.mp4	0.0	289.8083040714264	
54	244.33221006393433	fix_post	2		12	52.0	2.5	/experiments/AOT/AOT_stimuli/rescaled_final/1567_rv.mp4	0.0	290.7249400615692	0.1001129150390625
55	244.4323229789734	fix_pre	0		120	53.0	2.5	/experiments/AOT/AOT_stimuli/rescaled_final/0509_fw.mp4	0.0	290.8250529766083	0.9995501041412354
55	245.01576209068298	pulse	0	t		53.0	2.5	/experiments/AOT/AOT_stimuli/rescaled_final/0509_fw.mp4	0.0	291.40849208831787	
55	245.43187308311462	movie	1		246	53.0	2.5	/experiments/AOT/AOT_stimuli/rescaled_final/0509_fw.mp4	0.0	291.8246030807495	2.500364065170288
55	246.6158299446106	pulse	1	t		53.0	2.5	/experiments/AOT/AOT_stimuli/rescaled_final/0509_fw.mp4	0.0	293.0085599422455	
55	247.9322371482849	fix_post	2		12	53.0	2.5	/experiments/AOT/AOT_stimuli/rescaled_final/0509_fw.mp4	0.0	294.3249671459198	0.09993481636047363
56	248.03217196464539	fix_pre	0		120	54.0	2.5	blank	1.0	294.4249019622803	1.0000560283660889
56	248.2158341407776	pulse	0	t		54.0	2.5	blank	1.0	294.6085641384125	
56	249.03222799301147	movie	1		300	54.0	2.5	blank	1.0	295.42495799064636	2.5000619888305664
56	249.81571006774902	pulse	1	t		54.0	2.5	blank	1.0	296.2084400653839	
56	251.40820813179016	pulse	1	t		54.0	2.5	blank	1.0	297.80093812942505	
56	251.53228998184204	fix_post	2		12	54.0	2.5	blank	1.0	297.92501997947693	0.09995102882385254
57	251.6322410106659	fix_pre	0		120	55.0	2.5	/experiments/AOT/AOT_stimuli/rescaled_final/1571_fw.mp4	0.0	298.0249710083008	1.0000219345092773
57	252.63226294517517	movie	1		243	55.0	2.5	/experiments/AOT/AOT_stimuli/rescaled_final/1571_fw.mp4	0.0	299.02499294281006	2.4998810291290283
57	253.01574611663818	pulse	1	t		55.0	2.5	/experiments/AOT/AOT_stimuli/rescaled_final/1571_fw.mp4	0.0	299.40847611427307	
57	254.60827112197876	pulse	1	t		55.0	2.5	/experiments/AOT/AOT_stimuli/rescaled_final/1571_fw.mp4	0.0	301.00100111961365	
57	255.1321439743042	fix_post	2		12	55.0	2.5	/experiments/AOT/AOT_stimuli/rescaled_final/1571_fw.mp4	0.0	301.5248739719391	0.09998703002929688
58	255.2321310043335	fix_pre	0		119	56.0	2.5	/experiments/AOT/AOT_stimuli/rescaled_final/0881_fw.mp4	0.0	301.6248610019684	0.9917221069335938
58	256.20823097229004	pulse	0	t		56.0	2.5	/experiments/AOT/AOT_stimuli/rescaled_final/0881_fw.mp4	0.0	302.6009609699249	
58	256.2238531112671	movie	1		247	56.0	2.5	/experiments/AOT/AOT_stimuli/rescaled_final/0881_fw.mp4	0.0	302.616583108902	2.5078890323638916
58	257.8170609474182	pulse	1	t		56.0	2.5	/experiments/AOT/AOT_stimuli/rescaled_final/0881_fw.mp4	0.0	304.2097909450531	
58	258.731742143631	fix_post	2		12	56.0	2.5	/experiments/AOT/AOT_stimuli/rescaled_final/0881_fw.mp4	0.0	305.12447214126587	0.10044384002685547
59	258.83218598365784	fix_pre	0		120	57.0	2.5	/experiments/AOT/AOT_stimuli/rescaled_final/0808_fw.mp4	0.0	305.2249159812927	1.0000760555267334
59	259.408273935318	pulse	0	t		57.0	2.5	/experiments/AOT/AOT_stimuli/rescaled_final/0808_fw.mp4	0.0	305.8010039329529	
59	259.83226203918457	movie	1		245	57.0	2.5	/experiments/AOT/AOT_stimuli/rescaled_final/0808_fw.mp4	0.0	306.22499203681946	2.5000081062316895
59	261.0157160758972	pulse	1	t		57.0	2.5	/experiments/AOT/AOT_stimuli/rescaled_final/0808_fw.mp4	0.0	307.4084460735321	
59	262.33227014541626	fix_post	2		12	57.0	2.5	/experiments/AOT/AOT_stimuli/rescaled_final/0808_fw.mp4	0.0	308.72500014305115	0.09982895851135254
60	262.4320991039276	fix_pre	0		120	58.0	2.5	/experiments/AOT/AOT_stimuli/rescaled_final/1589_fw.mp4	0.0	308.8248291015625	1.0001099109649658
60	262.6156539916992	pulse	0	t		58.0	2.5	/experiments/AOT/AOT_stimuli/rescaled_final/1589_fw.mp4	0.0	309.0083839893341	
60	263.4322090148926	movie	1		246	58.0	2.5	/experiments/AOT/AOT_stimuli/rescaled_final/1589_fw.mp4	0.0	309.82493901252747	2.4998679161071777
60	264.2156591415405	pulse	1	t		58.0	2.5	/experiments/AOT/AOT_stimuli/rescaled_final/1589_fw.mp4	0.0	310.6083891391754	
60	265.81437492370605	pulse	1	t		58.0	2.5	/experiments/AOT/AOT_stimuli/rescaled_final/1589_fw.mp4	0.0	312.20710492134094	
60	265.93207693099976	fix_post	2		12	58.0	2.5	/experiments/AOT/AOT_stimuli/rescaled_final/1589_fw.mp4	0.0	312.32480692863464	0.10008406639099121
61	266.03216099739075	fix_pre	0		120	59.0	2.5	/experiments/AOT/AOT_stimuli/rescaled_final/0589_rv.mp4	0.0	312.42489099502563	0.9999549388885498
61	267.0321159362793	movie	1		246	59.0	2.5	/experiments/AOT/AOT_stimuli/rescaled_final/0589_rv.mp4	0.0	313.4248459339142	2.4999701976776123
61	267.41690397262573	pulse	1	t		59.0	2.5	/experiments/AOT/AOT_stimuli/rescaled_final/0589_rv.mp4	0.0	313.8096339702606	
61	269.0082371234894	pulse	1	t		59.0	2.5	/experiments/AOT/AOT_stimuli/rescaled_final/0589_rv.mp4	0.0	315.40096712112427	
61	269.5320861339569	fix_post	2		12	59.0	2.5	/experiments/AOT/AOT_stimuli/rescaled_final/0589_rv.mp4	0.0	315.9248161315918	0.09999394416809082
62	269.632080078125	fix_pre	0		119	60.0	2.5	/experiments/AOT/AOT_stimuli/rescaled_final/1655_fw.mp4	0.0	316.0248100757599	0.991703987121582
62	270.6079161167145	pulse	0	t		60.0	2.5	/experiments/AOT/AOT_stimuli/rescaled_final/1655_fw.mp4	0.0	317.00064611434937	
62	270.6237840652466	movie	1		244	60.0	2.5	/experiments/AOT/AOT_stimuli/rescaled_final/1655_fw.mp4	0.0	317.01651406288147	2.5084519386291504
62	272.21502900123596	pulse	1	t		60.0	2.5	/experiments/AOT/AOT_stimuli/rescaled_final/1655_fw.mp4	0.0	318.60775899887085	
62	273.13223600387573	fix_post	2		12	60.0	2.5	/experiments/AOT/AOT_stimuli/rescaled_final/1655_fw.mp4	0.0	319.5249660015106	0.099884033203125
63	273.23212003707886	fix_pre	0		120	61.0	2.5	/experiments/AOT/AOT_stimuli/rescaled_final/1180_rv.mp4	0.0	319.62485003471375	0.9995598793029785
63	273.8082220554352	pulse	0	t		61.0	2.5	/experiments/AOT/AOT_stimuli/rescaled_final/1180_rv.mp4	0.0	320.20095205307007	
63	274.23167991638184	movie	1		245	61.0	2.5	/experiments/AOT/AOT_stimuli/rescaled_final/1180_rv.mp4	0.0	320.6244099140167	2.500448226928711
63	275.41576313972473	pulse	1	t		61.0	2.5	/experiments/AOT/AOT_stimuli/rescaled_final/1180_rv.mp4	0.0	321.8084931373596	
63	276.73212814331055	fix_post	2		12	61.0	2.5	/experiments/AOT/AOT_stimuli/rescaled_final/1180_rv.mp4	0.0	323.12485814094543	0.09961485862731934
64	276.83174300193787	fix_pre	0		120	62.0	2.5	/experiments/AOT/AOT_stimuli/rescaled_final/0972_fw.mp4	0.0	323.22447299957275	1.0004050731658936
64	277.0155780315399	pulse	0	t		62.0	2.5	/experiments/AOT/AOT_stimuli/rescaled_final/0972_fw.mp4	0.0	323.4083080291748	
64	277.83214807510376	movie	1		243	62.0	2.5	/experiments/AOT/AOT_stimuli/rescaled_final/0972_fw.mp4	0.0	324.22487807273865	2.499577045440674
64	278.6152629852295	pulse	1	t		62.0	2.5	/experiments/AOT/AOT_stimuli/rescaled_final/0972_fw.mp4	0.0	325.0079929828644	
64	280.2139539718628	pulse	1	t		62.0	2.5	/experiments/AOT/AOT_stimuli/rescaled_final/0972_fw.mp4	0.0	326.6066839694977	
64	280.33172512054443	fix_post	2		12	62.0	2.5	/experiments/AOT/AOT_stimuli/rescaled_final/0972_fw.mp4	0.0	326.7244551181793	0.10035395622253418
65	280.43207907676697	fix_pre	0		120	63.0	2.5	blank	1.0	326.82480907440186	1.0000619888305664
65	281.43214106559753	movie	1		300	63.0	2.5	blank	1.0	327.8248710632324	2.4999289512634277
65	281.81556701660156	pulse	1	t		63.0	2.5	blank	1.0	328.20829701423645	
65	283.4156119823456	pulse	1	t		63.0	2.5	blank	1.0	329.80834197998047	
65	283.93207001686096	fix_post	2		12	63.0	2.5	blank	1.0	330.32480001449585	0.09996700286865234
66	284.0320370197296	fix_pre	0		119	64.0	2.5	/experiments/AOT/AOT_stimuli/rescaled_final/1660_fw.mp4	0.0	330.4247670173645	0.9917600154876709
66	285.01541900634766	pulse	0	t		64.0	2.5	/experiments/AOT/AOT_stimuli/rescaled_final/1660_fw.mp4	0.0	331.40814900398254	
66	285.0237970352173	movie	1		247	64.0	2.5	/experiments/AOT/AOT_stimuli/rescaled_final/1660_fw.mp4	0.0	331.4165270328522	2.5084609985351562
66	286.61522912979126	pulse	1	t		64.0	2.5	/experiments/AOT/AOT_stimuli/rescaled_final/1660_fw.mp4	0.0	333.00795912742615	
66	287.53225803375244	fix_post	2		12	64.0	2.5	/experiments/AOT/AOT_stimuli/rescaled_final/1660_fw.mp4	0.0	333.92498803138733	0.09974002838134766
67	287.6319980621338	fix_pre	0		120	65.0	2.5	/experiments/AOT/AOT_stimuli/rescaled_final/0570_fw.mp4	0.0	334.0247280597687	0.9997000694274902
67	288.20809602737427	pulse	0	t		65.0	2.5	/experiments/AOT/AOT_stimuli/rescaled_final/0570_fw.mp4	0.0	334.60082602500916	
67	288.6316981315613	movie	1		246	65.0	2.5	/experiments/AOT/AOT_stimuli/rescaled_final/0570_fw.mp4	0.0	335.02442812919617	2.5003089904785156
67	289.8081829547882	pulse	1	t		65.0	2.5	/experiments/AOT/AOT_stimuli/rescaled_final/0570_fw.mp4	0.0	336.2009129524231	
67	291.1320071220398	fix_post	2		12	65.0	2.5	/experiments/AOT/AOT_stimuli/rescaled_final/0570_fw.mp4	0.0	337.5247371196747	0.10017800331115723
68	291.23218512535095	fix_pre	0		120	66.0	2.5	/experiments/AOT/AOT_stimuli/rescaled_final/1924_rv.mp4	0.0	337.62491512298584	0.9998698234558105
68	291.4080810546875	pulse	0	t		66.0	2.5	/experiments/AOT/AOT_stimuli/rescaled_final/1924_rv.mp4	0.0	337.8008110523224	
68	292.23205494880676	movie	1		245	66.0	2.5	/experiments/AOT/AOT_stimuli/rescaled_final/1924_rv.mp4	0.0	338.62478494644165	2.499917984008789
68	293.0155041217804	pulse	1	t		66.0	2.5	/experiments/AOT/AOT_stimuli/rescaled_final/1924_rv.mp4	0.0	339.4082341194153	
68	294.6140401363373	pulse	1	t		66.0	2.5	/experiments/AOT/AOT_stimuli/rescaled_final/1924_rv.mp4	0.0	341.00677013397217	
68	294.73197293281555	fix_post	2		12	66.0	2.5	/experiments/AOT/AOT_stimuli/rescaled_final/1924_rv.mp4	0.0	341.12470293045044	0.10004711151123047
69	294.8320200443268	fix_pre	0		120	67.0	2.5	/experiments/AOT/AOT_stimuli/rescaled_final/0499_rv.mp4	0.0	341.22475004196167	1.0000090599060059
69	295.8320291042328	movie	1		246	67.0	2.5	/experiments/AOT/AOT_stimuli/rescaled_final/0499_rv.mp4	0.0	342.2247591018677	2.4999239444732666
69	296.2149250507355	pulse	1	t		67.0	2.5	/experiments/AOT/AOT_stimuli/rescaled_final/0499_rv.mp4	0.0	342.60765504837036	
69	297.8154499530792	pulse	1	t		67.0	2.5	/experiments/AOT/AOT_stimuli/rescaled_final/0499_rv.mp4	0.0	344.2081799507141	
69	298.33195304870605	fix_post	2		12	67.0	2.5	/experiments/AOT/AOT_stimuli/rescaled_final/0499_rv.mp4	0.0	344.72468304634094	0.10004997253417969
70	298.43200302124023	fix_pre	0		119	68.0	2.5	/experiments/AOT/AOT_stimuli/rescaled_final/1549_fw.mp4	0.0	344.8247330188751	0.991645097732544
70	299.41546297073364	pulse	0	t		68.0	2.5	/experiments/AOT/AOT_stimuli/rescaled_final/1549_fw.mp4	0.0	345.80819296836853	
70	299.4236481189728	movie	1		244	68.0	2.5	/experiments/AOT/AOT_stimuli/rescaled_final/1549_fw.mp4	0.0	345.81637811660767	2.507889986038208
70	301.0167739391327	pulse	1	t		68.0	2.5	/experiments/AOT/AOT_stimuli/rescaled_final/1549_fw.mp4	0.0	347.4095039367676	
70	301.931538105011	fix_post	2		12	68.0	2.5	/experiments/AOT/AOT_stimuli/rescaled_final/1549_fw.mp4	0.0	348.3242681026459	0.10041594505310059
71	302.0319540500641	fix_pre	0		120	69.0	2.5	blank	1.0	348.424684047699	1.000046968460083
71	302.615473985672	pulse	0	t		69.0	2.5	blank	1.0	349.0082039833069	
71	303.03200101852417	movie	1		300	69.0	2.5	blank	1.0	349.42473101615906	2.4999849796295166
71	304.2080171108246	pulse	1	t		69.0	2.5	blank	1.0	350.6007471084595	
71	305.5319859981537	fix_post	2		12	69.0	2.5	blank	1.0	351.9247159957886	0.10001707077026367
72	305.63200306892395	fix_pre	0		120	70.0	2.5	/experiments/AOT/AOT_stimuli/rescaled_final/0897_fw.mp4	0.0	352.02473306655884	0.9998700618743896
72	305.8079481124878	pulse	0	t		70.0	2.5	/experiments/AOT/AOT_stimuli/rescaled_final/0897_fw.mp4	0.0	352.2006781101227	
72	306.63187313079834	movie	1		246	70.0	2.5	/experiments/AOT/AOT_stimuli/rescaled_final/0897_fw.mp4	0.0	353.0246031284332	2.499987840652466
72	307.4080309867859	pulse	1	t		70.0	2.5	/experiments/AOT/AOT_stimuli/rescaled_final/0897_fw.mp4	0.0	353.8007609844208	
72	309.0144009590149	pulse	1	t		70.0	2.5	/experiments/AOT/AOT_stimuli/rescaled_final/0897_fw.mp4	0.0	355.4071309566498	
72	309.1318609714508	fix_post	2		12	70.0	2.5	/experiments/AOT/AOT_stimuli/rescaled_final/0897_fw.mp4	0.0	355.5245909690857	0.1000521183013916
73	309.2319130897522	fix_pre	0		120	71.0	2.5	/experiments/AOT/AOT_stimuli/rescaled_final/0748_fw.mp4	0.0	355.6246430873871	1.0000219345092773
73	310.2319350242615	movie	1		247	71.0	2.5	/experiments/AOT/AOT_stimuli/rescaled_final/0748_fw.mp4	0.0	356.62466502189636	2.499540090560913
73	310.6149251461029	pulse	1	t		71.0	2.5	/experiments/AOT/AOT_stimuli/rescaled_final/0748_fw.mp4	0.0	357.0076551437378	
73	312.2154450416565	pulse	1	t		71.0	2.5	/experiments/AOT/AOT_stimuli/rescaled_final/0748_fw.mp4	0.0	358.6081750392914	
73	312.7314751148224	fix_post	2		12	71.0	2.5	/experiments/AOT/AOT_stimuli/rescaled_final/0748_fw.mp4	0.0	359.1242051124573	0.09999990463256836
74	312.83147501945496	fix_pre	0		119	72.0	2.5	/experiments/AOT/AOT_stimuli/rescaled_final/0555_rv.mp4	0.0	359.22420501708984	0.9921050071716309
74	313.8154299259186	pulse	0	t		72.0	2.5	/experiments/AOT/AOT_stimuli/rescaled_final/0555_rv.mp4	0.0	360.20815992355347	
74	313.8235800266266	movie	1		246	72.0	2.5	/experiments/AOT/AOT_stimuli/rescaled_final/0555_rv.mp4	0.0	360.2163100242615	2.508341073989868
74	315.4147729873657	pulse	1	t		72.0	2.5	/experiments/AOT/AOT_stimuli/rescaled_final/0555_rv.mp4	0.0	361.8075029850006	
74	316.33192110061646	fix_post	2		12	72.0	2.5	/experiments/AOT/AOT_stimuli/rescaled_final/0555_rv.mp4	0.0	362.72465109825134	0.1000528335571289
75	316.4319739341736	fix_pre	0		120	73.0	2.5	/experiments/AOT/AOT_stimuli/rescaled_final/1118_fw.mp4	0.0	362.8247039318085	0.9999141693115234
75	317.01538491249084	pulse	0	t		73.0	2.5	/experiments/AOT/AOT_stimuli/rescaled_final/1118_fw.mp4	0.0	363.40811491012573	
75	317.4318881034851	movie	1		244	73.0	2.5	/experiments/AOT/AOT_stimuli/rescaled_final/1118_fw.mp4	0.0	363.82461810112	2.4999279975891113
75	318.6081669330597	pulse	1	t		73.0	2.5	/experiments/AOT/AOT_stimuli/rescaled_final/1118_fw.mp4	0.0	365.0008969306946	
75	319.9318161010742	fix_post	2		12	73.0	2.5	/experiments/AOT/AOT_stimuli/rescaled_final/1118_fw.mp4	0.0	366.3245460987091	0.1000678539276123
76	320.03188395500183	fix_pre	0		120	74.0	2.5	/experiments/AOT/AOT_stimuli/rescaled_final/1300_fw.mp4	0.0	366.4246139526367	1.000020980834961
76	320.2155730724335	pulse	0	t		74.0	2.5	/experiments/AOT/AOT_stimuli/rescaled_final/1300_fw.mp4	0.0	366.60830307006836	
76	321.0319049358368	movie	1		246	74.0	2.5	/experiments/AOT/AOT_stimuli/rescaled_final/1300_fw.mp4	0.0	367.4246349334717	2.499983072280884
76	321.80802607536316	pulse	1	t		74.0	2.5	/experiments/AOT/AOT_stimuli/rescaled_final/1300_fw.mp4	0.0	368.20075607299805	
76	323.4078290462494	pulse	1	t		74.0	2.5	/experiments/AOT/AOT_stimuli/rescaled_final/1300_fw.mp4	0.0	369.8005590438843	
76	323.5318880081177	fix_post	2		12	74.0	2.5	/experiments/AOT/AOT_stimuli/rescaled_final/1300_fw.mp4	0.0	369.92461800575256	0.09955096244812012
77	323.6314389705658	fix_pre	0		120	75.0	2.5	/experiments/AOT/AOT_stimuli/rescaled_final/0897_rv.mp4	0.0	370.0241689682007	1.000396966934204
77	324.6318359375	movie	1		244	75.0	2.5	/experiments/AOT/AOT_stimuli/rescaled_final/0897_rv.mp4	0.0	371.0245659351349	2.4995250701904297
77	325.0150110721588	pulse	1	t		75.0	2.5	/experiments/AOT/AOT_stimuli/rescaled_final/0897_rv.mp4	0.0	371.4077410697937	
77	326.6152880191803	pulse	1	t		75.0	2.5	/experiments/AOT/AOT_stimuli/rescaled_final/0897_rv.mp4	0.0	373.0080180168152	
77	327.13136100769043	fix_post	2		12	75.0	2.5	/experiments/AOT/AOT_stimuli/rescaled_final/0897_rv.mp4	0.0	373.5240910053253	0.10045003890991211
78	327.23181104660034	fix_pre	0		119	76.0	2.5	blank	1.0	373.62454104423523	0.9916839599609375
78	328.2152490615845	pulse	0	t		76.0	2.5	blank	1.0	374.60797905921936	
78	328.2234950065613	movie	1		301	76.0	2.5	blank	1.0	374.61622500419617	2.507923126220703
78	329.8152599334717	pulse	1	t		76.0	2.5	blank	1.0	376.20798993110657	
78	330.731418132782	fix_post	2		12	76.0	2.5	blank	1.0	377.12414813041687	0.10042190551757812
79	330.83184003829956	fix_pre	0		120	77.0	2.5	/experiments/AOT/AOT_stimuli/rescaled_final/1384_fw.mp4	0.0	377.22457003593445	0.9995789527893066
79	331.4154050350189	pulse	0	t		77.0	2.5	/experiments/AOT/AOT_stimuli/rescaled_final/1384_fw.mp4	0.0	377.8081350326538	
79	331.83141899108887	movie	1		244	77.0	2.5	/experiments/AOT/AOT_stimuli/rescaled_final/1384_fw.mp4	0.0	378.22414898872375	2.5001280307769775
79	333.0154299736023	pulse	1	t		77.0	2.5	/experiments/AOT/AOT_stimuli/rescaled_final/1384_fw.mp4	0.0	379.4081599712372	
79	334.33154702186584	fix_post	2		12	77.0	2.5	/experiments/AOT/AOT_stimuli/rescaled_final/1384_fw.mp4	0.0	380.72427701950073	0.10005307197570801
80	334.43160009384155	fix_pre	0		120	78.0	2.5	/experiments/AOT/AOT_stimuli/rescaled_final/1615_fw.mp4	0.0	380.82433009147644	1.0000479221343994
80	334.6154520511627	pulse	0	t		78.0	2.5	/experiments/AOT/AOT_stimuli/rescaled_final/1615_fw.mp4	0.0	381.0081820487976	
80	335.43164801597595	movie	1		246	78.0	2.5	/experiments/AOT/AOT_stimuli/rescaled_final/1615_fw.mp4	0.0	381.82437801361084	2.5001931190490723
80	336.21536803245544	pulse	1	t		78.0	2.5	/experiments/AOT/AOT_stimuli/rescaled_final/1615_fw.mp4	0.0	382.60809803009033	
80	337.8112859725952	pulse	1	t		78.0	2.5	/experiments/AOT/AOT_stimuli/rescaled_final/1615_fw.mp4	0.0	384.2040159702301	
80	337.931841135025	fix_post	2		12	78.0	2.5	/experiments/AOT/AOT_stimuli/rescaled_final/1615_fw.mp4	0.0	384.3245711326599	0.0999288558959961
81	338.031769990921	fix_pre	0		120	79.0	2.5	/experiments/AOT/AOT_stimuli/rescaled_final/1265_rv.mp4	0.0	384.4244999885559	1.0000569820404053
81	339.0318269729614	movie	1		243	79.0	2.5	/experiments/AOT/AOT_stimuli/rescaled_final/1265_rv.mp4	0.0	385.4245569705963	2.499948024749756
81	339.4146671295166	pulse	1	t		79.0	2.5	/experiments/AOT/AOT_stimuli/rescaled_final/1265_rv.mp4	0.0	385.8073971271515	
81	341.0151741504669	pulse	1	t		79.0	2.5	/experiments/AOT/AOT_stimuli/rescaled_final/1265_rv.mp4	0.0	387.4079041481018	
81	341.5317749977112	fix_post	2		12	79.0	2.5	/experiments/AOT/AOT_stimuli/rescaled_final/1265_rv.mp4	0.0	387.92450499534607	0.09998011589050293
82	341.6317551136017	fix_pre	0		119	80.0	2.5	/experiments/AOT/AOT_stimuli/rescaled_final/0371_rv.mp4	0.0	388.0244851112366	0.9917218685150146
82	342.6152410507202	pulse	0	t		80.0	2.5	/experiments/AOT/AOT_stimuli/rescaled_final/0371_rv.mp4	0.0	389.0079710483551	
82	342.6234769821167	movie	1		245	80.0	2.5	/experiments/AOT/AOT_stimuli/rescaled_final/0371_rv.mp4	0.0	389.0162069797516	2.508296012878418
82	344.2153949737549	pulse	1	t		80.0	2.5	/experiments/AOT/AOT_stimuli/rescaled_final/0371_rv.mp4	0.0	390.60812497138977	
82	345.1317729949951	fix_post	2		12	80.0	2.5	/experiments/AOT/AOT_stimuli/rescaled_final/0371_rv.mp4	0.0	391.52450299263	0.09993195533752441
83	345.23170495033264	fix_pre	0		120	81.0	2.5	/experiments/AOT/AOT_stimuli/rescaled_final/0371_fw.mp4	0.0	391.62443494796753	0.9999911785125732
83	345.81518292427063	pulse	0	t		81.0	2.5	/experiments/AOT/AOT_stimuli/rescaled_final/0371_fw.mp4	0.0	392.2079129219055	
83	346.2316961288452	movie	1		244	81.0	2.5	/experiments/AOT/AOT_stimuli/rescaled_final/0371_fw.mp4	0.0	392.6244261264801	2.4995667934417725
83	347.4153079986572	pulse	1	t		81.0	2.5	/experiments/AOT/AOT_stimuli/rescaled_final/0371_fw.mp4	0.0	393.8080379962921	
83	348.731262922287	fix_post	2		12	81.0	2.5	/experiments/AOT/AOT_stimuli/rescaled_final/0371_fw.mp4	0.0	395.1239929199219	0.10044503211975098
84	348.83170795440674	fix_pre	0		120	82.0	2.5	/experiments/AOT/AOT_stimuli/rescaled_final/0420_fw.mp4	0.0	395.2244379520416	0.9999771118164062
84	349.015202999115	pulse	0	t		82.0	2.5	/experiments/AOT/AOT_stimuli/rescaled_final/0420_fw.mp4	0.0	395.4079329967499	
84	349.83168506622314	movie	1		244	82.0	2.5	/experiments/AOT/AOT_stimuli/rescaled_final/0420_fw.mp4	0.0	396.22441506385803	2.4996209144592285
84	350.6151270866394	pulse	1	t		82.0	2.5	/experiments/AOT/AOT_stimuli/rescaled_final/0420_fw.mp4	0.0	397.0078570842743	
84	352.21389412879944	pulse	1	t		82.0	2.5	/experiments/AOT/AOT_stimuli/rescaled_final/0420_fw.mp4	0.0	398.6066241264343	
84	352.3313059806824	fix_post	2		12	82.0	2.5	/experiments/AOT/AOT_stimuli/rescaled_final/0420_fw.mp4	0.0	398.72403597831726	0.10044503211975098
85	352.4317510128021	fix_pre	0		120	83.0	2.5	blank	1.0	398.824481010437	0.999553918838501
85	353.4313049316406	movie	1		300	83.0	2.5	blank	1.0	399.8240349292755	2.5004231929779053
85	353.81513714790344	pulse	1	t		83.0	2.5	blank	1.0	400.20786714553833	
85	355.41516399383545	pulse	1	t		83.0	2.5	blank	1.0	401.80789399147034	
85	355.93172812461853	fix_post	2		12	83.0	2.5	blank	1.0	402.3244581222534	0.09994888305664062
87	356.03167700767517	stim	0		1716					402.42440700531006	14.300050973892212
87	357.01517510414124	pulse	0	t						403.4079051017761	
87	358.61517691612244	pulse	0	t						405.0079069137573	
87	360.2151770591736	pulse	0	t						406.6079070568085	
87	361.8151431083679	pulse	0	t						408.2078731060028	
87	363.4150941371918	pulse	0	t						409.80782413482666	
87	365.0151650905609	pulse	0	t						411.4078950881958	
87	366.61508798599243	pulse	0	t						413.0078179836273	
87	368.2150731086731	pulse	0	t						414.607803106308	
87	369.8150780200958	pulse	0	t						416.2078080177307	
