trial_nr	onset	event_type	phase	response	nr_frames	movie_index	movie_duration	movie_file	blank	onset_abs	duration
0	0.13326501846313477	stim	0		196					24.72990894317627	1.6332941055297852
0	1.7590689659118652	response	0	space						26.355712890625	
1	1.76655912399292	stim	0		24452					26.363203048706055	203.7658360004425
1	205.5266559123993	pulse	0	t						230.12329983711243	
1	205.53239512443542	stim	1		1717					230.12903904914856	14.308173894882202
1	207.12422013282776	pulse	1	t						231.7208640575409	
1	208.72412109375	pulse	1	t						233.32076501846313	
1	210.32427406311035	pulse	1	t						234.9209179878235	
1	211.92369294166565	pulse	1	t						236.52033686637878	
1	213.52384090423584	pulse	1	t						238.12048482894897	
1	215.1240611076355	pulse	1	t						239.72070503234863	
1	216.7240469455719	pulse	1	t						241.32069087028503	
1	218.32408595085144	pulse	1	t						242.92072987556458	
2	219.84056901931763	fix_pre	0		11	0.0	2.5	/experiments/AOT/AOT_stimuli/rescaled_final/0971_fw.mp4	0.0	244.43721294403076	0.09163594245910645
2	219.92405104637146	pulse	0	t		0.0	2.5	/experiments/AOT/AOT_stimuli/rescaled_final/0971_fw.mp4	0.0	244.5206949710846	
2	219.93220496177673	movie	1		239	0.0	2.5	/experiments/AOT/AOT_stimuli/rescaled_final/0971_fw.mp4	0.0	244.52884888648987	2.5084259510040283
2	221.5237729549408	pulse	1	t		0.0	2.5	/experiments/AOT/AOT_stimuli/rescaled_final/0971_fw.mp4	0.0	246.12041687965393	
2	222.44063091278076	fix_post	2		12	0.0	2.5	/experiments/AOT/AOT_stimuli/rescaled_final/0971_fw.mp4	0.0	247.0372748374939	0.10002803802490234
3	222.54065895080566	fix_pre	0		120	1.0	2.5	/experiments/AOT/AOT_stimuli/rescaled_final/0570_fw.mp4	0.0	247.1373028755188	0.999873161315918
3	223.12404799461365	pulse	0	t		1.0	2.5	/experiments/AOT/AOT_stimuli/rescaled_final/0570_fw.mp4	0.0	247.72069191932678	
3	223.54053211212158	movie	1		243	1.0	2.5	/experiments/AOT/AOT_stimuli/rescaled_final/0570_fw.mp4	0.0	248.13717603683472	2.5000948905944824
3	224.72399997711182	pulse	1	t		1.0	2.5	/experiments/AOT/AOT_stimuli/rescaled_final/0570_fw.mp4	0.0	249.32064390182495	
3	226.04062700271606	fix_post	2		12	1.0	2.5	/experiments/AOT/AOT_stimuli/rescaled_final/0570_fw.mp4	0.0	250.6372709274292	0.09992599487304688
4	226.1405529975891	fix_pre	0		120	2.0	2.5	/experiments/AOT/AOT_stimuli/rescaled_final/0319_rv.mp4	0.0	250.73719692230225	1.0001940727233887
4	226.3240029811859	pulse	0	t		2.0	2.5	/experiments/AOT/AOT_stimuli/rescaled_final/0319_rv.mp4	0.0	250.92064690589905	
4	227.1407470703125	movie	1		243	2.0	2.5	/experiments/AOT/AOT_stimuli/rescaled_final/0319_rv.mp4	0.0	251.73739099502563	2.499711036682129
4	227.92401599884033	pulse	1	t		2.0	2.5	/experiments/AOT/AOT_stimuli/rescaled_final/0319_rv.mp4	0.0	252.52065992355347	
4	229.522558927536	pulse	1	t		2.0	2.5	/experiments/AOT/AOT_stimuli/rescaled_final/0319_rv.mp4	0.0	254.11920285224915	
4	229.64045810699463	fix_post	2		12	2.0	2.5	/experiments/AOT/AOT_stimuli/rescaled_final/0319_rv.mp4	0.0	254.23710203170776	0.10007286071777344
5	229.7405309677124	fix_pre	0		120	3.0	2.5	/experiments/AOT/AOT_stimuli/rescaled_final/0551_fw.mp4	0.0	254.33717489242554	0.9999589920043945
5	230.7404899597168	movie	1		241	3.0	2.5	/experiments/AOT/AOT_stimuli/rescaled_final/0551_fw.mp4	0.0	255.33713388442993	2.5004589557647705
5	231.1243541240692	pulse	1	t		3.0	2.5	/experiments/AOT/AOT_stimuli/rescaled_final/0551_fw.mp4	0.0	255.72099804878235	
5	232.72421097755432	pulse	1	t		3.0	2.5	/experiments/AOT/AOT_stimuli/rescaled_final/0551_fw.mp4	0.0	257.32085490226746	
5	233.24094891548157	fix_post	2		12	3.0	2.5	/experiments/AOT/AOT_stimuli/rescaled_final/0551_fw.mp4	0.0	257.8375928401947	0.0997161865234375
6	233.340665102005	fix_pre	0		119	4.0	2.5	/experiments/AOT/AOT_stimuli/rescaled_final/1120_rv.mp4	0.0	257.93730902671814	0.9914779663085938
6	234.32401394844055	pulse	0	t		4.0	2.5	/experiments/AOT/AOT_stimuli/rescaled_final/1120_rv.mp4	0.0	258.9206578731537	
6	234.3321430683136	movie	1		245	4.0	2.5	/experiments/AOT/AOT_stimuli/rescaled_final/1120_rv.mp4	0.0	258.92878699302673	2.5083909034729004
6	235.92396998405457	pulse	1	t		4.0	2.5	/experiments/AOT/AOT_stimuli/rescaled_final/1120_rv.mp4	0.0	260.5206139087677	
6	236.8405339717865	fix_post	2		12	4.0	2.5	/experiments/AOT/AOT_stimuli/rescaled_final/1120_rv.mp4	0.0	261.43717789649963	0.09993505477905273
7	236.94046902656555	fix_pre	0		120	5.0	2.5	/experiments/AOT/AOT_stimuli/rescaled_final/0551_rv.mp4	0.0	261.5371129512787	1.0000460147857666
7	237.52403092384338	pulse	0	t		5.0	2.5	/experiments/AOT/AOT_stimuli/rescaled_final/0551_rv.mp4	0.0	262.1206748485565	
7	237.94051504135132	movie	1		242	5.0	2.5	/experiments/AOT/AOT_stimuli/rescaled_final/0551_rv.mp4	0.0	262.53715896606445	2.5004210472106934
7	239.12401604652405	pulse	1	t		5.0	2.5	/experiments/AOT/AOT_stimuli/rescaled_final/0551_rv.mp4	0.0	263.7206599712372	
7	240.440936088562	fix_post	2		12	5.0	2.5	/experiments/AOT/AOT_stimuli/rescaled_final/0551_rv.mp4	0.0	265.03758001327515	0.09952092170715332
8	240.54045701026917	fix_pre	0		120	6.0	2.5	blank	1.0	265.1371009349823	1.0000779628753662
8	240.72418999671936	pulse	0	t		6.0	2.5	blank	1.0	265.3208339214325	
8	241.54053497314453	movie	1		300	6.0	2.5	blank	1.0	266.13717889785767	2.499998092651367
8	242.3239769935608	pulse	1	t		6.0	2.5	blank	1.0	266.9206209182739	
8	243.9239420890808	pulse	1	t		6.0	2.5	blank	1.0	268.52058601379395	
8	244.0405330657959	fix_post	2		12	6.0	2.5	blank	1.0	268.63717699050903	0.09994006156921387
9	244.1404731273651	fix_pre	0		120	7.0	2.5	/experiments/AOT/AOT_stimuli/rescaled_final/0300_fw.mp4	0.0	268.73711705207825	0.9999330043792725
9	245.14040613174438	movie	1		244	7.0	2.5	/experiments/AOT/AOT_stimuli/rescaled_final/0300_fw.mp4	0.0	269.7370500564575	2.5000507831573486
9	245.52517294883728	pulse	1	t		7.0	2.5	/experiments/AOT/AOT_stimuli/rescaled_final/0300_fw.mp4	0.0	270.1218168735504	
9	247.12396907806396	pulse	1	t		7.0	2.5	/experiments/AOT/AOT_stimuli/rescaled_final/0300_fw.mp4	0.0	271.7206130027771	
9	247.64045691490173	fix_post	2		12	7.0	2.5	/experiments/AOT/AOT_stimuli/rescaled_final/0300_fw.mp4	0.0	272.23710083961487	0.10002017021179199
10	247.74047708511353	fix_pre	0		119	8.0	2.5	/experiments/AOT/AOT_stimuli/rescaled_final/1420_fw.mp4	0.0	272.33712100982666	0.9916319847106934
10	248.72393703460693	pulse	0	t		8.0	2.5	/experiments/AOT/AOT_stimuli/rescaled_final/1420_fw.mp4	0.0	273.32058095932007	
10	248.73210906982422	movie	1		245	8.0	2.5	/experiments/AOT/AOT_stimuli/rescaled_final/1420_fw.mp4	0.0	273.32875299453735	2.5083539485931396
10	250.32438206672668	pulse	1	t		8.0	2.5	/experiments/AOT/AOT_stimuli/rescaled_final/1420_fw.mp4	0.0	274.9210259914398	
10	251.24046301841736	fix_post	2		12	8.0	2.5	/experiments/AOT/AOT_stimuli/rescaled_final/1420_fw.mp4	0.0	275.8371069431305	0.10001802444458008
11	251.34048104286194	fix_pre	0		120	9.0	2.5	/experiments/AOT/AOT_stimuli/rescaled_final/0097_fw.mp4	0.0	275.9371249675751	0.9999330043792725
11	251.9238440990448	pulse	0	t		9.0	2.5	/experiments/AOT/AOT_stimuli/rescaled_final/0097_fw.mp4	0.0	276.52048802375793	
11	252.3404140472412	movie	1		245	9.0	2.5	/experiments/AOT/AOT_stimuli/rescaled_final/0097_fw.mp4	0.0	276.93705797195435	2.500019073486328
11	253.52419209480286	pulse	1	t		9.0	2.5	/experiments/AOT/AOT_stimuli/rescaled_final/0097_fw.mp4	0.0	278.120836019516	
11	254.84043312072754	fix_post	2		12	9.0	2.5	/experiments/AOT/AOT_stimuli/rescaled_final/0097_fw.mp4	0.0	279.4370770454407	0.10000991821289062
12	254.94044303894043	fix_pre	0		120	10.0	2.5	/experiments/AOT/AOT_stimuli/rescaled_final/0780_fw.mp4	0.0	279.53708696365356	0.9999918937683105
12	255.12397694587708	pulse	0	t		10.0	2.5	/experiments/AOT/AOT_stimuli/rescaled_final/0780_fw.mp4	0.0	279.7206208705902	
12	255.94043493270874	movie	1		244	10.0	2.5	/experiments/AOT/AOT_stimuli/rescaled_final/0780_fw.mp4	0.0	280.5370788574219	2.5000340938568115
12	256.72401213645935	pulse	1	t		10.0	2.5	/experiments/AOT/AOT_stimuli/rescaled_final/0780_fw.mp4	0.0	281.3206560611725	
12	258.3225030899048	pulse	1	t		10.0	2.5	/experiments/AOT/AOT_stimuli/rescaled_final/0780_fw.mp4	0.0	282.9191470146179	
12	258.44046902656555	fix_post	2		12	10.0	2.5	/experiments/AOT/AOT_stimuli/rescaled_final/0780_fw.mp4	0.0	283.0371129512787	0.09993505477905273
13	258.5404040813446	fix_pre	0		120	11.0	2.5	/experiments/AOT/AOT_stimuli/rescaled_final/1167_fw.mp4	0.0	283.13704800605774	1.0000250339508057
13	259.5404291152954	movie	1		244	11.0	2.5	/experiments/AOT/AOT_stimuli/rescaled_final/1167_fw.mp4	0.0	284.13707304000854	2.4999988079071045
13	259.92333793640137	pulse	1	t		11.0	2.5	/experiments/AOT/AOT_stimuli/rescaled_final/1167_fw.mp4	0.0	284.5199818611145	
13	261.52383494377136	pulse	1	t		11.0	2.5	/experiments/AOT/AOT_stimuli/rescaled_final/1167_fw.mp4	0.0	286.1204788684845	
13	262.0404279232025	fix_post	2		12	11.0	2.5	/experiments/AOT/AOT_stimuli/rescaled_final/1167_fw.mp4	0.0	286.63707184791565	0.10000205039978027
14	262.1404299736023	fix_pre	0		119	12.0	2.5	/experiments/AOT/AOT_stimuli/rescaled_final/0615_fw.mp4	0.0	286.73707389831543	0.99161696434021
14	263.1238429546356	pulse	0	t		12.0	2.5	/experiments/AOT/AOT_stimuli/rescaled_final/0615_fw.mp4	0.0	287.72048687934875	
14	263.1320469379425	movie	1		242	12.0	2.5	/experiments/AOT/AOT_stimuli/rescaled_final/0615_fw.mp4	0.0	287.72869086265564	2.5078799724578857
14	264.7237820625305	pulse	1	t		12.0	2.5	/experiments/AOT/AOT_stimuli/rescaled_final/0615_fw.mp4	0.0	289.32042598724365	
14	265.6399269104004	fix_post	2		12	12.0	2.5	/experiments/AOT/AOT_stimuli/rescaled_final/0615_fw.mp4	0.0	290.2365708351135	0.10047101974487305
15	265.74039793014526	fix_pre	0		120	13.0	2.5	blank	1.0	290.3370418548584	1.0000331401824951
15	266.32390904426575	pulse	0	t		13.0	2.5	blank	1.0	290.9205529689789	
15	266.74043107032776	movie	1		300	13.0	2.5	blank	1.0	291.3370749950409	2.5001540184020996
15	267.92346596717834	pulse	1	t		13.0	2.5	blank	1.0	292.5201098918915	
15	269.24058508872986	fix_post	2		12	13.0	2.5	blank	1.0	293.837229013443	0.09993195533752441
16	269.3405170440674	fix_pre	0		120	14.0	2.5	/experiments/AOT/AOT_stimuli/rescaled_final/1120_fw.mp4	0.0	293.9371609687805	1.0000929832458496
16	269.52402210235596	pulse	0	t		14.0	2.5	/experiments/AOT/AOT_stimuli/rescaled_final/1120_fw.mp4	0.0	294.1206660270691	
16	270.34061002731323	movie	1		243	14.0	2.5	/experiments/AOT/AOT_stimuli/rescaled_final/1120_fw.mp4	0.0	294.93725395202637	2.499790906906128
16	271.1238601207733	pulse	1	t		14.0	2.5	/experiments/AOT/AOT_stimuli/rescaled_final/1120_fw.mp4	0.0	295.72050404548645	
16	272.7224040031433	pulse	1	t		14.0	2.5	/experiments/AOT/AOT_stimuli/rescaled_final/1120_fw.mp4	0.0	297.31904792785645	
16	272.84040093421936	fix_post	2		12	14.0	2.5	/experiments/AOT/AOT_stimuli/rescaled_final/1120_fw.mp4	0.0	297.4370448589325	0.10007119178771973
17	272.9404721260071	fix_pre	0		120	15.0	2.5	/experiments/AOT/AOT_stimuli/rescaled_final/1142_fw.mp4	0.0	297.5371160507202	0.9998629093170166
17	273.9403350353241	movie	1		243	15.0	2.5	/experiments/AOT/AOT_stimuli/rescaled_final/1142_fw.mp4	0.0	298.53697896003723	2.500006914138794
17	274.3249990940094	pulse	1	t		15.0	2.5	/experiments/AOT/AOT_stimuli/rescaled_final/1142_fw.mp4	0.0	298.92164301872253	
17	275.9237380027771	pulse	1	t		15.0	2.5	/experiments/AOT/AOT_stimuli/rescaled_final/1142_fw.mp4	0.0	300.52038192749023	
17	276.4403419494629	fix_post	2		12	15.0	2.5	/experiments/AOT/AOT_stimuli/rescaled_final/1142_fw.mp4	0.0	301.036985874176	0.09993410110473633
18	276.5402760505676	fix_pre	0		119	16.0	2.5	/experiments/AOT/AOT_stimuli/rescaled_final/0480_fw.mp4	0.0	301.13691997528076	0.9917058944702148
18	277.52380990982056	pulse	0	t		16.0	2.5	/experiments/AOT/AOT_stimuli/rescaled_final/0480_fw.mp4	0.0	302.1204538345337	
18	277.53198194503784	movie	1		246	16.0	2.5	/experiments/AOT/AOT_stimuli/rescaled_final/0480_fw.mp4	0.0	302.128625869751	2.508345127105713
18	279.12413907051086	pulse	1	t		16.0	2.5	/experiments/AOT/AOT_stimuli/rescaled_final/0480_fw.mp4	0.0	303.720782995224	
18	280.04032707214355	fix_post	2		12	16.0	2.5	/experiments/AOT/AOT_stimuli/rescaled_final/0480_fw.mp4	0.0	304.6369709968567	0.1000678539276123
19	280.14039492607117	fix_pre	0		120	17.0	2.5	/experiments/AOT/AOT_stimuli/rescaled_final/0657_fw.mp4	0.0	304.7370388507843	0.9998860359191895
19	280.72384691238403	pulse	0	t		17.0	2.5	/experiments/AOT/AOT_stimuli/rescaled_final/0657_fw.mp4	0.0	305.32049083709717	
19	281.14028096199036	movie	1		244	17.0	2.5	/experiments/AOT/AOT_stimuli/rescaled_final/0657_fw.mp4	0.0	305.7369248867035	2.499964952468872
19	282.32387590408325	pulse	1	t		17.0	2.5	/experiments/AOT/AOT_stimuli/rescaled_final/0657_fw.mp4	0.0	306.9205198287964	
19	283.64024591445923	fix_post	2		12	17.0	2.5	/experiments/AOT/AOT_stimuli/rescaled_final/0657_fw.mp4	0.0	308.23688983917236	0.1000051498413086
20	283.74025106430054	fix_pre	0		120	18.0	2.5	/experiments/AOT/AOT_stimuli/rescaled_final/0939_rv.mp4	0.0	308.3368949890137	1.0000488758087158
20	283.9238419532776	pulse	0	t		18.0	2.5	/experiments/AOT/AOT_stimuli/rescaled_final/0939_rv.mp4	0.0	308.5204858779907	
20	284.74029994010925	movie	1		244	18.0	2.5	/experiments/AOT/AOT_stimuli/rescaled_final/0939_rv.mp4	0.0	309.3369438648224	2.4996531009674072
20	285.52381801605225	pulse	1	t		18.0	2.5	/experiments/AOT/AOT_stimuli/rescaled_final/0939_rv.mp4	0.0	310.1204619407654	
20	287.12242603302	pulse	1	t		18.0	2.5	/experiments/AOT/AOT_stimuli/rescaled_final/0939_rv.mp4	0.0	311.71906995773315	
20	287.23995304107666	fix_post	2		12	18.0	2.5	/experiments/AOT/AOT_stimuli/rescaled_final/0939_rv.mp4	0.0	311.8365969657898	0.10033702850341797
21	287.3402900695801	fix_pre	0		120	19.0	2.5	/experiments/AOT/AOT_stimuli/rescaled_final/1366_rv.mp4	0.0	311.9369339942932	1.0000228881835938
21	288.3403129577637	movie	1		245	19.0	2.5	/experiments/AOT/AOT_stimuli/rescaled_final/1366_rv.mp4	0.0	312.9369568824768	2.4999279975891113
21	288.7236359119415	pulse	1	t		19.0	2.5	/experiments/AOT/AOT_stimuli/rescaled_final/1366_rv.mp4	0.0	313.32027983665466	
21	290.3239440917969	pulse	1	t		19.0	2.5	/experiments/AOT/AOT_stimuli/rescaled_final/1366_rv.mp4	0.0	314.92058801651	
21	290.8402409553528	fix_post	2		12	19.0	2.5	/experiments/AOT/AOT_stimuli/rescaled_final/1366_rv.mp4	0.0	315.4368848800659	0.1000680923461914
22	290.940309047699	fix_pre	0		119	20.0	2.5	blank	1.0	315.5369529724121	0.9915928840637207
22	291.92373490333557	pulse	0	t		20.0	2.5	blank	1.0	316.5203788280487	
22	291.9319019317627	movie	1		301	20.0	2.5	blank	1.0	316.52854585647583	2.50839900970459
22	293.5238230228424	pulse	1	t		20.0	2.5	blank	1.0	318.12046694755554	
22	294.4403009414673	fix_post	2		12	20.0	2.5	blank	1.0	319.0369448661804	0.09997200965881348
23	294.5402729511261	fix_pre	0		120	21.0	2.5	/experiments/AOT/AOT_stimuli/rescaled_final/0401_rv.mp4	0.0	319.13691687583923	0.9995150566101074
23	295.1237289905548	pulse	0	t		21.0	2.5	/experiments/AOT/AOT_stimuli/rescaled_final/0401_rv.mp4	0.0	319.72037291526794	
23	295.5397880077362	movie	1		243	21.0	2.5	/experiments/AOT/AOT_stimuli/rescaled_final/0401_rv.mp4	0.0	320.13643193244934	2.5004749298095703
23	296.7238631248474	pulse	1	t		21.0	2.5	/experiments/AOT/AOT_stimuli/rescaled_final/0401_rv.mp4	0.0	321.32050704956055	
23	298.0402629375458	fix_post	2		12	21.0	2.5	/experiments/AOT/AOT_stimuli/rescaled_final/0401_rv.mp4	0.0	322.6369068622589	0.09993600845336914
24	298.14019894599915	fix_pre	0		120	22.0	2.5	/experiments/AOT/AOT_stimuli/rescaled_final/0003_fw.mp4	0.0	322.7368428707123	1.0000250339508057
24	298.32377910614014	pulse	0	t		22.0	2.5	/experiments/AOT/AOT_stimuli/rescaled_final/0003_fw.mp4	0.0	322.92042303085327	
24	299.14022397994995	movie	1		246	22.0	2.5	/experiments/AOT/AOT_stimuli/rescaled_final/0003_fw.mp4	0.0	323.7368679046631	2.4999749660491943
24	299.9237320423126	pulse	1	t		22.0	2.5	/experiments/AOT/AOT_stimuli/rescaled_final/0003_fw.mp4	0.0	324.52037596702576	
24	301.52213191986084	pulse	1	t		22.0	2.5	/experiments/AOT/AOT_stimuli/rescaled_final/0003_fw.mp4	0.0	326.118775844574	
24	301.64019894599915	fix_post	2		12	22.0	2.5	/experiments/AOT/AOT_stimuli/rescaled_final/0003_fw.mp4	0.0	326.2368428707123	0.09997200965881348
25	301.74017095565796	fix_pre	0		120	23.0	2.5	/experiments/AOT/AOT_stimuli/rescaled_final/1027_rv.mp4	0.0	326.3368148803711	1.0000650882720947
25	302.74023604393005	movie	1		247	23.0	2.5	/experiments/AOT/AOT_stimuli/rescaled_final/1027_rv.mp4	0.0	327.3368799686432	2.499937057495117
25	303.12296509742737	pulse	1	t		23.0	2.5	/experiments/AOT/AOT_stimuli/rescaled_final/1027_rv.mp4	0.0	327.7196090221405	
25	304.72366189956665	pulse	1	t		23.0	2.5	/experiments/AOT/AOT_stimuli/rescaled_final/1027_rv.mp4	0.0	329.3203058242798	
25	305.24017310142517	fix_post	2		12	23.0	2.5	/experiments/AOT/AOT_stimuli/rescaled_final/1027_rv.mp4	0.0	329.8368170261383	0.09995889663696289
26	305.34013199806213	fix_pre	0		119	24.0	2.5	/experiments/AOT/AOT_stimuli/rescaled_final/1470_rv.mp4	0.0	329.93677592277527	0.991689920425415
26	306.32368206977844	pulse	0	t		24.0	2.5	/experiments/AOT/AOT_stimuli/rescaled_final/1470_rv.mp4	0.0	330.9203259944916	
26	306.33182191848755	movie	1		247	24.0	2.5	/experiments/AOT/AOT_stimuli/rescaled_final/1470_rv.mp4	0.0	330.9284658432007	2.5083961486816406
26	307.9232931137085	pulse	1	t		24.0	2.5	/experiments/AOT/AOT_stimuli/rescaled_final/1470_rv.mp4	0.0	332.51993703842163	
26	308.8402180671692	fix_post	2		12	24.0	2.5	/experiments/AOT/AOT_stimuli/rescaled_final/1470_rv.mp4	0.0	333.4368619918823	0.09992289543151855
27	308.9401409626007	fix_pre	0		120	25.0	2.5	/experiments/AOT/AOT_stimuli/rescaled_final/2133_fw.mp4	0.0	333.53678488731384	1.0000441074371338
27	309.5236990451813	pulse	0	t		25.0	2.5	/experiments/AOT/AOT_stimuli/rescaled_final/2133_fw.mp4	0.0	334.1203429698944	
27	309.94018507003784	movie	1		245	25.0	2.5	/experiments/AOT/AOT_stimuli/rescaled_final/2133_fw.mp4	0.0	334.536828994751	2.5000669956207275
27	311.12367510795593	pulse	1	t		25.0	2.5	/experiments/AOT/AOT_stimuli/rescaled_final/2133_fw.mp4	0.0	335.72031903266907	
27	312.44025206565857	fix_post	2		12	25.0	2.5	/experiments/AOT/AOT_stimuli/rescaled_final/2133_fw.mp4	0.0	337.0368959903717	0.09991788864135742
28	312.5401699542999	fix_pre	0		120	26.0	2.5	/experiments/AOT/AOT_stimuli/rescaled_final/0691_rv.mp4	0.0	337.13681387901306	1.0000760555267334
28	312.72366309165955	pulse	0	t		26.0	2.5	/experiments/AOT/AOT_stimuli/rescaled_final/0691_rv.mp4	0.0	337.3203070163727	
28	313.54024600982666	movie	1		244	26.0	2.5	/experiments/AOT/AOT_stimuli/rescaled_final/0691_rv.mp4	0.0	338.1368899345398	2.499959945678711
28	314.3236141204834	pulse	1	t		26.0	2.5	/experiments/AOT/AOT_stimuli/rescaled_final/0691_rv.mp4	0.0	338.92025804519653	
28	315.92164397239685	pulse	1	t		26.0	2.5	/experiments/AOT/AOT_stimuli/rescaled_final/0691_rv.mp4	0.0	340.51828789711	
28	316.04020595550537	fix_post	2		12	26.0	2.5	/experiments/AOT/AOT_stimuli/rescaled_final/0691_rv.mp4	0.0	340.6368498802185	0.0999760627746582
29	316.14018201828003	fix_pre	0		120	27.0	2.5	/experiments/AOT/AOT_stimuli/rescaled_final/1691_rv.mp4	0.0	340.73682594299316	0.99993896484375
29	317.1401209831238	movie	1		243	27.0	2.5	/experiments/AOT/AOT_stimuli/rescaled_final/1691_rv.mp4	0.0	341.7367649078369	2.5000669956207275
29	317.5232129096985	pulse	1	t		27.0	2.5	/experiments/AOT/AOT_stimuli/rescaled_final/1691_rv.mp4	0.0	342.1198568344116	
29	319.1235730648041	pulse	1	t		27.0	2.5	/experiments/AOT/AOT_stimuli/rescaled_final/1691_rv.mp4	0.0	343.7202169895172	
29	319.6401879787445	fix_post	2		12	27.0	2.5	/experiments/AOT/AOT_stimuli/rescaled_final/1691_rv.mp4	0.0	344.23683190345764	0.0999460220336914
30	319.7401340007782	fix_pre	0		119	28.0	2.5	blank	1.0	344.33677792549133	0.9915769100189209
30	320.72357201576233	pulse	0	t		28.0	2.5	blank	1.0	345.32021594047546	
30	320.7317109107971	movie	1		301	28.0	2.5	blank	1.0	345.32835483551025	2.5084872245788574
30	322.3235869407654	pulse	1	t		28.0	2.5	blank	1.0	346.9202308654785	
30	323.240198135376	fix_post	2		12	28.0	2.5	blank	1.0	347.8368420600891	0.10001397132873535
31	323.3402121067047	fix_pre	0		120	29.0	2.5	/experiments/AOT/AOT_stimuli/rescaled_final/0657_rv.mp4	0.0	347.93685603141785	0.9995160102844238
31	323.92362809181213	pulse	0	t		29.0	2.5	/experiments/AOT/AOT_stimuli/rescaled_final/0657_rv.mp4	0.0	348.52027201652527	
31	324.33972811698914	movie	1		245	29.0	2.5	/experiments/AOT/AOT_stimuli/rescaled_final/0657_rv.mp4	0.0	348.93637204170227	2.500393867492676
31	325.5233929157257	pulse	1	t		29.0	2.5	/experiments/AOT/AOT_stimuli/rescaled_final/0657_rv.mp4	0.0	350.12003684043884	
31	326.8401219844818	fix_post	2		12	29.0	2.5	/experiments/AOT/AOT_stimuli/rescaled_final/0657_rv.mp4	0.0	351.43676590919495	0.10004210472106934
32	326.9401640892029	fix_pre	0		120	30.0	2.5	/experiments/AOT/AOT_stimuli/rescaled_final/0939_rv.mp4	0.0	351.536808013916	1.0000660419464111
32	327.1236639022827	pulse	0	t		30.0	2.5	/experiments/AOT/AOT_stimuli/rescaled_final/0939_rv.mp4	0.0	351.72030782699585	
32	327.9402301311493	movie	1		245	30.0	2.5	/experiments/AOT/AOT_stimuli/rescaled_final/0939_rv.mp4	0.0	352.5368740558624	2.499807834625244
32	328.7235851287842	pulse	1	t		30.0	2.5	/experiments/AOT/AOT_stimuli/rescaled_final/0939_rv.mp4	0.0	353.3202290534973	
32	330.32202410697937	pulse	1	t		30.0	2.5	/experiments/AOT/AOT_stimuli/rescaled_final/0939_rv.mp4	0.0	354.9186680316925	
32	330.44003796577454	fix_post	2		12	30.0	2.5	/experiments/AOT/AOT_stimuli/rescaled_final/0939_rv.mp4	0.0	355.03668189048767	0.10005712509155273
33	330.5400950908661	fix_pre	0		120	31.0	2.5	/experiments/AOT/AOT_stimuli/rescaled_final/1776_rv.mp4	0.0	355.1367390155792	0.9998829364776611
33	331.53997802734375	movie	1		244	31.0	2.5	/experiments/AOT/AOT_stimuli/rescaled_final/1776_rv.mp4	0.0	356.1366219520569	2.5000970363616943
33	331.9231929779053	pulse	1	t		31.0	2.5	/experiments/AOT/AOT_stimuli/rescaled_final/1776_rv.mp4	0.0	356.5198369026184	
33	333.5234649181366	pulse	1	t		31.0	2.5	/experiments/AOT/AOT_stimuli/rescaled_final/1776_rv.mp4	0.0	358.12010884284973	
33	334.04007506370544	fix_post	2		12	31.0	2.5	/experiments/AOT/AOT_stimuli/rescaled_final/1776_rv.mp4	0.0	358.6367189884186	0.09997892379760742
34	334.14005398750305	fix_pre	0		119	32.0	2.5	/experiments/AOT/AOT_stimuli/rescaled_final/1534_fw.mp4	0.0	358.7366979122162	0.9916410446166992
34	335.1235179901123	pulse	0	t		32.0	2.5	/experiments/AOT/AOT_stimuli/rescaled_final/1534_fw.mp4	0.0	359.72016191482544	
34	335.13169503211975	movie	1		244	32.0	2.5	/experiments/AOT/AOT_stimuli/rescaled_final/1534_fw.mp4	0.0	359.7283389568329	2.508375883102417
34	336.7229449748993	pulse	1	t		32.0	2.5	/experiments/AOT/AOT_stimuli/rescaled_final/1534_fw.mp4	0.0	361.3195888996124	
34	337.64007091522217	fix_post	2		12	32.0	2.5	/experiments/AOT/AOT_stimuli/rescaled_final/1534_fw.mp4	0.0	362.2367148399353	0.09995007514953613
35	337.7400209903717	fix_pre	0		120	33.0	2.5	/experiments/AOT/AOT_stimuli/rescaled_final/2165_fw.mp4	0.0	362.33666491508484	0.9999940395355225
35	338.32349705696106	pulse	0	t		33.0	2.5	/experiments/AOT/AOT_stimuli/rescaled_final/2165_fw.mp4	0.0	362.9201409816742	
35	338.7400150299072	movie	1		243	33.0	2.5	/experiments/AOT/AOT_stimuli/rescaled_final/2165_fw.mp4	0.0	363.33665895462036	2.5000789165496826
35	339.92355513572693	pulse	1	t		33.0	2.5	/experiments/AOT/AOT_stimuli/rescaled_final/2165_fw.mp4	0.0	364.52019906044006	
35	341.2400939464569	fix_post	2		12	33.0	2.5	/experiments/AOT/AOT_stimuli/rescaled_final/2165_fw.mp4	0.0	365.83673787117004	0.09982419013977051
36	341.3399181365967	fix_pre	0		120	34.0	2.5	/experiments/AOT/AOT_stimuli/rescaled_final/0786_rv.mp4	0.0	365.9365620613098	1.0000519752502441
36	341.52353501319885	pulse	0	t		34.0	2.5	/experiments/AOT/AOT_stimuli/rescaled_final/0786_rv.mp4	0.0	366.120178937912	
36	342.3399701118469	movie	1		245	34.0	2.5	/experiments/AOT/AOT_stimuli/rescaled_final/0786_rv.mp4	0.0	366.93661403656006	2.5000178813934326
36	343.12344694137573	pulse	1	t		34.0	2.5	/experiments/AOT/AOT_stimuli/rescaled_final/0786_rv.mp4	0.0	367.72009086608887	
36	344.72193598747253	pulse	1	t		34.0	2.5	/experiments/AOT/AOT_stimuli/rescaled_final/0786_rv.mp4	0.0	369.31857991218567	
36	344.83998799324036	fix_post	2		12	34.0	2.5	/experiments/AOT/AOT_stimuli/rescaled_final/0786_rv.mp4	0.0	369.4366319179535	0.10000395774841309
37	344.93999195098877	fix_pre	0		120	35.0	2.5	blank	1.0	369.5366358757019	1.0000970363616943
37	345.94008898735046	movie	1		300	35.0	2.5	blank	1.0	370.5367329120636	2.4999170303344727
37	346.32353806495667	pulse	1	t		35.0	2.5	blank	1.0	370.9201819896698	
37	347.9234941005707	pulse	1	t		35.0	2.5	blank	1.0	372.5201380252838	
37	348.44000601768494	fix_post	2		12	35.0	2.5	blank	1.0	373.03664994239807	0.10003995895385742
38	348.5400459766388	fix_pre	0		119	36.0	2.5	/experiments/AOT/AOT_stimuli/rescaled_final/0361_fw.mp4	0.0	373.13668990135193	0.991549015045166
38	349.52344012260437	pulse	0	t		36.0	2.5	/experiments/AOT/AOT_stimuli/rescaled_final/0361_fw.mp4	0.0	374.1200840473175	
38	349.53159499168396	movie	1		247	36.0	2.5	/experiments/AOT/AOT_stimuli/rescaled_final/0361_fw.mp4	0.0	374.1282389163971	2.508573055267334
38	351.1231129169464	pulse	1	t		36.0	2.5	/experiments/AOT/AOT_stimuli/rescaled_final/0361_fw.mp4	0.0	375.71975684165955	
38	352.0401680469513	fix_post	2		12	36.0	2.5	/experiments/AOT/AOT_stimuli/rescaled_final/0361_fw.mp4	0.0	376.63681197166443	0.09978103637695312
39	352.13994908332825	fix_pre	0		120	37.0	2.5	/experiments/AOT/AOT_stimuli/rescaled_final/1436_rv.mp4	0.0	376.7365930080414	1.000154972076416
39	352.7234220504761	pulse	0	t		37.0	2.5	/experiments/AOT/AOT_stimuli/rescaled_final/1436_rv.mp4	0.0	377.3200659751892	
39	353.14010405540466	movie	1		245	37.0	2.5	/experiments/AOT/AOT_stimuli/rescaled_final/1436_rv.mp4	0.0	377.7367479801178	2.499835968017578
39	354.3234851360321	pulse	1	t		37.0	2.5	/experiments/AOT/AOT_stimuli/rescaled_final/1436_rv.mp4	0.0	378.92012906074524	
39	355.63994002342224	fix_post	2		12	37.0	2.5	/experiments/AOT/AOT_stimuli/rescaled_final/1436_rv.mp4	0.0	380.2365839481354	0.10005903244018555
40	355.7399990558624	fix_pre	0		120	38.0	2.5	/experiments/AOT/AOT_stimuli/rescaled_final/1439_fw.mp4	0.0	380.33664298057556	0.9998898506164551
40	355.92337012290955	pulse	0	t		38.0	2.5	/experiments/AOT/AOT_stimuli/rescaled_final/1439_fw.mp4	0.0	380.5200140476227	
40	356.7398889064789	movie	1		243	38.0	2.5	/experiments/AOT/AOT_stimuli/rescaled_final/1439_fw.mp4	0.0	381.336532831192	2.5000481605529785
40	357.52345609664917	pulse	1	t		38.0	2.5	/experiments/AOT/AOT_stimuli/rescaled_final/1439_fw.mp4	0.0	382.1201000213623	
40	359.12169098854065	pulse	1	t		38.0	2.5	/experiments/AOT/AOT_stimuli/rescaled_final/1439_fw.mp4	0.0	383.7183349132538	
40	359.23993706703186	fix_post	2		12	38.0	2.5	/experiments/AOT/AOT_stimuli/rescaled_final/1439_fw.mp4	0.0	383.836580991745	0.10000205039978027
41	359.33993911743164	fix_pre	0		120	39.0	2.5	/experiments/AOT/AOT_stimuli/rescaled_final/2066_fw.mp4	0.0	383.9365830421448	0.9999978542327881
41	360.33993697166443	movie	1		243	39.0	2.5	/experiments/AOT/AOT_stimuli/rescaled_final/2066_fw.mp4	0.0	384.93658089637756	2.5001089572906494
41	360.7245011329651	pulse	1	t		39.0	2.5	/experiments/AOT/AOT_stimuli/rescaled_final/2066_fw.mp4	0.0	385.3211450576782	
41	362.32342290878296	pulse	1	t		39.0	2.5	/experiments/AOT/AOT_stimuli/rescaled_final/2066_fw.mp4	0.0	386.9200668334961	
41	362.8400459289551	fix_post	2		12	39.0	2.5	/experiments/AOT/AOT_stimuli/rescaled_final/2066_fw.mp4	0.0	387.4366898536682	0.09987807273864746
42	362.9399240016937	fix_pre	0		119	40.0	2.5	blank	1.0	387.53656792640686	0.9916160106658936
42	363.92337012290955	pulse	0	t		40.0	2.5	blank	1.0	388.5200140476227	
42	363.9315400123596	movie	1		301	40.0	2.5	blank	1.0	388.52818393707275	2.5083580017089844
42	365.5234079360962	pulse	1	t		40.0	2.5	blank	1.0	390.1200518608093	
42	366.4398980140686	fix_post	2		12	40.0	2.5	blank	1.0	391.03654193878174	0.09996700286865234
43	366.53986501693726	fix_pre	0		120	41.0	2.5	/experiments/AOT/AOT_stimuli/rescaled_final/1381_rv.mp4	0.0	391.1365089416504	1.0000410079956055
43	367.1234700679779	pulse	0	t		41.0	2.5	/experiments/AOT/AOT_stimuli/rescaled_final/1381_rv.mp4	0.0	391.72011399269104	
43	367.53990602493286	movie	1		244	41.0	2.5	/experiments/AOT/AOT_stimuli/rescaled_final/1381_rv.mp4	0.0	392.136549949646	2.4999630451202393
43	368.72355103492737	pulse	1	t		41.0	2.5	/experiments/AOT/AOT_stimuli/rescaled_final/1381_rv.mp4	0.0	393.3201949596405	
43	370.0398690700531	fix_post	2		12	41.0	2.5	/experiments/AOT/AOT_stimuli/rescaled_final/1381_rv.mp4	0.0	394.63651299476624	0.10022401809692383
44	370.14009308815	fix_pre	0		120	42.0	2.5	/experiments/AOT/AOT_stimuli/rescaled_final/1888_rv.mp4	0.0	394.73673701286316	0.9998869895935059
44	370.3234689235687	pulse	0	t		42.0	2.5	/experiments/AOT/AOT_stimuli/rescaled_final/1888_rv.mp4	0.0	394.92011284828186	
44	371.13998007774353	movie	1		243	42.0	2.5	/experiments/AOT/AOT_stimuli/rescaled_final/1888_rv.mp4	0.0	395.73662400245667	2.499868869781494
44	371.92334508895874	pulse	1	t		42.0	2.5	/experiments/AOT/AOT_stimuli/rescaled_final/1888_rv.mp4	0.0	396.5199890136719	
44	373.5216519832611	pulse	1	t		42.0	2.5	/experiments/AOT/AOT_stimuli/rescaled_final/1888_rv.mp4	0.0	398.11829590797424	
44	373.639848947525	fix_post	2		12	42.0	2.5	/experiments/AOT/AOT_stimuli/rescaled_final/1888_rv.mp4	0.0	398.23649287223816	0.10005617141723633
45	373.73990511894226	fix_pre	0		120	43.0	2.5	/experiments/AOT/AOT_stimuli/rescaled_final/2003_fw.mp4	0.0	398.3365490436554	0.9999349117279053
45	374.73984003067017	movie	1		243	43.0	2.5	/experiments/AOT/AOT_stimuli/rescaled_final/2003_fw.mp4	0.0	399.3364839553833	2.500082015991211
45	375.1243290901184	pulse	1	t		43.0	2.5	/experiments/AOT/AOT_stimuli/rescaled_final/2003_fw.mp4	0.0	399.72097301483154	
45	376.7234320640564	pulse	1	t		43.0	2.5	/experiments/AOT/AOT_stimuli/rescaled_final/2003_fw.mp4	0.0	401.32007598876953	
45	377.2399220466614	fix_post	2		12	43.0	2.5	/experiments/AOT/AOT_stimuli/rescaled_final/2003_fw.mp4	0.0	401.8365659713745	0.09990906715393066
46	377.3398311138153	fix_pre	0		119	44.0	2.5	/experiments/AOT/AOT_stimuli/rescaled_final/1817_fw.mp4	0.0	401.93647503852844	0.991703987121582
46	378.32334995269775	pulse	0	t		44.0	2.5	/experiments/AOT/AOT_stimuli/rescaled_final/1817_fw.mp4	0.0	402.9199938774109	
46	378.3315351009369	movie	1		245	44.0	2.5	/experiments/AOT/AOT_stimuli/rescaled_final/1817_fw.mp4	0.0	402.92817902565	2.508419990539551
46	379.9225640296936	pulse	1	t		44.0	2.5	/experiments/AOT/AOT_stimuli/rescaled_final/1817_fw.mp4	0.0	404.51920795440674	
46	380.83995509147644	fix_post	2		12	44.0	2.5	/experiments/AOT/AOT_stimuli/rescaled_final/1817_fw.mp4	0.0	405.4365990161896	0.0995798110961914
47	380.93953490257263	fix_pre	0		120	45.0	2.5	/experiments/AOT/AOT_stimuli/rescaled_final/1617_rv.mp4	0.0	405.53617882728577	1.0005230903625488
47	381.5231919288635	pulse	0	t		45.0	2.5	/experiments/AOT/AOT_stimuli/rescaled_final/1617_rv.mp4	0.0	406.11983585357666	
47	381.9400579929352	movie	1		243	45.0	2.5	/experiments/AOT/AOT_stimuli/rescaled_final/1617_rv.mp4	0.0	406.5367019176483	2.499814987182617
47	383.12337493896484	pulse	1	t		45.0	2.5	/experiments/AOT/AOT_stimuli/rescaled_final/1617_rv.mp4	0.0	407.720018863678	
47	384.4398729801178	fix_post	2		12	45.0	2.5	/experiments/AOT/AOT_stimuli/rescaled_final/1617_rv.mp4	0.0	409.03651690483093	0.10000896453857422
48	384.5398819446564	fix_pre	0		120	46.0	2.5	/experiments/AOT/AOT_stimuli/rescaled_final/1633_fw.mp4	0.0	409.1365258693695	0.9999761581420898
48	384.72332406044006	pulse	0	t		46.0	2.5	/experiments/AOT/AOT_stimuli/rescaled_final/1633_fw.mp4	0.0	409.3199679851532	
48	385.53985810279846	movie	1		243	46.0	2.5	/experiments/AOT/AOT_stimuli/rescaled_final/1633_fw.mp4	0.0	410.1365020275116	2.4999468326568604
48	386.3232591152191	pulse	1	t		46.0	2.5	/experiments/AOT/AOT_stimuli/rescaled_final/1633_fw.mp4	0.0	410.91990303993225	
48	387.92172503471375	pulse	1	t		46.0	2.5	/experiments/AOT/AOT_stimuli/rescaled_final/1633_fw.mp4	0.0	412.5183689594269	
48	388.0398049354553	fix_post	2		12	46.0	2.5	/experiments/AOT/AOT_stimuli/rescaled_final/1633_fw.mp4	0.0	412.63644886016846	0.09994006156921387
49	388.13974499702454	fix_pre	0		120	47.0	2.5	blank	1.0	412.73638892173767	1.0000979900360107
49	389.13984298706055	movie	1		300	47.0	2.5	blank	1.0	413.7364869117737	2.4999470710754395
49	389.52334094047546	pulse	1	t		47.0	2.5	blank	1.0	414.1199848651886	
49	391.1232500076294	pulse	1	t		47.0	2.5	blank	1.0	415.71989393234253	
49	391.639790058136	fix_post	2		12	47.0	2.5	blank	1.0	416.2364339828491	0.10000300407409668
50	391.7397930622101	fix_pre	0		119	48.0	2.5	/experiments/AOT/AOT_stimuli/rescaled_final/0320_rv.mp4	0.0	416.3364369869232	0.9916539192199707
50	392.7233901023865	pulse	0	t		48.0	2.5	/experiments/AOT/AOT_stimuli/rescaled_final/0320_rv.mp4	0.0	417.3200340270996	
50	392.73144698143005	movie	1		247	48.0	2.5	/experiments/AOT/AOT_stimuli/rescaled_final/0320_rv.mp4	0.0	417.3280909061432	2.508294105529785
50	394.32298707962036	pulse	1	t		48.0	2.5	/experiments/AOT/AOT_stimuli/rescaled_final/0320_rv.mp4	0.0	418.9196310043335	
50	395.23974108695984	fix_post	2		12	48.0	2.5	/experiments/AOT/AOT_stimuli/rescaled_final/0320_rv.mp4	0.0	419.836385011673	0.10002899169921875
51	395.33977007865906	fix_pre	0		120	49.0	2.5	/experiments/AOT/AOT_stimuli/rescaled_final/1515_rv.mp4	0.0	419.9364140033722	0.9999728202819824
51	395.9232909679413	pulse	0	t		49.0	2.5	/experiments/AOT/AOT_stimuli/rescaled_final/1515_rv.mp4	0.0	420.5199348926544	
51	396.33974289894104	movie	1		245	49.0	2.5	/experiments/AOT/AOT_stimuli/rescaled_final/1515_rv.mp4	0.0	420.9363868236542	2.500007152557373
51	397.52331709861755	pulse	1	t		49.0	2.5	/experiments/AOT/AOT_stimuli/rescaled_final/1515_rv.mp4	0.0	422.1199610233307	
51	398.8397500514984	fix_post	2		12	49.0	2.5	/experiments/AOT/AOT_stimuli/rescaled_final/1515_rv.mp4	0.0	423.43639397621155	0.09997701644897461
52	398.9397270679474	fix_pre	0		120	50.0	2.5	/experiments/AOT/AOT_stimuli/rescaled_final/2133_rv.mp4	0.0	423.5363709926605	1.000040054321289
52	399.1233079433441	pulse	0	t		50.0	2.5	/experiments/AOT/AOT_stimuli/rescaled_final/2133_rv.mp4	0.0	423.71995186805725	
52	399.9397671222687	movie	1		244	50.0	2.5	/experiments/AOT/AOT_stimuli/rescaled_final/2133_rv.mp4	0.0	424.5364110469818	2.499539852142334
52	400.7232630252838	pulse	1	t		50.0	2.5	/experiments/AOT/AOT_stimuli/rescaled_final/2133_rv.mp4	0.0	425.31990694999695	
52	402.3216450214386	pulse	1	t		50.0	2.5	/experiments/AOT/AOT_stimuli/rescaled_final/2133_rv.mp4	0.0	426.91828894615173	
52	402.439306974411	fix_post	2		12	50.0	2.5	/experiments/AOT/AOT_stimuli/rescaled_final/2133_rv.mp4	0.0	427.03595089912415	0.10035300254821777
53	402.53965997695923	fix_pre	0		120	51.0	2.5	/experiments/AOT/AOT_stimuli/rescaled_final/0605_fw.mp4	0.0	427.13630390167236	1.000143051147461
53	403.5398030281067	movie	1		243	51.0	2.5	/experiments/AOT/AOT_stimuli/rescaled_final/0605_fw.mp4	0.0	428.1364469528198	2.500001907348633
53	403.9230089187622	pulse	1	t		51.0	2.5	/experiments/AOT/AOT_stimuli/rescaled_final/0605_fw.mp4	0.0	428.51965284347534	
53	405.5231759548187	pulse	1	t		51.0	2.5	/experiments/AOT/AOT_stimuli/rescaled_final/0605_fw.mp4	0.0	430.11981987953186	
53	406.0398049354553	fix_post	2		12	51.0	2.5	/experiments/AOT/AOT_stimuli/rescaled_final/0605_fw.mp4	0.0	430.63644886016846	0.09985113143920898
54	406.13965606689453	fix_pre	0		119	52.0	2.5	/experiments/AOT/AOT_stimuli/rescaled_final/2056_fw.mp4	0.0	430.73629999160767	0.9916958808898926
54	407.1232681274414	pulse	0	t		52.0	2.5	/experiments/AOT/AOT_stimuli/rescaled_final/2056_fw.mp4	0.0	431.71991205215454	
54	407.1313519477844	movie	1		244	52.0	2.5	/experiments/AOT/AOT_stimuli/rescaled_final/2056_fw.mp4	0.0	431.72799587249756	2.5083351135253906
54	408.72276306152344	pulse	1	t		52.0	2.5	/experiments/AOT/AOT_stimuli/rescaled_final/2056_fw.mp4	0.0	433.3194069862366	
54	409.6396870613098	fix_post	2		12	52.0	2.5	/experiments/AOT/AOT_stimuli/rescaled_final/2056_fw.mp4	0.0	434.23633098602295	0.10015487670898438
55	409.7398419380188	fix_pre	0		120	53.0	2.5	/experiments/AOT/AOT_stimuli/rescaled_final/0592_fw.mp4	0.0	434.33648586273193	0.9998581409454346
55	410.32322096824646	pulse	0	t		53.0	2.5	/experiments/AOT/AOT_stimuli/rescaled_final/0592_fw.mp4	0.0	434.9198648929596	
55	410.73970007896423	movie	1		244	53.0	2.5	/experiments/AOT/AOT_stimuli/rescaled_final/0592_fw.mp4	0.0	435.33634400367737	2.499987840652466
55	411.9232020378113	pulse	1	t		53.0	2.5	/experiments/AOT/AOT_stimuli/rescaled_final/0592_fw.mp4	0.0	436.5198459625244	
55	413.2396879196167	fix_post	2		12	53.0	2.5	/experiments/AOT/AOT_stimuli/rescaled_final/0592_fw.mp4	0.0	437.83633184432983	0.1000661849975586
56	413.33975410461426	fix_pre	0		120	54.0	2.5	blank	1.0	437.9363980293274	0.9999198913574219
56	413.52322912216187	pulse	0	t		54.0	2.5	blank	1.0	438.119873046875	
56	414.3396739959717	movie	1		300	54.0	2.5	blank	1.0	438.9363179206848	2.5000710487365723
56	415.12323808670044	pulse	1	t		54.0	2.5	blank	1.0	439.7198820114136	
56	416.7231900691986	pulse	1	t		54.0	2.5	blank	1.0	441.31983399391174	
56	416.83974504470825	fix_post	2		12	54.0	2.5	blank	1.0	441.4363889694214	0.09987497329711914
57	416.93962001800537	fix_pre	0		120	55.0	2.5	/experiments/AOT/AOT_stimuli/rescaled_final/0615_rv.mp4	0.0	441.5362639427185	1.0001099109649658
57	417.93972992897034	movie	1		244	55.0	2.5	/experiments/AOT/AOT_stimuli/rescaled_final/0615_rv.mp4	0.0	442.5363738536835	2.4999890327453613
57	418.32293009757996	pulse	1	t		55.0	2.5	/experiments/AOT/AOT_stimuli/rescaled_final/0615_rv.mp4	0.0	442.9195740222931	
57	419.92318391799927	pulse	1	t		55.0	2.5	/experiments/AOT/AOT_stimuli/rescaled_final/0615_rv.mp4	0.0	444.5198278427124	
57	420.4397189617157	fix_post	2		12	55.0	2.5	/experiments/AOT/AOT_stimuli/rescaled_final/0615_rv.mp4	0.0	445.03636288642883	0.09987998008728027
58	420.539598941803	fix_pre	0		119	56.0	2.5	/experiments/AOT/AOT_stimuli/rescaled_final/0148_fw.mp4	0.0	445.1362428665161	0.9917881488800049
58	421.52328991889954	pulse	0	t		56.0	2.5	/experiments/AOT/AOT_stimuli/rescaled_final/0148_fw.mp4	0.0	446.11993384361267	
58	421.531387090683	movie	1		246	56.0	2.5	/experiments/AOT/AOT_stimuli/rescaled_final/0148_fw.mp4	0.0	446.1280310153961	2.5082638263702393
58	423.1227021217346	pulse	1	t		56.0	2.5	/experiments/AOT/AOT_stimuli/rescaled_final/0148_fw.mp4	0.0	447.71934604644775	
58	424.0396509170532	fix_post	2		12	56.0	2.5	/experiments/AOT/AOT_stimuli/rescaled_final/0148_fw.mp4	0.0	448.63629484176636	0.09998416900634766
59	424.13963508605957	fix_pre	0		120	57.0	2.5	/experiments/AOT/AOT_stimuli/rescaled_final/1161_rv.mp4	0.0	448.7362790107727	1.0000619888305664
59	424.72308707237244	pulse	0	t		57.0	2.5	/experiments/AOT/AOT_stimuli/rescaled_final/1161_rv.mp4	0.0	449.31973099708557	
59	425.13969707489014	movie	1		244	57.0	2.5	/experiments/AOT/AOT_stimuli/rescaled_final/1161_rv.mp4	0.0	449.73634099960327	2.499907970428467
59	426.32309103012085	pulse	1	t		57.0	2.5	/experiments/AOT/AOT_stimuli/rescaled_final/1161_rv.mp4	0.0	450.919734954834	
59	427.6396050453186	fix_post	2		12	57.0	2.5	/experiments/AOT/AOT_stimuli/rescaled_final/1161_rv.mp4	0.0	452.23624897003174	0.09999704360961914
60	427.7396020889282	fix_pre	0		120	58.0	2.5	/experiments/AOT/AOT_stimuli/rescaled_final/0843_fw.mp4	0.0	452.33624601364136	1.000105857849121
60	427.9231870174408	pulse	0	t		58.0	2.5	/experiments/AOT/AOT_stimuli/rescaled_final/0843_fw.mp4	0.0	452.51983094215393	
60	428.73970794677734	movie	1		245	58.0	2.5	/experiments/AOT/AOT_stimuli/rescaled_final/0843_fw.mp4	0.0	453.3363518714905	2.499922037124634
60	429.5231649875641	pulse	1	t		58.0	2.5	/experiments/AOT/AOT_stimuli/rescaled_final/0843_fw.mp4	0.0	454.1198089122772	
60	431.1226351261139	pulse	1	t		58.0	2.5	/experiments/AOT/AOT_stimuli/rescaled_final/0843_fw.mp4	0.0	455.719279050827	
60	431.239629983902	fix_post	2		12	58.0	2.5	/experiments/AOT/AOT_stimuli/rescaled_final/0843_fw.mp4	0.0	455.8362739086151	0.0999760627746582
61	431.33960604667664	fix_pre	0		120	59.0	2.5	/experiments/AOT/AOT_stimuli/rescaled_final/0139_rv.mp4	0.0	455.93624997138977	0.9999840259552002
61	432.33959007263184	movie	1		244	59.0	2.5	/experiments/AOT/AOT_stimuli/rescaled_final/0139_rv.mp4	0.0	456.93623399734497	2.500018835067749
61	432.7224678993225	pulse	1	t		59.0	2.5	/experiments/AOT/AOT_stimuli/rescaled_final/0139_rv.mp4	0.0	457.31911182403564	
61	434.3230631351471	pulse	1	t		59.0	2.5	/experiments/AOT/AOT_stimuli/rescaled_final/0139_rv.mp4	0.0	458.91970705986023	
61	434.8396089076996	fix_post	2		12	59.0	2.5	/experiments/AOT/AOT_stimuli/rescaled_final/0139_rv.mp4	0.0	459.4362528324127	0.10008502006530762
62	434.9396939277649	fix_pre	0		119	60.0	2.5	/experiments/AOT/AOT_stimuli/rescaled_final/0917_fw.mp4	0.0	459.536337852478	0.9916191101074219
62	435.92265605926514	pulse	0	t		60.0	2.5	/experiments/AOT/AOT_stimuli/rescaled_final/0917_fw.mp4	0.0	460.51929998397827	
62	435.9313130378723	movie	1		246	60.0	2.5	/experiments/AOT/AOT_stimuli/rescaled_final/0917_fw.mp4	0.0	460.52795696258545	2.5081920623779297
62	437.5231590270996	pulse	1	t		60.0	2.5	/experiments/AOT/AOT_stimuli/rescaled_final/0917_fw.mp4	0.0	462.11980295181274	
62	438.43950510025024	fix_post	2		12	60.0	2.5	/experiments/AOT/AOT_stimuli/rescaled_final/0917_fw.mp4	0.0	463.0361490249634	0.10004782676696777
63	438.5395529270172	fix_pre	0		120	61.0	2.5	blank	1.0	463.13619685173035	1.0000360012054443
63	439.12310791015625	pulse	0	t		61.0	2.5	blank	1.0	463.7197518348694	
63	439.53958892822266	movie	1		300	61.0	2.5	blank	1.0	464.1362328529358	2.499981164932251
63	440.7231271266937	pulse	1	t		61.0	2.5	blank	1.0	465.31977105140686	
63	442.0395700931549	fix_post	2		12	61.0	2.5	blank	1.0	466.63621401786804	0.0999908447265625
64	442.13956093788147	fix_pre	0		120	62.0	2.5	/experiments/AOT/AOT_stimuli/rescaled_final/0570_rv.mp4	0.0	466.7362048625946	1.0000371932983398
64	442.32302808761597	pulse	0	t		62.0	2.5	/experiments/AOT/AOT_stimuli/rescaled_final/0570_rv.mp4	0.0	466.9196720123291	
64	443.1395981311798	movie	1		245	62.0	2.5	/experiments/AOT/AOT_stimuli/rescaled_final/0570_rv.mp4	0.0	467.73624205589294	2.499886989593506
64	443.92295598983765	pulse	1	t		62.0	2.5	/experiments/AOT/AOT_stimuli/rescaled_final/0570_rv.mp4	0.0	468.5195999145508	
64	445.52172899246216	pulse	1	t		62.0	2.5	/experiments/AOT/AOT_stimuli/rescaled_final/0570_rv.mp4	0.0	470.1183729171753	
64	445.6394851207733	fix_post	2		12	62.0	2.5	/experiments/AOT/AOT_stimuli/rescaled_final/0570_rv.mp4	0.0	470.23612904548645	0.10004878044128418
65	445.7395339012146	fix_pre	0		120	63.0	2.5	/experiments/AOT/AOT_stimuli/rescaled_final/1020_fw.mp4	0.0	470.33617782592773	0.9999730587005615
65	446.73950695991516	movie	1		246	63.0	2.5	/experiments/AOT/AOT_stimuli/rescaled_final/1020_fw.mp4	0.0	471.3361508846283	2.500035047531128
65	447.1224479675293	pulse	1	t		63.0	2.5	/experiments/AOT/AOT_stimuli/rescaled_final/1020_fw.mp4	0.0	471.71909189224243	
65	448.72293996810913	pulse	1	t		63.0	2.5	/experiments/AOT/AOT_stimuli/rescaled_final/1020_fw.mp4	0.0	473.31958389282227	
65	449.2395420074463	fix_post	2		12	63.0	2.5	/experiments/AOT/AOT_stimuli/rescaled_final/1020_fw.mp4	0.0	473.8361859321594	0.09995412826538086
66	449.33949613571167	fix_pre	0		119	64.0	2.5	/experiments/AOT/AOT_stimuli/rescaled_final/0773_rv.mp4	0.0	473.9361400604248	0.9917268753051758
66	450.3228769302368	pulse	0	t		64.0	2.5	/experiments/AOT/AOT_stimuli/rescaled_final/0773_rv.mp4	0.0	474.91952085494995	
66	450.33122301101685	movie	1		242	64.0	2.5	/experiments/AOT/AOT_stimuli/rescaled_final/0773_rv.mp4	0.0	474.92786693573	2.5082359313964844
66	451.9225969314575	pulse	1	t		64.0	2.5	/experiments/AOT/AOT_stimuli/rescaled_final/0773_rv.mp4	0.0	476.51924085617065	
66	452.83945894241333	fix_post	2		12	64.0	2.5	/experiments/AOT/AOT_stimuli/rescaled_final/0773_rv.mp4	0.0	477.43610286712646	0.10002303123474121
67	452.93948197364807	fix_pre	0		120	65.0	2.5	/experiments/AOT/AOT_stimuli/rescaled_final/1470_fw.mp4	0.0	477.5361258983612	0.9999949932098389
67	453.52297711372375	pulse	0	t		65.0	2.5	/experiments/AOT/AOT_stimuli/rescaled_final/1470_fw.mp4	0.0	478.1196210384369	
67	453.9394769668579	movie	1		244	65.0	2.5	/experiments/AOT/AOT_stimuli/rescaled_final/1470_fw.mp4	0.0	478.53612089157104	2.500025987625122
67	455.12305212020874	pulse	1	t		65.0	2.5	/experiments/AOT/AOT_stimuli/rescaled_final/1470_fw.mp4	0.0	479.7196960449219	
67	456.43950295448303	fix_post	2		12	65.0	2.5	/experiments/AOT/AOT_stimuli/rescaled_final/1470_fw.mp4	0.0	481.03614687919617	0.09998798370361328
68	456.53949093818665	fix_pre	0		120	66.0	2.5	/experiments/AOT/AOT_stimuli/rescaled_final/0963_fw.mp4	0.0	481.1361348628998	0.9999330043792725
68	456.7229480743408	pulse	0	t		66.0	2.5	/experiments/AOT/AOT_stimuli/rescaled_final/0963_fw.mp4	0.0	481.31959199905396	
68	457.5394239425659	movie	1		244	66.0	2.5	/experiments/AOT/AOT_stimuli/rescaled_final/0963_fw.mp4	0.0	482.13606786727905	2.5000271797180176
68	458.3229191303253	pulse	1	t		66.0	2.5	/experiments/AOT/AOT_stimuli/rescaled_final/0963_fw.mp4	0.0	482.91956305503845	
68	459.92113399505615	pulse	1	t		66.0	2.5	/experiments/AOT/AOT_stimuli/rescaled_final/0963_fw.mp4	0.0	484.5177779197693	
68	460.03945112228394	fix_post	2		12	66.0	2.5	/experiments/AOT/AOT_stimuli/rescaled_final/0963_fw.mp4	0.0	484.63609504699707	0.10004687309265137
69	460.1394979953766	fix_pre	0		120	67.0	2.5	/experiments/AOT/AOT_stimuli/rescaled_final/0097_rv.mp4	0.0	484.7361419200897	0.9999001026153564
69	461.13939809799194	movie	1		247	67.0	2.5	/experiments/AOT/AOT_stimuli/rescaled_final/0097_rv.mp4	0.0	485.7360420227051	2.500037908554077
69	461.52311992645264	pulse	1	t		67.0	2.5	/experiments/AOT/AOT_stimuli/rescaled_final/0097_rv.mp4	0.0	486.11976385116577	
69	463.1228709220886	pulse	1	t		67.0	2.5	/experiments/AOT/AOT_stimuli/rescaled_final/0097_rv.mp4	0.0	487.71951484680176	
69	463.639436006546	fix_post	2		12	67.0	2.5	/experiments/AOT/AOT_stimuli/rescaled_final/0097_rv.mp4	0.0	488.23607993125916	0.10005593299865723
70	463.7394919395447	fix_pre	0		119	68.0	2.5	/experiments/AOT/AOT_stimuli/rescaled_final/0723_fw.mp4	0.0	488.3361358642578	0.9916219711303711
70	464.7229459285736	pulse	0	t		68.0	2.5	/experiments/AOT/AOT_stimuli/rescaled_final/0723_fw.mp4	0.0	489.31958985328674	
70	464.73111391067505	movie	1		246	68.0	2.5	/experiments/AOT/AOT_stimuli/rescaled_final/0723_fw.mp4	0.0	489.3277578353882	2.5083131790161133
70	466.32244896888733	pulse	1	t		68.0	2.5	/experiments/AOT/AOT_stimuli/rescaled_final/0723_fw.mp4	0.0	490.91909289360046	
70	467.23942708969116	fix_post	2		12	68.0	2.5	/experiments/AOT/AOT_stimuli/rescaled_final/0723_fw.mp4	0.0	491.8360710144043	0.10002493858337402
71	467.33945202827454	fix_pre	0		120	69.0	2.5	blank	1.0	491.93609595298767	0.9999339580535889
71	467.92294096946716	pulse	0	t		69.0	2.5	blank	1.0	492.5195848941803	
71	468.3393859863281	movie	1		300	69.0	2.5	blank	1.0	492.93602991104126	2.5000269412994385
71	469.52286195755005	pulse	1	t		69.0	2.5	blank	1.0	494.1195058822632	
71	470.83941292762756	fix_post	2		12	69.0	2.5	blank	1.0	495.4360568523407	0.100006103515625
72	470.9394190311432	fix_pre	0		120	70.0	2.5	/experiments/AOT/AOT_stimuli/rescaled_final/0401_rv.mp4	0.0	495.5360629558563	1.0000479221343994
72	471.1228880882263	pulse	0	t		70.0	2.5	/experiments/AOT/AOT_stimuli/rescaled_final/0401_rv.mp4	0.0	495.71953201293945	
72	471.9394669532776	movie	1		242	70.0	2.5	/experiments/AOT/AOT_stimuli/rescaled_final/0401_rv.mp4	0.0	496.5361108779907	2.5000500679016113
72	472.72285890579224	pulse	1	t		70.0	2.5	/experiments/AOT/AOT_stimuli/rescaled_final/0401_rv.mp4	0.0	497.31950283050537	
72	474.32114601135254	pulse	1	t		70.0	2.5	/experiments/AOT/AOT_stimuli/rescaled_final/0401_rv.mp4	0.0	498.9177899360657	
72	474.4395170211792	fix_post	2		12	70.0	2.5	/experiments/AOT/AOT_stimuli/rescaled_final/0401_rv.mp4	0.0	499.03616094589233	0.09983706474304199
73	474.53935408592224	fix_pre	0		120	71.0	2.5	/experiments/AOT/AOT_stimuli/rescaled_final/0158_fw.mp4	0.0	499.1359980106354	1.000079870223999
73	475.53943395614624	movie	1		243	71.0	2.5	/experiments/AOT/AOT_stimuli/rescaled_final/0158_fw.mp4	0.0	500.1360778808594	2.499912977218628
73	475.9236171245575	pulse	1	t		71.0	2.5	/experiments/AOT/AOT_stimuli/rescaled_final/0158_fw.mp4	0.0	500.52026104927063	
73	477.5228490829468	pulse	1	t		71.0	2.5	/experiments/AOT/AOT_stimuli/rescaled_final/0158_fw.mp4	0.0	502.1194930076599	
73	478.03934693336487	fix_post	2		12	71.0	2.5	/experiments/AOT/AOT_stimuli/rescaled_final/0158_fw.mp4	0.0	502.635990858078	0.09999918937683105
74	478.1393461227417	fix_pre	0		119	72.0	2.5	/experiments/AOT/AOT_stimuli/rescaled_final/1615_fw.mp4	0.0	502.73599004745483	0.9916298389434814
74	479.12289690971375	pulse	0	t		72.0	2.5	/experiments/AOT/AOT_stimuli/rescaled_final/1615_fw.mp4	0.0	503.7195408344269	
74	479.1309759616852	movie	1		246	72.0	2.5	/experiments/AOT/AOT_stimuli/rescaled_final/1615_fw.mp4	0.0	503.7276198863983	2.508413076400757
74	480.7223069667816	pulse	1	t		72.0	2.5	/experiments/AOT/AOT_stimuli/rescaled_final/1615_fw.mp4	0.0	505.31895089149475	
74	481.63938903808594	fix_post	2		12	72.0	2.5	/experiments/AOT/AOT_stimuli/rescaled_final/1615_fw.mp4	0.0	506.2360329627991	0.09990406036376953
75	481.7392930984497	fix_pre	0		120	73.0	2.5	/experiments/AOT/AOT_stimuli/rescaled_final/0743_fw.mp4	0.0	506.33593702316284	1.00016188621521
75	482.32278203964233	pulse	0	t		73.0	2.5	/experiments/AOT/AOT_stimuli/rescaled_final/0743_fw.mp4	0.0	506.91942596435547	
75	482.7394549846649	movie	1		244	73.0	2.5	/experiments/AOT/AOT_stimuli/rescaled_final/0743_fw.mp4	0.0	507.33609890937805	2.4999120235443115
75	483.9228160381317	pulse	1	t		73.0	2.5	/experiments/AOT/AOT_stimuli/rescaled_final/0743_fw.mp4	0.0	508.51945996284485	
75	485.23936700820923	fix_post	2		12	73.0	2.5	/experiments/AOT/AOT_stimuli/rescaled_final/0743_fw.mp4	0.0	509.83601093292236	0.09999203681945801
76	485.3393590450287	fix_pre	0		120	74.0	2.5	/experiments/AOT/AOT_stimuli/rescaled_final/0722_rv.mp4	0.0	509.9360029697418	0.9999399185180664
76	485.5228519439697	pulse	0	t		74.0	2.5	/experiments/AOT/AOT_stimuli/rescaled_final/0722_rv.mp4	0.0	510.11949586868286	
76	486.33929896354675	movie	1		244	74.0	2.5	/experiments/AOT/AOT_stimuli/rescaled_final/0722_rv.mp4	0.0	510.9359428882599	2.5000059604644775
76	487.12285900115967	pulse	1	t		74.0	2.5	/experiments/AOT/AOT_stimuli/rescaled_final/0722_rv.mp4	0.0	511.7195029258728	
76	488.72292494773865	pulse	1	t		74.0	2.5	/experiments/AOT/AOT_stimuli/rescaled_final/0722_rv.mp4	0.0	513.3195688724518	
76	488.83930492401123	fix_post	2		12	74.0	2.5	/experiments/AOT/AOT_stimuli/rescaled_final/0722_rv.mp4	0.0	513.4359488487244	0.0999610424041748
77	488.9392659664154	fix_pre	0		120	75.0	2.5	blank	1.0	513.5359098911285	1.000054121017456
77	489.93932008743286	movie	1		300	75.0	2.5	blank	1.0	514.535964012146	2.4996349811553955
77	490.322879076004	pulse	1	t		75.0	2.5	blank	1.0	514.9195230007172	
77	491.92235112190247	pulse	1	t		75.0	2.5	blank	1.0	516.5189950466156	
77	492.43895506858826	fix_post	2		12	75.0	2.5	blank	1.0	517.0355989933014	0.10006189346313477
78	492.5390169620514	fix_pre	0		119	76.0	2.5	/experiments/AOT/AOT_stimuli/rescaled_final/0639_fw.mp4	0.0	517.1356608867645	0.992279052734375
78	493.522579908371	pulse	0	t		76.0	2.5	/experiments/AOT/AOT_stimuli/rescaled_final/0639_fw.mp4	0.0	518.1192238330841	
78	493.53129601478577	movie	1		245	76.0	2.5	/experiments/AOT/AOT_stimuli/rescaled_final/0639_fw.mp4	0.0	518.1279399394989	2.507539987564087
78	495.1235680580139	pulse	1	t		76.0	2.5	/experiments/AOT/AOT_stimuli/rescaled_final/0639_fw.mp4	0.0	519.720211982727	
78	496.03883600234985	fix_post	2		12	76.0	2.5	/experiments/AOT/AOT_stimuli/rescaled_final/0639_fw.mp4	0.0	520.635479927063	0.10041499137878418
79	496.13925099372864	fix_pre	0		120	77.0	2.5	/experiments/AOT/AOT_stimuli/rescaled_final/0617_fw.mp4	0.0	520.7358949184418	1.0000441074371338
79	496.72281193733215	pulse	0	t		77.0	2.5	/experiments/AOT/AOT_stimuli/rescaled_final/0617_fw.mp4	0.0	521.3194558620453	
79	497.13929510116577	movie	1		244	77.0	2.5	/experiments/AOT/AOT_stimuli/rescaled_final/0617_fw.mp4	0.0	521.7359390258789	2.499931812286377
79	498.3227050304413	pulse	1	t		77.0	2.5	/experiments/AOT/AOT_stimuli/rescaled_final/0617_fw.mp4	0.0	522.9193489551544	
79	499.63922691345215	fix_post	2		12	77.0	2.5	/experiments/AOT/AOT_stimuli/rescaled_final/0617_fw.mp4	0.0	524.2358708381653	0.10005617141723633
80	499.7392830848694	fix_pre	0		118	78.0	2.5	/experiments/AOT/AOT_stimuli/rescaled_final/1572_rv.mp4	0.0	524.3359270095825	0.9999799728393555
80	499.92272090911865	pulse	0	t		78.0	2.5	/experiments/AOT/AOT_stimuli/rescaled_final/1572_rv.mp4	0.0	524.5193648338318	
80	500.73926305770874	movie	1		246	78.0	2.5	/experiments/AOT/AOT_stimuli/rescaled_final/1572_rv.mp4	0.0	525.3359069824219	2.499539852142334
80	501.5226879119873	pulse	1	t		78.0	2.5	/experiments/AOT/AOT_stimuli/rescaled_final/1572_rv.mp4	0.0	526.1193318367004	
80	503.1212480068207	pulse	1	t		78.0	2.5	/experiments/AOT/AOT_stimuli/rescaled_final/1572_rv.mp4	0.0	527.7178919315338	
80	503.2388029098511	fix_post	2		12	78.0	2.5	/experiments/AOT/AOT_stimuli/rescaled_final/1572_rv.mp4	0.0	527.8354468345642	0.10042500495910645
81	503.3392279148102	fix_pre	0		120	79.0	2.5	/experiments/AOT/AOT_stimuli/rescaled_final/0773_fw.mp4	0.0	527.9358718395233	0.9996771812438965
81	504.3389050960541	movie	1		248	79.0	2.5	/experiments/AOT/AOT_stimuli/rescaled_final/0773_fw.mp4	0.0	528.9355490207672	2.5002429485321045
81	504.7221419811249	pulse	1	t		79.0	2.5	/experiments/AOT/AOT_stimuli/rescaled_final/0773_fw.mp4	0.0	529.318785905838	
81	506.32266306877136	pulse	1	t		79.0	2.5	/experiments/AOT/AOT_stimuli/rescaled_final/0773_fw.mp4	0.0	530.9193069934845	
81	506.8391480445862	fix_post	2		12	79.0	2.5	/experiments/AOT/AOT_stimuli/rescaled_final/0773_fw.mp4	0.0	531.4357919692993	0.1001119613647461
82	506.9392600059509	fix_pre	0		119	80.0	2.5	/experiments/AOT/AOT_stimuli/rescaled_final/0536_rv.mp4	0.0	531.5359039306641	0.9916589260101318
82	507.9226830005646	pulse	0	t		80.0	2.5	/experiments/AOT/AOT_stimuli/rescaled_final/0536_rv.mp4	0.0	532.5193269252777	
82	507.93091893196106	movie	1		248	80.0	2.5	/experiments/AOT/AOT_stimuli/rescaled_final/0536_rv.mp4	0.0	532.5275628566742	2.50828218460083
82	509.52219891548157	pulse	1	t		80.0	2.5	/experiments/AOT/AOT_stimuli/rescaled_final/0536_rv.mp4	0.0	534.1188428401947	
82	510.4392011165619	fix_post	2		12	80.0	2.5	/experiments/AOT/AOT_stimuli/rescaled_final/0536_rv.mp4	0.0	535.035845041275	0.09998798370361328
83	510.5391891002655	fix_pre	0		120	81.0	2.5	/experiments/AOT/AOT_stimuli/rescaled_final/0726_fw.mp4	0.0	535.1358330249786	1.0001099109649658
83	511.12272000312805	pulse	0	t		81.0	2.5	/experiments/AOT/AOT_stimuli/rescaled_final/0726_fw.mp4	0.0	535.7193639278412	
83	511.53929901123047	movie	1		247	81.0	2.5	/experiments/AOT/AOT_stimuli/rescaled_final/0726_fw.mp4	0.0	536.1359429359436	2.4998650550842285
83	512.7227110862732	pulse	1	t		81.0	2.5	/experiments/AOT/AOT_stimuli/rescaled_final/0726_fw.mp4	0.0	537.3193550109863	
83	514.0391640663147	fix_post	2		12	81.0	2.5	/experiments/AOT/AOT_stimuli/rescaled_final/0726_fw.mp4	0.0	538.6358079910278	0.10007500648498535
84	514.1392390727997	fix_pre	0		120	82.0	2.5	/experiments/AOT/AOT_stimuli/rescaled_final/0433_rv.mp4	0.0	538.7358829975128	1.0000200271606445
84	514.3226599693298	pulse	0	t		82.0	2.5	/experiments/AOT/AOT_stimuli/rescaled_final/0433_rv.mp4	0.0	538.919303894043	
84	515.1392590999603	movie	1		245	82.0	2.5	/experiments/AOT/AOT_stimuli/rescaled_final/0433_rv.mp4	0.0	539.7359030246735	2.499433994293213
84	515.9225881099701	pulse	1	t		82.0	2.5	/experiments/AOT/AOT_stimuli/rescaled_final/0433_rv.mp4	0.0	540.5192320346832	
84	517.5310020446777	pulse	1	t		82.0	2.5	/experiments/AOT/AOT_stimuli/rescaled_final/0433_rv.mp4	0.0	542.1276459693909	
84	517.6386930942535	fix_post	2		12	82.0	2.5	/experiments/AOT/AOT_stimuli/rescaled_final/0433_rv.mp4	0.0	542.2353370189667	0.10050082206726074
85	517.7391939163208	fix_pre	0		120	83.0	2.5	blank	1.0	542.3358378410339	0.9998781681060791
85	518.7390720844269	movie	1		300	83.0	2.5	blank	1.0	543.33571600914	2.5000789165496826
85	519.1226210594177	pulse	1	t		83.0	2.5	blank	1.0	543.7192649841309	
85	520.7226610183716	pulse	1	t		83.0	2.5	blank	1.0	545.3193049430847	
85	521.2391510009766	fix_post	2		12	83.0	2.5	blank	1.0	545.8357949256897	0.09993100166320801
87	521.3390820026398	stim	0		1716					545.9357259273529	14.30007004737854
87	522.3225979804993	pulse	0	t						546.9192419052124	
87	523.9226341247559	pulse	0	t						548.519278049469	
87	525.5225739479065	pulse	0	t						550.1192178726196	
87	527.1225340366364	pulse	0	t						551.7191779613495	
87	528.7225680351257	pulse	0	t						553.3192119598389	
87	530.3225021362305	pulse	0	t						554.9191460609436	
87	531.9226160049438	pulse	0	t						556.519259929657	
87	533.5225620269775	pulse	0	t						558.1192059516907	
87	535.1224830150604	pulse	0	t						559.7191269397736	
