trial_nr	onset	event_type	phase	response	nr_frames	movie_index	movie_duration	movie_file	blank	onset_abs	duration
0	0.1665489673614502	stim	0		18					18.253352165222168	0.14985132217407227
0	0.3087148666381836	response	0	space						18.3955180644989	
1	0.31640028953552246	stim	0		4634					18.40320348739624	38.632803440093994
1	38.93980860710144	pulse	0	t						57.02661180496216	
1	38.94920372962952	stim	1		1715					57.036006927490234	14.300179719924927
1	40.53097367286682	pulse	1	t						58.61777687072754	
1	42.13153958320618	pulse	1	t						60.218342781066895	
1	43.73179316520691	pulse	1	t						61.81859636306763	
1	45.32373881340027	pulse	1	t						63.410542011260986	
1	46.92398023605347	pulse	1	t						65.01078343391418	
1	48.52396512031555	pulse	1	t						66.61076831817627	
1	50.12407612800598	pulse	1	t						68.2108793258667	
1	51.72446918487549	pulse	1	t						69.8112723827362	
2	53.24938344955444	fix_pre	0		10	0.0	2.5	/experiments/Knapen_AOT/AOT_stimuli/rescaled_final/0704_fw.mp4	0.0	71.33618664741516	0.10004138946533203
2	53.32457661628723	pulse	0	t		0.0	2.5	/experiments/Knapen_AOT/AOT_stimuli/rescaled_final/0704_fw.mp4	0.0	71.41137981414795	
2	53.349424839019775	movie	1		289	0.0	2.5	/experiments/Knapen_AOT/AOT_stimuli/rescaled_final/0704_fw.mp4	0.0	71.4362280368805	2.492004871368408
2	54.925028562545776	pulse	1	t		0.0	2.5	/experiments/Knapen_AOT/AOT_stimuli/rescaled_final/0704_fw.mp4	0.0	73.0118317604065	
2	55.841429710388184	fix_post	2		12	0.0	2.5	/experiments/Knapen_AOT/AOT_stimuli/rescaled_final/0704_fw.mp4	0.0	73.9282329082489	0.10001492500305176
3	55.941444635391235	fix_pre	0		120	1.0	2.5	/experiments/Knapen_AOT/AOT_stimuli/rescaled_final/0440_rv.mp4	0.0	74.02824783325195	1.00850248336792
3	56.52513861656189	pulse	0	t		1.0	2.5	/experiments/Knapen_AOT/AOT_stimuli/rescaled_final/0440_rv.mp4	0.0	74.61194181442261	
3	56.949947118759155	movie	1		288	1.0	2.5	/experiments/Knapen_AOT/AOT_stimuli/rescaled_final/0440_rv.mp4	0.0	75.03675031661987	2.4920129776000977
3	58.12529015541077	pulse	1	t		1.0	2.5	/experiments/Knapen_AOT/AOT_stimuli/rescaled_final/0440_rv.mp4	0.0	76.21209335327148	
3	59.44196009635925	fix_post	2		12	1.0	2.5	/experiments/Knapen_AOT/AOT_stimuli/rescaled_final/0440_rv.mp4	0.0	77.52876329421997	0.10006093978881836
4	59.54202103614807	fix_pre	0		120	2.0	2.5	/experiments/Knapen_AOT/AOT_stimuli/rescaled_final/1979_rv.mp4	0.0	77.62882423400879	1.0084710121154785
4	59.725587129592896	pulse	0	t		2.0	2.5	/experiments/Knapen_AOT/AOT_stimuli/rescaled_final/1979_rv.mp4	0.0	77.81239032745361	
4	60.55049204826355	movie	1		289	2.0	2.5	/experiments/Knapen_AOT/AOT_stimuli/rescaled_final/1979_rv.mp4	0.0	78.63729524612427	2.492064952850342
4	61.32580304145813	pulse	1	t		2.0	2.5	/experiments/Knapen_AOT/AOT_stimuli/rescaled_final/1979_rv.mp4	0.0	79.41260623931885	
4	62.92402100563049	pulse	1	t		2.0	2.5	/experiments/Knapen_AOT/AOT_stimuli/rescaled_final/1979_rv.mp4	0.0	81.01082420349121	
4	63.04255700111389	fix_post	2		12	2.0	2.5	/experiments/Knapen_AOT/AOT_stimuli/rescaled_final/1979_rv.mp4	0.0	81.12936019897461	0.10001897811889648
5	63.14257597923279	fix_pre	0		120	3.0	2.5	/experiments/Knapen_AOT/AOT_stimuli/rescaled_final/0842_fw.mp4	0.0	81.2293791770935	1.0085258483886719
5	64.15110182762146	movie	1		289	3.0	2.5	/experiments/Knapen_AOT/AOT_stimuli/rescaled_final/0842_fw.mp4	0.0	82.23790502548218	2.4919464588165283
5	64.5251076221466	pulse	1	t		3.0	2.5	/experiments/Knapen_AOT/AOT_stimuli/rescaled_final/0842_fw.mp4	0.0	82.61191082000732	
5	66.12415075302124	pulse	1	t		3.0	2.5	/experiments/Knapen_AOT/AOT_stimuli/rescaled_final/0842_fw.mp4	0.0	84.21095395088196	
5	66.64304828643799	fix_post	2		12	3.0	2.5	/experiments/Knapen_AOT/AOT_stimuli/rescaled_final/0842_fw.mp4	0.0	84.7298514842987	0.10005927085876465
6	66.74310755729675	fix_pre	0		118	4.0	2.5	/experiments/Knapen_AOT/AOT_stimuli/rescaled_final/0129_rv.mp4	0.0	84.82991075515747	1.0001182556152344
6	67.7266526222229	pulse	0	t		4.0	2.5	/experiments/Knapen_AOT/AOT_stimuli/rescaled_final/0129_rv.mp4	0.0	85.81345582008362	
6	67.74322581291199	movie	1		291	4.0	2.5	/experiments/Knapen_AOT/AOT_stimuli/rescaled_final/0129_rv.mp4	0.0	85.8300290107727	2.5003535747528076
6	69.32565832138062	pulse	1	t		4.0	2.5	/experiments/Knapen_AOT/AOT_stimuli/rescaled_final/0129_rv.mp4	0.0	87.41246151924133	
6	70.2435793876648	fix_post	2		12	4.0	2.5	/experiments/Knapen_AOT/AOT_stimuli/rescaled_final/0129_rv.mp4	0.0	88.33038258552551	0.1000216007232666
7	70.34360098838806	fix_pre	0		120	5.0	2.5	/experiments/Knapen_AOT/AOT_stimuli/rescaled_final/2035_rv.mp4	0.0	88.43040418624878	1.0084826946258545
7	70.92721033096313	pulse	0	t		5.0	2.5	/experiments/Knapen_AOT/AOT_stimuli/rescaled_final/2035_rv.mp4	0.0	89.01401352882385	
7	71.35208368301392	movie	1		291	5.0	2.5	/experiments/Knapen_AOT/AOT_stimuli/rescaled_final/2035_rv.mp4	0.0	89.43888688087463	2.492095470428467
7	72.52583265304565	pulse	1	t		5.0	2.5	/experiments/Knapen_AOT/AOT_stimuli/rescaled_final/2035_rv.mp4	0.0	90.61263585090637	
7	73.84417915344238	fix_post	2		12	5.0	2.5	/experiments/Knapen_AOT/AOT_stimuli/rescaled_final/2035_rv.mp4	0.0	91.9309823513031	0.10009622573852539
8	73.94427537918091	fix_pre	0		120	6.0	2.5	/experiments/Knapen_AOT/AOT_stimuli/rescaled_final/0401_rv.mp4	0.0	92.03107857704163	1.0086605548858643
8	74.12776374816895	pulse	0	t		6.0	2.5	/experiments/Knapen_AOT/AOT_stimuli/rescaled_final/0401_rv.mp4	0.0	92.21456694602966	
8	74.95293593406677	movie	1		281	6.0	2.5	/experiments/Knapen_AOT/AOT_stimuli/rescaled_final/0401_rv.mp4	0.0	93.03973913192749	2.4917232990264893
8	75.72768092155457	pulse	1	t		6.0	2.5	/experiments/Knapen_AOT/AOT_stimuli/rescaled_final/0401_rv.mp4	0.0	93.81448411941528	
8	77.32625031471252	pulse	1	t		6.0	2.5	/experiments/Knapen_AOT/AOT_stimuli/rescaled_final/0401_rv.mp4	0.0	95.41305351257324	
8	77.44465923309326	fix_post	2		12	6.0	2.5	/experiments/Knapen_AOT/AOT_stimuli/rescaled_final/0401_rv.mp4	0.0	95.53146243095398	0.10003066062927246
9	77.54468989372253	fix_pre	0		120	7.0	2.5	blank	1.0	95.63149309158325	1.0001356601715088
9	78.54482555389404	movie	1		300	7.0	2.5	blank	1.0	96.63162875175476	2.500375747680664
9	78.92843389511108	pulse	1	t		7.0	2.5	blank	1.0	97.0152370929718	
9	80.52871561050415	pulse	1	t		7.0	2.5	blank	1.0	98.61551880836487	
9	81.0452013015747	fix_post	2		12	7.0	2.5	blank	1.0	99.13200449943542	0.10003185272216797
10	81.14523315429688	fix_pre	0		119	8.0	2.5	/experiments/Knapen_AOT/AOT_stimuli/rescaled_final/0469_rv.mp4	0.0	99.23203635215759	1.00014066696167
10	82.12896275520325	pulse	0	t		8.0	2.5	/experiments/Knapen_AOT/AOT_stimuli/rescaled_final/0469_rv.mp4	0.0	100.21576595306396	
10	82.14537382125854	movie	1		295	8.0	2.5	/experiments/Knapen_AOT/AOT_stimuli/rescaled_final/0469_rv.mp4	0.0	100.23217701911926	2.5003652572631836
10	83.72755694389343	pulse	1	t		8.0	2.5	/experiments/Knapen_AOT/AOT_stimuli/rescaled_final/0469_rv.mp4	0.0	101.81436014175415	
10	84.64573907852173	fix_post	2		12	8.0	2.5	/experiments/Knapen_AOT/AOT_stimuli/rescaled_final/0469_rv.mp4	0.0	102.73254227638245	0.10002899169921875
11	84.74576807022095	fix_pre	0		120	9.0	2.5	/experiments/Knapen_AOT/AOT_stimuli/rescaled_final/1899_fw.mp4	0.0	102.83257126808167	1.0085077285766602
11	85.3293845653534	pulse	0	t		9.0	2.5	/experiments/Knapen_AOT/AOT_stimuli/rescaled_final/1899_fw.mp4	0.0	103.41618776321411	
11	85.75427579879761	movie	1		287	9.0	2.5	/experiments/Knapen_AOT/AOT_stimuli/rescaled_final/1899_fw.mp4	0.0	103.84107899665833	2.4920129776000977
11	86.92803454399109	pulse	1	t		9.0	2.5	/experiments/Knapen_AOT/AOT_stimuli/rescaled_final/1899_fw.mp4	0.0	105.0148377418518	
11	88.2462887763977	fix_post	2		12	9.0	2.5	/experiments/Knapen_AOT/AOT_stimuli/rescaled_final/1899_fw.mp4	0.0	106.33309197425842	0.10001897811889648
12	88.3463077545166	fix_pre	0		120	10.0	2.5	/experiments/Knapen_AOT/AOT_stimuli/rescaled_final/0882_rv.mp4	0.0	106.43311095237732	1.0085153579711914
12	88.52990412712097	pulse	0	t		10.0	2.5	/experiments/Knapen_AOT/AOT_stimuli/rescaled_final/0882_rv.mp4	0.0	106.61670732498169	
12	89.3548231124878	movie	1		288	10.0	2.5	/experiments/Knapen_AOT/AOT_stimuli/rescaled_final/0882_rv.mp4	0.0	107.44162631034851	2.4920108318328857
12	90.12829852104187	pulse	1	t		10.0	2.5	/experiments/Knapen_AOT/AOT_stimuli/rescaled_final/0882_rv.mp4	0.0	108.21510171890259	
12	91.7283148765564	pulse	1	t		10.0	2.5	/experiments/Knapen_AOT/AOT_stimuli/rescaled_final/0882_rv.mp4	0.0	109.81511807441711	
12	91.84683394432068	fix_post	2		12	10.0	2.5	/experiments/Knapen_AOT/AOT_stimuli/rescaled_final/0882_rv.mp4	0.0	109.9336371421814	0.10005617141723633
13	91.94689011573792	fix_pre	0		120	11.0	2.5	/experiments/Knapen_AOT/AOT_stimuli/rescaled_final/0042_rv.mp4	0.0	110.03369331359863	1.0084421634674072
13	92.95533227920532	movie	1		290	11.0	2.5	/experiments/Knapen_AOT/AOT_stimuli/rescaled_final/0042_rv.mp4	0.0	111.04213547706604	2.4920389652252197
13	93.32922554016113	pulse	1	t		11.0	2.5	/experiments/Knapen_AOT/AOT_stimuli/rescaled_final/0042_rv.mp4	0.0	111.41602873802185	
13	94.92877554893494	pulse	1	t		11.0	2.5	/experiments/Knapen_AOT/AOT_stimuli/rescaled_final/0042_rv.mp4	0.0	113.01557874679565	
13	95.44737124443054	fix_post	2		12	11.0	2.5	/experiments/Knapen_AOT/AOT_stimuli/rescaled_final/0042_rv.mp4	0.0	113.53417444229126	0.10000991821289062
14	95.54738116264343	fix_pre	0		119	12.0	2.5	/experiments/Knapen_AOT/AOT_stimuli/rescaled_final/0116_fw.mp4	0.0	113.63418436050415	1.0001730918884277
14	96.53107380867004	pulse	0	t		12.0	2.5	/experiments/Knapen_AOT/AOT_stimuli/rescaled_final/0116_fw.mp4	0.0	114.61787700653076	
14	96.54755425453186	movie	1		288	12.0	2.5	/experiments/Knapen_AOT/AOT_stimuli/rescaled_final/0116_fw.mp4	0.0	114.63435745239258	2.500352144241333
14	98.12966513633728	pulse	1	t		12.0	2.5	/experiments/Knapen_AOT/AOT_stimuli/rescaled_final/0116_fw.mp4	0.0	116.216468334198	
14	99.0479063987732	fix_post	2		12	12.0	2.5	/experiments/Knapen_AOT/AOT_stimuli/rescaled_final/0116_fw.mp4	0.0	117.13470959663391	0.10001993179321289
15	99.1479263305664	fix_pre	0		120	13.0	2.5	/experiments/Knapen_AOT/AOT_stimuli/rescaled_final/2129_fw.mp4	0.0	117.23472952842712	1.0085091590881348
15	99.73155784606934	pulse	0	t		13.0	2.5	/experiments/Knapen_AOT/AOT_stimuli/rescaled_final/2129_fw.mp4	0.0	117.81836104393005	
15	100.15643548965454	movie	1		284	13.0	2.5	/experiments/Knapen_AOT/AOT_stimuli/rescaled_final/2129_fw.mp4	0.0	118.24323868751526	2.492023468017578
15	101.32970452308655	pulse	1	t		13.0	2.5	/experiments/Knapen_AOT/AOT_stimuli/rescaled_final/2129_fw.mp4	0.0	119.41650772094727	
15	102.64845895767212	fix_post	2		12	13.0	2.5	/experiments/Knapen_AOT/AOT_stimuli/rescaled_final/2129_fw.mp4	0.0	120.73526215553284	0.1000363826751709
16	102.74849534034729	fix_pre	0		120	14.0	2.5	blank	1.0	120.83529853820801	1.0001726150512695
16	102.92457962036133	pulse	0	t		14.0	2.5	blank	1.0	121.01138281822205	
16	103.74866795539856	movie	1		300	14.0	2.5	blank	1.0	121.83547115325928	2.5003139972686768
16	104.5242862701416	pulse	1	t		14.0	2.5	blank	1.0	122.61108946800232	
16	106.1242082118988	pulse	1	t		14.0	2.5	blank	1.0	124.21101140975952	
16	106.24898195266724	fix_post	2		12	14.0	2.5	blank	1.0	124.33578515052795	0.10002326965332031
17	106.34900522232056	fix_pre	0		120	15.0	2.5	/experiments/Knapen_AOT/AOT_stimuli/rescaled_final/1508_rv.mp4	0.0	124.43580842018127	1.008500337600708
17	107.35750555992126	movie	1		285	15.0	2.5	/experiments/Knapen_AOT/AOT_stimuli/rescaled_final/1508_rv.mp4	0.0	125.44430875778198	2.492048978805542
17	107.72452402114868	pulse	1	t		15.0	2.5	/experiments/Knapen_AOT/AOT_stimuli/rescaled_final/1508_rv.mp4	0.0	125.8113272190094	
17	109.32468795776367	pulse	1	t		15.0	2.5	/experiments/Knapen_AOT/AOT_stimuli/rescaled_final/1508_rv.mp4	0.0	127.41149115562439	
17	109.8495545387268	fix_post	2		12	15.0	2.5	/experiments/Knapen_AOT/AOT_stimuli/rescaled_final/1508_rv.mp4	0.0	127.93635773658752	0.10001945495605469
18	109.94957399368286	fix_pre	0		118	16.0	2.5	/experiments/Knapen_AOT/AOT_stimuli/rescaled_final/2064_rv.mp4	0.0	128.03637719154358	0.9919109344482422
18	110.92492938041687	pulse	0	t		16.0	2.5	/experiments/Knapen_AOT/AOT_stimuli/rescaled_final/2064_rv.mp4	0.0	129.0117325782776	
18	110.9414849281311	movie	1		291	16.0	2.5	/experiments/Knapen_AOT/AOT_stimuli/rescaled_final/2064_rv.mp4	0.0	129.02828812599182	2.5002617835998535
18	112.52543091773987	pulse	1	t		16.0	2.5	/experiments/Knapen_AOT/AOT_stimuli/rescaled_final/2064_rv.mp4	0.0	130.6122341156006	
18	113.44174671173096	fix_post	2		12	16.0	2.5	/experiments/Knapen_AOT/AOT_stimuli/rescaled_final/2064_rv.mp4	0.0	131.52854990959167	0.10000109672546387
19	113.54174780845642	fix_pre	0		120	17.0	2.5	/experiments/Knapen_AOT/AOT_stimuli/rescaled_final/1445_fw.mp4	0.0	131.62855100631714	1.0085182189941406
19	114.12538123130798	pulse	0	t		17.0	2.5	/experiments/Knapen_AOT/AOT_stimuli/rescaled_final/1445_fw.mp4	0.0	132.2121844291687	
19	114.55026602745056	movie	1		289	17.0	2.5	/experiments/Knapen_AOT/AOT_stimuli/rescaled_final/1445_fw.mp4	0.0	132.63706922531128	2.4920639991760254
19	115.72561836242676	pulse	1	t		17.0	2.5	/experiments/Knapen_AOT/AOT_stimuli/rescaled_final/1445_fw.mp4	0.0	133.81242156028748	
19	117.04233002662659	fix_post	2		12	17.0	2.5	/experiments/Knapen_AOT/AOT_stimuli/rescaled_final/1445_fw.mp4	0.0	135.1291332244873	0.09997963905334473
20	117.14230966567993	fix_pre	0		120	18.0	2.5	/experiments/Knapen_AOT/AOT_stimuli/rescaled_final/0912_fw.mp4	0.0	135.22911286354065	1.008540391921997
20	117.3258650302887	pulse	0	t		18.0	2.5	/experiments/Knapen_AOT/AOT_stimuli/rescaled_final/0912_fw.mp4	0.0	135.4126682281494	
20	118.15085005760193	movie	1		294	18.0	2.5	/experiments/Knapen_AOT/AOT_stimuli/rescaled_final/0912_fw.mp4	0.0	136.23765325546265	2.4919776916503906
20	118.92430400848389	pulse	1	t		18.0	2.5	/experiments/Knapen_AOT/AOT_stimuli/rescaled_final/0912_fw.mp4	0.0	137.0111072063446	
20	120.5245008468628	pulse	1	t		18.0	2.5	/experiments/Knapen_AOT/AOT_stimuli/rescaled_final/0912_fw.mp4	0.0	138.6113040447235	
20	120.64282774925232	fix_post	2		12	18.0	2.5	/experiments/Knapen_AOT/AOT_stimuli/rescaled_final/0912_fw.mp4	0.0	138.72963094711304	0.1000521183013916
21	120.74287986755371	fix_pre	0		120	19.0	2.5	/experiments/Knapen_AOT/AOT_stimuli/rescaled_final/0591_fw.mp4	0.0	138.82968306541443	1.0084550380706787
21	121.75133490562439	movie	1		283	19.0	2.5	/experiments/Knapen_AOT/AOT_stimuli/rescaled_final/0591_fw.mp4	0.0	139.8381381034851	2.492020606994629
21	122.1251540184021	pulse	1	t		19.0	2.5	/experiments/Knapen_AOT/AOT_stimuli/rescaled_final/0591_fw.mp4	0.0	140.21195721626282	
21	123.72451972961426	pulse	1	t		19.0	2.5	/experiments/Knapen_AOT/AOT_stimuli/rescaled_final/0591_fw.mp4	0.0	141.81132292747498	
21	124.24335551261902	fix_post	2		12	19.0	2.5	/experiments/Knapen_AOT/AOT_stimuli/rescaled_final/0591_fw.mp4	0.0	142.33015871047974	0.10001635551452637
22	124.34337186813354	fix_pre	0		119	20.0	2.5	blank	1.0	142.43017506599426	0.9918148517608643
22	125.32703828811646	pulse	0	t		20.0	2.5	blank	1.0	143.41384148597717	
22	125.33518671989441	movie	1		301	20.0	2.5	blank	1.0	143.42198991775513	2.508749485015869
22	126.92733073234558	pulse	1	t		20.0	2.5	blank	1.0	145.0141339302063	
22	127.84393620491028	fix_post	2		12	20.0	2.5	blank	1.0	145.930739402771	0.09999489784240723
23	127.94393110275269	fix_pre	0		120	21.0	2.5	/experiments/Knapen_AOT/AOT_stimuli/rescaled_final/1862_rv.mp4	0.0	146.0307343006134	1.008469581604004
23	128.5275435447693	pulse	0	t		21.0	2.5	/experiments/Knapen_AOT/AOT_stimuli/rescaled_final/1862_rv.mp4	0.0	146.61434674263	
23	128.9524006843567	movie	1		287	21.0	2.5	/experiments/Knapen_AOT/AOT_stimuli/rescaled_final/1862_rv.mp4	0.0	147.0392038822174	2.492074728012085
23	130.12573528289795	pulse	1	t		21.0	2.5	/experiments/Knapen_AOT/AOT_stimuli/rescaled_final/1862_rv.mp4	0.0	148.21253848075867	
23	131.44447541236877	fix_post	2		12	21.0	2.5	/experiments/Knapen_AOT/AOT_stimuli/rescaled_final/1862_rv.mp4	0.0	149.5312786102295	0.09997773170471191
24	131.5444531440735	fix_pre	0		120	22.0	2.5	/experiments/Knapen_AOT/AOT_stimuli/rescaled_final/0698_fw.mp4	0.0	149.6312563419342	1.0085148811340332
24	131.72802710533142	pulse	0	t		22.0	2.5	/experiments/Knapen_AOT/AOT_stimuli/rescaled_final/0698_fw.mp4	0.0	149.81483030319214	
24	132.55296802520752	movie	1		291	22.0	2.5	/experiments/Knapen_AOT/AOT_stimuli/rescaled_final/0698_fw.mp4	0.0	150.63977122306824	2.492013931274414
24	133.32648420333862	pulse	1	t		22.0	2.5	/experiments/Knapen_AOT/AOT_stimuli/rescaled_final/0698_fw.mp4	0.0	151.41328740119934	
24	134.92657446861267	pulse	1	t		22.0	2.5	/experiments/Knapen_AOT/AOT_stimuli/rescaled_final/0698_fw.mp4	0.0	153.0133776664734	
24	135.04498195648193	fix_post	2		12	22.0	2.5	/experiments/Knapen_AOT/AOT_stimuli/rescaled_final/0698_fw.mp4	0.0	153.13178515434265	0.10001516342163086
25	135.14499711990356	fix_pre	0		120	23.0	2.5	/experiments/Knapen_AOT/AOT_stimuli/rescaled_final/2114_fw.mp4	0.0	153.23180031776428	1.0084974765777588
25	136.15349459648132	movie	1		289	23.0	2.5	/experiments/Knapen_AOT/AOT_stimuli/rescaled_final/2114_fw.mp4	0.0	154.24029779434204	2.492157459259033
25	136.52721619606018	pulse	1	t		23.0	2.5	/experiments/Knapen_AOT/AOT_stimuli/rescaled_final/2114_fw.mp4	0.0	154.6140193939209	
25	138.1266782283783	pulse	1	t		23.0	2.5	/experiments/Knapen_AOT/AOT_stimuli/rescaled_final/2114_fw.mp4	0.0	156.213481426239	
25	138.64565205574036	fix_post	2		12	23.0	2.5	/experiments/Knapen_AOT/AOT_stimuli/rescaled_final/2114_fw.mp4	0.0	156.73245525360107	0.0999307632446289
26	138.74558281898499	fix_pre	0		119	24.0	2.5	/experiments/Knapen_AOT/AOT_stimuli/rescaled_final/0586_rv.mp4	0.0	156.8323860168457	1.0001246929168701
26	139.7292206287384	pulse	0	t		24.0	2.5	/experiments/Knapen_AOT/AOT_stimuli/rescaled_final/0586_rv.mp4	0.0	157.81602382659912	
26	139.74570751190186	movie	1		288	24.0	2.5	/experiments/Knapen_AOT/AOT_stimuli/rescaled_final/0586_rv.mp4	0.0	157.83251070976257	2.500354766845703
26	141.3283245563507	pulse	1	t		24.0	2.5	/experiments/Knapen_AOT/AOT_stimuli/rescaled_final/0586_rv.mp4	0.0	159.41512775421143	
26	142.24606227874756	fix_post	2		12	24.0	2.5	/experiments/Knapen_AOT/AOT_stimuli/rescaled_final/0586_rv.mp4	0.0	160.33286547660828	0.10004806518554688
27	142.3461103439331	fix_pre	0		120	25.0	2.5	/experiments/Knapen_AOT/AOT_stimuli/rescaled_final/0586_fw.mp4	0.0	160.43291354179382	1.0084705352783203
27	142.92968130111694	pulse	0	t		25.0	2.5	/experiments/Knapen_AOT/AOT_stimuli/rescaled_final/0586_fw.mp4	0.0	161.01648449897766	
27	143.35458087921143	movie	1		285	25.0	2.5	/experiments/Knapen_AOT/AOT_stimuli/rescaled_final/0586_fw.mp4	0.0	161.44138407707214	2.4920291900634766
27	144.52841138839722	pulse	1	t		25.0	2.5	/experiments/Knapen_AOT/AOT_stimuli/rescaled_final/0586_fw.mp4	0.0	162.61521458625793	
27	145.8466100692749	fix_post	2		12	25.0	2.5	/experiments/Knapen_AOT/AOT_stimuli/rescaled_final/0586_fw.mp4	0.0	163.93341326713562	0.09998750686645508
28	145.94659757614136	fix_pre	0		120	26.0	2.5	/experiments/Knapen_AOT/AOT_stimuli/rescaled_final/2046_rv.mp4	0.0	164.03340077400208	1.0084788799285889
28	146.13024473190308	pulse	0	t		26.0	2.5	/experiments/Knapen_AOT/AOT_stimuli/rescaled_final/2046_rv.mp4	0.0	164.2170479297638	
28	146.95507645606995	movie	1		291	26.0	2.5	/experiments/Knapen_AOT/AOT_stimuli/rescaled_final/2046_rv.mp4	0.0	165.04187965393066	2.49204158782959
28	147.728417634964	pulse	1	t		26.0	2.5	/experiments/Knapen_AOT/AOT_stimuli/rescaled_final/2046_rv.mp4	0.0	165.8152208328247	
28	149.32884287834167	pulse	1	t		26.0	2.5	/experiments/Knapen_AOT/AOT_stimuli/rescaled_final/2046_rv.mp4	0.0	167.4156460762024	
28	149.44711804389954	fix_post	2		12	26.0	2.5	/experiments/Knapen_AOT/AOT_stimuli/rescaled_final/2046_rv.mp4	0.0	167.53392124176025	0.10002613067626953
29	149.5471441745758	fix_pre	0		120	27.0	2.5	blank	1.0	167.63394737243652	1.0001440048217773
29	150.54728817939758	movie	1		300	27.0	2.5	blank	1.0	168.6340913772583	2.5003550052642822
29	150.923419713974	pulse	1	t		27.0	2.5	blank	1.0	169.01022291183472	
29	152.53110074996948	pulse	1	t		27.0	2.5	blank	1.0	170.6179039478302	
29	153.04764318466187	fix_post	2		12	27.0	2.5	blank	1.0	171.13444638252258	0.09999966621398926
30	153.14764285087585	fix_pre	0		119	28.0	2.5	/experiments/Knapen_AOT/AOT_stimuli/rescaled_final/0982_fw.mp4	0.0	171.23444604873657	1.0001733303070068
30	154.12360978126526	pulse	0	t		28.0	2.5	/experiments/Knapen_AOT/AOT_stimuli/rescaled_final/0982_fw.mp4	0.0	172.21041297912598	
30	154.14781618118286	movie	1		291	28.0	2.5	/experiments/Knapen_AOT/AOT_stimuli/rescaled_final/0982_fw.mp4	0.0	172.23461937904358	2.500380277633667
30	155.72368931770325	pulse	1	t		28.0	2.5	/experiments/Knapen_AOT/AOT_stimuli/rescaled_final/0982_fw.mp4	0.0	173.81049251556396	
30	156.64819645881653	fix_post	2		12	28.0	2.5	/experiments/Knapen_AOT/AOT_stimuli/rescaled_final/0982_fw.mp4	0.0	174.73499965667725	0.10002541542053223
31	156.74822187423706	fix_pre	0		120	29.0	2.5	/experiments/Knapen_AOT/AOT_stimuli/rescaled_final/0157_rv.mp4	0.0	174.83502507209778	1.0084996223449707
31	157.32390666007996	pulse	0	t		29.0	2.5	/experiments/Knapen_AOT/AOT_stimuli/rescaled_final/0157_rv.mp4	0.0	175.41070985794067	
31	157.75672149658203	movie	1		294	29.0	2.5	/experiments/Knapen_AOT/AOT_stimuli/rescaled_final/0157_rv.mp4	0.0	175.84352469444275	2.4920008182525635
31	158.92380475997925	pulse	1	t		29.0	2.5	/experiments/Knapen_AOT/AOT_stimuli/rescaled_final/0157_rv.mp4	0.0	177.01060795783997	
31	160.2487223148346	fix_post	2		12	29.0	2.5	/experiments/Knapen_AOT/AOT_stimuli/rescaled_final/0157_rv.mp4	0.0	178.3355255126953	0.10003042221069336
32	160.3487527370453	fix_pre	0		120	30.0	2.5	/experiments/Knapen_AOT/AOT_stimuli/rescaled_final/1888_fw.mp4	0.0	178.435555934906	1.0084640979766846
32	160.52448797225952	pulse	0	t		30.0	2.5	/experiments/Knapen_AOT/AOT_stimuli/rescaled_final/1888_fw.mp4	0.0	178.61129117012024	
32	161.35721683502197	movie	1		288	30.0	2.5	/experiments/Knapen_AOT/AOT_stimuli/rescaled_final/1888_fw.mp4	0.0	179.4440200328827	2.4920427799224854
32	162.12423014640808	pulse	1	t		30.0	2.5	/experiments/Knapen_AOT/AOT_stimuli/rescaled_final/1888_fw.mp4	0.0	180.2110333442688	
32	163.72450852394104	pulse	1	t		30.0	2.5	/experiments/Knapen_AOT/AOT_stimuli/rescaled_final/1888_fw.mp4	0.0	181.81131172180176	
32	163.84925961494446	fix_post	2		12	30.0	2.5	/experiments/Knapen_AOT/AOT_stimuli/rescaled_final/1888_fw.mp4	0.0	181.93606281280518	0.1000363826751709
33	163.94929599761963	fix_pre	0		120	31.0	2.5	/experiments/Knapen_AOT/AOT_stimuli/rescaled_final/1440_fw.mp4	0.0	182.03609919548035	1.0084998607635498
33	164.95779585838318	movie	1		287	31.0	2.5	/experiments/Knapen_AOT/AOT_stimuli/rescaled_final/1440_fw.mp4	0.0	183.0445990562439	2.492037773132324
33	165.32521080970764	pulse	1	t		31.0	2.5	/experiments/Knapen_AOT/AOT_stimuli/rescaled_final/1440_fw.mp4	0.0	183.41201400756836	
33	166.924955368042	pulse	1	t		31.0	2.5	/experiments/Knapen_AOT/AOT_stimuli/rescaled_final/1440_fw.mp4	0.0	185.0117585659027	
33	167.4498336315155	fix_post	2		12	31.0	2.5	/experiments/Knapen_AOT/AOT_stimuli/rescaled_final/1440_fw.mp4	0.0	185.53663682937622	0.09997940063476562
34	167.54981303215027	fix_pre	0		118	32.0	2.5	/experiments/Knapen_AOT/AOT_stimuli/rescaled_final/0279_rv.mp4	0.0	185.636616230011	0.9918322563171387
34	168.52516388893127	pulse	0	t		32.0	2.5	/experiments/Knapen_AOT/AOT_stimuli/rescaled_final/0279_rv.mp4	0.0	186.611967086792	
34	168.5416452884674	movie	1		293	32.0	2.5	/experiments/Knapen_AOT/AOT_stimuli/rescaled_final/0279_rv.mp4	0.0	186.62844848632812	2.5003464221954346
34	170.12393474578857	pulse	1	t		32.0	2.5	/experiments/Knapen_AOT/AOT_stimuli/rescaled_final/0279_rv.mp4	0.0	188.2107379436493	
34	171.04199171066284	fix_post	2		12	32.0	2.5	/experiments/Knapen_AOT/AOT_stimuli/rescaled_final/0279_rv.mp4	0.0	189.12879490852356	0.10003542900085449
35	171.1420271396637	fix_pre	0		120	33.0	2.5	/experiments/Knapen_AOT/AOT_stimuli/rescaled_final/0232_fw.mp4	0.0	189.2288303375244	1.0085017681121826
35	171.72595500946045	pulse	0	t		33.0	2.5	/experiments/Knapen_AOT/AOT_stimuli/rescaled_final/0232_fw.mp4	0.0	189.81275820732117	
35	172.15052890777588	movie	1		291	33.0	2.5	/experiments/Knapen_AOT/AOT_stimuli/rescaled_final/0232_fw.mp4	0.0	190.2373321056366	2.4920129776000977
35	173.32376790046692	pulse	1	t		33.0	2.5	/experiments/Knapen_AOT/AOT_stimuli/rescaled_final/0232_fw.mp4	0.0	191.41057109832764	
35	174.64254188537598	fix_post	2		12	33.0	2.5	/experiments/Knapen_AOT/AOT_stimuli/rescaled_final/0232_fw.mp4	0.0	192.7293450832367	0.10001587867736816
36	174.74255776405334	fix_pre	0		120	34.0	2.5	/experiments/Knapen_AOT/AOT_stimuli/rescaled_final/0280_rv.mp4	0.0	192.82936096191406	1.0085175037384033
36	174.92614126205444	pulse	0	t		34.0	2.5	/experiments/Knapen_AOT/AOT_stimuli/rescaled_final/0280_rv.mp4	0.0	193.01294445991516	
36	175.75107526779175	movie	1		287	34.0	2.5	/experiments/Knapen_AOT/AOT_stimuli/rescaled_final/0280_rv.mp4	0.0	193.83787846565247	2.4919862747192383
36	176.52424454689026	pulse	1	t		34.0	2.5	/experiments/Knapen_AOT/AOT_stimuli/rescaled_final/0280_rv.mp4	0.0	194.61104774475098	
36	178.12477445602417	pulse	1	t		34.0	2.5	/experiments/Knapen_AOT/AOT_stimuli/rescaled_final/0280_rv.mp4	0.0	196.2115776538849	
36	178.243061542511	fix_post	2		12	34.0	2.5	/experiments/Knapen_AOT/AOT_stimuli/rescaled_final/0280_rv.mp4	0.0	196.3298647403717	0.10003471374511719
37	178.3430962562561	fix_pre	0		120	35.0	2.5	blank	1.0	196.42989945411682	1.0002398490905762
37	179.34333610534668	movie	1		300	35.0	2.5	blank	1.0	197.4301393032074	2.5003135204315186
37	179.7269639968872	pulse	1	t		35.0	2.5	blank	1.0	197.81376719474792	
37	181.32709622383118	pulse	1	t		35.0	2.5	blank	1.0	199.4138994216919	
37	181.8436496257782	fix_post	2		12	35.0	2.5	blank	1.0	199.93045282363892	0.09998631477355957
38	181.94363594055176	fix_pre	0		119	36.0	2.5	/experiments/Knapen_AOT/AOT_stimuli/rescaled_final/0107_fw.mp4	0.0	200.03043913841248	1.0001840591430664
38	182.92743611335754	pulse	0	t		36.0	2.5	/experiments/Knapen_AOT/AOT_stimuli/rescaled_final/0107_fw.mp4	0.0	201.01423931121826	
38	182.94381999969482	movie	1		291	36.0	2.5	/experiments/Knapen_AOT/AOT_stimuli/rescaled_final/0107_fw.mp4	0.0	201.03062319755554	2.5006308555603027
38	184.5259885787964	pulse	1	t		36.0	2.5	/experiments/Knapen_AOT/AOT_stimuli/rescaled_final/0107_fw.mp4	0.0	202.6127917766571	
38	185.44445085525513	fix_post	2		12	36.0	2.5	/experiments/Knapen_AOT/AOT_stimuli/rescaled_final/0107_fw.mp4	0.0	203.53125405311584	0.09977459907531738
39	185.54422545433044	fix_pre	0		120	37.0	2.5	/experiments/Knapen_AOT/AOT_stimuli/rescaled_final/1956_fw.mp4	0.0	203.63102865219116	1.0084421634674072
39	186.12793827056885	pulse	0	t		37.0	2.5	/experiments/Knapen_AOT/AOT_stimuli/rescaled_final/1956_fw.mp4	0.0	204.21474146842957	
39	186.55266761779785	movie	1		286	37.0	2.5	/experiments/Knapen_AOT/AOT_stimuli/rescaled_final/1956_fw.mp4	0.0	204.63947081565857	2.492009162902832
39	187.7260982990265	pulse	1	t		37.0	2.5	/experiments/Knapen_AOT/AOT_stimuli/rescaled_final/1956_fw.mp4	0.0	205.8129014968872	
39	189.04467678070068	fix_post	2		12	37.0	2.5	/experiments/Knapen_AOT/AOT_stimuli/rescaled_final/1956_fw.mp4	0.0	207.1314799785614	0.10004138946533203
40	189.14471817016602	fix_pre	0		120	38.0	2.5	/experiments/Knapen_AOT/AOT_stimuli/rescaled_final/0790_rv.mp4	0.0	207.23152136802673	1.0085053443908691
40	189.32825088500977	pulse	0	t		38.0	2.5	/experiments/Knapen_AOT/AOT_stimuli/rescaled_final/0790_rv.mp4	0.0	207.41505408287048	
40	190.15322351455688	movie	1		289	38.0	2.5	/experiments/Knapen_AOT/AOT_stimuli/rescaled_final/0790_rv.mp4	0.0	208.2400267124176	2.491994619369507
40	190.92646431922913	pulse	1	t		38.0	2.5	/experiments/Knapen_AOT/AOT_stimuli/rescaled_final/0790_rv.mp4	0.0	209.01326751708984	
40	192.52678513526917	pulse	1	t		38.0	2.5	/experiments/Knapen_AOT/AOT_stimuli/rescaled_final/0790_rv.mp4	0.0	210.61358833312988	
40	192.6452181339264	fix_post	2		12	38.0	2.5	/experiments/Knapen_AOT/AOT_stimuli/rescaled_final/0790_rv.mp4	0.0	210.7320213317871	0.10002779960632324
41	192.74524593353271	fix_pre	0		120	39.0	2.5	/experiments/Knapen_AOT/AOT_stimuli/rescaled_final/0802_rv.mp4	0.0	210.83204913139343	1.0085153579711914
41	193.7537612915039	movie	1		284	39.0	2.5	/experiments/Knapen_AOT/AOT_stimuli/rescaled_final/0802_rv.mp4	0.0	211.84056448936462	2.4920120239257812
41	194.12778091430664	pulse	1	t		39.0	2.5	/experiments/Knapen_AOT/AOT_stimuli/rescaled_final/0802_rv.mp4	0.0	212.21458411216736	
41	195.72708797454834	pulse	1	t		39.0	2.5	/experiments/Knapen_AOT/AOT_stimuli/rescaled_final/0802_rv.mp4	0.0	213.81389117240906	
41	196.2457733154297	fix_post	2		12	39.0	2.5	/experiments/Knapen_AOT/AOT_stimuli/rescaled_final/0802_rv.mp4	0.0	214.3325765132904	0.1000361442565918
42	196.34580945968628	fix_pre	0		119	40.0	2.5	/experiments/Knapen_AOT/AOT_stimuli/rescaled_final/0407_fw.mp4	0.0	214.432612657547	1.0001230239868164
42	197.32947707176208	pulse	0	t		40.0	2.5	/experiments/Knapen_AOT/AOT_stimuli/rescaled_final/0407_fw.mp4	0.0	215.4162802696228	
42	197.3459324836731	movie	1		285	40.0	2.5	/experiments/Knapen_AOT/AOT_stimuli/rescaled_final/0407_fw.mp4	0.0	215.4327356815338	2.500368118286133
42	198.92800116539001	pulse	1	t		40.0	2.5	/experiments/Knapen_AOT/AOT_stimuli/rescaled_final/0407_fw.mp4	0.0	217.01480436325073	
42	199.84630060195923	fix_post	2		12	40.0	2.5	/experiments/Knapen_AOT/AOT_stimuli/rescaled_final/0407_fw.mp4	0.0	217.93310379981995	0.10008692741394043
43	199.94638752937317	fix_pre	0		120	41.0	2.5	/experiments/Knapen_AOT/AOT_stimuli/rescaled_final/2114_fw.mp4	0.0	218.0331907272339	1.0084056854248047
43	200.5299253463745	pulse	0	t		41.0	2.5	/experiments/Knapen_AOT/AOT_stimuli/rescaled_final/2114_fw.mp4	0.0	218.61672854423523	
43	200.95479321479797	movie	1		287	41.0	2.5	/experiments/Knapen_AOT/AOT_stimuli/rescaled_final/2114_fw.mp4	0.0	219.0415964126587	2.4920828342437744
43	202.12809562683105	pulse	1	t		41.0	2.5	/experiments/Knapen_AOT/AOT_stimuli/rescaled_final/2114_fw.mp4	0.0	220.21489882469177	
43	203.44687604904175	fix_post	2		12	41.0	2.5	/experiments/Knapen_AOT/AOT_stimuli/rescaled_final/2114_fw.mp4	0.0	221.53367924690247	0.10007047653198242
44	203.54694652557373	fix_pre	0		120	42.0	2.5	blank	1.0	221.63374972343445	1.0000569820404053
44	203.73045539855957	pulse	0	t		42.0	2.5	blank	1.0	221.8172585964203	
44	204.54700350761414	movie	1		300	42.0	2.5	blank	1.0	222.63380670547485	2.5003674030303955
44	205.3310079574585	pulse	1	t		42.0	2.5	blank	1.0	223.4178111553192	
44	206.93103289604187	pulse	1	t		42.0	2.5	blank	1.0	225.0178360939026	
44	207.04737091064453	fix_post	2		12	42.0	2.5	blank	1.0	225.13417410850525	0.10003304481506348
45	207.1474039554596	fix_pre	0		120	43.0	2.5	/experiments/Knapen_AOT/AOT_stimuli/rescaled_final/0500_rv.mp4	0.0	225.2342071533203	1.0084822177886963
45	208.1558861732483	movie	1		286	43.0	2.5	/experiments/Knapen_AOT/AOT_stimuli/rescaled_final/0500_rv.mp4	0.0	226.242689371109	2.49202823638916
45	208.52982997894287	pulse	1	t		43.0	2.5	/experiments/Knapen_AOT/AOT_stimuli/rescaled_final/0500_rv.mp4	0.0	226.6166331768036	
45	210.1294069290161	pulse	1	t		43.0	2.5	/experiments/Knapen_AOT/AOT_stimuli/rescaled_final/0500_rv.mp4	0.0	228.21621012687683	
45	210.64791440963745	fix_post	2		12	43.0	2.5	/experiments/Knapen_AOT/AOT_stimuli/rescaled_final/0500_rv.mp4	0.0	228.73471760749817	0.1000216007232666
46	210.74793601036072	fix_pre	0		119	44.0	2.5	/experiments/Knapen_AOT/AOT_stimuli/rescaled_final/1445_rv.mp4	0.0	228.83473920822144	1.0001304149627686
46	211.73167324066162	pulse	0	t		44.0	2.5	/experiments/Knapen_AOT/AOT_stimuli/rescaled_final/1445_rv.mp4	0.0	229.81847643852234	
46	211.7480664253235	movie	1		290	44.0	2.5	/experiments/Knapen_AOT/AOT_stimuli/rescaled_final/1445_rv.mp4	0.0	229.8348696231842	2.5004310607910156
46	213.33047246932983	pulse	1	t		44.0	2.5	/experiments/Knapen_AOT/AOT_stimuli/rescaled_final/1445_rv.mp4	0.0	231.41727566719055	
46	214.2484974861145	fix_post	2		12	44.0	2.5	/experiments/Knapen_AOT/AOT_stimuli/rescaled_final/1445_rv.mp4	0.0	232.33530068397522	0.09997725486755371
47	214.34847474098206	fix_pre	0		113	45.0	2.5	/experiments/Knapen_AOT/AOT_stimuli/rescaled_final/1213_rv.mp4	0.0	232.43527793884277	1.0836219787597656
47	214.9239203929901	pulse	0	t		45.0	2.5	/experiments/Knapen_AOT/AOT_stimuli/rescaled_final/1213_rv.mp4	0.0	233.01072359085083	
47	215.43209671974182	movie	1		282	45.0	2.5	/experiments/Knapen_AOT/AOT_stimuli/rescaled_final/1213_rv.mp4	0.0	233.51889991760254	2.4170174598693848
47	216.52407121658325	pulse	1	t		45.0	2.5	/experiments/Knapen_AOT/AOT_stimuli/rescaled_final/1213_rv.mp4	0.0	234.61087441444397	
47	217.8491141796112	fix_post	2		12	45.0	2.5	/experiments/Knapen_AOT/AOT_stimuli/rescaled_final/1213_rv.mp4	0.0	235.93591737747192	0.09990453720092773
48	217.94901871681213	fix_pre	0		120	46.0	2.5	/experiments/Knapen_AOT/AOT_stimuli/rescaled_final/0798_fw.mp4	0.0	236.03582191467285	1.008549451828003
48	218.12438678741455	pulse	0	t		46.0	2.5	/experiments/Knapen_AOT/AOT_stimuli/rescaled_final/0798_fw.mp4	0.0	236.21118998527527	
48	218.95756816864014	movie	1		286	46.0	2.5	/experiments/Knapen_AOT/AOT_stimuli/rescaled_final/0798_fw.mp4	0.0	237.04437136650085	2.491960287094116
48	219.7244975566864	pulse	1	t		46.0	2.5	/experiments/Knapen_AOT/AOT_stimuli/rescaled_final/0798_fw.mp4	0.0	237.81130075454712	
48	221.32487154006958	pulse	1	t		46.0	2.5	/experiments/Knapen_AOT/AOT_stimuli/rescaled_final/0798_fw.mp4	0.0	239.4116747379303	
48	221.44952845573425	fix_post	2		12	46.0	2.5	/experiments/Knapen_AOT/AOT_stimuli/rescaled_final/0798_fw.mp4	0.0	239.53633165359497	0.1000208854675293
49	221.54954934120178	fix_pre	0		120	47.0	2.5	/experiments/Knapen_AOT/AOT_stimuli/rescaled_final/0645_fw.mp4	0.0	239.6363525390625	1.0084655284881592
49	222.55801486968994	movie	1		288	47.0	2.5	/experiments/Knapen_AOT/AOT_stimuli/rescaled_final/0645_fw.mp4	0.0	240.64481806755066	2.492062568664551
49	222.92420840263367	pulse	1	t		47.0	2.5	/experiments/Knapen_AOT/AOT_stimuli/rescaled_final/0645_fw.mp4	0.0	241.01101160049438	
49	224.5252079963684	pulse	1	t		47.0	2.5	/experiments/Knapen_AOT/AOT_stimuli/rescaled_final/0645_fw.mp4	0.0	242.61201119422913	
49	225.0500774383545	fix_post	2		12	47.0	2.5	/experiments/Knapen_AOT/AOT_stimuli/rescaled_final/0645_fw.mp4	0.0	243.1368806362152	0.10001850128173828
50	225.15009593963623	fix_pre	0		118	48.0	2.5	/experiments/Knapen_AOT/AOT_stimuli/rescaled_final/2051_fw.mp4	0.0	243.23689913749695	0.9918491840362549
50	226.12552666664124	pulse	0	t		48.0	2.5	/experiments/Knapen_AOT/AOT_stimuli/rescaled_final/2051_fw.mp4	0.0	244.21232986450195	
50	226.14194512367249	movie	1		285	48.0	2.5	/experiments/Knapen_AOT/AOT_stimuli/rescaled_final/2051_fw.mp4	0.0	244.2287483215332	2.5003252029418945
50	227.72466588020325	pulse	1	t		48.0	2.5	/experiments/Knapen_AOT/AOT_stimuli/rescaled_final/2051_fw.mp4	0.0	245.81146907806396	
50	228.64227032661438	fix_post	2		12	48.0	2.5	/experiments/Knapen_AOT/AOT_stimuli/rescaled_final/2051_fw.mp4	0.0	246.7290735244751	0.10001635551452637
51	228.7422866821289	fix_pre	0		120	49.0	2.5	blank	1.0	246.82908987998962	1.0001435279846191
51	229.32606101036072	pulse	0	t		49.0	2.5	blank	1.0	247.41286420822144	
51	229.74243021011353	movie	1		300	49.0	2.5	blank	1.0	247.82923340797424	2.5004043579101562
51	230.92615842819214	pulse	1	t		49.0	2.5	blank	1.0	249.01296162605286	
51	232.24283456802368	fix_post	2		12	49.0	2.5	blank	1.0	250.3296377658844	0.10000991821289062
52	232.34284448623657	fix_pre	0		120	50.0	2.5	/experiments/Knapen_AOT/AOT_stimuli/rescaled_final/2122_rv.mp4	0.0	250.4296476840973	1.0084707736968994
52	232.52643060684204	pulse	0	t		50.0	2.5	/experiments/Knapen_AOT/AOT_stimuli/rescaled_final/2122_rv.mp4	0.0	250.61323380470276	
52	233.35131525993347	movie	1		293	50.0	2.5	/experiments/Knapen_AOT/AOT_stimuli/rescaled_final/2122_rv.mp4	0.0	251.4381184577942	2.4920194149017334
52	234.1243793964386	pulse	1	t		50.0	2.5	/experiments/Knapen_AOT/AOT_stimuli/rescaled_final/2122_rv.mp4	0.0	252.21118259429932	
52	235.72497653961182	pulse	1	t		50.0	2.5	/experiments/Knapen_AOT/AOT_stimuli/rescaled_final/2122_rv.mp4	0.0	253.81177973747253	
52	235.8433346748352	fix_post	2		12	50.0	2.5	/experiments/Knapen_AOT/AOT_stimuli/rescaled_final/2122_rv.mp4	0.0	253.93013787269592	0.10004377365112305
53	235.94337844848633	fix_pre	0		120	51.0	2.5	/experiments/Knapen_AOT/AOT_stimuli/rescaled_final/0398_fw.mp4	0.0	254.03018164634705	1.0085911750793457
53	236.95196962356567	movie	1		290	51.0	2.5	/experiments/Knapen_AOT/AOT_stimuli/rescaled_final/0398_fw.mp4	0.0	255.0387728214264	2.4918980598449707
53	237.32531929016113	pulse	1	t		51.0	2.5	/experiments/Knapen_AOT/AOT_stimuli/rescaled_final/0398_fw.mp4	0.0	255.41212248802185	
53	238.92538619041443	pulse	1	t		51.0	2.5	/experiments/Knapen_AOT/AOT_stimuli/rescaled_final/0398_fw.mp4	0.0	257.01218938827515	
53	239.44386768341064	fix_post	2		12	51.0	2.5	/experiments/Knapen_AOT/AOT_stimuli/rescaled_final/0398_fw.mp4	0.0	257.53067088127136	0.10003829002380371
54	239.54390597343445	fix_pre	0		119	52.0	2.5	/experiments/Knapen_AOT/AOT_stimuli/rescaled_final/1108_rv.mp4	0.0	257.63070917129517	1.0001366138458252
54	240.52764415740967	pulse	0	t		52.0	2.5	/experiments/Knapen_AOT/AOT_stimuli/rescaled_final/1108_rv.mp4	0.0	258.6144473552704	
54	240.54404258728027	movie	1		283	52.0	2.5	/experiments/Knapen_AOT/AOT_stimuli/rescaled_final/1108_rv.mp4	0.0	258.630845785141	2.50054669380188
54	242.12633657455444	pulse	1	t		52.0	2.5	/experiments/Knapen_AOT/AOT_stimuli/rescaled_final/1108_rv.mp4	0.0	260.21313977241516	
54	243.04458928108215	fix_post	2		12	52.0	2.5	/experiments/Knapen_AOT/AOT_stimuli/rescaled_final/1108_rv.mp4	0.0	261.13139247894287	0.0998532772064209
55	243.14444255828857	fix_pre	0		120	53.0	2.5	/experiments/Knapen_AOT/AOT_stimuli/rescaled_final/0121_rv.mp4	0.0	261.2312457561493	1.0084445476531982
55	243.7280433177948	pulse	0	t		53.0	2.5	/experiments/Knapen_AOT/AOT_stimuli/rescaled_final/0121_rv.mp4	0.0	261.8148465156555	
55	244.15288710594177	movie	1		287	53.0	2.5	/experiments/Knapen_AOT/AOT_stimuli/rescaled_final/0121_rv.mp4	0.0	262.2396903038025	2.492095708847046
55	245.326740026474	pulse	1	t		53.0	2.5	/experiments/Knapen_AOT/AOT_stimuli/rescaled_final/0121_rv.mp4	0.0	263.4135432243347	
55	246.64498281478882	fix_post	2		12	53.0	2.5	/experiments/Knapen_AOT/AOT_stimuli/rescaled_final/0121_rv.mp4	0.0	264.73178601264954	0.09997963905334473
56	246.74496245384216	fix_pre	0		120	54.0	2.5	/experiments/Knapen_AOT/AOT_stimuli/rescaled_final/0280_fw.mp4	0.0	264.8317656517029	1.0085537433624268
56	246.9286243915558	pulse	0	t		54.0	2.5	/experiments/Knapen_AOT/AOT_stimuli/rescaled_final/0280_fw.mp4	0.0	265.0154275894165	
56	247.7535161972046	movie	1		282	54.0	2.5	/experiments/Knapen_AOT/AOT_stimuli/rescaled_final/0280_fw.mp4	0.0	265.8403193950653	2.492032289505005
56	248.52647709846497	pulse	1	t		54.0	2.5	/experiments/Knapen_AOT/AOT_stimuli/rescaled_final/0280_fw.mp4	0.0	266.6132802963257	
56	250.12705993652344	pulse	1	t		54.0	2.5	/experiments/Knapen_AOT/AOT_stimuli/rescaled_final/0280_fw.mp4	0.0	268.21386313438416	
56	250.2455484867096	fix_post	2		12	54.0	2.5	/experiments/Knapen_AOT/AOT_stimuli/rescaled_final/0280_fw.mp4	0.0	268.3323516845703	0.10010170936584473
57	250.34565019607544	fix_pre	0		120	55.0	2.5	/experiments/Knapen_AOT/AOT_stimuli/rescaled_final/0503_rv.mp4	0.0	268.43245339393616	1.0083129405975342
57	251.35396313667297	movie	1		271	55.0	2.5	/experiments/Knapen_AOT/AOT_stimuli/rescaled_final/0503_rv.mp4	0.0	269.4407663345337	2.4920761585235596
57	251.72781896591187	pulse	1	t		55.0	2.5	/experiments/Knapen_AOT/AOT_stimuli/rescaled_final/0503_rv.mp4	0.0	269.8146221637726	
57	253.3275465965271	pulse	1	t		55.0	2.5	/experiments/Knapen_AOT/AOT_stimuli/rescaled_final/0503_rv.mp4	0.0	271.4143497943878	
57	253.84603929519653	fix_post	2		12	55.0	2.5	/experiments/Knapen_AOT/AOT_stimuli/rescaled_final/0503_rv.mp4	0.0	271.93284249305725	0.10000443458557129
58	253.9460437297821	fix_pre	0		119	56.0	2.5	blank	1.0	272.0328469276428	0.9918029308319092
58	254.9298574924469	pulse	0	t		56.0	2.5	blank	1.0	273.0166606903076	
58	254.937846660614	movie	1		301	56.0	2.5	blank	1.0	273.02464985847473	2.5087149143218994
58	256.52999544143677	pulse	1	t		56.0	2.5	blank	1.0	274.6167986392975	
58	257.4465615749359	fix_post	2		12	56.0	2.5	blank	1.0	275.53336477279663	0.10007333755493164
59	257.54663491249084	fix_pre	0		120	57.0	2.5	/experiments/Knapen_AOT/AOT_stimuli/rescaled_final/1249_rv.mp4	0.0	275.63343811035156	1.0084893703460693
59	258.13022899627686	pulse	0	t		57.0	2.5	/experiments/Knapen_AOT/AOT_stimuli/rescaled_final/1249_rv.mp4	0.0	276.2170321941376	
59	258.5551242828369	movie	1		282	57.0	2.5	/experiments/Knapen_AOT/AOT_stimuli/rescaled_final/1249_rv.mp4	0.0	276.64192748069763	2.491992712020874
59	259.7287838459015	pulse	1	t		57.0	2.5	/experiments/Knapen_AOT/AOT_stimuli/rescaled_final/1249_rv.mp4	0.0	277.8155870437622	
59	261.0471169948578	fix_post	2		12	57.0	2.5	/experiments/Knapen_AOT/AOT_stimuli/rescaled_final/1249_rv.mp4	0.0	279.1339201927185	0.10005664825439453
60	261.1471736431122	fix_pre	0		120	58.0	2.5	/experiments/Knapen_AOT/AOT_stimuli/rescaled_final/0565_rv.mp4	0.0	279.2339768409729	1.0084352493286133
60	261.3307182788849	pulse	0	t		58.0	2.5	/experiments/Knapen_AOT/AOT_stimuli/rescaled_final/0565_rv.mp4	0.0	279.4175214767456	
60	262.1556088924408	movie	1		284	58.0	2.5	/experiments/Knapen_AOT/AOT_stimuli/rescaled_final/0565_rv.mp4	0.0	280.2424120903015	2.4920403957366943
60	262.92889857292175	pulse	1	t		58.0	2.5	/experiments/Knapen_AOT/AOT_stimuli/rescaled_final/0565_rv.mp4	0.0	281.01570177078247	
60	264.5292704105377	pulse	1	t		58.0	2.5	/experiments/Knapen_AOT/AOT_stimuli/rescaled_final/0565_rv.mp4	0.0	282.61607360839844	
60	264.6476492881775	fix_post	2		12	58.0	2.5	/experiments/Knapen_AOT/AOT_stimuli/rescaled_final/0565_rv.mp4	0.0	282.7344524860382	0.10001754760742188
61	264.7476668357849	fix_pre	0		120	59.0	2.5	/experiments/Knapen_AOT/AOT_stimuli/rescaled_final/0116_rv.mp4	0.0	282.83447003364563	1.0085055828094482
61	265.75617241859436	movie	1		284	59.0	2.5	/experiments/Knapen_AOT/AOT_stimuli/rescaled_final/0116_rv.mp4	0.0	283.8429756164551	2.492021322250366
61	266.1306564807892	pulse	1	t		59.0	2.5	/experiments/Knapen_AOT/AOT_stimuli/rescaled_final/0116_rv.mp4	0.0	284.2174596786499	
61	267.7295205593109	pulse	1	t		59.0	2.5	/experiments/Knapen_AOT/AOT_stimuli/rescaled_final/0116_rv.mp4	0.0	285.81632375717163	
61	268.2481937408447	fix_post	2		12	59.0	2.5	/experiments/Knapen_AOT/AOT_stimuli/rescaled_final/0116_rv.mp4	0.0	286.33499693870544	0.10000729560852051
62	268.34820103645325	fix_pre	0		119	60.0	2.5	/experiments/Knapen_AOT/AOT_stimuli/rescaled_final/1971_fw.mp4	0.0	286.43500423431396	1.000213384628296
62	269.33192801475525	pulse	0	t		60.0	2.5	/experiments/Knapen_AOT/AOT_stimuli/rescaled_final/1971_fw.mp4	0.0	287.41873121261597	
62	269.34841442108154	movie	1		293	60.0	2.5	/experiments/Knapen_AOT/AOT_stimuli/rescaled_final/1971_fw.mp4	0.0	287.43521761894226	2.5004818439483643
62	270.93163776397705	pulse	1	t		60.0	2.5	/experiments/Knapen_AOT/AOT_stimuli/rescaled_final/1971_fw.mp4	0.0	289.01844096183777	
62	271.8488962650299	fix_post	2		12	60.0	2.5	/experiments/Knapen_AOT/AOT_stimuli/rescaled_final/1971_fw.mp4	0.0	289.9356994628906	0.09984397888183594
63	271.94874024391174	fix_pre	0		120	61.0	2.5	/experiments/Knapen_AOT/AOT_stimuli/rescaled_final/1536_fw.mp4	0.0	290.03554344177246	1.0086324214935303
63	272.5247504711151	pulse	0	t		61.0	2.5	/experiments/Knapen_AOT/AOT_stimuli/rescaled_final/1536_fw.mp4	0.0	290.61155366897583	
63	272.9573726654053	movie	1		292	61.0	2.5	/experiments/Knapen_AOT/AOT_stimuli/rescaled_final/1536_fw.mp4	0.0	291.044175863266	2.4919333457946777
63	274.1243691444397	pulse	1	t		61.0	2.5	/experiments/Knapen_AOT/AOT_stimuli/rescaled_final/1536_fw.mp4	0.0	292.2111723423004	
63	275.44930601119995	fix_post	2		12	61.0	2.5	/experiments/Knapen_AOT/AOT_stimuli/rescaled_final/1536_fw.mp4	0.0	293.53610920906067	0.09998035430908203
64	275.54928636550903	fix_pre	0		120	62.0	2.5	/experiments/Knapen_AOT/AOT_stimuli/rescaled_final/1923_rv.mp4	0.0	293.63608956336975	1.008568286895752
64	275.72446608543396	pulse	0	t		62.0	2.5	/experiments/Knapen_AOT/AOT_stimuli/rescaled_final/1923_rv.mp4	0.0	293.8112692832947	
64	276.5578546524048	movie	1		287	62.0	2.5	/experiments/Knapen_AOT/AOT_stimuli/rescaled_final/1923_rv.mp4	0.0	294.6446578502655	2.491950750350952
64	277.32474660873413	pulse	1	t		62.0	2.5	/experiments/Knapen_AOT/AOT_stimuli/rescaled_final/1923_rv.mp4	0.0	295.41154980659485	
64	278.9249212741852	pulse	1	t		62.0	2.5	/experiments/Knapen_AOT/AOT_stimuli/rescaled_final/1923_rv.mp4	0.0	297.0117244720459	
64	279.04980540275574	fix_post	2		12	62.0	2.5	/experiments/Knapen_AOT/AOT_stimuli/rescaled_final/1923_rv.mp4	0.0	297.13660860061646	0.10003161430358887
65	279.1498370170593	fix_pre	0		120	63.0	2.5	blank	1.0	297.23664021492004	1.0001246929168701
65	280.1499617099762	movie	1		300	63.0	2.5	blank	1.0	298.2367649078369	2.5003933906555176
65	280.52519488334656	pulse	1	t		63.0	2.5	blank	1.0	298.6119980812073	
65	282.12546467781067	pulse	1	t		63.0	2.5	blank	1.0	300.2122678756714	
65	282.6503551006317	fix_post	2		12	63.0	2.5	blank	1.0	300.73715829849243	0.10006427764892578
66	282.75041937828064	fix_pre	0		118	64.0	2.5	/experiments/Knapen_AOT/AOT_stimuli/rescaled_final/2022_fw.mp4	0.0	300.83722257614136	0.9918820858001709
66	283.7257206439972	pulse	0	t		64.0	2.5	/experiments/Knapen_AOT/AOT_stimuli/rescaled_final/2022_fw.mp4	0.0	301.8125238418579	
66	283.7423014640808	movie	1		293	64.0	2.5	/experiments/Knapen_AOT/AOT_stimuli/rescaled_final/2022_fw.mp4	0.0	301.8291046619415	2.5002553462982178
66	285.32436299324036	pulse	1	t		64.0	2.5	/experiments/Knapen_AOT/AOT_stimuli/rescaled_final/2022_fw.mp4	0.0	303.4111661911011	
66	286.242556810379	fix_post	2		12	64.0	2.5	/experiments/Knapen_AOT/AOT_stimuli/rescaled_final/2022_fw.mp4	0.0	304.32936000823975	0.10001897811889648
67	286.3425757884979	fix_pre	0		120	65.0	2.5	/experiments/Knapen_AOT/AOT_stimuli/rescaled_final/1445_rv.mp4	0.0	304.42937898635864	1.0085268020629883
67	286.92621088027954	pulse	0	t		65.0	2.5	/experiments/Knapen_AOT/AOT_stimuli/rescaled_final/1445_rv.mp4	0.0	305.01301407814026	
67	287.3511025905609	movie	1		294	65.0	2.5	/experiments/Knapen_AOT/AOT_stimuli/rescaled_final/1445_rv.mp4	0.0	305.43790578842163	2.492110013961792
67	288.5249252319336	pulse	1	t		65.0	2.5	/experiments/Knapen_AOT/AOT_stimuli/rescaled_final/1445_rv.mp4	0.0	306.6117284297943	
67	289.8432126045227	fix_post	2		12	65.0	2.5	/experiments/Knapen_AOT/AOT_stimuli/rescaled_final/1445_rv.mp4	0.0	307.9300158023834	0.09995222091674805
68	289.94316482543945	fix_pre	0		120	66.0	2.5	/experiments/Knapen_AOT/AOT_stimuli/rescaled_final/1298_rv.mp4	0.0	308.02996802330017	1.0084855556488037
68	290.1266975402832	pulse	0	t		66.0	2.5	/experiments/Knapen_AOT/AOT_stimuli/rescaled_final/1298_rv.mp4	0.0	308.2135007381439	
68	290.95165038108826	movie	1		286	66.0	2.5	/experiments/Knapen_AOT/AOT_stimuli/rescaled_final/1298_rv.mp4	0.0	309.038453578949	2.4919888973236084
68	291.72704124450684	pulse	1	t		66.0	2.5	/experiments/Knapen_AOT/AOT_stimuli/rescaled_final/1298_rv.mp4	0.0	309.81384444236755	
68	293.3253855705261	pulse	1	t		66.0	2.5	/experiments/Knapen_AOT/AOT_stimuli/rescaled_final/1298_rv.mp4	0.0	311.41218876838684	
68	293.44363927841187	fix_post	2		12	66.0	2.5	/experiments/Knapen_AOT/AOT_stimuli/rescaled_final/1298_rv.mp4	0.0	311.5304424762726	0.10001826286315918
69	293.543657541275	fix_pre	0		120	67.0	2.5	/experiments/Knapen_AOT/AOT_stimuli/rescaled_final/1217_fw.mp4	0.0	311.63046073913574	1.008512020111084
69	294.5521695613861	movie	1		281	67.0	2.5	/experiments/Knapen_AOT/AOT_stimuli/rescaled_final/1217_fw.mp4	0.0	312.6389727592468	2.4921035766601562
69	294.9263389110565	pulse	1	t		67.0	2.5	/experiments/Knapen_AOT/AOT_stimuli/rescaled_final/1217_fw.mp4	0.0	313.01314210891724	
69	296.525678396225	pulse	1	t		67.0	2.5	/experiments/Knapen_AOT/AOT_stimuli/rescaled_final/1217_fw.mp4	0.0	314.6124815940857	
69	297.04427313804626	fix_post	2		12	67.0	2.5	/experiments/Knapen_AOT/AOT_stimuli/rescaled_final/1217_fw.mp4	0.0	315.131076335907	0.09995341300964355
70	297.1442265510559	fix_pre	0		119	68.0	2.5	/experiments/Knapen_AOT/AOT_stimuli/rescaled_final/2022_rv.mp4	0.0	315.2310297489166	1.000070571899414
70	298.1279442310333	pulse	0	t		68.0	2.5	/experiments/Knapen_AOT/AOT_stimuli/rescaled_final/2022_rv.mp4	0.0	316.21474742889404	
70	298.1442971229553	movie	1		287	68.0	2.5	/experiments/Knapen_AOT/AOT_stimuli/rescaled_final/2022_rv.mp4	0.0	316.23110032081604	2.500493049621582
70	299.7266936302185	pulse	1	t		68.0	2.5	/experiments/Knapen_AOT/AOT_stimuli/rescaled_final/2022_rv.mp4	0.0	317.8134968280792	
70	300.6447901725769	fix_post	2		12	68.0	2.5	/experiments/Knapen_AOT/AOT_stimuli/rescaled_final/2022_rv.mp4	0.0	318.7315933704376	0.09993767738342285
71	300.7447278499603	fix_pre	0		120	69.0	2.5	/experiments/Knapen_AOT/AOT_stimuli/rescaled_final/2034_rv.mp4	0.0	318.83153104782104	1.0084941387176514
71	301.32863759994507	pulse	0	t		69.0	2.5	/experiments/Knapen_AOT/AOT_stimuli/rescaled_final/2034_rv.mp4	0.0	319.4154407978058	
71	301.753221988678	movie	1		287	69.0	2.5	/experiments/Knapen_AOT/AOT_stimuli/rescaled_final/2034_rv.mp4	0.0	319.8400251865387	2.4920616149902344
71	302.92723393440247	pulse	1	t		69.0	2.5	/experiments/Knapen_AOT/AOT_stimuli/rescaled_final/2034_rv.mp4	0.0	321.0140371322632	
71	304.2452836036682	fix_post	2		12	69.0	2.5	/experiments/Knapen_AOT/AOT_stimuli/rescaled_final/2034_rv.mp4	0.0	322.33208680152893	0.09997892379760742
72	304.3452625274658	fix_pre	0		120	70.0	2.5	blank	1.0	322.43206572532654	1.0001487731933594
72	304.5292091369629	pulse	0	t		70.0	2.5	blank	1.0	322.6160123348236	
72	305.3454113006592	movie	1		300	70.0	2.5	blank	1.0	323.4322144985199	2.500382661819458
72	306.129141330719	pulse	1	t		70.0	2.5	blank	1.0	324.2159445285797	
72	307.7293441295624	pulse	1	t		70.0	2.5	blank	1.0	325.8161473274231	
72	307.84579396247864	fix_post	2		12	70.0	2.5	blank	1.0	325.93259716033936	0.10001993179321289
73	307.94581389427185	fix_pre	0		120	71.0	2.5	/experiments/Knapen_AOT/AOT_stimuli/rescaled_final/1542_rv.mp4	0.0	326.03261709213257	1.0085015296936035
73	308.95431542396545	movie	1		286	71.0	2.5	/experiments/Knapen_AOT/AOT_stimuli/rescaled_final/1542_rv.mp4	0.0	327.0411186218262	2.4920499324798584
73	309.328049659729	pulse	1	t		71.0	2.5	/experiments/Knapen_AOT/AOT_stimuli/rescaled_final/1542_rv.mp4	0.0	327.4148528575897	
73	310.92788434028625	pulse	1	t		71.0	2.5	/experiments/Knapen_AOT/AOT_stimuli/rescaled_final/1542_rv.mp4	0.0	329.014687538147	
73	311.4463653564453	fix_post	2		12	71.0	2.5	/experiments/Knapen_AOT/AOT_stimuli/rescaled_final/1542_rv.mp4	0.0	329.53316855430603	0.09996700286865234
74	311.54633235931396	fix_pre	0		119	72.0	2.5	/experiments/Knapen_AOT/AOT_stimuli/rescaled_final/1554_rv.mp4	0.0	329.6331355571747	1.0085556507110596
74	312.53010177612305	pulse	0	t		72.0	2.5	/experiments/Knapen_AOT/AOT_stimuli/rescaled_final/1554_rv.mp4	0.0	330.61690497398376	
74	312.554888010025	movie	1		289	72.0	2.5	/experiments/Knapen_AOT/AOT_stimuli/rescaled_final/1554_rv.mp4	0.0	330.64169120788574	2.4919862747192383
74	314.12926483154297	pulse	1	t		72.0	2.5	/experiments/Knapen_AOT/AOT_stimuli/rescaled_final/1554_rv.mp4	0.0	332.2160680294037	
74	315.04687428474426	fix_post	2		12	72.0	2.5	/experiments/Knapen_AOT/AOT_stimuli/rescaled_final/1554_rv.mp4	0.0	333.133677482605	0.10003972053527832
75	315.14691400527954	fix_pre	0		120	73.0	2.5	/experiments/Knapen_AOT/AOT_stimuli/rescaled_final/0214_rv.mp4	0.0	333.23371720314026	1.0084950923919678
75	315.73066759109497	pulse	0	t		73.0	2.5	/experiments/Knapen_AOT/AOT_stimuli/rescaled_final/0214_rv.mp4	0.0	333.8174707889557	
75	316.1554090976715	movie	1		278	73.0	2.5	/experiments/Knapen_AOT/AOT_stimuli/rescaled_final/0214_rv.mp4	0.0	334.2422122955322	2.492016315460205
75	317.32913041114807	pulse	1	t		73.0	2.5	/experiments/Knapen_AOT/AOT_stimuli/rescaled_final/0214_rv.mp4	0.0	335.4159336090088	
75	318.6474254131317	fix_post	2		12	73.0	2.5	/experiments/Knapen_AOT/AOT_stimuli/rescaled_final/0214_rv.mp4	0.0	336.73422861099243	0.10003304481506348
76	318.7474584579468	fix_pre	0		120	74.0	2.5	/experiments/Knapen_AOT/AOT_stimuli/rescaled_final/1441_fw.mp4	0.0	336.8342616558075	1.0084915161132812
76	318.9238393306732	pulse	0	t		74.0	2.5	/experiments/Knapen_AOT/AOT_stimuli/rescaled_final/1441_fw.mp4	0.0	337.01064252853394	
76	319.75594997406006	movie	1		275	74.0	2.5	/experiments/Knapen_AOT/AOT_stimuli/rescaled_final/1441_fw.mp4	0.0	337.8427531719208	2.4920501708984375
76	320.5291163921356	pulse	1	t		74.0	2.5	/experiments/Knapen_AOT/AOT_stimuli/rescaled_final/1441_fw.mp4	0.0	338.61591958999634	
76	322.12977623939514	pulse	1	t		74.0	2.5	/experiments/Knapen_AOT/AOT_stimuli/rescaled_final/1441_fw.mp4	0.0	340.21657943725586	
76	322.2480001449585	fix_post	2		12	74.0	2.5	/experiments/Knapen_AOT/AOT_stimuli/rescaled_final/1441_fw.mp4	0.0	340.3348033428192	0.0999906063079834
77	322.3479907512665	fix_pre	0		120	75.0	2.5	/experiments/Knapen_AOT/AOT_stimuli/rescaled_final/1456_fw.mp4	0.0	340.4347939491272	1.008495569229126
77	323.3564863204956	movie	1		289	75.0	2.5	/experiments/Knapen_AOT/AOT_stimuli/rescaled_final/1456_fw.mp4	0.0	341.4432895183563	2.492039203643799
77	323.72395730018616	pulse	1	t		75.0	2.5	/experiments/Knapen_AOT/AOT_stimuli/rescaled_final/1456_fw.mp4	0.0	341.8107604980469	
77	325.3237626552582	pulse	1	t		75.0	2.5	/experiments/Knapen_AOT/AOT_stimuli/rescaled_final/1456_fw.mp4	0.0	343.4105658531189	
77	325.8485255241394	fix_post	2		12	75.0	2.5	/experiments/Knapen_AOT/AOT_stimuli/rescaled_final/1456_fw.mp4	0.0	343.9353287220001	0.10007381439208984
78	325.9485993385315	fix_pre	0		118	76.0	2.5	/experiments/Knapen_AOT/AOT_stimuli/rescaled_final/2041_rv.mp4	0.0	344.0354025363922	0.9917213916778564
78	326.92394065856934	pulse	0	t		76.0	2.5	/experiments/Knapen_AOT/AOT_stimuli/rescaled_final/2041_rv.mp4	0.0	345.01074385643005	
78	326.94032073020935	movie	1		281	76.0	2.5	/experiments/Knapen_AOT/AOT_stimuli/rescaled_final/2041_rv.mp4	0.0	345.02712392807007	2.5003821849823
78	328.52415442466736	pulse	1	t		76.0	2.5	/experiments/Knapen_AOT/AOT_stimuli/rescaled_final/2041_rv.mp4	0.0	346.6109576225281	
78	329.44070291519165	fix_post	2		12	76.0	2.5	/experiments/Knapen_AOT/AOT_stimuli/rescaled_final/2041_rv.mp4	0.0	347.52750611305237	0.10001826286315918
79	329.5407211780548	fix_pre	0		120	77.0	2.5	blank	1.0	347.6275243759155	1.0001261234283447
79	330.124391078949	pulse	0	t		77.0	2.5	blank	1.0	348.2111942768097	
79	330.54084730148315	movie	1		300	77.0	2.5	blank	1.0	348.6276504993439	2.5004031658172607
79	331.72488045692444	pulse	1	t		77.0	2.5	blank	1.0	349.81168365478516	
79	333.0412504673004	fix_post	2		12	77.0	2.5	blank	1.0	351.12805366516113	0.1000065803527832
80	333.1412570476532	fix_pre	0		120	78.0	2.5	/experiments/Knapen_AOT/AOT_stimuli/rescaled_final/1979_fw.mp4	0.0	351.2280602455139	1.008469820022583
80	333.32485032081604	pulse	0	t		78.0	2.5	/experiments/Knapen_AOT/AOT_stimuli/rescaled_final/1979_fw.mp4	0.0	351.41165351867676	
80	334.1497268676758	movie	1		286	78.0	2.5	/experiments/Knapen_AOT/AOT_stimuli/rescaled_final/1979_fw.mp4	0.0	352.2365300655365	2.492060422897339
80	334.9253845214844	pulse	1	t		78.0	2.5	/experiments/Knapen_AOT/AOT_stimuli/rescaled_final/1979_fw.mp4	0.0	353.0121877193451	
80	336.5253176689148	pulse	1	t		78.0	2.5	/experiments/Knapen_AOT/AOT_stimuli/rescaled_final/1979_fw.mp4	0.0	354.6121208667755	
80	336.6417872905731	fix_post	2		12	78.0	2.5	/experiments/Knapen_AOT/AOT_stimuli/rescaled_final/1979_fw.mp4	0.0	354.72859048843384	0.10001444816589355
81	336.741801738739	fix_pre	0		120	79.0	2.5	/experiments/Knapen_AOT/AOT_stimuli/rescaled_final/1485_rv.mp4	0.0	354.82860493659973	1.008488655090332
81	337.75029039382935	movie	1		279	79.0	2.5	/experiments/Knapen_AOT/AOT_stimuli/rescaled_final/1485_rv.mp4	0.0	355.83709359169006	2.492042303085327
81	338.1259489059448	pulse	1	t		79.0	2.5	/experiments/Knapen_AOT/AOT_stimuli/rescaled_final/1485_rv.mp4	0.0	356.21275210380554	
81	339.72591161727905	pulse	1	t		79.0	2.5	/experiments/Knapen_AOT/AOT_stimuli/rescaled_final/1485_rv.mp4	0.0	357.81271481513977	
81	340.2423326969147	fix_post	2		12	79.0	2.5	/experiments/Knapen_AOT/AOT_stimuli/rescaled_final/1485_rv.mp4	0.0	358.3291358947754	0.1000208854675293
82	340.3423535823822	fix_pre	0		119	80.0	2.5	/experiments/Knapen_AOT/AOT_stimuli/rescaled_final/0713_rv.mp4	0.0	358.4291567802429	1.0002355575561523
82	341.32602977752686	pulse	0	t		80.0	2.5	/experiments/Knapen_AOT/AOT_stimuli/rescaled_final/0713_rv.mp4	0.0	359.4128329753876	
82	341.34258913993835	movie	1		288	80.0	2.5	/experiments/Knapen_AOT/AOT_stimuli/rescaled_final/0713_rv.mp4	0.0	359.4293923377991	2.500279188156128
82	342.9248299598694	pulse	1	t		80.0	2.5	/experiments/Knapen_AOT/AOT_stimuli/rescaled_final/0713_rv.mp4	0.0	361.0116331577301	
82	343.8428683280945	fix_post	2		12	80.0	2.5	/experiments/Knapen_AOT/AOT_stimuli/rescaled_final/0713_rv.mp4	0.0	361.9296715259552	0.1000516414642334
83	343.9429199695587	fix_pre	0		120	81.0	2.5	/experiments/Knapen_AOT/AOT_stimuli/rescaled_final/0769_rv.mp4	0.0	362.02972316741943	1.00848388671875
83	344.52658462524414	pulse	0	t		81.0	2.5	/experiments/Knapen_AOT/AOT_stimuli/rescaled_final/0769_rv.mp4	0.0	362.61338782310486	
83	344.95140385627747	movie	1		274	81.0	2.5	/experiments/Knapen_AOT/AOT_stimuli/rescaled_final/0769_rv.mp4	0.0	363.0382070541382	2.492060899734497
83	346.1251780986786	pulse	1	t		81.0	2.5	/experiments/Knapen_AOT/AOT_stimuli/rescaled_final/0769_rv.mp4	0.0	364.2119812965393	
83	347.44346475601196	fix_post	2		12	81.0	2.5	/experiments/Knapen_AOT/AOT_stimuli/rescaled_final/0769_rv.mp4	0.0	365.5302679538727	0.0999596118927002
84	347.54342436790466	fix_pre	0		120	82.0	2.5	blank	1.0	365.6302275657654	1.0001959800720215
84	347.72699332237244	pulse	0	t		82.0	2.5	blank	1.0	365.81379652023315	
84	348.5436203479767	movie	1		300	82.0	2.5	blank	1.0	366.6304235458374	2.5003275871276855
84	349.32728338241577	pulse	1	t		82.0	2.5	blank	1.0	367.4140865802765	
84	350.9274809360504	pulse	1	t		82.0	2.5	blank	1.0	369.01428413391113	
84	351.04394793510437	fix_post	2		12	82.0	2.5	blank	1.0	369.1307511329651	0.10003209114074707
85	351.1439800262451	fix_pre	0		120	83.0	2.5	/experiments/Knapen_AOT/AOT_stimuli/rescaled_final/0245_fw.mp4	0.0	369.23078322410583	1.0085110664367676
85	352.1524910926819	movie	1		281	83.0	2.5	/experiments/Knapen_AOT/AOT_stimuli/rescaled_final/0245_fw.mp4	0.0	370.2392942905426	2.4920382499694824
85	352.52631163597107	pulse	1	t		83.0	2.5	/experiments/Knapen_AOT/AOT_stimuli/rescaled_final/0245_fw.mp4	0.0	370.6131148338318	
85	354.12585711479187	pulse	1	t		83.0	2.5	/experiments/Knapen_AOT/AOT_stimuli/rescaled_final/0245_fw.mp4	0.0	372.2126603126526	
85	354.64452934265137	fix_post	2		12	83.0	2.5	/experiments/Knapen_AOT/AOT_stimuli/rescaled_final/0245_fw.mp4	0.0	372.7313325405121	0.10000491142272949
87	354.7445342540741	stim	0		1715					372.8313374519348	14.293774843215942
87	355.7282350063324	pulse	0	t						373.8150382041931	
87	357.3284432888031	pulse	0	t						375.4152464866638	
87	358.9287712574005	pulse	0	t						377.01557445526123	
87	360.5290017127991	pulse	0	t						378.6158049106598	
87	362.1292657852173	pulse	0	t						380.216068983078	
87	363.72941851615906	pulse	0	t						381.8162217140198	
87	365.32967233657837	pulse	0	t						383.4164755344391	
87	366.93000745773315	pulse	0	t						385.0168106555939	
87	368.5301442146301	pulse	0	t						386.61694741249084	
