trial_nr	onset	event_type	phase	response	nr_frames	movie_index	movie_duration	movie_file	blank	onset_abs	duration
0	0.13303351402282715	stim	0		87					41.191352128982544	0.7333352565765381
0	0.8584184646606445	response	0	space						41.91673707962036	
1	0.8663687705993652	stim	0		4702					41.92468738555908	39.19251227378845
1	40.04785752296448	pulse	0	t						81.1061761379242	
1	40.05888104438782	stim	1		1714					81.11719965934753	14.298855066299438
1	41.64770555496216	pulse	1	t						82.70602416992188	
1	43.24791622161865	pulse	1	t						84.30623483657837	
1	44.84819793701172	pulse	1	t						85.90651655197144	
1	46.4484977722168	pulse	1	t						87.50681638717651	
1	48.04871439933777	pulse	1	t						89.10703301429749	
1	49.64888620376587	pulse	1	t						90.70720481872559	
1	51.2492094039917	pulse	1	t						92.30752801895142	
1	52.84934711456299	pulse	1	t						93.9076657295227	
2	54.357736110687256	fix_pre	0		12	0.0	2.5	/experiments/knapen_AOT/AOT_stimuli/rescaled_final/0905_rv.mp4	0.0	95.41605472564697	0.11673212051391602
2	54.44971942901611	pulse	0	t		0.0	2.5	/experiments/knapen_AOT/AOT_stimuli/rescaled_final/0905_rv.mp4	0.0	95.50803804397583	
2	54.47446823120117	movie	1		268	0.0	2.5	/experiments/knapen_AOT/AOT_stimuli/rescaled_final/0905_rv.mp4	0.0	95.53278684616089	2.492175579071045
2	56.0493745803833	pulse	1	t		0.0	2.5	/experiments/knapen_AOT/AOT_stimuli/rescaled_final/0905_rv.mp4	0.0	97.10769319534302	
2	56.96664381027222	fix_post	2		12	0.0	2.5	/experiments/knapen_AOT/AOT_stimuli/rescaled_final/0905_rv.mp4	0.0	98.02496242523193	0.0998373031616211
3	57.06648111343384	fix_pre	0		120	1.0	2.5	/experiments/knapen_AOT/AOT_stimuli/rescaled_final/0352_fw.mp4	0.0	98.12479972839355	1.0085058212280273
3	57.65027475357056	pulse	0	t		1.0	2.5	/experiments/knapen_AOT/AOT_stimuli/rescaled_final/0352_fw.mp4	0.0	98.70859336853027	
3	58.074986934661865	movie	1		274	1.0	2.5	/experiments/knapen_AOT/AOT_stimuli/rescaled_final/0352_fw.mp4	0.0	99.13330554962158	2.492032766342163
3	59.24896597862244	pulse	1	t		1.0	2.5	/experiments/knapen_AOT/AOT_stimuli/rescaled_final/0352_fw.mp4	0.0	100.30728459358215	
3	60.56701970100403	fix_post	2		12	1.0	2.5	/experiments/knapen_AOT/AOT_stimuli/rescaled_final/0352_fw.mp4	0.0	101.62533831596375	0.10001993179321289
4	60.66703963279724	fix_pre	0		120	2.0	2.5	/experiments/knapen_AOT/AOT_stimuli/rescaled_final/0352_rv.mp4	0.0	101.72535824775696	1.0085642337799072
4	60.85059571266174	pulse	0	t		2.0	2.5	/experiments/knapen_AOT/AOT_stimuli/rescaled_final/0352_rv.mp4	0.0	101.90891432762146	
4	61.67560386657715	movie	1		279	2.0	2.5	/experiments/knapen_AOT/AOT_stimuli/rescaled_final/0352_rv.mp4	0.0	102.73392248153687	2.491973638534546
4	62.44870662689209	pulse	1	t		2.0	2.5	/experiments/knapen_AOT/AOT_stimuli/rescaled_final/0352_rv.mp4	0.0	103.5070252418518	
4	64.0503761768341	pulse	1	t		2.0	2.5	/experiments/knapen_AOT/AOT_stimuli/rescaled_final/0352_rv.mp4	0.0	105.10869479179382	
4	64.1675775051117	fix_post	2		12	2.0	2.5	/experiments/knapen_AOT/AOT_stimuli/rescaled_final/0352_rv.mp4	0.0	105.22589612007141	0.09998178482055664
5	64.26755928993225	fix_pre	0		120	3.0	2.5	/experiments/knapen_AOT/AOT_stimuli/rescaled_final/1448_rv.mp4	0.0	105.32587790489197	1.0084998607635498
5	65.2760591506958	movie	1		274	3.0	2.5	/experiments/knapen_AOT/AOT_stimuli/rescaled_final/1448_rv.mp4	0.0	106.33437776565552	2.4920361042022705
5	65.64951395988464	pulse	1	t		3.0	2.5	/experiments/knapen_AOT/AOT_stimuli/rescaled_final/1448_rv.mp4	0.0	106.70783257484436	
5	67.25104904174805	pulse	1	t		3.0	2.5	/experiments/knapen_AOT/AOT_stimuli/rescaled_final/1448_rv.mp4	0.0	108.30936765670776	
5	67.76809525489807	fix_post	2		12	3.0	2.5	/experiments/knapen_AOT/AOT_stimuli/rescaled_final/1448_rv.mp4	0.0	108.82641386985779	0.10004520416259766
6	67.86814045906067	fix_pre	0		119	4.0	2.5	/experiments/knapen_AOT/AOT_stimuli/rescaled_final/0865_rv.mp4	0.0	108.92645907402039	1.0001170635223389
6	68.85183000564575	pulse	0	t		4.0	2.5	/experiments/knapen_AOT/AOT_stimuli/rescaled_final/0865_rv.mp4	0.0	109.91014862060547	
6	68.86825752258301	movie	1		282	4.0	2.5	/experiments/knapen_AOT/AOT_stimuli/rescaled_final/0865_rv.mp4	0.0	109.92657613754272	2.5004117488861084
6	70.45191216468811	pulse	1	t		4.0	2.5	/experiments/knapen_AOT/AOT_stimuli/rescaled_final/0865_rv.mp4	0.0	111.51023077964783	
6	71.36866927146912	fix_post	2		12	4.0	2.5	/experiments/knapen_AOT/AOT_stimuli/rescaled_final/0865_rv.mp4	0.0	112.42698788642883	0.09999322891235352
7	71.46866250038147	fix_pre	0		120	5.0	2.5	/experiments/knapen_AOT/AOT_stimuli/rescaled_final/1635_fw.mp4	0.0	112.52698111534119	1.0084950923919678
7	72.05226731300354	pulse	0	t		5.0	2.5	/experiments/knapen_AOT/AOT_stimuli/rescaled_final/1635_fw.mp4	0.0	113.11058592796326	
7	72.47715759277344	movie	1		280	5.0	2.5	/experiments/knapen_AOT/AOT_stimuli/rescaled_final/1635_fw.mp4	0.0	113.53547620773315	2.492006778717041
7	73.65189123153687	pulse	1	t		5.0	2.5	/experiments/knapen_AOT/AOT_stimuli/rescaled_final/1635_fw.mp4	0.0	114.71020984649658	
7	74.96916437149048	fix_post	2		12	5.0	2.5	/experiments/knapen_AOT/AOT_stimuli/rescaled_final/1635_fw.mp4	0.0	116.0274829864502	0.10001730918884277
8	75.06918168067932	fix_pre	0		120	6.0	2.5	blank	1.0	116.12750029563904	1.000150203704834
8	75.24480319023132	pulse	0	t		6.0	2.5	blank	1.0	116.30312180519104	
8	76.06933188438416	movie	1		300	6.0	2.5	blank	1.0	117.12765049934387	2.5004608631134033
8	76.84476900100708	pulse	1	t		6.0	2.5	blank	1.0	117.9030876159668	
8	78.44507265090942	pulse	1	t		6.0	2.5	blank	1.0	119.50339126586914	
8	78.56979274749756	fix_post	2		12	6.0	2.5	blank	1.0	119.62811136245728	0.10002684593200684
9	78.66981959342957	fix_pre	0		120	7.0	2.5	/experiments/knapen_AOT/AOT_stimuli/rescaled_final/1532_rv.mp4	0.0	119.72813820838928	1.0084326267242432
9	79.67825222015381	movie	1		282	7.0	2.5	/experiments/knapen_AOT/AOT_stimuli/rescaled_final/1532_rv.mp4	0.0	120.73657083511353	2.492013931274414
9	80.04537343978882	pulse	1	t		7.0	2.5	/experiments/knapen_AOT/AOT_stimuli/rescaled_final/1532_rv.mp4	0.0	121.10369205474854	
9	81.64545607566833	pulse	1	t		7.0	2.5	/experiments/knapen_AOT/AOT_stimuli/rescaled_final/1532_rv.mp4	0.0	122.70377469062805	
9	82.17026615142822	fix_post	2		12	7.0	2.5	/experiments/knapen_AOT/AOT_stimuli/rescaled_final/1532_rv.mp4	0.0	123.22858476638794	0.0999906063079834
10	82.2702567577362	fix_pre	0		118	8.0	2.5	/experiments/knapen_AOT/AOT_stimuli/rescaled_final/0949_fw.mp4	0.0	123.32857537269592	0.9918272495269775
10	83.24566292762756	pulse	0	t		8.0	2.5	/experiments/knapen_AOT/AOT_stimuli/rescaled_final/0949_fw.mp4	0.0	124.30398154258728	
10	83.26208400726318	movie	1		294	8.0	2.5	/experiments/knapen_AOT/AOT_stimuli/rescaled_final/0949_fw.mp4	0.0	124.3204026222229	2.500368118286133
10	84.84598875045776	pulse	1	t		8.0	2.5	/experiments/knapen_AOT/AOT_stimuli/rescaled_final/0949_fw.mp4	0.0	125.90430736541748	
10	85.76245212554932	fix_post	2		12	8.0	2.5	/experiments/knapen_AOT/AOT_stimuli/rescaled_final/0949_fw.mp4	0.0	126.82077074050903	0.10008001327514648
11	85.86253213882446	fix_pre	0		120	9.0	2.5	/experiments/knapen_AOT/AOT_stimuli/rescaled_final/0616_rv.mp4	0.0	126.92085075378418	1.0085153579711914
11	86.44619655609131	pulse	0	t		9.0	2.5	/experiments/knapen_AOT/AOT_stimuli/rescaled_final/0616_rv.mp4	0.0	127.50451517105103	
11	86.87104749679565	movie	1		268	9.0	2.5	/experiments/knapen_AOT/AOT_stimuli/rescaled_final/0616_rv.mp4	0.0	127.92936611175537	2.491957426071167
11	88.04634666442871	pulse	1	t		9.0	2.5	/experiments/knapen_AOT/AOT_stimuli/rescaled_final/0616_rv.mp4	0.0	129.10466527938843	
11	89.36300492286682	fix_post	2		12	9.0	2.5	/experiments/knapen_AOT/AOT_stimuli/rescaled_final/0616_rv.mp4	0.0	130.42132353782654	0.10001873970031738
12	89.46302366256714	fix_pre	0		120	10.0	2.5	/experiments/knapen_AOT/AOT_stimuli/rescaled_final/1179_fw.mp4	0.0	130.52134227752686	1.0085129737854004
12	89.64659643173218	pulse	0	t		10.0	2.5	/experiments/knapen_AOT/AOT_stimuli/rescaled_final/1179_fw.mp4	0.0	130.7049150466919	
12	90.47153663635254	movie	1		285	10.0	2.5	/experiments/knapen_AOT/AOT_stimuli/rescaled_final/1179_fw.mp4	0.0	131.52985525131226	2.492020845413208
12	91.24693560600281	pulse	1	t		10.0	2.5	/experiments/knapen_AOT/AOT_stimuli/rescaled_final/1179_fw.mp4	0.0	132.30525422096252	
12	92.84501099586487	pulse	1	t		10.0	2.5	/experiments/knapen_AOT/AOT_stimuli/rescaled_final/1179_fw.mp4	0.0	133.90332961082458	
12	92.96355748176575	fix_post	2		12	10.0	2.5	/experiments/knapen_AOT/AOT_stimuli/rescaled_final/1179_fw.mp4	0.0	134.02187609672546	0.10000491142272949
13	93.06356239318848	fix_pre	0		120	11.0	2.5	/experiments/knapen_AOT/AOT_stimuli/rescaled_final/0358_rv.mp4	0.0	134.1218810081482	1.0085041522979736
13	94.07206654548645	movie	1		280	11.0	2.5	/experiments/knapen_AOT/AOT_stimuli/rescaled_final/0358_rv.mp4	0.0	135.13038516044617	2.4920129776000977
13	94.44556999206543	pulse	1	t		11.0	2.5	/experiments/knapen_AOT/AOT_stimuli/rescaled_final/0358_rv.mp4	0.0	135.50388860702515	
13	96.04519891738892	pulse	1	t		11.0	2.5	/experiments/knapen_AOT/AOT_stimuli/rescaled_final/0358_rv.mp4	0.0	137.10351753234863	
13	96.56407952308655	fix_post	2		12	11.0	2.5	/experiments/knapen_AOT/AOT_stimuli/rescaled_final/0358_rv.mp4	0.0	137.62239813804626	0.10011029243469238
14	96.66418981552124	fix_pre	0		119	12.0	2.5	/experiments/knapen_AOT/AOT_stimuli/rescaled_final/2145_fw.mp4	0.0	137.72250843048096	1.0000920295715332
14	97.64786386489868	pulse	0	t		12.0	2.5	/experiments/knapen_AOT/AOT_stimuli/rescaled_final/2145_fw.mp4	0.0	138.7061824798584	
14	97.66428184509277	movie	1		283	12.0	2.5	/experiments/knapen_AOT/AOT_stimuli/rescaled_final/2145_fw.mp4	0.0	138.7226004600525	2.500368595123291
14	99.24619364738464	pulse	1	t		12.0	2.5	/experiments/knapen_AOT/AOT_stimuli/rescaled_final/2145_fw.mp4	0.0	140.30451226234436	
14	100.16465044021606	fix_post	2		12	12.0	2.5	/experiments/knapen_AOT/AOT_stimuli/rescaled_final/2145_fw.mp4	0.0	141.22296905517578	0.0999908447265625
15	100.26464128494263	fix_pre	0		120	13.0	2.5	blank	1.0	141.32295989990234	1.0002620220184326
15	100.84825134277344	pulse	0	t		13.0	2.5	blank	1.0	141.90656995773315	
15	101.26490330696106	movie	1		300	13.0	2.5	blank	1.0	142.32322192192078	2.500394105911255
15	102.44851088523865	pulse	1	t		13.0	2.5	blank	1.0	143.50682950019836	
15	103.76529741287231	fix_post	2		12	13.0	2.5	blank	1.0	144.82361602783203	0.09993410110473633
16	103.86523151397705	fix_pre	0		120	14.0	2.5	/experiments/knapen_AOT/AOT_stimuli/rescaled_final/1682_rv.mp4	0.0	144.92355012893677	1.0084412097930908
16	104.04883575439453	pulse	0	t		14.0	2.5	/experiments/knapen_AOT/AOT_stimuli/rescaled_final/1682_rv.mp4	0.0	145.10715436935425	
16	104.87367272377014	movie	1		281	14.0	2.5	/experiments/knapen_AOT/AOT_stimuli/rescaled_final/1682_rv.mp4	0.0	145.93199133872986	2.492069959640503
16	105.64671969413757	pulse	1	t		14.0	2.5	/experiments/knapen_AOT/AOT_stimuli/rescaled_final/1682_rv.mp4	0.0	146.7050383090973	
16	107.2472152709961	pulse	1	t		14.0	2.5	/experiments/knapen_AOT/AOT_stimuli/rescaled_final/1682_rv.mp4	0.0	148.3055338859558	
16	107.36574268341064	fix_post	2		12	14.0	2.5	/experiments/knapen_AOT/AOT_stimuli/rescaled_final/1682_rv.mp4	0.0	148.42406129837036	0.0999917984008789
17	107.46573448181152	fix_pre	0		120	15.0	2.5	/experiments/knapen_AOT/AOT_stimuli/rescaled_final/1463_fw.mp4	0.0	148.52405309677124	1.0085670948028564
17	108.47430157661438	movie	1		273	15.0	2.5	/experiments/knapen_AOT/AOT_stimuli/rescaled_final/1463_fw.mp4	0.0	149.5326201915741	2.4919445514678955
17	108.84831380844116	pulse	1	t		15.0	2.5	/experiments/knapen_AOT/AOT_stimuli/rescaled_final/1463_fw.mp4	0.0	149.90663242340088	
17	110.44760131835938	pulse	1	t		15.0	2.5	/experiments/knapen_AOT/AOT_stimuli/rescaled_final/1463_fw.mp4	0.0	151.5059199333191	
17	110.96624612808228	fix_post	2		12	15.0	2.5	/experiments/knapen_AOT/AOT_stimuli/rescaled_final/1463_fw.mp4	0.0	152.024564743042	0.1000063419342041
18	111.06625247001648	fix_pre	0		119	16.0	2.5	/experiments/knapen_AOT/AOT_stimuli/rescaled_final/0734_rv.mp4	0.0	152.1245710849762	1.0002977848052979
18	112.04996609687805	pulse	0	t		16.0	2.5	/experiments/knapen_AOT/AOT_stimuli/rescaled_final/0734_rv.mp4	0.0	153.10828471183777	
18	112.06655025482178	movie	1		277	16.0	2.5	/experiments/knapen_AOT/AOT_stimuli/rescaled_final/0734_rv.mp4	0.0	153.1248688697815	2.500267267227173
18	113.64995431900024	pulse	1	t		16.0	2.5	/experiments/knapen_AOT/AOT_stimuli/rescaled_final/0734_rv.mp4	0.0	154.70827293395996	
18	114.56681752204895	fix_post	2		12	16.0	2.5	/experiments/knapen_AOT/AOT_stimuli/rescaled_final/0734_rv.mp4	0.0	155.62513613700867	0.10000061988830566
19	114.66681814193726	fix_pre	0		120	17.0	2.5	/experiments/knapen_AOT/AOT_stimuli/rescaled_final/1152_fw.mp4	0.0	155.72513675689697	1.008481502532959
19	115.25043940544128	pulse	0	t		17.0	2.5	/experiments/knapen_AOT/AOT_stimuli/rescaled_final/1152_fw.mp4	0.0	156.308758020401	
19	115.67529964447021	movie	1		284	17.0	2.5	/experiments/knapen_AOT/AOT_stimuli/rescaled_final/1152_fw.mp4	0.0	156.73361825942993	2.492037296295166
19	116.84890556335449	pulse	1	t		17.0	2.5	/experiments/knapen_AOT/AOT_stimuli/rescaled_final/1152_fw.mp4	0.0	157.9072241783142	
19	118.16733694076538	fix_post	2		12	17.0	2.5	/experiments/knapen_AOT/AOT_stimuli/rescaled_final/1152_fw.mp4	0.0	159.2256555557251	0.10001015663146973
20	118.26734709739685	fix_pre	0		120	18.0	2.5	/experiments/knapen_AOT/AOT_stimuli/rescaled_final/0641_fw.mp4	0.0	159.32566571235657	1.0085132122039795
20	118.45093750953674	pulse	0	t		18.0	2.5	/experiments/knapen_AOT/AOT_stimuli/rescaled_final/0641_fw.mp4	0.0	159.50925612449646	
20	119.27586030960083	movie	1		287	18.0	2.5	/experiments/knapen_AOT/AOT_stimuli/rescaled_final/0641_fw.mp4	0.0	160.33417892456055	2.4920156002044678
20	120.04889416694641	pulse	1	t		18.0	2.5	/experiments/knapen_AOT/AOT_stimuli/rescaled_final/0641_fw.mp4	0.0	161.10721278190613	
20	121.64947700500488	pulse	1	t		18.0	2.5	/experiments/knapen_AOT/AOT_stimuli/rescaled_final/0641_fw.mp4	0.0	162.7077956199646	
20	121.7678759098053	fix_post	2		12	18.0	2.5	/experiments/knapen_AOT/AOT_stimuli/rescaled_final/0641_fw.mp4	0.0	162.82619452476501	0.10009145736694336
21	121.86796736717224	fix_pre	0		120	19.0	2.5	/experiments/knapen_AOT/AOT_stimuli/rescaled_final/1612_fw.mp4	0.0	162.92628598213196	1.0084500312805176
21	122.87641739845276	movie	1		275	19.0	2.5	/experiments/knapen_AOT/AOT_stimuli/rescaled_final/1612_fw.mp4	0.0	163.93473601341248	2.492147922515869
21	123.2499029636383	pulse	1	t		19.0	2.5	/experiments/knapen_AOT/AOT_stimuli/rescaled_final/1612_fw.mp4	0.0	164.30822157859802	
21	124.84963941574097	pulse	1	t		19.0	2.5	/experiments/knapen_AOT/AOT_stimuli/rescaled_final/1612_fw.mp4	0.0	165.90795803070068	
21	125.36856532096863	fix_post	2		12	19.0	2.5	/experiments/knapen_AOT/AOT_stimuli/rescaled_final/1612_fw.mp4	0.0	166.42688393592834	0.09989476203918457
22	125.46846008300781	fix_pre	0		119	20.0	2.5	blank	1.0	166.52677869796753	0.9917886257171631
22	126.45242118835449	pulse	0	t		20.0	2.5	blank	1.0	167.5107398033142	
22	126.46024870872498	movie	1		301	20.0	2.5	blank	1.0	167.5185673236847	2.5087060928344727
22	128.05267596244812	pulse	1	t		20.0	2.5	blank	1.0	169.11099457740784	
22	128.96895480155945	fix_post	2		12	20.0	2.5	blank	1.0	170.02727341651917	0.10002017021179199
23	129.06897497177124	fix_pre	0		120	21.0	2.5	/experiments/knapen_AOT/AOT_stimuli/rescaled_final/0096_rv.mp4	0.0	170.12729358673096	1.0085136890411377
23	129.65273141860962	pulse	0	t		21.0	2.5	/experiments/knapen_AOT/AOT_stimuli/rescaled_final/0096_rv.mp4	0.0	170.71105003356934	
23	130.07748866081238	movie	1		268	21.0	2.5	/experiments/knapen_AOT/AOT_stimuli/rescaled_final/0096_rv.mp4	0.0	171.1358072757721	2.492017984390259
23	131.251220703125	pulse	1	t		21.0	2.5	/experiments/knapen_AOT/AOT_stimuli/rescaled_final/0096_rv.mp4	0.0	172.30953931808472	
23	132.56950664520264	fix_post	2		12	21.0	2.5	/experiments/knapen_AOT/AOT_stimuli/rescaled_final/0096_rv.mp4	0.0	173.62782526016235	0.09999966621398926
24	132.66950631141663	fix_pre	0		120	22.0	2.5	/experiments/knapen_AOT/AOT_stimuli/rescaled_final/1191_rv.mp4	0.0	173.72782492637634	1.008490800857544
24	132.85311460494995	pulse	0	t		22.0	2.5	/experiments/knapen_AOT/AOT_stimuli/rescaled_final/1191_rv.mp4	0.0	173.91143321990967	
24	133.67799711227417	movie	1		271	22.0	2.5	/experiments/knapen_AOT/AOT_stimuli/rescaled_final/1191_rv.mp4	0.0	174.7363157272339	2.492030382156372
24	134.4451515674591	pulse	1	t		22.0	2.5	/experiments/knapen_AOT/AOT_stimuli/rescaled_final/1191_rv.mp4	0.0	175.50347018241882	
24	136.04521298408508	pulse	1	t		22.0	2.5	/experiments/knapen_AOT/AOT_stimuli/rescaled_final/1191_rv.mp4	0.0	177.1035315990448	
24	136.17002749443054	fix_post	2		12	22.0	2.5	/experiments/knapen_AOT/AOT_stimuli/rescaled_final/1191_rv.mp4	0.0	177.22834610939026	0.10002422332763672
25	136.27005171775818	fix_pre	0		120	23.0	2.5	/experiments/knapen_AOT/AOT_stimuli/rescaled_final/0843_fw.mp4	0.0	177.3283703327179	1.0086216926574707
25	137.27867341041565	movie	1		283	23.0	2.5	/experiments/knapen_AOT/AOT_stimuli/rescaled_final/0843_fw.mp4	0.0	178.33699202537537	2.4919068813323975
25	137.6455044746399	pulse	1	t		23.0	2.5	/experiments/knapen_AOT/AOT_stimuli/rescaled_final/0843_fw.mp4	0.0	178.7038230895996	
25	139.24573588371277	pulse	1	t		23.0	2.5	/experiments/knapen_AOT/AOT_stimuli/rescaled_final/0843_fw.mp4	0.0	180.30405449867249	
25	139.77058029174805	fix_post	2		12	23.0	2.5	/experiments/knapen_AOT/AOT_stimuli/rescaled_final/0843_fw.mp4	0.0	180.82889890670776	0.10001921653747559
26	139.87059950828552	fix_pre	0		118	24.0	2.5	/experiments/knapen_AOT/AOT_stimuli/rescaled_final/1259_fw.mp4	0.0	180.92891812324524	0.991837739944458
26	140.84598207473755	pulse	0	t		24.0	2.5	/experiments/knapen_AOT/AOT_stimuli/rescaled_final/1259_fw.mp4	0.0	181.90430068969727	
26	140.86243724822998	movie	1		281	24.0	2.5	/experiments/knapen_AOT/AOT_stimuli/rescaled_final/1259_fw.mp4	0.0	181.9207558631897	2.500413417816162
26	142.44620871543884	pulse	1	t		24.0	2.5	/experiments/knapen_AOT/AOT_stimuli/rescaled_final/1259_fw.mp4	0.0	183.50452733039856	
26	143.36285066604614	fix_post	2		12	24.0	2.5	/experiments/knapen_AOT/AOT_stimuli/rescaled_final/1259_fw.mp4	0.0	184.42116928100586	0.1000211238861084
27	143.46287178993225	fix_pre	0		120	25.0	2.5	/experiments/knapen_AOT/AOT_stimuli/rescaled_final/0111_rv.mp4	0.0	184.52119040489197	1.0084519386291504
27	144.0464584827423	pulse	0	t		25.0	2.5	/experiments/knapen_AOT/AOT_stimuli/rescaled_final/0111_rv.mp4	0.0	185.10477709770203	
27	144.4713237285614	movie	1		265	25.0	2.5	/experiments/knapen_AOT/AOT_stimuli/rescaled_final/0111_rv.mp4	0.0	185.52964234352112	2.4920105934143066
27	145.64687275886536	pulse	1	t		25.0	2.5	/experiments/knapen_AOT/AOT_stimuli/rescaled_final/0111_rv.mp4	0.0	186.70519137382507	
27	146.9633343219757	fix_post	2		12	25.0	2.5	/experiments/knapen_AOT/AOT_stimuli/rescaled_final/0111_rv.mp4	0.0	188.02165293693542	0.10003328323364258
28	147.06336760520935	fix_pre	0		120	26.0	2.5	/experiments/knapen_AOT/AOT_stimuli/rescaled_final/1356_rv.mp4	0.0	188.12168622016907	1.008504867553711
28	147.24696326255798	pulse	0	t		26.0	2.5	/experiments/knapen_AOT/AOT_stimuli/rescaled_final/1356_rv.mp4	0.0	188.3052818775177	
28	148.07187247276306	movie	1		275	26.0	2.5	/experiments/knapen_AOT/AOT_stimuli/rescaled_final/1356_rv.mp4	0.0	189.13019108772278	2.4921417236328125
28	148.84721183776855	pulse	1	t		26.0	2.5	/experiments/knapen_AOT/AOT_stimuli/rescaled_final/1356_rv.mp4	0.0	189.90553045272827	
28	150.44560599327087	pulse	1	t		26.0	2.5	/experiments/knapen_AOT/AOT_stimuli/rescaled_final/1356_rv.mp4	0.0	191.5039246082306	
28	150.56401419639587	fix_post	2		12	26.0	2.5	/experiments/knapen_AOT/AOT_stimuli/rescaled_final/1356_rv.mp4	0.0	191.6223328113556	0.09987616539001465
29	150.6638903617859	fix_pre	0		120	27.0	2.5	blank	1.0	191.7222089767456	1.000300407409668
29	151.66419076919556	movie	1		300	27.0	2.5	blank	1.0	192.72250938415527	2.500225782394409
29	152.04774236679077	pulse	1	t		27.0	2.5	blank	1.0	193.1060609817505	
29	153.64786195755005	pulse	1	t		27.0	2.5	blank	1.0	194.70618057250977	
29	154.16441655158997	fix_post	2		12	27.0	2.5	blank	1.0	195.22273516654968	0.1000063419342041
30	154.26442289352417	fix_pre	0		119	28.0	2.5	/experiments/knapen_AOT/AOT_stimuli/rescaled_final/0501_rv.mp4	0.0	195.3227415084839	1.0001933574676514
30	155.24817943572998	pulse	0	t		28.0	2.5	/experiments/knapen_AOT/AOT_stimuli/rescaled_final/0501_rv.mp4	0.0	196.3064980506897	
30	155.26461625099182	movie	1		263	28.0	2.5	/experiments/knapen_AOT/AOT_stimuli/rescaled_final/0501_rv.mp4	0.0	196.32293486595154	2.5003349781036377
30	156.84852528572083	pulse	1	t		28.0	2.5	/experiments/knapen_AOT/AOT_stimuli/rescaled_final/0501_rv.mp4	0.0	197.90684390068054	
30	157.76495122909546	fix_post	2		12	28.0	2.5	/experiments/knapen_AOT/AOT_stimuli/rescaled_final/0501_rv.mp4	0.0	198.82326984405518	0.10001993179321289
31	157.86497116088867	fix_pre	0		120	29.0	2.5	/experiments/knapen_AOT/AOT_stimuli/rescaled_final/1615_rv.mp4	0.0	198.9232897758484	1.0084912776947021
31	158.44857740402222	pulse	0	t		29.0	2.5	/experiments/knapen_AOT/AOT_stimuli/rescaled_final/1615_rv.mp4	0.0	199.50689601898193	
31	158.87346243858337	movie	1		271	29.0	2.5	/experiments/knapen_AOT/AOT_stimuli/rescaled_final/1615_rv.mp4	0.0	199.9317810535431	2.49202823638916
31	160.0469205379486	pulse	1	t		29.0	2.5	/experiments/knapen_AOT/AOT_stimuli/rescaled_final/1615_rv.mp4	0.0	201.10523915290833	
31	161.36549067497253	fix_post	2		12	29.0	2.5	/experiments/knapen_AOT/AOT_stimuli/rescaled_final/1615_rv.mp4	0.0	202.42380928993225	0.10005760192871094
32	161.46554827690125	fix_pre	0		120	30.0	2.5	/experiments/knapen_AOT/AOT_stimuli/rescaled_final/0111_rv.mp4	0.0	202.52386689186096	1.0084640979766846
32	161.6492829322815	pulse	0	t		30.0	2.5	/experiments/knapen_AOT/AOT_stimuli/rescaled_final/0111_rv.mp4	0.0	202.7076015472412	
32	162.47401237487793	movie	1		277	30.0	2.5	/experiments/knapen_AOT/AOT_stimuli/rescaled_final/0111_rv.mp4	0.0	203.53233098983765	2.4920475482940674
32	163.24753642082214	pulse	1	t		30.0	2.5	/experiments/knapen_AOT/AOT_stimuli/rescaled_final/0111_rv.mp4	0.0	204.30585503578186	
32	164.8476026058197	pulse	1	t		30.0	2.5	/experiments/knapen_AOT/AOT_stimuli/rescaled_final/0111_rv.mp4	0.0	205.90592122077942	
32	164.966059923172	fix_post	2		12	30.0	2.5	/experiments/knapen_AOT/AOT_stimuli/rescaled_final/0111_rv.mp4	0.0	206.0243785381317	0.09999585151672363
33	165.06605577468872	fix_pre	0		120	31.0	2.5	/experiments/knapen_AOT/AOT_stimuli/rescaled_final/0698_fw.mp4	0.0	206.12437438964844	1.0085065364837646
33	166.07456231117249	movie	1		282	31.0	2.5	/experiments/knapen_AOT/AOT_stimuli/rescaled_final/0698_fw.mp4	0.0	207.1328809261322	2.49202561378479
33	166.44780468940735	pulse	1	t		31.0	2.5	/experiments/knapen_AOT/AOT_stimuli/rescaled_final/0698_fw.mp4	0.0	207.50612330436707	
33	168.04776573181152	pulse	1	t		31.0	2.5	/experiments/knapen_AOT/AOT_stimuli/rescaled_final/0698_fw.mp4	0.0	209.10608434677124	
33	168.56658792495728	fix_post	2		12	31.0	2.5	/experiments/knapen_AOT/AOT_stimuli/rescaled_final/0698_fw.mp4	0.0	209.624906539917	0.10004520416259766
34	168.66663312911987	fix_pre	0		119	32.0	2.5	/experiments/knapen_AOT/AOT_stimuli/rescaled_final/1145_fw.mp4	0.0	209.7249517440796	1.0001513957977295
34	169.65026950836182	pulse	0	t		32.0	2.5	/experiments/knapen_AOT/AOT_stimuli/rescaled_final/1145_fw.mp4	0.0	210.70858812332153	
34	169.6667845249176	movie	1		291	32.0	2.5	/experiments/knapen_AOT/AOT_stimuli/rescaled_final/1145_fw.mp4	0.0	210.72510313987732	2.500370740890503
34	171.24867010116577	pulse	1	t		32.0	2.5	/experiments/knapen_AOT/AOT_stimuli/rescaled_final/1145_fw.mp4	0.0	212.3069887161255	
34	172.1671552658081	fix_post	2		12	32.0	2.5	/experiments/knapen_AOT/AOT_stimuli/rescaled_final/1145_fw.mp4	0.0	213.22547388076782	0.0999908447265625
35	172.26714611053467	fix_pre	0		120	33.0	2.5	/experiments/knapen_AOT/AOT_stimuli/rescaled_final/0322_fw.mp4	0.0	213.32546472549438	1.0085422992706299
35	172.85075974464417	pulse	0	t		33.0	2.5	/experiments/knapen_AOT/AOT_stimuli/rescaled_final/0322_fw.mp4	0.0	213.90907835960388	
35	173.2756884098053	movie	1		281	33.0	2.5	/experiments/knapen_AOT/AOT_stimuli/rescaled_final/0322_fw.mp4	0.0	214.33400702476501	2.4919638633728027
35	174.4495289325714	pulse	1	t		33.0	2.5	/experiments/knapen_AOT/AOT_stimuli/rescaled_final/0322_fw.mp4	0.0	215.50784754753113	
35	175.7676522731781	fix_post	2		12	33.0	2.5	/experiments/knapen_AOT/AOT_stimuli/rescaled_final/0322_fw.mp4	0.0	216.82597088813782	0.10003662109375
36	175.86768889427185	fix_pre	0		120	34.0	2.5	/experiments/knapen_AOT/AOT_stimuli/rescaled_final/1788_fw.mp4	0.0	216.92600750923157	1.0084888935089111
36	176.05124688148499	pulse	0	t		34.0	2.5	/experiments/knapen_AOT/AOT_stimuli/rescaled_final/1788_fw.mp4	0.0	217.1095654964447	
36	176.87617778778076	movie	1		288	34.0	2.5	/experiments/knapen_AOT/AOT_stimuli/rescaled_final/1788_fw.mp4	0.0	217.93449640274048	2.492037534713745
36	177.64934921264648	pulse	1	t		34.0	2.5	/experiments/knapen_AOT/AOT_stimuli/rescaled_final/1788_fw.mp4	0.0	218.7076678276062	
36	179.24981260299683	pulse	1	t		34.0	2.5	/experiments/knapen_AOT/AOT_stimuli/rescaled_final/1788_fw.mp4	0.0	220.30813121795654	
36	179.3682153224945	fix_post	2		12	34.0	2.5	/experiments/knapen_AOT/AOT_stimuli/rescaled_final/1788_fw.mp4	0.0	220.42653393745422	0.10000300407409668
37	179.4682183265686	fix_pre	0		120	35.0	2.5	blank	1.0	220.52653694152832	1.0001628398895264
37	180.46838116645813	movie	1		300	35.0	2.5	blank	1.0	221.52669978141785	2.500366449356079
37	180.85197758674622	pulse	1	t		35.0	2.5	blank	1.0	221.91029620170593	
37	182.45223593711853	pulse	1	t		35.0	2.5	blank	1.0	223.51055455207825	
37	182.9687476158142	fix_post	2		12	35.0	2.5	blank	1.0	224.02706623077393	0.10009050369262695
38	183.06883811950684	fix_pre	0		119	36.0	2.5	/experiments/knapen_AOT/AOT_stimuli/rescaled_final/1951_rv.mp4	0.0	224.12715673446655	1.000145435333252
38	184.0524628162384	pulse	0	t		36.0	2.5	/experiments/knapen_AOT/AOT_stimuli/rescaled_final/1951_rv.mp4	0.0	225.11078143119812	
38	184.0689835548401	movie	1		284	36.0	2.5	/experiments/knapen_AOT/AOT_stimuli/rescaled_final/1951_rv.mp4	0.0	225.1273021697998	2.5002963542938232
38	185.65091633796692	pulse	1	t		36.0	2.5	/experiments/knapen_AOT/AOT_stimuli/rescaled_final/1951_rv.mp4	0.0	226.70923495292664	
38	186.5692799091339	fix_post	2		12	36.0	2.5	/experiments/knapen_AOT/AOT_stimuli/rescaled_final/1951_rv.mp4	0.0	227.62759852409363	0.10002946853637695
39	186.6693093776703	fix_pre	0		120	37.0	2.5	/experiments/knapen_AOT/AOT_stimuli/rescaled_final/0756_rv.mp4	0.0	227.72762799263	1.0085012912750244
39	187.25301551818848	pulse	0	t		37.0	2.5	/experiments/knapen_AOT/AOT_stimuli/rescaled_final/0756_rv.mp4	0.0	228.3113341331482	
39	187.6778106689453	movie	1		290	37.0	2.5	/experiments/knapen_AOT/AOT_stimuli/rescaled_final/0756_rv.mp4	0.0	228.73612928390503	2.4920241832733154
39	188.85115146636963	pulse	1	t		37.0	2.5	/experiments/knapen_AOT/AOT_stimuli/rescaled_final/0756_rv.mp4	0.0	229.90947008132935	
39	190.16983485221863	fix_post	2		12	37.0	2.5	/experiments/knapen_AOT/AOT_stimuli/rescaled_final/0756_rv.mp4	0.0	231.22815346717834	0.10003399848937988
40	190.269868850708	fix_pre	0		120	38.0	2.5	/experiments/knapen_AOT/AOT_stimuli/rescaled_final/1026_fw.mp4	0.0	231.32818746566772	1.0084693431854248
40	190.44556403160095	pulse	0	t		38.0	2.5	/experiments/knapen_AOT/AOT_stimuli/rescaled_final/1026_fw.mp4	0.0	231.50388264656067	
40	191.27833819389343	movie	1		279	38.0	2.5	/experiments/knapen_AOT/AOT_stimuli/rescaled_final/1026_fw.mp4	0.0	232.33665680885315	2.492032051086426
40	192.0459122657776	pulse	1	t		38.0	2.5	/experiments/knapen_AOT/AOT_stimuli/rescaled_final/1026_fw.mp4	0.0	233.1042308807373	
40	193.645605802536	pulse	1	t		38.0	2.5	/experiments/knapen_AOT/AOT_stimuli/rescaled_final/1026_fw.mp4	0.0	234.70392441749573	
40	193.77037024497986	fix_post	2		12	38.0	2.5	/experiments/knapen_AOT/AOT_stimuli/rescaled_final/1026_fw.mp4	0.0	234.82868885993958	0.10002541542053223
41	193.8703956604004	fix_pre	0		120	39.0	2.5	/experiments/knapen_AOT/AOT_stimuli/rescaled_final/1710_fw.mp4	0.0	234.9287142753601	1.0085036754608154
41	194.8788993358612	movie	1		283	39.0	2.5	/experiments/knapen_AOT/AOT_stimuli/rescaled_final/1710_fw.mp4	0.0	235.93721795082092	2.4920058250427246
41	195.2545325756073	pulse	1	t		39.0	2.5	/experiments/knapen_AOT/AOT_stimuli/rescaled_final/1710_fw.mp4	0.0	236.31285119056702	
41	196.84609389305115	pulse	1	t		39.0	2.5	/experiments/knapen_AOT/AOT_stimuli/rescaled_final/1710_fw.mp4	0.0	237.90441250801086	
41	197.37090516090393	fix_post	2		12	39.0	2.5	/experiments/knapen_AOT/AOT_stimuli/rescaled_final/1710_fw.mp4	0.0	238.42922377586365	0.10001730918884277
42	197.47092247009277	fix_pre	0		118	40.0	2.5	blank	1.0	238.5292410850525	0.9835524559020996
42	198.44629216194153	pulse	0	t		40.0	2.5	blank	1.0	239.50461077690125	
42	198.45447492599487	movie	1		301	40.0	2.5	blank	1.0	239.5127935409546	2.508634567260742
42	200.04653930664062	pulse	1	t		40.0	2.5	blank	1.0	241.10485792160034	
42	200.96310949325562	fix_post	2		12	40.0	2.5	blank	1.0	242.02142810821533	0.10013556480407715
43	201.0632450580597	fix_pre	0		120	41.0	2.5	/experiments/knapen_AOT/AOT_stimuli/rescaled_final/0981_fw.mp4	0.0	242.1215636730194	1.0083692073822021
43	201.64676523208618	pulse	0	t		41.0	2.5	/experiments/knapen_AOT/AOT_stimuli/rescaled_final/0981_fw.mp4	0.0	242.7050838470459	
43	202.0716142654419	movie	1		269	41.0	2.5	/experiments/knapen_AOT/AOT_stimuli/rescaled_final/0981_fw.mp4	0.0	243.1299328804016	2.4920432567596436
43	203.24707102775574	pulse	1	t		41.0	2.5	/experiments/knapen_AOT/AOT_stimuli/rescaled_final/0981_fw.mp4	0.0	244.30538964271545	
43	204.56365752220154	fix_post	2		12	41.0	2.5	/experiments/knapen_AOT/AOT_stimuli/rescaled_final/0981_fw.mp4	0.0	245.62197613716125	0.10000848770141602
44	204.66366600990295	fix_pre	0		120	42.0	2.5	/experiments/knapen_AOT/AOT_stimuli/rescaled_final/2030_rv.mp4	0.0	245.72198462486267	1.0085413455963135
44	204.84723687171936	pulse	0	t		42.0	2.5	/experiments/knapen_AOT/AOT_stimuli/rescaled_final/2030_rv.mp4	0.0	245.90555548667908	
44	205.67220735549927	movie	1		264	42.0	2.5	/experiments/knapen_AOT/AOT_stimuli/rescaled_final/2030_rv.mp4	0.0	246.73052597045898	2.4919795989990234
44	206.44749331474304	pulse	1	t		42.0	2.5	/experiments/knapen_AOT/AOT_stimuli/rescaled_final/2030_rv.mp4	0.0	247.50581192970276	
44	208.04580092430115	pulse	1	t		42.0	2.5	/experiments/knapen_AOT/AOT_stimuli/rescaled_final/2030_rv.mp4	0.0	249.10411953926086	
44	208.1641869544983	fix_post	2		12	42.0	2.5	/experiments/knapen_AOT/AOT_stimuli/rescaled_final/2030_rv.mp4	0.0	249.222505569458	0.10004639625549316
45	208.26423335075378	fix_pre	0		120	43.0	2.5	/experiments/knapen_AOT/AOT_stimuli/rescaled_final/0501_rv.mp4	0.0	249.3225519657135	1.0084917545318604
45	209.27272510528564	movie	1		280	43.0	2.5	/experiments/knapen_AOT/AOT_stimuli/rescaled_final/0501_rv.mp4	0.0	250.33104372024536	2.4921059608459473
45	209.64615321159363	pulse	1	t		43.0	2.5	/experiments/knapen_AOT/AOT_stimuli/rescaled_final/0501_rv.mp4	0.0	250.70447182655334	
45	211.24841499328613	pulse	1	t		43.0	2.5	/experiments/knapen_AOT/AOT_stimuli/rescaled_final/0501_rv.mp4	0.0	252.30673360824585	
45	211.7648310661316	fix_post	2		12	43.0	2.5	/experiments/knapen_AOT/AOT_stimuli/rescaled_final/0501_rv.mp4	0.0	252.8231496810913	0.099945068359375
46	211.86477613449097	fix_pre	0		119	44.0	2.5	/experiments/knapen_AOT/AOT_stimuli/rescaled_final/0352_rv.mp4	0.0	252.92309474945068	1.0002171993255615
46	212.8484218120575	pulse	0	t		44.0	2.5	/experiments/knapen_AOT/AOT_stimuli/rescaled_final/0352_rv.mp4	0.0	253.9067404270172	
46	212.86499333381653	movie	1		266	44.0	2.5	/experiments/knapen_AOT/AOT_stimuli/rescaled_final/0352_rv.mp4	0.0	253.92331194877625	2.5003058910369873
46	214.44812655448914	pulse	1	t		44.0	2.5	/experiments/knapen_AOT/AOT_stimuli/rescaled_final/0352_rv.mp4	0.0	255.50644516944885	
46	215.36529922485352	fix_post	2		12	44.0	2.5	/experiments/knapen_AOT/AOT_stimuli/rescaled_final/0352_rv.mp4	0.0	256.42361783981323	0.10003089904785156
47	215.46533012390137	fix_pre	0		120	45.0	2.5	/experiments/knapen_AOT/AOT_stimuli/rescaled_final/1006_fw.mp4	0.0	256.5236487388611	1.0084939002990723
47	216.04899168014526	pulse	0	t		45.0	2.5	/experiments/knapen_AOT/AOT_stimuli/rescaled_final/1006_fw.mp4	0.0	257.107310295105	
47	216.47382402420044	movie	1		283	45.0	2.5	/experiments/knapen_AOT/AOT_stimuli/rescaled_final/1006_fw.mp4	0.0	257.53214263916016	2.492018938064575
47	217.64727210998535	pulse	1	t		45.0	2.5	/experiments/knapen_AOT/AOT_stimuli/rescaled_final/1006_fw.mp4	0.0	258.70559072494507	
47	218.96584296226501	fix_post	2		12	45.0	2.5	/experiments/knapen_AOT/AOT_stimuli/rescaled_final/1006_fw.mp4	0.0	260.02416157722473	0.0999901294708252
48	219.06583309173584	fix_pre	0		100	46.0	2.5	/experiments/knapen_AOT/AOT_stimuli/rescaled_final/1171_fw.mp4	0.0	260.12415170669556	1.0085666179656982
48	219.24938201904297	pulse	0	t		46.0	2.5	/experiments/knapen_AOT/AOT_stimuli/rescaled_final/1171_fw.mp4	0.0	260.3077006340027	
48	220.07439970970154	movie	1		275	46.0	2.5	/experiments/knapen_AOT/AOT_stimuli/rescaled_final/1171_fw.mp4	0.0	261.13271832466125	2.4919593334198
48	220.84779381752014	pulse	1	t		46.0	2.5	/experiments/knapen_AOT/AOT_stimuli/rescaled_final/1171_fw.mp4	0.0	261.90611243247986	
48	222.4499762058258	pulse	1	t		46.0	2.5	/experiments/knapen_AOT/AOT_stimuli/rescaled_final/1171_fw.mp4	0.0	263.5082948207855	
48	222.56635904312134	fix_post	2		12	46.0	2.5	/experiments/knapen_AOT/AOT_stimuli/rescaled_final/1171_fw.mp4	0.0	263.62467765808105	0.10002470016479492
49	222.66638374328613	fix_pre	0		120	47.0	2.5	blank	1.0	263.72470235824585	1.0001471042633057
49	223.66653084754944	movie	1		300	47.0	2.5	blank	1.0	264.72484946250916	2.5003724098205566
49	224.05012559890747	pulse	1	t		47.0	2.5	blank	1.0	265.1084442138672	
49	225.6503942012787	pulse	1	t		47.0	2.5	blank	1.0	266.7087128162384	
49	226.16690325737	fix_post	2		12	47.0	2.5	blank	1.0	267.2252218723297	0.10001564025878906
50	226.26691889762878	fix_pre	0		119	48.0	2.5	/experiments/knapen_AOT/AOT_stimuli/rescaled_final/0760_rv.mp4	0.0	267.3252375125885	1.000314474105835
50	227.25064277648926	pulse	0	t		48.0	2.5	/experiments/knapen_AOT/AOT_stimuli/rescaled_final/0760_rv.mp4	0.0	268.308961391449	
50	227.26723337173462	movie	1		272	48.0	2.5	/experiments/knapen_AOT/AOT_stimuli/rescaled_final/0760_rv.mp4	0.0	268.32555198669434	2.5002260208129883
50	228.8493447303772	pulse	1	t		48.0	2.5	/experiments/knapen_AOT/AOT_stimuli/rescaled_final/0760_rv.mp4	0.0	269.9076633453369	
50	229.7674593925476	fix_post	2		12	48.0	2.5	/experiments/knapen_AOT/AOT_stimuli/rescaled_final/0760_rv.mp4	0.0	270.8257780075073	0.10001492500305176
51	229.86747431755066	fix_pre	0		120	49.0	2.5	/experiments/knapen_AOT/AOT_stimuli/rescaled_final/0772_fw.mp4	0.0	270.9257929325104	1.0084905624389648
51	230.45108795166016	pulse	0	t		49.0	2.5	/experiments/knapen_AOT/AOT_stimuli/rescaled_final/0772_fw.mp4	0.0	271.5094065666199	
51	230.87596487998962	movie	1		289	49.0	2.5	/experiments/knapen_AOT/AOT_stimuli/rescaled_final/0772_fw.mp4	0.0	271.93428349494934	2.4920144081115723
51	232.0499529838562	pulse	1	t		49.0	2.5	/experiments/knapen_AOT/AOT_stimuli/rescaled_final/0772_fw.mp4	0.0	273.1082715988159	
51	233.3679792881012	fix_post	2		12	49.0	2.5	/experiments/knapen_AOT/AOT_stimuli/rescaled_final/0772_fw.mp4	0.0	274.4262979030609	0.10001873970031738
52	233.4679980278015	fix_pre	0		120	50.0	2.5	/experiments/knapen_AOT/AOT_stimuli/rescaled_final/0765_fw.mp4	0.0	274.52631664276123	1.008512258529663
52	233.6515691280365	pulse	0	t		50.0	2.5	/experiments/knapen_AOT/AOT_stimuli/rescaled_final/0765_fw.mp4	0.0	274.7098877429962	
52	234.47651028633118	movie	1		273	50.0	2.5	/experiments/knapen_AOT/AOT_stimuli/rescaled_final/0765_fw.mp4	0.0	275.5348289012909	2.492016077041626
52	235.24967670440674	pulse	1	t		50.0	2.5	/experiments/knapen_AOT/AOT_stimuli/rescaled_final/0765_fw.mp4	0.0	276.30799531936646	
52	236.84986090660095	pulse	1	t		50.0	2.5	/experiments/knapen_AOT/AOT_stimuli/rescaled_final/0765_fw.mp4	0.0	277.90817952156067	
52	236.9685263633728	fix_post	2		12	50.0	2.5	/experiments/knapen_AOT/AOT_stimuli/rescaled_final/0765_fw.mp4	0.0	278.0268449783325	0.10005903244018555
53	237.068585395813	fix_pre	0		120	51.0	2.5	/experiments/knapen_AOT/AOT_stimuli/rescaled_final/0039_rv.mp4	0.0	278.1269040107727	1.0085015296936035
53	238.0770869255066	movie	1		286	51.0	2.5	/experiments/knapen_AOT/AOT_stimuli/rescaled_final/0039_rv.mp4	0.0	279.1354055404663	2.4919917583465576
53	238.45077252388	pulse	1	t		51.0	2.5	/experiments/knapen_AOT/AOT_stimuli/rescaled_final/0039_rv.mp4	0.0	279.5090911388397	
53	240.05043745040894	pulse	1	t		51.0	2.5	/experiments/knapen_AOT/AOT_stimuli/rescaled_final/0039_rv.mp4	0.0	281.10875606536865	
53	240.56907868385315	fix_post	2		12	51.0	2.5	/experiments/knapen_AOT/AOT_stimuli/rescaled_final/0039_rv.mp4	0.0	281.62739729881287	0.10014533996582031
54	240.66922402381897	fix_pre	0		119	52.0	2.5	/experiments/knapen_AOT/AOT_stimuli/rescaled_final/0319_fw.mp4	0.0	281.7275426387787	1.0001139640808105
54	241.65281510353088	pulse	0	t		52.0	2.5	/experiments/knapen_AOT/AOT_stimuli/rescaled_final/0319_fw.mp4	0.0	282.7111337184906	
54	241.66933798789978	movie	1		267	52.0	2.5	/experiments/knapen_AOT/AOT_stimuli/rescaled_final/0319_fw.mp4	0.0	282.7276566028595	2.5002832412719727
54	243.25132369995117	pulse	1	t		52.0	2.5	/experiments/knapen_AOT/AOT_stimuli/rescaled_final/0319_fw.mp4	0.0	284.3096423149109	
54	244.16962122917175	fix_post	2		12	52.0	2.5	/experiments/knapen_AOT/AOT_stimuli/rescaled_final/0319_fw.mp4	0.0	285.22793984413147	0.10001850128173828
55	244.2696397304535	fix_pre	0		120	53.0	2.5	/experiments/knapen_AOT/AOT_stimuli/rescaled_final/1549_rv.mp4	0.0	285.3279583454132	1.0085241794586182
55	244.8456518650055	pulse	0	t		53.0	2.5	/experiments/knapen_AOT/AOT_stimuli/rescaled_final/1549_rv.mp4	0.0	285.9039704799652	
55	245.2781639099121	movie	1		276	53.0	2.5	/experiments/knapen_AOT/AOT_stimuli/rescaled_final/1549_rv.mp4	0.0	286.3364825248718	2.492006778717041
55	246.44513034820557	pulse	1	t		53.0	2.5	/experiments/knapen_AOT/AOT_stimuli/rescaled_final/1549_rv.mp4	0.0	287.5034489631653	
55	247.77017068862915	fix_post	2		12	53.0	2.5	/experiments/knapen_AOT/AOT_stimuli/rescaled_final/1549_rv.mp4	0.0	288.82848930358887	0.09997701644897461
56	247.87014770507812	fix_pre	0		120	54.0	2.5	blank	1.0	288.92846632003784	1.000169038772583
56	248.04538321495056	pulse	0	t		54.0	2.5	blank	1.0	289.1037018299103	
56	248.8703167438507	movie	1		300	54.0	2.5	blank	1.0	289.9286353588104	2.500401020050049
56	249.64565062522888	pulse	1	t		54.0	2.5	blank	1.0	290.7039692401886	
56	251.2458963394165	pulse	1	t		54.0	2.5	blank	1.0	292.3042149543762	
56	251.37071776390076	fix_post	2		12	54.0	2.5	blank	1.0	292.4290363788605	0.1000068187713623
57	251.47072458267212	fix_pre	0		120	55.0	2.5	/experiments/knapen_AOT/AOT_stimuli/rescaled_final/0096_rv.mp4	0.0	292.52904319763184	1.008486032485962
57	252.47921061515808	movie	1		277	55.0	2.5	/experiments/knapen_AOT/AOT_stimuli/rescaled_final/0096_rv.mp4	0.0	293.5375292301178	2.492079019546509
57	252.84598994255066	pulse	1	t		55.0	2.5	/experiments/knapen_AOT/AOT_stimuli/rescaled_final/0096_rv.mp4	0.0	293.9043085575104	
57	254.44638395309448	pulse	1	t		55.0	2.5	/experiments/knapen_AOT/AOT_stimuli/rescaled_final/0096_rv.mp4	0.0	295.5047025680542	
57	254.9712896347046	fix_post	2		12	55.0	2.5	/experiments/knapen_AOT/AOT_stimuli/rescaled_final/0096_rv.mp4	0.0	296.0296082496643	0.09995603561401367
58	255.0712456703186	fix_pre	0		118	56.0	2.5	/experiments/knapen_AOT/AOT_stimuli/rescaled_final/0900_fw.mp4	0.0	296.1295642852783	0.9918630123138428
58	256.0466203689575	pulse	0	t		56.0	2.5	/experiments/knapen_AOT/AOT_stimuli/rescaled_final/0900_fw.mp4	0.0	297.10493898391724	
58	256.06310868263245	movie	1		283	56.0	2.5	/experiments/knapen_AOT/AOT_stimuli/rescaled_final/0900_fw.mp4	0.0	297.12142729759216	2.5003714561462402
58	257.64512395858765	pulse	1	t		56.0	2.5	/experiments/knapen_AOT/AOT_stimuli/rescaled_final/0900_fw.mp4	0.0	298.70344257354736	
58	258.5634801387787	fix_post	2		12	56.0	2.5	/experiments/knapen_AOT/AOT_stimuli/rescaled_final/0900_fw.mp4	0.0	299.6217987537384	0.0999758243560791
59	258.66345596313477	fix_pre	0		120	57.0	2.5	/experiments/knapen_AOT/AOT_stimuli/rescaled_final/0843_rv.mp4	0.0	299.7217745780945	1.008547306060791
59	259.247177362442	pulse	0	t		57.0	2.5	/experiments/knapen_AOT/AOT_stimuli/rescaled_final/0843_rv.mp4	0.0	300.30549597740173	
59	259.67200326919556	movie	1		284	57.0	2.5	/experiments/knapen_AOT/AOT_stimuli/rescaled_final/0843_rv.mp4	0.0	300.7303218841553	2.4919776916503906
59	260.8455379009247	pulse	1	t		57.0	2.5	/experiments/knapen_AOT/AOT_stimuli/rescaled_final/0843_rv.mp4	0.0	301.9038565158844	
59	262.16398096084595	fix_post	2		12	57.0	2.5	/experiments/knapen_AOT/AOT_stimuli/rescaled_final/0843_rv.mp4	0.0	303.22229957580566	0.10005378723144531
60	262.2640347480774	fix_pre	0		120	58.0	2.5	/experiments/knapen_AOT/AOT_stimuli/rescaled_final/1160_rv.mp4	0.0	303.3223533630371	1.0085089206695557
60	262.447585105896	pulse	0	t		58.0	2.5	/experiments/knapen_AOT/AOT_stimuli/rescaled_final/1160_rv.mp4	0.0	303.5059037208557	
60	263.27254366874695	movie	1		265	58.0	2.5	/experiments/knapen_AOT/AOT_stimuli/rescaled_final/1160_rv.mp4	0.0	304.33086228370667	2.4921045303344727
60	264.04551935195923	pulse	1	t		58.0	2.5	/experiments/knapen_AOT/AOT_stimuli/rescaled_final/1160_rv.mp4	0.0	305.10383796691895	
60	265.64606189727783	pulse	1	t		58.0	2.5	/experiments/knapen_AOT/AOT_stimuli/rescaled_final/1160_rv.mp4	0.0	306.70438051223755	
60	265.7646481990814	fix_post	2		12	58.0	2.5	/experiments/knapen_AOT/AOT_stimuli/rescaled_final/1160_rv.mp4	0.0	306.82296681404114	0.09988546371459961
61	265.864533662796	fix_pre	0		120	59.0	2.5	/experiments/knapen_AOT/AOT_stimuli/rescaled_final/0102_rv.mp4	0.0	306.92285227775574	1.008502721786499
61	266.8730363845825	movie	1		288	59.0	2.5	/experiments/knapen_AOT/AOT_stimuli/rescaled_final/0102_rv.mp4	0.0	307.93135499954224	2.4920296669006348
61	267.2468149662018	pulse	1	t		59.0	2.5	/experiments/knapen_AOT/AOT_stimuli/rescaled_final/0102_rv.mp4	0.0	308.3051335811615	
61	268.84651613235474	pulse	1	t		59.0	2.5	/experiments/knapen_AOT/AOT_stimuli/rescaled_final/0102_rv.mp4	0.0	309.90483474731445	
61	269.36506605148315	fix_post	2		12	59.0	2.5	/experiments/knapen_AOT/AOT_stimuli/rescaled_final/0102_rv.mp4	0.0	310.42338466644287	0.10006380081176758
62	269.4651298522949	fix_pre	0		119	60.0	2.5	/experiments/knapen_AOT/AOT_stimuli/rescaled_final/2102_rv.mp4	0.0	310.52344846725464	1.0001208782196045
62	270.4487977027893	pulse	0	t		60.0	2.5	/experiments/knapen_AOT/AOT_stimuli/rescaled_final/2102_rv.mp4	0.0	311.507116317749	
62	270.4652507305145	movie	1		282	60.0	2.5	/experiments/knapen_AOT/AOT_stimuli/rescaled_final/2102_rv.mp4	0.0	311.52356934547424	2.5003578662872314
62	272.0474247932434	pulse	1	t		60.0	2.5	/experiments/knapen_AOT/AOT_stimuli/rescaled_final/2102_rv.mp4	0.0	313.1057434082031	
62	272.96560859680176	fix_post	2		12	60.0	2.5	/experiments/knapen_AOT/AOT_stimuli/rescaled_final/2102_rv.mp4	0.0	314.0239272117615	0.10001778602600098
63	273.06562638282776	fix_pre	0		120	61.0	2.5	blank	1.0	314.1239449977875	1.0002760887145996
63	273.6493101119995	pulse	0	t		61.0	2.5	blank	1.0	314.70762872695923	
63	274.06590247154236	movie	1		300	61.0	2.5	blank	1.0	315.1242210865021	2.5002517700195312
63	275.24956464767456	pulse	1	t		61.0	2.5	blank	1.0	316.3078832626343	
63	276.5661542415619	fix_post	2		12	61.0	2.5	blank	1.0	317.6244728565216	0.10001778602600098
64	276.6661720275879	fix_pre	0		120	62.0	2.5	/experiments/knapen_AOT/AOT_stimuli/rescaled_final/2138_fw.mp4	0.0	317.7244906425476	1.0085482597351074
64	276.84977316856384	pulse	0	t		62.0	2.5	/experiments/knapen_AOT/AOT_stimuli/rescaled_final/2138_fw.mp4	0.0	317.90809178352356	
64	277.674720287323	movie	1		269	62.0	2.5	/experiments/knapen_AOT/AOT_stimuli/rescaled_final/2138_fw.mp4	0.0	318.7330389022827	2.491968870162964
64	278.4495253562927	pulse	1	t		62.0	2.5	/experiments/knapen_AOT/AOT_stimuli/rescaled_final/2138_fw.mp4	0.0	319.50784397125244	
64	280.0482201576233	pulse	1	t		62.0	2.5	/experiments/knapen_AOT/AOT_stimuli/rescaled_final/2138_fw.mp4	0.0	321.106538772583	
64	280.16668915748596	fix_post	2		12	62.0	2.5	/experiments/knapen_AOT/AOT_stimuli/rescaled_final/2138_fw.mp4	0.0	321.2250077724457	0.10002517700195312
65	280.2667143344879	fix_pre	0		120	63.0	2.5	/experiments/knapen_AOT/AOT_stimuli/rescaled_final/1383_rv.mp4	0.0	321.32503294944763	1.0084912776947021
65	281.2752056121826	movie	1		269	63.0	2.5	/experiments/knapen_AOT/AOT_stimuli/rescaled_final/1383_rv.mp4	0.0	322.33352422714233	2.492022752761841
65	281.6506471633911	pulse	1	t		63.0	2.5	/experiments/knapen_AOT/AOT_stimuli/rescaled_final/1383_rv.mp4	0.0	322.70896577835083	
65	283.24866342544556	pulse	1	t		63.0	2.5	/experiments/knapen_AOT/AOT_stimuli/rescaled_final/1383_rv.mp4	0.0	324.3069820404053	
65	283.76722836494446	fix_post	2		12	63.0	2.5	/experiments/knapen_AOT/AOT_stimuli/rescaled_final/1383_rv.mp4	0.0	324.8255469799042	0.10004472732543945
66	283.8672730922699	fix_pre	0		119	64.0	2.5	/experiments/knapen_AOT/AOT_stimuli/rescaled_final/1356_fw.mp4	0.0	324.9255917072296	1.0001392364501953
66	284.8511550426483	pulse	0	t		64.0	2.5	/experiments/knapen_AOT/AOT_stimuli/rescaled_final/1356_fw.mp4	0.0	325.90947365760803	
66	284.8674123287201	movie	1		286	64.0	2.5	/experiments/knapen_AOT/AOT_stimuli/rescaled_final/1356_fw.mp4	0.0	325.9257309436798	2.500476121902466
66	286.4499545097351	pulse	1	t		64.0	2.5	/experiments/knapen_AOT/AOT_stimuli/rescaled_final/1356_fw.mp4	0.0	327.5082731246948	
66	287.36788845062256	fix_post	2		12	64.0	2.5	/experiments/knapen_AOT/AOT_stimuli/rescaled_final/1356_fw.mp4	0.0	328.4262070655823	0.09990906715393066
67	287.4677975177765	fix_pre	0		120	65.0	2.5	/experiments/knapen_AOT/AOT_stimuli/rescaled_final/1908_rv.mp4	0.0	328.5261161327362	1.0085046291351318
67	288.051456451416	pulse	0	t		65.0	2.5	/experiments/knapen_AOT/AOT_stimuli/rescaled_final/1908_rv.mp4	0.0	329.10977506637573	
67	288.4763021469116	movie	1		294	65.0	2.5	/experiments/knapen_AOT/AOT_stimuli/rescaled_final/1908_rv.mp4	0.0	329.53462076187134	2.4920220375061035
67	289.64983439445496	pulse	1	t		65.0	2.5	/experiments/knapen_AOT/AOT_stimuli/rescaled_final/1908_rv.mp4	0.0	330.7081530094147	
67	290.9683241844177	fix_post	2		12	65.0	2.5	/experiments/knapen_AOT/AOT_stimuli/rescaled_final/1908_rv.mp4	0.0	332.02664279937744	0.10011839866638184
68	291.0684425830841	fix_pre	0		120	66.0	2.5	/experiments/knapen_AOT/AOT_stimuli/rescaled_final/0096_fw.mp4	0.0	332.1267611980438	1.0084342956542969
68	291.2519745826721	pulse	0	t		66.0	2.5	/experiments/knapen_AOT/AOT_stimuli/rescaled_final/0096_fw.mp4	0.0	332.31029319763184	
68	292.0768768787384	movie	1		277	66.0	2.5	/experiments/knapen_AOT/AOT_stimuli/rescaled_final/0096_fw.mp4	0.0	333.1351954936981	2.49198055267334
68	292.8502230644226	pulse	1	t		66.0	2.5	/experiments/knapen_AOT/AOT_stimuli/rescaled_final/0096_fw.mp4	0.0	333.9085416793823	
68	294.4505248069763	pulse	1	t		66.0	2.5	/experiments/knapen_AOT/AOT_stimuli/rescaled_final/0096_fw.mp4	0.0	335.50884342193604	
68	294.56885743141174	fix_post	2		12	66.0	2.5	/experiments/knapen_AOT/AOT_stimuli/rescaled_final/0096_fw.mp4	0.0	335.62717604637146	0.10004782676696777
69	294.6689052581787	fix_pre	0		120	67.0	2.5	/experiments/knapen_AOT/AOT_stimuli/rescaled_final/0900_rv.mp4	0.0	335.7272238731384	1.008470058441162
69	295.6773753166199	movie	1		281	67.0	2.5	/experiments/knapen_AOT/AOT_stimuli/rescaled_final/0900_rv.mp4	0.0	336.7356939315796	2.4920334815979004
69	296.05071997642517	pulse	1	t		67.0	2.5	/experiments/knapen_AOT/AOT_stimuli/rescaled_final/0900_rv.mp4	0.0	337.1090385913849	
69	297.65132546424866	pulse	1	t		67.0	2.5	/experiments/knapen_AOT/AOT_stimuli/rescaled_final/0900_rv.mp4	0.0	338.7096440792084	
69	298.1694087982178	fix_post	2		12	67.0	2.5	/experiments/knapen_AOT/AOT_stimuli/rescaled_final/0900_rv.mp4	0.0	339.2277274131775	0.10001516342163086
70	298.2694239616394	fix_pre	0		119	68.0	2.5	/experiments/knapen_AOT/AOT_stimuli/rescaled_final/1112_rv.mp4	0.0	339.3277425765991	1.0001780986785889
70	299.2462854385376	pulse	0	t		68.0	2.5	/experiments/knapen_AOT/AOT_stimuli/rescaled_final/1112_rv.mp4	0.0	340.3046040534973	
70	299.269602060318	movie	1		278	68.0	2.5	/experiments/knapen_AOT/AOT_stimuli/rescaled_final/1112_rv.mp4	0.0	340.3279206752777	2.5003466606140137
70	300.85187554359436	pulse	1	t		68.0	2.5	/experiments/knapen_AOT/AOT_stimuli/rescaled_final/1112_rv.mp4	0.0	341.9101941585541	
70	301.769948720932	fix_post	2		12	68.0	2.5	/experiments/knapen_AOT/AOT_stimuli/rescaled_final/1112_rv.mp4	0.0	342.8282673358917	0.1000056266784668
71	301.8699543476105	fix_pre	0		120	69.0	2.5	blank	1.0	342.9282729625702	1.0002150535583496
71	302.44541573524475	pulse	0	t		69.0	2.5	blank	1.0	343.50373435020447	
71	302.8701694011688	movie	1		300	69.0	2.5	blank	1.0	343.92848801612854	2.5002992153167725
71	304.04554510116577	pulse	1	t		69.0	2.5	blank	1.0	345.1038637161255	
71	305.3704686164856	fix_post	2		12	69.0	2.5	blank	1.0	346.4287872314453	0.10003042221069336
72	305.4704990386963	fix_pre	0		120	70.0	2.5	/experiments/knapen_AOT/AOT_stimuli/rescaled_final/2008_rv.mp4	0.0	346.528817653656	1.0084872245788574
72	305.64573645591736	pulse	0	t		70.0	2.5	/experiments/knapen_AOT/AOT_stimuli/rescaled_final/2008_rv.mp4	0.0	346.7040550708771	
72	306.47898626327515	movie	1		284	70.0	2.5	/experiments/knapen_AOT/AOT_stimuli/rescaled_final/2008_rv.mp4	0.0	347.53730487823486	2.492034673690796
72	307.24598717689514	pulse	1	t		70.0	2.5	/experiments/knapen_AOT/AOT_stimuli/rescaled_final/2008_rv.mp4	0.0	348.30430579185486	
72	308.84623527526855	pulse	1	t		70.0	2.5	/experiments/knapen_AOT/AOT_stimuli/rescaled_final/2008_rv.mp4	0.0	349.90455389022827	
72	308.97102093696594	fix_post	2		12	70.0	2.5	/experiments/knapen_AOT/AOT_stimuli/rescaled_final/2008_rv.mp4	0.0	350.02933955192566	0.10001802444458008
73	309.0710389614105	fix_pre	0		120	71.0	2.5	/experiments/knapen_AOT/AOT_stimuli/rescaled_final/2135_fw.mp4	0.0	350.12935757637024	1.008502721786499
73	310.079541683197	movie	1		278	71.0	2.5	/experiments/knapen_AOT/AOT_stimuli/rescaled_final/2135_fw.mp4	0.0	351.13786029815674	2.492046594619751
73	310.4465699195862	pulse	1	t		71.0	2.5	/experiments/knapen_AOT/AOT_stimuli/rescaled_final/2135_fw.mp4	0.0	351.5048885345459	
73	312.046728849411	pulse	1	t		71.0	2.5	/experiments/knapen_AOT/AOT_stimuli/rescaled_final/2135_fw.mp4	0.0	353.1050474643707	
73	312.5715882778168	fix_post	2		12	71.0	2.5	/experiments/knapen_AOT/AOT_stimuli/rescaled_final/2135_fw.mp4	0.0	353.6299068927765	0.10002899169921875
74	312.671617269516	fix_pre	0		118	72.0	2.5	/experiments/knapen_AOT/AOT_stimuli/rescaled_final/1710_rv.mp4	0.0	353.7299358844757	0.9918451309204102
74	313.6469578742981	pulse	0	t		72.0	2.5	/experiments/knapen_AOT/AOT_stimuli/rescaled_final/1710_rv.mp4	0.0	354.7052764892578	
74	313.6634624004364	movie	1		270	72.0	2.5	/experiments/knapen_AOT/AOT_stimuli/rescaled_final/1710_rv.mp4	0.0	354.7217810153961	2.500371217727661
74	315.2454869747162	pulse	1	t		72.0	2.5	/experiments/knapen_AOT/AOT_stimuli/rescaled_final/1710_rv.mp4	0.0	356.3038055896759	
74	316.16383361816406	fix_post	2		12	72.0	2.5	/experiments/knapen_AOT/AOT_stimuli/rescaled_final/1710_rv.mp4	0.0	357.2221522331238	0.0999603271484375
75	316.2637939453125	fix_pre	0		120	73.0	2.5	/experiments/knapen_AOT/AOT_stimuli/rescaled_final/2135_fw.mp4	0.0	357.3221125602722	1.0084960460662842
75	316.84748101234436	pulse	0	t		73.0	2.5	/experiments/knapen_AOT/AOT_stimuli/rescaled_final/2135_fw.mp4	0.0	357.9057996273041	
75	317.2722899913788	movie	1		273	73.0	2.5	/experiments/knapen_AOT/AOT_stimuli/rescaled_final/2135_fw.mp4	0.0	358.3306086063385	2.4920098781585693
75	318.4488527774811	pulse	1	t		73.0	2.5	/experiments/knapen_AOT/AOT_stimuli/rescaled_final/2135_fw.mp4	0.0	359.5071713924408	
75	319.76429986953735	fix_post	2		12	73.0	2.5	/experiments/knapen_AOT/AOT_stimuli/rescaled_final/2135_fw.mp4	0.0	360.82261848449707	0.1001272201538086
76	319.86442708969116	fix_pre	0		120	74.0	2.5	/experiments/knapen_AOT/AOT_stimuli/rescaled_final/1532_fw.mp4	0.0	360.9227457046509	1.0084028244018555
76	320.0479497909546	pulse	0	t		74.0	2.5	/experiments/knapen_AOT/AOT_stimuli/rescaled_final/1532_fw.mp4	0.0	361.1062684059143	
76	320.872829914093	movie	1		284	74.0	2.5	/experiments/knapen_AOT/AOT_stimuli/rescaled_final/1532_fw.mp4	0.0	361.93114852905273	2.492051601409912
76	321.64595246315	pulse	1	t		74.0	2.5	/experiments/knapen_AOT/AOT_stimuli/rescaled_final/1532_fw.mp4	0.0	362.70427107810974	
76	323.24665689468384	pulse	1	t		74.0	2.5	/experiments/knapen_AOT/AOT_stimuli/rescaled_final/1532_fw.mp4	0.0	364.30497550964355	
76	323.36488151550293	fix_post	2		12	74.0	2.5	/experiments/knapen_AOT/AOT_stimuli/rescaled_final/1532_fw.mp4	0.0	364.42320013046265	0.0999603271484375
77	323.46484184265137	fix_pre	0		120	75.0	2.5	/experiments/knapen_AOT/AOT_stimuli/rescaled_final/0636_fw.mp4	0.0	364.5231604576111	1.0085811614990234
77	324.4734230041504	movie	1		287	75.0	2.5	/experiments/knapen_AOT/AOT_stimuli/rescaled_final/0636_fw.mp4	0.0	365.5317416191101	2.4919939041137695
77	324.8473262786865	pulse	1	t		75.0	2.5	/experiments/knapen_AOT/AOT_stimuli/rescaled_final/0636_fw.mp4	0.0	365.90564489364624	
77	326.4468264579773	pulse	1	t		75.0	2.5	/experiments/knapen_AOT/AOT_stimuli/rescaled_final/0636_fw.mp4	0.0	367.505145072937	
77	326.96541690826416	fix_post	2		12	75.0	2.5	/experiments/knapen_AOT/AOT_stimuli/rescaled_final/0636_fw.mp4	0.0	368.0237355232239	0.09999728202819824
78	327.06541419029236	fix_pre	0		119	76.0	2.5	/experiments/knapen_AOT/AOT_stimuli/rescaled_final/1657_fw.mp4	0.0	368.1237328052521	1.0002679824829102
78	328.04932856559753	pulse	0	t		76.0	2.5	/experiments/knapen_AOT/AOT_stimuli/rescaled_final/1657_fw.mp4	0.0	369.10764718055725	
78	328.06568217277527	movie	1		277	76.0	2.5	/experiments/knapen_AOT/AOT_stimuli/rescaled_final/1657_fw.mp4	0.0	369.124000787735	2.500288248062134
78	329.64772367477417	pulse	1	t		76.0	2.5	/experiments/knapen_AOT/AOT_stimuli/rescaled_final/1657_fw.mp4	0.0	370.7060422897339	
78	330.5659704208374	fix_post	2		12	76.0	2.5	/experiments/knapen_AOT/AOT_stimuli/rescaled_final/1657_fw.mp4	0.0	371.6242890357971	0.10001540184020996
79	330.6659858226776	fix_pre	0		120	77.0	2.5	blank	1.0	371.72430443763733	1.0001013278961182
79	331.2496018409729	pulse	0	t		77.0	2.5	blank	1.0	372.3079204559326	
79	331.66608715057373	movie	1		300	77.0	2.5	blank	1.0	372.72440576553345	2.5003774166107178
79	332.8498854637146	pulse	1	t		77.0	2.5	blank	1.0	373.9082040786743	
79	334.16646456718445	fix_post	2		12	77.0	2.5	blank	1.0	375.22478318214417	0.1000368595123291
80	334.2665014266968	fix_pre	0		120	78.0	2.5	/experiments/knapen_AOT/AOT_stimuli/rescaled_final/1535_fw.mp4	0.0	375.3248200416565	1.008514642715454
80	334.4500274658203	pulse	0	t		78.0	2.5	/experiments/knapen_AOT/AOT_stimuli/rescaled_final/1535_fw.mp4	0.0	375.50834608078003	
80	335.27501606941223	movie	1		282	78.0	2.5	/experiments/knapen_AOT/AOT_stimuli/rescaled_final/1535_fw.mp4	0.0	376.33333468437195	2.4919960498809814
80	336.0486719608307	pulse	1	t		78.0	2.5	/experiments/knapen_AOT/AOT_stimuli/rescaled_final/1535_fw.mp4	0.0	377.1069905757904	
80	337.65092277526855	pulse	1	t		78.0	2.5	/experiments/knapen_AOT/AOT_stimuli/rescaled_final/1535_fw.mp4	0.0	378.70924139022827	
80	337.7670121192932	fix_post	2		12	78.0	2.5	/experiments/knapen_AOT/AOT_stimuli/rescaled_final/1535_fw.mp4	0.0	378.82533073425293	0.10003423690795898
81	337.8670463562012	fix_pre	0		120	79.0	2.5	/experiments/knapen_AOT/AOT_stimuli/rescaled_final/0905_fw.mp4	0.0	378.9253649711609	1.0084800720214844
81	338.87552642822266	movie	1		276	79.0	2.5	/experiments/knapen_AOT/AOT_stimuli/rescaled_final/0905_fw.mp4	0.0	379.9338450431824	2.492029905319214
81	339.2489631175995	pulse	1	t		79.0	2.5	/experiments/knapen_AOT/AOT_stimuli/rescaled_final/0905_fw.mp4	0.0	380.3072817325592	
81	340.84910583496094	pulse	1	t		79.0	2.5	/experiments/knapen_AOT/AOT_stimuli/rescaled_final/0905_fw.mp4	0.0	381.90742444992065	
81	341.36755633354187	fix_post	2		12	79.0	2.5	/experiments/knapen_AOT/AOT_stimuli/rescaled_final/0905_fw.mp4	0.0	382.4258749485016	0.10001230239868164
82	341.46756863594055	fix_pre	0		119	80.0	2.5	/experiments/knapen_AOT/AOT_stimuli/rescaled_final/1232_rv.mp4	0.0	382.52588725090027	1.0002388954162598
82	342.4512732028961	pulse	0	t		80.0	2.5	/experiments/knapen_AOT/AOT_stimuli/rescaled_final/1232_rv.mp4	0.0	383.50959181785583	
82	342.4678075313568	movie	1		271	80.0	2.5	/experiments/knapen_AOT/AOT_stimuli/rescaled_final/1232_rv.mp4	0.0	383.5261261463165	2.5002872943878174
82	344.04993963241577	pulse	1	t		80.0	2.5	/experiments/knapen_AOT/AOT_stimuli/rescaled_final/1232_rv.mp4	0.0	385.1082582473755	
82	344.96809482574463	fix_post	2		12	80.0	2.5	/experiments/knapen_AOT/AOT_stimuli/rescaled_final/1232_rv.mp4	0.0	386.02641344070435	0.10001492500305176
83	345.0681097507477	fix_pre	0		120	81.0	2.5	/experiments/knapen_AOT/AOT_stimuli/rescaled_final/1695_fw.mp4	0.0	386.1264283657074	1.0085201263427734
83	345.651748418808	pulse	0	t		81.0	2.5	/experiments/knapen_AOT/AOT_stimuli/rescaled_final/1695_fw.mp4	0.0	386.7100670337677	
83	346.07662987709045	movie	1		277	81.0	2.5	/experiments/knapen_AOT/AOT_stimuli/rescaled_final/1695_fw.mp4	0.0	387.13494849205017	2.4920125007629395
83	347.2525610923767	pulse	1	t		81.0	2.5	/experiments/knapen_AOT/AOT_stimuli/rescaled_final/1695_fw.mp4	0.0	388.3108797073364	
83	348.5686423778534	fix_post	2		12	81.0	2.5	/experiments/knapen_AOT/AOT_stimuli/rescaled_final/1695_fw.mp4	0.0	389.6269609928131	0.10007071495056152
84	348.66871309280396	fix_pre	0		120	82.0	2.5	blank	1.0	389.7270317077637	1.0001130104064941
84	348.85220885276794	pulse	0	t		82.0	2.5	blank	1.0	389.91052746772766	
84	349.66882610321045	movie	1		300	82.0	2.5	blank	1.0	390.72714471817017	2.5003552436828613
84	350.45259046554565	pulse	1	t		82.0	2.5	blank	1.0	391.51090908050537	
84	352.05281138420105	pulse	1	t		82.0	2.5	blank	1.0	393.11112999916077	
84	352.1691813468933	fix_post	2		12	82.0	2.5	blank	1.0	393.227499961853	0.10001778602600098
85	352.2691991329193	fix_pre	0		120	83.0	2.5	/experiments/knapen_AOT/AOT_stimuli/rescaled_final/1664_fw.mp4	0.0	393.327517747879	1.0085525512695312
85	353.27775168418884	movie	1		287	83.0	2.5	/experiments/knapen_AOT/AOT_stimuli/rescaled_final/1664_fw.mp4	0.0	394.33607029914856	2.492032051086426
85	353.6519498825073	pulse	1	t		83.0	2.5	/experiments/knapen_AOT/AOT_stimuli/rescaled_final/1664_fw.mp4	0.0	394.71026849746704	
85	355.2513937950134	pulse	1	t		83.0	2.5	/experiments/knapen_AOT/AOT_stimuli/rescaled_final/1664_fw.mp4	0.0	396.30971240997314	
85	355.76978373527527	fix_post	2		12	83.0	2.5	/experiments/knapen_AOT/AOT_stimuli/rescaled_final/1664_fw.mp4	0.0	396.828102350235	0.09997296333312988
87	355.8697566986084	stim	0		1716					396.9280753135681	14.302118062973022
87	356.84611463546753	pulse	0	t						397.90443325042725	
87	358.4473547935486	pulse	0	t						399.5056734085083	
87	360.0457663536072	pulse	0	t						401.1040849685669	
87	361.6461834907532	pulse	0	t						402.7045021057129	
87	363.2461733818054	pulse	0	t						404.30449199676514	
87	364.8463659286499	pulse	0	t						405.9046845436096	
87	366.446631193161	pulse	0	t						407.5049498081207	
87	368.0468385219574	pulse	0	t						409.1051571369171	
87	369.64716243743896	pulse	0	t						410.7054810523987	
