trial_nr	onset	event_type	phase	response	nr_frames	movie_index	movie_duration	movie_file	blank	onset_abs	duration
0	0.16663384437561035	stim	0		161					24.570088863372803	1.3415942192077637
0	1.5001020431518555	response	0	space						25.903557062149048	
1	1.508228063583374	stim	0		4398					25.911683082580566	36.64990186691284
1	38.15323495864868	pulse	0	t						62.556689977645874	
1	38.158129930496216	stim	1		1717					62.56158494949341	14.308263063430786
1	39.74986290931702	pulse	1	t						64.15331792831421	
1	41.34242606163025	pulse	1	t						65.74588108062744	
1	42.942375898361206	pulse	1	t						67.3458309173584	
1	44.54251194000244	pulse	1	t						68.94596695899963	
1	46.14223003387451	pulse	1	t						70.5456850528717	
1	47.742318868637085	pulse	1	t						72.14577388763428	
1	49.34970498085022	pulse	1	t						73.75315999984741	
1	50.94970893859863	pulse	1	t						75.35316395759583	
2	52.466392993927	fix_pre	0		11	0.0	2.5	/experiments/aot/S_pexels-cottonbro-9063801_1.mp4	0.0	76.8698480129242	0.09165501594543457
2	52.54981589317322	pulse	0	t		0.0	2.5	/experiments/aot/S_pexels-cottonbro-9063801_1.mp4	0.0	76.95327091217041	
2	52.55804800987244	movie	1		164	0.0	2.5	/experiments/aot/S_pexels-cottonbro-9063801_1.mp4	0.0	76.96150302886963	2.5083160400390625
2	54.150672912597656	pulse	1	t		0.0	2.5	/experiments/aot/S_pexels-cottonbro-9063801_1.mp4	0.0	78.55412793159485	
2	55.0663640499115	fix_post	2		12	0.0	2.5	/experiments/aot/S_pexels-cottonbro-9063801_1.mp4	0.0	79.46981906890869	0.10002398490905762
3	55.16638803482056	fix_pre	0		120	1.0	2.5	/experiments/aot/R_S_yt-rZA9zXR-A6s_426.mp4	0.0	79.56984305381775	0.9998760223388672
3	55.74980092048645	pulse	0	t		1.0	2.5	/experiments/aot/R_S_yt-rZA9zXR-A6s_426.mp4	0.0	80.15325593948364	
3	56.166264057159424	movie	1		300	1.0	2.5	/experiments/aot/R_S_yt-rZA9zXR-A6s_426.mp4	0.0	80.56971907615662	2.5001018047332764
3	57.349830865859985	pulse	1	t		1.0	2.5	/experiments/aot/R_S_yt-rZA9zXR-A6s_426.mp4	0.0	81.75328588485718	
3	58.6663658618927	fix_post	2		12	1.0	2.5	/experiments/aot/R_S_yt-rZA9zXR-A6s_426.mp4	0.0	83.06982088088989	0.10002517700195312
4	58.76639103889465	fix_pre	0		120	2.0	2.5	/experiments/aot/S_yt-SHTeTAnZgho_43.mp4	0.0	83.16984605789185	1.0000028610229492
4	58.942424058914185	pulse	0	t		2.0	2.5	/experiments/aot/S_yt-SHTeTAnZgho_43.mp4	0.0	83.34587907791138	
4	59.7663938999176	movie	1		300	2.0	2.5	/experiments/aot/S_yt-SHTeTAnZgho_43.mp4	0.0	84.1698489189148	2.4994900226593018
4	60.54239106178284	pulse	1	t		2.0	2.5	/experiments/aot/S_yt-SHTeTAnZgho_43.mp4	0.0	84.94584608078003	
4	62.14225888252258	pulse	1	t		2.0	2.5	/experiments/aot/S_yt-SHTeTAnZgho_43.mp4	0.0	86.54571390151978	
4	62.265883922576904	fix_post	2		12	2.0	2.5	/experiments/aot/S_yt-SHTeTAnZgho_43.mp4	0.0	86.6693389415741	0.10007405281066895
5	62.36595797538757	fix_pre	0		120	3.0	2.5	/experiments/aot/S_yt-83nimFMNhrM_131.mp4	0.0	86.76941299438477	1.0005929470062256
5	63.3665509223938	movie	1		300	3.0	2.5	/experiments/aot/S_yt-83nimFMNhrM_131.mp4	0.0	87.77000594139099	2.4997479915618896
5	63.74225306510925	pulse	1	t		3.0	2.5	/experiments/aot/S_yt-83nimFMNhrM_131.mp4	0.0	88.14570808410645	
5	65.34237885475159	pulse	1	t		3.0	2.5	/experiments/aot/S_yt-83nimFMNhrM_131.mp4	0.0	89.74583387374878	
5	65.86629891395569	fix_post	2		12	3.0	2.5	/experiments/aot/S_yt-83nimFMNhrM_131.mp4	0.0	90.26975393295288	0.0999760627746582
6	65.96627497673035	fix_pre	0		119	4.0	2.5	/experiments/aot/R_S_yt-rB3YVZvA78w_20.mp4	0.0	90.36972999572754	0.991642951965332
6	66.94974493980408	pulse	0	t		4.0	2.5	/experiments/aot/R_S_yt-rB3YVZvA78w_20.mp4	0.0	91.35319995880127	
6	66.95791792869568	movie	1		301	4.0	2.5	/experiments/aot/R_S_yt-rB3YVZvA78w_20.mp4	0.0	91.36137294769287	2.5083389282226562
6	68.54563498497009	pulse	1	t		4.0	2.5	/experiments/aot/R_S_yt-rB3YVZvA78w_20.mp4	0.0	92.94909000396729	
6	69.46625685691833	fix_post	2		12	4.0	2.5	/experiments/aot/R_S_yt-rB3YVZvA78w_20.mp4	0.0	93.86971187591553	0.09998703002929688
7	69.56624388694763	fix_pre	0		120	5.0	2.5	blank	1.0	93.96969890594482	0.9999880790710449
7	70.149729013443	pulse	0	t		5.0	2.5	blank	1.0	94.55318403244019	
7	70.56623196601868	movie	1		300	5.0	2.5	blank	1.0	94.96968698501587	2.5000429153442383
7	71.74976301193237	pulse	1	t		5.0	2.5	blank	1.0	96.15321803092957	
7	73.06627488136292	fix_post	2		12	5.0	2.5	blank	1.0	97.46972990036011	0.09995007514953613
8	73.16622495651245	fix_pre	0		120	6.0	2.5	/experiments/aot/R_S_yt-ybH6uAiFbjc_273.mp4	0.0	97.56967997550964	0.999993085861206
8	73.34971690177917	pulse	0	t		6.0	2.5	/experiments/aot/R_S_yt-ybH6uAiFbjc_273.mp4	0.0	97.75317192077637	
8	74.16621804237366	movie	1		300	6.0	2.5	/experiments/aot/R_S_yt-ybH6uAiFbjc_273.mp4	0.0	98.56967306137085	2.5000319480895996
8	74.9429829120636	pulse	1	t		6.0	2.5	/experiments/aot/R_S_yt-ybH6uAiFbjc_273.mp4	0.0	99.34643793106079	
8	76.54923701286316	pulse	1	t		6.0	2.5	/experiments/aot/R_S_yt-ybH6uAiFbjc_273.mp4	0.0	100.95269203186035	
8	76.66624999046326	fix_post	2		12	6.0	2.5	/experiments/aot/R_S_yt-ybH6uAiFbjc_273.mp4	0.0	101.06970500946045	0.09998393058776855
9	76.76623392105103	fix_pre	0		120	7.0	2.5	/experiments/aot/R_S_yt-wIZprsJwxBM_298.mp4	0.0	101.16968894004822	0.9999809265136719
9	77.7662148475647	movie	1		300	7.0	2.5	/experiments/aot/R_S_yt-wIZprsJwxBM_298.mp4	0.0	102.16966986656189	2.5000250339508057
9	78.1422848701477	pulse	1	t		7.0	2.5	/experiments/aot/R_S_yt-wIZprsJwxBM_298.mp4	0.0	102.5457398891449	
9	79.7423038482666	pulse	1	t		7.0	2.5	/experiments/aot/R_S_yt-wIZprsJwxBM_298.mp4	0.0	104.1457588672638	
9	80.2662398815155	fix_post	2		12	7.0	2.5	/experiments/aot/R_S_yt-wIZprsJwxBM_298.mp4	0.0	104.6696949005127	0.09995913505554199
10	80.36619901657104	fix_pre	0		119	8.0	2.5	/experiments/aot/R_S_ILSVRC2015_train_00042002.mp4	0.0	104.76965403556824	0.9916558265686035
10	81.34970593452454	pulse	0	t		8.0	2.5	/experiments/aot/R_S_ILSVRC2015_train_00042002.mp4	0.0	105.75316095352173	
10	81.35785484313965	movie	1		301	8.0	2.5	/experiments/aot/R_S_ILSVRC2015_train_00042002.mp4	0.0	105.76130986213684	2.5083892345428467
10	82.94545006752014	pulse	1	t		8.0	2.5	/experiments/aot/R_S_ILSVRC2015_train_00042002.mp4	0.0	107.34890508651733	
10	83.8662440776825	fix_post	2		12	8.0	2.5	/experiments/aot/R_S_ILSVRC2015_train_00042002.mp4	0.0	108.26969909667969	0.09994697570800781
11	83.9661910533905	fix_pre	0		120	9.0	2.5	/experiments/aot/S_wc-7ugQ0V4lxYkJ_131.mp4	0.0	108.3696460723877	1.000046968460083
11	84.54971694946289	pulse	0	t		9.0	2.5	/experiments/aot/S_wc-7ugQ0V4lxYkJ_131.mp4	0.0	108.95317196846008	
11	84.96623802185059	movie	1		300	9.0	2.5	/experiments/aot/S_wc-7ugQ0V4lxYkJ_131.mp4	0.0	109.36969304084778	2.4998998641967773
11	86.14962387084961	pulse	1	t		9.0	2.5	/experiments/aot/S_wc-7ugQ0V4lxYkJ_131.mp4	0.0	110.5530788898468	
11	87.46613788604736	fix_post	2		12	9.0	2.5	/experiments/aot/S_wc-7ugQ0V4lxYkJ_131.mp4	0.0	111.86959290504456	0.1000361442565918
12	87.56617403030396	fix_pre	0		120	10.0	2.5	/experiments/aot/S_yt-25xuzTBhwPk_109.mp4	0.0	111.96962904930115	0.999931812286377
12	87.74970889091492	pulse	0	t		10.0	2.5	/experiments/aot/S_yt-25xuzTBhwPk_109.mp4	0.0	112.15316390991211	
12	88.56610584259033	movie	1		300	10.0	2.5	/experiments/aot/S_yt-25xuzTBhwPk_109.mp4	0.0	112.96956086158752	2.5000431537628174
12	89.34970188140869	pulse	1	t		10.0	2.5	/experiments/aot/S_yt-25xuzTBhwPk_109.mp4	0.0	113.75315690040588	
12	90.9496500492096	pulse	1	t		10.0	2.5	/experiments/aot/S_yt-25xuzTBhwPk_109.mp4	0.0	115.35310506820679	
12	91.06614899635315	fix_post	2		12	10.0	2.5	/experiments/aot/S_yt-25xuzTBhwPk_109.mp4	0.0	115.46960401535034	0.09992289543151855
13	91.16607189178467	fix_pre	0		120	11.0	2.5	/experiments/aot/S_pexels-anthony-shkraba-production-8135459.mp4	0.0	115.56952691078186	1.0001561641693115
13	92.16622805595398	movie	1		161	11.0	2.5	/experiments/aot/S_pexels-anthony-shkraba-production-8135459.mp4	0.0	116.56968307495117	2.499847888946533
13	92.54262495040894	pulse	1	t		11.0	2.5	/experiments/aot/S_pexels-anthony-shkraba-production-8135459.mp4	0.0	116.94607996940613	
13	94.14964604377747	pulse	1	t		11.0	2.5	/experiments/aot/S_pexels-anthony-shkraba-production-8135459.mp4	0.0	118.55310106277466	
13	94.66607594490051	fix_post	2		12	11.0	2.5	/experiments/aot/S_pexels-anthony-shkraba-production-8135459.mp4	0.0	119.0695309638977	0.10000896453857422
14	94.76608490943909	fix_pre	0		119	12.0	2.5	/experiments/aot/S_yt-zKnjBBYWe90_369.mp4	0.0	119.16953992843628	0.9917261600494385
14	95.74210906028748	pulse	0	t		12.0	2.5	/experiments/aot/S_yt-zKnjBBYWe90_369.mp4	0.0	120.14556407928467	
14	95.75781106948853	movie	1		301	12.0	2.5	/experiments/aot/S_yt-zKnjBBYWe90_369.mp4	0.0	120.16126608848572	2.508232831954956
14	97.3454270362854	pulse	1	t		12.0	2.5	/experiments/aot/S_yt-zKnjBBYWe90_369.mp4	0.0	121.74888205528259	
14	98.26604390144348	fix_post	2		12	12.0	2.5	/experiments/aot/S_yt-zKnjBBYWe90_369.mp4	0.0	122.66949892044067	0.09999513626098633
15	98.36603903770447	fix_pre	0		120	13.0	2.5	blank	1.0	122.76949405670166	1.0000569820404053
15	98.9496169090271	pulse	0	t		13.0	2.5	blank	1.0	123.35307192802429	
15	99.36609601974487	movie	1		300	13.0	2.5	blank	1.0	123.76955103874207	2.500018835067749
15	100.54958987236023	pulse	1	t		13.0	2.5	blank	1.0	124.95304489135742	
15	101.86611485481262	fix_post	2		12	13.0	2.5	blank	1.0	126.26956987380981	0.09999203681945801
16	101.96610689163208	fix_pre	0		120	14.0	2.5	/experiments/aot/R_S_yt-aqrdb6BiFx4_12.mp4	0.0	126.36956191062927	1.0000290870666504
16	102.1495909690857	pulse	0	t		14.0	2.5	/experiments/aot/R_S_yt-aqrdb6BiFx4_12.mp4	0.0	126.55304598808289	
16	102.96613597869873	movie	1		300	14.0	2.5	/experiments/aot/R_S_yt-aqrdb6BiFx4_12.mp4	0.0	127.36959099769592	2.499933958053589
16	103.74955606460571	pulse	1	t		14.0	2.5	/experiments/aot/R_S_yt-aqrdb6BiFx4_12.mp4	0.0	128.1530110836029	
16	105.34957385063171	pulse	1	t		14.0	2.5	/experiments/aot/R_S_yt-aqrdb6BiFx4_12.mp4	0.0	129.7530288696289	
16	105.46606993675232	fix_post	2		12	14.0	2.5	/experiments/aot/R_S_yt-aqrdb6BiFx4_12.mp4	0.0	129.8695249557495	0.09995913505554199
17	105.56602907180786	fix_pre	0		120	15.0	2.5	/experiments/aot/R_S_SPNvf6JCjGw_123.mp4	0.0	129.96948409080505	1.0000298023223877
17	106.56605887413025	movie	1		300	15.0	2.5	/experiments/aot/R_S_SPNvf6JCjGw_123.mp4	0.0	130.96951389312744	2.500063180923462
17	106.942715883255	pulse	1	t		15.0	2.5	/experiments/aot/R_S_SPNvf6JCjGw_123.mp4	0.0	131.3461709022522	
17	108.54250907897949	pulse	1	t		15.0	2.5	/experiments/aot/R_S_SPNvf6JCjGw_123.mp4	0.0	132.94596409797668	
17	109.06612205505371	fix_post	2		12	15.0	2.5	/experiments/aot/R_S_SPNvf6JCjGw_123.mp4	0.0	133.4695770740509	0.09994101524353027
18	109.16606307029724	fix_pre	0		119	16.0	2.5	/experiments/aot/R_S_wc-1MzpHfRq1MUK_32.mp4	0.0	133.56951808929443	0.991661787033081
18	110.14957785606384	pulse	0	t		16.0	2.5	/experiments/aot/R_S_wc-1MzpHfRq1MUK_32.mp4	0.0	134.55303287506104	
18	110.15772485733032	movie	1		301	16.0	2.5	/experiments/aot/R_S_wc-1MzpHfRq1MUK_32.mp4	0.0	134.56117987632751	2.508423089981079
18	111.74516701698303	pulse	1	t		16.0	2.5	/experiments/aot/R_S_wc-1MzpHfRq1MUK_32.mp4	0.0	136.14862203598022	
18	112.6661479473114	fix_post	2		12	16.0	2.5	/experiments/aot/R_S_wc-1MzpHfRq1MUK_32.mp4	0.0	137.0696029663086	0.0999441146850586
19	112.76609206199646	fix_pre	0		120	17.0	2.5	/experiments/aot/R_S_yt-UzWRbs9Syf4_7.mp4	0.0	137.16954708099365	1.0000839233398438
19	113.34950685501099	pulse	0	t		17.0	2.5	/experiments/aot/R_S_yt-UzWRbs9Syf4_7.mp4	0.0	137.75296187400818	
19	113.7661759853363	movie	1		300	17.0	2.5	/experiments/aot/R_S_yt-UzWRbs9Syf4_7.mp4	0.0	138.1696310043335	2.499924898147583
19	114.94947099685669	pulse	1	t		17.0	2.5	/experiments/aot/R_S_yt-UzWRbs9Syf4_7.mp4	0.0	139.35292601585388	
19	116.26610088348389	fix_post	2		12	17.0	2.5	/experiments/aot/R_S_yt-UzWRbs9Syf4_7.mp4	0.0	140.66955590248108	0.09995603561401367
20	116.3660569190979	fix_pre	0		120	18.0	2.5	/experiments/aot/R_S_c5iVM3LI6kI_252.mp4	0.0	140.7695119380951	0.9995789527893066
20	116.54949903488159	pulse	0	t		18.0	2.5	/experiments/aot/R_S_c5iVM3LI6kI_252.mp4	0.0	140.95295405387878	
20	117.3656358718872	movie	1		300	18.0	2.5	/experiments/aot/R_S_c5iVM3LI6kI_252.mp4	0.0	141.7690908908844	2.5002281665802
20	118.1494870185852	pulse	1	t		18.0	2.5	/experiments/aot/R_S_c5iVM3LI6kI_252.mp4	0.0	142.5529420375824	
20	119.74933195114136	pulse	1	t		18.0	2.5	/experiments/aot/R_S_c5iVM3LI6kI_252.mp4	0.0	144.15278697013855	
20	119.86586403846741	fix_post	2		12	18.0	2.5	/experiments/aot/R_S_c5iVM3LI6kI_252.mp4	0.0	144.2693190574646	0.10044002532958984
21	119.966304063797	fix_pre	0		120	19.0	2.5	/experiments/aot/R_S_ILSVRC2015_train_00524006.mp4	0.0	144.3697590827942	0.999722957611084
21	120.96602702140808	movie	1		300	19.0	2.5	/experiments/aot/R_S_ILSVRC2015_train_00524006.mp4	0.0	145.36948204040527	2.4999589920043945
21	121.34951400756836	pulse	1	t		19.0	2.5	/experiments/aot/R_S_ILSVRC2015_train_00524006.mp4	0.0	145.75296902656555	
21	122.94948506355286	pulse	1	t		19.0	2.5	/experiments/aot/R_S_ILSVRC2015_train_00524006.mp4	0.0	147.35294008255005	
21	123.46598601341248	fix_post	2		12	19.0	2.5	/experiments/aot/R_S_ILSVRC2015_train_00524006.mp4	0.0	147.86944103240967	0.09998202323913574
22	123.56596803665161	fix_pre	0		119	20.0	2.5	/experiments/aot/R_S_ILSVRC2015_train_00042002.mp4	0.0	147.9694230556488	0.9916768074035645
22	124.54945397377014	pulse	0	t		20.0	2.5	/experiments/aot/R_S_ILSVRC2015_train_00042002.mp4	0.0	148.95290899276733	
22	124.55764484405518	movie	1		301	20.0	2.5	/experiments/aot/R_S_ILSVRC2015_train_00042002.mp4	0.0	148.96109986305237	2.508352041244507
22	126.14504599571228	pulse	1	t		20.0	2.5	/experiments/aot/R_S_ILSVRC2015_train_00042002.mp4	0.0	150.54850101470947	
22	127.06599688529968	fix_post	2		12	20.0	2.5	/experiments/aot/R_S_ILSVRC2015_train_00042002.mp4	0.0	151.46945190429688	0.09990501403808594
23	127.16590189933777	fix_pre	0		120	21.0	2.5	blank	1.0	151.56935691833496	1.0000851154327393
23	127.74946904182434	pulse	0	t		21.0	2.5	blank	1.0	152.15292406082153	
23	128.1659870147705	movie	1		300	21.0	2.5	blank	1.0	152.5694420337677	2.4999759197235107
23	129.34944605827332	pulse	1	t		21.0	2.5	blank	1.0	153.7529010772705	
23	130.66596293449402	fix_post	2		12	21.0	2.5	blank	1.0	155.0694179534912	0.10000491142272949
24	130.76596784591675	fix_pre	0		120	22.0	2.5	/experiments/aot/S_pexels-cottonbro-9499408.mp4	0.0	155.16942286491394	0.9999630451202393
24	130.94946193695068	pulse	0	t		22.0	2.5	/experiments/aot/S_pexels-cottonbro-9499408.mp4	0.0	155.35291695594788	
24	131.765930891037	movie	1		164	22.0	2.5	/experiments/aot/S_pexels-cottonbro-9499408.mp4	0.0	156.16938591003418	2.4999840259552
24	132.5495388507843	pulse	1	t		22.0	2.5	/experiments/aot/S_pexels-cottonbro-9499408.mp4	0.0	156.9529938697815	
24	134.14899492263794	pulse	1	t		22.0	2.5	/experiments/aot/S_pexels-cottonbro-9499408.mp4	0.0	158.55244994163513	
24	134.2659149169922	fix_post	2		12	22.0	2.5	/experiments/aot/S_pexels-cottonbro-9499408.mp4	0.0	158.66936993598938	0.10001802444458008
25	134.36593294143677	fix_pre	0		120	23.0	2.5	/experiments/aot/R_S_zr0tzAC2XHk_334.mp4	0.0	158.76938796043396	0.9999771118164062
25	135.36591005325317	movie	1		299	23.0	2.5	/experiments/aot/R_S_zr0tzAC2XHk_334.mp4	0.0	159.76936507225037	2.500062942504883
25	135.7494819164276	pulse	1	t		23.0	2.5	/experiments/aot/R_S_zr0tzAC2XHk_334.mp4	0.0	160.1529369354248	
25	137.34272599220276	pulse	1	t		23.0	2.5	/experiments/aot/R_S_zr0tzAC2XHk_334.mp4	0.0	161.74618101119995	
25	137.86597299575806	fix_post	2		12	23.0	2.5	/experiments/aot/R_S_zr0tzAC2XHk_334.mp4	0.0	162.26942801475525	0.09991288185119629
26	137.96588587760925	fix_pre	0		119	24.0	2.5	/experiments/aot/R_S_flickr-lamujuri-10653517683_4.mp4	0.0	162.36934089660645	0.9916369915008545
26	138.9494240283966	pulse	0	t		24.0	2.5	/experiments/aot/R_S_flickr-lamujuri-10653517683_4.mp4	0.0	163.3528790473938	
26	138.9575228691101	movie	1		172	24.0	2.5	/experiments/aot/R_S_flickr-lamujuri-10653517683_4.mp4	0.0	163.3609778881073	2.5084140300750732
26	140.54934787750244	pulse	1	t		24.0	2.5	/experiments/aot/R_S_flickr-lamujuri-10653517683_4.mp4	0.0	164.95280289649963	
26	141.46593689918518	fix_post	2		12	24.0	2.5	/experiments/aot/R_S_flickr-lamujuri-10653517683_4.mp4	0.0	165.86939191818237	0.09998607635498047
27	141.56592297554016	fix_pre	0		120	25.0	2.5	/experiments/aot/S_yt-KpOAdMtPGFs_17.mp4	0.0	165.96937799453735	1.0000128746032715
27	142.1494128704071	pulse	0	t		25.0	2.5	/experiments/aot/S_yt-KpOAdMtPGFs_17.mp4	0.0	166.5528678894043	
27	142.56593585014343	movie	1		300	25.0	2.5	/experiments/aot/S_yt-KpOAdMtPGFs_17.mp4	0.0	166.96939086914062	2.4998881816864014
27	143.74939894676208	pulse	1	t		25.0	2.5	/experiments/aot/S_yt-KpOAdMtPGFs_17.mp4	0.0	168.15285396575928	
27	145.06582403182983	fix_post	2		12	25.0	2.5	/experiments/aot/S_yt-KpOAdMtPGFs_17.mp4	0.0	169.46927905082703	0.10031390190124512
28	145.16613793373108	fix_pre	0		120	26.0	2.5	blank	1.0	169.56959295272827	0.9997501373291016
28	145.34942388534546	pulse	0	t		26.0	2.5	blank	1.0	169.75287890434265	
28	146.16588807106018	movie	1		300	26.0	2.5	blank	1.0	170.56934309005737	2.499985933303833
28	146.94936990737915	pulse	1	t		26.0	2.5	blank	1.0	171.35282492637634	
28	148.54930686950684	pulse	1	t		26.0	2.5	blank	1.0	172.95276188850403	
28	148.665874004364	fix_post	2		12	26.0	2.5	blank	1.0	173.0693290233612	0.1000509262084961
29	148.7659249305725	fix_pre	0		120	27.0	2.5	/experiments/aot/S_yt-wIZprsJwxBM_298.mp4	0.0	173.1693799495697	0.9999511241912842
29	149.7658760547638	movie	1		299	27.0	2.5	/experiments/aot/S_yt-wIZprsJwxBM_298.mp4	0.0	174.169331073761	2.500005006790161
29	150.14938306808472	pulse	1	t		27.0	2.5	/experiments/aot/S_yt-wIZprsJwxBM_298.mp4	0.0	174.5528380870819	
29	151.74934792518616	pulse	1	t		27.0	2.5	/experiments/aot/S_yt-wIZprsJwxBM_298.mp4	0.0	176.15280294418335	
29	152.26588106155396	fix_post	2		12	27.0	2.5	/experiments/aot/S_yt-wIZprsJwxBM_298.mp4	0.0	176.66933608055115	0.09992694854736328
30	152.36580801010132	fix_pre	0		119	28.0	2.5	/experiments/aot/S_yt--JnTDuElzXQ_121.mp4	0.0	176.7692630290985	0.9917008876800537
30	153.3493139743805	pulse	0	t		28.0	2.5	/experiments/aot/S_yt--JnTDuElzXQ_121.mp4	0.0	177.75276899337769	
30	153.35750889778137	movie	1		301	28.0	2.5	/experiments/aot/S_yt--JnTDuElzXQ_121.mp4	0.0	177.76096391677856	2.5082740783691406
30	154.94622802734375	pulse	1	t		28.0	2.5	/experiments/aot/S_yt--JnTDuElzXQ_121.mp4	0.0	179.34968304634094	
30	155.8657829761505	fix_post	2		12	28.0	2.5	/experiments/aot/S_yt--JnTDuElzXQ_121.mp4	0.0	180.2692379951477	0.10003399848937988
31	155.9658169746399	fix_pre	0		120	29.0	2.5	/experiments/aot/S_yt-zhQ32_OayBQ_39.mp4	0.0	180.36927199363708	0.9999849796295166
31	156.54938888549805	pulse	0	t		29.0	2.5	/experiments/aot/S_yt-zhQ32_OayBQ_39.mp4	0.0	180.95284390449524	
31	156.9658019542694	movie	1		300	29.0	2.5	/experiments/aot/S_yt-zhQ32_OayBQ_39.mp4	0.0	181.3692569732666	2.4999969005584717
31	158.14934587478638	pulse	1	t		29.0	2.5	/experiments/aot/S_yt-zhQ32_OayBQ_39.mp4	0.0	182.55280089378357	
31	159.46579885482788	fix_post	2		12	29.0	2.5	/experiments/aot/S_yt-zhQ32_OayBQ_39.mp4	0.0	183.86925387382507	0.1000821590423584
32	159.56588101387024	fix_pre	0		120	30.0	2.5	/experiments/aot/S_Y005_C003_SDR_2K_AVC.mp4	0.0	183.96933603286743	0.9999198913574219
32	159.74945306777954	pulse	0	t		30.0	2.5	/experiments/aot/S_Y005_C003_SDR_2K_AVC.mp4	0.0	184.15290808677673	
32	160.56580090522766	movie	1		162	30.0	2.5	/experiments/aot/S_Y005_C003_SDR_2K_AVC.mp4	0.0	184.96925592422485	2.5000369548797607
32	161.35037088394165	pulse	1	t		30.0	2.5	/experiments/aot/S_Y005_C003_SDR_2K_AVC.mp4	0.0	185.75382590293884	
32	162.94932985305786	pulse	1	t		30.0	2.5	/experiments/aot/S_Y005_C003_SDR_2K_AVC.mp4	0.0	187.35278487205505	
32	163.06583786010742	fix_post	2		12	30.0	2.5	/experiments/aot/S_Y005_C003_SDR_2K_AVC.mp4	0.0	187.46929287910461	0.09990119934082031
33	163.16573905944824	fix_pre	0		120	31.0	2.5	/experiments/aot/R_S_yt-Co4dzHwupRM_18.mp4	0.0	187.56919407844543	0.9999849796295166
33	164.16572403907776	movie	1		300	31.0	2.5	/experiments/aot/R_S_yt-Co4dzHwupRM_18.mp4	0.0	188.56917905807495	2.499964952468872
33	164.54933094978333	pulse	1	t		31.0	2.5	/experiments/aot/R_S_yt-Co4dzHwupRM_18.mp4	0.0	188.95278596878052	
33	166.14931106567383	pulse	1	t		31.0	2.5	/experiments/aot/R_S_yt-Co4dzHwupRM_18.mp4	0.0	190.55276608467102	
33	166.66568899154663	fix_post	2		12	31.0	2.5	/experiments/aot/R_S_yt-Co4dzHwupRM_18.mp4	0.0	191.06914401054382	0.10012102127075195
34	166.76581001281738	fix_pre	0		119	32.0	2.5	/experiments/aot/R_S_yt-McqS-QObQbk_122.mp4	0.0	191.16926503181458	0.9916799068450928
34	167.7493200302124	pulse	0	t		32.0	2.5	/experiments/aot/R_S_yt-McqS-QObQbk_122.mp4	0.0	192.1527750492096	
34	167.75748991966248	movie	1		301	32.0	2.5	/experiments/aot/R_S_yt-McqS-QObQbk_122.mp4	0.0	192.16094493865967	2.508329153060913
34	169.3452489376068	pulse	1	t		32.0	2.5	/experiments/aot/R_S_yt-McqS-QObQbk_122.mp4	0.0	193.748703956604	
34	170.2658190727234	fix_post	2		12	32.0	2.5	/experiments/aot/R_S_yt-McqS-QObQbk_122.mp4	0.0	194.66927409172058	0.09999799728393555
35	170.36581707000732	fix_pre	0		120	33.0	2.5	/experiments/aot/S_yt-3NMDWrZr1Z4_255.mp4	0.0	194.76927208900452	1.0000247955322266
35	170.94925689697266	pulse	0	t		33.0	2.5	/experiments/aot/S_yt-3NMDWrZr1Z4_255.mp4	0.0	195.35271191596985	
35	171.36584186553955	movie	1		300	33.0	2.5	/experiments/aot/S_yt-3NMDWrZr1Z4_255.mp4	0.0	195.76929688453674	2.4994921684265137
35	172.54874300956726	pulse	1	t		33.0	2.5	/experiments/aot/S_yt-3NMDWrZr1Z4_255.mp4	0.0	196.95219802856445	
35	173.86533403396606	fix_post	2		12	33.0	2.5	/experiments/aot/S_yt-3NMDWrZr1Z4_255.mp4	0.0	198.26878905296326	0.10047698020935059
36	173.96581101417542	fix_pre	0		120	34.0	2.5	blank	1.0	198.3692660331726	1.000148057937622
36	174.14894795417786	pulse	0	t		34.0	2.5	blank	1.0	198.55240297317505	
36	174.96595907211304	movie	1		300	34.0	2.5	blank	1.0	199.36941409111023	2.499748945236206
36	175.74967789649963	pulse	1	t		34.0	2.5	blank	1.0	200.15313291549683	
36	177.3491199016571	pulse	1	t		34.0	2.5	blank	1.0	201.7525749206543	
36	177.46570801734924	fix_post	2		12	34.0	2.5	blank	1.0	201.86916303634644	0.10007691383361816
37	177.56578493118286	fix_pre	0		120	35.0	2.5	/experiments/aot/S_bing-www_yahoo_com_entertainment_anastasia-karanikolaou-chantel-jeffries-discuss-182400502_html_9.mp4	0.0	201.96923995018005	0.9999370574951172
37	178.56572198867798	movie	1		163	35.0	2.5	/experiments/aot/S_bing-www_yahoo_com_entertainment_anastasia-karanikolaou-chantel-jeffries-discuss-182400502_html_9.mp4	0.0	202.96917700767517	2.499966859817505
37	178.94918990135193	pulse	1	t		35.0	2.5	/experiments/aot/S_bing-www_yahoo_com_entertainment_anastasia-karanikolaou-chantel-jeffries-discuss-182400502_html_9.mp4	0.0	203.35264492034912	
37	180.54915690422058	pulse	1	t		35.0	2.5	/experiments/aot/S_bing-www_yahoo_com_entertainment_anastasia-karanikolaou-chantel-jeffries-discuss-182400502_html_9.mp4	0.0	204.95261192321777	
37	181.06568884849548	fix_post	2		12	35.0	2.5	/experiments/aot/S_bing-www_yahoo_com_entertainment_anastasia-karanikolaou-chantel-jeffries-discuss-182400502_html_9.mp4	0.0	205.46914386749268	0.09995007514953613
38	181.16563892364502	fix_pre	0		119	36.0	2.5	/experiments/aot/S_comp_LA_A006_C008_PSNK_ALL_LOGOS_v10_SDR_PS_FINAL_20180801_SDR_2K_AVC.mp4	0.0	205.5690939426422	0.9916701316833496
38	182.1491298675537	pulse	0	t		36.0	2.5	/experiments/aot/S_comp_LA_A006_C008_PSNK_ALL_LOGOS_v10_SDR_PS_FINAL_20180801_SDR_2K_AVC.mp4	0.0	206.5525848865509	
38	182.15730905532837	movie	1		172	36.0	2.5	/experiments/aot/S_comp_LA_A006_C008_PSNK_ALL_LOGOS_v10_SDR_PS_FINAL_20180801_SDR_2K_AVC.mp4	0.0	206.56076407432556	2.5083940029144287
38	183.7493999004364	pulse	1	t		36.0	2.5	/experiments/aot/S_comp_LA_A006_C008_PSNK_ALL_LOGOS_v10_SDR_PS_FINAL_20180801_SDR_2K_AVC.mp4	0.0	208.1528549194336	
38	184.6657030582428	fix_post	2		12	36.0	2.5	/experiments/aot/S_comp_LA_A006_C008_PSNK_ALL_LOGOS_v10_SDR_PS_FINAL_20180801_SDR_2K_AVC.mp4	0.0	209.06915807724	0.09995889663696289
39	184.76566195487976	fix_pre	0		120	37.0	2.5	/experiments/aot/R_S_yt-BAwvfRmE1LU_79.mp4	0.0	209.16911697387695	1.0000081062316895
39	185.34910988807678	pulse	0	t		37.0	2.5	/experiments/aot/R_S_yt-BAwvfRmE1LU_79.mp4	0.0	209.75256490707397	
39	185.76567006111145	movie	1		300	37.0	2.5	/experiments/aot/R_S_yt-BAwvfRmE1LU_79.mp4	0.0	210.16912508010864	2.499980926513672
39	186.94909191131592	pulse	1	t		37.0	2.5	/experiments/aot/R_S_yt-BAwvfRmE1LU_79.mp4	0.0	211.3525469303131	
39	188.26565098762512	fix_post	2		12	37.0	2.5	/experiments/aot/R_S_yt-BAwvfRmE1LU_79.mp4	0.0	212.66910600662231	0.10001492500305176
40	188.36566591262817	fix_pre	0		120	38.0	2.5	/experiments/aot/S_yt-fnE8kgUHUMI_64.mp4	0.0	212.76912093162537	0.9999499320983887
40	188.54918503761292	pulse	0	t		38.0	2.5	/experiments/aot/S_yt-fnE8kgUHUMI_64.mp4	0.0	212.9526400566101	
40	189.36561584472656	movie	1		300	38.0	2.5	/experiments/aot/S_yt-fnE8kgUHUMI_64.mp4	0.0	213.76907086372375	2.5000832080841064
40	190.1492519378662	pulse	1	t		38.0	2.5	/experiments/aot/S_yt-fnE8kgUHUMI_64.mp4	0.0	214.5527069568634	
40	191.74298906326294	pulse	1	t		38.0	2.5	/experiments/aot/S_yt-fnE8kgUHUMI_64.mp4	0.0	216.14644408226013	
40	191.86569905281067	fix_post	2		12	38.0	2.5	/experiments/aot/S_yt-fnE8kgUHUMI_64.mp4	0.0	216.26915407180786	0.09987902641296387
41	191.96557807922363	fix_pre	0		120	39.0	2.5	/experiments/aot/R_S_yt-mL3MuCfKtdY_79.mp4	0.0	216.36903309822083	1.0001437664031982
41	192.96572184562683	movie	1		300	39.0	2.5	/experiments/aot/R_S_yt-mL3MuCfKtdY_79.mp4	0.0	217.36917686462402	2.4999780654907227
41	193.3490869998932	pulse	1	t		39.0	2.5	/experiments/aot/R_S_yt-mL3MuCfKtdY_79.mp4	0.0	217.75254201889038	
41	194.94910788536072	pulse	1	t		39.0	2.5	/experiments/aot/R_S_yt-mL3MuCfKtdY_79.mp4	0.0	219.3525629043579	
41	195.46569991111755	fix_post	2		12	39.0	2.5	/experiments/aot/R_S_yt-mL3MuCfKtdY_79.mp4	0.0	219.86915493011475	0.09994196891784668
42	195.5656418800354	fix_pre	0		119	40.0	2.5	/experiments/aot/R_S_ILSVRC2015_test_00004002.mp4	0.0	219.9690968990326	0.991631031036377
42	196.5491259098053	pulse	0	t		40.0	2.5	/experiments/aot/R_S_ILSVRC2015_test_00004002.mp4	0.0	220.9525809288025	
42	196.55727291107178	movie	1		301	40.0	2.5	/experiments/aot/R_S_ILSVRC2015_test_00004002.mp4	0.0	220.96072793006897	2.5084011554718018
42	198.14498901367188	pulse	1	t		40.0	2.5	/experiments/aot/R_S_ILSVRC2015_test_00004002.mp4	0.0	222.54844403266907	
42	199.06567406654358	fix_post	2		12	40.0	2.5	/experiments/aot/R_S_ILSVRC2015_test_00004002.mp4	0.0	223.46912908554077	0.09998679161071777
43	199.1656608581543	fix_pre	0		120	41.0	2.5	blank	1.0	223.5691158771515	0.9998981952667236
43	199.74913787841797	pulse	0	t		41.0	2.5	blank	1.0	224.15259289741516	
43	200.16555905342102	movie	1		300	41.0	2.5	blank	1.0	224.5690140724182	2.499992847442627
43	201.3491518497467	pulse	1	t		41.0	2.5	blank	1.0	225.7526068687439	
43	202.66555190086365	fix_post	2		12	41.0	2.5	blank	1.0	227.06900691986084	0.10002017021179199
44	202.76557207107544	fix_pre	0		120	42.0	2.5	/experiments/aot/R_S_yt-0bovQBIUZho_15.mp4	0.0	227.16902709007263	1.0000498294830322
44	202.94910502433777	pulse	0	t		42.0	2.5	/experiments/aot/R_S_yt-0bovQBIUZho_15.mp4	0.0	227.35256004333496	
44	203.76562190055847	movie	1		300	42.0	2.5	/experiments/aot/R_S_yt-0bovQBIUZho_15.mp4	0.0	228.16907691955566	2.5001139640808105
44	204.54914498329163	pulse	1	t		42.0	2.5	/experiments/aot/R_S_yt-0bovQBIUZho_15.mp4	0.0	228.95260000228882	
44	206.14862990379333	pulse	1	t		42.0	2.5	/experiments/aot/R_S_yt-0bovQBIUZho_15.mp4	0.0	230.55208492279053	
44	206.26573586463928	fix_post	2		12	42.0	2.5	/experiments/aot/R_S_yt-0bovQBIUZho_15.mp4	0.0	230.66919088363647	0.09985017776489258
45	206.36558604240417	fix_pre	0		120	43.0	2.5	/experiments/aot/R_S_comp_L007_C007_PS_v01_SDR_PS_20180925_SDR_2K_AVC.mp4	0.0	230.76904106140137	1.0000078678131104
45	207.36559391021729	movie	1		169	43.0	2.5	/experiments/aot/R_S_comp_L007_C007_PS_v01_SDR_PS_20180925_SDR_2K_AVC.mp4	0.0	231.76904892921448	2.499964952468872
45	207.74908804893494	pulse	1	t		43.0	2.5	/experiments/aot/R_S_comp_L007_C007_PS_v01_SDR_PS_20180925_SDR_2K_AVC.mp4	0.0	232.15254306793213	
45	209.34914588928223	pulse	1	t		43.0	2.5	/experiments/aot/R_S_comp_L007_C007_PS_v01_SDR_PS_20180925_SDR_2K_AVC.mp4	0.0	233.75260090827942	
45	209.86555886268616	fix_post	2		12	43.0	2.5	/experiments/aot/R_S_comp_L007_C007_PS_v01_SDR_PS_20180925_SDR_2K_AVC.mp4	0.0	234.26901388168335	0.09990906715393066
46	209.9654679298401	fix_pre	0		119	44.0	2.5	/experiments/aot/S_ILSVRC2015_train_00584001.mp4	0.0	234.36892294883728	0.9918429851531982
46	210.9491250514984	pulse	0	t		44.0	2.5	/experiments/aot/S_ILSVRC2015_train_00584001.mp4	0.0	235.3525800704956	
46	210.9573109149933	movie	1		301	44.0	2.5	/experiments/aot/S_ILSVRC2015_train_00584001.mp4	0.0	235.36076593399048	2.5083820819854736
46	212.5450599193573	pulse	1	t		44.0	2.5	/experiments/aot/S_ILSVRC2015_train_00584001.mp4	0.0	236.9485149383545	
46	213.46569299697876	fix_post	2		12	44.0	2.5	/experiments/aot/S_ILSVRC2015_train_00584001.mp4	0.0	237.86914801597595	0.09984087944030762
47	213.56553387641907	fix_pre	0		120	45.0	2.5	/experiments/aot/R_S_yt-GOgS--rzmKQ_51.mp4	0.0	237.96898889541626	1.0000090599060059
47	214.14906692504883	pulse	0	t		45.0	2.5	/experiments/aot/R_S_yt-GOgS--rzmKQ_51.mp4	0.0	238.55252194404602	
47	214.56554293632507	movie	1		300	45.0	2.5	/experiments/aot/R_S_yt-GOgS--rzmKQ_51.mp4	0.0	238.96899795532227	2.500059127807617
47	215.74908089637756	pulse	1	t		45.0	2.5	/experiments/aot/R_S_yt-GOgS--rzmKQ_51.mp4	0.0	240.15253591537476	
47	217.0656020641327	fix_post	2		12	45.0	2.5	/experiments/aot/R_S_yt-GOgS--rzmKQ_51.mp4	0.0	241.46905708312988	0.09997677803039551
48	217.1655788421631	fix_pre	0		120	46.0	2.5	/experiments/aot/S_yt-GfPep7IhZIU_47.mp4	0.0	241.56903386116028	0.999932050704956
48	217.34905290603638	pulse	0	t		46.0	2.5	/experiments/aot/S_yt-GfPep7IhZIU_47.mp4	0.0	241.75250792503357	
48	218.16551089286804	movie	1		300	46.0	2.5	/experiments/aot/S_yt-GfPep7IhZIU_47.mp4	0.0	242.56896591186523	2.499981164932251
48	218.949049949646	pulse	1	t		46.0	2.5	/experiments/aot/S_yt-GfPep7IhZIU_47.mp4	0.0	243.3525049686432	
48	220.54856204986572	pulse	1	t		46.0	2.5	/experiments/aot/S_yt-GfPep7IhZIU_47.mp4	0.0	244.95201706886292	
48	220.6654920578003	fix_post	2		12	46.0	2.5	/experiments/aot/S_yt-GfPep7IhZIU_47.mp4	0.0	245.06894707679749	0.10006189346313477
49	220.76555395126343	fix_pre	0		120	47.0	2.5	blank	1.0	245.16900897026062	0.9999990463256836
49	221.7655529975891	movie	1		300	47.0	2.5	blank	1.0	246.1690080165863	2.4999139308929443
49	222.1491458415985	pulse	1	t		47.0	2.5	blank	1.0	246.5526008605957	
49	223.74907088279724	pulse	1	t		47.0	2.5	blank	1.0	248.15252590179443	
49	224.26546692848206	fix_post	2		12	47.0	2.5	blank	1.0	248.66892194747925	0.10006999969482422
50	224.36553692817688	fix_pre	0		119	48.0	2.5	/experiments/aot/R_S_c5iVM3LI6kI_252.mp4	0.0	248.76899194717407	0.9916939735412598
50	225.34907507896423	pulse	0	t		48.0	2.5	/experiments/aot/R_S_c5iVM3LI6kI_252.mp4	0.0	249.75253009796143	
50	225.35723090171814	movie	1		301	48.0	2.5	/experiments/aot/R_S_c5iVM3LI6kI_252.mp4	0.0	249.76068592071533	2.5081870555877686
50	226.94587302207947	pulse	1	t		48.0	2.5	/experiments/aot/R_S_c5iVM3LI6kI_252.mp4	0.0	251.34932804107666	
50	227.8654179573059	fix_post	2		12	48.0	2.5	/experiments/aot/R_S_c5iVM3LI6kI_252.mp4	0.0	252.2688729763031	0.1000680923461914
51	227.9654860496521	fix_pre	0		120	49.0	2.5	/experiments/aot/R_S_yt-83nimFMNhrM_131.mp4	0.0	252.3689410686493	0.9999678134918213
51	228.54894399642944	pulse	0	t		49.0	2.5	/experiments/aot/R_S_yt-83nimFMNhrM_131.mp4	0.0	252.95239901542664	
51	228.96545386314392	movie	1		300	49.0	2.5	/experiments/aot/R_S_yt-83nimFMNhrM_131.mp4	0.0	253.3689088821411	2.500317096710205
51	230.14856505393982	pulse	1	t		49.0	2.5	/experiments/aot/R_S_yt-83nimFMNhrM_131.mp4	0.0	254.552020072937	
51	231.46577095985413	fix_post	2		12	49.0	2.5	/experiments/aot/R_S_yt-83nimFMNhrM_131.mp4	0.0	255.86922597885132	0.09998106956481934
52	231.56575202941895	fix_pre	0		120	50.0	2.5	/experiments/aot/R_S_yt-MUfa26F8dfE_97.mp4	0.0	255.96920704841614	0.9997179508209229
52	231.74924492835999	pulse	0	t		50.0	2.5	/experiments/aot/R_S_yt-MUfa26F8dfE_97.mp4	0.0	256.1526999473572	
52	232.56546998023987	movie	1		299	50.0	2.5	/experiments/aot/R_S_yt-MUfa26F8dfE_97.mp4	0.0	256.96892499923706	2.4999899864196777
52	233.34896087646484	pulse	1	t		50.0	2.5	/experiments/aot/R_S_yt-MUfa26F8dfE_97.mp4	0.0	257.75241589546204	
52	234.94907307624817	pulse	1	t		50.0	2.5	/experiments/aot/R_S_yt-MUfa26F8dfE_97.mp4	0.0	259.35252809524536	
52	235.06545996665955	fix_post	2		12	50.0	2.5	/experiments/aot/R_S_yt-MUfa26F8dfE_97.mp4	0.0	259.46891498565674	0.10001707077026367
53	235.1654770374298	fix_pre	0		120	51.0	2.5	/experiments/aot/S_yt-zhQ32_OayBQ_39.mp4	0.0	259.568932056427	1.0000278949737549
53	236.16550493240356	movie	1		299	51.0	2.5	/experiments/aot/S_yt-zhQ32_OayBQ_39.mp4	0.0	260.56895995140076	2.499958038330078
53	236.5489718914032	pulse	1	t		51.0	2.5	/experiments/aot/S_yt-zhQ32_OayBQ_39.mp4	0.0	260.9524269104004	
53	238.14884686470032	pulse	1	t		51.0	2.5	/experiments/aot/S_yt-zhQ32_OayBQ_39.mp4	0.0	262.5523018836975	
53	238.66546297073364	fix_post	2		12	51.0	2.5	/experiments/aot/S_yt-zhQ32_OayBQ_39.mp4	0.0	263.06891798973083	0.09998106956481934
54	238.76544404029846	fix_pre	0		119	52.0	2.5	/experiments/aot/R_S_yt-bmGWhOCsvJo_128.mp4	0.0	263.16889905929565	0.9916009902954102
54	239.74884605407715	pulse	0	t		52.0	2.5	/experiments/aot/R_S_yt-bmGWhOCsvJo_128.mp4	0.0	264.15230107307434	
54	239.75704503059387	movie	1		301	52.0	2.5	/experiments/aot/R_S_yt-bmGWhOCsvJo_128.mp4	0.0	264.16050004959106	2.508347988128662
54	241.34468793869019	pulse	1	t		52.0	2.5	/experiments/aot/R_S_yt-bmGWhOCsvJo_128.mp4	0.0	265.7481429576874	
54	242.26539301872253	fix_post	2		12	52.0	2.5	/experiments/aot/R_S_yt-bmGWhOCsvJo_128.mp4	0.0	266.6688480377197	0.09991288185119629
55	242.36530590057373	fix_pre	0		120	53.0	2.5	/experiments/aot/S_production_ID_4802716.mp4	0.0	266.7687609195709	1.0000650882720947
55	242.94891500473022	pulse	0	t		53.0	2.5	/experiments/aot/S_production_ID_4802716.mp4	0.0	267.3523700237274	
55	243.36537098884583	movie	1		168	53.0	2.5	/experiments/aot/S_production_ID_4802716.mp4	0.0	267.768826007843	2.500020980834961
55	244.54888701438904	pulse	1	t		53.0	2.5	/experiments/aot/S_production_ID_4802716.mp4	0.0	268.95234203338623	
55	245.8653919696808	fix_post	2		12	53.0	2.5	/experiments/aot/S_production_ID_4802716.mp4	0.0	270.268846988678	0.10002589225769043
56	245.96541786193848	fix_pre	0		120	54.0	2.5	/experiments/aot/S_yt-G65z8p1YNhw_16.mp4	0.0	270.36887288093567	0.9999420642852783
56	246.1488800048828	pulse	0	t		54.0	2.5	/experiments/aot/S_yt-G65z8p1YNhw_16.mp4	0.0	270.55233502388	
56	246.96535992622375	movie	1		300	54.0	2.5	/experiments/aot/S_yt-G65z8p1YNhw_16.mp4	0.0	271.36881494522095	2.5000460147857666
56	247.74887204170227	pulse	1	t		54.0	2.5	/experiments/aot/S_yt-G65z8p1YNhw_16.mp4	0.0	272.15232706069946	
56	249.3493058681488	pulse	1	t		54.0	2.5	/experiments/aot/S_yt-G65z8p1YNhw_16.mp4	0.0	273.752760887146	
56	249.46540594100952	fix_post	2		12	54.0	2.5	/experiments/aot/S_yt-G65z8p1YNhw_16.mp4	0.0	273.8688609600067	0.10003209114074707
57	249.56543803215027	fix_pre	0		120	55.0	2.5	blank	1.0	273.96889305114746	1.0000028610229492
57	250.56544089317322	movie	1		300	55.0	2.5	blank	1.0	274.9688959121704	2.4999330043792725
57	250.9488708972931	pulse	1	t		55.0	2.5	blank	1.0	275.3523259162903	
57	252.54890394210815	pulse	1	t		55.0	2.5	blank	1.0	276.95235896110535	
57	253.0653738975525	fix_post	2		12	55.0	2.5	blank	1.0	277.4688289165497	0.09991717338562012
58	253.1652910709381	fix_pre	0		119	56.0	2.5	/experiments/aot/S_yt-Q5Mfl5NdT7g_3.mp4	0.0	277.5687460899353	0.9917118549346924
58	254.14881491661072	pulse	0	t		56.0	2.5	/experiments/aot/S_yt-Q5Mfl5NdT7g_3.mp4	0.0	278.5522699356079	
58	254.1570029258728	movie	1		301	56.0	2.5	/experiments/aot/S_yt-Q5Mfl5NdT7g_3.mp4	0.0	278.56045794487	2.5083460807800293
58	255.74478793144226	pulse	1	t		56.0	2.5	/experiments/aot/S_yt-Q5Mfl5NdT7g_3.mp4	0.0	280.14824295043945	
58	256.66534900665283	fix_post	2		12	56.0	2.5	/experiments/aot/S_yt-Q5Mfl5NdT7g_3.mp4	0.0	281.06880402565	0.10007095336914062
59	256.765419960022	fix_pre	0		120	57.0	2.5	/experiments/aot/S_yt-mJzkLd3Mr_c_35.mp4	0.0	281.16887497901917	0.9999608993530273
59	257.34891390800476	pulse	0	t		57.0	2.5	/experiments/aot/S_yt-mJzkLd3Mr_c_35.mp4	0.0	281.75236892700195	
59	257.765380859375	movie	1		300	57.0	2.5	/experiments/aot/S_yt-mJzkLd3Mr_c_35.mp4	0.0	282.1688358783722	2.4999091625213623
59	258.94883704185486	pulse	1	t		57.0	2.5	/experiments/aot/S_yt-mJzkLd3Mr_c_35.mp4	0.0	283.35229206085205	
59	260.26529002189636	fix_post	2		12	57.0	2.5	/experiments/aot/S_yt-mJzkLd3Mr_c_35.mp4	0.0	284.66874504089355	0.10002994537353516
60	260.3653199672699	fix_pre	0		120	58.0	2.5	/experiments/aot/S_ILSVRC2015_train_00595000.mp4	0.0	284.7687749862671	0.9999070167541504
60	260.54885506629944	pulse	0	t		58.0	2.5	/experiments/aot/S_ILSVRC2015_train_00595000.mp4	0.0	284.95231008529663	
60	261.36522698402405	movie	1		299	58.0	2.5	/experiments/aot/S_ILSVRC2015_train_00595000.mp4	0.0	285.76868200302124	2.5001869201660156
60	262.14881801605225	pulse	1	t		58.0	2.5	/experiments/aot/S_ILSVRC2015_train_00595000.mp4	0.0	286.55227303504944	
60	263.7489080429077	pulse	1	t		58.0	2.5	/experiments/aot/S_ILSVRC2015_train_00595000.mp4	0.0	288.1523630619049	
60	263.86541390419006	fix_post	2		12	58.0	2.5	/experiments/aot/S_ILSVRC2015_train_00595000.mp4	0.0	288.26886892318726	0.09987998008728027
61	263.96529388427734	fix_pre	0		120	59.0	2.5	/experiments/aot/S_yt-Id-f63kUHsE_20.mp4	0.0	288.36874890327454	1.000049114227295
61	264.96534299850464	movie	1		300	59.0	2.5	/experiments/aot/S_yt-Id-f63kUHsE_20.mp4	0.0	289.36879801750183	2.499932050704956
61	265.34881806373596	pulse	1	t		59.0	2.5	/experiments/aot/S_yt-Id-f63kUHsE_20.mp4	0.0	289.75227308273315	
61	266.9488010406494	pulse	1	t		59.0	2.5	/experiments/aot/S_yt-Id-f63kUHsE_20.mp4	0.0	291.3522560596466	
61	267.4652750492096	fix_post	2		12	59.0	2.5	/experiments/aot/S_yt-Id-f63kUHsE_20.mp4	0.0	291.8687300682068	0.09994792938232422
62	267.5652229785919	fix_pre	0		119	60.0	2.5	/experiments/aot/R_S_flickr-clarkstonscamp-4863427159_1.mp4	0.0	291.9686779975891	0.9916749000549316
62	268.54874086380005	pulse	0	t		60.0	2.5	/experiments/aot/R_S_flickr-clarkstonscamp-4863427159_1.mp4	0.0	292.95219588279724	
62	268.55689787864685	movie	1		301	60.0	2.5	/experiments/aot/R_S_flickr-clarkstonscamp-4863427159_1.mp4	0.0	292.96035289764404	2.5079569816589355
62	270.1447489261627	pulse	1	t		60.0	2.5	/experiments/aot/R_S_flickr-clarkstonscamp-4863427159_1.mp4	0.0	294.5482039451599	
62	271.0648548603058	fix_post	2		12	60.0	2.5	/experiments/aot/R_S_flickr-clarkstonscamp-4863427159_1.mp4	0.0	295.468309879303	0.10051298141479492
63	271.1653678417206	fix_pre	0		120	61.0	2.5	/experiments/aot/S_yt-mI9voWol7cE_104.mp4	0.0	295.5688228607178	0.9999451637268066
63	271.7488808631897	pulse	0	t		61.0	2.5	/experiments/aot/S_yt-mI9voWol7cE_104.mp4	0.0	296.1523358821869	
63	272.1653130054474	movie	1		300	61.0	2.5	/experiments/aot/S_yt-mI9voWol7cE_104.mp4	0.0	296.5687680244446	2.4999330043792725
63	273.3487639427185	pulse	1	t		61.0	2.5	/experiments/aot/S_yt-mI9voWol7cE_104.mp4	0.0	297.7522189617157	
63	274.66524600982666	fix_post	2		12	61.0	2.5	/experiments/aot/S_yt-mI9voWol7cE_104.mp4	0.0	299.06870102882385	0.10005688667297363
64	274.76530289649963	fix_pre	0		120	62.0	2.5	/experiments/aot/S_yt-eF5J5Kjt6oY_23.mp4	0.0	299.1687579154968	0.9999821186065674
64	274.9487750530243	pulse	0	t		62.0	2.5	/experiments/aot/S_yt-eF5J5Kjt6oY_23.mp4	0.0	299.3522300720215	
64	275.7652850151062	movie	1		300	62.0	2.5	/experiments/aot/S_yt-eF5J5Kjt6oY_23.mp4	0.0	300.1687400341034	2.4999709129333496
64	276.54877185821533	pulse	1	t		62.0	2.5	/experiments/aot/S_yt-eF5J5Kjt6oY_23.mp4	0.0	300.9522268772125	
64	278.14875197410583	pulse	1	t		62.0	2.5	/experiments/aot/S_yt-eF5J5Kjt6oY_23.mp4	0.0	302.552206993103	
64	278.26525592803955	fix_post	2		12	62.0	2.5	/experiments/aot/S_yt-eF5J5Kjt6oY_23.mp4	0.0	302.66871094703674	0.09996199607849121
65	278.36521792411804	fix_pre	0		120	63.0	2.5	blank	1.0	302.76867294311523	0.9999849796295166
65	279.36520290374756	movie	1		300	63.0	2.5	blank	1.0	303.76865792274475	2.5001800060272217
65	279.74877190589905	pulse	1	t		63.0	2.5	blank	1.0	304.15222692489624	
65	281.34883284568787	pulse	1	t		63.0	2.5	blank	1.0	305.75228786468506	
65	281.8653829097748	fix_post	2		12	63.0	2.5	blank	1.0	306.268837928772	0.09981703758239746
66	281.9651999473572	fix_pre	0		119	64.0	2.5	/experiments/aot/S_yt-mL3MuCfKtdY_79.mp4	0.0	306.36865496635437	0.9917540550231934
66	282.94875502586365	pulse	0	t		64.0	2.5	/experiments/aot/S_yt-mL3MuCfKtdY_79.mp4	0.0	307.35221004486084	
66	282.95695400238037	movie	1		301	64.0	2.5	/experiments/aot/S_yt-mL3MuCfKtdY_79.mp4	0.0	307.36040902137756	2.507883071899414
66	284.54490303993225	pulse	1	t		64.0	2.5	/experiments/aot/S_yt-mL3MuCfKtdY_79.mp4	0.0	308.94835805892944	
66	285.4648370742798	fix_post	2		12	64.0	2.5	/experiments/aot/S_yt-mL3MuCfKtdY_79.mp4	0.0	309.868292093277	0.10042786598205566
67	285.56526494026184	fix_pre	0		120	65.0	2.5	/experiments/aot/S_yt-hDYtYKUsVE4_120.mp4	0.0	309.96871995925903	1.0001261234283447
67	286.14840292930603	pulse	0	t		65.0	2.5	/experiments/aot/S_yt-hDYtYKUsVE4_120.mp4	0.0	310.5518579483032	
67	286.5653910636902	movie	1		300	65.0	2.5	/experiments/aot/S_yt-hDYtYKUsVE4_120.mp4	0.0	310.9688460826874	2.4998319149017334
67	287.74856996536255	pulse	1	t		65.0	2.5	/experiments/aot/S_yt-hDYtYKUsVE4_120.mp4	0.0	312.15202498435974	
67	289.0652229785919	fix_post	2		12	65.0	2.5	/experiments/aot/S_yt-hDYtYKUsVE4_120.mp4	0.0	313.4686779975891	0.09994006156921387
68	289.16516304016113	fix_pre	0		120	66.0	2.5	/experiments/aot/R_S_Oo8otu7cQ20_112.mp4	0.0	313.5686180591583	1.0000309944152832
68	289.3487219810486	pulse	0	t		66.0	2.5	/experiments/aot/R_S_Oo8otu7cQ20_112.mp4	0.0	313.7521770000458	
68	290.1651940345764	movie	1		299	66.0	2.5	/experiments/aot/R_S_Oo8otu7cQ20_112.mp4	0.0	314.5686490535736	2.5000009536743164
68	290.94861793518066	pulse	1	t		66.0	2.5	/experiments/aot/R_S_Oo8otu7cQ20_112.mp4	0.0	315.35207295417786	
68	292.5491590499878	pulse	1	t		66.0	2.5	/experiments/aot/R_S_Oo8otu7cQ20_112.mp4	0.0	316.952614068985	
68	292.66519498825073	fix_post	2		12	66.0	2.5	/experiments/aot/R_S_Oo8otu7cQ20_112.mp4	0.0	317.0686500072479	0.09987306594848633
69	292.7650680541992	fix_pre	0		120	67.0	2.5	/experiments/aot/S_production_ID_4325506.mp4	0.0	317.1685230731964	1.0000598430633545
69	293.7651278972626	movie	1		168	67.0	2.5	/experiments/aot/S_production_ID_4325506.mp4	0.0	318.16858291625977	2.499972105026245
69	294.1486940383911	pulse	1	t		67.0	2.5	/experiments/aot/S_production_ID_4325506.mp4	0.0	318.5521490573883	
69	295.74870800971985	pulse	1	t		67.0	2.5	/experiments/aot/S_production_ID_4325506.mp4	0.0	320.15216302871704	
69	296.2651000022888	fix_post	2		12	67.0	2.5	/experiments/aot/S_production_ID_4325506.mp4	0.0	320.668555021286	0.10005593299865723
70	296.3651559352875	fix_pre	0		119	68.0	2.5	blank	1.0	320.76861095428467	0.9916770458221436
70	297.34860396385193	pulse	0	t		68.0	2.5	blank	1.0	321.7520589828491	
70	297.3568329811096	movie	1		301	68.0	2.5	blank	1.0	321.7602880001068	2.5083560943603516
70	298.94874691963196	pulse	1	t		68.0	2.5	blank	1.0	323.35220193862915	
70	299.86518907546997	fix_post	2		12	68.0	2.5	blank	1.0	324.26864409446716	0.0999147891998291
71	299.9651038646698	fix_pre	0		120	69.0	2.5	/experiments/aot/S_ILSVRC2015_train_00559000.mp4	0.0	324.368558883667	0.9999880790710449
71	300.5486898422241	pulse	0	t		69.0	2.5	/experiments/aot/S_ILSVRC2015_train_00559000.mp4	0.0	324.9521448612213	
71	300.96509194374084	movie	1		300	69.0	2.5	/experiments/aot/S_ILSVRC2015_train_00559000.mp4	0.0	325.36854696273804	2.500072956085205
71	302.14870595932007	pulse	1	t		69.0	2.5	/experiments/aot/S_ILSVRC2015_train_00559000.mp4	0.0	326.55216097831726	
71	303.46516489982605	fix_post	2		12	69.0	2.5	/experiments/aot/S_ILSVRC2015_train_00559000.mp4	0.0	327.86861991882324	0.09988117218017578
72	303.5650460720062	fix_pre	0		120	70.0	2.5	/experiments/aot/S_comp_GMT060_117NC_363D_1034_AUSTRALIA_v35_SDR_PS_FINAL_20180731_SDR_2K_AVC.mp4	0.0	327.9685010910034	1.000067949295044
72	303.748605966568	pulse	0	t		70.0	2.5	/experiments/aot/S_comp_GMT060_117NC_363D_1034_AUSTRALIA_v35_SDR_PS_FINAL_20180731_SDR_2K_AVC.mp4	0.0	328.1520609855652	
72	304.56511402130127	movie	1		165	70.0	2.5	/experiments/aot/S_comp_GMT060_117NC_363D_1034_AUSTRALIA_v35_SDR_PS_FINAL_20180731_SDR_2K_AVC.mp4	0.0	328.96856904029846	2.500093936920166
72	305.3486988544464	pulse	1	t		70.0	2.5	/experiments/aot/S_comp_GMT060_117NC_363D_1034_AUSTRALIA_v35_SDR_PS_FINAL_20180731_SDR_2K_AVC.mp4	0.0	329.7521538734436	
72	306.9485590457916	pulse	1	t		70.0	2.5	/experiments/aot/S_comp_GMT060_117NC_363D_1034_AUSTRALIA_v35_SDR_PS_FINAL_20180731_SDR_2K_AVC.mp4	0.0	331.3520140647888	
72	307.06520795822144	fix_post	2		12	70.0	2.5	/experiments/aot/S_comp_GMT060_117NC_363D_1034_AUSTRALIA_v35_SDR_PS_FINAL_20180731_SDR_2K_AVC.mp4	0.0	331.4686629772186	0.09992194175720215
73	307.16512989997864	fix_pre	0		120	71.0	2.5	/experiments/aot/S_yt-p0buJEEKeuI_61.mp4	0.0	331.56858491897583	0.9999721050262451
73	308.1651020050049	movie	1		300	71.0	2.5	/experiments/aot/S_yt-p0buJEEKeuI_61.mp4	0.0	332.5685570240021	2.500014066696167
73	308.54852199554443	pulse	1	t		71.0	2.5	/experiments/aot/S_yt-p0buJEEKeuI_61.mp4	0.0	332.9519770145416	
73	310.1486999988556	pulse	1	t		71.0	2.5	/experiments/aot/S_yt-p0buJEEKeuI_61.mp4	0.0	334.5521550178528	
73	310.66511607170105	fix_post	2		12	71.0	2.5	/experiments/aot/S_yt-p0buJEEKeuI_61.mp4	0.0	335.06857109069824	0.10007691383361816
74	310.76519298553467	fix_pre	0		119	72.0	2.5	/experiments/aot/R_S_comp_DB_D002_C003_PSNK_v04_SDR_PS_20180914_SDR_2K_AVC.mp4	0.0	335.16864800453186	0.9915568828582764
74	311.74850702285767	pulse	0	t		72.0	2.5	/experiments/aot/R_S_comp_DB_D002_C003_PSNK_v04_SDR_PS_20180914_SDR_2K_AVC.mp4	0.0	336.15196204185486	
74	311.75674986839294	movie	1		166	72.0	2.5	/experiments/aot/R_S_comp_DB_D002_C003_PSNK_v04_SDR_PS_20180914_SDR_2K_AVC.mp4	0.0	336.16020488739014	2.5082972049713135
74	313.3497738838196	pulse	1	t		72.0	2.5	/experiments/aot/R_S_comp_DB_D002_C003_PSNK_v04_SDR_PS_20180914_SDR_2K_AVC.mp4	0.0	337.7532289028168	
74	314.26504707336426	fix_post	2		12	72.0	2.5	/experiments/aot/R_S_comp_DB_D002_C003_PSNK_v04_SDR_PS_20180914_SDR_2K_AVC.mp4	0.0	338.66850209236145	0.09997081756591797
75	314.3650178909302	fix_pre	0		120	73.0	2.5	/experiments/aot/R_S_video_inspire_florida_miami_brickell_sunset_00036.1080-h264.mp4	0.0	338.76847290992737	1.0000460147857666
75	314.94848895072937	pulse	0	t		73.0	2.5	/experiments/aot/R_S_video_inspire_florida_miami_brickell_sunset_00036.1080-h264.mp4	0.0	339.35194396972656	
75	315.36506390571594	movie	1		167	73.0	2.5	/experiments/aot/R_S_video_inspire_florida_miami_brickell_sunset_00036.1080-h264.mp4	0.0	339.76851892471313	2.5000760555267334
75	316.5486190319061	pulse	1	t		73.0	2.5	/experiments/aot/R_S_video_inspire_florida_miami_brickell_sunset_00036.1080-h264.mp4	0.0	340.9520740509033	
75	317.8651399612427	fix_post	2		12	73.0	2.5	/experiments/aot/R_S_video_inspire_florida_miami_brickell_sunset_00036.1080-h264.mp4	0.0	342.26859498023987	0.09996604919433594
76	317.965106010437	fix_pre	0		120	74.0	2.5	/experiments/aot/R_S_ILSVRC2015_train_00368000.mp4	0.0	342.3685610294342	1.0000059604644775
76	318.1484968662262	pulse	0	t		74.0	2.5	/experiments/aot/R_S_ILSVRC2015_train_00368000.mp4	0.0	342.5519518852234	
76	318.9651119709015	movie	1		300	74.0	2.5	/experiments/aot/R_S_ILSVRC2015_train_00368000.mp4	0.0	343.3685669898987	2.4999868869781494
76	319.7485189437866	pulse	1	t		74.0	2.5	/experiments/aot/R_S_ILSVRC2015_train_00368000.mp4	0.0	344.1519739627838	
76	321.3486189842224	pulse	1	t		74.0	2.5	/experiments/aot/R_S_ILSVRC2015_train_00368000.mp4	0.0	345.7520740032196	
76	321.46509885787964	fix_post	2		12	74.0	2.5	/experiments/aot/R_S_ILSVRC2015_train_00368000.mp4	0.0	345.86855387687683	0.09991621971130371
77	321.56501507759094	fix_pre	0		120	75.0	2.5	blank	1.0	345.96847009658813	1.0000648498535156
77	322.56507992744446	movie	1		300	75.0	2.5	blank	1.0	346.96853494644165	2.4999890327453613
77	322.94855403900146	pulse	1	t		75.0	2.5	blank	1.0	347.35200905799866	
77	324.548574924469	pulse	1	t		75.0	2.5	blank	1.0	348.9520299434662	
77	325.0650689601898	fix_post	2		12	75.0	2.5	blank	1.0	349.468523979187	0.09999608993530273
78	325.1650650501251	fix_pre	0		119	76.0	2.5	/experiments/aot/R_S_ILSVRC2015_train_00743005.mp4	0.0	349.5685200691223	0.9915978908538818
78	326.1485209465027	pulse	0	t		76.0	2.5	/experiments/aot/R_S_ILSVRC2015_train_00743005.mp4	0.0	350.5519759654999	
78	326.156662940979	movie	1		301	76.0	2.5	/experiments/aot/R_S_ILSVRC2015_train_00743005.mp4	0.0	350.5601179599762	2.508376121520996
78	327.7442479133606	pulse	1	t		76.0	2.5	/experiments/aot/R_S_ILSVRC2015_train_00743005.mp4	0.0	352.1477029323578	
78	328.6650390625	fix_post	2		12	76.0	2.5	/experiments/aot/R_S_ILSVRC2015_train_00743005.mp4	0.0	353.0684940814972	0.09987688064575195
79	328.76491594314575	fix_pre	0		120	77.0	2.5	/experiments/aot/R_S_yt-V4ptcLegCiw_161.mp4	0.0	353.16837096214294	1.0000629425048828
79	329.34853291511536	pulse	0	t		77.0	2.5	/experiments/aot/R_S_yt-V4ptcLegCiw_161.mp4	0.0	353.75198793411255	
79	329.76497888565063	movie	1		299	77.0	2.5	/experiments/aot/R_S_yt-V4ptcLegCiw_161.mp4	0.0	354.1684339046478	2.5001041889190674
79	330.9484119415283	pulse	1	t		77.0	2.5	/experiments/aot/R_S_yt-V4ptcLegCiw_161.mp4	0.0	355.3518669605255	
79	332.2650830745697	fix_post	2		12	77.0	2.5	/experiments/aot/R_S_yt-V4ptcLegCiw_161.mp4	0.0	356.6685380935669	0.09988188743591309
80	332.3649649620056	fix_pre	0		120	78.0	2.5	/experiments/aot/S_ILSVRC2015_train_00165012.mp4	0.0	356.7684199810028	1.0000391006469727
80	332.5484380722046	pulse	0	t		78.0	2.5	/experiments/aot/S_ILSVRC2015_train_00165012.mp4	0.0	356.9518930912018	
80	333.3650040626526	movie	1		300	78.0	2.5	/experiments/aot/S_ILSVRC2015_train_00165012.mp4	0.0	357.7684590816498	2.49996280670166
80	334.14845299720764	pulse	1	t		78.0	2.5	/experiments/aot/S_ILSVRC2015_train_00165012.mp4	0.0	358.55190801620483	
80	335.7484700679779	pulse	1	t		78.0	2.5	/experiments/aot/S_ILSVRC2015_train_00165012.mp4	0.0	360.1519250869751	
80	335.86496686935425	fix_post	2		12	78.0	2.5	/experiments/aot/S_ILSVRC2015_train_00165012.mp4	0.0	360.26842188835144	0.09990906715393066
81	335.9648759365082	fix_pre	0		120	79.0	2.5	/experiments/aot/S_yt-SGTgMItFkxY_172.mp4	0.0	360.36833095550537	1.0000500679016113
81	336.9649260044098	movie	1		300	79.0	2.5	/experiments/aot/S_yt-SGTgMItFkxY_172.mp4	0.0	361.368381023407	2.500046968460083
81	337.3484408855438	pulse	1	t		79.0	2.5	/experiments/aot/S_yt-SGTgMItFkxY_172.mp4	0.0	361.751895904541	
81	338.9485340118408	pulse	1	t		79.0	2.5	/experiments/aot/S_yt-SGTgMItFkxY_172.mp4	0.0	363.351989030838	
81	339.4649729728699	fix_post	2		12	79.0	2.5	/experiments/aot/S_yt-SGTgMItFkxY_172.mp4	0.0	363.86842799186707	0.09997391700744629
82	339.5649468898773	fix_pre	0		119	80.0	2.5	/experiments/aot/S_comp_DB_D001_C001_PSNK_v06_SDR_PS_20180824_SDR_2K_AVC.mp4	0.0	363.9684019088745	0.9916801452636719
82	340.5485100746155	pulse	0	t		80.0	2.5	/experiments/aot/S_comp_DB_D001_C001_PSNK_v06_SDR_PS_20180824_SDR_2K_AVC.mp4	0.0	364.95196509361267	
82	340.556627035141	movie	1		169	80.0	2.5	/experiments/aot/S_comp_DB_D001_C001_PSNK_v06_SDR_PS_20180824_SDR_2K_AVC.mp4	0.0	364.9600820541382	2.508133888244629
82	342.1482970714569	pulse	1	t		80.0	2.5	/experiments/aot/S_comp_DB_D001_C001_PSNK_v06_SDR_PS_20180824_SDR_2K_AVC.mp4	0.0	366.5517520904541	
82	343.0647609233856	fix_post	2		12	80.0	2.5	/experiments/aot/S_comp_DB_D001_C001_PSNK_v06_SDR_PS_20180824_SDR_2K_AVC.mp4	0.0	367.4682159423828	0.1000051498413086
83	343.16476607322693	fix_pre	0		120	81.0	2.5	/experiments/aot/R_S_5Bc466bkeA0_35.mp4	0.0	367.5682210922241	1.00022292137146
83	343.7483868598938	pulse	0	t		81.0	2.5	/experiments/aot/R_S_5Bc466bkeA0_35.mp4	0.0	368.151841878891	
83	344.1649889945984	movie	1		299	81.0	2.5	/experiments/aot/R_S_5Bc466bkeA0_35.mp4	0.0	368.5684440135956	2.4999239444732666
83	345.348356962204	pulse	1	t		81.0	2.5	/experiments/aot/R_S_5Bc466bkeA0_35.mp4	0.0	369.7518119812012	
83	346.66491293907166	fix_post	2		12	81.0	2.5	/experiments/aot/R_S_5Bc466bkeA0_35.mp4	0.0	371.06836795806885	0.10001611709594727
84	346.7649290561676	fix_pre	0		120	82.0	2.5	/experiments/aot/R_S_yt-tfHCqgH1guY_235.mp4	0.0	371.1683840751648	0.9999868869781494
84	346.9484419822693	pulse	0	t		82.0	2.5	/experiments/aot/R_S_yt-tfHCqgH1guY_235.mp4	0.0	371.3518970012665	
84	347.76491594314575	movie	1		300	82.0	2.5	/experiments/aot/R_S_yt-tfHCqgH1guY_235.mp4	0.0	372.16837096214294	2.499943971633911
84	348.54827904701233	pulse	1	t		82.0	2.5	/experiments/aot/R_S_yt-tfHCqgH1guY_235.mp4	0.0	372.9517340660095	
84	350.1483850479126	pulse	1	t		82.0	2.5	/experiments/aot/R_S_yt-tfHCqgH1guY_235.mp4	0.0	374.5518400669098	
84	350.26485991477966	fix_post	2		12	82.0	2.5	/experiments/aot/R_S_yt-tfHCqgH1guY_235.mp4	0.0	374.66831493377686	0.10001111030578613
85	350.36487102508545	fix_pre	0		120	83.0	2.5	blank	1.0	374.76832604408264	1.000040054321289
85	351.36491107940674	movie	1		300	83.0	2.5	blank	1.0	375.76836609840393	2.5000159740448
85	351.7483448982239	pulse	1	t		83.0	2.5	blank	1.0	376.15179991722107	
85	353.3483910560608	pulse	1	t		83.0	2.5	blank	1.0	377.751846075058	
85	353.86492705345154	fix_post	2		12	83.0	2.5	blank	1.0	378.26838207244873	0.09988594055175781
87	353.9648129940033	stim	0		1716					378.3682680130005	14.300117015838623
87	354.9483380317688	pulse	0	t						379.351793050766	
87	356.5482940673828	pulse	0	t						380.95174908638	
87	358.1482310295105	pulse	0	t						382.5516860485077	
87	359.74835085868835	pulse	0	t						384.15180587768555	
87	361.3483250141144	pulse	0	t						385.7517800331116	
87	362.9484610557556	pulse	0	t						387.3519160747528	
87	364.5482940673828	pulse	0	t						388.95174908638	
87	366.1483459472656	pulse	0	t						390.5518009662628	
87	367.7482440471649	pulse	0	t						392.1516990661621	
