trial_nr	onset	event_type	phase	response	nr_frames	movie_index	movie_duration	movie_file	blank	onset_abs	duration
0	0.1499021053314209	stim	0		905					21.844736099243164	7.541567087173462
0	7.683535099029541	response	0	space						29.378369092941284	
1	7.691469192504883	stim	0		10881					29.386303186416626	90.6745879650116
1	98.36200904846191	pulse	0	t						120.05684304237366	
1	98.36605715751648	stim	1		1717					120.06089115142822	14.308344841003418
1	99.95786499977112	pulse	1	t						121.65269899368286	
1	101.5578601360321	pulse	1	t						123.25269412994385	
1	103.15778803825378	pulse	1	t						124.85262203216553	
1	104.75794911384583	pulse	1	t						126.45278310775757	
1	106.35780811309814	pulse	1	t						128.0526421070099	
1	107.957768201828	pulse	1	t						129.65260219573975	
1	109.55785298347473	pulse	1	t						131.25268697738647	
1	111.15787601470947	pulse	1	t						132.85271000862122	
2	112.6744019985199	fix_pre	0		11	0.0	2.5	/experiments/AOT/AOT_stimuli/rescaled_final/0516_fw.mp4	0.0	134.36923599243164	0.09160614013671875
2	112.75783014297485	pulse	0	t		0.0	2.5	/experiments/AOT/AOT_stimuli/rescaled_final/0516_fw.mp4	0.0	134.4526641368866	
2	112.76600813865662	movie	1		243	0.0	2.5	/experiments/AOT/AOT_stimuli/rescaled_final/0516_fw.mp4	0.0	134.46084213256836	2.508323907852173
2	114.35768914222717	pulse	1	t		0.0	2.5	/experiments/AOT/AOT_stimuli/rescaled_final/0516_fw.mp4	0.0	136.05252313613892	
2	115.27433204650879	fix_post	2		12	0.0	2.5	/experiments/AOT/AOT_stimuli/rescaled_final/0516_fw.mp4	0.0	136.96916604042053	0.100006103515625
3	115.37433815002441	fix_pre	0		120	1.0	2.5	/experiments/AOT/AOT_stimuli/rescaled_final/0346_fw.mp4	0.0	137.06917214393616	0.9999439716339111
3	115.95787310600281	pulse	0	t		1.0	2.5	/experiments/AOT/AOT_stimuli/rescaled_final/0346_fw.mp4	0.0	137.65270709991455	
3	116.37428212165833	movie	1		244	1.0	2.5	/experiments/AOT/AOT_stimuli/rescaled_final/0346_fw.mp4	0.0	138.06911611557007	2.499980926513672
3	117.55787515640259	pulse	1	t		1.0	2.5	/experiments/AOT/AOT_stimuli/rescaled_final/0346_fw.mp4	0.0	139.25270915031433	
3	118.874263048172	fix_post	2		12	1.0	2.5	/experiments/AOT/AOT_stimuli/rescaled_final/0346_fw.mp4	0.0	140.56909704208374	0.10005402565002441
4	118.97431707382202	fix_pre	0		120	2.0	2.5	/experiments/AOT/AOT_stimuli/rescaled_final/1846_fw.mp4	0.0	140.66915106773376	0.9999969005584717
4	119.15773320198059	pulse	0	t		2.0	2.5	/experiments/AOT/AOT_stimuli/rescaled_final/1846_fw.mp4	0.0	140.85256719589233	
4	119.9743139743805	movie	1		243	2.0	2.5	/experiments/AOT/AOT_stimuli/rescaled_final/1846_fw.mp4	0.0	141.66914796829224	2.4999420642852783
4	120.75761604309082	pulse	1	t		2.0	2.5	/experiments/AOT/AOT_stimuli/rescaled_final/1846_fw.mp4	0.0	142.45245003700256	
4	122.36619305610657	pulse	1	t		2.0	2.5	/experiments/AOT/AOT_stimuli/rescaled_final/1846_fw.mp4	0.0	144.0610270500183	
4	122.47425603866577	fix_post	2		12	2.0	2.5	/experiments/AOT/AOT_stimuli/rescaled_final/1846_fw.mp4	0.0	144.16909003257751	0.10001206398010254
5	122.57426810264587	fix_pre	0		120	3.0	2.5	/experiments/AOT/AOT_stimuli/rescaled_final/2046_fw.mp4	0.0	144.26910209655762	0.9999940395355225
5	123.5742621421814	movie	1		245	3.0	2.5	/experiments/AOT/AOT_stimuli/rescaled_final/2046_fw.mp4	0.0	145.26909613609314	2.500005006790161
5	123.95764207839966	pulse	1	t		3.0	2.5	/experiments/AOT/AOT_stimuli/rescaled_final/2046_fw.mp4	0.0	145.6524760723114	
5	125.55765914916992	pulse	1	t		3.0	2.5	/experiments/AOT/AOT_stimuli/rescaled_final/2046_fw.mp4	0.0	147.25249314308167	
5	126.07426714897156	fix_post	2		12	3.0	2.5	/experiments/AOT/AOT_stimuli/rescaled_final/2046_fw.mp4	0.0	147.7691011428833	0.09997987747192383
6	126.17424702644348	fix_pre	0		119	4.0	2.5	/experiments/AOT/AOT_stimuli/rescaled_final/1018_fw.mp4	0.0	147.86908102035522	0.9916501045227051
6	127.15774202346802	pulse	0	t		4.0	2.5	/experiments/AOT/AOT_stimuli/rescaled_final/1018_fw.mp4	0.0	148.85257601737976	
6	127.16589713096619	movie	1		250	4.0	2.5	/experiments/AOT/AOT_stimuli/rescaled_final/1018_fw.mp4	0.0	148.86073112487793	2.508370876312256
6	128.75803208351135	pulse	1	t		4.0	2.5	/experiments/AOT/AOT_stimuli/rescaled_final/1018_fw.mp4	0.0	150.4528660774231	
6	129.67426800727844	fix_post	2		12	4.0	2.5	/experiments/AOT/AOT_stimuli/rescaled_final/1018_fw.mp4	0.0	151.36910200119019	0.09997320175170898
7	129.77424120903015	fix_pre	0		120	5.0	2.5	/experiments/AOT/AOT_stimuli/rescaled_final/0072_fw.mp4	0.0	151.4690752029419	1.0000758171081543
7	130.3584680557251	pulse	0	t		5.0	2.5	/experiments/AOT/AOT_stimuli/rescaled_final/0072_fw.mp4	0.0	152.05330204963684	
7	130.7743170261383	movie	1		245	5.0	2.5	/experiments/AOT/AOT_stimuli/rescaled_final/0072_fw.mp4	0.0	152.46915102005005	2.499936103820801
7	131.95773816108704	pulse	1	t		5.0	2.5	/experiments/AOT/AOT_stimuli/rescaled_final/0072_fw.mp4	0.0	153.65257215499878	
7	133.2742531299591	fix_post	2		12	5.0	2.5	/experiments/AOT/AOT_stimuli/rescaled_final/0072_fw.mp4	0.0	154.96908712387085	0.10001897811889648
8	133.374272108078	fix_pre	0		120	6.0	2.5	/experiments/AOT/AOT_stimuli/rescaled_final/0823_fw.mp4	0.0	155.06910610198975	1.0000219345092773
8	133.5576741695404	pulse	0	t		6.0	2.5	/experiments/AOT/AOT_stimuli/rescaled_final/0823_fw.mp4	0.0	155.25250816345215	
8	134.37429404258728	movie	1		244	6.0	2.5	/experiments/AOT/AOT_stimuli/rescaled_final/0823_fw.mp4	0.0	156.06912803649902	2.4999380111694336
8	135.1576120853424	pulse	1	t		6.0	2.5	/experiments/AOT/AOT_stimuli/rescaled_final/0823_fw.mp4	0.0	156.85244607925415	
8	136.76610016822815	pulse	1	t		6.0	2.5	/experiments/AOT/AOT_stimuli/rescaled_final/0823_fw.mp4	0.0	158.4609341621399	
8	136.8742320537567	fix_post	2		12	6.0	2.5	/experiments/AOT/AOT_stimuli/rescaled_final/0823_fw.mp4	0.0	158.56906604766846	0.09987711906433105
9	136.97410917282104	fix_pre	0		120	7.0	2.5	blank	1.0	158.6689431667328	1.0001568794250488
9	137.9742660522461	movie	1		300	7.0	2.5	blank	1.0	159.66910004615784	2.4999310970306396
9	138.35766005516052	pulse	1	t		7.0	2.5	blank	1.0	160.05249404907227	
9	139.95773100852966	pulse	1	t		7.0	2.5	blank	1.0	161.6525650024414	
9	140.47419714927673	fix_post	2		12	7.0	2.5	blank	1.0	162.16903114318848	0.09998583793640137
10	140.57418298721313	fix_pre	0		119	8.0	2.5	/experiments/AOT/AOT_stimuli/rescaled_final/2125_rv.mp4	0.0	162.26901698112488	0.9916000366210938
10	141.5577380657196	pulse	0	t		8.0	2.5	/experiments/AOT/AOT_stimuli/rescaled_final/2125_rv.mp4	0.0	163.25257205963135	
10	141.56578302383423	movie	1		246	8.0	2.5	/experiments/AOT/AOT_stimuli/rescaled_final/2125_rv.mp4	0.0	163.26061701774597	2.508409023284912
10	143.15795302391052	pulse	1	t		8.0	2.5	/experiments/AOT/AOT_stimuli/rescaled_final/2125_rv.mp4	0.0	164.85278701782227	
10	144.07419204711914	fix_post	2		12	8.0	2.5	/experiments/AOT/AOT_stimuli/rescaled_final/2125_rv.mp4	0.0	165.76902604103088	0.0999910831451416
11	144.17418313026428	fix_pre	0		120	9.0	2.5	/experiments/AOT/AOT_stimuli/rescaled_final/0095_fw.mp4	0.0	165.86901712417603	1.0000150203704834
11	144.75768208503723	pulse	0	t		9.0	2.5	/experiments/AOT/AOT_stimuli/rescaled_final/0095_fw.mp4	0.0	166.45251607894897	
11	145.17419815063477	movie	1		245	9.0	2.5	/experiments/AOT/AOT_stimuli/rescaled_final/0095_fw.mp4	0.0	166.8690321445465	2.4995319843292236
11	146.35771107673645	pulse	1	t		9.0	2.5	/experiments/AOT/AOT_stimuli/rescaled_final/0095_fw.mp4	0.0	168.0525450706482	
11	147.673730134964	fix_post	2		12	9.0	2.5	/experiments/AOT/AOT_stimuli/rescaled_final/0095_fw.mp4	0.0	169.36856412887573	0.10046792030334473
12	147.77419805526733	fix_pre	0		120	10.0	2.5	/experiments/AOT/AOT_stimuli/rescaled_final/0780_rv.mp4	0.0	169.46903204917908	0.9999849796295166
12	147.95767498016357	pulse	0	t		10.0	2.5	/experiments/AOT/AOT_stimuli/rescaled_final/0780_rv.mp4	0.0	169.65250897407532	
12	148.77418303489685	movie	1		246	10.0	2.5	/experiments/AOT/AOT_stimuli/rescaled_final/0780_rv.mp4	0.0	170.4690170288086	2.4999330043792725
12	149.55764603614807	pulse	1	t		10.0	2.5	/experiments/AOT/AOT_stimuli/rescaled_final/0780_rv.mp4	0.0	171.25248003005981	
12	151.15766310691833	pulse	1	t		10.0	2.5	/experiments/AOT/AOT_stimuli/rescaled_final/0780_rv.mp4	0.0	172.85249710083008	
12	151.27411603927612	fix_post	2		12	10.0	2.5	/experiments/AOT/AOT_stimuli/rescaled_final/0780_rv.mp4	0.0	172.96895003318787	0.09999394416809082
13	151.3741099834442	fix_pre	0		120	11.0	2.5	/experiments/AOT/AOT_stimuli/rescaled_final/1666_fw.mp4	0.0	173.06894397735596	0.999953031539917
13	152.37406301498413	movie	1		244	11.0	2.5	/experiments/AOT/AOT_stimuli/rescaled_final/1666_fw.mp4	0.0	174.06889700889587	2.5000669956207275
13	152.75727200508118	pulse	1	t		11.0	2.5	/experiments/AOT/AOT_stimuli/rescaled_final/1666_fw.mp4	0.0	174.45210599899292	
13	154.35759210586548	pulse	1	t		11.0	2.5	/experiments/AOT/AOT_stimuli/rescaled_final/1666_fw.mp4	0.0	176.05242609977722	
13	154.87413001060486	fix_post	2		12	11.0	2.5	/experiments/AOT/AOT_stimuli/rescaled_final/1666_fw.mp4	0.0	176.5689640045166	0.10002708435058594
14	154.97415709495544	fix_pre	0		119	12.0	2.5	/experiments/AOT/AOT_stimuli/rescaled_final/0935_rv.mp4	0.0	176.6689910888672	0.9915659427642822
14	155.95752620697021	pulse	0	t		12.0	2.5	/experiments/AOT/AOT_stimuli/rescaled_final/0935_rv.mp4	0.0	177.65236020088196	
14	155.96572303771973	movie	1		244	12.0	2.5	/experiments/AOT/AOT_stimuli/rescaled_final/0935_rv.mp4	0.0	177.66055703163147	2.5080010890960693
14	157.5572590827942	pulse	1	t		12.0	2.5	/experiments/AOT/AOT_stimuli/rescaled_final/0935_rv.mp4	0.0	179.25209307670593	
14	158.4737241268158	fix_post	2		12	12.0	2.5	/experiments/AOT/AOT_stimuli/rescaled_final/0935_rv.mp4	0.0	180.16855812072754	0.10034584999084473
15	158.57406997680664	fix_pre	0		120	13.0	2.5	/experiments/AOT/AOT_stimuli/rescaled_final/0387_rv.mp4	0.0	180.26890397071838	1.0000431537628174
15	159.15755820274353	pulse	0	t		13.0	2.5	/experiments/AOT/AOT_stimuli/rescaled_final/0387_rv.mp4	0.0	180.85239219665527	
15	159.57411313056946	movie	1		244	13.0	2.5	/experiments/AOT/AOT_stimuli/rescaled_final/0387_rv.mp4	0.0	181.2689471244812	2.4999940395355225
15	160.75761914253235	pulse	1	t		13.0	2.5	/experiments/AOT/AOT_stimuli/rescaled_final/0387_rv.mp4	0.0	182.4524531364441	
15	162.07410717010498	fix_post	2		12	13.0	2.5	/experiments/AOT/AOT_stimuli/rescaled_final/0387_rv.mp4	0.0	183.76894116401672	0.09999203681945801
16	162.17409920692444	fix_pre	0		120	14.0	2.5	blank	1.0	183.86893320083618	0.9999699592590332
16	162.35766506195068	pulse	0	t		14.0	2.5	blank	1.0	184.05249905586243	
16	163.17406916618347	movie	1		300	14.0	2.5	blank	1.0	184.86890316009521	2.499950885772705
16	163.95751404762268	pulse	1	t		14.0	2.5	blank	1.0	185.65234804153442	
16	165.5574870109558	pulse	1	t		14.0	2.5	blank	1.0	187.25232100486755	
16	165.67402005195618	fix_post	2		12	14.0	2.5	blank	1.0	187.36885404586792	0.10008692741394043
17	165.77410697937012	fix_pre	0		120	15.0	2.5	/experiments/AOT/AOT_stimuli/rescaled_final/1434_fw.mp4	0.0	187.46894097328186	1.0000231266021729
17	166.7741301059723	movie	1		246	15.0	2.5	/experiments/AOT/AOT_stimuli/rescaled_final/1434_fw.mp4	0.0	188.46896409988403	2.4996180534362793
17	167.15859198570251	pulse	1	t		15.0	2.5	/experiments/AOT/AOT_stimuli/rescaled_final/1434_fw.mp4	0.0	188.85342597961426	
17	168.75705909729004	pulse	1	t		15.0	2.5	/experiments/AOT/AOT_stimuli/rescaled_final/1434_fw.mp4	0.0	190.45189309120178	
17	169.27374815940857	fix_post	2		12	15.0	2.5	/experiments/AOT/AOT_stimuli/rescaled_final/1434_fw.mp4	0.0	190.9685821533203	0.10039687156677246
18	169.37414503097534	fix_pre	0		119	16.0	2.5	/experiments/AOT/AOT_stimuli/rescaled_final/1697_rv.mp4	0.0	191.06897902488708	0.9914469718933105
18	170.35775303840637	pulse	0	t		16.0	2.5	/experiments/AOT/AOT_stimuli/rescaled_final/1697_rv.mp4	0.0	192.05258703231812	
18	170.36559200286865	movie	1		246	16.0	2.5	/experiments/AOT/AOT_stimuli/rescaled_final/1697_rv.mp4	0.0	192.0604259967804	2.5085020065307617
18	171.957093000412	pulse	1	t		16.0	2.5	/experiments/AOT/AOT_stimuli/rescaled_final/1697_rv.mp4	0.0	193.65192699432373	
18	172.8740940093994	fix_post	2		12	16.0	2.5	/experiments/AOT/AOT_stimuli/rescaled_final/1697_rv.mp4	0.0	194.56892800331116	0.10004019737243652
19	172.97413420677185	fix_pre	0		120	17.0	2.5	/experiments/AOT/AOT_stimuli/rescaled_final/1290_rv.mp4	0.0	194.6689682006836	0.9999659061431885
19	173.5575602054596	pulse	0	t		17.0	2.5	/experiments/AOT/AOT_stimuli/rescaled_final/1290_rv.mp4	0.0	195.25239419937134	
19	173.97410011291504	movie	1		245	17.0	2.5	/experiments/AOT/AOT_stimuli/rescaled_final/1290_rv.mp4	0.0	195.66893410682678	2.4998390674591064
19	175.15755701065063	pulse	1	t		17.0	2.5	/experiments/AOT/AOT_stimuli/rescaled_final/1290_rv.mp4	0.0	196.85239100456238	
19	176.47393918037415	fix_post	2		12	17.0	2.5	/experiments/AOT/AOT_stimuli/rescaled_final/1290_rv.mp4	0.0	198.1687731742859	0.10007882118225098
20	176.5740180015564	fix_pre	0		120	18.0	2.5	/experiments/AOT/AOT_stimuli/rescaled_final/1290_fw.mp4	0.0	198.26885199546814	0.999993085861206
20	176.7574679851532	pulse	0	t		18.0	2.5	/experiments/AOT/AOT_stimuli/rescaled_final/1290_fw.mp4	0.0	198.45230197906494	
20	177.5740110874176	movie	1		246	18.0	2.5	/experiments/AOT/AOT_stimuli/rescaled_final/1290_fw.mp4	0.0	199.26884508132935	2.5000839233398438
20	178.3574240207672	pulse	1	t		18.0	2.5	/experiments/AOT/AOT_stimuli/rescaled_final/1290_fw.mp4	0.0	200.05225801467896	
20	179.96610403060913	pulse	1	t		18.0	2.5	/experiments/AOT/AOT_stimuli/rescaled_final/1290_fw.mp4	0.0	201.66093802452087	
20	180.07409501075745	fix_post	2		12	18.0	2.5	/experiments/AOT/AOT_stimuli/rescaled_final/1290_fw.mp4	0.0	201.7689290046692	0.0998530387878418
21	180.1739480495453	fix_pre	0		120	19.0	2.5	/experiments/AOT/AOT_stimuli/rescaled_final/2172_rv.mp4	0.0	201.86878204345703	1.0000829696655273
21	181.17403101921082	movie	1		244	19.0	2.5	/experiments/AOT/AOT_stimuli/rescaled_final/2172_rv.mp4	0.0	202.86886501312256	2.499969959259033
21	181.55698204040527	pulse	1	t		19.0	2.5	/experiments/AOT/AOT_stimuli/rescaled_final/2172_rv.mp4	0.0	203.25181603431702	
21	183.15748000144958	pulse	1	t		19.0	2.5	/experiments/AOT/AOT_stimuli/rescaled_final/2172_rv.mp4	0.0	204.85231399536133	
21	183.67400097846985	fix_post	2		12	19.0	2.5	/experiments/AOT/AOT_stimuli/rescaled_final/2172_rv.mp4	0.0	205.3688349723816	0.10008621215820312
22	183.77408719062805	fix_pre	0		119	20.0	2.5	blank	1.0	205.4689211845398	0.9915897846221924
22	184.75745105743408	pulse	0	t		20.0	2.5	blank	1.0	206.45228505134583	
22	184.76567697525024	movie	1		301	20.0	2.5	blank	1.0	206.460510969162	2.5083041191101074
22	186.35749101638794	pulse	1	t		20.0	2.5	blank	1.0	208.05232501029968	
22	187.27398109436035	fix_post	2		12	20.0	2.5	blank	1.0	208.9688150882721	0.09993791580200195
23	187.37391901016235	fix_pre	0		120	21.0	2.5	/experiments/AOT/AOT_stimuli/rescaled_final/0812_rv.mp4	0.0	209.0687530040741	1.0000760555267334
23	187.95745301246643	pulse	0	t		21.0	2.5	/experiments/AOT/AOT_stimuli/rescaled_final/0812_rv.mp4	0.0	209.65228700637817	
23	188.3739950656891	movie	1		245	21.0	2.5	/experiments/AOT/AOT_stimuli/rescaled_final/0812_rv.mp4	0.0	210.06882905960083	2.4999661445617676
23	189.55764508247375	pulse	1	t		21.0	2.5	/experiments/AOT/AOT_stimuli/rescaled_final/0812_rv.mp4	0.0	211.2524790763855	
23	190.87396121025085	fix_post	2		12	21.0	2.5	/experiments/AOT/AOT_stimuli/rescaled_final/0812_rv.mp4	0.0	212.5687952041626	0.09998488426208496
24	190.97394609451294	fix_pre	0		120	22.0	2.5	/experiments/AOT/AOT_stimuli/rescaled_final/0298_rv.mp4	0.0	212.66878008842468	0.9999959468841553
24	191.1574001312256	pulse	0	t		22.0	2.5	/experiments/AOT/AOT_stimuli/rescaled_final/0298_rv.mp4	0.0	212.85223412513733	
24	191.9739420413971	movie	1		245	22.0	2.5	/experiments/AOT/AOT_stimuli/rescaled_final/0298_rv.mp4	0.0	213.66877603530884	2.5000030994415283
24	192.75746297836304	pulse	1	t		22.0	2.5	/experiments/AOT/AOT_stimuli/rescaled_final/0298_rv.mp4	0.0	214.45229697227478	
24	194.36586618423462	pulse	1	t		22.0	2.5	/experiments/AOT/AOT_stimuli/rescaled_final/0298_rv.mp4	0.0	216.06070017814636	
24	194.47394514083862	fix_post	2		12	22.0	2.5	/experiments/AOT/AOT_stimuli/rescaled_final/0298_rv.mp4	0.0	216.16877913475037	0.10005593299865723
25	194.57400107383728	fix_pre	0		120	23.0	2.5	/experiments/AOT/AOT_stimuli/rescaled_final/1215_rv.mp4	0.0	216.26883506774902	0.9999840259552002
25	195.57398509979248	movie	1		246	23.0	2.5	/experiments/AOT/AOT_stimuli/rescaled_final/1215_rv.mp4	0.0	217.26881909370422	2.4999449253082275
25	195.95827913284302	pulse	1	t		23.0	2.5	/experiments/AOT/AOT_stimuli/rescaled_final/1215_rv.mp4	0.0	217.65311312675476	
25	197.55745601654053	pulse	1	t		23.0	2.5	/experiments/AOT/AOT_stimuli/rescaled_final/1215_rv.mp4	0.0	219.25229001045227	
25	198.0739300251007	fix_post	2		12	23.0	2.5	/experiments/AOT/AOT_stimuli/rescaled_final/1215_rv.mp4	0.0	219.76876401901245	0.10004115104675293
26	198.17397117614746	fix_pre	0		119	24.0	2.5	/experiments/AOT/AOT_stimuli/rescaled_final/1756_fw.mp4	0.0	219.8688051700592	0.9916369915008545
26	199.15741801261902	pulse	0	t		24.0	2.5	/experiments/AOT/AOT_stimuli/rescaled_final/1756_fw.mp4	0.0	220.85225200653076	
26	199.16560816764832	movie	1		244	24.0	2.5	/experiments/AOT/AOT_stimuli/rescaled_final/1756_fw.mp4	0.0	220.86044216156006	2.508302927017212
26	200.7570390701294	pulse	1	t		24.0	2.5	/experiments/AOT/AOT_stimuli/rescaled_final/1756_fw.mp4	0.0	222.45187306404114	
26	201.67391109466553	fix_post	2		12	24.0	2.5	/experiments/AOT/AOT_stimuli/rescaled_final/1756_fw.mp4	0.0	223.36874508857727	0.1000831127166748
27	201.7739942073822	fix_pre	0		120	25.0	2.5	/experiments/AOT/AOT_stimuli/rescaled_final/1666_rv.mp4	0.0	223.46882820129395	0.9994709491729736
27	202.35735201835632	pulse	0	t		25.0	2.5	/experiments/AOT/AOT_stimuli/rescaled_final/1666_rv.mp4	0.0	224.05218601226807	
27	202.77346515655518	movie	1		243	25.0	2.5	/experiments/AOT/AOT_stimuli/rescaled_final/1666_rv.mp4	0.0	224.46829915046692	2.5004520416259766
27	203.95750403404236	pulse	1	t		25.0	2.5	/experiments/AOT/AOT_stimuli/rescaled_final/1666_rv.mp4	0.0	225.6523380279541	
27	205.27391719818115	fix_post	2		12	25.0	2.5	/experiments/AOT/AOT_stimuli/rescaled_final/1666_rv.mp4	0.0	226.9687511920929	0.10008978843688965
28	205.37400698661804	fix_pre	0		120	26.0	2.5	/experiments/AOT/AOT_stimuli/rescaled_final/1795_fw.mp4	0.0	227.06884098052979	0.9999270439147949
28	205.5573329925537	pulse	0	t		26.0	2.5	/experiments/AOT/AOT_stimuli/rescaled_final/1795_fw.mp4	0.0	227.25216698646545	
28	206.37393403053284	movie	1		244	26.0	2.5	/experiments/AOT/AOT_stimuli/rescaled_final/1795_fw.mp4	0.0	228.06876802444458	2.500044107437134
28	207.15740609169006	pulse	1	t		26.0	2.5	/experiments/AOT/AOT_stimuli/rescaled_final/1795_fw.mp4	0.0	228.8522400856018	
28	208.76580715179443	pulse	1	t		26.0	2.5	/experiments/AOT/AOT_stimuli/rescaled_final/1795_fw.mp4	0.0	230.46064114570618	
28	208.87397813796997	fix_post	2		12	26.0	2.5	/experiments/AOT/AOT_stimuli/rescaled_final/1795_fw.mp4	0.0	230.5688121318817	0.09994387626647949
29	208.97392201423645	fix_pre	0		120	27.0	2.5	/experiments/AOT/AOT_stimuli/rescaled_final/0103_fw.mp4	0.0	230.6687560081482	0.9999191761016846
29	209.97384119033813	movie	1		242	27.0	2.5	/experiments/AOT/AOT_stimuli/rescaled_final/0103_fw.mp4	0.0	231.66867518424988	2.5000038146972656
29	210.35745906829834	pulse	1	t		27.0	2.5	/experiments/AOT/AOT_stimuli/rescaled_final/0103_fw.mp4	0.0	232.05229306221008	
29	211.95728302001953	pulse	1	t		27.0	2.5	/experiments/AOT/AOT_stimuli/rescaled_final/0103_fw.mp4	0.0	233.65211701393127	
29	212.4738450050354	fix_post	2		12	27.0	2.5	/experiments/AOT/AOT_stimuli/rescaled_final/0103_fw.mp4	0.0	234.16867899894714	0.10003900527954102
30	212.57388401031494	fix_pre	0		119	28.0	2.5	blank	1.0	234.26871800422668	0.9916009902954102
30	213.5574061870575	pulse	0	t		28.0	2.5	blank	1.0	235.25224018096924	
30	213.56548500061035	movie	1		301	28.0	2.5	blank	1.0	235.2603189945221	2.508341073989868
30	215.1574730873108	pulse	1	t		28.0	2.5	blank	1.0	236.85230708122253	
30	216.07382607460022	fix_post	2		12	28.0	2.5	blank	1.0	237.76866006851196	0.10002398490905762
31	216.17385005950928	fix_pre	0		120	29.0	2.5	/experiments/AOT/AOT_stimuli/rescaled_final/2050_rv.mp4	0.0	237.86868405342102	1.0000650882720947
31	216.75732111930847	pulse	0	t		29.0	2.5	/experiments/AOT/AOT_stimuli/rescaled_final/2050_rv.mp4	0.0	238.45215511322021	
31	217.17391514778137	movie	1		243	29.0	2.5	/experiments/AOT/AOT_stimuli/rescaled_final/2050_rv.mp4	0.0	238.86874914169312	2.499917984008789
31	218.35740900039673	pulse	1	t		29.0	2.5	/experiments/AOT/AOT_stimuli/rescaled_final/2050_rv.mp4	0.0	240.05224299430847	
31	219.67383313179016	fix_post	2		12	29.0	2.5	/experiments/AOT/AOT_stimuli/rescaled_final/2050_rv.mp4	0.0	241.3686671257019	0.09995603561401367
32	219.77378916740417	fix_pre	0		120	30.0	2.5	/experiments/AOT/AOT_stimuli/rescaled_final/0178_fw.mp4	0.0	241.46862316131592	1.0000848770141602
32	219.9573690891266	pulse	0	t		30.0	2.5	/experiments/AOT/AOT_stimuli/rescaled_final/0178_fw.mp4	0.0	241.65220308303833	
32	220.77387404441833	movie	1		244	30.0	2.5	/experiments/AOT/AOT_stimuli/rescaled_final/0178_fw.mp4	0.0	242.46870803833008	2.4995150566101074
32	221.55734205245972	pulse	1	t		30.0	2.5	/experiments/AOT/AOT_stimuli/rescaled_final/0178_fw.mp4	0.0	243.25217604637146	
32	223.16564297676086	pulse	1	t		30.0	2.5	/experiments/AOT/AOT_stimuli/rescaled_final/0178_fw.mp4	0.0	244.8604769706726	
32	223.27338910102844	fix_post	2		12	30.0	2.5	/experiments/AOT/AOT_stimuli/rescaled_final/0178_fw.mp4	0.0	244.96822309494019	0.10045194625854492
33	223.373841047287	fix_pre	0		120	31.0	2.5	/experiments/AOT/AOT_stimuli/rescaled_final/0846_fw.mp4	0.0	245.06867504119873	0.9995760917663574
33	224.37341713905334	movie	1		247	31.0	2.5	/experiments/AOT/AOT_stimuli/rescaled_final/0846_fw.mp4	0.0	246.0682511329651	2.5004098415374756
33	224.76532816886902	pulse	1	t		31.0	2.5	/experiments/AOT/AOT_stimuli/rescaled_final/0846_fw.mp4	0.0	246.46016216278076	
33	226.35716319084167	pulse	1	t		31.0	2.5	/experiments/AOT/AOT_stimuli/rescaled_final/0846_fw.mp4	0.0	248.05199718475342	
33	226.87382698059082	fix_post	2		12	31.0	2.5	/experiments/AOT/AOT_stimuli/rescaled_final/0846_fw.mp4	0.0	248.56866097450256	0.09991312026977539
34	226.9737401008606	fix_pre	0		119	32.0	2.5	/experiments/AOT/AOT_stimuli/rescaled_final/0785_fw.mp4	0.0	248.66857409477234	0.9916880130767822
34	227.9573211669922	pulse	0	t		32.0	2.5	/experiments/AOT/AOT_stimuli/rescaled_final/0785_fw.mp4	0.0	249.65215516090393	
34	227.96542811393738	movie	1		246	32.0	2.5	/experiments/AOT/AOT_stimuli/rescaled_final/0785_fw.mp4	0.0	249.66026210784912	2.508333921432495
34	229.55686616897583	pulse	1	t		32.0	2.5	/experiments/AOT/AOT_stimuli/rescaled_final/0785_fw.mp4	0.0	251.25170016288757	
34	230.47376203536987	fix_post	2		12	32.0	2.5	/experiments/AOT/AOT_stimuli/rescaled_final/0785_fw.mp4	0.0	252.16859602928162	0.1000051498413086
35	230.57376718521118	fix_pre	0		120	33.0	2.5	blank	1.0	252.26860117912292	0.9999380111694336
35	231.15736317634583	pulse	0	t		33.0	2.5	blank	1.0	252.85219717025757	
35	231.57370519638062	movie	1		300	33.0	2.5	blank	1.0	253.26853919029236	2.500065803527832
35	232.7573070526123	pulse	1	t		33.0	2.5	blank	1.0	254.45214104652405	
35	234.07377099990845	fix_post	2		12	33.0	2.5	blank	1.0	255.7686049938202	0.0999600887298584
36	234.1737310886383	fix_pre	0		120	34.0	2.5	/experiments/AOT/AOT_stimuli/rescaled_final/1261_fw.mp4	0.0	255.86856508255005	1.000040054321289
36	234.35719203948975	pulse	0	t		34.0	2.5	/experiments/AOT/AOT_stimuli/rescaled_final/1261_fw.mp4	0.0	256.0520260334015	
36	235.1737711429596	movie	1		245	34.0	2.5	/experiments/AOT/AOT_stimuli/rescaled_final/1261_fw.mp4	0.0	256.86860513687134	2.4999449253082275
36	235.9571671485901	pulse	1	t		34.0	2.5	/experiments/AOT/AOT_stimuli/rescaled_final/1261_fw.mp4	0.0	257.65200114250183	
36	237.55673098564148	pulse	1	t		34.0	2.5	/experiments/AOT/AOT_stimuli/rescaled_final/1261_fw.mp4	0.0	259.2515649795532	
36	237.67371606826782	fix_post	2		12	34.0	2.5	/experiments/AOT/AOT_stimuli/rescaled_final/1261_fw.mp4	0.0	259.36855006217957	0.10001707077026367
37	237.7737331390381	fix_pre	0		120	35.0	2.5	/experiments/AOT/AOT_stimuli/rescaled_final/0965_fw.mp4	0.0	259.46856713294983	1.0000288486480713
37	238.77376198768616	movie	1		244	35.0	2.5	/experiments/AOT/AOT_stimuli/rescaled_final/0965_fw.mp4	0.0	260.4685959815979	2.50007700920105
37	239.15689897537231	pulse	1	t		35.0	2.5	/experiments/AOT/AOT_stimuli/rescaled_final/0965_fw.mp4	0.0	260.85173296928406	
37	240.7571461200714	pulse	1	t		35.0	2.5	/experiments/AOT/AOT_stimuli/rescaled_final/0965_fw.mp4	0.0	262.45198011398315	
37	241.2738389968872	fix_post	2		12	35.0	2.5	/experiments/AOT/AOT_stimuli/rescaled_final/0965_fw.mp4	0.0	262.96867299079895	0.09985017776489258
38	241.3736891746521	fix_pre	0		119	36.0	2.5	/experiments/AOT/AOT_stimuli/rescaled_final/0452_fw.mp4	0.0	263.06852316856384	0.9916579723358154
38	242.35711908340454	pulse	0	t		36.0	2.5	/experiments/AOT/AOT_stimuli/rescaled_final/0452_fw.mp4	0.0	264.0519530773163	
38	242.36534714698792	movie	1		245	36.0	2.5	/experiments/AOT/AOT_stimuli/rescaled_final/0452_fw.mp4	0.0	264.06018114089966	2.508415937423706
38	243.95699000358582	pulse	1	t		36.0	2.5	/experiments/AOT/AOT_stimuli/rescaled_final/0452_fw.mp4	0.0	265.65182399749756	
38	244.87376308441162	fix_post	2		12	36.0	2.5	/experiments/AOT/AOT_stimuli/rescaled_final/0452_fw.mp4	0.0	266.56859707832336	0.09987092018127441
39	244.9736340045929	fix_pre	0		120	37.0	2.5	/experiments/AOT/AOT_stimuli/rescaled_final/1501_fw.mp4	0.0	266.66846799850464	1.0000770092010498
39	245.55713319778442	pulse	0	t		37.0	2.5	/experiments/AOT/AOT_stimuli/rescaled_final/1501_fw.mp4	0.0	267.25196719169617	
39	245.97371101379395	movie	1		247	37.0	2.5	/experiments/AOT/AOT_stimuli/rescaled_final/1501_fw.mp4	0.0	267.6685450077057	2.4999029636383057
39	247.15731716156006	pulse	1	t		37.0	2.5	/experiments/AOT/AOT_stimuli/rescaled_final/1501_fw.mp4	0.0	268.8521511554718	
39	248.47361397743225	fix_post	2		12	37.0	2.5	/experiments/AOT/AOT_stimuli/rescaled_final/1501_fw.mp4	0.0	270.168447971344	0.09998607635498047
40	248.57360005378723	fix_pre	0		120	38.0	2.5	/experiments/AOT/AOT_stimuli/rescaled_final/0588_fw.mp4	0.0	270.268434047699	1.0000910758972168
40	248.75713920593262	pulse	0	t		38.0	2.5	/experiments/AOT/AOT_stimuli/rescaled_final/0588_fw.mp4	0.0	270.45197319984436	
40	249.57369112968445	movie	1		243	38.0	2.5	/experiments/AOT/AOT_stimuli/rescaled_final/0588_fw.mp4	0.0	271.2685251235962	2.499988079071045
40	250.35718297958374	pulse	1	t		38.0	2.5	/experiments/AOT/AOT_stimuli/rescaled_final/0588_fw.mp4	0.0	272.0520169734955	
40	251.96557903289795	pulse	1	t		38.0	2.5	/experiments/AOT/AOT_stimuli/rescaled_final/0588_fw.mp4	0.0	273.6604130268097	
40	252.0736792087555	fix_post	2		12	38.0	2.5	/experiments/AOT/AOT_stimuli/rescaled_final/0588_fw.mp4	0.0	273.76851320266724	0.0999598503112793
41	252.17363905906677	fix_pre	0		120	39.0	2.5	/experiments/AOT/AOT_stimuli/rescaled_final/1786_rv.mp4	0.0	273.8684730529785	1.000014066696167
41	253.17365312576294	movie	1		244	39.0	2.5	/experiments/AOT/AOT_stimuli/rescaled_final/1786_rv.mp4	0.0	274.8684871196747	2.500079870223999
41	253.55694818496704	pulse	1	t		39.0	2.5	/experiments/AOT/AOT_stimuli/rescaled_final/1786_rv.mp4	0.0	275.2517821788788	
41	255.1570692062378	pulse	1	t		39.0	2.5	/experiments/AOT/AOT_stimuli/rescaled_final/1786_rv.mp4	0.0	276.85190320014954	
41	255.67373299598694	fix_post	2		12	39.0	2.5	/experiments/AOT/AOT_stimuli/rescaled_final/1786_rv.mp4	0.0	277.3685669898987	0.09995412826538086
42	255.77368712425232	fix_pre	0		119	40.0	2.5	blank	1.0	277.46852111816406	0.9915919303894043
42	256.7572422027588	pulse	0	t		40.0	2.5	blank	1.0	278.45207619667053	
42	256.7652790546417	movie	1		301	40.0	2.5	blank	1.0	278.46011304855347	2.5084049701690674
42	258.35713601112366	pulse	1	t		40.0	2.5	blank	1.0	280.0519700050354	
42	259.2736840248108	fix_post	2		12	40.0	2.5	blank	1.0	280.96851801872253	0.09997415542602539
43	259.3736581802368	fix_pre	0		120	41.0	2.5	/experiments/AOT/AOT_stimuli/rescaled_final/0027_rv.mp4	0.0	281.06849217414856	1.0001239776611328
43	259.9571580886841	pulse	0	t		41.0	2.5	/experiments/AOT/AOT_stimuli/rescaled_final/0027_rv.mp4	0.0	281.6519920825958	
43	260.37378215789795	movie	1		244	41.0	2.5	/experiments/AOT/AOT_stimuli/rescaled_final/0027_rv.mp4	0.0	282.0686161518097	2.4998619556427
43	261.5572199821472	pulse	1	t		41.0	2.5	/experiments/AOT/AOT_stimuli/rescaled_final/0027_rv.mp4	0.0	283.25205397605896	
43	262.87364411354065	fix_post	2		12	41.0	2.5	/experiments/AOT/AOT_stimuli/rescaled_final/0027_rv.mp4	0.0	284.5684781074524	0.10001206398010254
44	262.97365617752075	fix_pre	0		120	42.0	2.5	/experiments/AOT/AOT_stimuli/rescaled_final/1386_rv.mp4	0.0	284.6684901714325	1.000058889389038
44	263.1571671962738	pulse	0	t		42.0	2.5	/experiments/AOT/AOT_stimuli/rescaled_final/1386_rv.mp4	0.0	284.85200119018555	
44	263.9737150669098	movie	1		245	42.0	2.5	/experiments/AOT/AOT_stimuli/rescaled_final/1386_rv.mp4	0.0	285.66854906082153	2.499907970428467
44	264.7571120262146	pulse	1	t		42.0	2.5	/experiments/AOT/AOT_stimuli/rescaled_final/1386_rv.mp4	0.0	286.45194602012634	
44	266.36546897888184	pulse	1	t		42.0	2.5	/experiments/AOT/AOT_stimuli/rescaled_final/1386_rv.mp4	0.0	288.0603029727936	
44	266.47362303733826	fix_post	2		12	42.0	2.5	/experiments/AOT/AOT_stimuli/rescaled_final/1386_rv.mp4	0.0	288.16845703125	0.09996604919433594
45	266.5735890865326	fix_pre	0		120	43.0	2.5	/experiments/AOT/AOT_stimuli/rescaled_final/0441_rv.mp4	0.0	288.26842308044434	1.000162124633789
45	267.5737512111664	movie	1		243	43.0	2.5	/experiments/AOT/AOT_stimuli/rescaled_final/0441_rv.mp4	0.0	289.2685852050781	2.499844789505005
45	267.95667004585266	pulse	1	t		43.0	2.5	/experiments/AOT/AOT_stimuli/rescaled_final/0441_rv.mp4	0.0	289.6515040397644	
45	269.5570991039276	pulse	1	t		43.0	2.5	/experiments/AOT/AOT_stimuli/rescaled_final/0441_rv.mp4	0.0	291.25193309783936	
45	270.0735960006714	fix_post	2		12	43.0	2.5	/experiments/AOT/AOT_stimuli/rescaled_final/0441_rv.mp4	0.0	291.76842999458313	0.10007405281066895
46	270.17367005348206	fix_pre	0		119	44.0	2.5	/experiments/AOT/AOT_stimuli/rescaled_final/0167_fw.mp4	0.0	291.8685040473938	0.9915199279785156
46	271.1570951938629	pulse	0	t		44.0	2.5	/experiments/AOT/AOT_stimuli/rescaled_final/0167_fw.mp4	0.0	292.85192918777466	
46	271.16518998146057	movie	1		245	44.0	2.5	/experiments/AOT/AOT_stimuli/rescaled_final/0167_fw.mp4	0.0	292.8600239753723	2.508402109146118
46	272.7572031021118	pulse	1	t		44.0	2.5	/experiments/AOT/AOT_stimuli/rescaled_final/0167_fw.mp4	0.0	294.45203709602356	
46	273.6735920906067	fix_post	2		12	44.0	2.5	/experiments/AOT/AOT_stimuli/rescaled_final/0167_fw.mp4	0.0	295.36842608451843	0.10007405281066895
47	273.77366614341736	fix_pre	0		120	45.0	2.5	/experiments/AOT/AOT_stimuli/rescaled_final/0910_rv.mp4	0.0	295.4685001373291	0.9999198913574219
47	274.35792803764343	pulse	0	t		45.0	2.5	/experiments/AOT/AOT_stimuli/rescaled_final/0910_rv.mp4	0.0	296.0527620315552	
47	274.7735860347748	movie	1		243	45.0	2.5	/experiments/AOT/AOT_stimuli/rescaled_final/0910_rv.mp4	0.0	296.4684200286865	2.5001089572906494
47	275.95719718933105	pulse	1	t		45.0	2.5	/experiments/AOT/AOT_stimuli/rescaled_final/0910_rv.mp4	0.0	297.6520311832428	
47	277.27369499206543	fix_post	2		12	45.0	2.5	/experiments/AOT/AOT_stimuli/rescaled_final/0910_rv.mp4	0.0	298.9685289859772	0.09991121292114258
48	277.3736062049866	fix_pre	0		120	46.0	2.5	/experiments/AOT/AOT_stimuli/rescaled_final/1120_rv.mp4	0.0	299.0684401988983	0.9999668598175049
48	277.55710005760193	pulse	0	t		46.0	2.5	/experiments/AOT/AOT_stimuli/rescaled_final/1120_rv.mp4	0.0	299.2519340515137	
48	278.3735730648041	movie	1		246	46.0	2.5	/experiments/AOT/AOT_stimuli/rescaled_final/1120_rv.mp4	0.0	300.0684070587158	2.499680995941162
48	279.15758419036865	pulse	1	t		46.0	2.5	/experiments/AOT/AOT_stimuli/rescaled_final/1120_rv.mp4	0.0	300.8524181842804	
48	280.7650001049042	pulse	1	t		46.0	2.5	/experiments/AOT/AOT_stimuli/rescaled_final/1120_rv.mp4	0.0	302.4598340988159	
48	280.87325406074524	fix_post	2		12	46.0	2.5	/experiments/AOT/AOT_stimuli/rescaled_final/1120_rv.mp4	0.0	302.568088054657	0.09995508193969727
49	280.97320914268494	fix_pre	0		120	47.0	2.5	/experiments/AOT/AOT_stimuli/rescaled_final/0443_rv.mp4	0.0	302.6680431365967	1.0002038478851318
49	281.97341299057007	movie	1		246	47.0	2.5	/experiments/AOT/AOT_stimuli/rescaled_final/0443_rv.mp4	0.0	303.6682469844818	2.5001649856567383
49	282.36571502685547	pulse	1	t		47.0	2.5	/experiments/AOT/AOT_stimuli/rescaled_final/0443_rv.mp4	0.0	304.0605490207672	
49	283.9570200443268	pulse	1	t		47.0	2.5	/experiments/AOT/AOT_stimuli/rescaled_final/0443_rv.mp4	0.0	305.6518540382385	
49	284.4735779762268	fix_post	2		12	47.0	2.5	/experiments/AOT/AOT_stimuli/rescaled_final/0443_rv.mp4	0.0	306.16841197013855	0.09997105598449707
50	284.5735490322113	fix_pre	0		119	48.0	2.5	blank	1.0	306.26838302612305	0.991753101348877
50	285.55706906318665	pulse	0	t		48.0	2.5	blank	1.0	307.2519030570984	
50	285.5653021335602	movie	1		301	48.0	2.5	blank	1.0	307.2601361274719	2.5081958770751953
50	287.1570210456848	pulse	1	t		48.0	2.5	blank	1.0	308.85185503959656	
50	288.0734980106354	fix_post	2		12	48.0	2.5	blank	1.0	309.7683320045471	0.0999441146850586
51	288.17344212532043	fix_pre	0		120	49.0	2.5	/experiments/AOT/AOT_stimuli/rescaled_final/2064_fw.mp4	0.0	309.8682761192322	1.0000629425048828
51	288.7579209804535	pulse	0	t		49.0	2.5	/experiments/AOT/AOT_stimuli/rescaled_final/2064_fw.mp4	0.0	310.45275497436523	
51	289.1735050678253	movie	1		246	49.0	2.5	/experiments/AOT/AOT_stimuli/rescaled_final/2064_fw.mp4	0.0	310.86833906173706	2.4999639987945557
51	290.3586850166321	pulse	1	t		49.0	2.5	/experiments/AOT/AOT_stimuli/rescaled_final/2064_fw.mp4	0.0	312.0535190105438	
51	291.6734690666199	fix_post	2		12	49.0	2.5	/experiments/AOT/AOT_stimuli/rescaled_final/2064_fw.mp4	0.0	313.3683030605316	0.10008502006530762
52	291.7735540866852	fix_pre	0		120	50.0	2.5	/experiments/AOT/AOT_stimuli/rescaled_final/0855_fw.mp4	0.0	313.4683880805969	0.9998979568481445
52	291.9569962024689	pulse	0	t		50.0	2.5	/experiments/AOT/AOT_stimuli/rescaled_final/0855_fw.mp4	0.0	313.6518301963806	
52	292.7734520435333	movie	1		244	50.0	2.5	/experiments/AOT/AOT_stimuli/rescaled_final/0855_fw.mp4	0.0	314.46828603744507	2.5000531673431396
52	293.5569272041321	pulse	1	t		50.0	2.5	/experiments/AOT/AOT_stimuli/rescaled_final/0855_fw.mp4	0.0	315.2517611980438	
52	295.16542410850525	pulse	1	t		50.0	2.5	/experiments/AOT/AOT_stimuli/rescaled_final/0855_fw.mp4	0.0	316.860258102417	
52	295.27350521087646	fix_post	2		12	50.0	2.5	/experiments/AOT/AOT_stimuli/rescaled_final/0855_fw.mp4	0.0	316.9683392047882	0.0999147891998291
53	295.3734200000763	fix_pre	0		120	51.0	2.5	/experiments/AOT/AOT_stimuli/rescaled_final/1359_fw.mp4	0.0	317.06825399398804	1.000110149383545
53	296.37353014945984	movie	1		243	51.0	2.5	/experiments/AOT/AOT_stimuli/rescaled_final/1359_fw.mp4	0.0	318.0683641433716	2.499898910522461
53	296.76538610458374	pulse	1	t		51.0	2.5	/experiments/AOT/AOT_stimuli/rescaled_final/1359_fw.mp4	0.0	318.4602200984955	
53	298.3569459915161	pulse	1	t		51.0	2.5	/experiments/AOT/AOT_stimuli/rescaled_final/1359_fw.mp4	0.0	320.05177998542786	
53	298.8734290599823	fix_post	2		12	51.0	2.5	/experiments/AOT/AOT_stimuli/rescaled_final/1359_fw.mp4	0.0	320.56826305389404	0.10001802444458008
54	298.9734470844269	fix_pre	0		119	52.0	2.5	/experiments/AOT/AOT_stimuli/rescaled_final/1101_fw.mp4	0.0	320.6682810783386	0.99167799949646
54	299.9569339752197	pulse	0	t		52.0	2.5	/experiments/AOT/AOT_stimuli/rescaled_final/1101_fw.mp4	0.0	321.65176796913147	
54	299.96512508392334	movie	1		244	52.0	2.5	/experiments/AOT/AOT_stimuli/rescaled_final/1101_fw.mp4	0.0	321.6599590778351	2.5083789825439453
54	301.5653359889984	pulse	1	t		52.0	2.5	/experiments/AOT/AOT_stimuli/rescaled_final/1101_fw.mp4	0.0	323.26016998291016	
54	302.4735040664673	fix_post	2		12	52.0	2.5	/experiments/AOT/AOT_stimuli/rescaled_final/1101_fw.mp4	0.0	324.168338060379	0.09995007514953613
55	302.5734541416168	fix_pre	0		120	53.0	2.5	/experiments/AOT/AOT_stimuli/rescaled_final/2020_rv.mp4	0.0	324.26828813552856	1.0000860691070557
55	303.1569621562958	pulse	0	t		53.0	2.5	/experiments/AOT/AOT_stimuli/rescaled_final/2020_rv.mp4	0.0	324.8517961502075	
55	303.5735402107239	movie	1		244	53.0	2.5	/experiments/AOT/AOT_stimuli/rescaled_final/2020_rv.mp4	0.0	325.2683742046356	2.499889850616455
55	304.7579309940338	pulse	1	t		53.0	2.5	/experiments/AOT/AOT_stimuli/rescaled_final/2020_rv.mp4	0.0	326.45276498794556	
55	306.07343006134033	fix_post	2		12	53.0	2.5	/experiments/AOT/AOT_stimuli/rescaled_final/2020_rv.mp4	0.0	327.7682640552521	0.09999799728393555
56	306.17342805862427	fix_pre	0		120	54.0	2.5	/experiments/AOT/AOT_stimuli/rescaled_final/1261_fw.mp4	0.0	327.868262052536	1.0000450611114502
56	306.35791206359863	pulse	0	t		54.0	2.5	/experiments/AOT/AOT_stimuli/rescaled_final/1261_fw.mp4	0.0	328.0527460575104	
56	307.1734731197357	movie	1		244	54.0	2.5	/experiments/AOT/AOT_stimuli/rescaled_final/1261_fw.mp4	0.0	328.86830711364746	2.500046968460083
56	307.95781898498535	pulse	1	t		54.0	2.5	/experiments/AOT/AOT_stimuli/rescaled_final/1261_fw.mp4	0.0	329.6526529788971	
56	309.5569610595703	pulse	1	t		54.0	2.5	/experiments/AOT/AOT_stimuli/rescaled_final/1261_fw.mp4	0.0	331.25179505348206	
56	309.6735200881958	fix_post	2		12	54.0	2.5	/experiments/AOT/AOT_stimuli/rescaled_final/1261_fw.mp4	0.0	331.36835408210754	0.09991598129272461
57	309.7734360694885	fix_pre	0		120	55.0	2.5	blank	1.0	331.46827006340027	1.0000059604644775
57	310.773442029953	movie	1		300	55.0	2.5	blank	1.0	332.46827602386475	2.4999940395355225
57	311.15691208839417	pulse	1	t		55.0	2.5	blank	1.0	332.8517460823059	
57	312.7568531036377	pulse	1	t		55.0	2.5	blank	1.0	334.45168709754944	
57	313.2734360694885	fix_post	2		12	55.0	2.5	blank	1.0	334.96827006340027	0.09995913505554199
58	313.37339520454407	fix_pre	0		119	56.0	2.5	/experiments/AOT/AOT_stimuli/rescaled_final/1714_fw.mp4	0.0	335.0682291984558	0.9916818141937256
58	314.3569691181183	pulse	0	t		56.0	2.5	/experiments/AOT/AOT_stimuli/rescaled_final/1714_fw.mp4	0.0	336.05180311203003	
58	314.3650770187378	movie	1		244	56.0	2.5	/experiments/AOT/AOT_stimuli/rescaled_final/1714_fw.mp4	0.0	336.05991101264954	2.5082950592041016
58	315.9653081893921	pulse	1	t		56.0	2.5	/experiments/AOT/AOT_stimuli/rescaled_final/1714_fw.mp4	0.0	337.66014218330383	
58	316.8733720779419	fix_post	2		12	56.0	2.5	/experiments/AOT/AOT_stimuli/rescaled_final/1714_fw.mp4	0.0	338.56820607185364	0.09995889663696289
59	316.97333097457886	fix_pre	0		120	57.0	2.5	/experiments/AOT/AOT_stimuli/rescaled_final/0292_fw.mp4	0.0	338.6681649684906	0.9999871253967285
59	317.5568280220032	pulse	0	t		57.0	2.5	/experiments/AOT/AOT_stimuli/rescaled_final/0292_fw.mp4	0.0	339.2516620159149	
59	317.9733180999756	movie	1		245	57.0	2.5	/experiments/AOT/AOT_stimuli/rescaled_final/0292_fw.mp4	0.0	339.66815209388733	2.5001089572906494
59	319.1580641269684	pulse	1	t		57.0	2.5	/experiments/AOT/AOT_stimuli/rescaled_final/0292_fw.mp4	0.0	340.8528981208801	
59	320.47342705726624	fix_post	2		12	57.0	2.5	/experiments/AOT/AOT_stimuli/rescaled_final/0292_fw.mp4	0.0	342.168261051178	0.09996199607849121
60	320.5733890533447	fix_pre	0		120	58.0	2.5	/experiments/AOT/AOT_stimuli/rescaled_final/0103_fw.mp4	0.0	342.26822304725647	0.9999971389770508
60	320.75770020484924	pulse	0	t		58.0	2.5	/experiments/AOT/AOT_stimuli/rescaled_final/0103_fw.mp4	0.0	342.452534198761	
60	321.5733861923218	movie	1		242	58.0	2.5	/experiments/AOT/AOT_stimuli/rescaled_final/0103_fw.mp4	0.0	343.2682201862335	2.4999148845672607
60	322.35777521133423	pulse	1	t		58.0	2.5	/experiments/AOT/AOT_stimuli/rescaled_final/0103_fw.mp4	0.0	344.052609205246	
60	323.96536111831665	pulse	1	t		58.0	2.5	/experiments/AOT/AOT_stimuli/rescaled_final/0103_fw.mp4	0.0	345.6601951122284	
60	324.07330107688904	fix_post	2		12	58.0	2.5	/experiments/AOT/AOT_stimuli/rescaled_final/0103_fw.mp4	0.0	345.7681350708008	0.10002708435058594
61	324.1733281612396	fix_pre	0		120	59.0	2.5	/experiments/AOT/AOT_stimuli/rescaled_final/0379_rv.mp4	0.0	345.86816215515137	1.0001718997955322
61	325.17350006103516	movie	1		243	59.0	2.5	/experiments/AOT/AOT_stimuli/rescaled_final/0379_rv.mp4	0.0	346.8683340549469	2.4999570846557617
61	325.56523418426514	pulse	1	t		59.0	2.5	/experiments/AOT/AOT_stimuli/rescaled_final/0379_rv.mp4	0.0	347.2600681781769	
61	327.15683913230896	pulse	1	t		59.0	2.5	/experiments/AOT/AOT_stimuli/rescaled_final/0379_rv.mp4	0.0	348.8516731262207	
61	327.6734571456909	fix_post	2		12	59.0	2.5	/experiments/AOT/AOT_stimuli/rescaled_final/0379_rv.mp4	0.0	349.36829113960266	0.09988093376159668
62	327.7733380794525	fix_pre	0		119	60.0	2.5	/experiments/AOT/AOT_stimuli/rescaled_final/0268_fw.mp4	0.0	349.46817207336426	0.9917590618133545
62	328.7567980289459	pulse	0	t		60.0	2.5	/experiments/AOT/AOT_stimuli/rescaled_final/0268_fw.mp4	0.0	350.45163202285767	
62	328.76509714126587	movie	1		245	60.0	2.5	/experiments/AOT/AOT_stimuli/rescaled_final/0268_fw.mp4	0.0	350.4599311351776	2.508246898651123
62	330.3652560710907	pulse	1	t		60.0	2.5	/experiments/AOT/AOT_stimuli/rescaled_final/0268_fw.mp4	0.0	352.06009006500244	
62	331.273344039917	fix_post	2		12	60.0	2.5	/experiments/AOT/AOT_stimuli/rescaled_final/0268_fw.mp4	0.0	352.96817803382874	0.09996199607849121
63	331.3733060359955	fix_pre	0		120	61.0	2.5	/experiments/AOT/AOT_stimuli/rescaled_final/0765_rv.mp4	0.0	353.0681400299072	1.0
63	331.9568190574646	pulse	0	t		61.0	2.5	/experiments/AOT/AOT_stimuli/rescaled_final/0765_rv.mp4	0.0	353.65165305137634	
63	332.3733060359955	movie	1		246	61.0	2.5	/experiments/AOT/AOT_stimuli/rescaled_final/0765_rv.mp4	0.0	354.0681400299072	2.500009059906006
63	333.556871175766	pulse	1	t		61.0	2.5	/experiments/AOT/AOT_stimuli/rescaled_final/0765_rv.mp4	0.0	355.25170516967773	
63	334.8733150959015	fix_post	2		12	61.0	2.5	/experiments/AOT/AOT_stimuli/rescaled_final/0765_rv.mp4	0.0	356.56814908981323	0.10000801086425781
64	334.97332310676575	fix_pre	0		120	62.0	2.5	/experiments/AOT/AOT_stimuli/rescaled_final/1024_fw.mp4	0.0	356.6681571006775	0.9995920658111572
64	335.15687012672424	pulse	0	t		62.0	2.5	/experiments/AOT/AOT_stimuli/rescaled_final/1024_fw.mp4	0.0	356.851704120636	
64	335.9729151725769	movie	1		244	62.0	2.5	/experiments/AOT/AOT_stimuli/rescaled_final/1024_fw.mp4	0.0	357.66774916648865	2.500743865966797
64	336.75735116004944	pulse	1	t		62.0	2.5	/experiments/AOT/AOT_stimuli/rescaled_final/1024_fw.mp4	0.0	358.4521851539612	
64	338.36545610427856	pulse	1	t		62.0	2.5	/experiments/AOT/AOT_stimuli/rescaled_final/1024_fw.mp4	0.0	360.0602900981903	
64	338.4736590385437	fix_post	2		12	62.0	2.5	/experiments/AOT/AOT_stimuli/rescaled_final/1024_fw.mp4	0.0	360.16849303245544	0.10000395774841309
65	338.5736629962921	fix_pre	0		120	63.0	2.5	blank	1.0	360.26849699020386	0.999589204788208
65	339.5732522010803	movie	1		300	63.0	2.5	blank	1.0	361.26808619499207	2.500098943710327
65	339.95761919021606	pulse	1	t		63.0	2.5	blank	1.0	361.6524531841278	
65	341.5575370788574	pulse	1	t		63.0	2.5	blank	1.0	363.25237107276917	
65	342.07335114479065	fix_post	2		12	63.0	2.5	blank	1.0	363.7681851387024	0.0999288558959961
66	342.17328000068665	fix_pre	0		119	64.0	2.5	/experiments/AOT/AOT_stimuli/rescaled_final/0640_fw.mp4	0.0	363.8681139945984	0.9916620254516602
66	343.15686202049255	pulse	0	t		64.0	2.5	/experiments/AOT/AOT_stimuli/rescaled_final/0640_fw.mp4	0.0	364.8516960144043	
66	343.1649420261383	movie	1		244	64.0	2.5	/experiments/AOT/AOT_stimuli/rescaled_final/0640_fw.mp4	0.0	364.85977602005005	2.5083060264587402
66	344.7651011943817	pulse	1	t		64.0	2.5	/experiments/AOT/AOT_stimuli/rescaled_final/0640_fw.mp4	0.0	366.45993518829346	
66	345.67324805259705	fix_post	2		12	64.0	2.5	/experiments/AOT/AOT_stimuli/rescaled_final/0640_fw.mp4	0.0	367.3680820465088	0.09997010231018066
67	345.7732181549072	fix_pre	0		120	65.0	2.5	/experiments/AOT/AOT_stimuli/rescaled_final/0936_fw.mp4	0.0	367.46805214881897	1.000011920928955
67	346.3567280769348	pulse	0	t		65.0	2.5	/experiments/AOT/AOT_stimuli/rescaled_final/0936_fw.mp4	0.0	368.05156207084656	
67	346.7732300758362	movie	1		247	65.0	2.5	/experiments/AOT/AOT_stimuli/rescaled_final/0936_fw.mp4	0.0	368.4680640697479	2.499980926513672
67	347.9567940235138	pulse	1	t		65.0	2.5	/experiments/AOT/AOT_stimuli/rescaled_final/0936_fw.mp4	0.0	369.65162801742554	
67	349.27321100234985	fix_post	2		12	65.0	2.5	/experiments/AOT/AOT_stimuli/rescaled_final/0936_fw.mp4	0.0	370.9680449962616	0.1000211238861084
68	349.37323212623596	fix_pre	0		120	66.0	2.5	/experiments/AOT/AOT_stimuli/rescaled_final/0340_fw.mp4	0.0	371.0680661201477	1.0000638961791992
68	349.55675506591797	pulse	0	t		66.0	2.5	/experiments/AOT/AOT_stimuli/rescaled_final/0340_fw.mp4	0.0	371.2515890598297	
68	350.37329602241516	movie	1		246	66.0	2.5	/experiments/AOT/AOT_stimuli/rescaled_final/0340_fw.mp4	0.0	372.0681300163269	2.4999961853027344
68	351.156699180603	pulse	1	t		66.0	2.5	/experiments/AOT/AOT_stimuli/rescaled_final/0340_fw.mp4	0.0	372.85153317451477	
68	352.7653970718384	pulse	1	t		66.0	2.5	/experiments/AOT/AOT_stimuli/rescaled_final/0340_fw.mp4	0.0	374.4602310657501	
68	352.8732922077179	fix_post	2		12	66.0	2.5	/experiments/AOT/AOT_stimuli/rescaled_final/0340_fw.mp4	0.0	374.56812620162964	0.09995698928833008
69	352.9732491970062	fix_pre	0		120	67.0	2.5	/experiments/AOT/AOT_stimuli/rescaled_final/0241_fw.mp4	0.0	374.66808319091797	0.9999938011169434
69	353.97324299812317	movie	1		246	67.0	2.5	/experiments/AOT/AOT_stimuli/rescaled_final/0241_fw.mp4	0.0	375.6680769920349	2.4999821186065674
69	354.35801911354065	pulse	1	t		67.0	2.5	/experiments/AOT/AOT_stimuli/rescaled_final/0241_fw.mp4	0.0	376.0528531074524	
69	355.9577190876007	pulse	1	t		67.0	2.5	/experiments/AOT/AOT_stimuli/rescaled_final/0241_fw.mp4	0.0	377.65255308151245	
69	356.47322511672974	fix_post	2		12	67.0	2.5	/experiments/AOT/AOT_stimuli/rescaled_final/0241_fw.mp4	0.0	378.1680591106415	0.09996795654296875
70	356.5731930732727	fix_pre	0		120	68.0	2.5	/experiments/AOT/AOT_stimuli/rescaled_final/1605_fw.mp4	0.0	378.26802706718445	1.0001709461212158
70	357.557578086853	pulse	0	t		68.0	2.5	/experiments/AOT/AOT_stimuli/rescaled_final/1605_fw.mp4	0.0	379.25241208076477	
70	357.5733640193939	movie	1		246	68.0	2.5	/experiments/AOT/AOT_stimuli/rescaled_final/1605_fw.mp4	0.0	379.26819801330566	2.508174180984497
70	359.16485714912415	pulse	1	t		68.0	2.5	/experiments/AOT/AOT_stimuli/rescaled_final/1605_fw.mp4	0.0	380.8596911430359	
70	360.0815382003784	fix_post	2		12	68.0	2.5	/experiments/AOT/AOT_stimuli/rescaled_final/1605_fw.mp4	0.0	381.77637219429016	0.10007596015930176
71	360.1816141605377	fix_pre	0		120	69.0	2.5	blank	1.0	381.87644815444946	0.9999330043792725
71	360.75756311416626	pulse	0	t		69.0	2.5	blank	1.0	382.452397108078	
71	361.181547164917	movie	1		300	69.0	2.5	blank	1.0	382.87638115882874	2.500077962875366
71	362.35694313049316	pulse	1	t		69.0	2.5	blank	1.0	384.0517771244049	
71	363.68162512779236	fix_post	2		12	69.0	2.5	blank	1.0	385.3764591217041	0.09988594055175781
72	363.7815110683441	fix_pre	0		120	70.0	2.5	/experiments/AOT/AOT_stimuli/rescaled_final/1466_rv.mp4	0.0	385.47634506225586	1.0000429153442383
72	363.9567070007324	pulse	0	t		70.0	2.5	/experiments/AOT/AOT_stimuli/rescaled_final/1466_rv.mp4	0.0	385.65154099464417	
72	364.78155398368835	movie	1		243	70.0	2.5	/experiments/AOT/AOT_stimuli/rescaled_final/1466_rv.mp4	0.0	386.4763879776001	2.5001230239868164
72	365.55667519569397	pulse	1	t		70.0	2.5	/experiments/AOT/AOT_stimuli/rescaled_final/1466_rv.mp4	0.0	387.2515091896057	
72	367.15667700767517	pulse	1	t		70.0	2.5	/experiments/AOT/AOT_stimuli/rescaled_final/1466_rv.mp4	0.0	388.8515110015869	
72	367.28167700767517	fix_post	2		12	70.0	2.5	/experiments/AOT/AOT_stimuli/rescaled_final/1466_rv.mp4	0.0	388.9765110015869	0.09992504119873047
73	367.3816020488739	fix_pre	0		120	71.0	2.5	/experiments/AOT/AOT_stimuli/rescaled_final/2032_rv.mp4	0.0	389.07643604278564	1.0001039505004883
73	368.3817059993744	movie	1		245	71.0	2.5	/experiments/AOT/AOT_stimuli/rescaled_final/2032_rv.mp4	0.0	390.07653999328613	2.4997270107269287
73	368.76451110839844	pulse	1	t		71.0	2.5	/experiments/AOT/AOT_stimuli/rescaled_final/2032_rv.mp4	0.0	390.4593451023102	
73	370.36501812934875	pulse	1	t		71.0	2.5	/experiments/AOT/AOT_stimuli/rescaled_final/2032_rv.mp4	0.0	392.0598521232605	
73	370.8814330101013	fix_post	2		12	71.0	2.5	/experiments/AOT/AOT_stimuli/rescaled_final/2032_rv.mp4	0.0	392.57626700401306	0.10006403923034668
74	370.98149704933167	fix_pre	0		119	72.0	2.5	/experiments/AOT/AOT_stimuli/rescaled_final/0112_fw.mp4	0.0	392.6763310432434	0.9916090965270996
74	371.9574990272522	pulse	0	t		72.0	2.5	/experiments/AOT/AOT_stimuli/rescaled_final/0112_fw.mp4	0.0	393.65233302116394	
74	371.97310614585876	movie	1		246	72.0	2.5	/experiments/AOT/AOT_stimuli/rescaled_final/0112_fw.mp4	0.0	393.6679401397705	2.508342981338501
74	373.56474900245667	pulse	1	t		72.0	2.5	/experiments/AOT/AOT_stimuli/rescaled_final/0112_fw.mp4	0.0	395.2595829963684	
74	374.48144912719727	fix_post	2		12	72.0	2.5	/experiments/AOT/AOT_stimuli/rescaled_final/0112_fw.mp4	0.0	396.176283121109	0.10004305839538574
75	374.58149218559265	fix_pre	0		120	73.0	2.5	/experiments/AOT/AOT_stimuli/rescaled_final/0956_fw.mp4	0.0	396.2763261795044	0.9999558925628662
75	375.1576271057129	pulse	0	t		73.0	2.5	/experiments/AOT/AOT_stimuli/rescaled_final/0956_fw.mp4	0.0	396.85246109962463	
75	375.5814480781555	movie	1		245	73.0	2.5	/experiments/AOT/AOT_stimuli/rescaled_final/0956_fw.mp4	0.0	397.27628207206726	2.500046968460083
75	376.76496601104736	pulse	1	t		73.0	2.5	/experiments/AOT/AOT_stimuli/rescaled_final/0956_fw.mp4	0.0	398.4598000049591	
75	378.0814950466156	fix_post	2		12	73.0	2.5	/experiments/AOT/AOT_stimuli/rescaled_final/0956_fw.mp4	0.0	399.77632904052734	0.100006103515625
76	378.1815011501312	fix_pre	0		120	74.0	2.5	/experiments/AOT/AOT_stimuli/rescaled_final/0889_fw.mp4	0.0	399.87633514404297	0.9999978542327881
76	378.35738611221313	pulse	0	t		74.0	2.5	/experiments/AOT/AOT_stimuli/rescaled_final/0889_fw.mp4	0.0	400.0522201061249	
76	379.181499004364	movie	1		244	74.0	2.5	/experiments/AOT/AOT_stimuli/rescaled_final/0889_fw.mp4	0.0	400.87633299827576	2.4995059967041016
76	379.95666217803955	pulse	1	t		74.0	2.5	/experiments/AOT/AOT_stimuli/rescaled_final/0889_fw.mp4	0.0	401.6514961719513	
76	381.5566620826721	pulse	1	t		74.0	2.5	/experiments/AOT/AOT_stimuli/rescaled_final/0889_fw.mp4	0.0	403.25149607658386	
76	381.6810050010681	fix_post	2		12	74.0	2.5	/experiments/AOT/AOT_stimuli/rescaled_final/0889_fw.mp4	0.0	403.37583899497986	0.10050702095031738
77	381.78151202201843	fix_pre	0		120	75.0	2.5	/experiments/AOT/AOT_stimuli/rescaled_final/2064_rv.mp4	0.0	403.4763460159302	0.9999301433563232
77	382.78144216537476	movie	1		243	75.0	2.5	/experiments/AOT/AOT_stimuli/rescaled_final/2064_rv.mp4	0.0	404.4762761592865	2.500001907348633
77	383.15659618377686	pulse	1	t		75.0	2.5	/experiments/AOT/AOT_stimuli/rescaled_final/2064_rv.mp4	0.0	404.8514301776886	
77	384.7575170993805	pulse	1	t		75.0	2.5	/experiments/AOT/AOT_stimuli/rescaled_final/2064_rv.mp4	0.0	406.45235109329224	
77	385.2814440727234	fix_post	2		12	75.0	2.5	/experiments/AOT/AOT_stimuli/rescaled_final/2064_rv.mp4	0.0	406.97627806663513	0.09995293617248535
78	385.3813970088959	fix_pre	0		119	76.0	2.5	blank	1.0	407.0762310028076	0.99167799949646
78	386.35748505592346	pulse	0	t		76.0	2.5	blank	1.0	408.0523190498352	
78	386.37307500839233	movie	1		301	76.0	2.5	blank	1.0	408.0679090023041	2.5083730220794678
78	387.95741510391235	pulse	1	t		76.0	2.5	blank	1.0	409.6522490978241	
78	388.8814480304718	fix_post	2		12	76.0	2.5	blank	1.0	410.57628202438354	0.09998512268066406
79	388.98143315315247	fix_pre	0		120	77.0	2.5	/experiments/AOT/AOT_stimuli/rescaled_final/1704_rv.mp4	0.0	410.6762671470642	1.0000648498535156
79	389.5573899745941	pulse	0	t		77.0	2.5	/experiments/AOT/AOT_stimuli/rescaled_final/1704_rv.mp4	0.0	411.25222396850586	
79	389.981498003006	movie	1		246	77.0	2.5	/experiments/AOT/AOT_stimuli/rescaled_final/1704_rv.mp4	0.0	411.6763319969177	2.4996349811553955
79	391.16498017311096	pulse	1	t		77.0	2.5	/experiments/AOT/AOT_stimuli/rescaled_final/1704_rv.mp4	0.0	412.8598141670227	
79	392.4811329841614	fix_post	2		12	77.0	2.5	/experiments/AOT/AOT_stimuli/rescaled_final/1704_rv.mp4	0.0	414.1759669780731	0.10040807723999023
80	392.58154106140137	fix_pre	0		120	78.0	2.5	/experiments/AOT/AOT_stimuli/rescaled_final/0527_fw.mp4	0.0	414.2763750553131	1.0001089572906494
80	392.7575101852417	pulse	0	t		78.0	2.5	/experiments/AOT/AOT_stimuli/rescaled_final/0527_fw.mp4	0.0	414.45234417915344	
80	393.581650018692	movie	1		244	78.0	2.5	/experiments/AOT/AOT_stimuli/rescaled_final/0527_fw.mp4	0.0	415.27648401260376	2.499847173690796
80	394.35735511779785	pulse	1	t		78.0	2.5	/experiments/AOT/AOT_stimuli/rescaled_final/0527_fw.mp4	0.0	416.0521891117096	
80	395.9630560874939	pulse	1	t		78.0	2.5	/experiments/AOT/AOT_stimuli/rescaled_final/0527_fw.mp4	0.0	417.65789008140564	
80	396.0814971923828	fix_post	2		12	78.0	2.5	/experiments/AOT/AOT_stimuli/rescaled_final/0527_fw.mp4	0.0	417.77633118629456	0.10001683235168457
81	396.1815140247345	fix_pre	0		120	79.0	2.5	/experiments/AOT/AOT_stimuli/rescaled_final/0819_fw.mp4	0.0	417.87634801864624	0.9998950958251953
81	397.1814091205597	movie	1		245	79.0	2.5	/experiments/AOT/AOT_stimuli/rescaled_final/0819_fw.mp4	0.0	418.87624311447144	2.499897003173828
81	397.56489419937134	pulse	1	t		79.0	2.5	/experiments/AOT/AOT_stimuli/rescaled_final/0819_fw.mp4	0.0	419.2597281932831	
81	399.15753197669983	pulse	1	t		79.0	2.5	/experiments/AOT/AOT_stimuli/rescaled_final/0819_fw.mp4	0.0	420.8523659706116	
81	399.6813061237335	fix_post	2		12	79.0	2.5	/experiments/AOT/AOT_stimuli/rescaled_final/0819_fw.mp4	0.0	421.37614011764526	0.10001397132873535
82	399.78132009506226	fix_pre	0		119	80.0	2.5	/experiments/AOT/AOT_stimuli/rescaled_final/1983_rv.mp4	0.0	421.476154088974	0.9916610717773438
82	400.75737500190735	pulse	0	t		80.0	2.5	/experiments/AOT/AOT_stimuli/rescaled_final/1983_rv.mp4	0.0	422.4522089958191	
82	400.7729811668396	movie	1		250	80.0	2.5	/experiments/AOT/AOT_stimuli/rescaled_final/1983_rv.mp4	0.0	422.46781516075134	2.508342981338501
82	402.36452198028564	pulse	1	t		80.0	2.5	/experiments/AOT/AOT_stimuli/rescaled_final/1983_rv.mp4	0.0	424.0593559741974	
82	403.2813241481781	fix_post	2		12	80.0	2.5	/experiments/AOT/AOT_stimuli/rescaled_final/1983_rv.mp4	0.0	424.97615814208984	0.09996294975280762
83	403.3812870979309	fix_pre	0		120	81.0	2.5	/experiments/AOT/AOT_stimuli/rescaled_final/1501_fw.mp4	0.0	425.07612109184265	1.0000340938568115
83	403.9572660923004	pulse	0	t		81.0	2.5	/experiments/AOT/AOT_stimuli/rescaled_final/1501_fw.mp4	0.0	425.65210008621216	
83	404.3813211917877	movie	1		245	81.0	2.5	/experiments/AOT/AOT_stimuli/rescaled_final/1501_fw.mp4	0.0	426.07615518569946	2.499926805496216
83	405.56496810913086	pulse	1	t		81.0	2.5	/experiments/AOT/AOT_stimuli/rescaled_final/1501_fw.mp4	0.0	427.2598021030426	
83	406.88124799728394	fix_post	2		12	81.0	2.5	/experiments/AOT/AOT_stimuli/rescaled_final/1501_fw.mp4	0.0	428.5760819911957	0.10003018379211426
84	406.98127818107605	fix_pre	0		120	82.0	2.5	blank	1.0	428.6761121749878	0.9999790191650391
84	407.15726804733276	pulse	0	t		82.0	2.5	blank	1.0	428.8521020412445	
84	407.9812572002411	movie	1		300	82.0	2.5	blank	1.0	429.67609119415283	2.500079870223999
84	408.75717997550964	pulse	1	t		82.0	2.5	blank	1.0	430.4520139694214	
84	410.3572940826416	pulse	1	t		82.0	2.5	blank	1.0	432.05212807655334	
84	410.4813370704651	fix_post	2		12	82.0	2.5	blank	1.0	432.17617106437683	0.09993505477905273
85	410.58127212524414	fix_pre	0		120	83.0	2.5	/experiments/AOT/AOT_stimuli/rescaled_final/1250_fw.mp4	0.0	432.2761061191559	1.0000600814819336
85	411.5813322067261	movie	1		246	83.0	2.5	/experiments/AOT/AOT_stimuli/rescaled_final/1250_fw.mp4	0.0	433.2761662006378	2.500001907348633
85	411.96451115608215	pulse	1	t		83.0	2.5	/experiments/AOT/AOT_stimuli/rescaled_final/1250_fw.mp4	0.0	433.6593451499939	
85	413.5574390888214	pulse	1	t		83.0	2.5	/experiments/AOT/AOT_stimuli/rescaled_final/1250_fw.mp4	0.0	435.25227308273315	
85	414.0813341140747	fix_post	2		12	83.0	2.5	/experiments/AOT/AOT_stimuli/rescaled_final/1250_fw.mp4	0.0	435.77616810798645	0.09992098808288574
87	414.1812551021576	stim	0		1716					435.87608909606934	14.299957036972046
87	415.16477513313293	pulse	0	t						436.8596091270447	
87	416.75737714767456	pulse	0	t						438.4522111415863	
87	418.35737919807434	pulse	0	t						440.0522131919861	
87	419.9573550224304	pulse	0	t						441.65218901634216	
87	421.55734300613403	pulse	0	t						443.2521770000458	
87	423.1573209762573	pulse	0	t						444.85215497016907	
87	424.75732707977295	pulse	0	t						446.4521610736847	
87	426.3573091030121	pulse	0	t						448.0521430969238	
87	427.95740509033203	pulse	0	t						449.6522390842438	
