trial_nr	onset	event_type	phase	response	nr_frames	movie_index	movie_duration	movie_file	blank	onset_abs	duration
0	0.16653180122375488	stim	0		1					37.36795735359192	0.008208751678466797
0	0.16848993301391602	response	0	space						37.36991548538208	
1	0.17474055290222168	stim	0		4683					37.376166105270386	39.040040493011475
1	39.20504808425903	pulse	0	t						76.4064736366272	
1	39.214781045913696	stim	1		1715					76.41620659828186	14.301268100738525
1	40.79768943786621	pulse	1	t						77.99911499023438	
1	42.39791941642761	pulse	1	t						79.59934496879578	
1	43.998196840286255	pulse	1	t						81.19962239265442	
1	45.59836506843567	pulse	1	t						82.79979062080383	
1	47.19860649108887	pulse	1	t						84.40003204345703	
1	48.799208879470825	pulse	1	t						86.00063443183899	
1	50.399354219436646	pulse	1	t						87.60077977180481	
1	51.99940848350525	pulse	1	t						89.20083403587341	
2	53.51604914665222	fix_pre	0		11	0.0	2.5	/experiments/Knapen_AOT/AOT_stimuli/rescaled_final/1807_fw.mp4	0.0	90.71747469902039	0.10845136642456055
2	53.59971833229065	pulse	0	t		0.0	2.5	/experiments/Knapen_AOT/AOT_stimuli/rescaled_final/1807_fw.mp4	0.0	90.80114388465881	
2	53.62450051307678	movie	1		269	0.0	2.5	/experiments/Knapen_AOT/AOT_stimuli/rescaled_final/1807_fw.mp4	0.0	90.82592606544495	2.491969108581543
2	55.20006322860718	pulse	1	t		0.0	2.5	/experiments/Knapen_AOT/AOT_stimuli/rescaled_final/1807_fw.mp4	0.0	92.40148878097534	
2	56.116469621658325	fix_post	2		12	0.0	2.5	/experiments/Knapen_AOT/AOT_stimuli/rescaled_final/1807_fw.mp4	0.0	93.31789517402649	0.09997940063476562
3	56.21644902229309	fix_pre	0		120	1.0	2.5	/experiments/Knapen_AOT/AOT_stimuli/rescaled_final/1234_rv.mp4	0.0	93.41787457466125	1.0085163116455078
3	56.80004572868347	pulse	0	t		1.0	2.5	/experiments/Knapen_AOT/AOT_stimuli/rescaled_final/1234_rv.mp4	0.0	94.00147128105164	
3	57.2249653339386	movie	1		278	1.0	2.5	/experiments/Knapen_AOT/AOT_stimuli/rescaled_final/1234_rv.mp4	0.0	94.42639088630676	2.4920084476470947
3	58.39830780029297	pulse	1	t		1.0	2.5	/experiments/Knapen_AOT/AOT_stimuli/rescaled_final/1234_rv.mp4	0.0	95.59973335266113	
3	59.71697378158569	fix_post	2		12	1.0	2.5	/experiments/Knapen_AOT/AOT_stimuli/rescaled_final/1234_rv.mp4	0.0	96.91839933395386	0.10001993179321289
4	59.816993713378906	fix_pre	0		120	2.0	2.5	/experiments/Knapen_AOT/AOT_stimuli/rescaled_final/1009_rv.mp4	0.0	97.01841926574707	1.0084667205810547
4	60.00051307678223	pulse	0	t		2.0	2.5	/experiments/Knapen_AOT/AOT_stimuli/rescaled_final/1009_rv.mp4	0.0	97.20193862915039	
4	60.82546043395996	movie	1		276	2.0	2.5	/experiments/Knapen_AOT/AOT_stimuli/rescaled_final/1009_rv.mp4	0.0	98.02688598632812	2.4920520782470703
4	61.599183797836304	pulse	1	t		2.0	2.5	/experiments/Knapen_AOT/AOT_stimuli/rescaled_final/1009_rv.mp4	0.0	98.80060935020447	
4	63.1989369392395	pulse	1	t		2.0	2.5	/experiments/Knapen_AOT/AOT_stimuli/rescaled_final/1009_rv.mp4	0.0	100.40036249160767	
4	63.31751251220703	fix_post	2		12	2.0	2.5	/experiments/Knapen_AOT/AOT_stimuli/rescaled_final/1009_rv.mp4	0.0	100.5189380645752	0.10001063346862793
5	63.41752314567566	fix_pre	0		120	3.0	2.5	/experiments/Knapen_AOT/AOT_stimuli/rescaled_final/1668_rv.mp4	0.0	100.61894869804382	1.0085740089416504
5	64.42609715461731	movie	1		279	3.0	2.5	/experiments/Knapen_AOT/AOT_stimuli/rescaled_final/1668_rv.mp4	0.0	101.62752270698547	2.491960048675537
5	64.80008673667908	pulse	1	t		3.0	2.5	/experiments/Knapen_AOT/AOT_stimuli/rescaled_final/1668_rv.mp4	0.0	102.00151228904724	
5	66.39947414398193	pulse	1	t		3.0	2.5	/experiments/Knapen_AOT/AOT_stimuli/rescaled_final/1668_rv.mp4	0.0	103.6008996963501	
5	66.91805720329285	fix_post	2		12	3.0	2.5	/experiments/Knapen_AOT/AOT_stimuli/rescaled_final/1668_rv.mp4	0.0	104.11948275566101	0.10006117820739746
6	67.01811838150024	fix_pre	0		119	4.0	2.5	/experiments/Knapen_AOT/AOT_stimuli/rescaled_final/0458_fw.mp4	0.0	104.21954393386841	1.0001006126403809
6	68.00174641609192	pulse	0	t		4.0	2.5	/experiments/Knapen_AOT/AOT_stimuli/rescaled_final/0458_fw.mp4	0.0	105.20317196846008	
6	68.01821899414062	movie	1		283	4.0	2.5	/experiments/Knapen_AOT/AOT_stimuli/rescaled_final/0458_fw.mp4	0.0	105.21964454650879	2.500371217727661
6	69.6005916595459	pulse	1	t		4.0	2.5	/experiments/Knapen_AOT/AOT_stimuli/rescaled_final/0458_fw.mp4	0.0	106.80201721191406	
6	70.51859021186829	fix_post	2		12	4.0	2.5	/experiments/Knapen_AOT/AOT_stimuli/rescaled_final/0458_fw.mp4	0.0	107.72001576423645	0.1000819206237793
7	70.61867213249207	fix_pre	0		120	5.0	2.5	/experiments/Knapen_AOT/AOT_stimuli/rescaled_final/1250_rv.mp4	0.0	107.82009768486023	1.008573055267334
7	71.20226550102234	pulse	0	t		5.0	2.5	/experiments/Knapen_AOT/AOT_stimuli/rescaled_final/1250_rv.mp4	0.0	108.4036910533905	
7	71.6272451877594	movie	1		272	5.0	2.5	/experiments/Knapen_AOT/AOT_stimuli/rescaled_final/1250_rv.mp4	0.0	108.82867074012756	2.491886615753174
7	72.80088496208191	pulse	1	t		5.0	2.5	/experiments/Knapen_AOT/AOT_stimuli/rescaled_final/1250_rv.mp4	0.0	110.00231051445007	
7	74.11913180351257	fix_post	2		12	5.0	2.5	/experiments/Knapen_AOT/AOT_stimuli/rescaled_final/1250_rv.mp4	0.0	111.32055735588074	0.10004615783691406
8	74.21917796134949	fix_pre	0		120	6.0	2.5	blank	1.0	111.42060351371765	1.0001652240753174
8	74.39472532272339	pulse	0	t		6.0	2.5	blank	1.0	111.59615087509155	
8	75.2193431854248	movie	1		300	6.0	2.5	blank	1.0	112.42076873779297	2.5003268718719482
8	75.99474859237671	pulse	1	t		6.0	2.5	blank	1.0	113.19617414474487	
8	77.59493660926819	pulse	1	t		6.0	2.5	blank	1.0	114.79636216163635	
8	77.71967005729675	fix_post	2		12	6.0	2.5	blank	1.0	114.92109560966492	0.10005378723144531
9	77.8197238445282	fix_pre	0		120	7.0	2.5	/experiments/Knapen_AOT/AOT_stimuli/rescaled_final/0822_fw.mp4	0.0	115.02114939689636	1.0084569454193115
9	78.82818078994751	movie	1		273	7.0	2.5	/experiments/Knapen_AOT/AOT_stimuli/rescaled_final/0822_fw.mp4	0.0	116.02960634231567	2.4920334815979004
9	79.19532108306885	pulse	1	t		7.0	2.5	/experiments/Knapen_AOT/AOT_stimuli/rescaled_final/0822_fw.mp4	0.0	116.39674663543701	
9	80.79614043235779	pulse	1	t		7.0	2.5	/experiments/Knapen_AOT/AOT_stimuli/rescaled_final/0822_fw.mp4	0.0	117.99756598472595	
9	81.32021427154541	fix_post	2		12	7.0	2.5	/experiments/Knapen_AOT/AOT_stimuli/rescaled_final/0822_fw.mp4	0.0	118.52163982391357	0.10002398490905762
10	81.42023825645447	fix_pre	0		118	8.0	2.5	/experiments/Knapen_AOT/AOT_stimuli/rescaled_final/0588_fw.mp4	0.0	118.62166380882263	0.9918386936187744
10	82.39564919471741	pulse	0	t		8.0	2.5	/experiments/Knapen_AOT/AOT_stimuli/rescaled_final/0588_fw.mp4	0.0	119.59707474708557	
10	82.41207695007324	movie	1		285	8.0	2.5	/experiments/Knapen_AOT/AOT_stimuli/rescaled_final/0588_fw.mp4	0.0	119.6135025024414	2.5003631114959717
10	83.99590921401978	pulse	1	t		8.0	2.5	/experiments/Knapen_AOT/AOT_stimuli/rescaled_final/0588_fw.mp4	0.0	121.19733476638794	
10	84.91244006156921	fix_post	2		12	8.0	2.5	/experiments/Knapen_AOT/AOT_stimuli/rescaled_final/0588_fw.mp4	0.0	122.11386561393738	0.10001444816589355
11	85.01245450973511	fix_pre	0		120	9.0	2.5	/experiments/Knapen_AOT/AOT_stimuli/rescaled_final/2071_rv.mp4	0.0	122.21388006210327	1.0085415840148926
11	85.59607911109924	pulse	0	t		9.0	2.5	/experiments/Knapen_AOT/AOT_stimuli/rescaled_final/2071_rv.mp4	0.0	122.79750466346741	
11	86.02099609375	movie	1		285	9.0	2.5	/experiments/Knapen_AOT/AOT_stimuli/rescaled_final/2071_rv.mp4	0.0	123.22242164611816	2.4919803142547607
11	87.19633388519287	pulse	1	t		9.0	2.5	/experiments/Knapen_AOT/AOT_stimuli/rescaled_final/2071_rv.mp4	0.0	124.39775943756104	
11	88.51297640800476	fix_post	2		12	9.0	2.5	/experiments/Knapen_AOT/AOT_stimuli/rescaled_final/2071_rv.mp4	0.0	125.71440196037292	0.10007786750793457
12	88.6130542755127	fix_pre	0		120	10.0	2.5	/experiments/Knapen_AOT/AOT_stimuli/rescaled_final/1109_fw.mp4	0.0	125.81447982788086	1.0085070133209229
12	88.79683041572571	pulse	0	t		10.0	2.5	/experiments/Knapen_AOT/AOT_stimuli/rescaled_final/1109_fw.mp4	0.0	125.99825596809387	
12	89.62156128883362	movie	1		284	10.0	2.5	/experiments/Knapen_AOT/AOT_stimuli/rescaled_final/1109_fw.mp4	0.0	126.82298684120178	2.4919686317443848
12	90.3948929309845	pulse	1	t		10.0	2.5	/experiments/Knapen_AOT/AOT_stimuli/rescaled_final/1109_fw.mp4	0.0	127.59631848335266	
12	91.99484777450562	pulse	1	t		10.0	2.5	/experiments/Knapen_AOT/AOT_stimuli/rescaled_final/1109_fw.mp4	0.0	129.19627332687378	
12	92.113529920578	fix_post	2		12	10.0	2.5	/experiments/Knapen_AOT/AOT_stimuli/rescaled_final/1109_fw.mp4	0.0	129.31495547294617	0.10001969337463379
13	92.21354961395264	fix_pre	0		120	11.0	2.5	/experiments/Knapen_AOT/AOT_stimuli/rescaled_final/2027_rv.mp4	0.0	129.4149751663208	1.008474588394165
13	93.2220242023468	movie	1		270	11.0	2.5	/experiments/Knapen_AOT/AOT_stimuli/rescaled_final/2027_rv.mp4	0.0	130.42344975471497	2.49202299118042
13	93.59672594070435	pulse	1	t		11.0	2.5	/experiments/Knapen_AOT/AOT_stimuli/rescaled_final/2027_rv.mp4	0.0	130.7981514930725	
13	95.19769382476807	pulse	1	t		11.0	2.5	/experiments/Knapen_AOT/AOT_stimuli/rescaled_final/2027_rv.mp4	0.0	132.39911937713623	
13	95.71404719352722	fix_post	2		12	11.0	2.5	/experiments/Knapen_AOT/AOT_stimuli/rescaled_final/2027_rv.mp4	0.0	132.91547274589539	0.10005688667297363
14	95.8141040802002	fix_pre	0		119	12.0	2.5	/experiments/Knapen_AOT/AOT_stimuli/rescaled_final/2057_fw.mp4	0.0	133.01552963256836	1.0001468658447266
14	96.79784560203552	pulse	0	t		12.0	2.5	/experiments/Knapen_AOT/AOT_stimuli/rescaled_final/2057_fw.mp4	0.0	133.9992711544037	
14	96.81425094604492	movie	1		286	12.0	2.5	/experiments/Knapen_AOT/AOT_stimuli/rescaled_final/2057_fw.mp4	0.0	134.0156764984131	2.5004160404205322
14	98.39815831184387	pulse	1	t		12.0	2.5	/experiments/Knapen_AOT/AOT_stimuli/rescaled_final/2057_fw.mp4	0.0	135.59958386421204	
14	99.31466698646545	fix_post	2		12	12.0	2.5	/experiments/Knapen_AOT/AOT_stimuli/rescaled_final/2057_fw.mp4	0.0	136.51609253883362	0.09997391700744629
15	99.4146409034729	fix_pre	0		120	13.0	2.5	blank	1.0	136.61606645584106	1.0002963542938232
15	99.99823951721191	pulse	0	t		13.0	2.5	blank	1.0	137.19966506958008	
15	100.41493725776672	movie	1		300	13.0	2.5	blank	1.0	137.6163628101349	2.5002005100250244
15	101.59849882125854	pulse	1	t		13.0	2.5	blank	1.0	138.7999243736267	
15	102.91513776779175	fix_post	2		12	13.0	2.5	blank	1.0	140.1165633201599	0.10001707077026367
16	103.01515483856201	fix_pre	0		120	14.0	2.5	/experiments/Knapen_AOT/AOT_stimuli/rescaled_final/0145_fw.mp4	0.0	140.21658039093018	1.0085363388061523
16	103.19873809814453	pulse	0	t		14.0	2.5	/experiments/Knapen_AOT/AOT_stimuli/rescaled_final/0145_fw.mp4	0.0	140.4001636505127	
16	104.02369117736816	movie	1		284	14.0	2.5	/experiments/Knapen_AOT/AOT_stimuli/rescaled_final/0145_fw.mp4	0.0	141.22511672973633	2.4920859336853027
16	104.79860496520996	pulse	1	t		14.0	2.5	/experiments/Knapen_AOT/AOT_stimuli/rescaled_final/0145_fw.mp4	0.0	142.00003051757812	
16	106.39766335487366	pulse	1	t		14.0	2.5	/experiments/Knapen_AOT/AOT_stimuli/rescaled_final/0145_fw.mp4	0.0	143.59908890724182	
16	106.51577711105347	fix_post	2		12	14.0	2.5	/experiments/Knapen_AOT/AOT_stimuli/rescaled_final/0145_fw.mp4	0.0	143.71720266342163	0.09996414184570312
17	106.61574125289917	fix_pre	0		120	15.0	2.5	/experiments/Knapen_AOT/AOT_stimuli/rescaled_final/1759_rv.mp4	0.0	143.81716680526733	1.008462905883789
17	107.62420415878296	movie	1		271	15.0	2.5	/experiments/Knapen_AOT/AOT_stimuli/rescaled_final/1759_rv.mp4	0.0	144.82562971115112	2.492020606994629
17	107.99789667129517	pulse	1	t		15.0	2.5	/experiments/Knapen_AOT/AOT_stimuli/rescaled_final/1759_rv.mp4	0.0	145.19932222366333	
17	109.59739136695862	pulse	1	t		15.0	2.5	/experiments/Knapen_AOT/AOT_stimuli/rescaled_final/1759_rv.mp4	0.0	146.79881691932678	
17	110.11622476577759	fix_post	2		12	15.0	2.5	/experiments/Knapen_AOT/AOT_stimuli/rescaled_final/1759_rv.mp4	0.0	147.31765031814575	0.10000276565551758
18	110.2162275314331	fix_pre	0		119	16.0	2.5	/experiments/Knapen_AOT/AOT_stimuli/rescaled_final/1740_rv.mp4	0.0	147.41765308380127	1.0002005100250244
18	111.20002889633179	pulse	0	t		16.0	2.5	/experiments/Knapen_AOT/AOT_stimuli/rescaled_final/1740_rv.mp4	0.0	148.40145444869995	
18	111.21642804145813	movie	1		274	16.0	2.5	/experiments/Knapen_AOT/AOT_stimuli/rescaled_final/1740_rv.mp4	0.0	148.4178535938263	2.500347852706909
18	112.79885196685791	pulse	1	t		16.0	2.5	/experiments/Knapen_AOT/AOT_stimuli/rescaled_final/1740_rv.mp4	0.0	150.00027751922607	
18	113.71677589416504	fix_post	2		12	16.0	2.5	/experiments/Knapen_AOT/AOT_stimuli/rescaled_final/1740_rv.mp4	0.0	150.9182014465332	0.10009193420410156
19	113.81686782836914	fix_pre	0		120	17.0	2.5	/experiments/Knapen_AOT/AOT_stimuli/rescaled_final/0846_rv.mp4	0.0	151.0182933807373	1.0084202289581299
19	114.40072226524353	pulse	0	t		17.0	2.5	/experiments/Knapen_AOT/AOT_stimuli/rescaled_final/0846_rv.mp4	0.0	151.6021478176117	
19	114.82528805732727	movie	1		292	17.0	2.5	/experiments/Knapen_AOT/AOT_stimuli/rescaled_final/0846_rv.mp4	0.0	152.02671360969543	2.4920156002044678
19	115.99889898300171	pulse	1	t		17.0	2.5	/experiments/Knapen_AOT/AOT_stimuli/rescaled_final/0846_rv.mp4	0.0	153.20032453536987	
19	117.31730365753174	fix_post	2		12	17.0	2.5	/experiments/Knapen_AOT/AOT_stimuli/rescaled_final/0846_rv.mp4	0.0	154.5187292098999	0.10004568099975586
20	117.4173493385315	fix_pre	0		120	18.0	2.5	/experiments/Knapen_AOT/AOT_stimuli/rescaled_final/0881_fw.mp4	0.0	154.61877489089966	1.0085747241973877
20	117.6008710861206	pulse	0	t		18.0	2.5	/experiments/Knapen_AOT/AOT_stimuli/rescaled_final/0881_fw.mp4	0.0	154.80229663848877	
20	118.42592406272888	movie	1		286	18.0	2.5	/experiments/Knapen_AOT/AOT_stimuli/rescaled_final/0881_fw.mp4	0.0	155.62734961509705	2.491992950439453
20	119.1992404460907	pulse	1	t		18.0	2.5	/experiments/Knapen_AOT/AOT_stimuli/rescaled_final/0881_fw.mp4	0.0	156.40066599845886	
20	120.79946112632751	pulse	1	t		18.0	2.5	/experiments/Knapen_AOT/AOT_stimuli/rescaled_final/0881_fw.mp4	0.0	158.00088667869568	
20	120.91791701316833	fix_post	2		12	18.0	2.5	/experiments/Knapen_AOT/AOT_stimuli/rescaled_final/0881_fw.mp4	0.0	158.1193425655365	0.0999603271484375
21	121.01787734031677	fix_pre	0		120	19.0	2.5	/experiments/Knapen_AOT/AOT_stimuli/rescaled_final/1928_fw.mp4	0.0	158.21930289268494	1.008551836013794
21	122.02642917633057	movie	1		276	19.0	2.5	/experiments/Knapen_AOT/AOT_stimuli/rescaled_final/1928_fw.mp4	0.0	159.22785472869873	2.492002487182617
21	122.40031003952026	pulse	1	t		19.0	2.5	/experiments/Knapen_AOT/AOT_stimuli/rescaled_final/1928_fw.mp4	0.0	159.60173559188843	
21	123.99988174438477	pulse	1	t		19.0	2.5	/experiments/Knapen_AOT/AOT_stimuli/rescaled_final/1928_fw.mp4	0.0	161.20130729675293	
21	124.51843166351318	fix_post	2		12	19.0	2.5	/experiments/Knapen_AOT/AOT_stimuli/rescaled_final/1928_fw.mp4	0.0	161.71985721588135	0.1001894474029541
22	124.61862111091614	fix_pre	0		119	20.0	2.5	/experiments/Knapen_AOT/AOT_stimuli/rescaled_final/1284_fw.mp4	0.0	161.8200466632843	0.9999663829803467
22	125.60231471061707	pulse	0	t		20.0	2.5	/experiments/Knapen_AOT/AOT_stimuli/rescaled_final/1284_fw.mp4	0.0	162.80374026298523	
22	125.61858749389648	movie	1		289	20.0	2.5	/experiments/Knapen_AOT/AOT_stimuli/rescaled_final/1284_fw.mp4	0.0	162.82001304626465	2.500375986099243
22	127.20114588737488	pulse	1	t		20.0	2.5	/experiments/Knapen_AOT/AOT_stimuli/rescaled_final/1284_fw.mp4	0.0	164.40257143974304	
22	128.11896347999573	fix_post	2		12	20.0	2.5	/experiments/Knapen_AOT/AOT_stimuli/rescaled_final/1284_fw.mp4	0.0	165.3203890323639	0.10000967979431152
23	128.21897315979004	fix_pre	0		120	21.0	2.5	blank	1.0	165.4203987121582	1.000190019607544
23	128.8026053905487	pulse	0	t		21.0	2.5	blank	1.0	166.00403094291687	
23	129.21916317939758	movie	1		300	21.0	2.5	blank	1.0	166.42058873176575	2.5003178119659424
23	130.4029803276062	pulse	1	t		21.0	2.5	blank	1.0	167.60440587997437	
23	131.71948099136353	fix_post	2		12	21.0	2.5	blank	1.0	168.9209065437317	0.1000516414642334
24	131.81953263282776	fix_pre	0		120	22.0	2.5	/experiments/Knapen_AOT/AOT_stimuli/rescaled_final/2093_fw.mp4	0.0	169.02095818519592	1.0084927082061768
24	131.99537706375122	pulse	0	t		22.0	2.5	/experiments/Knapen_AOT/AOT_stimuli/rescaled_final/2093_fw.mp4	0.0	169.19680261611938	
24	132.82802534103394	movie	1		284	22.0	2.5	/experiments/Knapen_AOT/AOT_stimuli/rescaled_final/2093_fw.mp4	0.0	170.0294508934021	2.492003917694092
24	133.5953323841095	pulse	1	t		22.0	2.5	/experiments/Knapen_AOT/AOT_stimuli/rescaled_final/2093_fw.mp4	0.0	170.79675793647766	
24	135.19527554512024	pulse	1	t		22.0	2.5	/experiments/Knapen_AOT/AOT_stimuli/rescaled_final/2093_fw.mp4	0.0	172.3967010974884	
24	135.32002925872803	fix_post	2		12	22.0	2.5	/experiments/Knapen_AOT/AOT_stimuli/rescaled_final/2093_fw.mp4	0.0	172.5214548110962	0.10003042221069336
25	135.42005968093872	fix_pre	0		120	23.0	2.5	/experiments/Knapen_AOT/AOT_stimuli/rescaled_final/0297_fw.mp4	0.0	172.62148523330688	1.0086123943328857
25	136.4286720752716	movie	1		282	23.0	2.5	/experiments/Knapen_AOT/AOT_stimuli/rescaled_final/0297_fw.mp4	0.0	173.63009762763977	2.4918863773345947
25	136.7955505847931	pulse	1	t		23.0	2.5	/experiments/Knapen_AOT/AOT_stimuli/rescaled_final/0297_fw.mp4	0.0	173.99697613716125	
25	138.39570116996765	pulse	1	t		23.0	2.5	/experiments/Knapen_AOT/AOT_stimuli/rescaled_final/0297_fw.mp4	0.0	175.59712672233582	
25	138.9205584526062	fix_post	2		12	23.0	2.5	/experiments/Knapen_AOT/AOT_stimuli/rescaled_final/0297_fw.mp4	0.0	176.12198400497437	0.10001945495605469
26	139.02057790756226	fix_pre	0		118	24.0	2.5	/experiments/Knapen_AOT/AOT_stimuli/rescaled_final/1365_fw.mp4	0.0	176.22200345993042	0.991793155670166
26	139.99594044685364	pulse	0	t		24.0	2.5	/experiments/Knapen_AOT/AOT_stimuli/rescaled_final/1365_fw.mp4	0.0	177.1973659992218	
26	140.01237106323242	movie	1		289	24.0	2.5	/experiments/Knapen_AOT/AOT_stimuli/rescaled_final/1365_fw.mp4	0.0	177.2137966156006	2.5003838539123535
26	141.59633684158325	pulse	1	t		24.0	2.5	/experiments/Knapen_AOT/AOT_stimuli/rescaled_final/1365_fw.mp4	0.0	178.79776239395142	
26	142.51275491714478	fix_post	2		12	24.0	2.5	/experiments/Knapen_AOT/AOT_stimuli/rescaled_final/1365_fw.mp4	0.0	179.71418046951294	0.10002899169921875
27	142.612783908844	fix_pre	0		120	25.0	2.5	/experiments/Knapen_AOT/AOT_stimuli/rescaled_final/1794_fw.mp4	0.0	179.81420946121216	1.008521556854248
27	143.1963987350464	pulse	0	t		25.0	2.5	/experiments/Knapen_AOT/AOT_stimuli/rescaled_final/1794_fw.mp4	0.0	180.39782428741455	
27	143.62130546569824	movie	1		293	25.0	2.5	/experiments/Knapen_AOT/AOT_stimuli/rescaled_final/1794_fw.mp4	0.0	180.8227310180664	2.4920806884765625
27	144.7951521873474	pulse	1	t		25.0	2.5	/experiments/Knapen_AOT/AOT_stimuli/rescaled_final/1794_fw.mp4	0.0	181.99657773971558	
27	146.1133861541748	fix_post	2		12	25.0	2.5	/experiments/Knapen_AOT/AOT_stimuli/rescaled_final/1794_fw.mp4	0.0	183.31481170654297	0.09998703002929688
28	146.2133731842041	fix_pre	0		120	26.0	2.5	/experiments/Knapen_AOT/AOT_stimuli/rescaled_final/0984_rv.mp4	0.0	183.41479873657227	1.0084729194641113
28	146.39692616462708	pulse	0	t		26.0	2.5	/experiments/Knapen_AOT/AOT_stimuli/rescaled_final/0984_rv.mp4	0.0	183.59835171699524	
28	147.2218461036682	movie	1		284	26.0	2.5	/experiments/Knapen_AOT/AOT_stimuli/rescaled_final/0984_rv.mp4	0.0	184.42327165603638	2.4920125007629395
28	147.99536299705505	pulse	1	t		26.0	2.5	/experiments/Knapen_AOT/AOT_stimuli/rescaled_final/0984_rv.mp4	0.0	185.19678854942322	
28	149.59523677825928	pulse	1	t		26.0	2.5	/experiments/Knapen_AOT/AOT_stimuli/rescaled_final/0984_rv.mp4	0.0	186.79666233062744	
28	149.71385860443115	fix_post	2		12	26.0	2.5	/experiments/Knapen_AOT/AOT_stimuli/rescaled_final/0984_rv.mp4	0.0	186.91528415679932	0.10001516342163086
29	149.81387376785278	fix_pre	0		120	27.0	2.5	/experiments/Knapen_AOT/AOT_stimuli/rescaled_final/1511_rv.mp4	0.0	187.01529932022095	1.0085947513580322
29	150.82246851921082	movie	1		287	27.0	2.5	/experiments/Knapen_AOT/AOT_stimuli/rescaled_final/1511_rv.mp4	0.0	188.02389407157898	2.4919819831848145
29	151.19636368751526	pulse	1	t		27.0	2.5	/experiments/Knapen_AOT/AOT_stimuli/rescaled_final/1511_rv.mp4	0.0	188.39778923988342	
29	152.79616522789001	pulse	1	t		27.0	2.5	/experiments/Knapen_AOT/AOT_stimuli/rescaled_final/1511_rv.mp4	0.0	189.99759078025818	
29	153.31445050239563	fix_post	2		12	27.0	2.5	/experiments/Knapen_AOT/AOT_stimuli/rescaled_final/1511_rv.mp4	0.0	190.5158760547638	0.09998416900634766
30	153.41443467140198	fix_pre	0		119	28.0	2.5	blank	1.0	190.61586022377014	0.9917616844177246
30	154.39814138412476	pulse	0	t		28.0	2.5	blank	1.0	191.59956693649292	
30	154.4061963558197	movie	1		301	28.0	2.5	blank	1.0	191.60762190818787	2.508779525756836
30	155.9984152317047	pulse	1	t		28.0	2.5	blank	1.0	193.19984078407288	
30	156.91497588157654	fix_post	2		12	28.0	2.5	blank	1.0	194.1164014339447	0.10019683837890625
31	157.01517271995544	fix_pre	0		120	29.0	2.5	/experiments/Knapen_AOT/AOT_stimuli/rescaled_final/1583_fw.mp4	0.0	194.2165982723236	1.008300542831421
31	157.59877157211304	pulse	0	t		29.0	2.5	/experiments/Knapen_AOT/AOT_stimuli/rescaled_final/1583_fw.mp4	0.0	194.8001971244812	
31	158.02347326278687	movie	1		288	29.0	2.5	/experiments/Knapen_AOT/AOT_stimuli/rescaled_final/1583_fw.mp4	0.0	195.22489881515503	2.4920639991760254
31	159.19690346717834	pulse	1	t		29.0	2.5	/experiments/Knapen_AOT/AOT_stimuli/rescaled_final/1583_fw.mp4	0.0	196.3983290195465	
31	160.5155372619629	fix_post	2		12	29.0	2.5	/experiments/Knapen_AOT/AOT_stimuli/rescaled_final/1583_fw.mp4	0.0	197.71696281433105	0.10003089904785156
32	160.61556816101074	fix_pre	0		120	30.0	2.5	/experiments/Knapen_AOT/AOT_stimuli/rescaled_final/0126_fw.mp4	0.0	197.8169937133789	1.0084187984466553
32	160.79927015304565	pulse	0	t		30.0	2.5	/experiments/Knapen_AOT/AOT_stimuli/rescaled_final/0126_fw.mp4	0.0	198.00069570541382	
32	161.6239869594574	movie	1		276	30.0	2.5	/experiments/Knapen_AOT/AOT_stimuli/rescaled_final/0126_fw.mp4	0.0	198.82541251182556	2.4920384883880615
32	162.39764070510864	pulse	1	t		30.0	2.5	/experiments/Knapen_AOT/AOT_stimuli/rescaled_final/0126_fw.mp4	0.0	199.5990662574768	
32	163.99788808822632	pulse	1	t		30.0	2.5	/experiments/Knapen_AOT/AOT_stimuli/rescaled_final/0126_fw.mp4	0.0	201.19931364059448	
32	164.11602544784546	fix_post	2		12	30.0	2.5	/experiments/Knapen_AOT/AOT_stimuli/rescaled_final/0126_fw.mp4	0.0	201.31745100021362	0.10015082359313965
33	164.2161762714386	fix_pre	0		120	31.0	2.5	/experiments/Knapen_AOT/AOT_stimuli/rescaled_final/1733_rv.mp4	0.0	201.41760182380676	1.0084187984466553
33	165.22459506988525	movie	1		278	31.0	2.5	/experiments/Knapen_AOT/AOT_stimuli/rescaled_final/1733_rv.mp4	0.0	202.42602062225342	2.4920148849487305
33	165.5990071296692	pulse	1	t		31.0	2.5	/experiments/Knapen_AOT/AOT_stimuli/rescaled_final/1733_rv.mp4	0.0	202.80043268203735	
33	167.1979215145111	pulse	1	t		31.0	2.5	/experiments/Knapen_AOT/AOT_stimuli/rescaled_final/1733_rv.mp4	0.0	204.39934706687927	
33	167.71660995483398	fix_post	2		12	31.0	2.5	/experiments/Knapen_AOT/AOT_stimuli/rescaled_final/1733_rv.mp4	0.0	204.91803550720215	0.09999966621398926
34	167.81660962104797	fix_pre	0		119	32.0	2.5	/experiments/Knapen_AOT/AOT_stimuli/rescaled_final/0506_rv.mp4	0.0	205.01803517341614	1.0003271102905273
34	168.80047941207886	pulse	0	t		32.0	2.5	/experiments/Knapen_AOT/AOT_stimuli/rescaled_final/0506_rv.mp4	0.0	206.00190496444702	
34	168.8169367313385	movie	1		275	32.0	2.5	/experiments/Knapen_AOT/AOT_stimuli/rescaled_final/0506_rv.mp4	0.0	206.01836228370667	2.5001943111419678
34	170.40003561973572	pulse	1	t		32.0	2.5	/experiments/Knapen_AOT/AOT_stimuli/rescaled_final/0506_rv.mp4	0.0	207.60146117210388	
34	171.31713104248047	fix_post	2		12	32.0	2.5	/experiments/Knapen_AOT/AOT_stimuli/rescaled_final/0506_rv.mp4	0.0	208.51855659484863	0.10024666786193848
35	171.4173777103424	fix_pre	0		120	33.0	2.5	/experiments/Knapen_AOT/AOT_stimuli/rescaled_final/0151_rv.mp4	0.0	208.61880326271057	1.0082480907440186
35	172.000830411911	pulse	0	t		33.0	2.5	/experiments/Knapen_AOT/AOT_stimuli/rescaled_final/0151_rv.mp4	0.0	209.20225596427917	
35	172.42562580108643	movie	1		272	33.0	2.5	/experiments/Knapen_AOT/AOT_stimuli/rescaled_final/0151_rv.mp4	0.0	209.6270513534546	2.4920191764831543
35	173.59957838058472	pulse	1	t		33.0	2.5	/experiments/Knapen_AOT/AOT_stimuli/rescaled_final/0151_rv.mp4	0.0	210.80100393295288	
35	174.91764497756958	fix_post	2		12	33.0	2.5	/experiments/Knapen_AOT/AOT_stimuli/rescaled_final/0151_rv.mp4	0.0	212.11907052993774	0.10007238388061523
36	175.0177173614502	fix_pre	0		120	34.0	2.5	blank	1.0	212.21914291381836	1.0000824928283691
36	175.20126104354858	pulse	0	t		34.0	2.5	blank	1.0	212.40268659591675	
36	176.01779985427856	movie	1		300	34.0	2.5	blank	1.0	213.21922540664673	2.500399351119995
36	176.80152368545532	pulse	1	t		34.0	2.5	blank	1.0	214.0029492378235	
36	178.40167450904846	pulse	1	t		34.0	2.5	blank	1.0	215.60310006141663	
36	178.51819920539856	fix_post	2		12	34.0	2.5	blank	1.0	215.71962475776672	0.10001111030578613
37	178.61821031570435	fix_pre	0		120	35.0	2.5	/experiments/Knapen_AOT/AOT_stimuli/rescaled_final/0968_fw.mp4	0.0	215.8196358680725	1.0085225105285645
37	179.6267328262329	movie	1		278	35.0	2.5	/experiments/Knapen_AOT/AOT_stimuli/rescaled_final/0968_fw.mp4	0.0	216.82815837860107	2.492093324661255
37	180.00121450424194	pulse	1	t		35.0	2.5	/experiments/Knapen_AOT/AOT_stimuli/rescaled_final/0968_fw.mp4	0.0	217.2026400566101	
37	181.60147762298584	pulse	1	t		35.0	2.5	/experiments/Knapen_AOT/AOT_stimuli/rescaled_final/0968_fw.mp4	0.0	218.802903175354	
37	182.11882615089417	fix_post	2		12	35.0	2.5	/experiments/Knapen_AOT/AOT_stimuli/rescaled_final/0968_fw.mp4	0.0	219.32025170326233	0.0999600887298584
38	182.21878623962402	fix_pre	0		119	36.0	2.5	/experiments/Knapen_AOT/AOT_stimuli/rescaled_final/1592_fw.mp4	0.0	219.4202117919922	1.0001633167266846
38	183.19505190849304	pulse	0	t		36.0	2.5	/experiments/Knapen_AOT/AOT_stimuli/rescaled_final/1592_fw.mp4	0.0	220.3964774608612	
38	183.2189495563507	movie	1		277	36.0	2.5	/experiments/Knapen_AOT/AOT_stimuli/rescaled_final/1592_fw.mp4	0.0	220.42037510871887	2.50032377243042
38	184.79479122161865	pulse	1	t		36.0	2.5	/experiments/Knapen_AOT/AOT_stimuli/rescaled_final/1592_fw.mp4	0.0	221.99621677398682	
38	185.71927332878113	fix_post	2		12	36.0	2.5	/experiments/Knapen_AOT/AOT_stimuli/rescaled_final/1592_fw.mp4	0.0	222.9206988811493	0.10000848770141602
39	185.81928181648254	fix_pre	0		120	37.0	2.5	/experiments/Knapen_AOT/AOT_stimuli/rescaled_final/0379_rv.mp4	0.0	223.0207073688507	1.0084927082061768
39	186.3946042060852	pulse	0	t		37.0	2.5	/experiments/Knapen_AOT/AOT_stimuli/rescaled_final/0379_rv.mp4	0.0	223.59602975845337	
39	186.82777452468872	movie	1		282	37.0	2.5	/experiments/Knapen_AOT/AOT_stimuli/rescaled_final/0379_rv.mp4	0.0	224.02920007705688	2.492032289505005
39	187.99488353729248	pulse	1	t		37.0	2.5	/experiments/Knapen_AOT/AOT_stimuli/rescaled_final/0379_rv.mp4	0.0	225.19630908966064	
39	189.31980681419373	fix_post	2		12	37.0	2.5	/experiments/Knapen_AOT/AOT_stimuli/rescaled_final/0379_rv.mp4	0.0	226.5212323665619	0.10021162033081055
40	189.42001843452454	fix_pre	0		120	38.0	2.5	/experiments/Knapen_AOT/AOT_stimuli/rescaled_final/1880_fw.mp4	0.0	226.6214439868927	1.008317232131958
40	189.595116853714	pulse	0	t		38.0	2.5	/experiments/Knapen_AOT/AOT_stimuli/rescaled_final/1880_fw.mp4	0.0	226.79654240608215	
40	190.4283356666565	movie	1		275	38.0	2.5	/experiments/Knapen_AOT/AOT_stimuli/rescaled_final/1880_fw.mp4	0.0	227.62976121902466	2.49200439453125
40	191.19495463371277	pulse	1	t		38.0	2.5	/experiments/Knapen_AOT/AOT_stimuli/rescaled_final/1880_fw.mp4	0.0	228.39638018608093	
40	192.79553127288818	pulse	1	t		38.0	2.5	/experiments/Knapen_AOT/AOT_stimuli/rescaled_final/1880_fw.mp4	0.0	229.99695682525635	
40	192.92034006118774	fix_post	2		12	38.0	2.5	/experiments/Knapen_AOT/AOT_stimuli/rescaled_final/1880_fw.mp4	0.0	230.1217656135559	0.10008454322814941
41	193.0204246044159	fix_pre	0		120	39.0	2.5	/experiments/Knapen_AOT/AOT_stimuli/rescaled_final/0462_fw.mp4	0.0	230.22185015678406	1.0084364414215088
41	194.0288610458374	movie	1		273	39.0	2.5	/experiments/Knapen_AOT/AOT_stimuli/rescaled_final/0462_fw.mp4	0.0	231.23028659820557	2.49208927154541
41	194.39532780647278	pulse	1	t		39.0	2.5	/experiments/Knapen_AOT/AOT_stimuli/rescaled_final/0462_fw.mp4	0.0	231.59675335884094	
41	195.99452018737793	pulse	1	t		39.0	2.5	/experiments/Knapen_AOT/AOT_stimuli/rescaled_final/0462_fw.mp4	0.0	233.1959457397461	
41	196.5209503173828	fix_post	2		12	39.0	2.5	/experiments/Knapen_AOT/AOT_stimuli/rescaled_final/0462_fw.mp4	0.0	233.72237586975098	0.10000443458557129
42	196.62095475196838	fix_pre	0		118	40.0	2.5	blank	1.0	233.82238030433655	0.9834234714508057
42	197.59635472297668	pulse	0	t		40.0	2.5	blank	1.0	234.79778027534485	
42	197.6043782234192	movie	1		301	40.0	2.5	blank	1.0	234.80580377578735	2.508723497390747
42	199.19650030136108	pulse	1	t		40.0	2.5	blank	1.0	236.39792585372925	
42	200.11310172080994	fix_post	2		12	40.0	2.5	blank	1.0	237.3145272731781	0.10001802444458008
43	200.21311974525452	fix_pre	0		120	41.0	2.5	/experiments/Knapen_AOT/AOT_stimuli/rescaled_final/1931_fw.mp4	0.0	237.41454529762268	1.0085108280181885
43	200.79683136940002	pulse	0	t		41.0	2.5	/experiments/Knapen_AOT/AOT_stimuli/rescaled_final/1931_fw.mp4	0.0	237.9982569217682	
43	201.2216305732727	movie	1		287	41.0	2.5	/experiments/Knapen_AOT/AOT_stimuli/rescaled_final/1931_fw.mp4	0.0	238.42305612564087	2.4920496940612793
43	202.39514780044556	pulse	1	t		41.0	2.5	/experiments/Knapen_AOT/AOT_stimuli/rescaled_final/1931_fw.mp4	0.0	239.59657335281372	
43	203.71368026733398	fix_post	2		12	41.0	2.5	/experiments/Knapen_AOT/AOT_stimuli/rescaled_final/1931_fw.mp4	0.0	240.91510581970215	0.0999748706817627
44	203.81365513801575	fix_pre	0		120	42.0	2.5	/experiments/Knapen_AOT/AOT_stimuli/rescaled_final/0480_fw.mp4	0.0	241.0150806903839	1.0085017681121826
44	203.9973270893097	pulse	0	t		42.0	2.5	/experiments/Knapen_AOT/AOT_stimuli/rescaled_final/0480_fw.mp4	0.0	241.19875264167786	
44	204.82215690612793	movie	1		281	42.0	2.5	/experiments/Knapen_AOT/AOT_stimuli/rescaled_final/0480_fw.mp4	0.0	242.0235824584961	2.49211049079895
44	205.5965735912323	pulse	1	t		42.0	2.5	/experiments/Knapen_AOT/AOT_stimuli/rescaled_final/0480_fw.mp4	0.0	242.79799914360046	
44	207.19567465782166	pulse	1	t		42.0	2.5	/experiments/Knapen_AOT/AOT_stimuli/rescaled_final/0480_fw.mp4	0.0	244.39710021018982	
44	207.31426739692688	fix_post	2		12	42.0	2.5	/experiments/Knapen_AOT/AOT_stimuli/rescaled_final/0480_fw.mp4	0.0	244.51569294929504	0.10000395774841309
45	207.4142713546753	fix_pre	0		120	43.0	2.5	/experiments/Knapen_AOT/AOT_stimuli/rescaled_final/1733_fw.mp4	0.0	244.61569690704346	1.0084352493286133
45	208.4227066040039	movie	1		265	43.0	2.5	/experiments/Knapen_AOT/AOT_stimuli/rescaled_final/1733_fw.mp4	0.0	245.62413215637207	2.49202299118042
45	208.79662585258484	pulse	1	t		43.0	2.5	/experiments/Knapen_AOT/AOT_stimuli/rescaled_final/1733_fw.mp4	0.0	245.998051404953	
45	210.3966896533966	pulse	1	t		43.0	2.5	/experiments/Knapen_AOT/AOT_stimuli/rescaled_final/1733_fw.mp4	0.0	247.59811520576477	
45	210.91472959518433	fix_post	2		12	43.0	2.5	/experiments/Knapen_AOT/AOT_stimuli/rescaled_final/1733_fw.mp4	0.0	248.1161551475525	0.10001373291015625
46	211.01474332809448	fix_pre	0		119	44.0	2.5	/experiments/Knapen_AOT/AOT_stimuli/rescaled_final/0124_fw.mp4	0.0	248.21616888046265	1.0002312660217285
46	211.99840903282166	pulse	0	t		44.0	2.5	/experiments/Knapen_AOT/AOT_stimuli/rescaled_final/0124_fw.mp4	0.0	249.19983458518982	
46	212.0149745941162	movie	1		272	44.0	2.5	/experiments/Knapen_AOT/AOT_stimuli/rescaled_final/0124_fw.mp4	0.0	249.21640014648438	2.5002856254577637
46	213.5969386100769	pulse	1	t		44.0	2.5	/experiments/Knapen_AOT/AOT_stimuli/rescaled_final/0124_fw.mp4	0.0	250.79836416244507	
46	214.51526021957397	fix_post	2		12	44.0	2.5	/experiments/Knapen_AOT/AOT_stimuli/rescaled_final/0124_fw.mp4	0.0	251.71668577194214	0.10007882118225098
47	214.61533904075623	fix_pre	0		120	45.0	2.5	/experiments/Knapen_AOT/AOT_stimuli/rescaled_final/1759_fw.mp4	0.0	251.8167645931244	1.0087087154388428
47	215.1993055343628	pulse	0	t		45.0	2.5	/experiments/Knapen_AOT/AOT_stimuli/rescaled_final/1759_fw.mp4	0.0	252.40073108673096	
47	215.62404775619507	movie	1		281	45.0	2.5	/experiments/Knapen_AOT/AOT_stimuli/rescaled_final/1759_fw.mp4	0.0	252.82547330856323	2.491835355758667
47	216.79722094535828	pulse	1	t		45.0	2.5	/experiments/Knapen_AOT/AOT_stimuli/rescaled_final/1759_fw.mp4	0.0	253.99864649772644	
47	218.11588311195374	fix_post	2		12	45.0	2.5	/experiments/Knapen_AOT/AOT_stimuli/rescaled_final/1759_fw.mp4	0.0	255.3173086643219	0.10001182556152344
48	218.21589493751526	fix_pre	0		104	46.0	2.5	/experiments/Knapen_AOT/AOT_stimuli/rescaled_final/2080_rv.mp4	0.0	255.41732048988342	1.0084185600280762
48	218.3994700908661	pulse	0	t		46.0	2.5	/experiments/Knapen_AOT/AOT_stimuli/rescaled_final/2080_rv.mp4	0.0	255.60089564323425	
48	219.22431349754333	movie	1		277	46.0	2.5	/experiments/Knapen_AOT/AOT_stimuli/rescaled_final/2080_rv.mp4	0.0	256.4257390499115	2.4920287132263184
48	219.99738001823425	pulse	1	t		46.0	2.5	/experiments/Knapen_AOT/AOT_stimuli/rescaled_final/2080_rv.mp4	0.0	257.1988055706024	
48	221.59824872016907	pulse	1	t		46.0	2.5	/experiments/Knapen_AOT/AOT_stimuli/rescaled_final/2080_rv.mp4	0.0	258.79967427253723	
48	221.71634221076965	fix_post	2		12	46.0	2.5	/experiments/Knapen_AOT/AOT_stimuli/rescaled_final/2080_rv.mp4	0.0	258.9177677631378	0.10002541542053223
49	221.81636762619019	fix_pre	0		120	47.0	2.5	blank	1.0	259.01779317855835	1.000145673751831
49	222.81651329994202	movie	1		300	47.0	2.5	blank	1.0	260.0179388523102	2.5004069805145264
49	223.2002079486847	pulse	1	t		47.0	2.5	blank	1.0	260.40163350105286	
49	224.80036759376526	pulse	1	t		47.0	2.5	blank	1.0	262.0017931461334	
49	225.31692028045654	fix_post	2		12	47.0	2.5	blank	1.0	262.5183458328247	0.10019183158874512
50	225.4171121120453	fix_pre	0		119	48.0	2.5	/experiments/Knapen_AOT/AOT_stimuli/rescaled_final/0881_rv.mp4	0.0	262.61853766441345	1.008363962173462
50	226.40071988105774	pulse	0	t		48.0	2.5	/experiments/Knapen_AOT/AOT_stimuli/rescaled_final/0881_rv.mp4	0.0	263.6021454334259	
50	226.42547607421875	movie	1		279	48.0	2.5	/experiments/Knapen_AOT/AOT_stimuli/rescaled_final/0881_rv.mp4	0.0	263.6269016265869	2.491943836212158
50	227.99963665008545	pulse	1	t		48.0	2.5	/experiments/Knapen_AOT/AOT_stimuli/rescaled_final/0881_rv.mp4	0.0	265.2010622024536	
50	228.9174199104309	fix_post	2		12	48.0	2.5	/experiments/Knapen_AOT/AOT_stimuli/rescaled_final/0881_rv.mp4	0.0	266.1188454627991	0.1000361442565918
51	229.0174560546875	fix_pre	0		120	49.0	2.5	/experiments/Knapen_AOT/AOT_stimuli/rescaled_final/1889_rv.mp4	0.0	266.21888160705566	1.0084939002990723
51	229.60110592842102	pulse	0	t		49.0	2.5	/experiments/Knapen_AOT/AOT_stimuli/rescaled_final/1889_rv.mp4	0.0	266.8025314807892	
51	230.02594995498657	movie	1		283	49.0	2.5	/experiments/Knapen_AOT/AOT_stimuli/rescaled_final/1889_rv.mp4	0.0	267.22737550735474	2.4920239448547363
51	231.19928336143494	pulse	1	t		49.0	2.5	/experiments/Knapen_AOT/AOT_stimuli/rescaled_final/1889_rv.mp4	0.0	268.4007089138031	
51	232.5179738998413	fix_post	2		12	49.0	2.5	/experiments/Knapen_AOT/AOT_stimuli/rescaled_final/1889_rv.mp4	0.0	269.7193994522095	0.10001540184020996
52	232.61798930168152	fix_pre	0		120	50.0	2.5	/experiments/Knapen_AOT/AOT_stimuli/rescaled_final/0938_rv.mp4	0.0	269.8194148540497	1.008491039276123
52	232.8016233444214	pulse	0	t		50.0	2.5	/experiments/Knapen_AOT/AOT_stimuli/rescaled_final/0938_rv.mp4	0.0	270.00304889678955	
52	233.62648034095764	movie	1		283	50.0	2.5	/experiments/Knapen_AOT/AOT_stimuli/rescaled_final/0938_rv.mp4	0.0	270.8279058933258	2.492034435272217
52	234.40010046958923	pulse	1	t		50.0	2.5	/experiments/Knapen_AOT/AOT_stimuli/rescaled_final/0938_rv.mp4	0.0	271.6015260219574	
52	236.0004439353943	pulse	1	t		50.0	2.5	/experiments/Knapen_AOT/AOT_stimuli/rescaled_final/0938_rv.mp4	0.0	273.20186948776245	
52	236.11851477622986	fix_post	2		12	50.0	2.5	/experiments/Knapen_AOT/AOT_stimuli/rescaled_final/0938_rv.mp4	0.0	273.319940328598	0.1000204086303711
53	236.21853518486023	fix_pre	0		120	51.0	2.5	/experiments/Knapen_AOT/AOT_stimuli/rescaled_final/1477_rv.mp4	0.0	273.4199607372284	1.0085294246673584
53	237.2270646095276	movie	1		284	51.0	2.5	/experiments/Knapen_AOT/AOT_stimuli/rescaled_final/1477_rv.mp4	0.0	274.42849016189575	2.491992712020874
53	237.60066056251526	pulse	1	t		51.0	2.5	/experiments/Knapen_AOT/AOT_stimuli/rescaled_final/1477_rv.mp4	0.0	274.8020861148834	
53	239.20131540298462	pulse	1	t		51.0	2.5	/experiments/Knapen_AOT/AOT_stimuli/rescaled_final/1477_rv.mp4	0.0	276.4027409553528	
53	239.71905732154846	fix_post	2		12	51.0	2.5	/experiments/Knapen_AOT/AOT_stimuli/rescaled_final/1477_rv.mp4	0.0	276.9204828739166	0.10002803802490234
54	239.81908535957336	fix_pre	0		119	52.0	2.5	/experiments/Knapen_AOT/AOT_stimuli/rescaled_final/1668_rv.mp4	0.0	277.0205109119415	1.0002033710479736
54	240.7948863506317	pulse	0	t		52.0	2.5	/experiments/Knapen_AOT/AOT_stimuli/rescaled_final/1668_rv.mp4	0.0	277.9963119029999	
54	240.81928873062134	movie	1		276	52.0	2.5	/experiments/Knapen_AOT/AOT_stimuli/rescaled_final/1668_rv.mp4	0.0	278.0207142829895	2.5003139972686768
54	242.3952236175537	pulse	1	t		52.0	2.5	/experiments/Knapen_AOT/AOT_stimuli/rescaled_final/1668_rv.mp4	0.0	279.5966491699219	
54	243.31960272789001	fix_post	2		12	52.0	2.5	/experiments/Knapen_AOT/AOT_stimuli/rescaled_final/1668_rv.mp4	0.0	280.5210282802582	0.1000819206237793
55	243.4196846485138	fix_pre	0		120	53.0	2.5	/experiments/Knapen_AOT/AOT_stimuli/rescaled_final/1742_rv.mp4	0.0	280.62111020088196	1.0085222721099854
55	243.99502062797546	pulse	0	t		53.0	2.5	/experiments/Knapen_AOT/AOT_stimuli/rescaled_final/1742_rv.mp4	0.0	281.1964461803436	
55	244.42820692062378	movie	1		282	53.0	2.5	/experiments/Knapen_AOT/AOT_stimuli/rescaled_final/1742_rv.mp4	0.0	281.62963247299194	2.491975784301758
55	245.5955719947815	pulse	1	t		53.0	2.5	/experiments/Knapen_AOT/AOT_stimuli/rescaled_final/1742_rv.mp4	0.0	282.79699754714966	
55	246.92018270492554	fix_post	2		12	53.0	2.5	/experiments/Knapen_AOT/AOT_stimuli/rescaled_final/1742_rv.mp4	0.0	284.1216082572937	0.09998631477355957
56	247.0201690196991	fix_pre	0		120	54.0	2.5	/experiments/Knapen_AOT/AOT_stimuli/rescaled_final/0572_fw.mp4	0.0	284.22159457206726	1.0084881782531738
56	247.1959319114685	pulse	0	t		54.0	2.5	/experiments/Knapen_AOT/AOT_stimuli/rescaled_final/0572_fw.mp4	0.0	284.39735746383667	
56	248.02865719795227	movie	1		284	54.0	2.5	/experiments/Knapen_AOT/AOT_stimuli/rescaled_final/0572_fw.mp4	0.0	285.23008275032043	2.492018699645996
56	248.7956521511078	pulse	1	t		54.0	2.5	/experiments/Knapen_AOT/AOT_stimuli/rescaled_final/0572_fw.mp4	0.0	285.99707770347595	
56	250.39584636688232	pulse	1	t		54.0	2.5	/experiments/Knapen_AOT/AOT_stimuli/rescaled_final/0572_fw.mp4	0.0	287.5972719192505	
56	250.52067589759827	fix_post	2		12	54.0	2.5	/experiments/Knapen_AOT/AOT_stimuli/rescaled_final/0572_fw.mp4	0.0	287.72210144996643	0.10004377365112305
57	250.6207196712494	fix_pre	0		120	55.0	2.5	/experiments/Knapen_AOT/AOT_stimuli/rescaled_final/1376_fw.mp4	0.0	287.82214522361755	1.0084846019744873
57	251.62920427322388	movie	1		285	55.0	2.5	/experiments/Knapen_AOT/AOT_stimuli/rescaled_final/1376_fw.mp4	0.0	288.83062982559204	2.4920403957366943
57	251.99501514434814	pulse	1	t		55.0	2.5	/experiments/Knapen_AOT/AOT_stimuli/rescaled_final/1376_fw.mp4	0.0	289.1964406967163	
57	253.59637308120728	pulse	1	t		55.0	2.5	/experiments/Knapen_AOT/AOT_stimuli/rescaled_final/1376_fw.mp4	0.0	290.79779863357544	
57	254.12124466896057	fix_post	2		12	55.0	2.5	/experiments/Knapen_AOT/AOT_stimuli/rescaled_final/1376_fw.mp4	0.0	291.32267022132874	0.10004663467407227
58	254.22129130363464	fix_pre	0		118	56.0	2.5	blank	1.0	291.4227168560028	0.9834475517272949
58	255.1965823173523	pulse	0	t		56.0	2.5	blank	1.0	292.39800786972046	
58	255.20473885536194	movie	1		301	56.0	2.5	blank	1.0	292.4061644077301	2.508702039718628
58	256.79690742492676	pulse	1	t		56.0	2.5	blank	1.0	293.9983329772949	
58	257.71344089508057	fix_post	2		12	56.0	2.5	blank	1.0	294.91486644744873	0.10004878044128418
59	257.81348967552185	fix_pre	0		120	57.0	2.5	/experiments/Knapen_AOT/AOT_stimuli/rescaled_final/1218_fw.mp4	0.0	295.01491522789	1.0084693431854248
59	258.3971450328827	pulse	0	t		57.0	2.5	/experiments/Knapen_AOT/AOT_stimuli/rescaled_final/1218_fw.mp4	0.0	295.59857058525085	
59	258.8219590187073	movie	1		277	57.0	2.5	/experiments/Knapen_AOT/AOT_stimuli/rescaled_final/1218_fw.mp4	0.0	296.02338457107544	2.4920248985290527
59	259.9974253177643	pulse	1	t		57.0	2.5	/experiments/Knapen_AOT/AOT_stimuli/rescaled_final/1218_fw.mp4	0.0	297.19885087013245	
59	261.3139839172363	fix_post	2		12	57.0	2.5	/experiments/Knapen_AOT/AOT_stimuli/rescaled_final/1218_fw.mp4	0.0	298.5154094696045	0.10001373291015625
60	261.4139976501465	fix_pre	0		120	58.0	2.5	/experiments/Knapen_AOT/AOT_stimuli/rescaled_final/0452_fw.mp4	0.0	298.61542320251465	1.0084850788116455
60	261.59757709503174	pulse	0	t		58.0	2.5	/experiments/Knapen_AOT/AOT_stimuli/rescaled_final/0452_fw.mp4	0.0	298.7990026473999	
60	262.42248272895813	movie	1		282	58.0	2.5	/experiments/Knapen_AOT/AOT_stimuli/rescaled_final/0452_fw.mp4	0.0	299.6239082813263	2.4920670986175537
60	263.19590973854065	pulse	1	t		58.0	2.5	/experiments/Knapen_AOT/AOT_stimuli/rescaled_final/0452_fw.mp4	0.0	300.3973352909088	
60	264.7961814403534	pulse	1	t		58.0	2.5	/experiments/Knapen_AOT/AOT_stimuli/rescaled_final/0452_fw.mp4	0.0	301.99760699272156	
60	264.9145498275757	fix_post	2		12	58.0	2.5	/experiments/Knapen_AOT/AOT_stimuli/rescaled_final/0452_fw.mp4	0.0	302.11597537994385	0.10000467300415039
61	265.01455450057983	fix_pre	0		120	59.0	2.5	/experiments/Knapen_AOT/AOT_stimuli/rescaled_final/1682_rv.mp4	0.0	302.215980052948	1.0084962844848633
61	266.0230507850647	movie	1		277	59.0	2.5	/experiments/Knapen_AOT/AOT_stimuli/rescaled_final/1682_rv.mp4	0.0	303.22447633743286	2.492006540298462
61	266.39849734306335	pulse	1	t		59.0	2.5	/experiments/Knapen_AOT/AOT_stimuli/rescaled_final/1682_rv.mp4	0.0	303.5999228954315	
61	267.99653840065	pulse	1	t		59.0	2.5	/experiments/Knapen_AOT/AOT_stimuli/rescaled_final/1682_rv.mp4	0.0	305.1979639530182	
61	268.51505732536316	fix_post	2		12	59.0	2.5	/experiments/Knapen_AOT/AOT_stimuli/rescaled_final/1682_rv.mp4	0.0	305.7164828777313	0.1000204086303711
62	268.61507773399353	fix_pre	0		119	60.0	2.5	/experiments/Knapen_AOT/AOT_stimuli/rescaled_final/1234_fw.mp4	0.0	305.8165032863617	1.0001471042633057
62	269.5988938808441	pulse	0	t		60.0	2.5	/experiments/Knapen_AOT/AOT_stimuli/rescaled_final/1234_fw.mp4	0.0	306.8003194332123	
62	269.61522483825684	movie	1		282	60.0	2.5	/experiments/Knapen_AOT/AOT_stimuli/rescaled_final/1234_fw.mp4	0.0	306.816650390625	2.5003883838653564
62	271.197350025177	pulse	1	t		60.0	2.5	/experiments/Knapen_AOT/AOT_stimuli/rescaled_final/1234_fw.mp4	0.0	308.39877557754517	
62	272.1156132221222	fix_post	2		12	60.0	2.5	/experiments/Knapen_AOT/AOT_stimuli/rescaled_final/1234_fw.mp4	0.0	309.31703877449036	0.10000133514404297
63	272.21561455726624	fix_pre	0		120	61.0	2.5	/experiments/Knapen_AOT/AOT_stimuli/rescaled_final/0047_rv.mp4	0.0	309.4170401096344	1.008540391921997
63	272.79927349090576	pulse	0	t		61.0	2.5	/experiments/Knapen_AOT/AOT_stimuli/rescaled_final/0047_rv.mp4	0.0	310.0006990432739	
63	273.22415494918823	movie	1		285	61.0	2.5	/experiments/Knapen_AOT/AOT_stimuli/rescaled_final/0047_rv.mp4	0.0	310.4255805015564	2.4919936656951904
63	274.3984155654907	pulse	1	t		61.0	2.5	/experiments/Knapen_AOT/AOT_stimuli/rescaled_final/0047_rv.mp4	0.0	311.5998411178589	
63	275.7161486148834	fix_post	2		12	61.0	2.5	/experiments/Knapen_AOT/AOT_stimuli/rescaled_final/0047_rv.mp4	0.0	312.9175741672516	0.10000395774841309
64	275.81615257263184	fix_pre	0		120	62.0	2.5	/experiments/Knapen_AOT/AOT_stimuli/rescaled_final/0682_fw.mp4	0.0	313.017578125	1.0085351467132568
64	275.9997441768646	pulse	0	t		62.0	2.5	/experiments/Knapen_AOT/AOT_stimuli/rescaled_final/0682_fw.mp4	0.0	313.2011697292328	
64	276.8246877193451	movie	1		272	62.0	2.5	/experiments/Knapen_AOT/AOT_stimuli/rescaled_final/0682_fw.mp4	0.0	314.02611327171326	2.4920058250427246
64	277.59819626808167	pulse	1	t		62.0	2.5	/experiments/Knapen_AOT/AOT_stimuli/rescaled_final/0682_fw.mp4	0.0	314.79962182044983	
64	279.19853949546814	pulse	1	t		62.0	2.5	/experiments/Knapen_AOT/AOT_stimuli/rescaled_final/0682_fw.mp4	0.0	316.3999650478363	
64	279.3166935443878	fix_post	2		12	62.0	2.5	/experiments/Knapen_AOT/AOT_stimuli/rescaled_final/0682_fw.mp4	0.0	316.518119096756	0.10001850128173828
65	279.41671204566956	fix_pre	0		120	63.0	2.5	blank	1.0	316.6181375980377	1.0001516342163086
65	280.41686367988586	movie	1		300	63.0	2.5	blank	1.0	317.618289232254	2.500366449356079
65	280.80038952827454	pulse	1	t		63.0	2.5	blank	1.0	318.0018150806427	
65	282.40075302124023	pulse	1	t		63.0	2.5	blank	1.0	319.6021785736084	
65	282.91723012924194	fix_post	2		12	63.0	2.5	blank	1.0	320.1186556816101	0.1000216007232666
66	283.0172517299652	fix_pre	0		119	64.0	2.5	/experiments/Knapen_AOT/AOT_stimuli/rescaled_final/0054_rv.mp4	0.0	320.2186772823334	1.0001981258392334
66	284.0009653568268	pulse	0	t		64.0	2.5	/experiments/Knapen_AOT/AOT_stimuli/rescaled_final/0054_rv.mp4	0.0	321.20239090919495	
66	284.01744985580444	movie	1		276	64.0	2.5	/experiments/Knapen_AOT/AOT_stimuli/rescaled_final/0054_rv.mp4	0.0	321.2188754081726	2.500338315963745
66	285.5996870994568	pulse	1	t		64.0	2.5	/experiments/Knapen_AOT/AOT_stimuli/rescaled_final/0054_rv.mp4	0.0	322.80111265182495	
66	286.5177881717682	fix_post	2		12	64.0	2.5	/experiments/Knapen_AOT/AOT_stimuli/rescaled_final/0054_rv.mp4	0.0	323.71921372413635	0.1000056266784668
67	286.61779379844666	fix_pre	0		120	65.0	2.5	/experiments/Knapen_AOT/AOT_stimuli/rescaled_final/0846_fw.mp4	0.0	323.8192193508148	1.0085663795471191
67	287.201459646225	pulse	0	t		65.0	2.5	/experiments/Knapen_AOT/AOT_stimuli/rescaled_final/0846_fw.mp4	0.0	324.40288519859314	
67	287.6263601779938	movie	1		279	65.0	2.5	/experiments/Knapen_AOT/AOT_stimuli/rescaled_final/0846_fw.mp4	0.0	324.82778573036194	2.491943120956421
67	288.8004422187805	pulse	1	t		65.0	2.5	/experiments/Knapen_AOT/AOT_stimuli/rescaled_final/0846_fw.mp4	0.0	326.0018677711487	
67	290.1183032989502	fix_post	2		12	65.0	2.5	/experiments/Knapen_AOT/AOT_stimuli/rescaled_final/0846_fw.mp4	0.0	327.31972885131836	0.1000216007232666
68	290.21832489967346	fix_pre	0		120	66.0	2.5	/experiments/Knapen_AOT/AOT_stimuli/rescaled_final/0692_rv.mp4	0.0	327.4197504520416	1.0086381435394287
68	290.4021329879761	pulse	0	t		66.0	2.5	/experiments/Knapen_AOT/AOT_stimuli/rescaled_final/0692_rv.mp4	0.0	327.60355854034424	
68	291.2269630432129	movie	1		248	66.0	2.5	/experiments/Knapen_AOT/AOT_stimuli/rescaled_final/0692_rv.mp4	0.0	328.42838859558105	2.492017984390259
68	292.0000412464142	pulse	1	t		66.0	2.5	/experiments/Knapen_AOT/AOT_stimuli/rescaled_final/0692_rv.mp4	0.0	329.20146679878235	
68	293.60061979293823	pulse	1	t		66.0	2.5	/experiments/Knapen_AOT/AOT_stimuli/rescaled_final/0692_rv.mp4	0.0	330.8020453453064	
68	293.71898102760315	fix_post	2		12	66.0	2.5	/experiments/Knapen_AOT/AOT_stimuli/rescaled_final/0692_rv.mp4	0.0	330.9204065799713	0.09989237785339355
69	293.81887340545654	fix_pre	0		120	67.0	2.5	/experiments/Knapen_AOT/AOT_stimuli/rescaled_final/1583_rv.mp4	0.0	331.0202989578247	1.0085020065307617
69	294.8273754119873	movie	1		269	67.0	2.5	/experiments/Knapen_AOT/AOT_stimuli/rescaled_final/1583_rv.mp4	0.0	332.02880096435547	2.492011785507202
69	295.2028570175171	pulse	1	t		67.0	2.5	/experiments/Knapen_AOT/AOT_stimuli/rescaled_final/1583_rv.mp4	0.0	332.40428256988525	
69	296.80061650276184	pulse	1	t		67.0	2.5	/experiments/Knapen_AOT/AOT_stimuli/rescaled_final/1583_rv.mp4	0.0	334.00204205513	
69	297.3193871974945	fix_post	2		12	67.0	2.5	/experiments/Knapen_AOT/AOT_stimuli/rescaled_final/1583_rv.mp4	0.0	334.52081274986267	0.10004878044128418
70	297.4194359779358	fix_pre	0		119	68.0	2.5	/experiments/Knapen_AOT/AOT_stimuli/rescaled_final/0587_fw.mp4	0.0	334.62086153030396	1.0085461139678955
70	298.4033989906311	pulse	0	t		68.0	2.5	/experiments/Knapen_AOT/AOT_stimuli/rescaled_final/0587_fw.mp4	0.0	335.60482454299927	
70	298.4279820919037	movie	1		279	68.0	2.5	/experiments/Knapen_AOT/AOT_stimuli/rescaled_final/0587_fw.mp4	0.0	335.62940764427185	2.4919772148132324
70	300.00223112106323	pulse	1	t		68.0	2.5	/experiments/Knapen_AOT/AOT_stimuli/rescaled_final/0587_fw.mp4	0.0	337.2036566734314	
70	300.9199593067169	fix_post	2		12	68.0	2.5	/experiments/Knapen_AOT/AOT_stimuli/rescaled_final/0587_fw.mp4	0.0	338.1213848590851	0.0999908447265625
71	301.0199501514435	fix_pre	0		120	69.0	2.5	blank	1.0	338.22137570381165	1.0001640319824219
71	301.5956723690033	pulse	0	t		69.0	2.5	blank	1.0	338.79709792137146	
71	302.0201141834259	movie	1		300	69.0	2.5	blank	1.0	339.22153973579407	2.5003821849823
71	303.19696140289307	pulse	1	t		69.0	2.5	blank	1.0	340.39838695526123	
71	304.5204963684082	fix_post	2		12	69.0	2.5	blank	1.0	341.72192192077637	0.10007309913635254
72	304.62056946754456	fix_pre	0		120	70.0	2.5	/experiments/Knapen_AOT/AOT_stimuli/rescaled_final/1219_fw.mp4	0.0	341.8219950199127	1.008509874343872
72	304.7957193851471	pulse	0	t		70.0	2.5	/experiments/Knapen_AOT/AOT_stimuli/rescaled_final/1219_fw.mp4	0.0	341.99714493751526	
72	305.6290793418884	movie	1		272	70.0	2.5	/experiments/Knapen_AOT/AOT_stimuli/rescaled_final/1219_fw.mp4	0.0	342.8305048942566	2.4919748306274414
72	306.3962218761444	pulse	1	t		70.0	2.5	/experiments/Knapen_AOT/AOT_stimuli/rescaled_final/1219_fw.mp4	0.0	343.5976474285126	
72	307.9963195323944	pulse	1	t		70.0	2.5	/experiments/Knapen_AOT/AOT_stimuli/rescaled_final/1219_fw.mp4	0.0	345.1977450847626	
72	308.12105417251587	fix_post	2		12	70.0	2.5	/experiments/Knapen_AOT/AOT_stimuli/rescaled_final/1219_fw.mp4	0.0	345.32247972488403	0.09999823570251465
73	308.2210524082184	fix_pre	0		120	71.0	2.5	/experiments/Knapen_AOT/AOT_stimuli/rescaled_final/0328_fw.mp4	0.0	345.42247796058655	1.0084943771362305
73	309.2295467853546	movie	1		267	71.0	2.5	/experiments/Knapen_AOT/AOT_stimuli/rescaled_final/0328_fw.mp4	0.0	346.4309723377228	2.4920220375061035
73	309.59657168388367	pulse	1	t		71.0	2.5	/experiments/Knapen_AOT/AOT_stimuli/rescaled_final/0328_fw.mp4	0.0	346.79799723625183	
73	311.19522523880005	pulse	1	t		71.0	2.5	/experiments/Knapen_AOT/AOT_stimuli/rescaled_final/0328_fw.mp4	0.0	348.3966507911682	
73	311.7215688228607	fix_post	2		12	71.0	2.5	/experiments/Knapen_AOT/AOT_stimuli/rescaled_final/0328_fw.mp4	0.0	348.9229943752289	0.10001707077026367
74	311.821585893631	fix_pre	0		118	72.0	2.5	/experiments/Knapen_AOT/AOT_stimuli/rescaled_final/0379_rv.mp4	0.0	349.02301144599915	1.0001587867736816
74	312.79716968536377	pulse	0	t		72.0	2.5	/experiments/Knapen_AOT/AOT_stimuli/rescaled_final/0379_rv.mp4	0.0	349.99859523773193	
74	312.82174468040466	movie	1		275	72.0	2.5	/experiments/Knapen_AOT/AOT_stimuli/rescaled_final/0379_rv.mp4	0.0	350.0231702327728	2.492035388946533
74	314.395943403244	pulse	1	t		72.0	2.5	/experiments/Knapen_AOT/AOT_stimuli/rescaled_final/0379_rv.mp4	0.0	351.5973689556122	
74	315.3137800693512	fix_post	2		12	72.0	2.5	/experiments/Knapen_AOT/AOT_stimuli/rescaled_final/0379_rv.mp4	0.0	352.51520562171936	0.10000276565551758
75	315.4137828350067	fix_pre	0		120	73.0	2.5	/experiments/Knapen_AOT/AOT_stimuli/rescaled_final/1846_fw.mp4	0.0	352.6152083873749	1.0084831714630127
75	315.99813890457153	pulse	0	t		73.0	2.5	/experiments/Knapen_AOT/AOT_stimuli/rescaled_final/1846_fw.mp4	0.0	353.1995644569397	
75	316.4222660064697	movie	1		268	73.0	2.5	/experiments/Knapen_AOT/AOT_stimuli/rescaled_final/1846_fw.mp4	0.0	353.6236915588379	2.4920496940612793
75	317.597674369812	pulse	1	t		73.0	2.5	/experiments/Knapen_AOT/AOT_stimuli/rescaled_final/1846_fw.mp4	0.0	354.7990999221802	
75	318.914315700531	fix_post	2		12	73.0	2.5	/experiments/Knapen_AOT/AOT_stimuli/rescaled_final/1846_fw.mp4	0.0	356.11574125289917	0.09999799728393555
76	319.01431369781494	fix_pre	0		120	74.0	2.5	/experiments/Knapen_AOT/AOT_stimuli/rescaled_final/1376_rv.mp4	0.0	356.2157392501831	1.0085289478302002
76	319.19792580604553	pulse	0	t		74.0	2.5	/experiments/Knapen_AOT/AOT_stimuli/rescaled_final/1376_rv.mp4	0.0	356.3993513584137	
76	320.02284264564514	movie	1		277	74.0	2.5	/experiments/Knapen_AOT/AOT_stimuli/rescaled_final/1376_rv.mp4	0.0	357.2242681980133	2.4920146465301514
76	320.79658579826355	pulse	1	t		74.0	2.5	/experiments/Knapen_AOT/AOT_stimuli/rescaled_final/1376_rv.mp4	0.0	357.9980113506317	
76	322.3963873386383	pulse	1	t		74.0	2.5	/experiments/Knapen_AOT/AOT_stimuli/rescaled_final/1376_rv.mp4	0.0	359.59781289100647	
76	322.5148572921753	fix_post	2		12	74.0	2.5	/experiments/Knapen_AOT/AOT_stimuli/rescaled_final/1376_rv.mp4	0.0	359.71628284454346	0.10004711151123047
77	322.6149044036865	fix_pre	0		120	75.0	2.5	blank	1.0	359.8163299560547	1.000136375427246
77	323.61504077911377	movie	1		300	75.0	2.5	blank	1.0	360.81646633148193	2.5003645420074463
77	323.9986991882324	pulse	1	t		75.0	2.5	blank	1.0	361.2001247406006	
77	325.5988521575928	pulse	1	t		75.0	2.5	blank	1.0	362.80027770996094	
77	326.1154053211212	fix_post	2		12	75.0	2.5	blank	1.0	363.3168308734894	0.10000824928283691
78	326.21541357040405	fix_pre	0		119	76.0	2.5	/experiments/Knapen_AOT/AOT_stimuli/rescaled_final/0587_rv.mp4	0.0	363.4168391227722	1.0001556873321533
78	327.1991183757782	pulse	0	t		76.0	2.5	/experiments/Knapen_AOT/AOT_stimuli/rescaled_final/0587_rv.mp4	0.0	364.40054392814636	
78	327.2155692577362	movie	1		279	76.0	2.5	/experiments/Knapen_AOT/AOT_stimuli/rescaled_final/0587_rv.mp4	0.0	364.41699481010437	2.500380754470825
78	328.79760909080505	pulse	1	t		76.0	2.5	/experiments/Knapen_AOT/AOT_stimuli/rescaled_final/0587_rv.mp4	0.0	365.9990346431732	
78	329.71595001220703	fix_post	2		12	76.0	2.5	/experiments/Knapen_AOT/AOT_stimuli/rescaled_final/0587_rv.mp4	0.0	366.9173755645752	0.1000216007232666
79	329.8159716129303	fix_pre	0		120	77.0	2.5	/experiments/Knapen_AOT/AOT_stimuli/rescaled_final/0458_rv.mp4	0.0	367.01739716529846	1.0084507465362549
79	330.39958930015564	pulse	0	t		77.0	2.5	/experiments/Knapen_AOT/AOT_stimuli/rescaled_final/0458_rv.mp4	0.0	367.6010148525238	
79	330.82442235946655	movie	1		262	77.0	2.5	/experiments/Knapen_AOT/AOT_stimuli/rescaled_final/0458_rv.mp4	0.0	368.0258479118347	2.4920642375946045
79	331.9983859062195	pulse	1	t		77.0	2.5	/experiments/Knapen_AOT/AOT_stimuli/rescaled_final/0458_rv.mp4	0.0	369.19981145858765	
79	333.31648659706116	fix_post	2		12	77.0	2.5	/experiments/Knapen_AOT/AOT_stimuli/rescaled_final/0458_rv.mp4	0.0	370.5179121494293	0.10002827644348145
80	333.41651487350464	fix_pre	0		120	78.0	2.5	/experiments/Knapen_AOT/AOT_stimuli/rescaled_final/1218_rv.mp4	0.0	370.6179404258728	1.0084888935089111
80	333.6002082824707	pulse	0	t		78.0	2.5	/experiments/Knapen_AOT/AOT_stimuli/rescaled_final/1218_rv.mp4	0.0	370.80163383483887	
80	334.42500376701355	movie	1		269	78.0	2.5	/experiments/Knapen_AOT/AOT_stimuli/rescaled_final/1218_rv.mp4	0.0	371.6264293193817	2.492011308670044
80	335.19824481010437	pulse	1	t		78.0	2.5	/experiments/Knapen_AOT/AOT_stimuli/rescaled_final/1218_rv.mp4	0.0	372.39967036247253	
80	336.79882860183716	pulse	1	t		78.0	2.5	/experiments/Knapen_AOT/AOT_stimuli/rescaled_final/1218_rv.mp4	0.0	374.0002541542053	
80	336.9170150756836	fix_post	2		12	78.0	2.5	/experiments/Knapen_AOT/AOT_stimuli/rescaled_final/1218_rv.mp4	0.0	374.11844062805176	0.10000014305114746
81	337.01701521873474	fix_pre	0		120	79.0	2.5	/experiments/Knapen_AOT/AOT_stimuli/rescaled_final/1722_rv.mp4	0.0	374.2184407711029	1.0085508823394775
81	338.0255661010742	movie	1		268	79.0	2.5	/experiments/Knapen_AOT/AOT_stimuli/rescaled_final/1722_rv.mp4	0.0	375.2269916534424	2.491990089416504
81	338.3999021053314	pulse	1	t		79.0	2.5	/experiments/Knapen_AOT/AOT_stimuli/rescaled_final/1722_rv.mp4	0.0	375.6013276576996	
81	339.99923515319824	pulse	1	t		79.0	2.5	/experiments/Knapen_AOT/AOT_stimuli/rescaled_final/1722_rv.mp4	0.0	377.2006607055664	
81	340.5175561904907	fix_post	2		12	79.0	2.5	/experiments/Knapen_AOT/AOT_stimuli/rescaled_final/1722_rv.mp4	0.0	377.7189817428589	0.10005640983581543
82	340.61761260032654	fix_pre	0		119	80.0	2.5	/experiments/Knapen_AOT/AOT_stimuli/rescaled_final/0322_rv.mp4	0.0	377.8190381526947	1.0001029968261719
82	341.60121393203735	pulse	0	t		80.0	2.5	/experiments/Knapen_AOT/AOT_stimuli/rescaled_final/0322_rv.mp4	0.0	378.8026394844055	
82	341.6177155971527	movie	1		280	80.0	2.5	/experiments/Knapen_AOT/AOT_stimuli/rescaled_final/0322_rv.mp4	0.0	378.8191411495209	2.5003836154937744
82	343.1997039318085	pulse	1	t		80.0	2.5	/experiments/Knapen_AOT/AOT_stimuli/rescaled_final/0322_rv.mp4	0.0	380.40112948417664	
82	344.1180992126465	fix_post	2		12	80.0	2.5	/experiments/Knapen_AOT/AOT_stimuli/rescaled_final/0322_rv.mp4	0.0	381.31952476501465	0.10002565383911133
83	344.2181248664856	fix_pre	0		120	81.0	2.5	/experiments/Knapen_AOT/AOT_stimuli/rescaled_final/2080_fw.mp4	0.0	381.41955041885376	1.008488416671753
83	344.80171728134155	pulse	0	t		81.0	2.5	/experiments/Knapen_AOT/AOT_stimuli/rescaled_final/2080_fw.mp4	0.0	382.0031428337097	
83	345.22661328315735	movie	1		260	81.0	2.5	/experiments/Knapen_AOT/AOT_stimuli/rescaled_final/2080_fw.mp4	0.0	382.4280388355255	2.492267608642578
83	346.4001977443695	pulse	1	t		81.0	2.5	/experiments/Knapen_AOT/AOT_stimuli/rescaled_final/2080_fw.mp4	0.0	383.60162329673767	
83	347.7188808917999	fix_post	2		12	81.0	2.5	/experiments/Knapen_AOT/AOT_stimuli/rescaled_final/2080_fw.mp4	0.0	384.9203064441681	0.09981989860534668
84	347.8187007904053	fix_pre	0		120	82.0	2.5	/experiments/Knapen_AOT/AOT_stimuli/rescaled_final/0992_rv.mp4	0.0	385.02012634277344	1.0084571838378906
84	348.0021517276764	pulse	0	t		82.0	2.5	/experiments/Knapen_AOT/AOT_stimuli/rescaled_final/0992_rv.mp4	0.0	385.20357728004456	
84	348.82715797424316	movie	1		269	82.0	2.5	/experiments/Knapen_AOT/AOT_stimuli/rescaled_final/0992_rv.mp4	0.0	386.0285835266113	2.492025375366211
84	349.60091185569763	pulse	1	t		82.0	2.5	/experiments/Knapen_AOT/AOT_stimuli/rescaled_final/0992_rv.mp4	0.0	386.8023374080658	
84	351.20078110694885	pulse	1	t		82.0	2.5	/experiments/Knapen_AOT/AOT_stimuli/rescaled_final/0992_rv.mp4	0.0	388.402206659317	
84	351.3191833496094	fix_post	2		12	82.0	2.5	/experiments/Knapen_AOT/AOT_stimuli/rescaled_final/0992_rv.mp4	0.0	388.52060890197754	0.09999704360961914
85	351.419180393219	fix_pre	0		120	83.0	2.5	blank	1.0	388.62060594558716	1.0001609325408936
85	352.4193413257599	movie	1		300	83.0	2.5	blank	1.0	389.62076687812805	2.5003905296325684
85	352.7948706150055	pulse	1	t		83.0	2.5	blank	1.0	389.99629616737366	
85	354.39505410194397	pulse	1	t		83.0	2.5	blank	1.0	391.59647965431213	
85	354.91973185539246	fix_post	2		12	83.0	2.5	blank	1.0	392.1211574077606	0.13341832160949707
87	355.05315017700195	stim	0		1711					392.2545757293701	14.260555982589722
87	355.99508571624756	pulse	0	t						393.1965112686157	
87	357.5953314304352	pulse	0	t						394.79675698280334	
87	359.1955556869507	pulse	0	t						396.39698123931885	
87	360.79621386528015	pulse	0	t						397.9976394176483	
87	362.3959972858429	pulse	0	t						399.59742283821106	
87	363.99621844291687	pulse	0	t						401.19764399528503	
87	365.59647130966187	pulse	0	t						402.79789686203003	
87	367.19685101509094	pulse	0	t						404.3982765674591	
87	368.7970333099365	pulse	0	t						405.9984588623047	
