trial_nr	onset	event_type	phase	response	nr_frames	movie_index	movie_duration	movie_file	blank	onset_abs	duration
0	0.1582789421081543	stim	0		29					23.012316942214966	0.24168086051940918
0	0.391887903213501	response	0	space						23.245925903320312	
1	0.3999598026275635	stim	0		2859					23.253997802734375	23.824812173843384
1	24.21744179725647	pulse	0	t						47.07147979736328	
1	24.224771976470947	stim	1		1717					47.07880997657776	14.30830192565918
1	25.816650867462158	pulse	1	t						48.67068886756897	
1	27.416483879089355	pulse	1	t						50.27052187919617	
1	29.01647400856018	pulse	1	t						51.87051200866699	
1	30.616551876068115	pulse	1	t						53.47058987617493	
1	32.21646285057068	pulse	1	t						55.07050085067749	
1	33.816417932510376	pulse	1	t						56.67045593261719	
1	35.416430950164795	pulse	1	t						58.270468950271606	
1	37.01655197143555	pulse	1	t						59.87058997154236	
2	38.53307390213013	fix_pre	0		11	0.0	2.5	/experiments/AOT/AOT_stimuli/rescaled_final/1524_fw.mp4	0.0	61.38711190223694	0.09158802032470703
2	38.616474866867065	pulse	0	t		0.0	2.5	/experiments/AOT/AOT_stimuli/rescaled_final/1524_fw.mp4	0.0	61.47051286697388	
2	38.624661922454834	movie	1		243	0.0	2.5	/experiments/AOT/AOT_stimuli/rescaled_final/1524_fw.mp4	0.0	61.478699922561646	2.508357048034668
2	40.21601390838623	pulse	1	t		0.0	2.5	/experiments/AOT/AOT_stimuli/rescaled_final/1524_fw.mp4	0.0	63.07005190849304	
2	41.1330189704895	fix_post	2		12	0.0	2.5	/experiments/AOT/AOT_stimuli/rescaled_final/1524_fw.mp4	0.0	63.98705697059631	0.10001492500305176
3	41.233033895492554	fix_pre	0		120	1.0	2.5	/experiments/AOT/AOT_stimuli/rescaled_final/0253_rv.mp4	0.0	64.08707189559937	0.9999818801879883
3	41.81655693054199	pulse	0	t		1.0	2.5	/experiments/AOT/AOT_stimuli/rescaled_final/0253_rv.mp4	0.0	64.6705949306488	
3	42.23301577568054	movie	1		245	1.0	2.5	/experiments/AOT/AOT_stimuli/rescaled_final/0253_rv.mp4	0.0	65.08705377578735	2.499939203262329
3	43.41656684875488	pulse	1	t		1.0	2.5	/experiments/AOT/AOT_stimuli/rescaled_final/0253_rv.mp4	0.0	66.2706048488617	
3	44.73295497894287	fix_post	2		12	1.0	2.5	/experiments/AOT/AOT_stimuli/rescaled_final/0253_rv.mp4	0.0	67.58699297904968	0.10003995895385742
4	44.83299493789673	fix_pre	0		120	2.0	2.5	/experiments/AOT/AOT_stimuli/rescaled_final/1758_rv.mp4	0.0	67.68703293800354	0.9999630451202393
4	45.01651883125305	pulse	0	t		2.0	2.5	/experiments/AOT/AOT_stimuli/rescaled_final/1758_rv.mp4	0.0	67.87055683135986	
4	45.83295798301697	movie	1		245	2.0	2.5	/experiments/AOT/AOT_stimuli/rescaled_final/1758_rv.mp4	0.0	68.68699598312378	2.499952793121338
4	46.616490840911865	pulse	1	t		2.0	2.5	/experiments/AOT/AOT_stimuli/rescaled_final/1758_rv.mp4	0.0	69.47052884101868	
4	48.21599888801575	pulse	1	t		2.0	2.5	/experiments/AOT/AOT_stimuli/rescaled_final/1758_rv.mp4	0.0	71.07003688812256	
4	48.332910776138306	fix_post	2		12	2.0	2.5	/experiments/AOT/AOT_stimuli/rescaled_final/1758_rv.mp4	0.0	71.18694877624512	0.10008716583251953
5	48.432997941970825	fix_pre	0		120	3.0	2.5	/experiments/AOT/AOT_stimuli/rescaled_final/1792_fw.mp4	0.0	71.28703594207764	0.9999470710754395
5	49.432945013046265	movie	1		247	3.0	2.5	/experiments/AOT/AOT_stimuli/rescaled_final/1792_fw.mp4	0.0	72.28698301315308	2.5000147819519043
5	49.81602382659912	pulse	1	t		3.0	2.5	/experiments/AOT/AOT_stimuli/rescaled_final/1792_fw.mp4	0.0	72.67006182670593	
5	51.41643691062927	pulse	1	t		3.0	2.5	/experiments/AOT/AOT_stimuli/rescaled_final/1792_fw.mp4	0.0	74.27047491073608	
5	51.93295979499817	fix_post	2		12	3.0	2.5	/experiments/AOT/AOT_stimuli/rescaled_final/1792_fw.mp4	0.0	74.78699779510498	0.09990906715393066
6	52.0328688621521	fix_pre	0		119	4.0	2.5	/experiments/AOT/AOT_stimuli/rescaled_final/1483_rv.mp4	0.0	74.88690686225891	0.9917941093444824
6	53.01645278930664	pulse	0	t		4.0	2.5	/experiments/AOT/AOT_stimuli/rescaled_final/1483_rv.mp4	0.0	75.87049078941345	
6	53.02466297149658	movie	1		247	4.0	2.5	/experiments/AOT/AOT_stimuli/rescaled_final/1483_rv.mp4	0.0	75.8787009716034	2.5082128047943115
6	54.617748975753784	pulse	1	t		4.0	2.5	/experiments/AOT/AOT_stimuli/rescaled_final/1483_rv.mp4	0.0	77.4717869758606	
6	55.532875776290894	fix_post	2		12	4.0	2.5	/experiments/AOT/AOT_stimuli/rescaled_final/1483_rv.mp4	0.0	78.3869137763977	0.1000971794128418
7	55.632972955703735	fix_pre	0		120	5.0	2.5	/experiments/AOT/AOT_stimuli/rescaled_final/1677_fw.mp4	0.0	78.48701095581055	1.000013828277588
7	56.216455936431885	pulse	0	t		5.0	2.5	/experiments/AOT/AOT_stimuli/rescaled_final/1677_fw.mp4	0.0	79.0704939365387	
7	56.63298678398132	movie	1		246	5.0	2.5	/experiments/AOT/AOT_stimuli/rescaled_final/1677_fw.mp4	0.0	79.48702478408813	2.4999589920043945
7	57.81648778915405	pulse	1	t		5.0	2.5	/experiments/AOT/AOT_stimuli/rescaled_final/1677_fw.mp4	0.0	80.67052578926086	
7	59.13294577598572	fix_post	2		12	5.0	2.5	/experiments/AOT/AOT_stimuli/rescaled_final/1677_fw.mp4	0.0	81.98698377609253	0.0999751091003418
8	59.23292088508606	fix_pre	0		120	6.0	2.5	/experiments/AOT/AOT_stimuli/rescaled_final/1409_rv.mp4	0.0	82.08695888519287	1.0000269412994385
8	59.416417837142944	pulse	0	t		6.0	2.5	/experiments/AOT/AOT_stimuli/rescaled_final/1409_rv.mp4	0.0	82.27045583724976	
8	60.2329478263855	movie	1		243	6.0	2.5	/experiments/AOT/AOT_stimuli/rescaled_final/1409_rv.mp4	0.0	83.08698582649231	2.4999170303344727
8	61.01637578010559	pulse	1	t		6.0	2.5	/experiments/AOT/AOT_stimuli/rescaled_final/1409_rv.mp4	0.0	83.8704137802124	
8	62.61471199989319	pulse	1	t		6.0	2.5	/experiments/AOT/AOT_stimuli/rescaled_final/1409_rv.mp4	0.0	85.46875	
8	62.73286485671997	fix_post	2		12	6.0	2.5	/experiments/AOT/AOT_stimuli/rescaled_final/1409_rv.mp4	0.0	85.58690285682678	0.10000300407409668
9	62.83286786079407	fix_pre	0		120	7.0	2.5	blank	1.0	85.68690586090088	1.0001230239868164
9	63.832990884780884	movie	1		300	7.0	2.5	blank	1.0	86.6870288848877	2.499812126159668
9	64.21641397476196	pulse	1	t		7.0	2.5	blank	1.0	87.07045197486877	
9	65.81644678115845	pulse	1	t		7.0	2.5	blank	1.0	88.67048478126526	
9	66.33280301094055	fix_post	2		12	7.0	2.5	blank	1.0	89.18684101104736	0.10001277923583984
10	66.43281579017639	fix_pre	0		119	8.0	2.5	/experiments/AOT/AOT_stimuli/rescaled_final/1069_rv.mp4	0.0	89.2868537902832	0.9917011260986328
10	67.41635179519653	pulse	0	t		8.0	2.5	/experiments/AOT/AOT_stimuli/rescaled_final/1069_rv.mp4	0.0	90.27038979530334	
10	67.42451691627502	movie	1		245	8.0	2.5	/experiments/AOT/AOT_stimuli/rescaled_final/1069_rv.mp4	0.0	90.27855491638184	2.5083389282226562
10	69.01603579521179	pulse	1	t		8.0	2.5	/experiments/AOT/AOT_stimuli/rescaled_final/1069_rv.mp4	0.0	91.8700737953186	
10	69.93285584449768	fix_post	2		12	8.0	2.5	/experiments/AOT/AOT_stimuli/rescaled_final/1069_rv.mp4	0.0	92.78689384460449	0.10003805160522461
11	70.0328938961029	fix_pre	0		120	9.0	2.5	/experiments/AOT/AOT_stimuli/rescaled_final/1536_rv.mp4	0.0	92.88693189620972	0.9999570846557617
11	70.61647486686707	pulse	0	t		9.0	2.5	/experiments/AOT/AOT_stimuli/rescaled_final/1536_rv.mp4	0.0	93.47051286697388	
11	71.03285098075867	movie	1		246	9.0	2.5	/experiments/AOT/AOT_stimuli/rescaled_final/1536_rv.mp4	0.0	93.88688898086548	2.499555826187134
11	72.21646499633789	pulse	1	t		9.0	2.5	/experiments/AOT/AOT_stimuli/rescaled_final/1536_rv.mp4	0.0	95.0705029964447	
11	73.5324068069458	fix_post	2		12	9.0	2.5	/experiments/AOT/AOT_stimuli/rescaled_final/1536_rv.mp4	0.0	96.38644480705261	0.10005807876586914
12	73.63246488571167	fix_pre	0		120	10.0	2.5	/experiments/AOT/AOT_stimuli/rescaled_final/1090_fw.mp4	0.0	96.48650288581848	1.000046968460083
12	73.81593585014343	pulse	0	t		10.0	2.5	/experiments/AOT/AOT_stimuli/rescaled_final/1090_fw.mp4	0.0	96.66997385025024	
12	74.63251185417175	movie	1		246	10.0	2.5	/experiments/AOT/AOT_stimuli/rescaled_final/1090_fw.mp4	0.0	97.48654985427856	2.5002970695495605
12	75.41639685630798	pulse	1	t		10.0	2.5	/experiments/AOT/AOT_stimuli/rescaled_final/1090_fw.mp4	0.0	98.2704348564148	
12	77.01484680175781	pulse	1	t		10.0	2.5	/experiments/AOT/AOT_stimuli/rescaled_final/1090_fw.mp4	0.0	99.86888480186462	
12	77.13280892372131	fix_post	2		12	10.0	2.5	/experiments/AOT/AOT_stimuli/rescaled_final/1090_fw.mp4	0.0	99.98684692382812	0.10006904602050781
13	77.23287796974182	fix_pre	0		120	11.0	2.5	/experiments/AOT/AOT_stimuli/rescaled_final/0695_rv.mp4	0.0	100.08691596984863	1.0000228881835938
13	78.23290085792542	movie	1		246	11.0	2.5	/experiments/AOT/AOT_stimuli/rescaled_final/0695_rv.mp4	0.0	101.08693885803223	2.499901056289673
13	78.61590695381165	pulse	1	t		11.0	2.5	/experiments/AOT/AOT_stimuli/rescaled_final/0695_rv.mp4	0.0	101.46994495391846	
13	80.21624398231506	pulse	1	t		11.0	2.5	/experiments/AOT/AOT_stimuli/rescaled_final/0695_rv.mp4	0.0	103.07028198242188	
13	80.73280191421509	fix_post	2		12	11.0	2.5	/experiments/AOT/AOT_stimuli/rescaled_final/0695_rv.mp4	0.0	103.5868399143219	0.10002493858337402
14	80.83282685279846	fix_pre	0		119	12.0	2.5	/experiments/AOT/AOT_stimuli/rescaled_final/0657_rv.mp4	0.0	103.68686485290527	0.9915850162506104
14	81.81639695167542	pulse	0	t		12.0	2.5	/experiments/AOT/AOT_stimuli/rescaled_final/0657_rv.mp4	0.0	104.67043495178223	
14	81.82441186904907	movie	1		247	12.0	2.5	/experiments/AOT/AOT_stimuli/rescaled_final/0657_rv.mp4	0.0	104.67844986915588	2.5079450607299805
14	83.41602683067322	pulse	1	t		12.0	2.5	/experiments/AOT/AOT_stimuli/rescaled_final/0657_rv.mp4	0.0	106.27006483078003	
14	84.33235692977905	fix_post	2		12	12.0	2.5	/experiments/AOT/AOT_stimuli/rescaled_final/0657_rv.mp4	0.0	107.18639492988586	0.1003730297088623
15	84.43272995948792	fix_pre	0		120	13.0	2.5	/experiments/AOT/AOT_stimuli/rescaled_final/2141_fw.mp4	0.0	107.28676795959473	1.000128984451294
15	85.01625895500183	pulse	0	t		13.0	2.5	/experiments/AOT/AOT_stimuli/rescaled_final/2141_fw.mp4	0.0	107.87029695510864	
15	85.43285894393921	movie	1		244	13.0	2.5	/experiments/AOT/AOT_stimuli/rescaled_final/2141_fw.mp4	0.0	108.28689694404602	2.499851942062378
15	86.6162679195404	pulse	1	t		13.0	2.5	/experiments/AOT/AOT_stimuli/rescaled_final/2141_fw.mp4	0.0	109.47030591964722	
15	87.93271088600159	fix_post	2		12	13.0	2.5	/experiments/AOT/AOT_stimuli/rescaled_final/2141_fw.mp4	0.0	110.7867488861084	0.10007596015930176
16	88.03278684616089	fix_pre	0		120	14.0	2.5	blank	1.0	110.8868248462677	0.9995579719543457
16	88.21620893478394	pulse	0	t		14.0	2.5	blank	1.0	111.07024693489075	
16	89.03234481811523	movie	1		300	14.0	2.5	blank	1.0	111.88638281822205	2.500432014465332
16	89.81618094444275	pulse	1	t		14.0	2.5	blank	1.0	112.67021894454956	
16	91.41618800163269	pulse	1	t		14.0	2.5	blank	1.0	114.2702260017395	
16	91.53277683258057	fix_post	2		12	14.0	2.5	blank	1.0	114.38681483268738	0.09994912147521973
17	91.63272595405579	fix_pre	0		120	15.0	2.5	/experiments/AOT/AOT_stimuli/rescaled_final/0322_rv.mp4	0.0	114.4867639541626	1.0000920295715332
17	92.63281798362732	movie	1		246	15.0	2.5	/experiments/AOT/AOT_stimuli/rescaled_final/0322_rv.mp4	0.0	115.48685598373413	2.5000009536743164
17	93.01578688621521	pulse	1	t		15.0	2.5	/experiments/AOT/AOT_stimuli/rescaled_final/0322_rv.mp4	0.0	115.86982488632202	
17	94.61609292030334	pulse	1	t		15.0	2.5	/experiments/AOT/AOT_stimuli/rescaled_final/0322_rv.mp4	0.0	117.47013092041016	
17	95.13281893730164	fix_post	2		12	15.0	2.5	/experiments/AOT/AOT_stimuli/rescaled_final/0322_rv.mp4	0.0	117.98685693740845	0.09993505477905273
18	95.23275399208069	fix_pre	0		119	16.0	2.5	/experiments/AOT/AOT_stimuli/rescaled_final/0571_rv.mp4	0.0	118.0867919921875	0.9916038513183594
18	96.21621799468994	pulse	0	t		16.0	2.5	/experiments/AOT/AOT_stimuli/rescaled_final/0571_rv.mp4	0.0	119.07025599479675	
18	96.22435784339905	movie	1		247	16.0	2.5	/experiments/AOT/AOT_stimuli/rescaled_final/0571_rv.mp4	0.0	119.07839584350586	2.508397102355957
18	97.8159248828888	pulse	1	t		16.0	2.5	/experiments/AOT/AOT_stimuli/rescaled_final/0571_rv.mp4	0.0	120.6699628829956	
18	98.732754945755	fix_post	2		12	16.0	2.5	/experiments/AOT/AOT_stimuli/rescaled_final/0571_rv.mp4	0.0	121.58679294586182	0.10001397132873535
19	98.83276891708374	fix_pre	0		120	17.0	2.5	/experiments/AOT/AOT_stimuli/rescaled_final/0057_rv.mp4	0.0	121.68680691719055	1.0000388622283936
19	99.41627597808838	pulse	0	t		17.0	2.5	/experiments/AOT/AOT_stimuli/rescaled_final/0057_rv.mp4	0.0	122.27031397819519	
19	99.83280777931213	movie	1		248	17.0	2.5	/experiments/AOT/AOT_stimuli/rescaled_final/0057_rv.mp4	0.0	122.68684577941895	2.499993085861206
19	101.01632690429688	pulse	1	t		17.0	2.5	/experiments/AOT/AOT_stimuli/rescaled_final/0057_rv.mp4	0.0	123.87036490440369	
19	102.33280086517334	fix_post	2		12	17.0	2.5	/experiments/AOT/AOT_stimuli/rescaled_final/0057_rv.mp4	0.0	125.18683886528015	0.09996509552001953
20	102.43276596069336	fix_pre	0		120	18.0	2.5	/experiments/AOT/AOT_stimuli/rescaled_final/1070_rv.mp4	0.0	125.28680396080017	0.9999659061431885
20	102.61621499061584	pulse	0	t		18.0	2.5	/experiments/AOT/AOT_stimuli/rescaled_final/1070_rv.mp4	0.0	125.47025299072266	
20	103.43273186683655	movie	1		245	18.0	2.5	/experiments/AOT/AOT_stimuli/rescaled_final/1070_rv.mp4	0.0	126.28676986694336	2.499640941619873
20	104.21621179580688	pulse	1	t		18.0	2.5	/experiments/AOT/AOT_stimuli/rescaled_final/1070_rv.mp4	0.0	127.0702497959137	
20	105.81475186347961	pulse	1	t		18.0	2.5	/experiments/AOT/AOT_stimuli/rescaled_final/1070_rv.mp4	0.0	128.66878986358643	
20	105.93237280845642	fix_post	2		12	18.0	2.5	/experiments/AOT/AOT_stimuli/rescaled_final/1070_rv.mp4	0.0	128.78641080856323	0.1003880500793457
21	106.03276085853577	fix_pre	0		120	19.0	2.5	/experiments/AOT/AOT_stimuli/rescaled_final/1438_rv.mp4	0.0	128.88679885864258	0.9999339580535889
21	107.03269481658936	movie	1		245	19.0	2.5	/experiments/AOT/AOT_stimuli/rescaled_final/1438_rv.mp4	0.0	129.88673281669617	2.500054121017456
21	107.41574788093567	pulse	1	t		19.0	2.5	/experiments/AOT/AOT_stimuli/rescaled_final/1438_rv.mp4	0.0	130.26978588104248	
21	109.01628494262695	pulse	1	t		19.0	2.5	/experiments/AOT/AOT_stimuli/rescaled_final/1438_rv.mp4	0.0	131.87032294273376	
21	109.53274893760681	fix_post	2		12	19.0	2.5	/experiments/AOT/AOT_stimuli/rescaled_final/1438_rv.mp4	0.0	132.38678693771362	0.09996294975280762
22	109.63271188735962	fix_pre	0		119	20.0	2.5	blank	1.0	132.48674988746643	0.9915831089019775
22	110.61614179611206	pulse	0	t		20.0	2.5	blank	1.0	133.47017979621887	
22	110.6242949962616	movie	1		301	20.0	2.5	blank	1.0	133.4783329963684	2.5083680152893066
22	112.21611785888672	pulse	1	t		20.0	2.5	blank	1.0	135.07015585899353	
22	113.1326630115509	fix_post	2		12	20.0	2.5	blank	1.0	135.98670101165771	0.10003185272216797
23	113.23269486427307	fix_pre	0		120	21.0	2.5	/experiments/AOT/AOT_stimuli/rescaled_final/1320_rv.mp4	0.0	136.08673286437988	0.9999561309814453
23	113.81619787216187	pulse	0	t		21.0	2.5	/experiments/AOT/AOT_stimuli/rescaled_final/1320_rv.mp4	0.0	136.67023587226868	
23	114.23265099525452	movie	1		246	21.0	2.5	/experiments/AOT/AOT_stimuli/rescaled_final/1320_rv.mp4	0.0	137.08668899536133	2.4999430179595947
23	115.41626691818237	pulse	1	t		21.0	2.5	/experiments/AOT/AOT_stimuli/rescaled_final/1320_rv.mp4	0.0	138.27030491828918	
23	116.73259401321411	fix_post	2		12	21.0	2.5	/experiments/AOT/AOT_stimuli/rescaled_final/1320_rv.mp4	0.0	139.58663201332092	0.10003495216369629
24	116.83262896537781	fix_pre	0		120	22.0	2.5	/experiments/AOT/AOT_stimuli/rescaled_final/1474_fw.mp4	0.0	139.68666696548462	0.9999949932098389
24	117.01614189147949	pulse	0	t		22.0	2.5	/experiments/AOT/AOT_stimuli/rescaled_final/1474_fw.mp4	0.0	139.8701798915863	
24	117.83262395858765	movie	1		244	22.0	2.5	/experiments/AOT/AOT_stimuli/rescaled_final/1474_fw.mp4	0.0	140.68666195869446	2.5000698566436768
24	118.61614084243774	pulse	1	t		22.0	2.5	/experiments/AOT/AOT_stimuli/rescaled_final/1474_fw.mp4	0.0	141.47017884254456	
24	120.21616983413696	pulse	1	t		22.0	2.5	/experiments/AOT/AOT_stimuli/rescaled_final/1474_fw.mp4	0.0	143.07020783424377	
24	120.33269381523132	fix_post	2		12	22.0	2.5	/experiments/AOT/AOT_stimuli/rescaled_final/1474_fw.mp4	0.0	143.18673181533813	0.09999513626098633
25	120.43268895149231	fix_pre	0		120	23.0	2.5	/experiments/AOT/AOT_stimuli/rescaled_final/1151_rv.mp4	0.0	143.28672695159912	0.9999418258666992
25	121.43263077735901	movie	1		244	23.0	2.5	/experiments/AOT/AOT_stimuli/rescaled_final/1151_rv.mp4	0.0	144.28666877746582	2.4995861053466797
25	121.81549787521362	pulse	1	t		23.0	2.5	/experiments/AOT/AOT_stimuli/rescaled_final/1151_rv.mp4	0.0	144.66953587532043	
25	123.41608381271362	pulse	1	t		23.0	2.5	/experiments/AOT/AOT_stimuli/rescaled_final/1151_rv.mp4	0.0	146.27012181282043	
25	123.93221688270569	fix_post	2		12	23.0	2.5	/experiments/AOT/AOT_stimuli/rescaled_final/1151_rv.mp4	0.0	146.7862548828125	0.10045909881591797
26	124.0326759815216	fix_pre	0		119	24.0	2.5	/experiments/AOT/AOT_stimuli/rescaled_final/1109_fw.mp4	0.0	146.88671398162842	0.9916589260101318
26	125.0161349773407	pulse	0	t		24.0	2.5	/experiments/AOT/AOT_stimuli/rescaled_final/1109_fw.mp4	0.0	147.8701729774475	
26	125.02433490753174	movie	1		245	24.0	2.5	/experiments/AOT/AOT_stimuli/rescaled_final/1109_fw.mp4	0.0	147.87837290763855	2.508342981338501
26	126.61616086959839	pulse	1	t		24.0	2.5	/experiments/AOT/AOT_stimuli/rescaled_final/1109_fw.mp4	0.0	149.4701988697052	
26	127.53267788887024	fix_post	2		12	24.0	2.5	/experiments/AOT/AOT_stimuli/rescaled_final/1109_fw.mp4	0.0	150.38671588897705	0.10005593299865723
27	127.6327338218689	fix_pre	0		120	25.0	2.5	/experiments/AOT/AOT_stimuli/rescaled_final/0032_fw.mp4	0.0	150.4867718219757	1.0000760555267334
27	128.2160358428955	pulse	0	t		25.0	2.5	/experiments/AOT/AOT_stimuli/rescaled_final/0032_fw.mp4	0.0	151.07007384300232	
27	128.63280987739563	movie	1		246	25.0	2.5	/experiments/AOT/AOT_stimuli/rescaled_final/0032_fw.mp4	0.0	151.48684787750244	2.499453067779541
27	129.81609892845154	pulse	1	t		25.0	2.5	/experiments/AOT/AOT_stimuli/rescaled_final/0032_fw.mp4	0.0	152.67013692855835	
27	131.13226294517517	fix_post	2		12	25.0	2.5	/experiments/AOT/AOT_stimuli/rescaled_final/0032_fw.mp4	0.0	153.98630094528198	0.10006904602050781
28	131.23233199119568	fix_pre	0		120	26.0	2.5	/experiments/AOT/AOT_stimuli/rescaled_final/1318_rv.mp4	0.0	154.0863699913025	1.0001249313354492
28	131.41628789901733	pulse	0	t		26.0	2.5	/experiments/AOT/AOT_stimuli/rescaled_final/1318_rv.mp4	0.0	154.27032589912415	
28	132.23245692253113	movie	1		244	26.0	2.5	/experiments/AOT/AOT_stimuli/rescaled_final/1318_rv.mp4	0.0	155.08649492263794	2.5000970363616943
28	133.01618885993958	pulse	1	t		26.0	2.5	/experiments/AOT/AOT_stimuli/rescaled_final/1318_rv.mp4	0.0	155.8702268600464	
28	134.61449790000916	pulse	1	t		26.0	2.5	/experiments/AOT/AOT_stimuli/rescaled_final/1318_rv.mp4	0.0	157.46853590011597	
28	134.73255395889282	fix_post	2		12	26.0	2.5	/experiments/AOT/AOT_stimuli/rescaled_final/1318_rv.mp4	0.0	157.58659195899963	0.10003900527954102
29	134.83259296417236	fix_pre	0		120	27.0	2.5	blank	1.0	157.68663096427917	1.0000019073486328
29	135.832594871521	movie	1		300	27.0	2.5	blank	1.0	158.6866328716278	2.499936103820801
29	136.2160189151764	pulse	1	t		27.0	2.5	blank	1.0	159.0700569152832	
29	137.81599187850952	pulse	1	t		27.0	2.5	blank	1.0	160.67002987861633	
29	138.3325309753418	fix_post	2		12	27.0	2.5	blank	1.0	161.1865689754486	0.10008788108825684
30	138.43261885643005	fix_pre	0		119	28.0	2.5	/experiments/AOT/AOT_stimuli/rescaled_final/0507_rv.mp4	0.0	161.28665685653687	0.9916081428527832
30	139.41600584983826	pulse	0	t		28.0	2.5	/experiments/AOT/AOT_stimuli/rescaled_final/0507_rv.mp4	0.0	162.27004384994507	
30	139.42422699928284	movie	1		245	28.0	2.5	/experiments/AOT/AOT_stimuli/rescaled_final/0507_rv.mp4	0.0	162.27826499938965	2.5082528591156006
30	141.01629281044006	pulse	1	t		28.0	2.5	/experiments/AOT/AOT_stimuli/rescaled_final/0507_rv.mp4	0.0	163.87033081054688	
30	141.93247985839844	fix_post	2		12	28.0	2.5	/experiments/AOT/AOT_stimuli/rescaled_final/0507_rv.mp4	0.0	164.78651785850525	0.10000205039978027
31	142.03248190879822	fix_pre	0		120	29.0	2.5	/experiments/AOT/AOT_stimuli/rescaled_final/0659_fw.mp4	0.0	164.88651990890503	1.0000360012054443
31	142.61605596542358	pulse	0	t		29.0	2.5	/experiments/AOT/AOT_stimuli/rescaled_final/0659_fw.mp4	0.0	165.4700939655304	
31	143.03251791000366	movie	1		245	29.0	2.5	/experiments/AOT/AOT_stimuli/rescaled_final/0659_fw.mp4	0.0	165.88655591011047	2.4999470710754395
31	144.21605896949768	pulse	1	t		29.0	2.5	/experiments/AOT/AOT_stimuli/rescaled_final/0659_fw.mp4	0.0	167.0700969696045	
31	145.5324649810791	fix_post	2		12	29.0	2.5	/experiments/AOT/AOT_stimuli/rescaled_final/0659_fw.mp4	0.0	168.3865029811859	0.10001397132873535
32	145.63247895240784	fix_pre	0		120	30.0	2.5	/experiments/AOT/AOT_stimuli/rescaled_final/2092_rv.mp4	0.0	168.48651695251465	1.0000548362731934
32	145.815988779068	pulse	0	t		30.0	2.5	/experiments/AOT/AOT_stimuli/rescaled_final/2092_rv.mp4	0.0	168.6700267791748	
32	146.63253378868103	movie	1		245	30.0	2.5	/experiments/AOT/AOT_stimuli/rescaled_final/2092_rv.mp4	0.0	169.48657178878784	2.499918222427368
32	147.41597700119019	pulse	1	t		30.0	2.5	/experiments/AOT/AOT_stimuli/rescaled_final/2092_rv.mp4	0.0	170.270015001297	
32	149.01593399047852	pulse	1	t		30.0	2.5	/experiments/AOT/AOT_stimuli/rescaled_final/2092_rv.mp4	0.0	171.86997199058533	
32	149.1324520111084	fix_post	2		12	30.0	2.5	/experiments/AOT/AOT_stimuli/rescaled_final/2092_rv.mp4	0.0	171.9864900112152	0.09999990463256836
33	149.23245191574097	fix_pre	0		120	31.0	2.5	/experiments/AOT/AOT_stimuli/rescaled_final/1572_fw.mp4	0.0	172.08648991584778	1.000096082687378
33	150.23254799842834	movie	1		244	31.0	2.5	/experiments/AOT/AOT_stimuli/rescaled_final/1572_fw.mp4	0.0	173.08658599853516	2.4998538494110107
33	150.615966796875	pulse	1	t		31.0	2.5	/experiments/AOT/AOT_stimuli/rescaled_final/1572_fw.mp4	0.0	173.4700047969818	
33	152.2159857749939	pulse	1	t		31.0	2.5	/experiments/AOT/AOT_stimuli/rescaled_final/1572_fw.mp4	0.0	175.0700237751007	
33	152.73240184783936	fix_post	2		12	31.0	2.5	/experiments/AOT/AOT_stimuli/rescaled_final/1572_fw.mp4	0.0	175.58643984794617	0.10007596015930176
34	152.83247780799866	fix_pre	0		119	32.0	2.5	/experiments/AOT/AOT_stimuli/rescaled_final/0253_fw.mp4	0.0	175.68651580810547	0.9916470050811768
34	153.81594800949097	pulse	0	t		32.0	2.5	/experiments/AOT/AOT_stimuli/rescaled_final/0253_fw.mp4	0.0	176.66998600959778	
34	153.82412481307983	movie	1		247	32.0	2.5	/experiments/AOT/AOT_stimuli/rescaled_final/0253_fw.mp4	0.0	176.67816281318665	2.5083820819854736
34	155.41747784614563	pulse	1	t		32.0	2.5	/experiments/AOT/AOT_stimuli/rescaled_final/0253_fw.mp4	0.0	178.27151584625244	
34	156.3325068950653	fix_post	2		12	32.0	2.5	/experiments/AOT/AOT_stimuli/rescaled_final/0253_fw.mp4	0.0	179.18654489517212	0.09999990463256836
35	156.43250679969788	fix_pre	0		120	33.0	2.5	/experiments/AOT/AOT_stimuli/rescaled_final/0643_rv.mp4	0.0	179.2865447998047	0.9999680519104004
35	157.015939950943	pulse	0	t		33.0	2.5	/experiments/AOT/AOT_stimuli/rescaled_final/0643_rv.mp4	0.0	179.8699779510498	
35	157.43247485160828	movie	1		244	33.0	2.5	/experiments/AOT/AOT_stimuli/rescaled_final/0643_rv.mp4	0.0	180.2865128517151	2.4999160766601562
35	158.61601090431213	pulse	1	t		33.0	2.5	/experiments/AOT/AOT_stimuli/rescaled_final/0643_rv.mp4	0.0	181.47004890441895	
35	159.93239092826843	fix_post	2		12	33.0	2.5	/experiments/AOT/AOT_stimuli/rescaled_final/0643_rv.mp4	0.0	182.78642892837524	0.10005688667297363
36	160.0324478149414	fix_pre	0		120	34.0	2.5	blank	1.0	182.88648581504822	1.0000190734863281
36	160.21588683128357	pulse	0	t		34.0	2.5	blank	1.0	183.06992483139038	
36	161.03246688842773	movie	1		300	34.0	2.5	blank	1.0	183.88650488853455	2.500067949295044
36	161.81593585014343	pulse	1	t		34.0	2.5	blank	1.0	184.66997385025024	
36	163.41589188575745	pulse	1	t		34.0	2.5	blank	1.0	186.26992988586426	
36	163.53253483772278	fix_post	2		12	34.0	2.5	blank	1.0	186.3865728378296	0.09991002082824707
37	163.63244485855103	fix_pre	0		120	35.0	2.5	/experiments/AOT/AOT_stimuli/rescaled_final/0039_fw.mp4	0.0	186.48648285865784	1.0000309944152832
37	164.6324758529663	movie	1		250	35.0	2.5	/experiments/AOT/AOT_stimuli/rescaled_final/0039_fw.mp4	0.0	187.48651385307312	2.4999310970306396
37	165.01600980758667	pulse	1	t		35.0	2.5	/experiments/AOT/AOT_stimuli/rescaled_final/0039_fw.mp4	0.0	187.87004780769348	
37	166.61585593223572	pulse	1	t		35.0	2.5	/experiments/AOT/AOT_stimuli/rescaled_final/0039_fw.mp4	0.0	189.46989393234253	
37	167.13240694999695	fix_post	2		12	35.0	2.5	/experiments/AOT/AOT_stimuli/rescaled_final/0039_fw.mp4	0.0	189.98644495010376	0.09993505477905273
38	167.232342004776	fix_pre	0		119	36.0	2.5	/experiments/AOT/AOT_stimuli/rescaled_final/0707_fw.mp4	0.0	190.0863800048828	0.9918098449707031
38	168.21589279174805	pulse	0	t		36.0	2.5	/experiments/AOT/AOT_stimuli/rescaled_final/0707_fw.mp4	0.0	191.06993079185486	
38	168.2241518497467	movie	1		248	36.0	2.5	/experiments/AOT/AOT_stimuli/rescaled_final/0707_fw.mp4	0.0	191.07818984985352	2.5082919597625732
38	169.81538891792297	pulse	1	t		36.0	2.5	/experiments/AOT/AOT_stimuli/rescaled_final/0707_fw.mp4	0.0	192.66942691802979	
38	170.73244380950928	fix_post	2		12	36.0	2.5	/experiments/AOT/AOT_stimuli/rescaled_final/0707_fw.mp4	0.0	193.5864818096161	0.09992098808288574
39	170.83236479759216	fix_pre	0		120	37.0	2.5	/experiments/AOT/AOT_stimuli/rescaled_final/1038_fw.mp4	0.0	193.68640279769897	0.9999771118164062
39	171.4158968925476	pulse	0	t		37.0	2.5	/experiments/AOT/AOT_stimuli/rescaled_final/1038_fw.mp4	0.0	194.26993489265442	
39	171.83234190940857	movie	1		245	37.0	2.5	/experiments/AOT/AOT_stimuli/rescaled_final/1038_fw.mp4	0.0	194.68637990951538	2.500019073486328
39	173.01596188545227	pulse	1	t		37.0	2.5	/experiments/AOT/AOT_stimuli/rescaled_final/1038_fw.mp4	0.0	195.86999988555908	
39	174.3323609828949	fix_post	2		12	37.0	2.5	/experiments/AOT/AOT_stimuli/rescaled_final/1038_fw.mp4	0.0	197.1863989830017	0.09993886947631836
40	174.43229985237122	fix_pre	0		120	38.0	2.5	/experiments/AOT/AOT_stimuli/rescaled_final/1741_rv.mp4	0.0	197.28633785247803	1.0001559257507324
40	174.6159279346466	pulse	0	t		38.0	2.5	/experiments/AOT/AOT_stimuli/rescaled_final/1741_rv.mp4	0.0	197.46996593475342	
40	175.43245577812195	movie	1		245	38.0	2.5	/experiments/AOT/AOT_stimuli/rescaled_final/1741_rv.mp4	0.0	198.28649377822876	2.4999570846557617
40	176.21590399742126	pulse	1	t		38.0	2.5	/experiments/AOT/AOT_stimuli/rescaled_final/1741_rv.mp4	0.0	199.06994199752808	
40	177.81430888175964	pulse	1	t		38.0	2.5	/experiments/AOT/AOT_stimuli/rescaled_final/1741_rv.mp4	0.0	200.66834688186646	
40	177.9324128627777	fix_post	2		12	38.0	2.5	/experiments/AOT/AOT_stimuli/rescaled_final/1741_rv.mp4	0.0	200.78645086288452	0.09996294975280762
41	178.03237581253052	fix_pre	0		120	39.0	2.5	/experiments/AOT/AOT_stimuli/rescaled_final/2106_rv.mp4	0.0	200.88641381263733	0.9999639987945557
41	179.03233981132507	movie	1		245	39.0	2.5	/experiments/AOT/AOT_stimuli/rescaled_final/2106_rv.mp4	0.0	201.88637781143188	2.4999899864196777
41	179.41613578796387	pulse	1	t		39.0	2.5	/experiments/AOT/AOT_stimuli/rescaled_final/2106_rv.mp4	0.0	202.27017378807068	
41	181.01586890220642	pulse	1	t		39.0	2.5	/experiments/AOT/AOT_stimuli/rescaled_final/2106_rv.mp4	0.0	203.86990690231323	
41	181.53232979774475	fix_post	2		12	39.0	2.5	/experiments/AOT/AOT_stimuli/rescaled_final/2106_rv.mp4	0.0	204.38636779785156	0.10000801086425781
42	181.632337808609	fix_pre	0		119	40.0	2.5	/experiments/AOT/AOT_stimuli/rescaled_final/0518_fw.mp4	0.0	204.48637580871582	0.9916160106658936
42	182.61576294898987	pulse	0	t		40.0	2.5	/experiments/AOT/AOT_stimuli/rescaled_final/0518_fw.mp4	0.0	205.46980094909668	
42	182.6239538192749	movie	1		246	40.0	2.5	/experiments/AOT/AOT_stimuli/rescaled_final/0518_fw.mp4	0.0	205.4779918193817	2.507944107055664
42	184.2156319618225	pulse	1	t		40.0	2.5	/experiments/AOT/AOT_stimuli/rescaled_final/0518_fw.mp4	0.0	207.06966996192932	
42	185.13189792633057	fix_post	2		12	40.0	2.5	/experiments/AOT/AOT_stimuli/rescaled_final/0518_fw.mp4	0.0	207.98593592643738	0.10015106201171875
43	185.23204898834229	fix_pre	0		120	41.0	2.5	/experiments/AOT/AOT_stimuli/rescaled_final/1572_rv.mp4	0.0	208.0860869884491	0.999910831451416
43	185.8154628276825	pulse	0	t		41.0	2.5	/experiments/AOT/AOT_stimuli/rescaled_final/1572_rv.mp4	0.0	208.6695008277893	
43	186.2319598197937	movie	1		247	41.0	2.5	/experiments/AOT/AOT_stimuli/rescaled_final/1572_rv.mp4	0.0	209.0859978199005	2.500333070755005
43	187.41599678993225	pulse	1	t		41.0	2.5	/experiments/AOT/AOT_stimuli/rescaled_final/1572_rv.mp4	0.0	210.27003479003906	
43	188.7322928905487	fix_post	2		12	41.0	2.5	/experiments/AOT/AOT_stimuli/rescaled_final/1572_rv.mp4	0.0	211.58633089065552	0.09997391700744629
44	188.83226680755615	fix_pre	0		120	42.0	2.5	blank	1.0	211.68630480766296	1.0000081062316895
44	189.0158247947693	pulse	0	t		42.0	2.5	blank	1.0	211.8698627948761	
44	189.83227491378784	movie	1		300	42.0	2.5	blank	1.0	212.68631291389465	2.500016927719116
44	190.6158308982849	pulse	1	t		42.0	2.5	blank	1.0	213.46986889839172	
44	192.2157928943634	pulse	1	t		42.0	2.5	blank	1.0	215.06983089447021	
44	192.33229184150696	fix_post	2		12	42.0	2.5	blank	1.0	215.18632984161377	0.09995412826538086
45	192.43224596977234	fix_pre	0		120	43.0	2.5	/experiments/AOT/AOT_stimuli/rescaled_final/1994_rv.mp4	0.0	215.28628396987915	1.0000698566436768
45	193.43231582641602	movie	1		245	43.0	2.5	/experiments/AOT/AOT_stimuli/rescaled_final/1994_rv.mp4	0.0	216.28635382652283	2.4999430179595947
45	193.81527495384216	pulse	1	t		43.0	2.5	/experiments/AOT/AOT_stimuli/rescaled_final/1994_rv.mp4	0.0	216.66931295394897	
45	195.41569685935974	pulse	1	t		43.0	2.5	/experiments/AOT/AOT_stimuli/rescaled_final/1994_rv.mp4	0.0	218.26973485946655	
45	195.9322588443756	fix_post	2		12	43.0	2.5	/experiments/AOT/AOT_stimuli/rescaled_final/1994_rv.mp4	0.0	218.78629684448242	0.1000831127166748
46	196.03234195709229	fix_pre	0		119	44.0	2.5	/experiments/AOT/AOT_stimuli/rescaled_final/0323_rv.mp4	0.0	218.8863799571991	0.9915308952331543
46	197.01577591896057	pulse	0	t		44.0	2.5	/experiments/AOT/AOT_stimuli/rescaled_final/0323_rv.mp4	0.0	219.86981391906738	
46	197.02387285232544	movie	1		246	44.0	2.5	/experiments/AOT/AOT_stimuli/rescaled_final/0323_rv.mp4	0.0	219.87791085243225	2.508410930633545
46	198.61513495445251	pulse	1	t		44.0	2.5	/experiments/AOT/AOT_stimuli/rescaled_final/0323_rv.mp4	0.0	221.46917295455933	
46	199.53228378295898	fix_post	2		12	44.0	2.5	/experiments/AOT/AOT_stimuli/rescaled_final/0323_rv.mp4	0.0	222.3863217830658	0.09994101524353027
47	199.63222479820251	fix_pre	0		120	45.0	2.5	/experiments/AOT/AOT_stimuli/rescaled_final/0988_rv.mp4	0.0	222.48626279830933	0.999549150466919
47	200.2157289981842	pulse	0	t		45.0	2.5	/experiments/AOT/AOT_stimuli/rescaled_final/0988_rv.mp4	0.0	223.06976699829102	
47	200.63177394866943	movie	1		244	45.0	2.5	/experiments/AOT/AOT_stimuli/rescaled_final/0988_rv.mp4	0.0	223.48581194877625	2.5004310607910156
47	201.81583499908447	pulse	1	t		45.0	2.5	/experiments/AOT/AOT_stimuli/rescaled_final/0988_rv.mp4	0.0	224.66987299919128	
47	203.13220500946045	fix_post	2		12	45.0	2.5	/experiments/AOT/AOT_stimuli/rescaled_final/0988_rv.mp4	0.0	225.98624300956726	0.09995794296264648
48	203.2321629524231	fix_pre	0		120	46.0	2.5	/experiments/AOT/AOT_stimuli/rescaled_final/1792_fw.mp4	0.0	226.0862009525299	1.0001189708709717
48	203.41573190689087	pulse	0	t		46.0	2.5	/experiments/AOT/AOT_stimuli/rescaled_final/1792_fw.mp4	0.0	226.26976990699768	
48	204.23228192329407	movie	1		245	46.0	2.5	/experiments/AOT/AOT_stimuli/rescaled_final/1792_fw.mp4	0.0	227.08631992340088	2.499983072280884
48	205.01569890975952	pulse	1	t		46.0	2.5	/experiments/AOT/AOT_stimuli/rescaled_final/1792_fw.mp4	0.0	227.86973690986633	
48	206.61572098731995	pulse	1	t		46.0	2.5	/experiments/AOT/AOT_stimuli/rescaled_final/1792_fw.mp4	0.0	229.46975898742676	
48	206.73226499557495	fix_post	2		12	46.0	2.5	/experiments/AOT/AOT_stimuli/rescaled_final/1792_fw.mp4	0.0	229.58630299568176	0.09992599487304688
49	206.832190990448	fix_pre	0		120	47.0	2.5	/experiments/AOT/AOT_stimuli/rescaled_final/0614_fw.mp4	0.0	229.6862289905548	1.000018835067749
49	207.83220982551575	movie	1		247	47.0	2.5	/experiments/AOT/AOT_stimuli/rescaled_final/0614_fw.mp4	0.0	230.68624782562256	2.4999780654907227
49	208.21658086776733	pulse	1	t		47.0	2.5	/experiments/AOT/AOT_stimuli/rescaled_final/0614_fw.mp4	0.0	231.07061886787415	
49	209.81565880775452	pulse	1	t		47.0	2.5	/experiments/AOT/AOT_stimuli/rescaled_final/0614_fw.mp4	0.0	232.66969680786133	
49	210.33218789100647	fix_post	2		12	47.0	2.5	/experiments/AOT/AOT_stimuli/rescaled_final/0614_fw.mp4	0.0	233.18622589111328	0.10002899169921875
50	210.4322168827057	fix_pre	0		119	48.0	2.5	blank	1.0	233.2862548828125	0.9916350841522217
50	211.41572380065918	pulse	0	t		48.0	2.5	blank	1.0	234.269761800766	
50	211.4238519668579	movie	1		301	48.0	2.5	blank	1.0	234.27788996696472	2.5082569122314453
50	213.01570987701416	pulse	1	t		48.0	2.5	blank	1.0	235.86974787712097	
50	213.93210887908936	fix_post	2		12	48.0	2.5	blank	1.0	236.78614687919617	0.10007691383361816
51	214.03218579292297	fix_pre	0		120	49.0	2.5	/experiments/AOT/AOT_stimuli/rescaled_final/1117_fw.mp4	0.0	236.88622379302979	1.0000081062316895
51	214.61563777923584	pulse	0	t		49.0	2.5	/experiments/AOT/AOT_stimuli/rescaled_final/1117_fw.mp4	0.0	237.46967577934265	
51	215.03219389915466	movie	1		244	49.0	2.5	/experiments/AOT/AOT_stimuli/rescaled_final/1117_fw.mp4	0.0	237.88623189926147	2.499937057495117
51	216.2156538963318	pulse	1	t		49.0	2.5	/experiments/AOT/AOT_stimuli/rescaled_final/1117_fw.mp4	0.0	239.0696918964386	
51	217.53213095664978	fix_post	2		12	49.0	2.5	/experiments/AOT/AOT_stimuli/rescaled_final/1117_fw.mp4	0.0	240.3861689567566	0.10011792182922363
52	217.632248878479	fix_pre	0		120	50.0	2.5	/experiments/AOT/AOT_stimuli/rescaled_final/1524_rv.mp4	0.0	240.48628687858582	0.999924898147583
52	217.81569695472717	pulse	0	t		50.0	2.5	/experiments/AOT/AOT_stimuli/rescaled_final/1524_rv.mp4	0.0	240.66973495483398	
52	218.6321737766266	movie	1		244	50.0	2.5	/experiments/AOT/AOT_stimuli/rescaled_final/1524_rv.mp4	0.0	241.4862117767334	2.500016212463379
52	219.41565680503845	pulse	1	t		50.0	2.5	/experiments/AOT/AOT_stimuli/rescaled_final/1524_rv.mp4	0.0	242.26969480514526	
52	221.01417684555054	pulse	1	t		50.0	2.5	/experiments/AOT/AOT_stimuli/rescaled_final/1524_rv.mp4	0.0	243.86821484565735	
52	221.13218998908997	fix_post	2		12	50.0	2.5	/experiments/AOT/AOT_stimuli/rescaled_final/1524_rv.mp4	0.0	243.98622798919678	0.09995198249816895
53	221.23214197158813	fix_pre	0		120	51.0	2.5	/experiments/AOT/AOT_stimuli/rescaled_final/0155_fw.mp4	0.0	244.08617997169495	0.9995849132537842
53	222.23172688484192	movie	1		243	51.0	2.5	/experiments/AOT/AOT_stimuli/rescaled_final/0155_fw.mp4	0.0	245.08576488494873	2.5004611015319824
53	222.61518096923828	pulse	1	t		51.0	2.5	/experiments/AOT/AOT_stimuli/rescaled_final/0155_fw.mp4	0.0	245.4692189693451	
53	224.21569681167603	pulse	1	t		51.0	2.5	/experiments/AOT/AOT_stimuli/rescaled_final/0155_fw.mp4	0.0	247.06973481178284	
53	224.7321879863739	fix_post	2		12	51.0	2.5	/experiments/AOT/AOT_stimuli/rescaled_final/0155_fw.mp4	0.0	247.5862259864807	0.09995079040527344
54	224.83213877677917	fix_pre	0		119	52.0	2.5	/experiments/AOT/AOT_stimuli/rescaled_final/0924_rv.mp4	0.0	247.686176776886	0.9916701316833496
54	225.815575838089	pulse	0	t		52.0	2.5	/experiments/AOT/AOT_stimuli/rescaled_final/0924_rv.mp4	0.0	248.6696138381958	
54	225.82380890846252	movie	1		246	52.0	2.5	/experiments/AOT/AOT_stimuli/rescaled_final/0924_rv.mp4	0.0	248.67784690856934	2.508316993713379
54	227.4155979156494	pulse	1	t		52.0	2.5	/experiments/AOT/AOT_stimuli/rescaled_final/0924_rv.mp4	0.0	250.26963591575623	
54	228.3321259021759	fix_post	2		12	52.0	2.5	/experiments/AOT/AOT_stimuli/rescaled_final/0924_rv.mp4	0.0	251.18616390228271	0.1000208854675293
55	228.43214678764343	fix_pre	0		120	53.0	2.5	/experiments/AOT/AOT_stimuli/rescaled_final/0835_fw.mp4	0.0	251.28618478775024	0.999852180480957
55	229.01562786102295	pulse	0	t		53.0	2.5	/experiments/AOT/AOT_stimuli/rescaled_final/0835_fw.mp4	0.0	251.86966586112976	
55	229.4319989681244	movie	1		245	53.0	2.5	/experiments/AOT/AOT_stimuli/rescaled_final/0835_fw.mp4	0.0	252.2860369682312	2.500037908554077
55	230.61557698249817	pulse	1	t		53.0	2.5	/experiments/AOT/AOT_stimuli/rescaled_final/0835_fw.mp4	0.0	253.46961498260498	
55	231.93203687667847	fix_post	2		12	53.0	2.5	/experiments/AOT/AOT_stimuli/rescaled_final/0835_fw.mp4	0.0	254.78607487678528	0.09999704360961914
56	232.0320339202881	fix_pre	0		120	54.0	2.5	blank	1.0	254.8860719203949	1.0000829696655273
56	232.2156047821045	pulse	0	t		54.0	2.5	blank	1.0	255.0696427822113	
56	233.0321168899536	movie	1		300	54.0	2.5	blank	1.0	255.88615489006042	2.499617099761963
56	233.81549382209778	pulse	1	t		54.0	2.5	blank	1.0	256.6695318222046	
56	235.4156048297882	pulse	1	t		54.0	2.5	blank	1.0	258.269642829895	
56	235.53173398971558	fix_post	2		12	54.0	2.5	blank	1.0	258.3857719898224	0.10037684440612793
57	235.6321108341217	fix_pre	0		120	55.0	2.5	/experiments/AOT/AOT_stimuli/rescaled_final/1572_rv.mp4	0.0	258.4861488342285	1.0000300407409668
57	236.63214087486267	movie	1		245	55.0	2.5	/experiments/AOT/AOT_stimuli/rescaled_final/1572_rv.mp4	0.0	259.4861788749695	2.4999799728393555
57	237.01537084579468	pulse	1	t		55.0	2.5	/experiments/AOT/AOT_stimuli/rescaled_final/1572_rv.mp4	0.0	259.8694088459015	
57	238.61561799049377	pulse	1	t		55.0	2.5	/experiments/AOT/AOT_stimuli/rescaled_final/1572_rv.mp4	0.0	261.4696559906006	
57	239.13212084770203	fix_post	2		12	55.0	2.5	/experiments/AOT/AOT_stimuli/rescaled_final/1572_rv.mp4	0.0	261.98615884780884	0.09991812705993652
58	239.23203897476196	fix_pre	0		119	56.0	2.5	/experiments/AOT/AOT_stimuli/rescaled_final/1050_fw.mp4	0.0	262.0860769748688	0.9916689395904541
58	240.21563482284546	pulse	0	t		56.0	2.5	/experiments/AOT/AOT_stimuli/rescaled_final/1050_fw.mp4	0.0	263.06967282295227	
58	240.22370791435242	movie	1		246	56.0	2.5	/experiments/AOT/AOT_stimuli/rescaled_final/1050_fw.mp4	0.0	263.07774591445923	2.5080149173736572
58	241.81622982025146	pulse	1	t		56.0	2.5	/experiments/AOT/AOT_stimuli/rescaled_final/1050_fw.mp4	0.0	264.6702678203583	
58	242.73172283172607	fix_post	2		12	56.0	2.5	/experiments/AOT/AOT_stimuli/rescaled_final/1050_fw.mp4	0.0	265.5857608318329	0.1000521183013916
59	242.83177495002747	fix_pre	0		120	57.0	2.5	/experiments/AOT/AOT_stimuli/rescaled_final/0879_fw.mp4	0.0	265.6858129501343	1.0001029968261719
59	243.4153528213501	pulse	0	t		57.0	2.5	/experiments/AOT/AOT_stimuli/rescaled_final/0879_fw.mp4	0.0	266.2693908214569	
59	243.83187794685364	movie	1		245	57.0	2.5	/experiments/AOT/AOT_stimuli/rescaled_final/0879_fw.mp4	0.0	266.68591594696045	2.500190019607544
59	245.0155508518219	pulse	1	t		57.0	2.5	/experiments/AOT/AOT_stimuli/rescaled_final/0879_fw.mp4	0.0	267.8695888519287	
59	246.33206796646118	fix_post	2		12	57.0	2.5	/experiments/AOT/AOT_stimuli/rescaled_final/0879_fw.mp4	0.0	269.186105966568	0.09994792938232422
60	246.4320158958435	fix_pre	0		120	58.0	2.5	/experiments/AOT/AOT_stimuli/rescaled_final/2092_fw.mp4	0.0	269.2860538959503	0.9996280670166016
60	246.61560893058777	pulse	0	t		58.0	2.5	/experiments/AOT/AOT_stimuli/rescaled_final/2092_fw.mp4	0.0	269.4696469306946	
60	247.4316439628601	movie	1		246	58.0	2.5	/experiments/AOT/AOT_stimuli/rescaled_final/2092_fw.mp4	0.0	270.2856819629669	2.5003340244293213
60	248.2155168056488	pulse	1	t		58.0	2.5	/experiments/AOT/AOT_stimuli/rescaled_final/2092_fw.mp4	0.0	271.0695548057556	
60	249.8151319026947	pulse	1	t		58.0	2.5	/experiments/AOT/AOT_stimuli/rescaled_final/2092_fw.mp4	0.0	272.6691699028015	
60	249.93197798728943	fix_post	2		12	58.0	2.5	/experiments/AOT/AOT_stimuli/rescaled_final/2092_fw.mp4	0.0	272.78601598739624	0.0999917984008789
61	250.0319697856903	fix_pre	0		120	59.0	2.5	/experiments/AOT/AOT_stimuli/rescaled_final/0990_fw.mp4	0.0	272.8860077857971	1.0000450611114502
61	251.03201484680176	movie	1		245	59.0	2.5	/experiments/AOT/AOT_stimuli/rescaled_final/0990_fw.mp4	0.0	273.88605284690857	2.4999029636383057
61	251.4157099723816	pulse	1	t		59.0	2.5	/experiments/AOT/AOT_stimuli/rescaled_final/0990_fw.mp4	0.0	274.2697479724884	
61	253.0154619216919	pulse	1	t		59.0	2.5	/experiments/AOT/AOT_stimuli/rescaled_final/0990_fw.mp4	0.0	275.8694999217987	
61	253.53191781044006	fix_post	2		12	59.0	2.5	/experiments/AOT/AOT_stimuli/rescaled_final/0990_fw.mp4	0.0	276.3859558105469	0.10006499290466309
62	253.63198280334473	fix_pre	0		119	60.0	2.5	/experiments/AOT/AOT_stimuli/rescaled_final/0131_fw.mp4	0.0	276.48602080345154	0.9916291236877441
62	254.61550879478455	pulse	0	t		60.0	2.5	/experiments/AOT/AOT_stimuli/rescaled_final/0131_fw.mp4	0.0	277.46954679489136	
62	254.62361192703247	movie	1		246	60.0	2.5	/experiments/AOT/AOT_stimuli/rescaled_final/0131_fw.mp4	0.0	277.4776499271393	2.5083019733428955
62	256.21554493904114	pulse	1	t		60.0	2.5	/experiments/AOT/AOT_stimuli/rescaled_final/0131_fw.mp4	0.0	279.06958293914795	
62	257.13191390037537	fix_post	2		12	60.0	2.5	/experiments/AOT/AOT_stimuli/rescaled_final/0131_fw.mp4	0.0	279.9859519004822	0.10001492500305176
63	257.2319288253784	fix_pre	0		120	61.0	2.5	/experiments/AOT/AOT_stimuli/rescaled_final/1814_rv.mp4	0.0	280.08596682548523	0.9999501705169678
63	257.81538701057434	pulse	0	t		61.0	2.5	/experiments/AOT/AOT_stimuli/rescaled_final/1814_rv.mp4	0.0	280.66942501068115	
63	258.2318789958954	movie	1		246	61.0	2.5	/experiments/AOT/AOT_stimuli/rescaled_final/1814_rv.mp4	0.0	281.0859169960022	2.500060796737671
63	259.4155809879303	pulse	1	t		61.0	2.5	/experiments/AOT/AOT_stimuli/rescaled_final/1814_rv.mp4	0.0	282.2696189880371	
63	260.73193979263306	fix_post	2		12	61.0	2.5	/experiments/AOT/AOT_stimuli/rescaled_final/1814_rv.mp4	0.0	283.58597779273987	0.09997320175170898
64	260.83191299438477	fix_pre	0		120	62.0	2.5	/experiments/AOT/AOT_stimuli/rescaled_final/1890_fw.mp4	0.0	283.6859509944916	1.0000689029693604
64	261.015499830246	pulse	0	t		62.0	2.5	/experiments/AOT/AOT_stimuli/rescaled_final/1890_fw.mp4	0.0	283.8695378303528	
64	261.8319818973541	movie	1		246	62.0	2.5	/experiments/AOT/AOT_stimuli/rescaled_final/1890_fw.mp4	0.0	284.68601989746094	2.4995479583740234
64	262.61541199684143	pulse	1	t		62.0	2.5	/experiments/AOT/AOT_stimuli/rescaled_final/1890_fw.mp4	0.0	285.46944999694824	
64	264.2157769203186	pulse	1	t		62.0	2.5	/experiments/AOT/AOT_stimuli/rescaled_final/1890_fw.mp4	0.0	287.0698149204254	
64	264.33152985572815	fix_post	2		12	62.0	2.5	/experiments/AOT/AOT_stimuli/rescaled_final/1890_fw.mp4	0.0	287.18556785583496	0.10037803649902344
65	264.4319078922272	fix_pre	0		120	63.0	2.5	blank	1.0	287.285945892334	1.000040054321289
65	265.43194794654846	movie	1		300	63.0	2.5	blank	1.0	288.2859859466553	2.4995639324188232
65	265.8153409957886	pulse	1	t		63.0	2.5	blank	1.0	288.6693789958954	
65	267.41535091400146	pulse	1	t		63.0	2.5	blank	1.0	290.2693889141083	
65	267.9315118789673	fix_post	2		12	63.0	2.5	blank	1.0	290.7855498790741	0.10035991668701172
66	268.0318717956543	fix_pre	0		119	64.0	2.5	/experiments/AOT/AOT_stimuli/rescaled_final/1103_fw.mp4	0.0	290.8859097957611	0.9917001724243164
66	269.0153908729553	pulse	0	t		64.0	2.5	/experiments/AOT/AOT_stimuli/rescaled_final/1103_fw.mp4	0.0	291.86942887306213	
66	269.0235719680786	movie	1		244	64.0	2.5	/experiments/AOT/AOT_stimuli/rescaled_final/1103_fw.mp4	0.0	291.8776099681854	2.5083978176116943
66	270.6150288581848	pulse	1	t		64.0	2.5	/experiments/AOT/AOT_stimuli/rescaled_final/1103_fw.mp4	0.0	293.4690668582916	
66	271.5319697856903	fix_post	2		12	64.0	2.5	/experiments/AOT/AOT_stimuli/rescaled_final/1103_fw.mp4	0.0	294.3860077857971	0.09989309310913086
67	271.63186287879944	fix_pre	0		120	65.0	2.5	/experiments/AOT/AOT_stimuli/rescaled_final/1134_rv.mp4	0.0	294.48590087890625	1.0000040531158447
67	272.21541380882263	pulse	0	t		65.0	2.5	/experiments/AOT/AOT_stimuli/rescaled_final/1134_rv.mp4	0.0	295.06945180892944	
67	272.6318669319153	movie	1		247	65.0	2.5	/experiments/AOT/AOT_stimuli/rescaled_final/1134_rv.mp4	0.0	295.4859049320221	2.4995429515838623
67	273.8153648376465	pulse	1	t		65.0	2.5	/experiments/AOT/AOT_stimuli/rescaled_final/1134_rv.mp4	0.0	296.6694028377533	
67	275.13140988349915	fix_post	2		12	65.0	2.5	/experiments/AOT/AOT_stimuli/rescaled_final/1134_rv.mp4	0.0	297.98544788360596	0.1005089282989502
68	275.2319188117981	fix_pre	0		120	66.0	2.5	/experiments/AOT/AOT_stimuli/rescaled_final/1368_rv.mp4	0.0	298.0859568119049	0.9998869895935059
68	275.4154098033905	pulse	0	t		66.0	2.5	/experiments/AOT/AOT_stimuli/rescaled_final/1368_rv.mp4	0.0	298.2694478034973	
68	276.2318058013916	movie	1		246	66.0	2.5	/experiments/AOT/AOT_stimuli/rescaled_final/1368_rv.mp4	0.0	299.0858438014984	2.5000460147857666
68	277.01545000076294	pulse	1	t		66.0	2.5	/experiments/AOT/AOT_stimuli/rescaled_final/1368_rv.mp4	0.0	299.86948800086975	
68	278.6141138076782	pulse	1	t		66.0	2.5	/experiments/AOT/AOT_stimuli/rescaled_final/1368_rv.mp4	0.0	301.46815180778503	
68	278.73185181617737	fix_post	2		12	66.0	2.5	/experiments/AOT/AOT_stimuli/rescaled_final/1368_rv.mp4	0.0	301.5858898162842	0.10006999969482422
69	278.8319218158722	fix_pre	0		120	67.0	2.5	/experiments/AOT/AOT_stimuli/rescaled_final/0047_fw.mp4	0.0	301.685959815979	0.9999260902404785
69	279.83184790611267	movie	1		245	67.0	2.5	/experiments/AOT/AOT_stimuli/rescaled_final/0047_fw.mp4	0.0	302.6858859062195	2.5000898838043213
69	280.2150559425354	pulse	1	t		67.0	2.5	/experiments/AOT/AOT_stimuli/rescaled_final/0047_fw.mp4	0.0	303.0690939426422	
69	281.8153898715973	pulse	1	t		67.0	2.5	/experiments/AOT/AOT_stimuli/rescaled_final/0047_fw.mp4	0.0	304.6694278717041	
69	282.331937789917	fix_post	2		12	67.0	2.5	/experiments/AOT/AOT_stimuli/rescaled_final/0047_fw.mp4	0.0	305.1859757900238	0.09992504119873047
70	282.4318628311157	fix_pre	0		119	68.0	2.5	blank	1.0	305.28590083122253	0.9917011260986328
70	283.41524291038513	pulse	0	t		68.0	2.5	blank	1.0	306.26928091049194	
70	283.42356395721436	movie	1		301	68.0	2.5	blank	1.0	306.27760195732117	2.5082619190216064
70	285.0153088569641	pulse	1	t		68.0	2.5	blank	1.0	307.8693468570709	
70	285.93182587623596	fix_post	2		12	68.0	2.5	blank	1.0	308.7858638763428	0.09998607635498047
71	286.03181195259094	fix_pre	0		120	69.0	2.5	/experiments/AOT/AOT_stimuli/rescaled_final/1417_rv.mp4	0.0	308.88584995269775	1.0000479221343994
71	286.61534881591797	pulse	0	t		69.0	2.5	/experiments/AOT/AOT_stimuli/rescaled_final/1417_rv.mp4	0.0	309.4693868160248	
71	287.03185987472534	movie	1		245	69.0	2.5	/experiments/AOT/AOT_stimuli/rescaled_final/1417_rv.mp4	0.0	309.88589787483215	2.4995229244232178
71	288.21535778045654	pulse	1	t		69.0	2.5	/experiments/AOT/AOT_stimuli/rescaled_final/1417_rv.mp4	0.0	311.06939578056335	
71	289.53138279914856	fix_post	2		12	69.0	2.5	/experiments/AOT/AOT_stimuli/rescaled_final/1417_rv.mp4	0.0	312.38542079925537	0.1004641056060791
72	289.63184690475464	fix_pre	0		120	70.0	2.5	/experiments/AOT/AOT_stimuli/rescaled_final/0352_fw.mp4	0.0	312.48588490486145	0.9999229907989502
72	289.8152959346771	pulse	0	t		70.0	2.5	/experiments/AOT/AOT_stimuli/rescaled_final/0352_fw.mp4	0.0	312.66933393478394	
72	290.6317698955536	movie	1		244	70.0	2.5	/experiments/AOT/AOT_stimuli/rescaled_final/0352_fw.mp4	0.0	313.4858078956604	2.500067949295044
72	291.4152989387512	pulse	1	t		70.0	2.5	/experiments/AOT/AOT_stimuli/rescaled_final/0352_fw.mp4	0.0	314.26933693885803	
72	293.0153880119324	pulse	1	t		70.0	2.5	/experiments/AOT/AOT_stimuli/rescaled_final/0352_fw.mp4	0.0	315.8694260120392	
72	293.13183784484863	fix_post	2		12	70.0	2.5	/experiments/AOT/AOT_stimuli/rescaled_final/0352_fw.mp4	0.0	315.98587584495544	0.1000361442565918
73	293.2318739891052	fix_pre	0		120	71.0	2.5	/experiments/AOT/AOT_stimuli/rescaled_final/2101_rv.mp4	0.0	316.08591198921204	0.9999399185180664
73	294.2318139076233	movie	1		247	71.0	2.5	/experiments/AOT/AOT_stimuli/rescaled_final/2101_rv.mp4	0.0	317.0858519077301	2.50006103515625
73	294.6145977973938	pulse	1	t		71.0	2.5	/experiments/AOT/AOT_stimuli/rescaled_final/2101_rv.mp4	0.0	317.4686357975006	
73	296.21481680870056	pulse	1	t		71.0	2.5	/experiments/AOT/AOT_stimuli/rescaled_final/2101_rv.mp4	0.0	319.0688548088074	
73	296.73187494277954	fix_post	2		12	71.0	2.5	/experiments/AOT/AOT_stimuli/rescaled_final/2101_rv.mp4	0.0	319.58591294288635	0.09990787506103516
74	296.8317828178406	fix_pre	0		119	72.0	2.5	/experiments/AOT/AOT_stimuli/rescaled_final/0926_rv.mp4	0.0	319.6858208179474	0.9912271499633789
74	297.8148019313812	pulse	0	t		72.0	2.5	/experiments/AOT/AOT_stimuli/rescaled_final/0926_rv.mp4	0.0	320.66883993148804	
74	297.82300996780396	movie	1		247	72.0	2.5	/experiments/AOT/AOT_stimuli/rescaled_final/0926_rv.mp4	0.0	320.67704796791077	2.5088019371032715
74	299.4148337841034	pulse	1	t		72.0	2.5	/experiments/AOT/AOT_stimuli/rescaled_final/0926_rv.mp4	0.0	322.2688717842102	
74	300.3318119049072	fix_post	2		12	72.0	2.5	/experiments/AOT/AOT_stimuli/rescaled_final/0926_rv.mp4	0.0	323.18584990501404	0.09995198249816895
75	300.4317638874054	fix_pre	0		120	73.0	2.5	/experiments/AOT/AOT_stimuli/rescaled_final/1890_rv.mp4	0.0	323.2858018875122	1.0000710487365723
75	301.0153818130493	pulse	0	t		73.0	2.5	/experiments/AOT/AOT_stimuli/rescaled_final/1890_rv.mp4	0.0	323.8694198131561	
75	301.43183493614197	movie	1		246	73.0	2.5	/experiments/AOT/AOT_stimuli/rescaled_final/1890_rv.mp4	0.0	324.2858729362488	2.499971866607666
75	302.61523485183716	pulse	1	t		73.0	2.5	/experiments/AOT/AOT_stimuli/rescaled_final/1890_rv.mp4	0.0	325.46927285194397	
75	303.93180680274963	fix_post	2		12	73.0	2.5	/experiments/AOT/AOT_stimuli/rescaled_final/1890_rv.mp4	0.0	326.78584480285645	0.09992098808288574
76	304.0317277908325	fix_pre	0		120	74.0	2.5	/experiments/AOT/AOT_stimuli/rescaled_final/0394_fw.mp4	0.0	326.88576579093933	0.9999790191650391
76	304.21525597572327	pulse	0	t		74.0	2.5	/experiments/AOT/AOT_stimuli/rescaled_final/0394_fw.mp4	0.0	327.0692939758301	
76	305.03170680999756	movie	1		245	74.0	2.5	/experiments/AOT/AOT_stimuli/rescaled_final/0394_fw.mp4	0.0	327.88574481010437	2.4999170303344727
76	305.815153837204	pulse	1	t		74.0	2.5	/experiments/AOT/AOT_stimuli/rescaled_final/0394_fw.mp4	0.0	328.6691918373108	
76	307.4137079715729	pulse	1	t		74.0	2.5	/experiments/AOT/AOT_stimuli/rescaled_final/0394_fw.mp4	0.0	330.2677459716797	
76	307.53162384033203	fix_post	2		12	74.0	2.5	/experiments/AOT/AOT_stimuli/rescaled_final/0394_fw.mp4	0.0	330.38566184043884	0.10003900527954102
77	307.6316628456116	fix_pre	0		120	75.0	2.5	/experiments/AOT/AOT_stimuli/rescaled_final/0377_rv.mp4	0.0	330.4857008457184	1.0000801086425781
77	308.63174295425415	movie	1		245	75.0	2.5	/experiments/AOT/AOT_stimuli/rescaled_final/0377_rv.mp4	0.0	331.48578095436096	2.49953293800354
77	309.0164020061493	pulse	1	t		75.0	2.5	/experiments/AOT/AOT_stimuli/rescaled_final/0377_rv.mp4	0.0	331.8704400062561	
77	310.61508083343506	pulse	1	t		75.0	2.5	/experiments/AOT/AOT_stimuli/rescaled_final/0377_rv.mp4	0.0	333.46911883354187	
77	311.1312758922577	fix_post	2		12	75.0	2.5	/experiments/AOT/AOT_stimuli/rescaled_final/0377_rv.mp4	0.0	333.9853138923645	0.10039901733398438
78	311.2316749095917	fix_pre	0		119	76.0	2.5	/experiments/AOT/AOT_stimuli/rescaled_final/0251_rv.mp4	0.0	334.0857129096985	0.9916050434112549
78	312.2151548862457	pulse	0	t		76.0	2.5	/experiments/AOT/AOT_stimuli/rescaled_final/0251_rv.mp4	0.0	335.06919288635254	
78	312.22327995300293	movie	1		245	76.0	2.5	/experiments/AOT/AOT_stimuli/rescaled_final/0251_rv.mp4	0.0	335.07731795310974	2.508359909057617
78	313.8149359226227	pulse	1	t		76.0	2.5	/experiments/AOT/AOT_stimuli/rescaled_final/0251_rv.mp4	0.0	336.6689739227295	
78	314.73163986206055	fix_post	2		12	76.0	2.5	/experiments/AOT/AOT_stimuli/rescaled_final/0251_rv.mp4	0.0	337.58567786216736	0.10002803802490234
79	314.83166790008545	fix_pre	0		120	77.0	2.5	blank	1.0	337.68570590019226	1.0000040531158447
79	315.41523599624634	pulse	0	t		77.0	2.5	blank	1.0	338.26927399635315	
79	315.8316719532013	movie	1		300	77.0	2.5	blank	1.0	338.6857099533081	2.500051975250244
79	317.0152130126953	pulse	1	t		77.0	2.5	blank	1.0	339.8692510128021	
79	318.33172392845154	fix_post	2		12	77.0	2.5	blank	1.0	341.18576192855835	0.09996485710144043
80	318.431688785553	fix_pre	0		120	78.0	2.5	/experiments/AOT/AOT_stimuli/rescaled_final/0860_fw.mp4	0.0	341.2857267856598	1.0000290870666504
80	318.61511492729187	pulse	0	t		78.0	2.5	/experiments/AOT/AOT_stimuli/rescaled_final/0860_fw.mp4	0.0	341.4691529273987	
80	319.43171787261963	movie	1		244	78.0	2.5	/experiments/AOT/AOT_stimuli/rescaled_final/0860_fw.mp4	0.0	342.28575587272644	2.4999239444732666
80	320.21514987945557	pulse	1	t		78.0	2.5	/experiments/AOT/AOT_stimuli/rescaled_final/0860_fw.mp4	0.0	343.0691878795624	
80	321.81519079208374	pulse	1	t		78.0	2.5	/experiments/AOT/AOT_stimuli/rescaled_final/0860_fw.mp4	0.0	344.66922879219055	
80	321.9316418170929	fix_post	2		12	78.0	2.5	/experiments/AOT/AOT_stimuli/rescaled_final/0860_fw.mp4	0.0	344.7856798171997	0.10000395774841309
81	322.0316457748413	fix_pre	0		120	79.0	2.5	/experiments/AOT/AOT_stimuli/rescaled_final/1390_fw.mp4	0.0	344.8856837749481	1.0001211166381836
81	323.0317668914795	movie	1		247	79.0	2.5	/experiments/AOT/AOT_stimuli/rescaled_final/1390_fw.mp4	0.0	345.8858048915863	2.499898910522461
81	323.41487884521484	pulse	1	t		79.0	2.5	/experiments/AOT/AOT_stimuli/rescaled_final/1390_fw.mp4	0.0	346.26891684532166	
81	325.0151147842407	pulse	1	t		79.0	2.5	/experiments/AOT/AOT_stimuli/rescaled_final/1390_fw.mp4	0.0	347.86915278434753	
81	325.53166580200195	fix_post	2		12	79.0	2.5	/experiments/AOT/AOT_stimuli/rescaled_final/1390_fw.mp4	0.0	348.38570380210876	0.10001015663146973
82	325.6316759586334	fix_pre	0		119	80.0	2.5	/experiments/AOT/AOT_stimuli/rescaled_final/0188_fw.mp4	0.0	348.48571395874023	0.9915518760681152
82	326.6151189804077	pulse	0	t		80.0	2.5	/experiments/AOT/AOT_stimuli/rescaled_final/0188_fw.mp4	0.0	349.4691569805145	
82	326.62322783470154	movie	1		249	80.0	2.5	/experiments/AOT/AOT_stimuli/rescaled_final/0188_fw.mp4	0.0	349.47726583480835	2.5079901218414307
82	328.214772939682	pulse	1	t		80.0	2.5	/experiments/AOT/AOT_stimuli/rescaled_final/0188_fw.mp4	0.0	351.0688109397888	
82	329.13121795654297	fix_post	2		12	80.0	2.5	/experiments/AOT/AOT_stimuli/rescaled_final/0188_fw.mp4	0.0	351.9852559566498	0.10038590431213379
83	329.2316038608551	fix_pre	0		120	81.0	2.5	/experiments/AOT/AOT_stimuli/rescaled_final/0659_rv.mp4	0.0	352.0856418609619	1.0000550746917725
83	329.8150107860565	pulse	0	t		81.0	2.5	/experiments/AOT/AOT_stimuli/rescaled_final/0659_rv.mp4	0.0	352.66904878616333	
83	330.2316589355469	movie	1		244	81.0	2.5	/experiments/AOT/AOT_stimuli/rescaled_final/0659_rv.mp4	0.0	353.0856969356537	2.4999608993530273
83	331.41518783569336	pulse	1	t		81.0	2.5	/experiments/AOT/AOT_stimuli/rescaled_final/0659_rv.mp4	0.0	354.26922583580017	
83	332.7316198348999	fix_post	2		12	81.0	2.5	/experiments/AOT/AOT_stimuli/rescaled_final/0659_rv.mp4	0.0	355.5856578350067	0.09996294975280762
84	332.8315827846527	fix_pre	0		120	82.0	2.5	/experiments/AOT/AOT_stimuli/rescaled_final/1213_rv.mp4	0.0	355.6856207847595	1.0000290870666504
84	333.01511788368225	pulse	0	t		82.0	2.5	/experiments/AOT/AOT_stimuli/rescaled_final/1213_rv.mp4	0.0	355.86915588378906	
84	333.83161187171936	movie	1		249	82.0	2.5	/experiments/AOT/AOT_stimuli/rescaled_final/1213_rv.mp4	0.0	356.6856498718262	2.499983072280884
84	334.6150269508362	pulse	1	t		82.0	2.5	/experiments/AOT/AOT_stimuli/rescaled_final/1213_rv.mp4	0.0	357.469064950943	
84	336.2150709629059	pulse	1	t		82.0	2.5	/experiments/AOT/AOT_stimuli/rescaled_final/1213_rv.mp4	0.0	359.0691089630127	
84	336.33159494400024	fix_post	2		12	82.0	2.5	/experiments/AOT/AOT_stimuli/rescaled_final/1213_rv.mp4	0.0	359.18563294410706	0.0999908447265625
85	336.4315857887268	fix_pre	0		120	83.0	2.5	blank	1.0	359.2856237888336	1.0000431537628174
85	337.4316289424896	movie	1		300	83.0	2.5	blank	1.0	360.28566694259644	2.4999568462371826
85	337.81520080566406	pulse	1	t		83.0	2.5	blank	1.0	360.6692388057709	
85	339.41498279571533	pulse	1	t		83.0	2.5	blank	1.0	362.26902079582214	
85	339.9315857887268	fix_post	2		12	83.0	2.5	blank	1.0	362.7856237888336	0.10001015663146973
87	340.0315959453583	stim	0		1716					362.8856339454651	14.299628019332886
87	341.0151159763336	pulse	0	t						363.86915397644043	
87	342.61502385139465	pulse	0	t						365.46906185150146	
87	344.2150468826294	pulse	0	t						367.0690848827362	
87	345.8149948120117	pulse	0	t						368.66903281211853	
87	347.41497683525085	pulse	0	t						370.26901483535767	
87	349.01497888565063	pulse	0	t						371.86901688575745	
87	350.6151189804077	pulse	0	t						373.4691569805145	
87	352.21498584747314	pulse	0	t						375.06902384757996	
87	353.81456899642944	pulse	0	t						376.66860699653625	
