trial_nr	onset	event_type	phase	response	nr_frames	movie_index	movie_duration	movie_file	blank	onset_abs	duration
0	0.12448501586914062	stim	0		137					22.167337894439697	1.1421921253204346
0	1.2586309909820557	response	0	space						23.301483869552612	
1	1.2666771411895752	stim	0		3677					23.309530019760132	30.641475915908813
1	31.900118112564087	pulse	0	t						53.942970991134644	
1	31.90815305709839	stim	1		1717					53.951005935668945	14.308293104171753
1	33.500038146972656	pulse	1	t						55.54289102554321	
1	35.100056171417236	pulse	1	t						57.14290904998779	
1	36.69992804527283	pulse	1	t						58.742780923843384	
1	38.29994797706604	pulse	1	t						60.3428008556366	
1	39.89993715286255	pulse	1	t						61.942790031433105	
1	41.49991416931152	pulse	1	t						63.54276704788208	
1	43.099881172180176	pulse	1	t						65.14273405075073	
1	44.699867963790894	pulse	1	t						66.74272084236145	
2	46.21644616127014	fix_pre	0		11	0.0	2.5	/experiments/AOT/AOT_stimuli/rescaled_final/1481_fw.mp4	0.0	68.2592990398407	0.09167790412902832
2	46.29948902130127	pulse	0	t		0.0	2.5	/experiments/AOT/AOT_stimuli/rescaled_final/1481_fw.mp4	0.0	68.34234189987183	
2	46.30812406539917	movie	1		245	0.0	2.5	/experiments/AOT/AOT_stimuli/rescaled_final/1481_fw.mp4	0.0	68.35097694396973	2.508094072341919
2	47.89918518066406	pulse	1	t		0.0	2.5	/experiments/AOT/AOT_stimuli/rescaled_final/1481_fw.mp4	0.0	69.94203805923462	
2	48.81621813774109	fix_post	2		12	0.0	2.5	/experiments/AOT/AOT_stimuli/rescaled_final/1481_fw.mp4	0.0	70.85907101631165	0.10042405128479004
3	48.91664218902588	fix_pre	0		120	1.0	2.5	/experiments/AOT/AOT_stimuli/rescaled_final/0850_rv.mp4	0.0	70.95949506759644	0.999769926071167
3	49.50025415420532	pulse	0	t		1.0	2.5	/experiments/AOT/AOT_stimuli/rescaled_final/0850_rv.mp4	0.0	71.54310703277588	
3	49.916412115097046	movie	1		245	1.0	2.5	/experiments/AOT/AOT_stimuli/rescaled_final/0850_rv.mp4	0.0	71.9592649936676	2.5000429153442383
3	51.099945068359375	pulse	1	t		1.0	2.5	/experiments/AOT/AOT_stimuli/rescaled_final/0850_rv.mp4	0.0	73.14279794692993	
3	52.416455030441284	fix_post	2		12	1.0	2.5	/experiments/AOT/AOT_stimuli/rescaled_final/0850_rv.mp4	0.0	74.45930790901184	0.09997200965881348
4	52.5164270401001	fix_pre	0		120	2.0	2.5	/experiments/AOT/AOT_stimuli/rescaled_final/1576_fw.mp4	0.0	74.55927991867065	0.9999899864196777
4	52.69990110397339	pulse	0	t		2.0	2.5	/experiments/AOT/AOT_stimuli/rescaled_final/1576_fw.mp4	0.0	74.74275398254395	
4	53.516417026519775	movie	1		245	2.0	2.5	/experiments/AOT/AOT_stimuli/rescaled_final/1576_fw.mp4	0.0	75.55926990509033	2.499941110610962
4	54.299936056137085	pulse	1	t		2.0	2.5	/experiments/AOT/AOT_stimuli/rescaled_final/1576_fw.mp4	0.0	76.34278893470764	
4	55.89846396446228	pulse	1	t		2.0	2.5	/experiments/AOT/AOT_stimuli/rescaled_final/1576_fw.mp4	0.0	77.94131684303284	
4	56.01635813713074	fix_post	2		12	2.0	2.5	/experiments/AOT/AOT_stimuli/rescaled_final/1576_fw.mp4	0.0	78.0592110157013	0.0999908447265625
5	56.1163489818573	fix_pre	0		120	3.0	2.5	/experiments/AOT/AOT_stimuli/rescaled_final/0983_rv.mp4	0.0	78.15920186042786	1.0001411437988281
5	57.11649012565613	movie	1		243	3.0	2.5	/experiments/AOT/AOT_stimuli/rescaled_final/0983_rv.mp4	0.0	79.15934300422668	2.4998619556427
5	57.49969506263733	pulse	1	t		3.0	2.5	/experiments/AOT/AOT_stimuli/rescaled_final/0983_rv.mp4	0.0	79.54254794120789	
5	59.09993815422058	pulse	1	t		3.0	2.5	/experiments/AOT/AOT_stimuli/rescaled_final/0983_rv.mp4	0.0	81.14279103279114	
5	59.61635208129883	fix_post	2		12	3.0	2.5	/experiments/AOT/AOT_stimuli/rescaled_final/0983_rv.mp4	0.0	81.65920495986938	0.09994292259216309
6	59.71629500389099	fix_pre	0		119	4.0	2.5	/experiments/AOT/AOT_stimuli/rescaled_final/2027_fw.mp4	0.0	81.75914788246155	0.9917261600494385
6	60.69982719421387	pulse	0	t		4.0	2.5	/experiments/AOT/AOT_stimuli/rescaled_final/2027_fw.mp4	0.0	82.74268007278442	
6	60.70802116394043	movie	1		244	4.0	2.5	/experiments/AOT/AOT_stimuli/rescaled_final/2027_fw.mp4	0.0	82.75087404251099	2.5078749656677246
6	62.300127029418945	pulse	1	t		4.0	2.5	/experiments/AOT/AOT_stimuli/rescaled_final/2027_fw.mp4	0.0	84.3429799079895	
6	63.215896129608154	fix_post	2		12	4.0	2.5	/experiments/AOT/AOT_stimuli/rescaled_final/2027_fw.mp4	0.0	85.25874900817871	0.10042595863342285
7	63.31632208824158	fix_pre	0		120	5.0	2.5	blank	1.0	85.35917496681213	1.0000600814819336
7	63.90000319480896	pulse	0	t		5.0	2.5	blank	1.0	85.94285607337952	
7	64.31638216972351	movie	1		300	5.0	2.5	blank	1.0	86.35923504829407	2.5000178813934326
7	65.49979519844055	pulse	1	t		5.0	2.5	blank	1.0	87.54264807701111	
7	66.81640005111694	fix_post	2		12	5.0	2.5	blank	1.0	88.8592529296875	0.09989404678344727
8	66.91629409790039	fix_pre	0		120	6.0	2.5	/experiments/AOT/AOT_stimuli/rescaled_final/1694_fw.mp4	0.0	88.95914697647095	1.0000789165496826
8	67.09985208511353	pulse	0	t		6.0	2.5	/experiments/AOT/AOT_stimuli/rescaled_final/1694_fw.mp4	0.0	89.14270496368408	
8	67.91637301445007	movie	1		243	6.0	2.5	/experiments/AOT/AOT_stimuli/rescaled_final/1694_fw.mp4	0.0	89.95922589302063	2.499540090560913
8	68.69979596138	pulse	1	t		6.0	2.5	/experiments/AOT/AOT_stimuli/rescaled_final/1694_fw.mp4	0.0	90.74264883995056	
8	70.29818201065063	pulse	1	t		6.0	2.5	/experiments/AOT/AOT_stimuli/rescaled_final/1694_fw.mp4	0.0	92.34103488922119	
8	70.41591310501099	fix_post	2		12	6.0	2.5	/experiments/AOT/AOT_stimuli/rescaled_final/1694_fw.mp4	0.0	92.45876598358154	0.10033702850341797
9	70.5162501335144	fix_pre	0		120	7.0	2.5	/experiments/AOT/AOT_stimuli/rescaled_final/0577_fw.mp4	0.0	92.55910301208496	1.0000529289245605
9	71.51630306243896	movie	1		244	7.0	2.5	/experiments/AOT/AOT_stimuli/rescaled_final/0577_fw.mp4	0.0	93.55915594100952	2.4999420642852783
9	71.90082907676697	pulse	1	t		7.0	2.5	/experiments/AOT/AOT_stimuli/rescaled_final/0577_fw.mp4	0.0	93.94368195533752	
9	73.4998071193695	pulse	1	t		7.0	2.5	/experiments/AOT/AOT_stimuli/rescaled_final/0577_fw.mp4	0.0	95.54265999794006	
9	74.01624512672424	fix_post	2		12	7.0	2.5	/experiments/AOT/AOT_stimuli/rescaled_final/0577_fw.mp4	0.0	96.0590980052948	0.10003304481506348
10	74.1162781715393	fix_pre	0		119	8.0	2.5	/experiments/AOT/AOT_stimuli/rescaled_final/1187_fw.mp4	0.0	96.15913105010986	0.9916439056396484
10	75.09980297088623	pulse	0	t		8.0	2.5	/experiments/AOT/AOT_stimuli/rescaled_final/1187_fw.mp4	0.0	97.14265584945679	
10	75.10792207717896	movie	1		244	8.0	2.5	/experiments/AOT/AOT_stimuli/rescaled_final/1187_fw.mp4	0.0	97.15077495574951	2.5079948902130127
10	76.69938898086548	pulse	1	t		8.0	2.5	/experiments/AOT/AOT_stimuli/rescaled_final/1187_fw.mp4	0.0	98.74224185943604	
10	77.61591696739197	fix_post	2		12	8.0	2.5	/experiments/AOT/AOT_stimuli/rescaled_final/1187_fw.mp4	0.0	99.65876984596252	0.1003580093383789
11	77.71627497673035	fix_pre	0		120	9.0	2.5	/experiments/AOT/AOT_stimuli/rescaled_final/1652_rv.mp4	0.0	99.7591278553009	1.0000290870666504
11	78.29979109764099	pulse	0	t		9.0	2.5	/experiments/AOT/AOT_stimuli/rescaled_final/1652_rv.mp4	0.0	100.34264397621155	
11	78.716304063797	movie	1		242	9.0	2.5	/experiments/AOT/AOT_stimuli/rescaled_final/1652_rv.mp4	0.0	100.75915694236755	2.4999969005584717
11	79.89989614486694	pulse	1	t		9.0	2.5	/experiments/AOT/AOT_stimuli/rescaled_final/1652_rv.mp4	0.0	101.9427490234375	
11	81.21630096435547	fix_post	2		12	9.0	2.5	/experiments/AOT/AOT_stimuli/rescaled_final/1652_rv.mp4	0.0	103.25915384292603	0.09991717338562012
12	81.31621813774109	fix_pre	0		120	10.0	2.5	/experiments/AOT/AOT_stimuli/rescaled_final/0840_rv.mp4	0.0	103.35907101631165	1.0001039505004883
12	81.49972414970398	pulse	0	t		10.0	2.5	/experiments/AOT/AOT_stimuli/rescaled_final/0840_rv.mp4	0.0	103.54257702827454	
12	82.31632208824158	movie	1		244	10.0	2.5	/experiments/AOT/AOT_stimuli/rescaled_final/0840_rv.mp4	0.0	104.35917496681213	2.4999499320983887
12	83.09975004196167	pulse	1	t		10.0	2.5	/experiments/AOT/AOT_stimuli/rescaled_final/0840_rv.mp4	0.0	105.14260292053223	
12	84.69812417030334	pulse	1	t		10.0	2.5	/experiments/AOT/AOT_stimuli/rescaled_final/0840_rv.mp4	0.0	106.7409770488739	
12	84.81627202033997	fix_post	2		12	10.0	2.5	/experiments/AOT/AOT_stimuli/rescaled_final/0840_rv.mp4	0.0	106.85912489891052	0.09993910789489746
13	84.91621112823486	fix_pre	0		120	11.0	2.5	/experiments/AOT/AOT_stimuli/rescaled_final/0994_fw.mp4	0.0	106.95906400680542	1.0000300407409668
13	85.91624116897583	movie	1		243	11.0	2.5	/experiments/AOT/AOT_stimuli/rescaled_final/0994_fw.mp4	0.0	107.95909404754639	2.5000720024108887
13	86.29910016059875	pulse	1	t		11.0	2.5	/experiments/AOT/AOT_stimuli/rescaled_final/0994_fw.mp4	0.0	108.34195303916931	
13	87.89975810050964	pulse	1	t		11.0	2.5	/experiments/AOT/AOT_stimuli/rescaled_final/0994_fw.mp4	0.0	109.9426109790802	
13	88.41631317138672	fix_post	2		12	11.0	2.5	/experiments/AOT/AOT_stimuli/rescaled_final/0994_fw.mp4	0.0	110.45916604995728	0.10008788108825684
14	88.51640105247498	fix_pre	0		119	12.0	2.5	/experiments/AOT/AOT_stimuli/rescaled_final/0582_rv.mp4	0.0	110.55925393104553	0.9913949966430664
14	89.49969696998596	pulse	0	t		12.0	2.5	/experiments/AOT/AOT_stimuli/rescaled_final/0582_rv.mp4	0.0	111.54254984855652	
14	89.50779604911804	movie	1		244	12.0	2.5	/experiments/AOT/AOT_stimuli/rescaled_final/0582_rv.mp4	0.0	111.5506489276886	2.5084080696105957
14	91.09949207305908	pulse	1	t		12.0	2.5	/experiments/AOT/AOT_stimuli/rescaled_final/0582_rv.mp4	0.0	113.14234495162964	
14	92.01620411872864	fix_post	2		12	12.0	2.5	/experiments/AOT/AOT_stimuli/rescaled_final/0582_rv.mp4	0.0	114.0590569972992	0.09996485710144043
15	92.11616897583008	fix_pre	0		120	13.0	2.5	/experiments/AOT/AOT_stimuli/rescaled_final/1133_rv.mp4	0.0	114.15902185440063	1.0000221729278564
15	92.69974398612976	pulse	0	t		13.0	2.5	/experiments/AOT/AOT_stimuli/rescaled_final/1133_rv.mp4	0.0	114.74259686470032	
15	93.11619114875793	movie	1		244	13.0	2.5	/experiments/AOT/AOT_stimuli/rescaled_final/1133_rv.mp4	0.0	115.15904402732849	2.499979019165039
15	94.29975199699402	pulse	1	t		13.0	2.5	/experiments/AOT/AOT_stimuli/rescaled_final/1133_rv.mp4	0.0	116.34260487556458	
15	95.61617016792297	fix_post	2		12	13.0	2.5	/experiments/AOT/AOT_stimuli/rescaled_final/1133_rv.mp4	0.0	117.65902304649353	0.09998893737792969
16	95.7161591053009	fix_pre	0		120	14.0	2.5	blank	1.0	117.75901198387146	0.9999980926513672
16	95.89969396591187	pulse	0	t		14.0	2.5	blank	1.0	117.94254684448242	
16	96.71615719795227	movie	1		300	14.0	2.5	blank	1.0	118.75901007652283	2.500011920928955
16	97.49972605705261	pulse	1	t		14.0	2.5	blank	1.0	119.54257893562317	
16	99.09975814819336	pulse	1	t		14.0	2.5	blank	1.0	121.14261102676392	
16	99.21616911888123	fix_post	2		12	14.0	2.5	blank	1.0	121.25902199745178	0.1000678539276123
17	99.31623697280884	fix_pre	0		120	15.0	2.5	/experiments/AOT/AOT_stimuli/rescaled_final/0712_fw.mp4	0.0	121.3590898513794	1.0000181198120117
17	100.31625509262085	movie	1		247	15.0	2.5	/experiments/AOT/AOT_stimuli/rescaled_final/0712_fw.mp4	0.0	122.3591079711914	2.4994680881500244
17	100.69968819618225	pulse	1	t		15.0	2.5	/experiments/AOT/AOT_stimuli/rescaled_final/0712_fw.mp4	0.0	122.74254107475281	
17	102.29916501045227	pulse	1	t		15.0	2.5	/experiments/AOT/AOT_stimuli/rescaled_final/0712_fw.mp4	0.0	124.34201788902283	
17	102.81572318077087	fix_post	2		12	15.0	2.5	/experiments/AOT/AOT_stimuli/rescaled_final/0712_fw.mp4	0.0	124.85857605934143	0.10048079490661621
18	102.91620397567749	fix_pre	0		119	16.0	2.5	/experiments/AOT/AOT_stimuli/rescaled_final/0591_fw.mp4	0.0	124.95905685424805	0.9913060665130615
18	103.89937210083008	pulse	0	t		16.0	2.5	/experiments/AOT/AOT_stimuli/rescaled_final/0591_fw.mp4	0.0	125.94222497940063	
18	103.90751004219055	movie	1		244	16.0	2.5	/experiments/AOT/AOT_stimuli/rescaled_final/0591_fw.mp4	0.0	125.95036292076111	2.508768081665039
18	105.49941611289978	pulse	1	t		16.0	2.5	/experiments/AOT/AOT_stimuli/rescaled_final/0591_fw.mp4	0.0	127.54226899147034	
18	106.41627812385559	fix_post	2		12	16.0	2.5	/experiments/AOT/AOT_stimuli/rescaled_final/0591_fw.mp4	0.0	128.45913100242615	0.09990501403808594
19	106.51618313789368	fix_pre	0		120	17.0	2.5	/experiments/AOT/AOT_stimuli/rescaled_final/1400_fw.mp4	0.0	128.55903601646423	0.9999740123748779
19	107.09964203834534	pulse	0	t		17.0	2.5	/experiments/AOT/AOT_stimuli/rescaled_final/1400_fw.mp4	0.0	129.1424949169159	
19	107.51615715026855	movie	1		245	17.0	2.5	/experiments/AOT/AOT_stimuli/rescaled_final/1400_fw.mp4	0.0	129.5590100288391	2.4999489784240723
19	108.69966316223145	pulse	1	t		17.0	2.5	/experiments/AOT/AOT_stimuli/rescaled_final/1400_fw.mp4	0.0	130.742516040802	
19	110.01610612869263	fix_post	2		12	17.0	2.5	/experiments/AOT/AOT_stimuli/rescaled_final/1400_fw.mp4	0.0	132.05895900726318	0.09995889663696289
20	110.11606502532959	fix_pre	0		120	18.0	2.5	/experiments/AOT/AOT_stimuli/rescaled_final/0498_rv.mp4	0.0	132.15891790390015	1.0000340938568115
20	110.29968404769897	pulse	0	t		18.0	2.5	/experiments/AOT/AOT_stimuli/rescaled_final/0498_rv.mp4	0.0	132.34253692626953	
20	111.1160991191864	movie	1		245	18.0	2.5	/experiments/AOT/AOT_stimuli/rescaled_final/0498_rv.mp4	0.0	133.15895199775696	2.4999160766601562
20	111.89955997467041	pulse	1	t		18.0	2.5	/experiments/AOT/AOT_stimuli/rescaled_final/0498_rv.mp4	0.0	133.94241285324097	
20	113.49802017211914	pulse	1	t		18.0	2.5	/experiments/AOT/AOT_stimuli/rescaled_final/0498_rv.mp4	0.0	135.5408730506897	
20	113.61601519584656	fix_post	2		12	18.0	2.5	/experiments/AOT/AOT_stimuli/rescaled_final/0498_rv.mp4	0.0	135.65886807441711	0.10007977485656738
21	113.71609497070312	fix_pre	0		120	19.0	2.5	/experiments/AOT/AOT_stimuli/rescaled_final/1652_fw.mp4	0.0	135.75894784927368	0.9999551773071289
21	114.71605014801025	movie	1		245	19.0	2.5	/experiments/AOT/AOT_stimuli/rescaled_final/1652_fw.mp4	0.0	136.7589030265808	2.500067949295044
21	115.10055112838745	pulse	1	t		19.0	2.5	/experiments/AOT/AOT_stimuli/rescaled_final/1652_fw.mp4	0.0	137.143404006958	
21	116.69959306716919	pulse	1	t		19.0	2.5	/experiments/AOT/AOT_stimuli/rescaled_final/1652_fw.mp4	0.0	138.74244594573975	
21	117.2161180973053	fix_post	2		12	19.0	2.5	/experiments/AOT/AOT_stimuli/rescaled_final/1652_fw.mp4	0.0	139.25897097587585	0.0999290943145752
22	117.31604719161987	fix_pre	0		119	20.0	2.5	blank	1.0	139.35890007019043	0.9916529655456543
22	118.29951810836792	pulse	0	t		20.0	2.5	blank	1.0	140.34237098693848	
22	118.30770015716553	movie	1		301	20.0	2.5	blank	1.0	140.35055303573608	2.508340835571289
22	119.89958310127258	pulse	1	t		20.0	2.5	blank	1.0	141.94243597984314	
22	120.81604099273682	fix_post	2		12	20.0	2.5	blank	1.0	142.85889387130737	0.10001802444458008
23	120.9160590171814	fix_pre	0		120	21.0	2.5	/experiments/AOT/AOT_stimuli/rescaled_final/0534_fw.mp4	0.0	142.95891189575195	0.9999740123748779
23	121.49960803985596	pulse	0	t		21.0	2.5	/experiments/AOT/AOT_stimuli/rescaled_final/0534_fw.mp4	0.0	143.5424609184265	
23	121.91603302955627	movie	1		245	21.0	2.5	/experiments/AOT/AOT_stimuli/rescaled_final/0534_fw.mp4	0.0	143.95888590812683	2.500084161758423
23	123.0997359752655	pulse	1	t		21.0	2.5	/experiments/AOT/AOT_stimuli/rescaled_final/0534_fw.mp4	0.0	145.14258885383606	
23	124.4161171913147	fix_post	2		12	21.0	2.5	/experiments/AOT/AOT_stimuli/rescaled_final/0534_fw.mp4	0.0	146.45897006988525	0.09996891021728516
24	124.51608610153198	fix_pre	0		120	22.0	2.5	/experiments/AOT/AOT_stimuli/rescaled_final/0350_fw.mp4	0.0	146.55893898010254	1.000053882598877
24	124.69960713386536	pulse	0	t		22.0	2.5	/experiments/AOT/AOT_stimuli/rescaled_final/0350_fw.mp4	0.0	146.7424600124359	
24	125.51613998413086	movie	1		243	22.0	2.5	/experiments/AOT/AOT_stimuli/rescaled_final/0350_fw.mp4	0.0	147.55899286270142	2.4998691082000732
24	126.29959011077881	pulse	1	t		22.0	2.5	/experiments/AOT/AOT_stimuli/rescaled_final/0350_fw.mp4	0.0	148.34244298934937	
24	127.89812803268433	pulse	1	t		22.0	2.5	/experiments/AOT/AOT_stimuli/rescaled_final/0350_fw.mp4	0.0	149.94098091125488	
24	128.01600909233093	fix_post	2		12	22.0	2.5	/experiments/AOT/AOT_stimuli/rescaled_final/0350_fw.mp4	0.0	150.0588619709015	0.10008096694946289
25	128.1160900592804	fix_pre	0		120	23.0	2.5	/experiments/AOT/AOT_stimuli/rescaled_final/0304_fw.mp4	0.0	150.15894293785095	0.9998860359191895
25	129.11597609519958	movie	1		244	23.0	2.5	/experiments/AOT/AOT_stimuli/rescaled_final/0304_fw.mp4	0.0	151.15882897377014	2.5000269412994385
25	129.4994330406189	pulse	1	t		23.0	2.5	/experiments/AOT/AOT_stimuli/rescaled_final/0304_fw.mp4	0.0	151.54228591918945	
25	131.0994701385498	pulse	1	t		23.0	2.5	/experiments/AOT/AOT_stimuli/rescaled_final/0304_fw.mp4	0.0	153.14232301712036	
25	131.61600303649902	fix_post	2		12	23.0	2.5	/experiments/AOT/AOT_stimuli/rescaled_final/0304_fw.mp4	0.0	153.65885591506958	0.0999460220336914
26	131.71594905853271	fix_pre	0		119	24.0	2.5	/experiments/AOT/AOT_stimuli/rescaled_final/0245_fw.mp4	0.0	153.75880193710327	0.9916729927062988
26	132.69953513145447	pulse	0	t		24.0	2.5	/experiments/AOT/AOT_stimuli/rescaled_final/0245_fw.mp4	0.0	154.74238801002502	
26	132.707622051239	movie	1		247	24.0	2.5	/experiments/AOT/AOT_stimuli/rescaled_final/0245_fw.mp4	0.0	154.75047492980957	2.5083959102630615
26	134.29968118667603	pulse	1	t		24.0	2.5	/experiments/AOT/AOT_stimuli/rescaled_final/0245_fw.mp4	0.0	156.34253406524658	
26	135.21601796150208	fix_post	2		12	24.0	2.5	/experiments/AOT/AOT_stimuli/rescaled_final/0245_fw.mp4	0.0	157.25887084007263	0.09993100166320801
27	135.31594896316528	fix_pre	0		120	25.0	2.5	/experiments/AOT/AOT_stimuli/rescaled_final/1751_fw.mp4	0.0	157.35880184173584	1.0000030994415283
27	135.8995110988617	pulse	0	t		25.0	2.5	/experiments/AOT/AOT_stimuli/rescaled_final/1751_fw.mp4	0.0	157.94236397743225	
27	136.3159520626068	movie	1		245	25.0	2.5	/experiments/AOT/AOT_stimuli/rescaled_final/1751_fw.mp4	0.0	158.35880494117737	2.5000360012054443
27	137.49950408935547	pulse	1	t		25.0	2.5	/experiments/AOT/AOT_stimuli/rescaled_final/1751_fw.mp4	0.0	159.54235696792603	
27	138.81598806381226	fix_post	2		12	25.0	2.5	/experiments/AOT/AOT_stimuli/rescaled_final/1751_fw.mp4	0.0	160.8588409423828	0.10008502006530762
28	138.91607308387756	fix_pre	0		120	26.0	2.5	/experiments/AOT/AOT_stimuli/rescaled_final/1752_rv.mp4	0.0	160.95892596244812	0.9999239444732666
28	139.0995831489563	pulse	0	t		26.0	2.5	/experiments/AOT/AOT_stimuli/rescaled_final/1752_rv.mp4	0.0	161.14243602752686	
28	139.91599702835083	movie	1		245	26.0	2.5	/experiments/AOT/AOT_stimuli/rescaled_final/1752_rv.mp4	0.0	161.9588499069214	2.4999539852142334
28	140.6996831893921	pulse	1	t		26.0	2.5	/experiments/AOT/AOT_stimuli/rescaled_final/1752_rv.mp4	0.0	162.74253606796265	
28	142.29821610450745	pulse	1	t		26.0	2.5	/experiments/AOT/AOT_stimuli/rescaled_final/1752_rv.mp4	0.0	164.341068983078	
28	142.41595101356506	fix_post	2		12	26.0	2.5	/experiments/AOT/AOT_stimuli/rescaled_final/1752_rv.mp4	0.0	164.45880389213562	0.10005807876586914
29	142.51600909233093	fix_pre	0		120	27.0	2.5	/experiments/AOT/AOT_stimuli/rescaled_final/2009_rv.mp4	0.0	164.5588619709015	0.9999599456787109
29	143.51596903800964	movie	1		244	27.0	2.5	/experiments/AOT/AOT_stimuli/rescaled_final/2009_rv.mp4	0.0	165.5588219165802	2.4995009899139404
29	143.8990330696106	pulse	1	t		27.0	2.5	/experiments/AOT/AOT_stimuli/rescaled_final/2009_rv.mp4	0.0	165.94188594818115	
29	145.49948596954346	pulse	1	t		27.0	2.5	/experiments/AOT/AOT_stimuli/rescaled_final/2009_rv.mp4	0.0	167.542338848114	
29	146.01547002792358	fix_post	2		12	27.0	2.5	/experiments/AOT/AOT_stimuli/rescaled_final/2009_rv.mp4	0.0	168.05832290649414	0.10051107406616211
30	146.11598110198975	fix_pre	0		119	28.0	2.5	blank	1.0	168.1588339805603	0.9915480613708496
30	147.0993971824646	pulse	0	t		28.0	2.5	blank	1.0	169.14225006103516	
30	147.1075291633606	movie	1		301	28.0	2.5	blank	1.0	169.15038204193115	2.508405923843384
30	148.69948315620422	pulse	1	t		28.0	2.5	blank	1.0	170.74233603477478	
30	149.61593508720398	fix_post	2		12	28.0	2.5	blank	1.0	171.65878796577454	0.09999799728393555
31	149.71593308448792	fix_pre	0		120	29.0	2.5	/experiments/AOT/AOT_stimuli/rescaled_final/1091_rv.mp4	0.0	171.75878596305847	1.0000250339508057
31	150.29950308799744	pulse	0	t		29.0	2.5	/experiments/AOT/AOT_stimuli/rescaled_final/1091_rv.mp4	0.0	172.342355966568	
31	150.71595811843872	movie	1		243	29.0	2.5	/experiments/AOT/AOT_stimuli/rescaled_final/1091_rv.mp4	0.0	172.75881099700928	2.50002384185791
31	151.89963603019714	pulse	1	t		29.0	2.5	/experiments/AOT/AOT_stimuli/rescaled_final/1091_rv.mp4	0.0	173.9424889087677	
31	153.21598196029663	fix_post	2		12	29.0	2.5	/experiments/AOT/AOT_stimuli/rescaled_final/1091_rv.mp4	0.0	175.2588348388672	0.09997916221618652
32	153.31596112251282	fix_pre	0		120	30.0	2.5	/experiments/AOT/AOT_stimuli/rescaled_final/0367_fw.mp4	0.0	175.35881400108337	0.9998979568481445
32	153.4994761943817	pulse	0	t		30.0	2.5	/experiments/AOT/AOT_stimuli/rescaled_final/0367_fw.mp4	0.0	175.54232907295227	
32	154.31585907936096	movie	1		244	30.0	2.5	/experiments/AOT/AOT_stimuli/rescaled_final/0367_fw.mp4	0.0	176.35871195793152	2.500035047531128
32	155.09948110580444	pulse	1	t		30.0	2.5	/experiments/AOT/AOT_stimuli/rescaled_final/0367_fw.mp4	0.0	177.142333984375	
32	156.69536805152893	pulse	1	t		30.0	2.5	/experiments/AOT/AOT_stimuli/rescaled_final/0367_fw.mp4	0.0	178.7382209300995	
32	156.8158941268921	fix_post	2		12	30.0	2.5	/experiments/AOT/AOT_stimuli/rescaled_final/0367_fw.mp4	0.0	178.85874700546265	0.09996294975280762
33	156.9158570766449	fix_pre	0		120	31.0	2.5	/experiments/AOT/AOT_stimuli/rescaled_final/0106_rv.mp4	0.0	178.95870995521545	0.9996020793914795
33	157.91545915603638	movie	1		245	31.0	2.5	/experiments/AOT/AOT_stimuli/rescaled_final/0106_rv.mp4	0.0	179.95831203460693	2.5005669593811035
33	158.29917311668396	pulse	1	t		31.0	2.5	/experiments/AOT/AOT_stimuli/rescaled_final/0106_rv.mp4	0.0	180.34202599525452	
33	159.89907217025757	pulse	1	t		31.0	2.5	/experiments/AOT/AOT_stimuli/rescaled_final/0106_rv.mp4	0.0	181.94192504882812	
33	160.41602611541748	fix_post	2		12	31.0	2.5	/experiments/AOT/AOT_stimuli/rescaled_final/0106_rv.mp4	0.0	182.45887899398804	0.10008096694946289
34	160.51610708236694	fix_pre	0		119	32.0	2.5	/experiments/AOT/AOT_stimuli/rescaled_final/1889_fw.mp4	0.0	182.5589599609375	0.9914090633392334
34	161.49941205978394	pulse	0	t		32.0	2.5	/experiments/AOT/AOT_stimuli/rescaled_final/1889_fw.mp4	0.0	183.5422649383545	
34	161.50751614570618	movie	1		247	32.0	2.5	/experiments/AOT/AOT_stimuli/rescaled_final/1889_fw.mp4	0.0	183.55036902427673	2.5079729557037354
34	163.09875512123108	pulse	1	t		32.0	2.5	/experiments/AOT/AOT_stimuli/rescaled_final/1889_fw.mp4	0.0	185.14160799980164	
34	164.0154891014099	fix_post	2		12	32.0	2.5	/experiments/AOT/AOT_stimuli/rescaled_final/1889_fw.mp4	0.0	186.05834197998047	0.10033893585205078
35	164.11582803726196	fix_pre	0		120	33.0	2.5	/experiments/AOT/AOT_stimuli/rescaled_final/1376_rv.mp4	0.0	186.15868091583252	1.0000200271606445
35	164.6994161605835	pulse	0	t		33.0	2.5	/experiments/AOT/AOT_stimuli/rescaled_final/1376_rv.mp4	0.0	186.74226903915405	
35	165.1158480644226	movie	1		244	33.0	2.5	/experiments/AOT/AOT_stimuli/rescaled_final/1376_rv.mp4	0.0	187.15870094299316	2.5000100135803223
35	166.2994110584259	pulse	1	t		33.0	2.5	/experiments/AOT/AOT_stimuli/rescaled_final/1376_rv.mp4	0.0	188.34226393699646	
35	167.61585807800293	fix_post	2		12	33.0	2.5	/experiments/AOT/AOT_stimuli/rescaled_final/1376_rv.mp4	0.0	189.6587109565735	0.0999910831451416
36	167.71584916114807	fix_pre	0		120	34.0	2.5	/experiments/AOT/AOT_stimuli/rescaled_final/2031_fw.mp4	0.0	189.75870203971863	1.0000019073486328
36	167.89932203292847	pulse	0	t		34.0	2.5	/experiments/AOT/AOT_stimuli/rescaled_final/2031_fw.mp4	0.0	189.94217491149902	
36	168.7158510684967	movie	1		244	34.0	2.5	/experiments/AOT/AOT_stimuli/rescaled_final/2031_fw.mp4	0.0	190.75870394706726	2.4999310970306396
36	169.49920511245728	pulse	1	t		34.0	2.5	/experiments/AOT/AOT_stimuli/rescaled_final/2031_fw.mp4	0.0	191.54205799102783	
36	171.09771704673767	pulse	1	t		34.0	2.5	/experiments/AOT/AOT_stimuli/rescaled_final/2031_fw.mp4	0.0	193.14056992530823	
36	171.21578216552734	fix_post	2		12	34.0	2.5	/experiments/AOT/AOT_stimuli/rescaled_final/2031_fw.mp4	0.0	193.2586350440979	0.10007190704345703
37	171.3158540725708	fix_pre	0		120	35.0	2.5	blank	1.0	193.35870695114136	0.9999511241912842
37	172.31580519676208	movie	1		300	35.0	2.5	blank	1.0	194.35865807533264	2.5000319480895996
37	172.69937014579773	pulse	1	t		35.0	2.5	blank	1.0	194.7422230243683	
37	174.29930305480957	pulse	1	t		35.0	2.5	blank	1.0	196.34215593338013	
37	174.81583714485168	fix_post	2		12	35.0	2.5	blank	1.0	196.85869002342224	0.09992194175720215
38	174.9157590866089	fix_pre	0		119	36.0	2.5	/experiments/AOT/AOT_stimuli/rescaled_final/0845_rv.mp4	0.0	196.95861196517944	0.9916510581970215
38	175.8993000984192	pulse	0	t		36.0	2.5	/experiments/AOT/AOT_stimuli/rescaled_final/0845_rv.mp4	0.0	197.94215297698975	
38	175.9074101448059	movie	1		245	36.0	2.5	/experiments/AOT/AOT_stimuli/rescaled_final/0845_rv.mp4	0.0	197.95026302337646	2.508342981338501
38	177.50073218345642	pulse	1	t		36.0	2.5	/experiments/AOT/AOT_stimuli/rescaled_final/0845_rv.mp4	0.0	199.54358506202698	
38	178.4157531261444	fix_post	2		12	36.0	2.5	/experiments/AOT/AOT_stimuli/rescaled_final/0845_rv.mp4	0.0	200.45860600471497	0.10003304481506348
39	178.51578617095947	fix_pre	0		120	37.0	2.5	/experiments/AOT/AOT_stimuli/rescaled_final/1236_rv.mp4	0.0	200.55863904953003	0.9999949932098389
39	179.09927010536194	pulse	0	t		37.0	2.5	/experiments/AOT/AOT_stimuli/rescaled_final/1236_rv.mp4	0.0	201.1421229839325	
39	179.5157811641693	movie	1		244	37.0	2.5	/experiments/AOT/AOT_stimuli/rescaled_final/1236_rv.mp4	0.0	201.55863404273987	2.5000128746032715
39	180.69932413101196	pulse	1	t		37.0	2.5	/experiments/AOT/AOT_stimuli/rescaled_final/1236_rv.mp4	0.0	202.74217700958252	
39	182.01579403877258	fix_post	2		12	37.0	2.5	/experiments/AOT/AOT_stimuli/rescaled_final/1236_rv.mp4	0.0	204.05864691734314	0.10011911392211914
40	182.1159131526947	fix_pre	0		120	38.0	2.5	/experiments/AOT/AOT_stimuli/rescaled_final/1979_fw.mp4	0.0	204.15876603126526	0.9994528293609619
40	182.29933404922485	pulse	0	t		38.0	2.5	/experiments/AOT/AOT_stimuli/rescaled_final/1979_fw.mp4	0.0	204.3421869277954	
40	183.11536598205566	movie	1		244	38.0	2.5	/experiments/AOT/AOT_stimuli/rescaled_final/1979_fw.mp4	0.0	205.15821886062622	2.500370979309082
40	183.89923405647278	pulse	1	t		38.0	2.5	/experiments/AOT/AOT_stimuli/rescaled_final/1979_fw.mp4	0.0	205.94208693504333	
40	185.4975950717926	pulse	1	t		38.0	2.5	/experiments/AOT/AOT_stimuli/rescaled_final/1979_fw.mp4	0.0	207.54044795036316	
40	185.61573696136475	fix_post	2		12	38.0	2.5	/experiments/AOT/AOT_stimuli/rescaled_final/1979_fw.mp4	0.0	207.6585898399353	0.10001921653747559
41	185.71575617790222	fix_pre	0		120	39.0	2.5	/experiments/AOT/AOT_stimuli/rescaled_final/1406_fw.mp4	0.0	207.75860905647278	0.9999837875366211
41	186.71573996543884	movie	1		244	39.0	2.5	/experiments/AOT/AOT_stimuli/rescaled_final/1406_fw.mp4	0.0	208.7585928440094	2.4995720386505127
41	187.0987889766693	pulse	1	t		39.0	2.5	/experiments/AOT/AOT_stimuli/rescaled_final/1406_fw.mp4	0.0	209.14164185523987	
41	188.69924116134644	pulse	1	t		39.0	2.5	/experiments/AOT/AOT_stimuli/rescaled_final/1406_fw.mp4	0.0	210.742094039917	
41	189.21531200408936	fix_post	2		12	39.0	2.5	/experiments/AOT/AOT_stimuli/rescaled_final/1406_fw.mp4	0.0	211.2581648826599	0.1004190444946289
42	189.31573104858398	fix_pre	0		119	40.0	2.5	/experiments/AOT/AOT_stimuli/rescaled_final/2049_rv.mp4	0.0	211.35858392715454	0.9916679859161377
42	190.29930305480957	pulse	0	t		40.0	2.5	/experiments/AOT/AOT_stimuli/rescaled_final/2049_rv.mp4	0.0	212.34215593338013	
42	190.30739903450012	movie	1		245	40.0	2.5	/experiments/AOT/AOT_stimuli/rescaled_final/2049_rv.mp4	0.0	212.35025191307068	2.508286952972412
42	191.89914512634277	pulse	1	t		40.0	2.5	/experiments/AOT/AOT_stimuli/rescaled_final/2049_rv.mp4	0.0	213.94199800491333	
42	192.81568598747253	fix_post	2		12	40.0	2.5	/experiments/AOT/AOT_stimuli/rescaled_final/2049_rv.mp4	0.0	214.8585388660431	0.10010814666748047
43	192.91579413414001	fix_pre	0		120	41.0	2.5	/experiments/AOT/AOT_stimuli/rescaled_final/0712_rv.mp4	0.0	214.95864701271057	0.9995248317718506
43	193.49918508529663	pulse	0	t		41.0	2.5	/experiments/AOT/AOT_stimuli/rescaled_final/0712_rv.mp4	0.0	215.5420379638672	
43	193.91531896591187	movie	1		243	41.0	2.5	/experiments/AOT/AOT_stimuli/rescaled_final/0712_rv.mp4	0.0	215.95817184448242	2.5004630088806152
43	195.09930109977722	pulse	1	t		41.0	2.5	/experiments/AOT/AOT_stimuli/rescaled_final/0712_rv.mp4	0.0	217.14215397834778	
43	196.41578197479248	fix_post	2		12	41.0	2.5	/experiments/AOT/AOT_stimuli/rescaled_final/0712_rv.mp4	0.0	218.45863485336304	0.09997320175170898
44	196.5157551765442	fix_pre	0		120	42.0	2.5	blank	1.0	218.55860805511475	1.0000519752502441
44	196.6992540359497	pulse	0	t		42.0	2.5	blank	1.0	218.74210691452026	
44	197.51580715179443	movie	1		300	42.0	2.5	blank	1.0	219.558660030365	2.499872922897339
44	198.29916501045227	pulse	1	t		42.0	2.5	blank	1.0	220.34201788902283	
44	199.89912700653076	pulse	1	t		42.0	2.5	blank	1.0	221.94197988510132	
44	200.01568007469177	fix_post	2		12	42.0	2.5	blank	1.0	222.05853295326233	0.09999608993530273
45	200.11567616462708	fix_pre	0		120	43.0	2.5	/experiments/AOT/AOT_stimuli/rescaled_final/1939_fw.mp4	0.0	222.15852904319763	1.000058889389038
45	201.1157350540161	movie	1		246	43.0	2.5	/experiments/AOT/AOT_stimuli/rescaled_final/1939_fw.mp4	0.0	223.15858793258667	2.500005006790161
45	201.49928307533264	pulse	1	t		43.0	2.5	/experiments/AOT/AOT_stimuli/rescaled_final/1939_fw.mp4	0.0	223.5421359539032	
45	203.09919905662537	pulse	1	t		43.0	2.5	/experiments/AOT/AOT_stimuli/rescaled_final/1939_fw.mp4	0.0	225.14205193519592	
45	203.61574006080627	fix_post	2		12	43.0	2.5	/experiments/AOT/AOT_stimuli/rescaled_final/1939_fw.mp4	0.0	225.65859293937683	0.10001611709594727
46	203.71575617790222	fix_pre	0		119	44.0	2.5	/experiments/AOT/AOT_stimuli/rescaled_final/0638_fw.mp4	0.0	225.75860905647278	0.9914999008178711
46	204.69915509223938	pulse	0	t		44.0	2.5	/experiments/AOT/AOT_stimuli/rescaled_final/0638_fw.mp4	0.0	226.74200797080994	
46	204.7072560787201	movie	1		245	44.0	2.5	/experiments/AOT/AOT_stimuli/rescaled_final/0638_fw.mp4	0.0	226.75010895729065	2.5084829330444336
46	206.29921317100525	pulse	1	t		44.0	2.5	/experiments/AOT/AOT_stimuli/rescaled_final/0638_fw.mp4	0.0	228.3420660495758	
46	207.21573901176453	fix_post	2		12	44.0	2.5	/experiments/AOT/AOT_stimuli/rescaled_final/0638_fw.mp4	0.0	229.25859189033508	0.10001111030578613
47	207.3157501220703	fix_pre	0		120	45.0	2.5	/experiments/AOT/AOT_stimuli/rescaled_final/0883_fw.mp4	0.0	229.35860300064087	0.9999299049377441
47	207.89928698539734	pulse	0	t		45.0	2.5	/experiments/AOT/AOT_stimuli/rescaled_final/0883_fw.mp4	0.0	229.9421398639679	
47	208.31568002700806	movie	1		244	45.0	2.5	/experiments/AOT/AOT_stimuli/rescaled_final/0883_fw.mp4	0.0	230.3585329055786	2.500007152557373
47	209.49924612045288	pulse	1	t		45.0	2.5	/experiments/AOT/AOT_stimuli/rescaled_final/0883_fw.mp4	0.0	231.54209899902344	
47	210.81568717956543	fix_post	2		12	45.0	2.5	/experiments/AOT/AOT_stimuli/rescaled_final/0883_fw.mp4	0.0	232.858540058136	0.10006189346313477
48	210.91574907302856	fix_pre	0		120	46.0	2.5	/experiments/AOT/AOT_stimuli/rescaled_final/1321_fw.mp4	0.0	232.95860195159912	0.999932050704956
48	211.09917402267456	pulse	0	t		46.0	2.5	/experiments/AOT/AOT_stimuli/rescaled_final/1321_fw.mp4	0.0	233.14202690124512	
48	211.91568112373352	movie	1		247	46.0	2.5	/experiments/AOT/AOT_stimuli/rescaled_final/1321_fw.mp4	0.0	233.95853400230408	2.4995779991149902
48	212.69910597801208	pulse	1	t		46.0	2.5	/experiments/AOT/AOT_stimuli/rescaled_final/1321_fw.mp4	0.0	234.74195885658264	
48	214.29702401161194	pulse	1	t		46.0	2.5	/experiments/AOT/AOT_stimuli/rescaled_final/1321_fw.mp4	0.0	236.3398768901825	
48	214.4152591228485	fix_post	2		12	46.0	2.5	/experiments/AOT/AOT_stimuli/rescaled_final/1321_fw.mp4	0.0	236.45811200141907	0.1000070571899414
49	214.51526618003845	fix_pre	0		120	47.0	2.5	/experiments/AOT/AOT_stimuli/rescaled_final/0389_rv.mp4	0.0	236.558119058609	1.0004680156707764
49	215.51573419570923	movie	1		245	47.0	2.5	/experiments/AOT/AOT_stimuli/rescaled_final/0389_rv.mp4	0.0	237.55858707427979	2.4999029636383057
49	215.90061497688293	pulse	1	t		47.0	2.5	/experiments/AOT/AOT_stimuli/rescaled_final/0389_rv.mp4	0.0	237.9434678554535	
49	217.4990270137787	pulse	1	t		47.0	2.5	/experiments/AOT/AOT_stimuli/rescaled_final/0389_rv.mp4	0.0	239.54187989234924	
49	218.01563715934753	fix_post	2		12	47.0	2.5	/experiments/AOT/AOT_stimuli/rescaled_final/0389_rv.mp4	0.0	240.0584900379181	0.10009193420410156
50	218.11572909355164	fix_pre	0		119	48.0	2.5	blank	1.0	240.1585819721222	0.9915518760681152
50	219.09910106658936	pulse	0	t		48.0	2.5	blank	1.0	241.1419539451599	
50	219.10728096961975	movie	1		301	48.0	2.5	blank	1.0	241.1501338481903	2.508331060409546
50	220.69915413856506	pulse	1	t		48.0	2.5	blank	1.0	242.74200701713562	
50	221.6156120300293	fix_post	2		12	48.0	2.5	blank	1.0	243.65846490859985	0.09998798370361328
51	221.7156000137329	fix_pre	0		120	49.0	2.5	/experiments/AOT/AOT_stimuli/rescaled_final/0896_rv.mp4	0.0	243.75845289230347	0.9999151229858398
51	222.29900813102722	pulse	0	t		49.0	2.5	/experiments/AOT/AOT_stimuli/rescaled_final/0896_rv.mp4	0.0	244.34186100959778	
51	222.71551513671875	movie	1		244	49.0	2.5	/experiments/AOT/AOT_stimuli/rescaled_final/0896_rv.mp4	0.0	244.7583680152893	2.5000479221343994
51	223.89914917945862	pulse	1	t		49.0	2.5	/experiments/AOT/AOT_stimuli/rescaled_final/0896_rv.mp4	0.0	245.94200205802917	
51	225.21556305885315	fix_post	2		12	49.0	2.5	/experiments/AOT/AOT_stimuli/rescaled_final/0896_rv.mp4	0.0	247.2584159374237	0.09998011589050293
52	225.31554317474365	fix_pre	0		120	50.0	2.5	/experiments/AOT/AOT_stimuli/rescaled_final/0249_rv.mp4	0.0	247.3583960533142	0.9999868869781494
52	225.49906706809998	pulse	0	t		50.0	2.5	/experiments/AOT/AOT_stimuli/rescaled_final/0249_rv.mp4	0.0	247.54191994667053	
52	226.3155300617218	movie	1		244	50.0	2.5	/experiments/AOT/AOT_stimuli/rescaled_final/0249_rv.mp4	0.0	248.35838294029236	2.4999871253967285
52	227.09892797470093	pulse	1	t		50.0	2.5	/experiments/AOT/AOT_stimuli/rescaled_final/0249_rv.mp4	0.0	249.14178085327148	
52	228.6975700855255	pulse	1	t		50.0	2.5	/experiments/AOT/AOT_stimuli/rescaled_final/0249_rv.mp4	0.0	250.74042296409607	
52	228.81551718711853	fix_post	2		12	50.0	2.5	/experiments/AOT/AOT_stimuli/rescaled_final/0249_rv.mp4	0.0	250.8583700656891	0.10003280639648438
53	228.91554999351501	fix_pre	0		120	51.0	2.5	/experiments/AOT/AOT_stimuli/rescaled_final/0638_rv.mp4	0.0	250.95840287208557	0.999981164932251
53	229.91553115844727	movie	1		244	51.0	2.5	/experiments/AOT/AOT_stimuli/rescaled_final/0638_rv.mp4	0.0	251.95838403701782	2.499802827835083
53	230.29881596565247	pulse	1	t		51.0	2.5	/experiments/AOT/AOT_stimuli/rescaled_final/0638_rv.mp4	0.0	252.34166884422302	
53	231.899099111557	pulse	1	t		51.0	2.5	/experiments/AOT/AOT_stimuli/rescaled_final/0638_rv.mp4	0.0	253.94195199012756	
53	232.41533398628235	fix_post	2		12	51.0	2.5	/experiments/AOT/AOT_stimuli/rescaled_final/0638_rv.mp4	0.0	254.4581868648529	0.1001431941986084
54	232.51547718048096	fix_pre	0		119	52.0	2.5	/experiments/AOT/AOT_stimuli/rescaled_final/0211_rv.mp4	0.0	254.5583300590515	0.9916949272155762
54	233.49909114837646	pulse	0	t		52.0	2.5	/experiments/AOT/AOT_stimuli/rescaled_final/0211_rv.mp4	0.0	255.54194402694702	
54	233.50717210769653	movie	1		246	52.0	2.5	/experiments/AOT/AOT_stimuli/rescaled_final/0211_rv.mp4	0.0	255.5500249862671	2.5083730220794678
54	235.09856700897217	pulse	1	t		52.0	2.5	/experiments/AOT/AOT_stimuli/rescaled_final/0211_rv.mp4	0.0	257.1414198875427	
54	236.015545129776	fix_post	2		12	52.0	2.5	/experiments/AOT/AOT_stimuli/rescaled_final/0211_rv.mp4	0.0	258.05839800834656	0.09989595413208008
55	236.11544108390808	fix_pre	0		120	53.0	2.5	/experiments/AOT/AOT_stimuli/rescaled_final/0211_fw.mp4	0.0	258.15829396247864	1.0000429153442383
55	236.6989619731903	pulse	0	t		53.0	2.5	/experiments/AOT/AOT_stimuli/rescaled_final/0211_fw.mp4	0.0	258.74181485176086	
55	237.11548399925232	movie	1		244	53.0	2.5	/experiments/AOT/AOT_stimuli/rescaled_final/0211_fw.mp4	0.0	259.1583368778229	2.500084161758423
55	238.2991180419922	pulse	1	t		53.0	2.5	/experiments/AOT/AOT_stimuli/rescaled_final/0211_fw.mp4	0.0	260.34197092056274	
55	239.61556816101074	fix_post	2		12	53.0	2.5	/experiments/AOT/AOT_stimuli/rescaled_final/0211_fw.mp4	0.0	261.6584210395813	0.09988689422607422
56	239.71545505523682	fix_pre	0		120	54.0	2.5	/experiments/AOT/AOT_stimuli/rescaled_final/0577_fw.mp4	0.0	261.7583079338074	1.000049114227295
56	239.89897418022156	pulse	0	t		54.0	2.5	/experiments/AOT/AOT_stimuli/rescaled_final/0577_fw.mp4	0.0	261.9418270587921	
56	240.7155041694641	movie	1		243	54.0	2.5	/experiments/AOT/AOT_stimuli/rescaled_final/0577_fw.mp4	0.0	262.75835704803467	2.500032901763916
56	241.4989709854126	pulse	1	t		54.0	2.5	/experiments/AOT/AOT_stimuli/rescaled_final/0577_fw.mp4	0.0	263.54182386398315	
56	243.09719610214233	pulse	1	t		54.0	2.5	/experiments/AOT/AOT_stimuli/rescaled_final/0577_fw.mp4	0.0	265.1400489807129	
56	243.21553707122803	fix_post	2		12	54.0	2.5	/experiments/AOT/AOT_stimuli/rescaled_final/0577_fw.mp4	0.0	265.2583899497986	0.09997797012329102
57	243.31551504135132	fix_pre	0		120	55.0	2.5	blank	1.0	265.3583679199219	1.0000150203704834
57	244.3155300617218	movie	1		300	55.0	2.5	blank	1.0	266.35838294029236	2.4999420642852783
57	244.69900608062744	pulse	1	t		55.0	2.5	blank	1.0	266.741858959198	
57	246.2988681793213	pulse	1	t		55.0	2.5	blank	1.0	268.34172105789185	
57	246.81547212600708	fix_post	2		12	55.0	2.5	blank	1.0	268.85832500457764	0.09999585151672363
58	246.9154679775238	fix_pre	0		119	56.0	2.5	/experiments/AOT/AOT_stimuli/rescaled_final/1928_fw.mp4	0.0	268.95832085609436	0.9916980266571045
58	247.89891719818115	pulse	0	t		56.0	2.5	/experiments/AOT/AOT_stimuli/rescaled_final/1928_fw.mp4	0.0	269.9417700767517	
58	247.9071660041809	movie	1		248	56.0	2.5	/experiments/AOT/AOT_stimuli/rescaled_final/1928_fw.mp4	0.0	269.95001888275146	2.50838303565979
58	249.49862909317017	pulse	1	t		56.0	2.5	/experiments/AOT/AOT_stimuli/rescaled_final/1928_fw.mp4	0.0	271.5414819717407	
58	250.4155490398407	fix_post	2		12	56.0	2.5	/experiments/AOT/AOT_stimuli/rescaled_final/1928_fw.mp4	0.0	272.45840191841125	0.09993910789489746
59	250.5154881477356	fix_pre	0		120	57.0	2.5	/experiments/AOT/AOT_stimuli/rescaled_final/0186_rv.mp4	0.0	272.55834102630615	1.000020980834961
59	251.0990011692047	pulse	0	t		57.0	2.5	/experiments/AOT/AOT_stimuli/rescaled_final/0186_rv.mp4	0.0	273.14185404777527	
59	251.51550912857056	movie	1		246	57.0	2.5	/experiments/AOT/AOT_stimuli/rescaled_final/0186_rv.mp4	0.0	273.5583620071411	2.499912977218628
59	252.6990921497345	pulse	1	t		57.0	2.5	/experiments/AOT/AOT_stimuli/rescaled_final/0186_rv.mp4	0.0	274.74194502830505	
59	254.01542210578918	fix_post	2		12	57.0	2.5	/experiments/AOT/AOT_stimuli/rescaled_final/0186_rv.mp4	0.0	276.05827498435974	0.09999608993530273
60	254.1154181957245	fix_pre	0		120	58.0	2.5	/experiments/AOT/AOT_stimuli/rescaled_final/0190_fw.mp4	0.0	276.15827107429504	0.9999608993530273
60	254.29897499084473	pulse	0	t		58.0	2.5	/experiments/AOT/AOT_stimuli/rescaled_final/0190_fw.mp4	0.0	276.3418278694153	
60	255.11537909507751	movie	1		244	58.0	2.5	/experiments/AOT/AOT_stimuli/rescaled_final/0190_fw.mp4	0.0	277.15823197364807	2.5000369548797607
60	255.89895796775818	pulse	1	t		58.0	2.5	/experiments/AOT/AOT_stimuli/rescaled_final/0190_fw.mp4	0.0	277.94181084632874	
60	257.4974510669708	pulse	1	t		58.0	2.5	/experiments/AOT/AOT_stimuli/rescaled_final/0190_fw.mp4	0.0	279.5403039455414	
60	257.6154160499573	fix_post	2		12	58.0	2.5	/experiments/AOT/AOT_stimuli/rescaled_final/0190_fw.mp4	0.0	279.65826892852783	0.09989404678344727
61	257.7153100967407	fix_pre	0		120	59.0	2.5	/experiments/AOT/AOT_stimuli/rescaled_final/1275_rv.mp4	0.0	279.7581629753113	1.0000720024108887
61	258.7153820991516	movie	1		245	59.0	2.5	/experiments/AOT/AOT_stimuli/rescaled_final/1275_rv.mp4	0.0	280.75823497772217	2.4996120929718018
61	259.09837317466736	pulse	1	t		59.0	2.5	/experiments/AOT/AOT_stimuli/rescaled_final/1275_rv.mp4	0.0	281.1412260532379	
61	260.69889998435974	pulse	1	t		59.0	2.5	/experiments/AOT/AOT_stimuli/rescaled_final/1275_rv.mp4	0.0	282.7417528629303	
61	261.2149941921234	fix_post	2		12	59.0	2.5	/experiments/AOT/AOT_stimuli/rescaled_final/1275_rv.mp4	0.0	283.25784707069397	0.10035395622253418
62	261.31534814834595	fix_pre	0		119	60.0	2.5	/experiments/AOT/AOT_stimuli/rescaled_final/1491_rv.mp4	0.0	283.3582010269165	0.9916989803314209
62	262.2988111972809	pulse	0	t		60.0	2.5	/experiments/AOT/AOT_stimuli/rescaled_final/1491_rv.mp4	0.0	284.34166407585144	
62	262.30704712867737	movie	1		247	60.0	2.5	/experiments/AOT/AOT_stimuli/rescaled_final/1491_rv.mp4	0.0	284.3499000072479	2.50834584236145
62	263.8986110687256	pulse	1	t		60.0	2.5	/experiments/AOT/AOT_stimuli/rescaled_final/1491_rv.mp4	0.0	285.94146394729614	
62	264.8153929710388	fix_post	2		12	60.0	2.5	/experiments/AOT/AOT_stimuli/rescaled_final/1491_rv.mp4	0.0	286.8582458496094	0.09996318817138672
63	264.9153561592102	fix_pre	0		120	61.0	2.5	blank	1.0	286.95820903778076	1.0000619888305664
63	265.4988901615143	pulse	0	t		61.0	2.5	blank	1.0	287.54174304008484	
63	265.91541814804077	movie	1		300	61.0	2.5	blank	1.0	287.9582710266113	2.4999489784240723
63	267.0988621711731	pulse	1	t		61.0	2.5	blank	1.0	289.14171504974365	
63	268.41536712646484	fix_post	2		12	61.0	2.5	blank	1.0	290.4582200050354	0.10003805160522461
64	268.51540517807007	fix_pre	0		120	62.0	2.5	/experiments/AOT/AOT_stimuli/rescaled_final/1457_rv.mp4	0.0	290.5582580566406	0.9995598793029785
64	268.6989231109619	pulse	0	t		62.0	2.5	/experiments/AOT/AOT_stimuli/rescaled_final/1457_rv.mp4	0.0	290.74177598953247	
64	269.51496505737305	movie	1		245	62.0	2.5	/experiments/AOT/AOT_stimuli/rescaled_final/1457_rv.mp4	0.0	291.5578179359436	2.5005970001220703
64	270.2984161376953	pulse	1	t		62.0	2.5	/experiments/AOT/AOT_stimuli/rescaled_final/1457_rv.mp4	0.0	292.34126901626587	
64	271.8976180553436	pulse	1	t		62.0	2.5	/experiments/AOT/AOT_stimuli/rescaled_final/1457_rv.mp4	0.0	293.9404709339142	
64	272.0155620574951	fix_post	2		12	62.0	2.5	/experiments/AOT/AOT_stimuli/rescaled_final/1457_rv.mp4	0.0	294.0584149360657	0.09951901435852051
65	272.11508107185364	fix_pre	0		120	63.0	2.5	/experiments/AOT/AOT_stimuli/rescaled_final/0740_rv.mp4	0.0	294.1579339504242	1.0002269744873047
65	273.11530804634094	movie	1		248	63.0	2.5	/experiments/AOT/AOT_stimuli/rescaled_final/0740_rv.mp4	0.0	295.1581609249115	2.500025987625122
65	273.49823212623596	pulse	1	t		63.0	2.5	/experiments/AOT/AOT_stimuli/rescaled_final/0740_rv.mp4	0.0	295.5410850048065	
65	275.0988450050354	pulse	1	t		63.0	2.5	/experiments/AOT/AOT_stimuli/rescaled_final/0740_rv.mp4	0.0	297.14169788360596	
65	275.61533403396606	fix_post	2		12	63.0	2.5	/experiments/AOT/AOT_stimuli/rescaled_final/0740_rv.mp4	0.0	297.6581869125366	0.09997916221618652
66	275.71531319618225	fix_pre	0		119	64.0	2.5	/experiments/AOT/AOT_stimuli/rescaled_final/0591_fw.mp4	0.0	297.7581660747528	0.9916949272155762
66	276.69882917404175	pulse	0	t		64.0	2.5	/experiments/AOT/AOT_stimuli/rescaled_final/0591_fw.mp4	0.0	298.7416820526123	
66	276.7070081233978	movie	1		246	64.0	2.5	/experiments/AOT/AOT_stimuli/rescaled_final/0591_fw.mp4	0.0	298.7498610019684	2.5083060264587402
66	278.29842805862427	pulse	1	t		64.0	2.5	/experiments/AOT/AOT_stimuli/rescaled_final/0591_fw.mp4	0.0	300.3412809371948	
66	279.21531414985657	fix_post	2		12	64.0	2.5	/experiments/AOT/AOT_stimuli/rescaled_final/0591_fw.mp4	0.0	301.2581670284271	0.09993386268615723
67	279.3152480125427	fix_pre	0		120	65.0	2.5	/experiments/AOT/AOT_stimuli/rescaled_final/1288_rv.mp4	0.0	301.3581008911133	0.9999740123748779
67	279.8987970352173	pulse	0	t		65.0	2.5	/experiments/AOT/AOT_stimuli/rescaled_final/1288_rv.mp4	0.0	301.94164991378784	
67	280.3152220249176	movie	1		247	65.0	2.5	/experiments/AOT/AOT_stimuli/rescaled_final/1288_rv.mp4	0.0	302.35807490348816	2.499640941619873
67	281.4988350868225	pulse	1	t		65.0	2.5	/experiments/AOT/AOT_stimuli/rescaled_final/1288_rv.mp4	0.0	303.54168796539307	
67	282.8148629665375	fix_post	2		12	65.0	2.5	/experiments/AOT/AOT_stimuli/rescaled_final/1288_rv.mp4	0.0	304.85771584510803	0.10038518905639648
68	282.9152481555939	fix_pre	0		120	66.0	2.5	/experiments/AOT/AOT_stimuli/rescaled_final/0968_fw.mp4	0.0	304.95810103416443	1.0000669956207275
68	283.09873604774475	pulse	0	t		66.0	2.5	/experiments/AOT/AOT_stimuli/rescaled_final/0968_fw.mp4	0.0	305.1415889263153	
68	283.9153151512146	movie	1		243	66.0	2.5	/experiments/AOT/AOT_stimuli/rescaled_final/0968_fw.mp4	0.0	305.95816802978516	2.499908924102783
68	284.69871401786804	pulse	1	t		66.0	2.5	/experiments/AOT/AOT_stimuli/rescaled_final/0968_fw.mp4	0.0	306.7415668964386	
68	286.2970440387726	pulse	1	t		66.0	2.5	/experiments/AOT/AOT_stimuli/rescaled_final/0968_fw.mp4	0.0	308.33989691734314	
68	286.4152240753174	fix_post	2		12	66.0	2.5	/experiments/AOT/AOT_stimuli/rescaled_final/0968_fw.mp4	0.0	308.45807695388794	0.09999990463256836
69	286.51522397994995	fix_pre	0		120	67.0	2.5	/experiments/AOT/AOT_stimuli/rescaled_final/0708_fw.mp4	0.0	308.5580768585205	1.000040054321289
69	287.51526403427124	movie	1		244	67.0	2.5	/experiments/AOT/AOT_stimuli/rescaled_final/0708_fw.mp4	0.0	309.5581169128418	2.499983072280884
69	287.8984591960907	pulse	1	t		67.0	2.5	/experiments/AOT/AOT_stimuli/rescaled_final/0708_fw.mp4	0.0	309.94131207466125	
69	289.4987301826477	pulse	1	t		67.0	2.5	/experiments/AOT/AOT_stimuli/rescaled_final/0708_fw.mp4	0.0	311.54158306121826	
69	290.0152471065521	fix_post	2		12	67.0	2.5	/experiments/AOT/AOT_stimuli/rescaled_final/0708_fw.mp4	0.0	312.0580999851227	0.10002589225769043
70	290.1152729988098	fix_pre	0		119	68.0	2.5	/experiments/AOT/AOT_stimuli/rescaled_final/0193_rv.mp4	0.0	312.15812587738037	0.9916391372680664
70	291.098788022995	pulse	0	t		68.0	2.5	/experiments/AOT/AOT_stimuli/rescaled_final/0193_rv.mp4	0.0	313.14164090156555	
70	291.1069121360779	movie	1		246	68.0	2.5	/experiments/AOT/AOT_stimuli/rescaled_final/0193_rv.mp4	0.0	313.14976501464844	2.5084638595581055
70	292.6984989643097	pulse	1	t		68.0	2.5	/experiments/AOT/AOT_stimuli/rescaled_final/0193_rv.mp4	0.0	314.74135184288025	
70	293.615375995636	fix_post	2		12	68.0	2.5	/experiments/AOT/AOT_stimuli/rescaled_final/0193_rv.mp4	0.0	315.65822887420654	0.0999460220336914
71	293.7153220176697	fix_pre	0		120	69.0	2.5	blank	1.0	315.75817489624023	0.9999451637268066
71	294.30012702941895	pulse	0	t		69.0	2.5	blank	1.0	316.3429799079895	
71	294.7152671813965	movie	1		300	69.0	2.5	blank	1.0	316.75812005996704	2.4999020099639893
71	295.89880299568176	pulse	1	t		69.0	2.5	blank	1.0	317.9416558742523	
71	297.2151691913605	fix_post	2		12	69.0	2.5	blank	1.0	319.25802206993103	0.10003399848937988
72	297.31520318984985	fix_pre	0		120	70.0	2.5	/experiments/AOT/AOT_stimuli/rescaled_final/1751_rv.mp4	0.0	319.3580560684204	1.0000689029693604
72	297.4987051486969	pulse	0	t		70.0	2.5	/experiments/AOT/AOT_stimuli/rescaled_final/1751_rv.mp4	0.0	319.54155802726746	
72	298.3152720928192	movie	1		246	70.0	2.5	/experiments/AOT/AOT_stimuli/rescaled_final/1751_rv.mp4	0.0	320.35812497138977	2.4994568824768066
72	299.0986771583557	pulse	1	t		70.0	2.5	/experiments/AOT/AOT_stimuli/rescaled_final/1751_rv.mp4	0.0	321.14153003692627	
72	300.69769406318665	pulse	1	t		70.0	2.5	/experiments/AOT/AOT_stimuli/rescaled_final/1751_rv.mp4	0.0	322.7405469417572	
72	300.814728975296	fix_post	2		12	70.0	2.5	/experiments/AOT/AOT_stimuli/rescaled_final/1751_rv.mp4	0.0	322.8575818538666	0.10046601295471191
73	300.91519498825073	fix_pre	0		120	71.0	2.5	/experiments/AOT/AOT_stimuli/rescaled_final/2009_fw.mp4	0.0	322.9580478668213	0.9999721050262451
73	301.915167093277	movie	1		247	71.0	2.5	/experiments/AOT/AOT_stimuli/rescaled_final/2009_fw.mp4	0.0	323.95801997184753	2.500041961669922
73	302.2987971305847	pulse	1	t		71.0	2.5	/experiments/AOT/AOT_stimuli/rescaled_final/2009_fw.mp4	0.0	324.3416500091553	
73	303.89866614341736	pulse	1	t		71.0	2.5	/experiments/AOT/AOT_stimuli/rescaled_final/2009_fw.mp4	0.0	325.9415190219879	
73	304.4152090549469	fix_post	2		12	71.0	2.5	/experiments/AOT/AOT_stimuli/rescaled_final/2009_fw.mp4	0.0	326.45806193351746	0.10003995895385742
74	304.51524901390076	fix_pre	0		119	72.0	2.5	/experiments/AOT/AOT_stimuli/rescaled_final/2017_fw.mp4	0.0	326.5581018924713	0.9914989471435547
74	305.4986221790314	pulse	0	t		72.0	2.5	/experiments/AOT/AOT_stimuli/rescaled_final/2017_fw.mp4	0.0	327.54147505760193	
74	305.5067479610443	movie	1		244	72.0	2.5	/experiments/AOT/AOT_stimuli/rescaled_final/2017_fw.mp4	0.0	327.54960083961487	2.5083811283111572
74	307.0982961654663	pulse	1	t		72.0	2.5	/experiments/AOT/AOT_stimuli/rescaled_final/2017_fw.mp4	0.0	329.14114904403687	
74	308.01512908935547	fix_post	2		12	72.0	2.5	/experiments/AOT/AOT_stimuli/rescaled_final/2017_fw.mp4	0.0	330.057981967926	0.10012102127075195
75	308.1152501106262	fix_pre	0		120	73.0	2.5	/experiments/AOT/AOT_stimuli/rescaled_final/1700_fw.mp4	0.0	330.1581029891968	0.9998929500579834
75	308.6986401081085	pulse	0	t		73.0	2.5	/experiments/AOT/AOT_stimuli/rescaled_final/1700_fw.mp4	0.0	330.7414929866791	
75	309.1151430606842	movie	1		243	73.0	2.5	/experiments/AOT/AOT_stimuli/rescaled_final/1700_fw.mp4	0.0	331.15799593925476	2.4999589920043945
75	310.2987141609192	pulse	1	t		73.0	2.5	/experiments/AOT/AOT_stimuli/rescaled_final/1700_fw.mp4	0.0	332.34156703948975	
75	311.6151020526886	fix_post	2		12	73.0	2.5	/experiments/AOT/AOT_stimuli/rescaled_final/1700_fw.mp4	0.0	333.65795493125916	0.10004997253417969
76	311.7151520252228	fix_pre	0		120	74.0	2.5	/experiments/AOT/AOT_stimuli/rescaled_final/2101_rv.mp4	0.0	333.75800490379333	1.0001580715179443
76	311.89864015579224	pulse	0	t		74.0	2.5	/experiments/AOT/AOT_stimuli/rescaled_final/2101_rv.mp4	0.0	333.9414930343628	
76	312.7153100967407	movie	1		244	74.0	2.5	/experiments/AOT/AOT_stimuli/rescaled_final/2101_rv.mp4	0.0	334.7581629753113	2.4998700618743896
76	313.49862813949585	pulse	1	t		74.0	2.5	/experiments/AOT/AOT_stimuli/rescaled_final/2101_rv.mp4	0.0	335.5414810180664	
76	315.0972521305084	pulse	1	t		74.0	2.5	/experiments/AOT/AOT_stimuli/rescaled_final/2101_rv.mp4	0.0	337.140105009079	
76	315.2151801586151	fix_post	2		12	74.0	2.5	/experiments/AOT/AOT_stimuli/rescaled_final/2101_rv.mp4	0.0	337.25803303718567	0.10000181198120117
77	315.3151819705963	fix_pre	0		120	75.0	2.5	/experiments/AOT/AOT_stimuli/rescaled_final/1889_rv.mp4	0.0	337.35803484916687	0.9999771118164062
77	316.3151590824127	movie	1		244	75.0	2.5	/experiments/AOT/AOT_stimuli/rescaled_final/1889_rv.mp4	0.0	338.3580119609833	2.4999310970306396
77	316.69822001457214	pulse	1	t		75.0	2.5	/experiments/AOT/AOT_stimuli/rescaled_final/1889_rv.mp4	0.0	338.7410728931427	
77	318.29858899116516	pulse	1	t		75.0	2.5	/experiments/AOT/AOT_stimuli/rescaled_final/1889_rv.mp4	0.0	340.3414418697357	
77	318.81509017944336	fix_post	2		12	75.0	2.5	/experiments/AOT/AOT_stimuli/rescaled_final/1889_rv.mp4	0.0	340.8579430580139	0.10000181198120117
78	318.91509199142456	fix_pre	0		119	76.0	2.5	blank	1.0	340.9579448699951	0.9916660785675049
78	319.8986220359802	pulse	0	t		76.0	2.5	blank	1.0	341.9414749145508	
78	319.90675806999207	movie	1		301	76.0	2.5	blank	1.0	341.9496109485626	2.508281946182251
78	321.49862003326416	pulse	1	t		76.0	2.5	blank	1.0	343.5414729118347	
78	322.4150400161743	fix_post	2		12	76.0	2.5	blank	1.0	344.4578928947449	0.10008406639099121
79	322.5151240825653	fix_pre	0		120	77.0	2.5	/experiments/AOT/AOT_stimuli/rescaled_final/1275_fw.mp4	0.0	344.55797696113586	0.9999270439147949
79	323.09849405288696	pulse	0	t		77.0	2.5	/experiments/AOT/AOT_stimuli/rescaled_final/1275_fw.mp4	0.0	345.1413469314575	
79	323.5150511264801	movie	1		246	77.0	2.5	/experiments/AOT/AOT_stimuli/rescaled_final/1275_fw.mp4	0.0	345.55790400505066	2.500058889389038
79	324.6987261772156	pulse	1	t		77.0	2.5	/experiments/AOT/AOT_stimuli/rescaled_final/1275_fw.mp4	0.0	346.74157905578613	
79	326.01511001586914	fix_post	2		12	77.0	2.5	/experiments/AOT/AOT_stimuli/rescaled_final/1275_fw.mp4	0.0	348.0579628944397	0.0995781421661377
80	326.1146881580353	fix_pre	0		120	78.0	2.5	/experiments/AOT/AOT_stimuli/rescaled_final/1580_fw.mp4	0.0	348.15754103660583	1.0004768371582031
80	326.29815697669983	pulse	0	t		78.0	2.5	/experiments/AOT/AOT_stimuli/rescaled_final/1580_fw.mp4	0.0	348.3410098552704	
80	327.1151649951935	movie	1		245	78.0	2.5	/experiments/AOT/AOT_stimuli/rescaled_final/1580_fw.mp4	0.0	349.15801787376404	2.4998769760131836
80	327.89879608154297	pulse	1	t		78.0	2.5	/experiments/AOT/AOT_stimuli/rescaled_final/1580_fw.mp4	0.0	349.9416489601135	
80	329.4970750808716	pulse	1	t		78.0	2.5	/experiments/AOT/AOT_stimuli/rescaled_final/1580_fw.mp4	0.0	351.53992795944214	
80	329.61504197120667	fix_post	2		12	78.0	2.5	/experiments/AOT/AOT_stimuli/rescaled_final/1580_fw.mp4	0.0	351.6578948497772	0.10007715225219727
81	329.71511912345886	fix_pre	0		120	79.0	2.5	/experiments/AOT/AOT_stimuli/rescaled_final/1985_fw.mp4	0.0	351.7579720020294	0.9998829364776611
81	330.7150020599365	movie	1		246	79.0	2.5	/experiments/AOT/AOT_stimuli/rescaled_final/1985_fw.mp4	0.0	352.7578549385071	2.5000159740448
81	331.09934401512146	pulse	1	t		79.0	2.5	/experiments/AOT/AOT_stimuli/rescaled_final/1985_fw.mp4	0.0	353.142196893692	
81	332.6986541748047	pulse	1	t		79.0	2.5	/experiments/AOT/AOT_stimuli/rescaled_final/1985_fw.mp4	0.0	354.74150705337524	
81	333.2150180339813	fix_post	2		12	79.0	2.5	/experiments/AOT/AOT_stimuli/rescaled_final/1985_fw.mp4	0.0	355.2578709125519	0.10003113746643066
82	333.31504917144775	fix_pre	0		119	80.0	2.5	/experiments/AOT/AOT_stimuli/rescaled_final/1491_rv.mp4	0.0	355.3579020500183	0.9915909767150879
82	334.29843401908875	pulse	0	t		80.0	2.5	/experiments/AOT/AOT_stimuli/rescaled_final/1491_rv.mp4	0.0	356.3412868976593	
82	334.30664014816284	movie	1		246	80.0	2.5	/experiments/AOT/AOT_stimuli/rescaled_final/1491_rv.mp4	0.0	356.3494930267334	2.508333921432495
82	335.8979229927063	pulse	1	t		80.0	2.5	/experiments/AOT/AOT_stimuli/rescaled_final/1491_rv.mp4	0.0	357.94077587127686	
82	336.81497406959534	fix_post	2		12	80.0	2.5	/experiments/AOT/AOT_stimuli/rescaled_final/1491_rv.mp4	0.0	358.8578269481659	0.10004711151123047
83	336.91502118110657	fix_pre	0		120	81.0	2.5	/experiments/AOT/AOT_stimuli/rescaled_final/0168_fw.mp4	0.0	358.9578740596771	0.99993896484375
83	337.4984600543976	pulse	0	t		81.0	2.5	/experiments/AOT/AOT_stimuli/rescaled_final/0168_fw.mp4	0.0	359.54131293296814	
83	337.9149601459503	movie	1		244	81.0	2.5	/experiments/AOT/AOT_stimuli/rescaled_final/0168_fw.mp4	0.0	359.9578130245209	2.5000529289245605
83	339.0985941886902	pulse	1	t		81.0	2.5	/experiments/AOT/AOT_stimuli/rescaled_final/0168_fw.mp4	0.0	361.14144706726074	
83	340.4150130748749	fix_post	2		12	81.0	2.5	/experiments/AOT/AOT_stimuli/rescaled_final/0168_fw.mp4	0.0	362.45786595344543	0.09999489784240723
84	340.5150079727173	fix_pre	0		120	82.0	2.5	/experiments/AOT/AOT_stimuli/rescaled_final/2152_rv.mp4	0.0	362.55786085128784	0.9999380111694336
84	340.69847798347473	pulse	0	t		82.0	2.5	/experiments/AOT/AOT_stimuli/rescaled_final/2152_rv.mp4	0.0	362.7413308620453	
84	341.5149459838867	movie	1		245	82.0	2.5	/experiments/AOT/AOT_stimuli/rescaled_final/2152_rv.mp4	0.0	363.5577988624573	2.5000431537628174
84	342.2985260486603	pulse	1	t		82.0	2.5	/experiments/AOT/AOT_stimuli/rescaled_final/2152_rv.mp4	0.0	364.34137892723083	
84	343.89684104919434	pulse	1	t		82.0	2.5	/experiments/AOT/AOT_stimuli/rescaled_final/2152_rv.mp4	0.0	365.9396939277649	
84	344.01498913764954	fix_post	2		12	82.0	2.5	/experiments/AOT/AOT_stimuli/rescaled_final/2152_rv.mp4	0.0	366.0578420162201	0.09995794296264648
85	344.1149470806122	fix_pre	0		120	83.0	2.5	blank	1.0	366.15779995918274	1.0000169277191162
85	345.1149640083313	movie	1		300	83.0	2.5	blank	1.0	367.15781688690186	2.4999160766601562
85	345.498486995697	pulse	1	t		83.0	2.5	blank	1.0	367.5413398742676	
85	347.0984420776367	pulse	1	t		83.0	2.5	blank	1.0	369.1412949562073	
85	347.61488008499146	fix_post	2		12	83.0	2.5	blank	1.0	369.657732963562	0.10006999969482422
87	347.7149500846863	stim	0		1716					369.75780296325684	14.299988985061646
87	348.69854497909546	pulse	0	t						370.741397857666	
87	350.2985141277313	pulse	0	t						372.3413670063019	
87	351.89841198921204	pulse	0	t						373.9412648677826	
87	353.49844312667847	pulse	0	t						375.541296005249	
87	355.0985481739044	pulse	0	t						377.141401052475	
87	356.6983699798584	pulse	0	t						378.74122285842896	
87	358.298397064209	pulse	0	t						380.34124994277954	
87	359.8983771800995	pulse	0	t						381.94123005867004	
87	361.4983620643616	pulse	0	t						383.54121494293213	
