trial_nr	onset	event_type	phase	response	nr_frames	movie_index	movie_duration	movie_file	blank	onset_abs	duration
0	0.16651201248168945	stim	0		6					16.124929428100586	0.04993152618408203
0	0.20843148231506348	response	0	space						16.16684889793396	
1	0.21644353866577148	stim	0		5188					16.174860954284668	43.25295877456665
1	43.454402446746826	pulse	0	t						59.41281986236572	
1	43.46940231323242	stim	1		1714					59.42781972885132	14.297349452972412
1	45.04840636253357	pulse	1	t						61.006823778152466	
1	46.64865231513977	pulse	1	t						62.60706973075867	
1	48.24884343147278	pulse	1	t						64.20726084709167	
1	49.84913611412048	pulse	1	t						65.80755352973938	
1	51.44946646690369	pulse	1	t						67.40788388252258	
1	53.04957365989685	pulse	1	t						69.00799107551575	
1	54.64987897872925	pulse	1	t						70.60829639434814	
1	56.25018835067749	pulse	1	t						72.20860576629639	
2	57.766751766204834	fix_pre	0		11	0.0	2.5	/experiments/Knapen_AOT/AOT_stimuli/rescaled_final/0099_rv.mp4	0.0	73.72516918182373	0.10837745666503906
2	57.85038137435913	pulse	0	t		0.0	2.5	/experiments/Knapen_AOT/AOT_stimuli/rescaled_final/0099_rv.mp4	0.0	73.80879878997803	
2	57.87512922286987	movie	1		279	0.0	2.5	/experiments/Knapen_AOT/AOT_stimuli/rescaled_final/0099_rv.mp4	0.0	73.83354663848877	2.4920010566711426
2	59.449403047561646	pulse	1	t		0.0	2.5	/experiments/Knapen_AOT/AOT_stimuli/rescaled_final/0099_rv.mp4	0.0	75.40782046318054	
2	60.367130279541016	fix_post	2		12	0.0	2.5	/experiments/Knapen_AOT/AOT_stimuli/rescaled_final/0099_rv.mp4	0.0	76.32554769515991	0.10001420974731445
3	60.46714448928833	fix_pre	0		120	1.0	2.5	/experiments/Knapen_AOT/AOT_stimuli/rescaled_final/1892_rv.mp4	0.0	76.42556190490723	1.0085289478302002
3	61.05077147483826	pulse	0	t		1.0	2.5	/experiments/Knapen_AOT/AOT_stimuli/rescaled_final/1892_rv.mp4	0.0	77.00918889045715	
3	61.47567343711853	movie	1		276	1.0	2.5	/experiments/Knapen_AOT/AOT_stimuli/rescaled_final/1892_rv.mp4	0.0	77.43409085273743	2.49200439453125
3	62.64907503128052	pulse	1	t		1.0	2.5	/experiments/Knapen_AOT/AOT_stimuli/rescaled_final/1892_rv.mp4	0.0	78.60749244689941	
3	63.96767783164978	fix_post	2		12	1.0	2.5	/experiments/Knapen_AOT/AOT_stimuli/rescaled_final/1892_rv.mp4	0.0	79.92609524726868	0.10001969337463379
4	64.06769752502441	fix_pre	0		120	2.0	2.5	/experiments/Knapen_AOT/AOT_stimuli/rescaled_final/1474_fw.mp4	0.0	80.02611494064331	1.0084946155548096
4	64.25145626068115	pulse	0	t		2.0	2.5	/experiments/Knapen_AOT/AOT_stimuli/rescaled_final/1474_fw.mp4	0.0	80.20987367630005	
4	65.07619214057922	movie	1		287	2.0	2.5	/experiments/Knapen_AOT/AOT_stimuli/rescaled_final/1474_fw.mp4	0.0	81.03460955619812	2.49202823638916
4	65.8493721485138	pulse	1	t		2.0	2.5	/experiments/Knapen_AOT/AOT_stimuli/rescaled_final/1474_fw.mp4	0.0	81.80778956413269	
4	67.44954919815063	pulse	1	t		2.0	2.5	/experiments/Knapen_AOT/AOT_stimuli/rescaled_final/1474_fw.mp4	0.0	83.40796661376953	
4	67.56822037696838	fix_post	2		12	2.0	2.5	/experiments/Knapen_AOT/AOT_stimuli/rescaled_final/1474_fw.mp4	0.0	83.52663779258728	0.1000528335571289
5	67.66827321052551	fix_pre	0		120	3.0	2.5	/experiments/Knapen_AOT/AOT_stimuli/rescaled_final/0770_rv.mp4	0.0	83.62669062614441	1.0084648132324219
5	68.67673802375793	movie	1		279	3.0	2.5	/experiments/Knapen_AOT/AOT_stimuli/rescaled_final/0770_rv.mp4	0.0	84.63515543937683	2.4920365810394287
5	69.0513710975647	pulse	1	t		3.0	2.5	/experiments/Knapen_AOT/AOT_stimuli/rescaled_final/0770_rv.mp4	0.0	85.0097885131836	
5	70.64410305023193	pulse	1	t		3.0	2.5	/experiments/Knapen_AOT/AOT_stimuli/rescaled_final/0770_rv.mp4	0.0	86.60252046585083	
5	71.16877460479736	fix_post	2		12	3.0	2.5	/experiments/Knapen_AOT/AOT_stimuli/rescaled_final/0770_rv.mp4	0.0	87.12719202041626	0.09999442100524902
6	71.26876902580261	fix_pre	0		118	4.0	2.5	/experiments/Knapen_AOT/AOT_stimuli/rescaled_final/1663_fw.mp4	0.0	87.22718644142151	0.9918138980865479
6	72.24416375160217	pulse	0	t		4.0	2.5	/experiments/Knapen_AOT/AOT_stimuli/rescaled_final/1663_fw.mp4	0.0	88.20258116722107	
6	72.26058292388916	movie	1		287	4.0	2.5	/experiments/Knapen_AOT/AOT_stimuli/rescaled_final/1663_fw.mp4	0.0	88.21900033950806	2.500361204147339
6	73.84439253807068	pulse	1	t		4.0	2.5	/experiments/Knapen_AOT/AOT_stimuli/rescaled_final/1663_fw.mp4	0.0	89.80280995368958	
6	74.7609441280365	fix_post	2		12	4.0	2.5	/experiments/Knapen_AOT/AOT_stimuli/rescaled_final/1663_fw.mp4	0.0	90.7193615436554	0.10003185272216797
7	74.86097598075867	fix_pre	0		120	5.0	2.5	blank	1.0	90.81939339637756	1.00014328956604
7	75.44468712806702	pulse	0	t		5.0	2.5	blank	1.0	91.40310454368591	
7	75.8611192703247	movie	1		300	5.0	2.5	blank	1.0	91.8195366859436	2.5004079341888428
7	77.04512286186218	pulse	1	t		5.0	2.5	blank	1.0	93.00354027748108	
7	78.36152720451355	fix_post	2		12	5.0	2.5	blank	1.0	94.31994462013245	0.09999871253967285
8	78.46152591705322	fix_pre	0		120	6.0	2.5	/experiments/Knapen_AOT/AOT_stimuli/rescaled_final/0346_fw.mp4	0.0	94.41994333267212	1.0084733963012695
8	78.64538645744324	pulse	0	t		6.0	2.5	/experiments/Knapen_AOT/AOT_stimuli/rescaled_final/0346_fw.mp4	0.0	94.60380387306213	
8	79.46999931335449	movie	1		277	6.0	2.5	/experiments/Knapen_AOT/AOT_stimuli/rescaled_final/0346_fw.mp4	0.0	95.42841672897339	2.492051362991333
8	80.24533200263977	pulse	1	t		6.0	2.5	/experiments/Knapen_AOT/AOT_stimuli/rescaled_final/0346_fw.mp4	0.0	96.20374941825867	
8	81.84561276435852	pulse	1	t		6.0	2.5	/experiments/Knapen_AOT/AOT_stimuli/rescaled_final/0346_fw.mp4	0.0	97.80403017997742	
8	81.96205067634583	fix_post	2		12	6.0	2.5	/experiments/Knapen_AOT/AOT_stimuli/rescaled_final/0346_fw.mp4	0.0	97.92046809196472	0.10000014305114746
9	82.06205081939697	fix_pre	0		120	7.0	2.5	/experiments/Knapen_AOT/AOT_stimuli/rescaled_final/0374_rv.mp4	0.0	98.02046823501587	1.0084991455078125
9	83.07054996490479	movie	1		280	7.0	2.5	/experiments/Knapen_AOT/AOT_stimuli/rescaled_final/0374_rv.mp4	0.0	99.02896738052368	2.492086887359619
9	83.44523000717163	pulse	1	t		7.0	2.5	/experiments/Knapen_AOT/AOT_stimuli/rescaled_final/0374_rv.mp4	0.0	99.40364742279053	
9	85.04606080055237	pulse	1	t		7.0	2.5	/experiments/Knapen_AOT/AOT_stimuli/rescaled_final/0374_rv.mp4	0.0	101.00447821617126	
9	85.5626368522644	fix_post	2		12	7.0	2.5	/experiments/Knapen_AOT/AOT_stimuli/rescaled_final/0374_rv.mp4	0.0	101.5210542678833	0.09995555877685547
10	85.66259241104126	fix_pre	0		119	8.0	2.5	/experiments/Knapen_AOT/AOT_stimuli/rescaled_final/1505_fw.mp4	0.0	101.62100982666016	1.0001931190490723
10	86.64631223678589	pulse	0	t		8.0	2.5	/experiments/Knapen_AOT/AOT_stimuli/rescaled_final/1505_fw.mp4	0.0	102.60472965240479	
10	86.66278553009033	movie	1		284	8.0	2.5	/experiments/Knapen_AOT/AOT_stimuli/rescaled_final/1505_fw.mp4	0.0	102.62120294570923	2.500321865081787
10	88.24499583244324	pulse	1	t		8.0	2.5	/experiments/Knapen_AOT/AOT_stimuli/rescaled_final/1505_fw.mp4	0.0	104.20341324806213	
10	89.16310739517212	fix_post	2		12	8.0	2.5	/experiments/Knapen_AOT/AOT_stimuli/rescaled_final/1505_fw.mp4	0.0	105.12152481079102	0.10007190704345703
11	89.26317930221558	fix_pre	0		120	9.0	2.5	/experiments/Knapen_AOT/AOT_stimuli/rescaled_final/1168_rv.mp4	0.0	105.22159671783447	1.0084669589996338
11	89.84678554534912	pulse	0	t		9.0	2.5	/experiments/Knapen_AOT/AOT_stimuli/rescaled_final/1168_rv.mp4	0.0	105.80520296096802	
11	90.27164626121521	movie	1		283	9.0	2.5	/experiments/Knapen_AOT/AOT_stimuli/rescaled_final/1168_rv.mp4	0.0	106.2300636768341	2.4920284748077393
11	91.44539523124695	pulse	1	t		9.0	2.5	/experiments/Knapen_AOT/AOT_stimuli/rescaled_final/1168_rv.mp4	0.0	107.40381264686584	
11	92.76367473602295	fix_post	2		12	9.0	2.5	/experiments/Knapen_AOT/AOT_stimuli/rescaled_final/1168_rv.mp4	0.0	108.72209215164185	0.10000801086425781
12	92.8636827468872	fix_pre	0		120	10.0	2.5	/experiments/Knapen_AOT/AOT_stimuli/rescaled_final/0031_fw.mp4	0.0	108.8221001625061	1.0085134506225586
12	93.0472571849823	pulse	0	t		10.0	2.5	/experiments/Knapen_AOT/AOT_stimuli/rescaled_final/0031_fw.mp4	0.0	109.0056746006012	
12	93.87219619750977	movie	1		285	10.0	2.5	/experiments/Knapen_AOT/AOT_stimuli/rescaled_final/0031_fw.mp4	0.0	109.83061361312866	2.49200177192688
12	94.6455979347229	pulse	1	t		10.0	2.5	/experiments/Knapen_AOT/AOT_stimuli/rescaled_final/0031_fw.mp4	0.0	110.6040153503418	
12	96.24790978431702	pulse	1	t		10.0	2.5	/experiments/Knapen_AOT/AOT_stimuli/rescaled_final/0031_fw.mp4	0.0	112.20632719993591	
12	96.36419796943665	fix_post	2		12	10.0	2.5	/experiments/Knapen_AOT/AOT_stimuli/rescaled_final/0031_fw.mp4	0.0	112.32261538505554	0.10001802444458008
13	96.46421599388123	fix_pre	0		120	11.0	2.5	/experiments/Knapen_AOT/AOT_stimuli/rescaled_final/1587_fw.mp4	0.0	112.42263340950012	1.0085012912750244
13	97.47271728515625	movie	1		280	11.0	2.5	/experiments/Knapen_AOT/AOT_stimuli/rescaled_final/1587_fw.mp4	0.0	113.43113470077515	2.4920308589935303
13	97.84808921813965	pulse	1	t		11.0	2.5	/experiments/Knapen_AOT/AOT_stimuli/rescaled_final/1587_fw.mp4	0.0	113.80650663375854	
13	99.44831323623657	pulse	1	t		11.0	2.5	/experiments/Knapen_AOT/AOT_stimuli/rescaled_final/1587_fw.mp4	0.0	115.40673065185547	
13	99.96474814414978	fix_post	2		12	11.0	2.5	/experiments/Knapen_AOT/AOT_stimuli/rescaled_final/1587_fw.mp4	0.0	115.92316555976868	0.09999775886535645
14	100.06474590301514	fix_pre	0		119	12.0	2.5	/experiments/Knapen_AOT/AOT_stimuli/rescaled_final/0109_rv.mp4	0.0	116.02316331863403	1.0002846717834473
14	101.04841828346252	pulse	0	t		12.0	2.5	/experiments/Knapen_AOT/AOT_stimuli/rescaled_final/0109_rv.mp4	0.0	117.00683569908142	
14	101.06503057479858	movie	1		276	12.0	2.5	/experiments/Knapen_AOT/AOT_stimuli/rescaled_final/0109_rv.mp4	0.0	117.02344799041748	2.5002403259277344
14	102.6481237411499	pulse	1	t		12.0	2.5	/experiments/Knapen_AOT/AOT_stimuli/rescaled_final/0109_rv.mp4	0.0	118.6065411567688	
14	103.56527090072632	fix_post	2		12	12.0	2.5	/experiments/Knapen_AOT/AOT_stimuli/rescaled_final/0109_rv.mp4	0.0	119.52368831634521	0.10003304481506348
15	103.66530394554138	fix_pre	0		120	13.0	2.5	/experiments/Knapen_AOT/AOT_stimuli/rescaled_final/1552_rv.mp4	0.0	119.62372136116028	1.0084800720214844
15	104.2490062713623	pulse	0	t		13.0	2.5	/experiments/Knapen_AOT/AOT_stimuli/rescaled_final/1552_rv.mp4	0.0	120.2074236869812	
15	104.67378401756287	movie	1		291	13.0	2.5	/experiments/Knapen_AOT/AOT_stimuli/rescaled_final/1552_rv.mp4	0.0	120.63220143318176	2.4920125007629395
15	105.84725856781006	pulse	1	t		13.0	2.5	/experiments/Knapen_AOT/AOT_stimuli/rescaled_final/1552_rv.mp4	0.0	121.80567598342896	
15	107.1657965183258	fix_post	2		12	13.0	2.5	/experiments/Knapen_AOT/AOT_stimuli/rescaled_final/1552_rv.mp4	0.0	123.1242139339447	0.10004782676696777
16	107.26584434509277	fix_pre	0		120	14.0	2.5	blank	1.0	123.22426176071167	1.000119686126709
16	107.44936919212341	pulse	0	t		14.0	2.5	blank	1.0	123.40778660774231	
16	108.26596403121948	movie	1		300	14.0	2.5	blank	1.0	124.22438144683838	2.500373363494873
16	109.0496883392334	pulse	1	t		14.0	2.5	blank	1.0	125.0081057548523	
16	110.65001893043518	pulse	1	t		14.0	2.5	blank	1.0	126.60843634605408	
16	110.76633739471436	fix_post	2		12	14.0	2.5	blank	1.0	126.72475481033325	0.10002923011779785
17	110.86636662483215	fix_pre	0		120	15.0	2.5	/experiments/Knapen_AOT/AOT_stimuli/rescaled_final/1606_rv.mp4	0.0	126.82478404045105	1.0084617137908936
17	111.87482833862305	movie	1		275	15.0	2.5	/experiments/Knapen_AOT/AOT_stimuli/rescaled_final/1606_rv.mp4	0.0	127.83324575424194	2.4920847415924072
17	112.24916505813599	pulse	1	t		15.0	2.5	/experiments/Knapen_AOT/AOT_stimuli/rescaled_final/1606_rv.mp4	0.0	128.20758247375488	
17	113.84824085235596	pulse	1	t		15.0	2.5	/experiments/Knapen_AOT/AOT_stimuli/rescaled_final/1606_rv.mp4	0.0	129.80665826797485	
17	114.36691308021545	fix_post	2		12	15.0	2.5	/experiments/Knapen_AOT/AOT_stimuli/rescaled_final/1606_rv.mp4	0.0	130.32533049583435	0.10010409355163574
18	114.46701717376709	fix_pre	0		119	16.0	2.5	/experiments/Knapen_AOT/AOT_stimuli/rescaled_final/0264_fw.mp4	0.0	130.425434589386	1.000072717666626
18	115.45076155662537	pulse	0	t		16.0	2.5	/experiments/Knapen_AOT/AOT_stimuli/rescaled_final/0264_fw.mp4	0.0	131.40917897224426	
18	115.46708989143372	movie	1		288	16.0	2.5	/experiments/Knapen_AOT/AOT_stimuli/rescaled_final/0264_fw.mp4	0.0	131.4255073070526	2.500331163406372
18	117.04925322532654	pulse	1	t		16.0	2.5	/experiments/Knapen_AOT/AOT_stimuli/rescaled_final/0264_fw.mp4	0.0	133.00767064094543	
18	117.96742105484009	fix_post	2		12	16.0	2.5	/experiments/Knapen_AOT/AOT_stimuli/rescaled_final/0264_fw.mp4	0.0	133.92583847045898	0.1000213623046875
19	118.06744241714478	fix_pre	0		120	17.0	2.5	/experiments/Knapen_AOT/AOT_stimuli/rescaled_final/0181_fw.mp4	0.0	134.02585983276367	1.0084855556488037
19	118.65107107162476	pulse	0	t		17.0	2.5	/experiments/Knapen_AOT/AOT_stimuli/rescaled_final/0181_fw.mp4	0.0	134.60948848724365	
19	119.07592797279358	movie	1		292	17.0	2.5	/experiments/Knapen_AOT/AOT_stimuli/rescaled_final/0181_fw.mp4	0.0	135.03434538841248	2.4920239448547363
19	120.24955439567566	pulse	1	t		17.0	2.5	/experiments/Knapen_AOT/AOT_stimuli/rescaled_final/0181_fw.mp4	0.0	136.20797181129456	
19	121.56795191764832	fix_post	2		12	17.0	2.5	/experiments/Knapen_AOT/AOT_stimuli/rescaled_final/0181_fw.mp4	0.0	137.5263693332672	0.10004377365112305
20	121.66799569129944	fix_pre	0		120	18.0	2.5	/experiments/Knapen_AOT/AOT_stimuli/rescaled_final/1806_rv.mp4	0.0	137.62641310691833	1.0085124969482422
20	121.85173201560974	pulse	0	t		18.0	2.5	/experiments/Knapen_AOT/AOT_stimuli/rescaled_final/1806_rv.mp4	0.0	137.81014943122864	
20	122.67650818824768	movie	1		278	18.0	2.5	/experiments/Knapen_AOT/AOT_stimuli/rescaled_final/1806_rv.mp4	0.0	138.63492560386658	2.491987943649292
20	123.45027470588684	pulse	1	t		18.0	2.5	/experiments/Knapen_AOT/AOT_stimuli/rescaled_final/1806_rv.mp4	0.0	139.40869212150574	
20	125.04994034767151	pulse	1	t		18.0	2.5	/experiments/Knapen_AOT/AOT_stimuli/rescaled_final/1806_rv.mp4	0.0	141.0083577632904	
20	125.16849613189697	fix_post	2		12	18.0	2.5	/experiments/Knapen_AOT/AOT_stimuli/rescaled_final/1806_rv.mp4	0.0	141.12691354751587	0.10008931159973145
21	125.2685854434967	fix_pre	0		120	19.0	2.5	/experiments/Knapen_AOT/AOT_stimuli/rescaled_final/0474_fw.mp4	0.0	141.2270028591156	1.0084364414215088
21	126.27702188491821	movie	1		289	19.0	2.5	/experiments/Knapen_AOT/AOT_stimuli/rescaled_final/0474_fw.mp4	0.0	142.2354393005371	2.492037296295166
21	126.65029740333557	pulse	1	t		19.0	2.5	/experiments/Knapen_AOT/AOT_stimuli/rescaled_final/0474_fw.mp4	0.0	142.60871481895447	
21	128.2445945739746	pulse	1	t		19.0	2.5	/experiments/Knapen_AOT/AOT_stimuli/rescaled_final/0474_fw.mp4	0.0	144.2030119895935	
21	128.76905918121338	fix_post	2		12	19.0	2.5	/experiments/Knapen_AOT/AOT_stimuli/rescaled_final/0474_fw.mp4	0.0	144.72747659683228	0.10000133514404297
22	128.86906051635742	fix_pre	0		118	20.0	2.5	/experiments/Knapen_AOT/AOT_stimuli/rescaled_final/0772_fw.mp4	0.0	144.82747793197632	0.9918615818023682
22	129.84464764595032	pulse	0	t		20.0	2.5	/experiments/Knapen_AOT/AOT_stimuli/rescaled_final/0772_fw.mp4	0.0	145.8030650615692	
22	129.8609220981598	movie	1		285	20.0	2.5	/experiments/Knapen_AOT/AOT_stimuli/rescaled_final/0772_fw.mp4	0.0	145.8193395137787	2.5003316402435303
22	131.44498252868652	pulse	1	t		20.0	2.5	/experiments/Knapen_AOT/AOT_stimuli/rescaled_final/0772_fw.mp4	0.0	147.40339994430542	
22	132.36125373840332	fix_post	2		12	20.0	2.5	/experiments/Knapen_AOT/AOT_stimuli/rescaled_final/0772_fw.mp4	0.0	148.31967115402222	0.1000678539276123
23	132.46132159233093	fix_pre	0		120	21.0	2.5	blank	1.0	148.41973900794983	1.0000662803649902
23	133.04488682746887	pulse	0	t		21.0	2.5	blank	1.0	149.00330424308777	
23	133.46138787269592	movie	1		300	21.0	2.5	blank	1.0	149.41980528831482	2.5004351139068604
23	134.64521026611328	pulse	1	t		21.0	2.5	blank	1.0	150.60362768173218	
23	135.96182298660278	fix_post	2		12	21.0	2.5	blank	1.0	151.92024040222168	0.09997677803039551
24	136.06179976463318	fix_pre	0		120	22.0	2.5	/experiments/Knapen_AOT/AOT_stimuli/rescaled_final/0031_rv.mp4	0.0	152.02021718025208	1.008533239364624
24	136.24541687965393	pulse	0	t		22.0	2.5	/experiments/Knapen_AOT/AOT_stimuli/rescaled_final/0031_rv.mp4	0.0	152.20383429527283	
24	137.0703330039978	movie	1		277	22.0	2.5	/experiments/Knapen_AOT/AOT_stimuli/rescaled_final/0031_rv.mp4	0.0	153.0287504196167	2.4919824600219727
24	137.84560108184814	pulse	1	t		22.0	2.5	/experiments/Knapen_AOT/AOT_stimuli/rescaled_final/0031_rv.mp4	0.0	153.80401849746704	
24	139.4459834098816	pulse	1	t		22.0	2.5	/experiments/Knapen_AOT/AOT_stimuli/rescaled_final/0031_rv.mp4	0.0	155.4044008255005	
24	139.56231546401978	fix_post	2		12	22.0	2.5	/experiments/Knapen_AOT/AOT_stimuli/rescaled_final/0031_rv.mp4	0.0	155.52073287963867	0.10001540184020996
25	139.66233086585999	fix_pre	0		120	23.0	2.5	/experiments/Knapen_AOT/AOT_stimuli/rescaled_final/0629_fw.mp4	0.0	155.62074828147888	1.0086500644683838
25	140.67098093032837	movie	1		276	23.0	2.5	/experiments/Knapen_AOT/AOT_stimuli/rescaled_final/0629_fw.mp4	0.0	156.62939834594727	2.4918808937072754
25	141.04515480995178	pulse	1	t		23.0	2.5	/experiments/Knapen_AOT/AOT_stimuli/rescaled_final/0629_fw.mp4	0.0	157.00357222557068	
25	142.64630651474	pulse	1	t		23.0	2.5	/experiments/Knapen_AOT/AOT_stimuli/rescaled_final/0629_fw.mp4	0.0	158.6047239303589	
25	143.16286182403564	fix_post	2		12	23.0	2.5	/experiments/Knapen_AOT/AOT_stimuli/rescaled_final/0629_fw.mp4	0.0	159.12127923965454	0.10001349449157715
26	143.26287531852722	fix_pre	0		119	24.0	2.5	/experiments/Knapen_AOT/AOT_stimuli/rescaled_final/1761_fw.mp4	0.0	159.22129273414612	1.0002076625823975
26	144.24690771102905	pulse	0	t		24.0	2.5	/experiments/Knapen_AOT/AOT_stimuli/rescaled_final/1761_fw.mp4	0.0	160.20532512664795	
26	144.26308298110962	movie	1		278	24.0	2.5	/experiments/Knapen_AOT/AOT_stimuli/rescaled_final/1761_fw.mp4	0.0	160.22150039672852	2.5003201961517334
26	145.845383644104	pulse	1	t		24.0	2.5	/experiments/Knapen_AOT/AOT_stimuli/rescaled_final/1761_fw.mp4	0.0	161.8038010597229	
26	146.76340317726135	fix_post	2		12	24.0	2.5	/experiments/Knapen_AOT/AOT_stimuli/rescaled_final/1761_fw.mp4	0.0	162.72182059288025	0.10001540184020996
27	146.86341857910156	fix_pre	0		120	25.0	2.5	/experiments/Knapen_AOT/AOT_stimuli/rescaled_final/1264_rv.mp4	0.0	162.82183599472046	1.0085039138793945
27	147.44702649116516	pulse	0	t		25.0	2.5	/experiments/Knapen_AOT/AOT_stimuli/rescaled_final/1264_rv.mp4	0.0	163.40544390678406	
27	147.87192249298096	movie	1		285	25.0	2.5	/experiments/Knapen_AOT/AOT_stimuli/rescaled_final/1264_rv.mp4	0.0	163.83033990859985	2.492009401321411
27	149.045636177063	pulse	1	t		25.0	2.5	/experiments/Knapen_AOT/AOT_stimuli/rescaled_final/1264_rv.mp4	0.0	165.00405359268188	
27	150.36393189430237	fix_post	2		12	25.0	2.5	/experiments/Knapen_AOT/AOT_stimuli/rescaled_final/1264_rv.mp4	0.0	166.32234930992126	0.10012125968933105
28	150.4640531539917	fix_pre	0		120	26.0	2.5	/experiments/Knapen_AOT/AOT_stimuli/rescaled_final/0948_fw.mp4	0.0	166.4224705696106	1.0084059238433838
28	150.64755392074585	pulse	0	t		26.0	2.5	/experiments/Knapen_AOT/AOT_stimuli/rescaled_final/0948_fw.mp4	0.0	166.60597133636475	
28	151.47245907783508	movie	1		284	26.0	2.5	/experiments/Knapen_AOT/AOT_stimuli/rescaled_final/0948_fw.mp4	0.0	167.43087649345398	2.4920194149017334
28	152.24576425552368	pulse	1	t		26.0	2.5	/experiments/Knapen_AOT/AOT_stimuli/rescaled_final/0948_fw.mp4	0.0	168.20418167114258	
28	153.8462839126587	pulse	1	t		26.0	2.5	/experiments/Knapen_AOT/AOT_stimuli/rescaled_final/0948_fw.mp4	0.0	169.8047013282776	
28	153.96447849273682	fix_post	2		12	26.0	2.5	/experiments/Knapen_AOT/AOT_stimuli/rescaled_final/0948_fw.mp4	0.0	169.9228959083557	0.10013461112976074
29	154.06461310386658	fix_pre	0		120	27.0	2.5	/experiments/Knapen_AOT/AOT_stimuli/rescaled_final/2052_rv.mp4	0.0	170.02303051948547	1.0083765983581543
29	155.07298970222473	movie	1		283	27.0	2.5	/experiments/Knapen_AOT/AOT_stimuli/rescaled_final/2052_rv.mp4	0.0	171.03140711784363	2.49202823638916
29	155.4484405517578	pulse	1	t		27.0	2.5	/experiments/Knapen_AOT/AOT_stimuli/rescaled_final/2052_rv.mp4	0.0	171.4068579673767	
29	157.04657173156738	pulse	1	t		27.0	2.5	/experiments/Knapen_AOT/AOT_stimuli/rescaled_final/2052_rv.mp4	0.0	173.00498914718628	
29	157.5650179386139	fix_post	2		12	27.0	2.5	/experiments/Knapen_AOT/AOT_stimuli/rescaled_final/2052_rv.mp4	0.0	173.5234353542328	0.10001754760742188
30	157.6650354862213	fix_pre	0		119	28.0	2.5	blank	1.0	173.6234529018402	0.9917914867401123
30	158.64872121810913	pulse	0	t		28.0	2.5	blank	1.0	174.60713863372803	
30	158.65682697296143	movie	1		301	28.0	2.5	blank	1.0	174.61524438858032	2.508755922317505
30	160.24899435043335	pulse	1	t		28.0	2.5	blank	1.0	176.20741176605225	
30	161.16558289527893	fix_post	2		12	28.0	2.5	blank	1.0	177.12400031089783	0.10003113746643066
31	161.26561403274536	fix_pre	0		120	29.0	2.5	/experiments/Knapen_AOT/AOT_stimuli/rescaled_final/0547_rv.mp4	0.0	177.22403144836426	1.0085036754608154
31	161.84920740127563	pulse	0	t		29.0	2.5	/experiments/Knapen_AOT/AOT_stimuli/rescaled_final/0547_rv.mp4	0.0	177.80762481689453	
31	162.27411770820618	movie	1		288	29.0	2.5	/experiments/Knapen_AOT/AOT_stimuli/rescaled_final/0547_rv.mp4	0.0	178.23253512382507	2.491960048675537
31	163.44800901412964	pulse	1	t		29.0	2.5	/experiments/Knapen_AOT/AOT_stimuli/rescaled_final/0547_rv.mp4	0.0	179.40642642974854	
31	164.7660777568817	fix_post	2		12	29.0	2.5	/experiments/Knapen_AOT/AOT_stimuli/rescaled_final/0547_rv.mp4	0.0	180.7244951725006	0.10000777244567871
32	164.8660855293274	fix_pre	0		120	30.0	2.5	/experiments/Knapen_AOT/AOT_stimuli/rescaled_final/0948_rv.mp4	0.0	180.8245029449463	1.0085270404815674
32	165.04960203170776	pulse	0	t		30.0	2.5	/experiments/Knapen_AOT/AOT_stimuli/rescaled_final/0948_rv.mp4	0.0	181.00801944732666	
32	165.87461256980896	movie	1		299	30.0	2.5	/experiments/Knapen_AOT/AOT_stimuli/rescaled_final/0948_rv.mp4	0.0	181.83302998542786	2.4920220375061035
32	166.64554572105408	pulse	1	t		30.0	2.5	/experiments/Knapen_AOT/AOT_stimuli/rescaled_final/0948_rv.mp4	0.0	182.60396313667297	
32	168.24592328071594	pulse	1	t		30.0	2.5	/experiments/Knapen_AOT/AOT_stimuli/rescaled_final/0948_rv.mp4	0.0	184.20434069633484	
32	168.36663460731506	fix_post	2		12	30.0	2.5	/experiments/Knapen_AOT/AOT_stimuli/rescaled_final/0948_rv.mp4	0.0	184.32505202293396	0.10003662109375
33	168.4666712284088	fix_pre	0		120	31.0	2.5	/experiments/Knapen_AOT/AOT_stimuli/rescaled_final/1851_fw.mp4	0.0	184.4250886440277	1.0084686279296875
33	169.4751398563385	movie	1		295	31.0	2.5	/experiments/Knapen_AOT/AOT_stimuli/rescaled_final/1851_fw.mp4	0.0	185.4335572719574	2.492011070251465
33	169.84651160240173	pulse	1	t		31.0	2.5	/experiments/Knapen_AOT/AOT_stimuli/rescaled_final/1851_fw.mp4	0.0	185.80492901802063	
33	171.4480495452881	pulse	1	t		31.0	2.5	/experiments/Knapen_AOT/AOT_stimuli/rescaled_final/1851_fw.mp4	0.0	187.40646696090698	
33	171.96715092658997	fix_post	2		12	31.0	2.5	/experiments/Knapen_AOT/AOT_stimuli/rescaled_final/1851_fw.mp4	0.0	187.92556834220886	0.10003066062927246
34	172.06718158721924	fix_pre	0		119	32.0	2.5	/experiments/Knapen_AOT/AOT_stimuli/rescaled_final/0196_rv.mp4	0.0	188.02559900283813	1.000157356262207
34	173.0509147644043	pulse	0	t		32.0	2.5	/experiments/Knapen_AOT/AOT_stimuli/rescaled_final/0196_rv.mp4	0.0	189.0093321800232	
34	173.06733894348145	movie	1		297	32.0	2.5	/experiments/Knapen_AOT/AOT_stimuli/rescaled_final/0196_rv.mp4	0.0	189.02575635910034	2.5003533363342285
34	174.6499788761139	pulse	1	t		32.0	2.5	/experiments/Knapen_AOT/AOT_stimuli/rescaled_final/0196_rv.mp4	0.0	190.6083962917328	
34	175.56769227981567	fix_post	2		12	32.0	2.5	/experiments/Knapen_AOT/AOT_stimuli/rescaled_final/0196_rv.mp4	0.0	191.52610969543457	0.10019946098327637
35	175.66789174079895	fix_pre	0		120	33.0	2.5	/experiments/Knapen_AOT/AOT_stimuli/rescaled_final/1275_fw.mp4	0.0	191.62630915641785	0.9999685287475586
35	176.2512457370758	pulse	0	t		33.0	2.5	/experiments/Knapen_AOT/AOT_stimuli/rescaled_final/1275_fw.mp4	0.0	192.2096631526947	
35	176.6678602695465	movie	1		293	33.0	2.5	/experiments/Knapen_AOT/AOT_stimuli/rescaled_final/1275_fw.mp4	0.0	192.6262776851654	2.500368595123291
35	177.84912967681885	pulse	1	t		33.0	2.5	/experiments/Knapen_AOT/AOT_stimuli/rescaled_final/1275_fw.mp4	0.0	193.80754709243774	
35	179.1682288646698	fix_post	2		12	33.0	2.5	/experiments/Knapen_AOT/AOT_stimuli/rescaled_final/1275_fw.mp4	0.0	195.1266462802887	0.1000213623046875
36	179.2682502269745	fix_pre	0		120	34.0	2.5	/experiments/Knapen_AOT/AOT_stimuli/rescaled_final/1408_rv.mp4	0.0	195.22666764259338	1.0085382461547852
36	179.4437916278839	pulse	0	t		34.0	2.5	/experiments/Knapen_AOT/AOT_stimuli/rescaled_final/1408_rv.mp4	0.0	195.4022090435028	
36	180.27678847312927	movie	1		277	34.0	2.5	/experiments/Knapen_AOT/AOT_stimuli/rescaled_final/1408_rv.mp4	0.0	196.23520588874817	2.4920530319213867
36	181.04385471343994	pulse	1	t		34.0	2.5	/experiments/Knapen_AOT/AOT_stimuli/rescaled_final/1408_rv.mp4	0.0	197.00227212905884	
36	182.64397478103638	pulse	1	t		34.0	2.5	/experiments/Knapen_AOT/AOT_stimuli/rescaled_final/1408_rv.mp4	0.0	198.60239219665527	
36	182.76884150505066	fix_post	2		12	34.0	2.5	/experiments/Knapen_AOT/AOT_stimuli/rescaled_final/1408_rv.mp4	0.0	198.72725892066956	0.1000814437866211
37	182.86892294883728	fix_pre	0		120	35.0	2.5	blank	1.0	198.82734036445618	1.0000686645507812
37	183.86899161338806	movie	1		299	35.0	2.5	blank	1.0	199.82740902900696	2.492023229598999
37	184.2442491054535	pulse	1	t		35.0	2.5	blank	1.0	200.2026665210724	
37	185.84446811676025	pulse	1	t		35.0	2.5	blank	1.0	201.80288553237915	
37	186.36101484298706	fix_post	2		12	35.0	2.5	blank	1.0	202.31943225860596	0.09999895095825195
38	186.4610137939453	fix_pre	0		119	36.0	2.5	/experiments/Knapen_AOT/AOT_stimuli/rescaled_final/0515_fw.mp4	0.0	202.4194312095642	1.0001749992370605
38	187.44477081298828	pulse	0	t		36.0	2.5	/experiments/Knapen_AOT/AOT_stimuli/rescaled_final/0515_fw.mp4	0.0	203.40318822860718	
38	187.46118879318237	movie	1		269	36.0	2.5	/experiments/Knapen_AOT/AOT_stimuli/rescaled_final/0515_fw.mp4	0.0	203.41960620880127	2.5003511905670166
38	189.0450701713562	pulse	1	t		36.0	2.5	/experiments/Knapen_AOT/AOT_stimuli/rescaled_final/0515_fw.mp4	0.0	205.0034875869751	
38	189.9615399837494	fix_post	2		12	36.0	2.5	/experiments/Knapen_AOT/AOT_stimuli/rescaled_final/0515_fw.mp4	0.0	205.9199573993683	0.10003089904785156
39	190.06157088279724	fix_pre	0		120	37.0	2.5	/experiments/Knapen_AOT/AOT_stimuli/rescaled_final/0953_rv.mp4	0.0	206.01998829841614	1.0085172653198242
39	190.64544105529785	pulse	0	t		37.0	2.5	/experiments/Knapen_AOT/AOT_stimuli/rescaled_final/0953_rv.mp4	0.0	206.60385847091675	
39	191.07008814811707	movie	1		279	37.0	2.5	/experiments/Knapen_AOT/AOT_stimuli/rescaled_final/0953_rv.mp4	0.0	207.02850556373596	2.4920003414154053
39	192.24556827545166	pulse	1	t		37.0	2.5	/experiments/Knapen_AOT/AOT_stimuli/rescaled_final/0953_rv.mp4	0.0	208.20398569107056	
39	193.56208848953247	fix_post	2		12	37.0	2.5	/experiments/Knapen_AOT/AOT_stimuli/rescaled_final/0953_rv.mp4	0.0	209.52050590515137	0.09999966621398926
40	193.66208815574646	fix_pre	0		120	38.0	2.5	/experiments/Knapen_AOT/AOT_stimuli/rescaled_final/2117_rv.mp4	0.0	209.62050557136536	1.0085020065307617
40	193.84572196006775	pulse	0	t		38.0	2.5	/experiments/Knapen_AOT/AOT_stimuli/rescaled_final/2117_rv.mp4	0.0	209.80413937568665	
40	194.67059016227722	movie	1		293	38.0	2.5	/experiments/Knapen_AOT/AOT_stimuli/rescaled_final/2117_rv.mp4	0.0	210.62900757789612	2.492004156112671
40	195.44419026374817	pulse	1	t		38.0	2.5	/experiments/Knapen_AOT/AOT_stimuli/rescaled_final/2117_rv.mp4	0.0	211.40260767936707	
40	197.04606008529663	pulse	1	t		38.0	2.5	/experiments/Knapen_AOT/AOT_stimuli/rescaled_final/2117_rv.mp4	0.0	213.00447750091553	
40	197.1625943183899	fix_post	2		12	38.0	2.5	/experiments/Knapen_AOT/AOT_stimuli/rescaled_final/2117_rv.mp4	0.0	213.1210117340088	0.10008645057678223
41	197.26268076896667	fix_pre	0		120	39.0	2.5	/experiments/Knapen_AOT/AOT_stimuli/rescaled_final/1054_fw.mp4	0.0	213.22109818458557	1.0000567436218262
41	198.2627375125885	movie	1		297	39.0	2.5	/experiments/Knapen_AOT/AOT_stimuli/rescaled_final/1054_fw.mp4	0.0	214.2211549282074	2.5003936290740967
41	198.64375710487366	pulse	1	t		39.0	2.5	/experiments/Knapen_AOT/AOT_stimuli/rescaled_final/1054_fw.mp4	0.0	214.60217452049255	
41	200.24651169776917	pulse	1	t		39.0	2.5	/experiments/Knapen_AOT/AOT_stimuli/rescaled_final/1054_fw.mp4	0.0	216.20492911338806	
41	200.7631311416626	fix_post	2		12	39.0	2.5	/experiments/Knapen_AOT/AOT_stimuli/rescaled_final/1054_fw.mp4	0.0	216.7215485572815	0.10002350807189941
42	200.8631546497345	fix_pre	0		119	40.0	2.5	/experiments/Knapen_AOT/AOT_stimuli/rescaled_final/1882_rv.mp4	0.0	216.8215720653534	1.0001981258392334
42	201.8469376564026	pulse	0	t		40.0	2.5	/experiments/Knapen_AOT/AOT_stimuli/rescaled_final/1882_rv.mp4	0.0	217.80535507202148	
42	201.86335277557373	movie	1		292	40.0	2.5	/experiments/Knapen_AOT/AOT_stimuli/rescaled_final/1882_rv.mp4	0.0	217.82177019119263	2.5003392696380615
42	203.4448356628418	pulse	1	t		40.0	2.5	/experiments/Knapen_AOT/AOT_stimuli/rescaled_final/1882_rv.mp4	0.0	219.4032530784607	
42	204.3636920452118	fix_post	2		12	40.0	2.5	/experiments/Knapen_AOT/AOT_stimuli/rescaled_final/1882_rv.mp4	0.0	220.3221094608307	0.10000014305114746
43	204.46369218826294	fix_pre	0		120	41.0	2.5	/experiments/Knapen_AOT/AOT_stimuli/rescaled_final/0271_fw.mp4	0.0	220.42210960388184	1.008530616760254
43	205.0475151538849	pulse	0	t		41.0	2.5	/experiments/Knapen_AOT/AOT_stimuli/rescaled_final/0271_fw.mp4	0.0	221.00593256950378	
43	205.4722228050232	movie	1		286	41.0	2.5	/experiments/Knapen_AOT/AOT_stimuli/rescaled_final/0271_fw.mp4	0.0	221.4306402206421	2.492021322250366
43	206.64578008651733	pulse	1	t		41.0	2.5	/experiments/Knapen_AOT/AOT_stimuli/rescaled_final/0271_fw.mp4	0.0	222.60419750213623	
43	207.96424412727356	fix_post	2		12	41.0	2.5	/experiments/Knapen_AOT/AOT_stimuli/rescaled_final/0271_fw.mp4	0.0	223.92266154289246	0.10000348091125488
44	208.06424760818481	fix_pre	0		120	42.0	2.5	blank	1.0	224.0226650238037	1.0001730918884277
44	208.24782133102417	pulse	0	t		42.0	2.5	blank	1.0	224.20623874664307	
44	209.06442070007324	movie	1		300	42.0	2.5	blank	1.0	225.02283811569214	2.500375270843506
44	209.84815073013306	pulse	1	t		42.0	2.5	blank	1.0	225.80656814575195	
44	211.4482545852661	pulse	1	t		42.0	2.5	blank	1.0	227.406672000885	
44	211.56479597091675	fix_post	2		12	42.0	2.5	blank	1.0	227.52321338653564	0.10000109672546387
45	211.6647970676422	fix_pre	0		120	43.0	2.5	/experiments/Knapen_AOT/AOT_stimuli/rescaled_final/0236_fw.mp4	0.0	227.6232144832611	1.0085093975067139
45	212.67330646514893	movie	1		281	43.0	2.5	/experiments/Knapen_AOT/AOT_stimuli/rescaled_final/0236_fw.mp4	0.0	228.63172388076782	2.4920718669891357
45	213.04684162139893	pulse	1	t		43.0	2.5	/experiments/Knapen_AOT/AOT_stimuli/rescaled_final/0236_fw.mp4	0.0	229.00525903701782	
45	214.6465835571289	pulse	1	t		43.0	2.5	/experiments/Knapen_AOT/AOT_stimuli/rescaled_final/0236_fw.mp4	0.0	230.6050009727478	
45	215.16537833213806	fix_post	2		12	43.0	2.5	/experiments/Knapen_AOT/AOT_stimuli/rescaled_final/0236_fw.mp4	0.0	231.12379574775696	0.0999448299407959
46	215.26532316207886	fix_pre	0		119	44.0	2.5	/experiments/Knapen_AOT/AOT_stimuli/rescaled_final/0221_rv.mp4	0.0	231.22374057769775	1.0001792907714844
46	216.2491147518158	pulse	0	t		44.0	2.5	/experiments/Knapen_AOT/AOT_stimuli/rescaled_final/0221_rv.mp4	0.0	232.2075321674347	
46	216.26550245285034	movie	1		271	44.0	2.5	/experiments/Knapen_AOT/AOT_stimuli/rescaled_final/0221_rv.mp4	0.0	232.22391986846924	2.5003252029418945
46	217.84787702560425	pulse	1	t		44.0	2.5	/experiments/Knapen_AOT/AOT_stimuli/rescaled_final/0221_rv.mp4	0.0	233.80629444122314	
46	218.76582765579224	fix_post	2		12	44.0	2.5	/experiments/Knapen_AOT/AOT_stimuli/rescaled_final/0221_rv.mp4	0.0	234.72424507141113	0.10005331039428711
47	218.86588096618652	fix_pre	0		120	45.0	2.5	/experiments/Knapen_AOT/AOT_stimuli/rescaled_final/0014_rv.mp4	0.0	234.82429838180542	1.0085489749908447
47	219.4495849609375	pulse	0	t		45.0	2.5	/experiments/Knapen_AOT/AOT_stimuli/rescaled_final/0014_rv.mp4	0.0	235.4080023765564	
47	219.87442994117737	movie	1		273	45.0	2.5	/experiments/Knapen_AOT/AOT_stimuli/rescaled_final/0014_rv.mp4	0.0	235.83284735679626	2.491948366165161
47	221.0478115081787	pulse	1	t		45.0	2.5	/experiments/Knapen_AOT/AOT_stimuli/rescaled_final/0014_rv.mp4	0.0	237.0062289237976	
47	222.36637830734253	fix_post	2		12	45.0	2.5	/experiments/Knapen_AOT/AOT_stimuli/rescaled_final/0014_rv.mp4	0.0	238.32479572296143	0.1000216007232666
48	222.4663999080658	fix_pre	0		120	46.0	2.5	/experiments/Knapen_AOT/AOT_stimuli/rescaled_final/0805_rv.mp4	0.0	238.4248173236847	1.008528232574463
48	222.64995646476746	pulse	0	t		46.0	2.5	/experiments/Knapen_AOT/AOT_stimuli/rescaled_final/0805_rv.mp4	0.0	238.60837388038635	
48	223.47492814064026	movie	1		267	46.0	2.5	/experiments/Knapen_AOT/AOT_stimuli/rescaled_final/0805_rv.mp4	0.0	239.43334555625916	2.4920003414154053
48	224.24818110466003	pulse	1	t		46.0	2.5	/experiments/Knapen_AOT/AOT_stimuli/rescaled_final/0805_rv.mp4	0.0	240.20659852027893	
48	225.84829306602478	pulse	1	t		46.0	2.5	/experiments/Knapen_AOT/AOT_stimuli/rescaled_final/0805_rv.mp4	0.0	241.80671048164368	
48	225.96692848205566	fix_post	2		12	46.0	2.5	/experiments/Knapen_AOT/AOT_stimuli/rescaled_final/0805_rv.mp4	0.0	241.92534589767456	0.10001182556152344
49	226.0669403076172	fix_pre	0		120	47.0	2.5	/experiments/Knapen_AOT/AOT_stimuli/rescaled_final/1945_fw.mp4	0.0	242.02535772323608	1.0085124969482422
49	227.07545280456543	movie	1		274	47.0	2.5	/experiments/Knapen_AOT/AOT_stimuli/rescaled_final/1945_fw.mp4	0.0	243.03387022018433	2.492034435272217
49	227.44909596443176	pulse	1	t		47.0	2.5	/experiments/Knapen_AOT/AOT_stimuli/rescaled_final/1945_fw.mp4	0.0	243.40751338005066	
49	229.04932188987732	pulse	1	t		47.0	2.5	/experiments/Knapen_AOT/AOT_stimuli/rescaled_final/1945_fw.mp4	0.0	245.00773930549622	
49	229.56748723983765	fix_post	2		12	47.0	2.5	/experiments/Knapen_AOT/AOT_stimuli/rescaled_final/1945_fw.mp4	0.0	245.52590465545654	0.10001492500305176
50	229.6675021648407	fix_pre	0		119	48.0	2.5	blank	1.0	245.6259195804596	0.9917984008789062
50	230.6512167453766	pulse	0	t		48.0	2.5	blank	1.0	246.60963416099548	
50	230.6593005657196	movie	1		301	48.0	2.5	blank	1.0	246.6177179813385	2.5087435245513916
50	232.24404382705688	pulse	1	t		48.0	2.5	blank	1.0	248.20246124267578	
50	233.168044090271	fix_post	2		12	48.0	2.5	blank	1.0	249.1264615058899	0.10008931159973145
51	233.26813340187073	fix_pre	0		120	49.0	2.5	/experiments/Knapen_AOT/AOT_stimuli/rescaled_final/1073_fw.mp4	0.0	249.22655081748962	1.0083820819854736
51	233.84453296661377	pulse	0	t		49.0	2.5	/experiments/Knapen_AOT/AOT_stimuli/rescaled_final/1073_fw.mp4	0.0	249.80295038223267	
51	234.2765154838562	movie	1		286	49.0	2.5	/experiments/Knapen_AOT/AOT_stimuli/rescaled_final/1073_fw.mp4	0.0	250.2349328994751	2.492037057876587
51	235.45010542869568	pulse	1	t		49.0	2.5	/experiments/Knapen_AOT/AOT_stimuli/rescaled_final/1073_fw.mp4	0.0	251.40852284431458	
51	236.7685525417328	fix_post	2		12	49.0	2.5	/experiments/Knapen_AOT/AOT_stimuli/rescaled_final/1073_fw.mp4	0.0	252.72696995735168	0.10003018379211426
52	236.8685827255249	fix_pre	0		120	50.0	2.5	/experiments/Knapen_AOT/AOT_stimuli/rescaled_final/1883_rv.mp4	0.0	252.8270001411438	1.0084946155548096
52	237.04459023475647	pulse	0	t		50.0	2.5	/experiments/Knapen_AOT/AOT_stimuli/rescaled_final/1883_rv.mp4	0.0	253.00300765037537	
52	237.8770773410797	movie	1		276	50.0	2.5	/experiments/Knapen_AOT/AOT_stimuli/rescaled_final/1883_rv.mp4	0.0	253.8354947566986	2.492050886154175
52	238.6442952156067	pulse	1	t		50.0	2.5	/experiments/Knapen_AOT/AOT_stimuli/rescaled_final/1883_rv.mp4	0.0	254.6027126312256	
52	240.2445831298828	pulse	1	t		50.0	2.5	/experiments/Knapen_AOT/AOT_stimuli/rescaled_final/1883_rv.mp4	0.0	256.2030005455017	
52	240.3691282272339	fix_post	2		12	50.0	2.5	/experiments/Knapen_AOT/AOT_stimuli/rescaled_final/1883_rv.mp4	0.0	256.3275456428528	0.10006999969482422
53	240.4691982269287	fix_pre	0		120	51.0	2.5	/experiments/Knapen_AOT/AOT_stimuli/rescaled_final/1452_fw.mp4	0.0	256.4276156425476	1.0084023475646973
53	241.4776005744934	movie	1		287	51.0	2.5	/experiments/Knapen_AOT/AOT_stimuli/rescaled_final/1452_fw.mp4	0.0	257.4360179901123	2.492039680480957
53	241.84477138519287	pulse	1	t		51.0	2.5	/experiments/Knapen_AOT/AOT_stimuli/rescaled_final/1452_fw.mp4	0.0	257.80318880081177	
53	243.4450626373291	pulse	1	t		51.0	2.5	/experiments/Knapen_AOT/AOT_stimuli/rescaled_final/1452_fw.mp4	0.0	259.403480052948	
53	243.96964025497437	fix_post	2		12	51.0	2.5	/experiments/Knapen_AOT/AOT_stimuli/rescaled_final/1452_fw.mp4	0.0	259.92805767059326	0.10001564025878906
54	244.06965589523315	fix_pre	0		118	52.0	2.5	/experiments/Knapen_AOT/AOT_stimuli/rescaled_final/0236_fw.mp4	0.0	260.02807331085205	0.9918210506439209
54	245.04505944252014	pulse	0	t		52.0	2.5	/experiments/Knapen_AOT/AOT_stimuli/rescaled_final/0236_fw.mp4	0.0	261.00347685813904	
54	245.06147694587708	movie	1		282	52.0	2.5	/experiments/Knapen_AOT/AOT_stimuli/rescaled_final/0236_fw.mp4	0.0	261.019894361496	2.500359535217285
54	246.64441227912903	pulse	1	t		52.0	2.5	/experiments/Knapen_AOT/AOT_stimuli/rescaled_final/0236_fw.mp4	0.0	262.6028296947479	
54	247.56183648109436	fix_post	2		12	52.0	2.5	/experiments/Knapen_AOT/AOT_stimuli/rescaled_final/0236_fw.mp4	0.0	263.52025389671326	0.10001611709594727
55	247.6618525981903	fix_pre	0		120	53.0	2.5	/experiments/Knapen_AOT/AOT_stimuli/rescaled_final/1945_fw.mp4	0.0	263.6202700138092	1.0085444450378418
55	248.2455370426178	pulse	0	t		53.0	2.5	/experiments/Knapen_AOT/AOT_stimuli/rescaled_final/1945_fw.mp4	0.0	264.2039544582367	
55	248.67039704322815	movie	1		284	53.0	2.5	/experiments/Knapen_AOT/AOT_stimuli/rescaled_final/1945_fw.mp4	0.0	264.62881445884705	2.4921231269836426
55	249.84586644172668	pulse	1	t		53.0	2.5	/experiments/Knapen_AOT/AOT_stimuli/rescaled_final/1945_fw.mp4	0.0	265.8042838573456	
55	251.1625201702118	fix_post	2		12	53.0	2.5	/experiments/Knapen_AOT/AOT_stimuli/rescaled_final/1945_fw.mp4	0.0	267.1209375858307	0.09989309310913086
56	251.26241326332092	fix_pre	0		120	54.0	2.5	blank	1.0	267.2208306789398	1.000157117843628
56	251.44604206085205	pulse	0	t		54.0	2.5	blank	1.0	267.40445947647095	
56	252.26257038116455	movie	1		300	54.0	2.5	blank	1.0	268.22098779678345	2.500375509262085
56	253.04625630378723	pulse	1	t		54.0	2.5	blank	1.0	269.0046737194061	
56	254.6465380191803	pulse	1	t		54.0	2.5	blank	1.0	270.6049554347992	
56	254.76294589042664	fix_post	2		12	54.0	2.5	blank	1.0	270.72136330604553	0.10005307197570801
57	254.86299896240234	fix_pre	0		120	55.0	2.5	/experiments/Knapen_AOT/AOT_stimuli/rescaled_final/0196_fw.mp4	0.0	270.82141637802124	1.0084691047668457
57	255.8714680671692	movie	1		284	55.0	2.5	/experiments/Knapen_AOT/AOT_stimuli/rescaled_final/0196_fw.mp4	0.0	271.8298854827881	2.4920506477355957
57	256.24536871910095	pulse	1	t		55.0	2.5	/experiments/Knapen_AOT/AOT_stimuli/rescaled_final/0196_fw.mp4	0.0	272.20378613471985	
57	257.845091342926	pulse	1	t		55.0	2.5	/experiments/Knapen_AOT/AOT_stimuli/rescaled_final/0196_fw.mp4	0.0	273.8035087585449	
57	258.3635187149048	fix_post	2		12	55.0	2.5	/experiments/Knapen_AOT/AOT_stimuli/rescaled_final/0196_fw.mp4	0.0	274.3219361305237	0.09999585151672363
58	258.4635145664215	fix_pre	0		119	56.0	2.5	/experiments/Knapen_AOT/AOT_stimuli/rescaled_final/1986_fw.mp4	0.0	274.4219319820404	1.000150442123413
58	259.44723629951477	pulse	0	t		56.0	2.5	/experiments/Knapen_AOT/AOT_stimuli/rescaled_final/1986_fw.mp4	0.0	275.40565371513367	
58	259.4636650085449	movie	1		288	56.0	2.5	/experiments/Knapen_AOT/AOT_stimuli/rescaled_final/1986_fw.mp4	0.0	275.4220824241638	2.500335693359375
58	261.0457479953766	pulse	1	t		56.0	2.5	/experiments/Knapen_AOT/AOT_stimuli/rescaled_final/1986_fw.mp4	0.0	277.0041654109955	
58	261.9640007019043	fix_post	2		12	56.0	2.5	/experiments/Knapen_AOT/AOT_stimuli/rescaled_final/1986_fw.mp4	0.0	277.9224181175232	0.10004258155822754
59	262.0640432834625	fix_pre	0		120	57.0	2.5	/experiments/Knapen_AOT/AOT_stimuli/rescaled_final/1054_rv.mp4	0.0	278.0224606990814	1.0084948539733887
59	262.6476352214813	pulse	0	t		57.0	2.5	/experiments/Knapen_AOT/AOT_stimuli/rescaled_final/1054_rv.mp4	0.0	278.6060526371002	
59	263.0725381374359	movie	1		285	57.0	2.5	/experiments/Knapen_AOT/AOT_stimuli/rescaled_final/1054_rv.mp4	0.0	279.0309555530548	2.492030143737793
59	264.2462389469147	pulse	1	t		57.0	2.5	/experiments/Knapen_AOT/AOT_stimuli/rescaled_final/1054_rv.mp4	0.0	280.20465636253357	
59	265.5645682811737	fix_post	2		12	57.0	2.5	/experiments/Knapen_AOT/AOT_stimuli/rescaled_final/1054_rv.mp4	0.0	281.5229856967926	0.10002994537353516
60	265.66459822654724	fix_pre	0		120	58.0	2.5	/experiments/Knapen_AOT/AOT_stimuli/rescaled_final/1299_rv.mp4	0.0	281.62301564216614	1.0084562301635742
60	265.8481013774872	pulse	0	t		58.0	2.5	/experiments/Knapen_AOT/AOT_stimuli/rescaled_final/1299_rv.mp4	0.0	281.8065187931061	
60	266.6730544567108	movie	1		270	58.0	2.5	/experiments/Knapen_AOT/AOT_stimuli/rescaled_final/1299_rv.mp4	0.0	282.6314718723297	2.4920876026153564
60	267.44641065597534	pulse	1	t		58.0	2.5	/experiments/Knapen_AOT/AOT_stimuli/rescaled_final/1299_rv.mp4	0.0	283.40482807159424	
60	269.04768538475037	pulse	1	t		58.0	2.5	/experiments/Knapen_AOT/AOT_stimuli/rescaled_final/1299_rv.mp4	0.0	285.00610280036926	
60	269.1651420593262	fix_post	2		12	58.0	2.5	/experiments/Knapen_AOT/AOT_stimuli/rescaled_final/1299_rv.mp4	0.0	285.12355947494507	0.09997177124023438
61	269.2651138305664	fix_pre	0		120	59.0	2.5	/experiments/Knapen_AOT/AOT_stimuli/rescaled_final/1378_fw.mp4	0.0	285.2235312461853	1.0085182189941406
61	270.27363204956055	movie	1		272	59.0	2.5	/experiments/Knapen_AOT/AOT_stimuli/rescaled_final/1378_fw.mp4	0.0	286.23204946517944	2.492016077041626
61	270.647527217865	pulse	1	t		59.0	2.5	/experiments/Knapen_AOT/AOT_stimuli/rescaled_final/1378_fw.mp4	0.0	286.6059446334839	
61	272.2471344470978	pulse	1	t		59.0	2.5	/experiments/Knapen_AOT/AOT_stimuli/rescaled_final/1378_fw.mp4	0.0	288.2055518627167	
61	272.7656481266022	fix_post	2		12	59.0	2.5	/experiments/Knapen_AOT/AOT_stimuli/rescaled_final/1378_fw.mp4	0.0	288.72406554222107	0.10015249252319336
62	272.86580061912537	fix_pre	0		119	60.0	2.5	/experiments/Knapen_AOT/AOT_stimuli/rescaled_final/0242_fw.mp4	0.0	288.82421803474426	1.000044345855713
62	273.84947681427	pulse	0	t		60.0	2.5	/experiments/Knapen_AOT/AOT_stimuli/rescaled_final/0242_fw.mp4	0.0	289.8078942298889	
62	273.8658449649811	movie	1		279	60.0	2.5	/experiments/Knapen_AOT/AOT_stimuli/rescaled_final/0242_fw.mp4	0.0	289.8242623806	2.5003397464752197
62	275.44813227653503	pulse	1	t		60.0	2.5	/experiments/Knapen_AOT/AOT_stimuli/rescaled_final/0242_fw.mp4	0.0	291.40654969215393	
62	276.3661847114563	fix_post	2		12	60.0	2.5	/experiments/Knapen_AOT/AOT_stimuli/rescaled_final/0242_fw.mp4	0.0	292.3246021270752	0.10003542900085449
63	276.46622014045715	fix_pre	0		120	61.0	2.5	/experiments/Knapen_AOT/AOT_stimuli/rescaled_final/1493_fw.mp4	0.0	292.42463755607605	1.0084865093231201
63	277.05009627342224	pulse	0	t		61.0	2.5	/experiments/Knapen_AOT/AOT_stimuli/rescaled_final/1493_fw.mp4	0.0	293.00851368904114	
63	277.4747066497803	movie	1		280	61.0	2.5	/experiments/Knapen_AOT/AOT_stimuli/rescaled_final/1493_fw.mp4	0.0	293.43312406539917	2.492020606994629
63	278.64820766448975	pulse	1	t		61.0	2.5	/experiments/Knapen_AOT/AOT_stimuli/rescaled_final/1493_fw.mp4	0.0	294.60662508010864	
63	279.9667272567749	fix_post	2		12	61.0	2.5	/experiments/Knapen_AOT/AOT_stimuli/rescaled_final/1493_fw.mp4	0.0	295.9251446723938	0.10001039505004883
64	280.06673765182495	fix_pre	0		120	62.0	2.5	blank	1.0	296.02515506744385	1.0002565383911133
64	280.2502586841583	pulse	0	t		62.0	2.5	blank	1.0	296.2086760997772	
64	281.06699419021606	movie	1		300	62.0	2.5	blank	1.0	297.02541160583496	2.500298500061035
64	281.8507218360901	pulse	1	t		62.0	2.5	blank	1.0	297.809139251709	
64	283.4508972167969	pulse	1	t		62.0	2.5	blank	1.0	299.40931463241577	
64	283.5672926902771	fix_post	2		12	62.0	2.5	blank	1.0	299.525710105896	0.09998846054077148
65	283.66728115081787	fix_pre	0		120	63.0	2.5	/experiments/Knapen_AOT/AOT_stimuli/rescaled_final/1382_fw.mp4	0.0	299.62569856643677	1.008507251739502
65	284.6757884025574	movie	1		279	63.0	2.5	/experiments/Knapen_AOT/AOT_stimuli/rescaled_final/1382_fw.mp4	0.0	300.63420581817627	2.4920125007629395
65	285.0508944988251	pulse	1	t		63.0	2.5	/experiments/Knapen_AOT/AOT_stimuli/rescaled_final/1382_fw.mp4	0.0	301.00931191444397	
65	286.6494824886322	pulse	1	t		63.0	2.5	/experiments/Knapen_AOT/AOT_stimuli/rescaled_final/1382_fw.mp4	0.0	302.6078999042511	
65	287.1678009033203	fix_post	2		12	63.0	2.5	/experiments/Knapen_AOT/AOT_stimuli/rescaled_final/1382_fw.mp4	0.0	303.1262183189392	0.10006856918334961
66	287.26786947250366	fix_pre	0		119	64.0	2.5	/experiments/Knapen_AOT/AOT_stimuli/rescaled_final/0853_rv.mp4	0.0	303.22628688812256	1.0004162788391113
66	288.2515823841095	pulse	0	t		64.0	2.5	/experiments/Knapen_AOT/AOT_stimuli/rescaled_final/0853_rv.mp4	0.0	304.2099997997284	
66	288.2682857513428	movie	1		288	64.0	2.5	/experiments/Knapen_AOT/AOT_stimuli/rescaled_final/0853_rv.mp4	0.0	304.22670316696167	2.50003981590271
66	289.8507378101349	pulse	1	t		64.0	2.5	/experiments/Knapen_AOT/AOT_stimuli/rescaled_final/0853_rv.mp4	0.0	305.8091552257538	
66	290.7683255672455	fix_post	2		12	64.0	2.5	/experiments/Knapen_AOT/AOT_stimuli/rescaled_final/0853_rv.mp4	0.0	306.7267429828644	0.10004949569702148
67	290.8683750629425	fix_pre	0		120	65.0	2.5	/experiments/Knapen_AOT/AOT_stimuli/rescaled_final/1079_fw.mp4	0.0	306.8267924785614	1.0085127353668213
67	291.4520523548126	pulse	0	t		65.0	2.5	/experiments/Knapen_AOT/AOT_stimuli/rescaled_final/1079_fw.mp4	0.0	307.4104697704315	
67	291.8768877983093	movie	1		270	65.0	2.5	/experiments/Knapen_AOT/AOT_stimuli/rescaled_final/1079_fw.mp4	0.0	307.8353052139282	2.492016553878784
67	293.05270504951477	pulse	1	t		65.0	2.5	/experiments/Knapen_AOT/AOT_stimuli/rescaled_final/1079_fw.mp4	0.0	309.01112246513367	
67	294.3689043521881	fix_post	2		12	65.0	2.5	/experiments/Knapen_AOT/AOT_stimuli/rescaled_final/1079_fw.mp4	0.0	310.327321767807	0.10000348091125488
68	294.46890783309937	fix_pre	0		120	66.0	2.5	/experiments/Knapen_AOT/AOT_stimuli/rescaled_final/1627_fw.mp4	0.0	310.42732524871826	1.0084993839263916
68	294.6447732448578	pulse	0	t		66.0	2.5	/experiments/Knapen_AOT/AOT_stimuli/rescaled_final/1627_fw.mp4	0.0	310.6031906604767	
68	295.47740721702576	movie	1		270	66.0	2.5	/experiments/Knapen_AOT/AOT_stimuli/rescaled_final/1627_fw.mp4	0.0	311.43582463264465	2.4920167922973633
68	296.245032787323	pulse	1	t		66.0	2.5	/experiments/Knapen_AOT/AOT_stimuli/rescaled_final/1627_fw.mp4	0.0	312.2034502029419	
68	297.84473609924316	pulse	1	t		66.0	2.5	/experiments/Knapen_AOT/AOT_stimuli/rescaled_final/1627_fw.mp4	0.0	313.80315351486206	
68	297.9694240093231	fix_post	2		12	66.0	2.5	/experiments/Knapen_AOT/AOT_stimuli/rescaled_final/1627_fw.mp4	0.0	313.927841424942	0.10000371932983398
69	298.06942772865295	fix_pre	0		120	67.0	2.5	/experiments/Knapen_AOT/AOT_stimuli/rescaled_final/1168_rv.mp4	0.0	314.02784514427185	1.008570671081543
69	299.0779983997345	movie	1		283	67.0	2.5	/experiments/Knapen_AOT/AOT_stimuli/rescaled_final/1168_rv.mp4	0.0	315.0364158153534	2.4919962882995605
69	299.4452040195465	pulse	1	t		67.0	2.5	/experiments/Knapen_AOT/AOT_stimuli/rescaled_final/1168_rv.mp4	0.0	315.4036214351654	
69	301.04513120651245	pulse	1	t		67.0	2.5	/experiments/Knapen_AOT/AOT_stimuli/rescaled_final/1168_rv.mp4	0.0	317.00354862213135	
69	301.56999468803406	fix_post	2		12	67.0	2.5	/experiments/Knapen_AOT/AOT_stimuli/rescaled_final/1168_rv.mp4	0.0	317.52841210365295	0.10003900527954102
70	301.6700336933136	fix_pre	0		118	68.0	2.5	/experiments/Knapen_AOT/AOT_stimuli/rescaled_final/0226_rv.mp4	0.0	317.6284511089325	0.9917399883270264
70	302.645712852478	pulse	0	t		68.0	2.5	/experiments/Knapen_AOT/AOT_stimuli/rescaled_final/0226_rv.mp4	0.0	318.6041302680969	
70	302.6617736816406	movie	1		285	68.0	2.5	/experiments/Knapen_AOT/AOT_stimuli/rescaled_final/0226_rv.mp4	0.0	318.6201910972595	2.5004920959472656
70	304.24565601348877	pulse	1	t		68.0	2.5	/experiments/Knapen_AOT/AOT_stimuli/rescaled_final/0226_rv.mp4	0.0	320.20407342910767	
70	305.1622657775879	fix_post	2		12	68.0	2.5	/experiments/Knapen_AOT/AOT_stimuli/rescaled_final/0226_rv.mp4	0.0	321.1206831932068	0.09993100166320801
71	305.2621967792511	fix_pre	0		120	69.0	2.5	/experiments/Knapen_AOT/AOT_stimuli/rescaled_final/1945_rv.mp4	0.0	321.22061419487	1.008558750152588
71	305.8458559513092	pulse	0	t		69.0	2.5	/experiments/Knapen_AOT/AOT_stimuli/rescaled_final/1945_rv.mp4	0.0	321.8042733669281	
71	306.2707555294037	movie	1		285	69.0	2.5	/experiments/Knapen_AOT/AOT_stimuli/rescaled_final/1945_rv.mp4	0.0	322.2291729450226	2.4919850826263428
71	307.4462881088257	pulse	1	t		69.0	2.5	/experiments/Knapen_AOT/AOT_stimuli/rescaled_final/1945_rv.mp4	0.0	323.4047055244446	
71	308.76274061203003	fix_post	2		12	69.0	2.5	/experiments/Knapen_AOT/AOT_stimuli/rescaled_final/1945_rv.mp4	0.0	324.7211580276489	0.10000252723693848
72	308.86274313926697	fix_pre	0		120	70.0	2.5	blank	1.0	324.82116055488586	1.0001435279846191
72	309.04633259773254	pulse	0	t		70.0	2.5	blank	1.0	325.00475001335144	
72	309.8628866672516	movie	1		300	70.0	2.5	blank	1.0	325.8213040828705	2.500382423400879
72	310.6465449333191	pulse	1	t		70.0	2.5	blank	1.0	326.604962348938	
72	312.2468373775482	pulse	1	t		70.0	2.5	blank	1.0	328.2052547931671	
72	312.36326909065247	fix_post	2		12	70.0	2.5	blank	1.0	328.32168650627136	0.10004162788391113
73	312.4633107185364	fix_pre	0		120	71.0	2.5	/experiments/Knapen_AOT/AOT_stimuli/rescaled_final/1194_rv.mp4	0.0	328.4217281341553	1.008429765701294
73	313.47174048423767	movie	1		286	71.0	2.5	/experiments/Knapen_AOT/AOT_stimuli/rescaled_final/1194_rv.mp4	0.0	329.43015789985657	2.492269992828369
73	313.84520983695984	pulse	1	t		71.0	2.5	/experiments/Knapen_AOT/AOT_stimuli/rescaled_final/1194_rv.mp4	0.0	329.80362725257874	
73	315.44774413108826	pulse	1	t		71.0	2.5	/experiments/Knapen_AOT/AOT_stimuli/rescaled_final/1194_rv.mp4	0.0	331.40616154670715	
73	315.96401047706604	fix_post	2		12	71.0	2.5	/experiments/Knapen_AOT/AOT_stimuli/rescaled_final/1194_rv.mp4	0.0	331.92242789268494	0.09978675842285156
74	316.0637972354889	fix_pre	0		119	72.0	2.5	/experiments/Knapen_AOT/AOT_stimuli/rescaled_final/1724_rv.mp4	0.0	332.0222146511078	1.000136137008667
74	317.04775977134705	pulse	0	t		72.0	2.5	/experiments/Knapen_AOT/AOT_stimuli/rescaled_final/1724_rv.mp4	0.0	333.00617718696594	
74	317.06393337249756	movie	1		275	72.0	2.5	/experiments/Knapen_AOT/AOT_stimuli/rescaled_final/1724_rv.mp4	0.0	333.02235078811646	2.500408887863159
74	318.6473684310913	pulse	1	t		72.0	2.5	/experiments/Knapen_AOT/AOT_stimuli/rescaled_final/1724_rv.mp4	0.0	334.6057858467102	
74	319.5643422603607	fix_post	2		12	72.0	2.5	/experiments/Knapen_AOT/AOT_stimuli/rescaled_final/1724_rv.mp4	0.0	335.5227596759796	0.1000065803527832
75	319.6643488407135	fix_pre	0		120	73.0	2.5	/experiments/Knapen_AOT/AOT_stimuli/rescaled_final/0638_fw.mp4	0.0	335.6227662563324	1.0084760189056396
75	320.24794697761536	pulse	0	t		73.0	2.5	/experiments/Knapen_AOT/AOT_stimuli/rescaled_final/0638_fw.mp4	0.0	336.20636439323425	
75	320.67282485961914	movie	1		269	73.0	2.5	/experiments/Knapen_AOT/AOT_stimuli/rescaled_final/0638_fw.mp4	0.0	336.63124227523804	2.4920496940612793
75	321.8473219871521	pulse	1	t		73.0	2.5	/experiments/Knapen_AOT/AOT_stimuli/rescaled_final/0638_fw.mp4	0.0	337.805739402771	
75	323.1648745536804	fix_post	2		12	73.0	2.5	/experiments/Knapen_AOT/AOT_stimuli/rescaled_final/0638_fw.mp4	0.0	339.1232919692993	0.10004949569702148
76	323.26492404937744	fix_pre	0		120	74.0	2.5	/experiments/Knapen_AOT/AOT_stimuli/rescaled_final/1148_rv.mp4	0.0	339.22334146499634	1.008528232574463
76	323.4484770298004	pulse	0	t		74.0	2.5	/experiments/Knapen_AOT/AOT_stimuli/rescaled_final/1148_rv.mp4	0.0	339.4068944454193	
76	324.2734522819519	movie	1		279	74.0	2.5	/experiments/Knapen_AOT/AOT_stimuli/rescaled_final/1148_rv.mp4	0.0	340.2318696975708	2.492011785507202
76	325.0469584465027	pulse	1	t		74.0	2.5	/experiments/Knapen_AOT/AOT_stimuli/rescaled_final/1148_rv.mp4	0.0	341.0053758621216	
76	326.64734959602356	pulse	1	t		74.0	2.5	/experiments/Knapen_AOT/AOT_stimuli/rescaled_final/1148_rv.mp4	0.0	342.60576701164246	
76	326.7654640674591	fix_post	2		12	74.0	2.5	/experiments/Knapen_AOT/AOT_stimuli/rescaled_final/1148_rv.mp4	0.0	342.723881483078	0.1001429557800293
77	326.86560702323914	fix_pre	0		120	75.0	2.5	/experiments/Knapen_AOT/AOT_stimuli/rescaled_final/1122_rv.mp4	0.0	342.82402443885803	1.0084731578826904
77	327.8740801811218	movie	1		269	75.0	2.5	/experiments/Knapen_AOT/AOT_stimuli/rescaled_final/1122_rv.mp4	0.0	343.8324975967407	2.4918928146362305
77	328.2486219406128	pulse	1	t		75.0	2.5	/experiments/Knapen_AOT/AOT_stimuli/rescaled_final/1122_rv.mp4	0.0	344.2070393562317	
77	329.8475935459137	pulse	1	t		75.0	2.5	/experiments/Knapen_AOT/AOT_stimuli/rescaled_final/1122_rv.mp4	0.0	345.8060109615326	
77	330.36597299575806	fix_post	2		12	75.0	2.5	/experiments/Knapen_AOT/AOT_stimuli/rescaled_final/1122_rv.mp4	0.0	346.32439041137695	0.10001635551452637
78	330.4659893512726	fix_pre	0		119	76.0	2.5	/experiments/Knapen_AOT/AOT_stimuli/rescaled_final/2108_fw.mp4	0.0	346.4244067668915	1.000133752822876
78	331.44968700408936	pulse	0	t		76.0	2.5	/experiments/Knapen_AOT/AOT_stimuli/rescaled_final/2108_fw.mp4	0.0	347.40810441970825	
78	331.46612310409546	movie	1		285	76.0	2.5	/experiments/Knapen_AOT/AOT_stimuli/rescaled_final/2108_fw.mp4	0.0	347.42454051971436	2.50044584274292
78	333.04824709892273	pulse	1	t		76.0	2.5	/experiments/Knapen_AOT/AOT_stimuli/rescaled_final/2108_fw.mp4	0.0	349.0066645145416	
78	333.9665689468384	fix_post	2		12	76.0	2.5	/experiments/Knapen_AOT/AOT_stimuli/rescaled_final/2108_fw.mp4	0.0	349.9249863624573	0.09990477561950684
79	334.0664737224579	fix_pre	0		120	77.0	2.5	blank	1.0	350.0248911380768	1.0002737045288086
79	334.6501889228821	pulse	0	t		77.0	2.5	blank	1.0	350.608606338501	
79	335.0667474269867	movie	1		300	77.0	2.5	blank	1.0	351.0251648426056	2.5003063678741455
79	336.2505028247833	pulse	1	t		77.0	2.5	blank	1.0	352.2089202404022	
79	337.56705379486084	fix_post	2		12	77.0	2.5	blank	1.0	353.52547121047974	0.10001444816589355
80	337.66706824302673	fix_pre	0		120	78.0	2.5	/experiments/Knapen_AOT/AOT_stimuli/rescaled_final/1244_fw.mp4	0.0	353.62548565864563	1.008577585220337
80	337.8507254123688	pulse	0	t		78.0	2.5	/experiments/Knapen_AOT/AOT_stimuli/rescaled_final/1244_fw.mp4	0.0	353.80914282798767	
80	338.67564582824707	movie	1		271	78.0	2.5	/experiments/Knapen_AOT/AOT_stimuli/rescaled_final/1244_fw.mp4	0.0	354.63406324386597	2.4920237064361572
80	339.4511866569519	pulse	1	t		78.0	2.5	/experiments/Knapen_AOT/AOT_stimuli/rescaled_final/1244_fw.mp4	0.0	355.4096040725708	
80	341.04941749572754	pulse	1	t		78.0	2.5	/experiments/Knapen_AOT/AOT_stimuli/rescaled_final/1244_fw.mp4	0.0	357.00783491134644	
80	341.1676695346832	fix_post	2		12	78.0	2.5	/experiments/Knapen_AOT/AOT_stimuli/rescaled_final/1244_fw.mp4	0.0	357.1260869503021	0.09999418258666992
81	341.2676637172699	fix_pre	0		120	79.0	2.5	/experiments/Knapen_AOT/AOT_stimuli/rescaled_final/2158_fw.mp4	0.0	357.2260811328888	1.0084402561187744
81	342.2761039733887	movie	1		272	79.0	2.5	/experiments/Knapen_AOT/AOT_stimuli/rescaled_final/2158_fw.mp4	0.0	358.23452138900757	2.4920454025268555
81	342.64959716796875	pulse	1	t		79.0	2.5	/experiments/Knapen_AOT/AOT_stimuli/rescaled_final/2158_fw.mp4	0.0	358.60801458358765	
81	344.25000762939453	pulse	1	t		79.0	2.5	/experiments/Knapen_AOT/AOT_stimuli/rescaled_final/2158_fw.mp4	0.0	360.2084250450134	
81	344.7681493759155	fix_post	2		12	79.0	2.5	/experiments/Knapen_AOT/AOT_stimuli/rescaled_final/2158_fw.mp4	0.0	360.7265667915344	0.10000061988830566
82	344.86814999580383	fix_pre	0		119	80.0	2.5	/experiments/Knapen_AOT/AOT_stimuli/rescaled_final/0680_fw.mp4	0.0	360.82656741142273	1.0001442432403564
82	345.8451189994812	pulse	0	t		80.0	2.5	/experiments/Knapen_AOT/AOT_stimuli/rescaled_final/0680_fw.mp4	0.0	361.8035364151001	
82	345.8682942390442	movie	1		291	80.0	2.5	/experiments/Knapen_AOT/AOT_stimuli/rescaled_final/0680_fw.mp4	0.0	361.8267116546631	2.500526189804077
82	347.4441123008728	pulse	1	t		80.0	2.5	/experiments/Knapen_AOT/AOT_stimuli/rescaled_final/0680_fw.mp4	0.0	363.4025297164917	
82	348.36882042884827	fix_post	2		12	80.0	2.5	/experiments/Knapen_AOT/AOT_stimuli/rescaled_final/0680_fw.mp4	0.0	364.32723784446716	0.09992551803588867
83	348.46874594688416	fix_pre	0		120	81.0	2.5	/experiments/Knapen_AOT/AOT_stimuli/rescaled_final/1724_fw.mp4	0.0	364.42716336250305	1.008467435836792
83	349.0440831184387	pulse	0	t		81.0	2.5	/experiments/Knapen_AOT/AOT_stimuli/rescaled_final/1724_fw.mp4	0.0	365.0025005340576	
83	349.47721338272095	movie	1		285	81.0	2.5	/experiments/Knapen_AOT/AOT_stimuli/rescaled_final/1724_fw.mp4	0.0	365.43563079833984	2.4920413494110107
83	350.644437789917	pulse	1	t		81.0	2.5	/experiments/Knapen_AOT/AOT_stimuli/rescaled_final/1724_fw.mp4	0.0	366.6028552055359	
83	351.96925473213196	fix_post	2		12	81.0	2.5	/experiments/Knapen_AOT/AOT_stimuli/rescaled_final/1724_fw.mp4	0.0	367.92767214775085	0.09998393058776855
84	352.0692386627197	fix_pre	0		120	82.0	2.5	/experiments/Knapen_AOT/AOT_stimuli/rescaled_final/1452_rv.mp4	0.0	368.0276560783386	1.0084848403930664
84	352.2447888851166	pulse	0	t		82.0	2.5	/experiments/Knapen_AOT/AOT_stimuli/rescaled_final/1452_rv.mp4	0.0	368.2032063007355	
84	353.0777235031128	movie	1		277	82.0	2.5	/experiments/Knapen_AOT/AOT_stimuli/rescaled_final/1452_rv.mp4	0.0	369.0361409187317	2.492070436477661
84	353.8448324203491	pulse	1	t		82.0	2.5	/experiments/Knapen_AOT/AOT_stimuli/rescaled_final/1452_rv.mp4	0.0	369.803249835968	
84	355.44508123397827	pulse	1	t		82.0	2.5	/experiments/Knapen_AOT/AOT_stimuli/rescaled_final/1452_rv.mp4	0.0	371.40349864959717	
84	355.56979393959045	fix_post	2		12	82.0	2.5	/experiments/Knapen_AOT/AOT_stimuli/rescaled_final/1452_rv.mp4	0.0	371.52821135520935	0.10000038146972656
85	355.6697943210602	fix_pre	0		120	83.0	2.5	blank	1.0	371.6282117366791	1.0001885890960693
85	356.66998291015625	movie	1		299	83.0	2.5	blank	1.0	372.62840032577515	2.500307559967041
85	357.0452010631561	pulse	1	t		83.0	2.5	blank	1.0	373.003618478775	
85	358.6454577445984	pulse	1	t		83.0	2.5	blank	1.0	374.6038751602173	
85	359.1702904701233	fix_post	2		12	83.0	2.5	blank	1.0	375.1287078857422	0.10002279281616211
87	359.27031326293945	stim	0		1715					375.22873067855835	14.293826818466187
87	360.2459852695465	pulse	0	t						376.2044026851654	
87	361.8459596633911	pulse	0	t						377.80437707901	
87	363.4461760520935	pulse	0	t						379.4045934677124	
87	365.0464334487915	pulse	0	t						381.0048508644104	
87	366.64662861824036	pulse	0	t						382.60504603385925	
87	368.2470223903656	pulse	0	t						384.2054398059845	
87	369.8472418785095	pulse	0	t						385.8056592941284	
87	371.4473090171814	pulse	0	t						387.4057264328003	
87	373.04758477211	pulse	0	t						389.0060021877289	
