trial_nr	onset	event_type	phase	response	nr_frames	movie_index	movie_duration	movie_file	blank	onset_abs	duration
0	0.19997286796569824	stim	0		108					122.57051372528076	0.9000289440155029
0	1.0918679237365723	response	0	space						123.46240878105164	
1	1.1000018119812012	stim	0		3894					123.47054266929626	32.46630811691284
1	33.55645394325256	pulse	0	t						155.92699480056763	
1	33.56630992889404	stim	1		1716					155.9368507862091	14.307353019714355
1	35.14700889587402	pulse	1	t						157.5175497531891	
1	36.747238874435425	pulse	1	t						159.1177797317505	
1	38.34730291366577	pulse	1	t						160.71784377098083	
1	39.947691917419434	pulse	1	t						162.3182327747345	
1	41.54799294471741	pulse	1	t						163.91853380203247	
1	43.14064598083496	pulse	1	t						165.51118683815002	
1	44.74088382720947	pulse	1	t						167.11142468452454	
1	46.3410108089447	pulse	1	t						168.71155166625977	
2	47.8736629486084	fix_pre	0		10	0.0	2.5	/experiments/knapen_AOT/AOT_stimuli/rescaled_final/1523_rv.mp4	0.0	170.24420380592346	0.08335089683532715
2	47.941410779953	pulse	0	t		0.0	2.5	/experiments/knapen_AOT/AOT_stimuli/rescaled_final/1523_rv.mp4	0.0	170.31195163726807	
2	47.957013845443726	movie	1		243	0.0	2.5	/experiments/knapen_AOT/AOT_stimuli/rescaled_final/1523_rv.mp4	0.0	170.3275547027588	2.5086629390716553
2	49.552987813949585	pulse	1	t		0.0	2.5	/experiments/knapen_AOT/AOT_stimuli/rescaled_final/1523_rv.mp4	0.0	171.92352867126465	
2	50.46567678451538	fix_post	2		12	0.0	2.5	/experiments/knapen_AOT/AOT_stimuli/rescaled_final/1523_rv.mp4	0.0	172.83621764183044	0.10000801086425781
3	50.56568479537964	fix_pre	0		120	1.0	2.5	/experiments/knapen_AOT/AOT_stimuli/rescaled_final/0119_fw.mp4	0.0	172.9362256526947	1.000197172164917
3	51.14116287231445	pulse	0	t		1.0	2.5	/experiments/knapen_AOT/AOT_stimuli/rescaled_final/0119_fw.mp4	0.0	173.51170372962952	
3	51.565881967544556	movie	1		243	1.0	2.5	/experiments/knapen_AOT/AOT_stimuli/rescaled_final/0119_fw.mp4	0.0	173.93642282485962	2.500332832336426
3	52.74179291725159	pulse	1	t		1.0	2.5	/experiments/knapen_AOT/AOT_stimuli/rescaled_final/0119_fw.mp4	0.0	175.11233377456665	
3	54.06621479988098	fix_post	2		12	1.0	2.5	/experiments/knapen_AOT/AOT_stimuli/rescaled_final/0119_fw.mp4	0.0	176.43675565719604	0.10002303123474121
4	54.16623783111572	fix_pre	0		120	2.0	2.5	/experiments/knapen_AOT/AOT_stimuli/rescaled_final/1492_rv.mp4	0.0	176.5367786884308	1.0001471042633057
4	54.3414089679718	pulse	0	t		2.0	2.5	/experiments/knapen_AOT/AOT_stimuli/rescaled_final/1492_rv.mp4	0.0	176.71194982528687	
4	55.16638493537903	movie	1		244	2.0	2.5	/experiments/knapen_AOT/AOT_stimuli/rescaled_final/1492_rv.mp4	0.0	177.5369257926941	2.500443935394287
4	55.941794872283936	pulse	1	t		2.0	2.5	/experiments/knapen_AOT/AOT_stimuli/rescaled_final/1492_rv.mp4	0.0	178.312335729599	
4	57.542080879211426	pulse	1	t		2.0	2.5	/experiments/knapen_AOT/AOT_stimuli/rescaled_final/1492_rv.mp4	0.0	179.9126217365265	
4	57.666828870773315	fix_post	2		12	2.0	2.5	/experiments/knapen_AOT/AOT_stimuli/rescaled_final/1492_rv.mp4	0.0	180.03736972808838	0.10001492500305176
5	57.76684379577637	fix_pre	0		120	3.0	2.5	/experiments/knapen_AOT/AOT_stimuli/rescaled_final/1348_rv.mp4	0.0	180.13738465309143	1.0001070499420166
5	58.766950845718384	movie	1		242	3.0	2.5	/experiments/knapen_AOT/AOT_stimuli/rescaled_final/1348_rv.mp4	0.0	181.13749170303345	2.4920201301574707
5	59.1422917842865	pulse	1	t		3.0	2.5	/experiments/knapen_AOT/AOT_stimuli/rescaled_final/1348_rv.mp4	0.0	181.51283264160156	
5	60.74245882034302	pulse	1	t		3.0	2.5	/experiments/knapen_AOT/AOT_stimuli/rescaled_final/1348_rv.mp4	0.0	183.11299967765808	
5	61.258970975875854	fix_post	2		12	3.0	2.5	/experiments/knapen_AOT/AOT_stimuli/rescaled_final/1348_rv.mp4	0.0	183.62951183319092	0.10006499290466309
6	61.35903596878052	fix_pre	0		119	4.0	2.5	/experiments/knapen_AOT/AOT_stimuli/rescaled_final/0106_rv.mp4	0.0	183.72957682609558	0.9918158054351807
6	62.3426468372345	pulse	0	t		4.0	2.5	/experiments/knapen_AOT/AOT_stimuli/rescaled_final/0106_rv.mp4	0.0	184.71318769454956	
6	62.3508517742157	movie	1		244	4.0	2.5	/experiments/knapen_AOT/AOT_stimuli/rescaled_final/0106_rv.mp4	0.0	184.72139263153076	2.5086522102355957
6	63.944273948669434	pulse	1	t		4.0	2.5	/experiments/knapen_AOT/AOT_stimuli/rescaled_final/0106_rv.mp4	0.0	186.3148148059845	
6	64.8595039844513	fix_post	2		12	4.0	2.5	/experiments/knapen_AOT/AOT_stimuli/rescaled_final/0106_rv.mp4	0.0	187.23004484176636	0.10008382797241211
7	64.9595878124237	fix_pre	0		120	5.0	2.5	blank	1.0	187.33012866973877	1.0001180171966553
7	65.54321694374084	pulse	0	t		5.0	2.5	blank	1.0	187.9137578010559	
7	65.95970582962036	movie	1		300	5.0	2.5	blank	1.0	188.33024668693542	2.5003700256347656
7	67.1433539390564	pulse	1	t		5.0	2.5	blank	1.0	189.51389479637146	
7	68.46007585525513	fix_post	2		12	5.0	2.5	blank	1.0	190.8306167125702	0.09999704360961914
8	68.56007289886475	fix_pre	0		120	6.0	2.5	/experiments/knapen_AOT/AOT_stimuli/rescaled_final/1019_rv.mp4	0.0	190.9306137561798	1.000148057937622
8	68.74358487129211	pulse	0	t		6.0	2.5	/experiments/knapen_AOT/AOT_stimuli/rescaled_final/1019_rv.mp4	0.0	191.11412572860718	
8	69.56022095680237	movie	1		246	6.0	2.5	/experiments/knapen_AOT/AOT_stimuli/rescaled_final/1019_rv.mp4	0.0	191.93076181411743	2.5003409385681152
8	70.34396195411682	pulse	1	t		6.0	2.5	/experiments/knapen_AOT/AOT_stimuli/rescaled_final/1019_rv.mp4	0.0	192.71450281143188	
8	71.94422793388367	pulse	1	t		6.0	2.5	/experiments/knapen_AOT/AOT_stimuli/rescaled_final/1019_rv.mp4	0.0	194.31476879119873	
8	72.06056189537048	fix_post	2		12	6.0	2.5	/experiments/knapen_AOT/AOT_stimuli/rescaled_final/1019_rv.mp4	0.0	194.43110275268555	0.10004711151123047
9	72.16060900688171	fix_pre	0		120	7.0	2.5	/experiments/knapen_AOT/AOT_stimuli/rescaled_final/1862_fw.mp4	0.0	194.53114986419678	1.000133991241455
9	73.16074299812317	movie	1		239	7.0	2.5	/experiments/knapen_AOT/AOT_stimuli/rescaled_final/1862_fw.mp4	0.0	195.53128385543823	2.4954068660736084
9	73.54478788375854	pulse	1	t		7.0	2.5	/experiments/knapen_AOT/AOT_stimuli/rescaled_final/1862_fw.mp4	0.0	195.9153287410736	
9	75.1446008682251	pulse	1	t		7.0	2.5	/experiments/knapen_AOT/AOT_stimuli/rescaled_final/1862_fw.mp4	0.0	197.51514172554016	
9	75.65614986419678	fix_post	2		12	7.0	2.5	/experiments/knapen_AOT/AOT_stimuli/rescaled_final/1862_fw.mp4	0.0	198.02669072151184	0.09662914276123047
10	75.75277900695801	fix_pre	0		120	8.0	2.5	/experiments/knapen_AOT/AOT_stimuli/rescaled_final/0790_rv.mp4	0.0	198.12331986427307	1.0001888275146484
10	76.74480390548706	pulse	0	t		8.0	2.5	/experiments/knapen_AOT/AOT_stimuli/rescaled_final/0790_rv.mp4	0.0	199.11534476280212	
10	76.75296783447266	movie	1		245	8.0	2.5	/experiments/knapen_AOT/AOT_stimuli/rescaled_final/0790_rv.mp4	0.0	199.12350869178772	2.5089621543884277
10	78.34656190872192	pulse	1	t		8.0	2.5	/experiments/knapen_AOT/AOT_stimuli/rescaled_final/0790_rv.mp4	0.0	200.717102766037	
10	79.26192998886108	fix_post	2		12	8.0	2.5	/experiments/knapen_AOT/AOT_stimuli/rescaled_final/0790_rv.mp4	0.0	201.63247084617615	0.09977197647094727
11	79.36170196533203	fix_pre	0		120	9.0	2.5	/experiments/knapen_AOT/AOT_stimuli/rescaled_final/1114_rv.mp4	0.0	201.7322428226471	1.000119924545288
11	79.94540882110596	pulse	0	t		9.0	2.5	/experiments/knapen_AOT/AOT_stimuli/rescaled_final/1114_rv.mp4	0.0	202.31594967842102	
11	80.36182188987732	movie	1		243	9.0	2.5	/experiments/knapen_AOT/AOT_stimuli/rescaled_final/1114_rv.mp4	0.0	202.73236274719238	2.500351905822754
11	81.54556179046631	pulse	1	t		9.0	2.5	/experiments/knapen_AOT/AOT_stimuli/rescaled_final/1114_rv.mp4	0.0	203.91610264778137	
11	82.86217379570007	fix_post	2		12	9.0	2.5	/experiments/knapen_AOT/AOT_stimuli/rescaled_final/1114_rv.mp4	0.0	205.23271465301514	0.10002708435058594
12	82.96220088005066	fix_pre	0		120	10.0	2.5	/experiments/knapen_AOT/AOT_stimuli/rescaled_final/1367_rv.mp4	0.0	205.33274173736572	1.0001800060272217
12	83.14573979377747	pulse	0	t		10.0	2.5	/experiments/knapen_AOT/AOT_stimuli/rescaled_final/1367_rv.mp4	0.0	205.51628065109253	
12	83.96238088607788	movie	1		243	10.0	2.5	/experiments/knapen_AOT/AOT_stimuli/rescaled_final/1367_rv.mp4	0.0	206.33292174339294	2.500386953353882
12	84.74601483345032	pulse	1	t		10.0	2.5	/experiments/knapen_AOT/AOT_stimuli/rescaled_final/1367_rv.mp4	0.0	207.11655569076538	
12	86.3460578918457	pulse	1	t		10.0	2.5	/experiments/knapen_AOT/AOT_stimuli/rescaled_final/1367_rv.mp4	0.0	208.71659874916077	
12	86.46276783943176	fix_post	2		12	10.0	2.5	/experiments/knapen_AOT/AOT_stimuli/rescaled_final/1367_rv.mp4	0.0	208.83330869674683	0.09999895095825195
13	86.56276679039001	fix_pre	0		120	11.0	2.5	/experiments/knapen_AOT/AOT_stimuli/rescaled_final/2087_fw.mp4	0.0	208.93330764770508	1.000148057937622
13	87.56291484832764	movie	1		242	11.0	2.5	/experiments/knapen_AOT/AOT_stimuli/rescaled_final/2087_fw.mp4	0.0	209.9334557056427	2.4921090602874756
13	87.94707584381104	pulse	1	t		11.0	2.5	/experiments/knapen_AOT/AOT_stimuli/rescaled_final/2087_fw.mp4	0.0	210.3176167011261	
13	89.54676699638367	pulse	1	t		11.0	2.5	/experiments/knapen_AOT/AOT_stimuli/rescaled_final/2087_fw.mp4	0.0	211.91730785369873	
13	90.05502390861511	fix_post	2		12	11.0	2.5	/experiments/knapen_AOT/AOT_stimuli/rescaled_final/2087_fw.mp4	0.0	212.42556476593018	0.1000058650970459
14	90.15502977371216	fix_pre	0		120	12.0	2.5	/experiments/knapen_AOT/AOT_stimuli/rescaled_final/2096_rv.mp4	0.0	212.52557063102722	1.0000622272491455
14	91.14691090583801	pulse	0	t		12.0	2.5	/experiments/knapen_AOT/AOT_stimuli/rescaled_final/2096_rv.mp4	0.0	213.51745176315308	
14	91.1550920009613	movie	1		246	12.0	2.5	/experiments/knapen_AOT/AOT_stimuli/rescaled_final/2096_rv.mp4	0.0	213.52563285827637	2.5087268352508545
14	92.74787187576294	pulse	1	t		12.0	2.5	/experiments/knapen_AOT/AOT_stimuli/rescaled_final/2096_rv.mp4	0.0	215.118412733078	
14	93.66381883621216	fix_post	2		12	12.0	2.5	/experiments/knapen_AOT/AOT_stimuli/rescaled_final/2096_rv.mp4	0.0	216.03435969352722	0.10002803802490234
15	93.76384687423706	fix_pre	0		120	13.0	2.5	/experiments/knapen_AOT/AOT_stimuli/rescaled_final/1935_rv.mp4	0.0	216.13438773155212	1.0001449584960938
15	94.34738397598267	pulse	0	t		13.0	2.5	/experiments/knapen_AOT/AOT_stimuli/rescaled_final/1935_rv.mp4	0.0	216.71792483329773	
15	94.76399183273315	movie	1		245	13.0	2.5	/experiments/knapen_AOT/AOT_stimuli/rescaled_final/1935_rv.mp4	0.0	217.13453269004822	2.5003271102905273
15	95.94784879684448	pulse	1	t		13.0	2.5	/experiments/knapen_AOT/AOT_stimuli/rescaled_final/1935_rv.mp4	0.0	218.31838965415955	
15	97.26431894302368	fix_post	2		12	13.0	2.5	/experiments/knapen_AOT/AOT_stimuli/rescaled_final/1935_rv.mp4	0.0	219.63485980033875	0.10005688667297363
16	97.36437582969666	fix_pre	0		120	14.0	2.5	blank	1.0	219.73491668701172	1.0001201629638672
16	97.5404589176178	pulse	0	t		14.0	2.5	blank	1.0	219.91099977493286	
16	98.36449599266052	movie	1		300	14.0	2.5	blank	1.0	220.7350368499756	2.5003678798675537
16	99.1408429145813	pulse	1	t		14.0	2.5	blank	1.0	221.51138377189636	
16	100.7408139705658	pulse	1	t		14.0	2.5	blank	1.0	223.11135482788086	
16	100.86486387252808	fix_post	2		12	14.0	2.5	blank	1.0	223.23540472984314	0.10003304481506348
17	100.96489691734314	fix_pre	0		120	15.0	2.5	/experiments/knapen_AOT/AOT_stimuli/rescaled_final/2148_rv.mp4	0.0	223.3354377746582	1.0001370906829834
17	101.96503400802612	movie	1		242	15.0	2.5	/experiments/knapen_AOT/AOT_stimuli/rescaled_final/2148_rv.mp4	0.0	224.3355748653412	2.492041826248169
17	102.34918880462646	pulse	1	t		15.0	2.5	/experiments/knapen_AOT/AOT_stimuli/rescaled_final/2148_rv.mp4	0.0	224.71972966194153	
17	103.9407057762146	pulse	1	t		15.0	2.5	/experiments/knapen_AOT/AOT_stimuli/rescaled_final/2148_rv.mp4	0.0	226.31124663352966	
17	104.45707583427429	fix_post	2		12	15.0	2.5	/experiments/knapen_AOT/AOT_stimuli/rescaled_final/2148_rv.mp4	0.0	226.82761669158936	0.10003209114074707
18	104.55710792541504	fix_pre	0		119	16.0	2.5	/experiments/knapen_AOT/AOT_stimuli/rescaled_final/0115_fw.mp4	0.0	226.9276487827301	0.991811990737915
18	105.54074883460999	pulse	0	t		16.0	2.5	/experiments/knapen_AOT/AOT_stimuli/rescaled_final/0115_fw.mp4	0.0	227.91128969192505	
18	105.54891991615295	movie	1		246	16.0	2.5	/experiments/knapen_AOT/AOT_stimuli/rescaled_final/0115_fw.mp4	0.0	227.91946077346802	2.5087709426879883
18	107.14262795448303	pulse	1	t		16.0	2.5	/experiments/knapen_AOT/AOT_stimuli/rescaled_final/0115_fw.mp4	0.0	229.5131688117981	
18	108.05769085884094	fix_post	2		12	16.0	2.5	/experiments/knapen_AOT/AOT_stimuli/rescaled_final/0115_fw.mp4	0.0	230.428231716156	0.10003209114074707
19	108.15772294998169	fix_pre	0		120	17.0	2.5	/experiments/knapen_AOT/AOT_stimuli/rescaled_final/1872_fw.mp4	0.0	230.52826380729675	1.0000479221343994
19	108.7412838935852	pulse	0	t		17.0	2.5	/experiments/knapen_AOT/AOT_stimuli/rescaled_final/1872_fw.mp4	0.0	231.11182475090027	
19	109.15777087211609	movie	1		243	17.0	2.5	/experiments/knapen_AOT/AOT_stimuli/rescaled_final/1872_fw.mp4	0.0	231.52831172943115	2.500375986099243
19	110.34159278869629	pulse	1	t		17.0	2.5	/experiments/knapen_AOT/AOT_stimuli/rescaled_final/1872_fw.mp4	0.0	232.71213364601135	
19	111.65814685821533	fix_post	2		12	17.0	2.5	/experiments/knapen_AOT/AOT_stimuli/rescaled_final/1872_fw.mp4	0.0	234.0286877155304	0.10004115104675293
20	111.75818800926208	fix_pre	0		120	18.0	2.5	/experiments/knapen_AOT/AOT_stimuli/rescaled_final/2047_rv.mp4	0.0	234.12872886657715	1.000126838684082
20	111.94184279441833	pulse	0	t		18.0	2.5	/experiments/knapen_AOT/AOT_stimuli/rescaled_final/2047_rv.mp4	0.0	234.3123836517334	
20	112.75831484794617	movie	1		244	18.0	2.5	/experiments/knapen_AOT/AOT_stimuli/rescaled_final/2047_rv.mp4	0.0	235.12885570526123	2.500401020050049
20	113.54200983047485	pulse	1	t		18.0	2.5	/experiments/knapen_AOT/AOT_stimuli/rescaled_final/2047_rv.mp4	0.0	235.91255068778992	
20	115.14235496520996	pulse	1	t		18.0	2.5	/experiments/knapen_AOT/AOT_stimuli/rescaled_final/2047_rv.mp4	0.0	237.51289582252502	
20	115.25871586799622	fix_post	2		12	18.0	2.5	/experiments/knapen_AOT/AOT_stimuli/rescaled_final/2047_rv.mp4	0.0	237.62925672531128	0.09999513626098633
21	115.3587110042572	fix_pre	0		120	19.0	2.5	/experiments/knapen_AOT/AOT_stimuli/rescaled_final/1631_fw.mp4	0.0	237.72925186157227	1.0001208782196045
21	116.3588318824768	movie	1		242	19.0	2.5	/experiments/knapen_AOT/AOT_stimuli/rescaled_final/1631_fw.mp4	0.0	238.72937273979187	2.492079973220825
21	116.74349188804626	pulse	1	t		19.0	2.5	/experiments/knapen_AOT/AOT_stimuli/rescaled_final/1631_fw.mp4	0.0	239.11403274536133	
21	118.34275388717651	pulse	1	t		19.0	2.5	/experiments/knapen_AOT/AOT_stimuli/rescaled_final/1631_fw.mp4	0.0	240.71329474449158	
21	118.85091185569763	fix_post	2		12	19.0	2.5	/experiments/knapen_AOT/AOT_stimuli/rescaled_final/1631_fw.mp4	0.0	241.2214527130127	0.10001397132873535
22	118.95092582702637	fix_pre	0		120	20.0	2.5	/experiments/knapen_AOT/AOT_stimuli/rescaled_final/0370_rv.mp4	0.0	241.32146668434143	1.0001320838928223
22	119.94307589530945	pulse	0	t		20.0	2.5	/experiments/knapen_AOT/AOT_stimuli/rescaled_final/0370_rv.mp4	0.0	242.3136167526245	
22	119.95105791091919	movie	1		245	20.0	2.5	/experiments/knapen_AOT/AOT_stimuli/rescaled_final/0370_rv.mp4	0.0	242.32159876823425	2.5086989402770996
22	121.5437879562378	pulse	1	t		20.0	2.5	/experiments/knapen_AOT/AOT_stimuli/rescaled_final/0370_rv.mp4	0.0	243.91432881355286	
22	122.45975685119629	fix_post	2		12	20.0	2.5	/experiments/knapen_AOT/AOT_stimuli/rescaled_final/0370_rv.mp4	0.0	244.83029770851135	0.10005998611450195
23	122.55981683731079	fix_pre	0		120	21.0	2.5	blank	1.0	244.93035769462585	1.0001111030578613
23	123.14335680007935	pulse	0	t		21.0	2.5	blank	1.0	245.5138976573944	
23	123.55992794036865	movie	1		300	21.0	2.5	blank	1.0	245.93046879768372	2.500391960144043
23	124.74372982978821	pulse	1	t		21.0	2.5	blank	1.0	247.11427068710327	
23	126.0603199005127	fix_post	2		12	21.0	2.5	blank	1.0	248.43086075782776	0.0999898910522461
24	126.16030979156494	fix_pre	0		120	22.0	2.5	/experiments/knapen_AOT/AOT_stimuli/rescaled_final/0702_fw.mp4	0.0	248.53085064888	1.000157117843628
24	126.34401893615723	pulse	0	t		22.0	2.5	/experiments/knapen_AOT/AOT_stimuli/rescaled_final/0702_fw.mp4	0.0	248.7145597934723	
24	127.16046690940857	movie	1		243	22.0	2.5	/experiments/knapen_AOT/AOT_stimuli/rescaled_final/0702_fw.mp4	0.0	249.53100776672363	2.50042986869812
24	127.94412899017334	pulse	1	t		22.0	2.5	/experiments/knapen_AOT/AOT_stimuli/rescaled_final/0702_fw.mp4	0.0	250.3146698474884	
24	129.54443383216858	pulse	1	t		22.0	2.5	/experiments/knapen_AOT/AOT_stimuli/rescaled_final/0702_fw.mp4	0.0	251.91497468948364	
24	129.6608967781067	fix_post	2		12	22.0	2.5	/experiments/knapen_AOT/AOT_stimuli/rescaled_final/0702_fw.mp4	0.0	252.03143763542175	0.09996914863586426
25	129.76086592674255	fix_pre	0		120	23.0	2.5	/experiments/knapen_AOT/AOT_stimuli/rescaled_final/1211_fw.mp4	0.0	252.13140678405762	1.000166893005371
25	130.76103281974792	movie	1		243	23.0	2.5	/experiments/knapen_AOT/AOT_stimuli/rescaled_final/1211_fw.mp4	0.0	253.131573677063	2.4920220375061035
25	131.14503288269043	pulse	1	t		23.0	2.5	/experiments/knapen_AOT/AOT_stimuli/rescaled_final/1211_fw.mp4	0.0	253.5155737400055	
25	132.74497890472412	pulse	1	t		23.0	2.5	/experiments/knapen_AOT/AOT_stimuli/rescaled_final/1211_fw.mp4	0.0	255.11551976203918	
25	133.25305485725403	fix_post	2		12	23.0	2.5	/experiments/knapen_AOT/AOT_stimuli/rescaled_final/1211_fw.mp4	0.0	255.6235957145691	0.10005307197570801
26	133.35310792922974	fix_pre	0		117	24.0	2.5	/experiments/knapen_AOT/AOT_stimuli/rescaled_final/0141_rv.mp4	0.0	255.7236487865448	1.0000779628753662
26	134.34509086608887	pulse	0	t		24.0	2.5	/experiments/knapen_AOT/AOT_stimuli/rescaled_final/0141_rv.mp4	0.0	256.71563172340393	
26	134.3531858921051	movie	1		245	24.0	2.5	/experiments/knapen_AOT/AOT_stimuli/rescaled_final/0141_rv.mp4	0.0	256.72372674942017	2.508794069290161
26	135.94578981399536	pulse	1	t		24.0	2.5	/experiments/knapen_AOT/AOT_stimuli/rescaled_final/0141_rv.mp4	0.0	258.3163306713104	
26	136.86197996139526	fix_post	2		12	24.0	2.5	/experiments/knapen_AOT/AOT_stimuli/rescaled_final/0141_rv.mp4	0.0	259.2325208187103	0.09999990463256836
27	136.96197986602783	fix_pre	0		120	25.0	2.5	/experiments/knapen_AOT/AOT_stimuli/rescaled_final/1331_rv.mp4	0.0	259.3325207233429	1.000093936920166
27	137.5455448627472	pulse	0	t		25.0	2.5	/experiments/knapen_AOT/AOT_stimuli/rescaled_final/1331_rv.mp4	0.0	259.91608572006226	
27	137.962073802948	movie	1		245	25.0	2.5	/experiments/knapen_AOT/AOT_stimuli/rescaled_final/1331_rv.mp4	0.0	260.33261466026306	2.5003910064697266
27	139.1460428237915	pulse	1	t		25.0	2.5	/experiments/knapen_AOT/AOT_stimuli/rescaled_final/1331_rv.mp4	0.0	261.51658368110657	
27	140.46246480941772	fix_post	2		12	25.0	2.5	/experiments/knapen_AOT/AOT_stimuli/rescaled_final/1331_rv.mp4	0.0	262.8330056667328	0.10001206398010254
28	140.56247687339783	fix_pre	0		120	26.0	2.5	/experiments/knapen_AOT/AOT_stimuli/rescaled_final/0904_rv.mp4	0.0	262.9330177307129	1.0001521110534668
28	140.74613881111145	pulse	0	t		26.0	2.5	/experiments/knapen_AOT/AOT_stimuli/rescaled_final/0904_rv.mp4	0.0	263.1166796684265	
28	141.5626289844513	movie	1		243	26.0	2.5	/experiments/knapen_AOT/AOT_stimuli/rescaled_final/0904_rv.mp4	0.0	263.93316984176636	2.5003600120544434
28	142.346284866333	pulse	1	t		26.0	2.5	/experiments/knapen_AOT/AOT_stimuli/rescaled_final/0904_rv.mp4	0.0	264.71682572364807	
28	143.94645595550537	pulse	1	t		26.0	2.5	/experiments/knapen_AOT/AOT_stimuli/rescaled_final/0904_rv.mp4	0.0	266.31699681282043	
28	144.06298899650574	fix_post	2		12	26.0	2.5	/experiments/knapen_AOT/AOT_stimuli/rescaled_final/0904_rv.mp4	0.0	266.4335298538208	0.10005593299865723
29	144.1630449295044	fix_pre	0		120	27.0	2.5	blank	1.0	266.53358578681946	1.0000958442687988
29	145.1631407737732	movie	1		299	27.0	2.5	blank	1.0	267.53368163108826	2.492039203643799
29	145.54687690734863	pulse	1	t		27.0	2.5	blank	1.0	267.9174177646637	
29	147.1470148563385	pulse	1	t		27.0	2.5	blank	1.0	269.51755571365356	
29	147.655179977417	fix_post	2		12	27.0	2.5	blank	1.0	270.02572083473206	0.10001993179321289
30	147.7551999092102	fix_pre	0		120	28.0	2.5	/experiments/knapen_AOT/AOT_stimuli/rescaled_final/1102_rv.mp4	0.0	270.12574076652527	1.0001749992370605
30	148.74725198745728	pulse	0	t		28.0	2.5	/experiments/knapen_AOT/AOT_stimuli/rescaled_final/1102_rv.mp4	0.0	271.11779284477234	
30	148.75537490844727	movie	1		244	28.0	2.5	/experiments/knapen_AOT/AOT_stimuli/rescaled_final/1102_rv.mp4	0.0	271.12591576576233	2.508676052093506
30	150.34814977645874	pulse	1	t		28.0	2.5	/experiments/knapen_AOT/AOT_stimuli/rescaled_final/1102_rv.mp4	0.0	272.7186906337738	
30	151.26405096054077	fix_post	2		12	28.0	2.5	/experiments/knapen_AOT/AOT_stimuli/rescaled_final/1102_rv.mp4	0.0	273.63459181785583	0.10003089904785156
31	151.36408185958862	fix_pre	0		120	29.0	2.5	/experiments/knapen_AOT/AOT_stimuli/rescaled_final/1267_rv.mp4	0.0	273.7346227169037	1.0001370906829834
31	151.94776391983032	pulse	0	t		29.0	2.5	/experiments/knapen_AOT/AOT_stimuli/rescaled_final/1267_rv.mp4	0.0	274.3183047771454	
31	152.3642189502716	movie	1		245	29.0	2.5	/experiments/knapen_AOT/AOT_stimuli/rescaled_final/1267_rv.mp4	0.0	274.73475980758667	2.5004520416259766
31	153.54804491996765	pulse	1	t		29.0	2.5	/experiments/knapen_AOT/AOT_stimuli/rescaled_final/1267_rv.mp4	0.0	275.9185857772827	
31	154.86467099189758	fix_post	2		12	29.0	2.5	/experiments/knapen_AOT/AOT_stimuli/rescaled_final/1267_rv.mp4	0.0	277.23521184921265	0.09999489784240723
32	154.96466588974	fix_pre	0		120	30.0	2.5	/experiments/knapen_AOT/AOT_stimuli/rescaled_final/1945_fw.mp4	0.0	277.33520674705505	1.0000998973846436
32	155.14829182624817	pulse	0	t		30.0	2.5	/experiments/knapen_AOT/AOT_stimuli/rescaled_final/1945_fw.mp4	0.0	277.51883268356323	
32	155.96476578712463	movie	1		244	30.0	2.5	/experiments/knapen_AOT/AOT_stimuli/rescaled_final/1945_fw.mp4	0.0	278.3353066444397	2.500373125076294
32	156.7484200000763	pulse	1	t		30.0	2.5	/experiments/knapen_AOT/AOT_stimuli/rescaled_final/1945_fw.mp4	0.0	279.11896085739136	
32	158.3486008644104	pulse	1	t		30.0	2.5	/experiments/knapen_AOT/AOT_stimuli/rescaled_final/1945_fw.mp4	0.0	280.71914172172546	
32	158.46513891220093	fix_post	2		12	30.0	2.5	/experiments/knapen_AOT/AOT_stimuli/rescaled_final/1945_fw.mp4	0.0	280.835679769516	0.10003089904785156
33	158.56516981124878	fix_pre	0		119	31.0	2.5	/experiments/knapen_AOT/AOT_stimuli/rescaled_final/1297_rv.mp4	0.0	280.93571066856384	0.9918191432952881
33	159.55698895454407	movie	1		243	31.0	2.5	/experiments/knapen_AOT/AOT_stimuli/rescaled_final/1297_rv.mp4	0.0	281.92752981185913	2.500339984893799
33	159.94892287254333	pulse	1	t		31.0	2.5	/experiments/knapen_AOT/AOT_stimuli/rescaled_final/1297_rv.mp4	0.0	282.3194637298584	
33	161.54184985160828	pulse	1	t		31.0	2.5	/experiments/knapen_AOT/AOT_stimuli/rescaled_final/1297_rv.mp4	0.0	283.91239070892334	
33	162.05732893943787	fix_post	2		12	31.0	2.5	/experiments/knapen_AOT/AOT_stimuli/rescaled_final/1297_rv.mp4	0.0	284.42786979675293	0.10000395774841309
34	162.15733289718628	fix_pre	0		120	32.0	2.5	/experiments/knapen_AOT/AOT_stimuli/rescaled_final/1447_rv.mp4	0.0	284.52787375450134	1.0001769065856934
34	163.1418697834015	pulse	0	t		32.0	2.5	/experiments/knapen_AOT/AOT_stimuli/rescaled_final/1447_rv.mp4	0.0	285.51241064071655	
34	163.15750980377197	movie	1		245	32.0	2.5	/experiments/knapen_AOT/AOT_stimuli/rescaled_final/1447_rv.mp4	0.0	285.52805066108704	2.508687973022461
34	164.75007891654968	pulse	1	t		32.0	2.5	/experiments/knapen_AOT/AOT_stimuli/rescaled_final/1447_rv.mp4	0.0	287.12061977386475	
34	165.66619777679443	fix_post	2		12	32.0	2.5	/experiments/knapen_AOT/AOT_stimuli/rescaled_final/1447_rv.mp4	0.0	288.0367386341095	0.0999901294708252
35	165.76618790626526	fix_pre	0		120	33.0	2.5	/experiments/knapen_AOT/AOT_stimuli/rescaled_final/1124_fw.mp4	0.0	288.1367287635803	1.0001859664916992
35	166.34162592887878	pulse	0	t		33.0	2.5	/experiments/knapen_AOT/AOT_stimuli/rescaled_final/1124_fw.mp4	0.0	288.71216678619385	
35	166.76637387275696	movie	1		246	33.0	2.5	/experiments/knapen_AOT/AOT_stimuli/rescaled_final/1124_fw.mp4	0.0	289.136914730072	2.500364065170288
35	167.94302678108215	pulse	1	t		33.0	2.5	/experiments/knapen_AOT/AOT_stimuli/rescaled_final/1124_fw.mp4	0.0	290.3135676383972	
35	169.26673793792725	fix_post	2		12	33.0	2.5	/experiments/knapen_AOT/AOT_stimuli/rescaled_final/1124_fw.mp4	0.0	291.6372787952423	0.10002899169921875
36	169.36676692962646	fix_pre	0		120	34.0	2.5	/experiments/knapen_AOT/AOT_stimuli/rescaled_final/2055_fw.mp4	0.0	291.7373077869415	1.0001380443572998
36	169.54198479652405	pulse	0	t		34.0	2.5	/experiments/knapen_AOT/AOT_stimuli/rescaled_final/2055_fw.mp4	0.0	291.9125256538391	
36	170.36690497398376	movie	1		244	34.0	2.5	/experiments/knapen_AOT/AOT_stimuli/rescaled_final/2055_fw.mp4	0.0	292.7374458312988	2.500379800796509
36	171.1422679424286	pulse	1	t		34.0	2.5	/experiments/knapen_AOT/AOT_stimuli/rescaled_final/2055_fw.mp4	0.0	293.51280879974365	
36	172.74249386787415	pulse	1	t		34.0	2.5	/experiments/knapen_AOT/AOT_stimuli/rescaled_final/2055_fw.mp4	0.0	295.1130347251892	
36	172.86728477478027	fix_post	2		12	34.0	2.5	/experiments/knapen_AOT/AOT_stimuli/rescaled_final/2055_fw.mp4	0.0	295.23782563209534	0.1000070571899414
37	172.96729183197021	fix_pre	0		119	35.0	2.5	blank	1.0	295.3378326892853	0.9918789863586426
37	173.95917081832886	movie	1		300	35.0	2.5	blank	1.0	296.3297116756439	2.50032901763916
37	174.34274578094482	pulse	1	t		35.0	2.5	blank	1.0	296.7132866382599	
37	175.94296383857727	pulse	1	t		35.0	2.5	blank	1.0	298.31350469589233	
37	176.45949983596802	fix_post	2		12	35.0	2.5	blank	1.0	298.8300406932831	0.10008502006530762
38	176.55958485603333	fix_pre	0		119	36.0	2.5	/experiments/knapen_AOT/AOT_stimuli/rescaled_final/0328_rv.mp4	0.0	298.9301257133484	0.9917521476745605
38	177.5432629585266	pulse	0	t		36.0	2.5	/experiments/knapen_AOT/AOT_stimuli/rescaled_final/0328_rv.mp4	0.0	299.9138038158417	
38	177.55133700370789	movie	1		245	36.0	2.5	/experiments/knapen_AOT/AOT_stimuli/rescaled_final/0328_rv.mp4	0.0	299.92187786102295	2.5086748600006104
38	179.14420986175537	pulse	1	t		36.0	2.5	/experiments/knapen_AOT/AOT_stimuli/rescaled_final/0328_rv.mp4	0.0	301.51475071907043	
38	180.0600118637085	fix_post	2		12	36.0	2.5	/experiments/knapen_AOT/AOT_stimuli/rescaled_final/0328_rv.mp4	0.0	302.43055272102356	0.10005307197570801
39	180.1600649356842	fix_pre	0		120	37.0	2.5	/experiments/knapen_AOT/AOT_stimuli/rescaled_final/0956_rv.mp4	0.0	302.53060579299927	1.0001049041748047
39	180.74378299713135	pulse	0	t		37.0	2.5	/experiments/knapen_AOT/AOT_stimuli/rescaled_final/0956_rv.mp4	0.0	303.1143238544464	
39	181.160169839859	movie	1		243	37.0	2.5	/experiments/knapen_AOT/AOT_stimuli/rescaled_final/0956_rv.mp4	0.0	303.5307106971741	2.500391960144043
39	182.34399390220642	pulse	1	t		37.0	2.5	/experiments/knapen_AOT/AOT_stimuli/rescaled_final/0956_rv.mp4	0.0	304.7145347595215	
39	183.66056180000305	fix_post	2		12	37.0	2.5	/experiments/knapen_AOT/AOT_stimuli/rescaled_final/0956_rv.mp4	0.0	306.0311026573181	0.10000419616699219
40	183.76056599617004	fix_pre	0		120	38.0	2.5	/experiments/knapen_AOT/AOT_stimuli/rescaled_final/0766_fw.mp4	0.0	306.1311068534851	1.0001699924468994
40	183.9441328048706	pulse	0	t		38.0	2.5	/experiments/knapen_AOT/AOT_stimuli/rescaled_final/0766_fw.mp4	0.0	306.31467366218567	
40	184.76073598861694	movie	1		244	38.0	2.5	/experiments/knapen_AOT/AOT_stimuli/rescaled_final/0766_fw.mp4	0.0	307.131276845932	2.5003669261932373
40	185.54440784454346	pulse	1	t		38.0	2.5	/experiments/knapen_AOT/AOT_stimuli/rescaled_final/0766_fw.mp4	0.0	307.9149487018585	
40	187.1422369480133	pulse	1	t		38.0	2.5	/experiments/knapen_AOT/AOT_stimuli/rescaled_final/0766_fw.mp4	0.0	309.51277780532837	
40	187.26110291481018	fix_post	2		12	38.0	2.5	/experiments/knapen_AOT/AOT_stimuli/rescaled_final/0766_fw.mp4	0.0	309.63164377212524	0.10002303123474121
41	187.36112594604492	fix_pre	0		120	39.0	2.5	/experiments/knapen_AOT/AOT_stimuli/rescaled_final/0119_rv.mp4	0.0	309.73166680336	1.0001449584960938
41	188.36127090454102	movie	1		242	39.0	2.5	/experiments/knapen_AOT/AOT_stimuli/rescaled_final/0119_rv.mp4	0.0	310.7318117618561	2.492121934890747
41	188.7461609840393	pulse	1	t		39.0	2.5	/experiments/knapen_AOT/AOT_stimuli/rescaled_final/0119_rv.mp4	0.0	311.11670184135437	
41	190.3451108932495	pulse	1	t		39.0	2.5	/experiments/knapen_AOT/AOT_stimuli/rescaled_final/0119_rv.mp4	0.0	312.7156517505646	
41	190.85339283943176	fix_post	2		12	39.0	2.5	/experiments/knapen_AOT/AOT_stimuli/rescaled_final/0119_rv.mp4	0.0	313.2239336967468	0.09990811347961426
42	190.95330095291138	fix_pre	0		120	40.0	2.5	/experiments/knapen_AOT/AOT_stimuli/rescaled_final/1238_rv.mp4	0.0	313.32384181022644	1.0001659393310547
42	191.94533896446228	pulse	0	t		40.0	2.5	/experiments/knapen_AOT/AOT_stimuli/rescaled_final/1238_rv.mp4	0.0	314.31587982177734	
42	191.95346689224243	movie	1		241	40.0	2.5	/experiments/knapen_AOT/AOT_stimuli/rescaled_final/1238_rv.mp4	0.0	314.3240077495575	2.508694887161255
42	193.54614090919495	pulse	1	t		40.0	2.5	/experiments/knapen_AOT/AOT_stimuli/rescaled_final/1238_rv.mp4	0.0	315.91668176651	
42	194.4621617794037	fix_post	2		12	40.0	2.5	/experiments/knapen_AOT/AOT_stimuli/rescaled_final/1238_rv.mp4	0.0	316.83270263671875	0.10004210472106934
43	194.56220388412476	fix_pre	0		120	41.0	2.5	/experiments/knapen_AOT/AOT_stimuli/rescaled_final/1862_fw.mp4	0.0	316.9327447414398	1.0001370906829834
43	195.145929813385	pulse	0	t		41.0	2.5	/experiments/knapen_AOT/AOT_stimuli/rescaled_final/1862_fw.mp4	0.0	317.5164706707001	
43	195.56234097480774	movie	1		243	41.0	2.5	/experiments/knapen_AOT/AOT_stimuli/rescaled_final/1862_fw.mp4	0.0	317.9328818321228	2.500398874282837
43	196.74612879753113	pulse	1	t		41.0	2.5	/experiments/knapen_AOT/AOT_stimuli/rescaled_final/1862_fw.mp4	0.0	319.1166696548462	
43	198.06273984909058	fix_post	2		12	41.0	2.5	/experiments/knapen_AOT/AOT_stimuli/rescaled_final/1862_fw.mp4	0.0	320.43328070640564	0.1000070571899414
44	198.16274690628052	fix_pre	0		120	42.0	2.5	blank	1.0	320.5332877635956	1.0001308917999268
44	198.34626078605652	pulse	0	t		42.0	2.5	blank	1.0	320.7168016433716	
44	199.16287779808044	movie	1		300	42.0	2.5	blank	1.0	321.5334186553955	2.5003600120544434
44	199.94651198387146	pulse	1	t		42.0	2.5	blank	1.0	322.3170528411865	
44	201.5468487739563	pulse	1	t		42.0	2.5	blank	1.0	323.91738963127136	
44	201.6632378101349	fix_post	2		12	42.0	2.5	blank	1.0	324.03377866744995	0.10003900527954102
45	201.76327681541443	fix_pre	0		120	43.0	2.5	/experiments/knapen_AOT/AOT_stimuli/rescaled_final/0972_rv.mp4	0.0	324.1338176727295	1.0001351833343506
45	202.76341199874878	movie	1		242	43.0	2.5	/experiments/knapen_AOT/AOT_stimuli/rescaled_final/0972_rv.mp4	0.0	325.13395285606384	2.4920427799224854
45	203.1476719379425	pulse	1	t		43.0	2.5	/experiments/knapen_AOT/AOT_stimuli/rescaled_final/0972_rv.mp4	0.0	325.51821279525757	
45	204.74726390838623	pulse	1	t		43.0	2.5	/experiments/knapen_AOT/AOT_stimuli/rescaled_final/0972_rv.mp4	0.0	327.1178047657013	
45	205.25545477867126	fix_post	2		12	43.0	2.5	/experiments/knapen_AOT/AOT_stimuli/rescaled_final/0972_rv.mp4	0.0	327.6259956359863	0.10000920295715332
46	205.35546398162842	fix_pre	0		120	44.0	2.5	/experiments/knapen_AOT/AOT_stimuli/rescaled_final/1257_fw.mp4	0.0	327.7260048389435	1.0001578330993652
46	206.34754490852356	pulse	0	t		44.0	2.5	/experiments/knapen_AOT/AOT_stimuli/rescaled_final/1257_fw.mp4	0.0	328.7180857658386	
46	206.35562181472778	movie	1		247	44.0	2.5	/experiments/knapen_AOT/AOT_stimuli/rescaled_final/1257_fw.mp4	0.0	328.72616267204285	2.50870418548584
46	207.94842982292175	pulse	1	t		44.0	2.5	/experiments/knapen_AOT/AOT_stimuli/rescaled_final/1257_fw.mp4	0.0	330.3189706802368	
46	208.86432600021362	fix_post	2		12	44.0	2.5	/experiments/knapen_AOT/AOT_stimuli/rescaled_final/1257_fw.mp4	0.0	331.2348668575287	0.10010194778442383
47	208.96442794799805	fix_pre	0		120	45.0	2.5	/experiments/knapen_AOT/AOT_stimuli/rescaled_final/0790_rv.mp4	0.0	331.3349688053131	1.0000879764556885
47	209.54805397987366	pulse	0	t		45.0	2.5	/experiments/knapen_AOT/AOT_stimuli/rescaled_final/0790_rv.mp4	0.0	331.9185948371887	
47	209.96451592445374	movie	1		244	45.0	2.5	/experiments/knapen_AOT/AOT_stimuli/rescaled_final/0790_rv.mp4	0.0	332.3350567817688	2.500359058380127
47	211.1483018398285	pulse	1	t		45.0	2.5	/experiments/knapen_AOT/AOT_stimuli/rescaled_final/0790_rv.mp4	0.0	333.51884269714355	
47	212.46487498283386	fix_post	2		12	45.0	2.5	/experiments/knapen_AOT/AOT_stimuli/rescaled_final/0790_rv.mp4	0.0	334.8354158401489	0.10003900527954102
48	212.5649139881134	fix_pre	0		120	46.0	2.5	/experiments/knapen_AOT/AOT_stimuli/rescaled_final/0471_fw.mp4	0.0	334.93545484542847	1.0001227855682373
48	212.74103689193726	pulse	0	t		46.0	2.5	/experiments/knapen_AOT/AOT_stimuli/rescaled_final/0471_fw.mp4	0.0	335.1115777492523	
48	213.56503677368164	movie	1		244	46.0	2.5	/experiments/knapen_AOT/AOT_stimuli/rescaled_final/0471_fw.mp4	0.0	335.9355776309967	2.500345230102539
48	214.3411889076233	pulse	1	t		46.0	2.5	/experiments/knapen_AOT/AOT_stimuli/rescaled_final/0471_fw.mp4	0.0	336.71172976493835	
48	215.95058298110962	pulse	1	t		46.0	2.5	/experiments/knapen_AOT/AOT_stimuli/rescaled_final/0471_fw.mp4	0.0	338.3211238384247	
48	216.06538200378418	fix_post	2		12	46.0	2.5	/experiments/knapen_AOT/AOT_stimuli/rescaled_final/0471_fw.mp4	0.0	338.43592286109924	0.10001778602600098
49	216.16539978981018	fix_pre	0		120	47.0	2.5	blank	1.0	338.53594064712524	1.0002071857452393
49	217.16560697555542	movie	1		299	47.0	2.5	blank	1.0	339.5361478328705	2.49202299118042
49	217.54159283638	pulse	1	t		47.0	2.5	blank	1.0	339.91213369369507	
49	219.14120388031006	pulse	1	t		47.0	2.5	blank	1.0	341.5117447376251	
49	219.65762996673584	fix_post	2		12	47.0	2.5	blank	1.0	342.0281708240509	0.09999990463256836
50	219.7576298713684	fix_pre	0		119	48.0	2.5	/experiments/knapen_AOT/AOT_stimuli/rescaled_final/0701_rv.mp4	0.0	342.1281707286835	0.99180006980896
50	220.74123978614807	pulse	0	t		48.0	2.5	/experiments/knapen_AOT/AOT_stimuli/rescaled_final/0701_rv.mp4	0.0	343.11178064346313	
50	220.74942994117737	movie	1		244	48.0	2.5	/experiments/knapen_AOT/AOT_stimuli/rescaled_final/0701_rv.mp4	0.0	343.11997079849243	2.508708953857422
50	222.34261393547058	pulse	1	t		48.0	2.5	/experiments/knapen_AOT/AOT_stimuli/rescaled_final/0701_rv.mp4	0.0	344.71315479278564	
50	223.2581388950348	fix_post	2		12	48.0	2.5	/experiments/knapen_AOT/AOT_stimuli/rescaled_final/0701_rv.mp4	0.0	345.62867975234985	0.1000070571899414
51	223.35814595222473	fix_pre	0		120	49.0	2.5	/experiments/knapen_AOT/AOT_stimuli/rescaled_final/0888_rv.mp4	0.0	345.7286868095398	1.0001540184020996
51	223.94176578521729	pulse	0	t		49.0	2.5	/experiments/knapen_AOT/AOT_stimuli/rescaled_final/0888_rv.mp4	0.0	346.31230664253235	
51	224.35829997062683	movie	1		243	49.0	2.5	/experiments/knapen_AOT/AOT_stimuli/rescaled_final/0888_rv.mp4	0.0	346.7288408279419	2.500393867492676
51	225.54219889640808	pulse	1	t		49.0	2.5	/experiments/knapen_AOT/AOT_stimuli/rescaled_final/0888_rv.mp4	0.0	347.91273975372314	
51	226.8586938381195	fix_post	2		12	49.0	2.5	/experiments/knapen_AOT/AOT_stimuli/rescaled_final/0888_rv.mp4	0.0	349.22923469543457	0.10004401206970215
52	226.9587378501892	fix_pre	0		120	50.0	2.5	/experiments/knapen_AOT/AOT_stimuli/rescaled_final/0357_rv.mp4	0.0	349.3292787075043	1.0001089572906494
52	227.14224696159363	pulse	0	t		50.0	2.5	/experiments/knapen_AOT/AOT_stimuli/rescaled_final/0357_rv.mp4	0.0	349.5127878189087	
52	227.95884680747986	movie	1		244	50.0	2.5	/experiments/knapen_AOT/AOT_stimuli/rescaled_final/0357_rv.mp4	0.0	350.3293876647949	2.5003650188446045
52	228.74245500564575	pulse	1	t		50.0	2.5	/experiments/knapen_AOT/AOT_stimuli/rescaled_final/0357_rv.mp4	0.0	351.1129958629608	
52	230.3426058292389	pulse	1	t		50.0	2.5	/experiments/knapen_AOT/AOT_stimuli/rescaled_final/0357_rv.mp4	0.0	352.71314668655396	
52	230.45921182632446	fix_post	2		12	50.0	2.5	/experiments/knapen_AOT/AOT_stimuli/rescaled_final/0357_rv.mp4	0.0	352.8297526836395	0.10001897811889648
53	230.55923080444336	fix_pre	0		120	51.0	2.5	/experiments/knapen_AOT/AOT_stimuli/rescaled_final/0442_fw.mp4	0.0	352.9297716617584	1.0001640319824219
53	231.55939483642578	movie	1		243	51.0	2.5	/experiments/knapen_AOT/AOT_stimuli/rescaled_final/0442_fw.mp4	0.0	353.92993569374084	2.4920101165771484
53	231.9436948299408	pulse	1	t		51.0	2.5	/experiments/knapen_AOT/AOT_stimuli/rescaled_final/0442_fw.mp4	0.0	354.31423568725586	
53	233.54326391220093	pulse	1	t		51.0	2.5	/experiments/knapen_AOT/AOT_stimuli/rescaled_final/0442_fw.mp4	0.0	355.913804769516	
53	234.05140495300293	fix_post	2		12	51.0	2.5	/experiments/knapen_AOT/AOT_stimuli/rescaled_final/0442_fw.mp4	0.0	356.421945810318	0.10003805160522461
54	234.15144300460815	fix_pre	0		120	52.0	2.5	/experiments/knapen_AOT/AOT_stimuli/rescaled_final/2013_fw.mp4	0.0	356.5219838619232	1.0001628398895264
54	235.1433777809143	pulse	0	t		52.0	2.5	/experiments/knapen_AOT/AOT_stimuli/rescaled_final/2013_fw.mp4	0.0	357.51391863822937	
54	235.15160584449768	movie	1		245	52.0	2.5	/experiments/knapen_AOT/AOT_stimuli/rescaled_final/2013_fw.mp4	0.0	357.52214670181274	2.5086829662323
54	236.7439727783203	pulse	1	t		52.0	2.5	/experiments/knapen_AOT/AOT_stimuli/rescaled_final/2013_fw.mp4	0.0	359.1145136356354	
54	237.66028881072998	fix_post	2		12	52.0	2.5	/experiments/knapen_AOT/AOT_stimuli/rescaled_final/2013_fw.mp4	0.0	360.03082966804504	0.10004615783691406
55	237.7603349685669	fix_pre	0		120	53.0	2.5	/experiments/knapen_AOT/AOT_stimuli/rescaled_final/0702_rv.mp4	0.0	360.13087582588196	1.0001208782196045
55	238.3440020084381	pulse	0	t		53.0	2.5	/experiments/knapen_AOT/AOT_stimuli/rescaled_final/0702_rv.mp4	0.0	360.7145428657532	
55	238.7604558467865	movie	1		243	53.0	2.5	/experiments/knapen_AOT/AOT_stimuli/rescaled_final/0702_rv.mp4	0.0	361.13099670410156	2.500359058380127
55	239.94434189796448	pulse	1	t		53.0	2.5	/experiments/knapen_AOT/AOT_stimuli/rescaled_final/0702_rv.mp4	0.0	362.31488275527954	
55	241.26081490516663	fix_post	2		12	53.0	2.5	/experiments/knapen_AOT/AOT_stimuli/rescaled_final/0702_rv.mp4	0.0	363.6313557624817	0.10007691383361816
56	241.36089181900024	fix_pre	0		120	54.0	2.5	/experiments/knapen_AOT/AOT_stimuli/rescaled_final/1973_rv.mp4	0.0	363.7314326763153	1.0001490116119385
56	241.54435896873474	pulse	0	t		54.0	2.5	/experiments/knapen_AOT/AOT_stimuli/rescaled_final/1973_rv.mp4	0.0	363.9148998260498	
56	242.36104083061218	movie	1		244	54.0	2.5	/experiments/knapen_AOT/AOT_stimuli/rescaled_final/1973_rv.mp4	0.0	364.73158168792725	2.5003321170806885
56	243.14469695091248	pulse	1	t		54.0	2.5	/experiments/knapen_AOT/AOT_stimuli/rescaled_final/1973_rv.mp4	0.0	365.51523780822754	
56	244.74494695663452	pulse	1	t		54.0	2.5	/experiments/knapen_AOT/AOT_stimuli/rescaled_final/1973_rv.mp4	0.0	367.1154878139496	
56	244.86137294769287	fix_post	2		12	54.0	2.5	/experiments/knapen_AOT/AOT_stimuli/rescaled_final/1973_rv.mp4	0.0	367.23191380500793	0.09999489784240723
57	244.96136784553528	fix_pre	0		120	55.0	2.5	blank	1.0	367.33190870285034	1.0001499652862549
57	245.96151781082153	movie	1		299	55.0	2.5	blank	1.0	368.3320586681366	2.492079019546509
57	246.345223903656	pulse	1	t		55.0	2.5	blank	1.0	368.71576476097107	
57	247.94529795646667	pulse	1	t		55.0	2.5	blank	1.0	370.31583881378174	
57	248.45359683036804	fix_post	2		12	55.0	2.5	blank	1.0	370.8241376876831	0.09998703002929688
58	248.55358386039734	fix_pre	0		120	56.0	2.5	/experiments/knapen_AOT/AOT_stimuli/rescaled_final/0652_rv.mp4	0.0	370.9241247177124	1.000143051147461
58	249.54558396339417	pulse	0	t		56.0	2.5	/experiments/knapen_AOT/AOT_stimuli/rescaled_final/0652_rv.mp4	0.0	371.91612482070923	
58	249.5537269115448	movie	1		245	56.0	2.5	/experiments/knapen_AOT/AOT_stimuli/rescaled_final/0652_rv.mp4	0.0	371.92426776885986	2.508737087249756
58	251.146497964859	pulse	1	t		56.0	2.5	/experiments/knapen_AOT/AOT_stimuli/rescaled_final/0652_rv.mp4	0.0	373.5170388221741	
58	252.06246399879456	fix_post	2		12	56.0	2.5	/experiments/knapen_AOT/AOT_stimuli/rescaled_final/0652_rv.mp4	0.0	374.4330048561096	0.1000528335571289
59	252.16251683235168	fix_pre	0		117	57.0	2.5	/experiments/knapen_AOT/AOT_stimuli/rescaled_final/1367_rv.mp4	0.0	374.53305768966675	1.0000860691070557
59	252.74619698524475	pulse	0	t		57.0	2.5	/experiments/knapen_AOT/AOT_stimuli/rescaled_final/1367_rv.mp4	0.0	375.1167378425598	
59	253.16260290145874	movie	1		243	57.0	2.5	/experiments/knapen_AOT/AOT_stimuli/rescaled_final/1367_rv.mp4	0.0	375.5331437587738	2.5004379749298096
59	254.34649181365967	pulse	1	t		57.0	2.5	/experiments/knapen_AOT/AOT_stimuli/rescaled_final/1367_rv.mp4	0.0	376.71703267097473	
59	255.66304087638855	fix_post	2		12	57.0	2.5	/experiments/knapen_AOT/AOT_stimuli/rescaled_final/1367_rv.mp4	0.0	378.0335817337036	0.09998393058776855
60	255.76302480697632	fix_pre	0		120	58.0	2.5	/experiments/knapen_AOT/AOT_stimuli/rescaled_final/2047_rv.mp4	0.0	378.1335656642914	1.0001180171966553
60	255.94652390480042	pulse	0	t		58.0	2.5	/experiments/knapen_AOT/AOT_stimuli/rescaled_final/2047_rv.mp4	0.0	378.3170647621155	
60	256.763142824173	movie	1		244	58.0	2.5	/experiments/knapen_AOT/AOT_stimuli/rescaled_final/2047_rv.mp4	0.0	379.13368368148804	2.5003771781921387
60	257.5467848777771	pulse	1	t		58.0	2.5	/experiments/knapen_AOT/AOT_stimuli/rescaled_final/2047_rv.mp4	0.0	379.91732573509216	
60	259.1470878124237	pulse	1	t		58.0	2.5	/experiments/knapen_AOT/AOT_stimuli/rescaled_final/2047_rv.mp4	0.0	381.51762866973877	
60	259.2635200023651	fix_post	2		12	58.0	2.5	/experiments/knapen_AOT/AOT_stimuli/rescaled_final/2047_rv.mp4	0.0	381.6340608596802	0.10007190704345703
61	259.36359190940857	fix_pre	0		120	59.0	2.5	/experiments/knapen_AOT/AOT_stimuli/rescaled_final/0142_rv.mp4	0.0	381.73413276672363	1.0000848770141602
61	260.36367678642273	movie	1		244	59.0	2.5	/experiments/knapen_AOT/AOT_stimuli/rescaled_final/0142_rv.mp4	0.0	382.7342176437378	2.4920380115509033
61	260.7486789226532	pulse	1	t		59.0	2.5	/experiments/knapen_AOT/AOT_stimuli/rescaled_final/0142_rv.mp4	0.0	383.11921977996826	
61	262.34748888015747	pulse	1	t		59.0	2.5	/experiments/knapen_AOT/AOT_stimuli/rescaled_final/0142_rv.mp4	0.0	384.71802973747253	
61	262.85571479797363	fix_post	2		12	59.0	2.5	/experiments/knapen_AOT/AOT_stimuli/rescaled_final/0142_rv.mp4	0.0	385.2262556552887	0.10000920295715332
62	262.9557240009308	fix_pre	0		120	60.0	2.5	/experiments/knapen_AOT/AOT_stimuli/rescaled_final/1238_rv.mp4	0.0	385.32626485824585	1.0001637935638428
62	263.94773292541504	pulse	0	t		60.0	2.5	/experiments/knapen_AOT/AOT_stimuli/rescaled_final/1238_rv.mp4	0.0	386.3182737827301	
62	263.95588779449463	movie	1		244	60.0	2.5	/experiments/knapen_AOT/AOT_stimuli/rescaled_final/1238_rv.mp4	0.0	386.3264286518097	2.508756160736084
62	265.5488049983978	pulse	1	t		60.0	2.5	/experiments/knapen_AOT/AOT_stimuli/rescaled_final/1238_rv.mp4	0.0	387.9193458557129	
62	266.4646439552307	fix_post	2		12	60.0	2.5	/experiments/knapen_AOT/AOT_stimuli/rescaled_final/1238_rv.mp4	0.0	388.8351848125458	0.09996390342712402
63	266.56460785865784	fix_pre	0		120	61.0	2.5	/experiments/knapen_AOT/AOT_stimuli/rescaled_final/0977_fw.mp4	0.0	388.9351487159729	1.000143051147461
63	267.14061188697815	pulse	0	t		61.0	2.5	/experiments/knapen_AOT/AOT_stimuli/rescaled_final/0977_fw.mp4	0.0	389.5111527442932	
63	267.5647509098053	movie	1		246	61.0	2.5	/experiments/knapen_AOT/AOT_stimuli/rescaled_final/0977_fw.mp4	0.0	389.93529176712036	2.5003719329833984
63	268.7406988143921	pulse	1	t		61.0	2.5	/experiments/knapen_AOT/AOT_stimuli/rescaled_final/0977_fw.mp4	0.0	391.11123967170715	
63	270.0651228427887	fix_post	2		12	61.0	2.5	/experiments/knapen_AOT/AOT_stimuli/rescaled_final/0977_fw.mp4	0.0	392.43566370010376	0.10000395774841309
64	270.1651268005371	fix_pre	0		120	62.0	2.5	/experiments/knapen_AOT/AOT_stimuli/rescaled_final/0370_fw.mp4	0.0	392.5356676578522	1.0002121925354004
64	270.3411657810211	pulse	0	t		62.0	2.5	/experiments/knapen_AOT/AOT_stimuli/rescaled_final/0370_fw.mp4	0.0	392.7117066383362	
64	271.1653389930725	movie	1		245	62.0	2.5	/experiments/knapen_AOT/AOT_stimuli/rescaled_final/0370_fw.mp4	0.0	393.5358798503876	2.500304937362671
64	271.94068598747253	pulse	1	t		62.0	2.5	/experiments/knapen_AOT/AOT_stimuli/rescaled_final/0370_fw.mp4	0.0	394.3112268447876	
64	273.5407929420471	pulse	1	t		62.0	2.5	/experiments/knapen_AOT/AOT_stimuli/rescaled_final/0370_fw.mp4	0.0	395.9113337993622	
64	273.6656439304352	fix_post	2		12	62.0	2.5	/experiments/knapen_AOT/AOT_stimuli/rescaled_final/0370_fw.mp4	0.0	396.03618478775024	0.10003185272216797
65	273.76567578315735	fix_pre	0		120	63.0	2.5	blank	1.0	396.1362166404724	1.0001921653747559
65	274.7658679485321	movie	1		299	63.0	2.5	blank	1.0	397.13640880584717	2.4919979572296143
65	275.1410188674927	pulse	1	t		63.0	2.5	blank	1.0	397.51155972480774	
65	276.74122285842896	pulse	1	t		63.0	2.5	blank	1.0	399.111763715744	
65	277.2578659057617	fix_post	2		12	63.0	2.5	blank	1.0	399.6284067630768	0.10012698173522949
66	277.35799288749695	fix_pre	0		119	64.0	2.5	/experiments/knapen_AOT/AOT_stimuli/rescaled_final/1557_fw.mp4	0.0	399.728533744812	0.9916911125183105
66	278.3417217731476	pulse	0	t		64.0	2.5	/experiments/knapen_AOT/AOT_stimuli/rescaled_final/1557_fw.mp4	0.0	400.71226263046265	
66	278.34968400001526	movie	1		246	64.0	2.5	/experiments/knapen_AOT/AOT_stimuli/rescaled_final/1557_fw.mp4	0.0	400.7202248573303	2.508711814880371
66	279.94326281547546	pulse	1	t		64.0	2.5	/experiments/knapen_AOT/AOT_stimuli/rescaled_final/1557_fw.mp4	0.0	402.3138036727905	
66	280.85839581489563	fix_post	2		12	64.0	2.5	/experiments/knapen_AOT/AOT_stimuli/rescaled_final/1557_fw.mp4	0.0	403.2289366722107	0.10007715225219727
67	280.9584729671478	fix_pre	0		120	65.0	2.5	/experiments/knapen_AOT/AOT_stimuli/rescaled_final/1215_rv.mp4	0.0	403.3290138244629	1.000105857849121
67	281.5419888496399	pulse	0	t		65.0	2.5	/experiments/knapen_AOT/AOT_stimuli/rescaled_final/1215_rv.mp4	0.0	403.91252970695496	
67	281.95857882499695	movie	1		245	65.0	2.5	/experiments/knapen_AOT/AOT_stimuli/rescaled_final/1215_rv.mp4	0.0	404.329119682312	2.5004310607910156
67	283.1423108577728	pulse	1	t		65.0	2.5	/experiments/knapen_AOT/AOT_stimuli/rescaled_final/1215_rv.mp4	0.0	405.5128517150879	
67	284.45900988578796	fix_post	2		12	65.0	2.5	/experiments/knapen_AOT/AOT_stimuli/rescaled_final/1215_rv.mp4	0.0	406.829550743103	0.0999610424041748
68	284.55897092819214	fix_pre	0		120	66.0	2.5	/experiments/knapen_AOT/AOT_stimuli/rescaled_final/2087_rv.mp4	0.0	406.9295117855072	1.000128984451294
68	284.7425768375397	pulse	0	t		66.0	2.5	/experiments/knapen_AOT/AOT_stimuli/rescaled_final/2087_rv.mp4	0.0	407.11311769485474	
68	285.55909991264343	movie	1		243	66.0	2.5	/experiments/knapen_AOT/AOT_stimuli/rescaled_final/2087_rv.mp4	0.0	407.9296407699585	2.5003669261932373
68	286.3428499698639	pulse	1	t		66.0	2.5	/experiments/knapen_AOT/AOT_stimuli/rescaled_final/2087_rv.mp4	0.0	408.71339082717896	
68	287.94298577308655	pulse	1	t		66.0	2.5	/experiments/knapen_AOT/AOT_stimuli/rescaled_final/2087_rv.mp4	0.0	410.3135266304016	
68	288.05946683883667	fix_post	2		12	66.0	2.5	/experiments/knapen_AOT/AOT_stimuli/rescaled_final/2087_rv.mp4	0.0	410.43000769615173	0.10008716583251953
69	288.1595540046692	fix_pre	0		120	67.0	2.5	/experiments/knapen_AOT/AOT_stimuli/rescaled_final/1518_fw.mp4	0.0	410.53009486198425	1.0000889301300049
69	289.1596429347992	movie	1		242	67.0	2.5	/experiments/knapen_AOT/AOT_stimuli/rescaled_final/1518_fw.mp4	0.0	411.53018379211426	2.492033004760742
69	289.5439558029175	pulse	1	t		67.0	2.5	/experiments/knapen_AOT/AOT_stimuli/rescaled_final/1518_fw.mp4	0.0	411.91449666023254	
69	291.14346981048584	pulse	1	t		67.0	2.5	/experiments/knapen_AOT/AOT_stimuli/rescaled_final/1518_fw.mp4	0.0	413.5140106678009	
69	291.65167593955994	fix_post	2		12	67.0	2.5	/experiments/knapen_AOT/AOT_stimuli/rescaled_final/1518_fw.mp4	0.0	414.022216796875	0.10000801086425781
70	291.7516839504242	fix_pre	0		120	68.0	2.5	blank	1.0	414.12222480773926	1.0001718997955322
70	292.7438519001007	pulse	0	t		68.0	2.5	blank	1.0	415.11439275741577	
70	292.7518558502197	movie	1		301	68.0	2.5	blank	1.0	415.1223967075348	2.508782148361206
70	294.3440008163452	pulse	1	t		68.0	2.5	blank	1.0	416.7145416736603	
70	295.26063799858093	fix_post	2		12	68.0	2.5	blank	1.0	417.631178855896	0.09992694854736328
71	295.3605649471283	fix_pre	0		120	69.0	2.5	/experiments/knapen_AOT/AOT_stimuli/rescaled_final/0559_rv.mp4	0.0	417.73110580444336	1.000187873840332
71	295.94420981407166	pulse	0	t		69.0	2.5	/experiments/knapen_AOT/AOT_stimuli/rescaled_final/0559_rv.mp4	0.0	418.3147506713867	
71	296.3607528209686	movie	1		243	69.0	2.5	/experiments/knapen_AOT/AOT_stimuli/rescaled_final/0559_rv.mp4	0.0	418.7312936782837	2.500326156616211
71	297.54446387290955	pulse	1	t		69.0	2.5	/experiments/knapen_AOT/AOT_stimuli/rescaled_final/0559_rv.mp4	0.0	419.9150047302246	
71	298.86107897758484	fix_post	2		12	69.0	2.5	/experiments/knapen_AOT/AOT_stimuli/rescaled_final/0559_rv.mp4	0.0	421.2316198348999	0.10004186630249023
72	298.96112084388733	fix_pre	0		120	70.0	2.5	/experiments/knapen_AOT/AOT_stimuli/rescaled_final/1387_fw.mp4	0.0	421.3316617012024	1.0001139640808105
72	299.1447329521179	pulse	0	t		70.0	2.5	/experiments/knapen_AOT/AOT_stimuli/rescaled_final/1387_fw.mp4	0.0	421.515273809433	
72	299.96123480796814	movie	1		245	70.0	2.5	/experiments/knapen_AOT/AOT_stimuli/rescaled_final/1387_fw.mp4	0.0	422.3317756652832	2.500418186187744
72	300.74504494667053	pulse	1	t		70.0	2.5	/experiments/knapen_AOT/AOT_stimuli/rescaled_final/1387_fw.mp4	0.0	423.1155858039856	
72	302.34278297424316	pulse	1	t		70.0	2.5	/experiments/knapen_AOT/AOT_stimuli/rescaled_final/1387_fw.mp4	0.0	424.7133238315582	
72	302.4616529941559	fix_post	2		12	70.0	2.5	/experiments/knapen_AOT/AOT_stimuli/rescaled_final/1387_fw.mp4	0.0	424.83219385147095	0.09997987747192383
73	302.5616328716278	fix_pre	0		120	71.0	2.5	/experiments/knapen_AOT/AOT_stimuli/rescaled_final/0517_rv.mp4	0.0	424.93217372894287	1.000175952911377
73	303.5618088245392	movie	1		243	71.0	2.5	/experiments/knapen_AOT/AOT_stimuli/rescaled_final/0517_rv.mp4	0.0	425.93234968185425	2.492004156112671
73	303.9456739425659	pulse	1	t		71.0	2.5	/experiments/knapen_AOT/AOT_stimuli/rescaled_final/0517_rv.mp4	0.0	426.316214799881	
73	305.54569482803345	pulse	1	t		71.0	2.5	/experiments/knapen_AOT/AOT_stimuli/rescaled_final/0517_rv.mp4	0.0	427.9162356853485	
73	306.05381298065186	fix_post	2		12	71.0	2.5	/experiments/knapen_AOT/AOT_stimuli/rescaled_final/0517_rv.mp4	0.0	428.4243538379669	0.10008382797241211
74	306.15389680862427	fix_pre	0		120	72.0	2.5	/experiments/knapen_AOT/AOT_stimuli/rescaled_final/0399_rv.mp4	0.0	428.52443766593933	1.0000910758972168
74	307.14607095718384	pulse	0	t		72.0	2.5	/experiments/knapen_AOT/AOT_stimuli/rescaled_final/0399_rv.mp4	0.0	429.5166118144989	
74	307.1539878845215	movie	1		246	72.0	2.5	/experiments/knapen_AOT/AOT_stimuli/rescaled_final/0399_rv.mp4	0.0	429.52452874183655	2.508765935897827
74	308.74683594703674	pulse	1	t		72.0	2.5	/experiments/knapen_AOT/AOT_stimuli/rescaled_final/0399_rv.mp4	0.0	431.1173768043518	
74	309.6627538204193	fix_post	2		12	72.0	2.5	/experiments/knapen_AOT/AOT_stimuli/rescaled_final/0399_rv.mp4	0.0	432.0332946777344	0.10003995895385742
75	309.76279377937317	fix_pre	0		120	73.0	2.5	/experiments/knapen_AOT/AOT_stimuli/rescaled_final/2008_fw.mp4	0.0	432.13333463668823	1.0001001358032227
75	310.3462769985199	pulse	0	t		73.0	2.5	/experiments/knapen_AOT/AOT_stimuli/rescaled_final/2008_fw.mp4	0.0	432.71681785583496	
75	310.7628939151764	movie	1		244	73.0	2.5	/experiments/knapen_AOT/AOT_stimuli/rescaled_final/2008_fw.mp4	0.0	433.13343477249146	2.500361919403076
75	311.9466919898987	pulse	1	t		73.0	2.5	/experiments/knapen_AOT/AOT_stimuli/rescaled_final/2008_fw.mp4	0.0	434.31723284721375	
75	313.26325583457947	fix_post	2		12	73.0	2.5	/experiments/knapen_AOT/AOT_stimuli/rescaled_final/2008_fw.mp4	0.0	435.63379669189453	0.09999895095825195
76	313.3632547855377	fix_pre	0		120	74.0	2.5	/experiments/knapen_AOT/AOT_stimuli/rescaled_final/0106_rv.mp4	0.0	435.7337956428528	1.0001912117004395
76	313.5469388961792	pulse	0	t		74.0	2.5	/experiments/knapen_AOT/AOT_stimuli/rescaled_final/0106_rv.mp4	0.0	435.91747975349426	
76	314.36344599723816	movie	1		243	74.0	2.5	/experiments/knapen_AOT/AOT_stimuli/rescaled_final/0106_rv.mp4	0.0	436.7339868545532	2.500337839126587
76	315.14716696739197	pulse	1	t		74.0	2.5	/experiments/knapen_AOT/AOT_stimuli/rescaled_final/0106_rv.mp4	0.0	437.51770782470703	
76	316.74732398986816	pulse	1	t		74.0	2.5	/experiments/knapen_AOT/AOT_stimuli/rescaled_final/0106_rv.mp4	0.0	439.1178648471832	
76	316.86378383636475	fix_post	2		12	74.0	2.5	/experiments/knapen_AOT/AOT_stimuli/rescaled_final/0106_rv.mp4	0.0	439.2343246936798	0.10001897811889648
77	316.96380281448364	fix_pre	0		120	75.0	2.5	/experiments/knapen_AOT/AOT_stimuli/rescaled_final/1439_fw.mp4	0.0	439.3343436717987	1.000162124633789
77	317.96396493911743	movie	1		242	75.0	2.5	/experiments/knapen_AOT/AOT_stimuli/rescaled_final/1439_fw.mp4	0.0	440.3345057964325	2.4920098781585693
77	318.35198998451233	pulse	1	t		75.0	2.5	/experiments/knapen_AOT/AOT_stimuli/rescaled_final/1439_fw.mp4	0.0	440.7225308418274	
77	319.94792580604553	pulse	1	t		75.0	2.5	/experiments/knapen_AOT/AOT_stimuli/rescaled_final/1439_fw.mp4	0.0	442.3184666633606	
77	320.455974817276	fix_post	2		12	75.0	2.5	/experiments/knapen_AOT/AOT_stimuli/rescaled_final/1439_fw.mp4	0.0	442.82651567459106	0.10002613067626953
78	320.55600094795227	fix_pre	0		120	76.0	2.5	blank	1.0	442.92654180526733	1.0001540184020996
78	321.54815888404846	pulse	0	t		76.0	2.5	blank	1.0	443.9186997413635	
78	321.55615496635437	movie	1		298	76.0	2.5	blank	1.0	443.92669582366943	2.5086708068847656
78	323.1482517719269	pulse	1	t		76.0	2.5	blank	1.0	445.51879262924194	
78	324.06482577323914	fix_post	2		12	76.0	2.5	blank	1.0	446.4353666305542	0.10001611709594727
79	324.1648418903351	fix_pre	0		120	77.0	2.5	/experiments/knapen_AOT/AOT_stimuli/rescaled_final/1026_fw.mp4	0.0	446.53538274765015	1.0001990795135498
79	324.7484109401703	pulse	0	t		77.0	2.5	/experiments/knapen_AOT/AOT_stimuli/rescaled_final/1026_fw.mp4	0.0	447.11895179748535	
79	325.16504096984863	movie	1		245	77.0	2.5	/experiments/knapen_AOT/AOT_stimuli/rescaled_final/1026_fw.mp4	0.0	447.5355818271637	2.5003538131713867
79	326.34198093414307	pulse	1	t		77.0	2.5	/experiments/knapen_AOT/AOT_stimuli/rescaled_final/1026_fw.mp4	0.0	448.71252179145813	
79	327.66539478302	fix_post	2		12	77.0	2.5	/experiments/knapen_AOT/AOT_stimuli/rescaled_final/1026_fw.mp4	0.0	450.0359356403351	0.10003399848937988
80	327.7654287815094	fix_pre	0		120	78.0	2.5	/experiments/knapen_AOT/AOT_stimuli/rescaled_final/0320_rv.mp4	0.0	450.13596963882446	1.0001120567321777
80	327.941458940506	pulse	0	t		78.0	2.5	/experiments/knapen_AOT/AOT_stimuli/rescaled_final/0320_rv.mp4	0.0	450.31199979782104	
80	328.7655408382416	movie	1		244	78.0	2.5	/experiments/knapen_AOT/AOT_stimuli/rescaled_final/0320_rv.mp4	0.0	451.13608169555664	2.500368118286133
80	329.541827917099	pulse	1	t		78.0	2.5	/experiments/knapen_AOT/AOT_stimuli/rescaled_final/0320_rv.mp4	0.0	451.91236877441406	
80	331.14713191986084	pulse	1	t		78.0	2.5	/experiments/knapen_AOT/AOT_stimuli/rescaled_final/0320_rv.mp4	0.0	453.5176727771759	
80	331.2659089565277	fix_post	2		12	78.0	2.5	/experiments/knapen_AOT/AOT_stimuli/rescaled_final/0320_rv.mp4	0.0	453.6364498138428	0.1000978946685791
81	331.3660068511963	fix_pre	0		120	79.0	2.5	/experiments/knapen_AOT/AOT_stimuli/rescaled_final/2088_fw.mp4	0.0	453.73654770851135	1.0000710487365723
81	332.36607789993286	movie	1		243	79.0	2.5	/experiments/knapen_AOT/AOT_stimuli/rescaled_final/2088_fw.mp4	0.0	454.7366187572479	2.4920389652252197
81	332.75022196769714	pulse	1	t		79.0	2.5	/experiments/knapen_AOT/AOT_stimuli/rescaled_final/2088_fw.mp4	0.0	455.1207628250122	
81	334.3416419029236	pulse	1	t		79.0	2.5	/experiments/knapen_AOT/AOT_stimuli/rescaled_final/2088_fw.mp4	0.0	456.71218276023865	
81	334.8581168651581	fix_post	2		12	79.0	2.5	/experiments/knapen_AOT/AOT_stimuli/rescaled_final/2088_fw.mp4	0.0	457.22865772247314	0.1000211238861084
82	334.9581379890442	fix_pre	0		119	80.0	2.5	/experiments/knapen_AOT/AOT_stimuli/rescaled_final/1736_fw.mp4	0.0	457.32867884635925	0.9917929172515869
82	335.94183897972107	pulse	0	t		80.0	2.5	/experiments/knapen_AOT/AOT_stimuli/rescaled_final/1736_fw.mp4	0.0	458.31237983703613	
82	335.9499309062958	movie	1		244	80.0	2.5	/experiments/knapen_AOT/AOT_stimuli/rescaled_final/1736_fw.mp4	0.0	458.32047176361084	2.5087249279022217
82	337.5425298213959	pulse	1	t		80.0	2.5	/experiments/knapen_AOT/AOT_stimuli/rescaled_final/1736_fw.mp4	0.0	459.91307067871094	
82	338.458655834198	fix_post	2		12	80.0	2.5	/experiments/knapen_AOT/AOT_stimuli/rescaled_final/1736_fw.mp4	0.0	460.82919669151306	0.10000395774841309
83	338.5586597919464	fix_pre	0		120	81.0	2.5	/experiments/knapen_AOT/AOT_stimuli/rescaled_final/1083_fw.mp4	0.0	460.9292006492615	1.0002110004425049
83	339.1422848701477	pulse	0	t		81.0	2.5	/experiments/knapen_AOT/AOT_stimuli/rescaled_final/1083_fw.mp4	0.0	461.51282572746277	
83	339.5588707923889	movie	1		245	81.0	2.5	/experiments/knapen_AOT/AOT_stimuli/rescaled_final/1083_fw.mp4	0.0	461.929411649704	2.500322103500366
83	340.74257493019104	pulse	1	t		81.0	2.5	/experiments/knapen_AOT/AOT_stimuli/rescaled_final/1083_fw.mp4	0.0	463.1131157875061	
83	342.0591928958893	fix_post	2		12	81.0	2.5	/experiments/knapen_AOT/AOT_stimuli/rescaled_final/1083_fw.mp4	0.0	464.42973375320435	0.10003995895385742
84	342.15923285484314	fix_pre	0		120	82.0	2.5	blank	1.0	464.5297737121582	1.0001299381256104
84	342.34279799461365	pulse	0	t		82.0	2.5	blank	1.0	464.7133388519287	
84	343.15936279296875	movie	1		300	82.0	2.5	blank	1.0	465.5299036502838	2.500383138656616
84	343.94300985336304	pulse	1	t		82.0	2.5	blank	1.0	466.3135507106781	
84	345.5433027744293	pulse	1	t		82.0	2.5	blank	1.0	467.9138436317444	
84	345.65974593162537	fix_post	2		12	82.0	2.5	blank	1.0	468.03028678894043	0.0999908447265625
85	345.75973677635193	fix_pre	0		120	83.0	2.5	/experiments/knapen_AOT/AOT_stimuli/rescaled_final/2094_rv.mp4	0.0	468.130277633667	1.0001862049102783
85	346.7599229812622	movie	1		243	83.0	2.5	/experiments/knapen_AOT/AOT_stimuli/rescaled_final/2094_rv.mp4	0.0	469.13046383857727	2.492039918899536
85	347.14416885375977	pulse	1	t		83.0	2.5	/experiments/knapen_AOT/AOT_stimuli/rescaled_final/2094_rv.mp4	0.0	469.51470971107483	
85	348.74372386932373	pulse	1	t		83.0	2.5	/experiments/knapen_AOT/AOT_stimuli/rescaled_final/2094_rv.mp4	0.0	471.1142647266388	
85	349.25196290016174	fix_post	2		12	83.0	2.5	/experiments/knapen_AOT/AOT_stimuli/rescaled_final/2094_rv.mp4	0.0	471.6225037574768	0.09998202323913574
87	349.3519449234009	stim	0		1716					471.72248578071594	14.30216097831726
87	350.3439838886261	pulse	0	t						472.71452474594116	
87	351.94419980049133	pulse	0	t						474.3147406578064	
87	353.54439997673035	pulse	0	t						475.9149408340454	
87	355.14474987983704	pulse	0	t						477.5152907371521	
87	356.7449688911438	pulse	0	t						479.11550974845886	
87	358.34516882896423	pulse	0	t						480.7157096862793	
87	359.9453318119049	pulse	0	t						482.31587266921997	
87	361.5456509590149	pulse	0	t						483.91619181632996	
87	363.14586782455444	pulse	0	t						485.5164086818695	
