trial_nr	onset	event_type	phase	response	nr_frames	movie_index	movie_duration	movie_file	blank	onset_abs	duration
0	0.20843815803527832	stim	0		7					53.69562315940857	0.058183908462524414
0	0.2586860656738281	response	0	space						53.74587106704712	
1	0.26662206649780273	stim	0		4648					53.753807067871094	38.74909210205078
1	39.005738973617554	pulse	0	t						92.49292397499084	
1	39.015714168548584	stim	1		1716					92.50289916992188	14.30046796798706
1	40.59784197807312	pulse	1	t						94.08502697944641	
1	42.19808602333069	pulse	1	t						95.68527102470398	
1	43.79829812049866	pulse	1	t						97.28548312187195	
1	45.39856505393982	pulse	1	t						98.88575005531311	
1	46.99884104728699	pulse	1	t						100.48602604866028	
1	48.599056005477905	pulse	1	t						102.0862410068512	
1	50.19914507865906	pulse	1	t						103.68633008003235	
1	51.79950404167175	pulse	1	t						105.28668904304504	
2	53.316182136535645	fix_pre	0		11	0.0	2.5	/experiments/knapen_AOT/AOT_stimuli/rescaled_final/0732_fw.mp4	0.0	106.80336713790894	0.09173393249511719
2	53.39983415603638	pulse	0	t		0.0	2.5	/experiments/knapen_AOT/AOT_stimuli/rescaled_final/0732_fw.mp4	0.0	106.88701915740967	
2	53.40791606903076	movie	1		244	0.0	2.5	/experiments/knapen_AOT/AOT_stimuli/rescaled_final/0732_fw.mp4	0.0	106.89510107040405	2.508668899536133
2	55.00075006484985	pulse	1	t		0.0	2.5	/experiments/knapen_AOT/AOT_stimuli/rescaled_final/0732_fw.mp4	0.0	108.48793506622314	
2	55.916584968566895	fix_post	2		12	0.0	2.5	/experiments/knapen_AOT/AOT_stimuli/rescaled_final/0732_fw.mp4	0.0	109.40376996994019	0.10003399848937988
3	56.016618967056274	fix_pre	0		120	1.0	2.5	/experiments/knapen_AOT/AOT_stimuli/rescaled_final/2116_fw.mp4	0.0	109.50380396842957	1.0001251697540283
3	56.60019898414612	pulse	0	t		1.0	2.5	/experiments/knapen_AOT/AOT_stimuli/rescaled_final/2116_fw.mp4	0.0	110.08738398551941	
3	57.0167441368103	movie	1		243	1.0	2.5	/experiments/knapen_AOT/AOT_stimuli/rescaled_final/2116_fw.mp4	0.0	110.5039291381836	2.5004160404205322
3	58.20059514045715	pulse	1	t		1.0	2.5	/experiments/knapen_AOT/AOT_stimuli/rescaled_final/2116_fw.mp4	0.0	111.68778014183044	
3	59.517160177230835	fix_post	2		12	1.0	2.5	/experiments/knapen_AOT/AOT_stimuli/rescaled_final/2116_fw.mp4	0.0	113.00434517860413	0.0999598503112793
4	59.617120027542114	fix_pre	0		120	2.0	2.5	/experiments/knapen_AOT/AOT_stimuli/rescaled_final/1471_rv.mp4	0.0	113.1043050289154	1.0001771450042725
4	59.800820112228394	pulse	0	t		2.0	2.5	/experiments/knapen_AOT/AOT_stimuli/rescaled_final/1471_rv.mp4	0.0	113.28800511360168	
4	60.61729717254639	movie	1		242	2.0	2.5	/experiments/knapen_AOT/AOT_stimuli/rescaled_final/1471_rv.mp4	0.0	114.10448217391968	2.5005087852478027
4	61.40100908279419	pulse	1	t		2.0	2.5	/experiments/knapen_AOT/AOT_stimuli/rescaled_final/1471_rv.mp4	0.0	114.88819408416748	
4	63.00120496749878	pulse	1	t		2.0	2.5	/experiments/knapen_AOT/AOT_stimuli/rescaled_final/1471_rv.mp4	0.0	116.48838996887207	
4	63.11780595779419	fix_post	2		12	2.0	2.5	/experiments/knapen_AOT/AOT_stimuli/rescaled_final/1471_rv.mp4	0.0	116.60499095916748	0.09991908073425293
5	63.21772503852844	fix_pre	0		120	3.0	2.5	/experiments/knapen_AOT/AOT_stimuli/rescaled_final/0552_rv.mp4	0.0	116.70491003990173	1.0001039505004883
5	64.21782898902893	movie	1		242	3.0	2.5	/experiments/knapen_AOT/AOT_stimuli/rescaled_final/0552_rv.mp4	0.0	117.70501399040222	2.492159128189087
5	64.60273599624634	pulse	1	t		3.0	2.5	/experiments/knapen_AOT/AOT_stimuli/rescaled_final/0552_rv.mp4	0.0	118.08992099761963	
5	66.20164108276367	pulse	1	t		3.0	2.5	/experiments/knapen_AOT/AOT_stimuli/rescaled_final/0552_rv.mp4	0.0	119.68882608413696	
5	66.70998811721802	fix_post	2		12	3.0	2.5	/experiments/knapen_AOT/AOT_stimuli/rescaled_final/0552_rv.mp4	0.0	120.19717311859131	0.09991192817687988
6	66.8099000453949	fix_pre	0		120	4.0	2.5	/experiments/knapen_AOT/AOT_stimuli/rescaled_final/0067_rv.mp4	0.0	120.29708504676819	1.000119924545288
6	67.80194807052612	pulse	0	t		4.0	2.5	/experiments/knapen_AOT/AOT_stimuli/rescaled_final/0067_rv.mp4	0.0	121.28913307189941	
6	67.81001996994019	movie	1		244	4.0	2.5	/experiments/knapen_AOT/AOT_stimuli/rescaled_final/0067_rv.mp4	0.0	121.29720497131348	2.50868821144104
6	69.40271496772766	pulse	1	t		4.0	2.5	/experiments/knapen_AOT/AOT_stimuli/rescaled_final/0067_rv.mp4	0.0	122.88989996910095	
6	70.31870818138123	fix_post	2		12	4.0	2.5	/experiments/knapen_AOT/AOT_stimuli/rescaled_final/0067_rv.mp4	0.0	123.80589318275452	0.10007476806640625
7	70.41878294944763	fix_pre	0		120	5.0	2.5	/experiments/knapen_AOT/AOT_stimuli/rescaled_final/1857_fw.mp4	0.0	123.90596795082092	1.0001311302185059
7	71.00236296653748	pulse	0	t		5.0	2.5	/experiments/knapen_AOT/AOT_stimuli/rescaled_final/1857_fw.mp4	0.0	124.48954796791077	
7	71.41891407966614	movie	1		242	5.0	2.5	/experiments/knapen_AOT/AOT_stimuli/rescaled_final/1857_fw.mp4	0.0	124.90609908103943	2.500509023666382
7	72.60277915000916	pulse	1	t		5.0	2.5	/experiments/knapen_AOT/AOT_stimuli/rescaled_final/1857_fw.mp4	0.0	126.08996415138245	
7	73.91942310333252	fix_post	2		12	5.0	2.5	/experiments/knapen_AOT/AOT_stimuli/rescaled_final/1857_fw.mp4	0.0	127.40660810470581	0.09990096092224121
8	74.01932406425476	fix_pre	0		120	6.0	2.5	/experiments/knapen_AOT/AOT_stimuli/rescaled_final/2151_rv.mp4	0.0	127.50650906562805	1.0002179145812988
8	74.2029721736908	pulse	0	t		6.0	2.5	/experiments/knapen_AOT/AOT_stimuli/rescaled_final/2151_rv.mp4	0.0	127.69015717506409	
8	75.01954197883606	movie	1		243	6.0	2.5	/experiments/knapen_AOT/AOT_stimuli/rescaled_final/2151_rv.mp4	0.0	128.50672698020935	2.5003252029418945
8	75.79569602012634	pulse	1	t		6.0	2.5	/experiments/knapen_AOT/AOT_stimuli/rescaled_final/2151_rv.mp4	0.0	129.28288102149963	
8	77.40358114242554	pulse	1	t		6.0	2.5	/experiments/knapen_AOT/AOT_stimuli/rescaled_final/2151_rv.mp4	0.0	130.89076614379883	
8	77.51986718177795	fix_post	2		12	6.0	2.5	/experiments/knapen_AOT/AOT_stimuli/rescaled_final/2151_rv.mp4	0.0	131.00705218315125	0.09997797012329102
9	77.61984515190125	fix_pre	0		120	7.0	2.5	blank	1.0	131.10703015327454	1.0001308917999268
9	78.61997604370117	movie	1		299	7.0	2.5	blank	1.0	132.10716104507446	2.492032051086426
9	78.99594497680664	pulse	1	t		7.0	2.5	blank	1.0	132.48312997817993	
9	80.59630608558655	pulse	1	t		7.0	2.5	blank	1.0	134.08349108695984	
9	81.1120080947876	fix_post	2		12	7.0	2.5	blank	1.0	134.5991930961609	0.10007500648498535
10	81.21208310127258	fix_pre	0		119	8.0	2.5	/experiments/knapen_AOT/AOT_stimuli/rescaled_final/1472_fw.mp4	0.0	134.69926810264587	0.9917938709259033
10	82.195885181427	pulse	0	t		8.0	2.5	/experiments/knapen_AOT/AOT_stimuli/rescaled_final/1472_fw.mp4	0.0	135.6830701828003	
10	82.20387697219849	movie	1		244	8.0	2.5	/experiments/knapen_AOT/AOT_stimuli/rescaled_final/1472_fw.mp4	0.0	135.69106197357178	2.508740186691284
10	83.79674506187439	pulse	1	t		8.0	2.5	/experiments/knapen_AOT/AOT_stimuli/rescaled_final/1472_fw.mp4	0.0	137.28393006324768	
10	84.71261715888977	fix_post	2		12	8.0	2.5	/experiments/knapen_AOT/AOT_stimuli/rescaled_final/1472_fw.mp4	0.0	138.19980216026306	0.10000801086425781
11	84.81262516975403	fix_pre	0		120	9.0	2.5	/experiments/knapen_AOT/AOT_stimuli/rescaled_final/1909_rv.mp4	0.0	138.29981017112732	1.0000908374786377
11	85.39611911773682	pulse	0	t		9.0	2.5	/experiments/knapen_AOT/AOT_stimuli/rescaled_final/1909_rv.mp4	0.0	138.8833041191101	
11	85.81271600723267	movie	1		241	9.0	2.5	/experiments/knapen_AOT/AOT_stimuli/rescaled_final/1909_rv.mp4	0.0	139.29990100860596	2.5172200202941895
11	86.99659705162048	pulse	1	t		9.0	2.5	/experiments/knapen_AOT/AOT_stimuli/rescaled_final/1909_rv.mp4	0.0	140.48378205299377	
11	88.32993602752686	fix_post	2		9	9.0	2.5	/experiments/knapen_AOT/AOT_stimuli/rescaled_final/1909_rv.mp4	0.0	141.81712102890015	0.08320093154907227
12	88.41313695907593	fix_pre	0		120	10.0	2.5	/experiments/knapen_AOT/AOT_stimuli/rescaled_final/1837_rv.mp4	0.0	141.90032196044922	1.0001871585845947
12	88.5966169834137	pulse	0	t		10.0	2.5	/experiments/knapen_AOT/AOT_stimuli/rescaled_final/1837_rv.mp4	0.0	142.083801984787	
12	89.41332411766052	movie	1		242	10.0	2.5	/experiments/knapen_AOT/AOT_stimuli/rescaled_final/1837_rv.mp4	0.0	142.9005091190338	2.500440835952759
12	90.19688105583191	pulse	1	t		10.0	2.5	/experiments/knapen_AOT/AOT_stimuli/rescaled_final/1837_rv.mp4	0.0	143.6840660572052	
12	91.79714918136597	pulse	1	t		10.0	2.5	/experiments/knapen_AOT/AOT_stimuli/rescaled_final/1837_rv.mp4	0.0	145.28433418273926	
12	91.91376495361328	fix_post	2		12	10.0	2.5	/experiments/knapen_AOT/AOT_stimuli/rescaled_final/1837_rv.mp4	0.0	145.40094995498657	0.09991717338562012
13	92.0136821269989	fix_pre	0		120	11.0	2.5	/experiments/knapen_AOT/AOT_stimuli/rescaled_final/0686_rv.mp4	0.0	145.5008671283722	1.0001130104064941
13	93.0137951374054	movie	1		241	11.0	2.5	/experiments/knapen_AOT/AOT_stimuli/rescaled_final/0686_rv.mp4	0.0	146.5009801387787	2.492069959640503
13	93.39886212348938	pulse	1	t		11.0	2.5	/experiments/knapen_AOT/AOT_stimuli/rescaled_final/0686_rv.mp4	0.0	146.88604712486267	
13	94.99771499633789	pulse	1	t		11.0	2.5	/experiments/knapen_AOT/AOT_stimuli/rescaled_final/0686_rv.mp4	0.0	148.48489999771118	
13	95.5058650970459	fix_post	2		12	11.0	2.5	/experiments/knapen_AOT/AOT_stimuli/rescaled_final/0686_rv.mp4	0.0	148.9930500984192	0.09997987747192383
14	95.60584497451782	fix_pre	0		120	12.0	2.5	blank	1.0	149.0930299758911	1.0001840591430664
14	96.59788703918457	pulse	0	t		12.0	2.5	blank	1.0	150.08507204055786	
14	96.60602903366089	movie	1		301	12.0	2.5	blank	1.0	150.09321403503418	2.508707046508789
14	98.19805407524109	pulse	1	t		12.0	2.5	blank	1.0	151.68523907661438	
14	99.11473608016968	fix_post	2		12	12.0	2.5	blank	1.0	152.60192108154297	0.10012197494506836
15	99.21485805511475	fix_pre	0		120	13.0	2.5	/experiments/knapen_AOT/AOT_stimuli/rescaled_final/0348_rv.mp4	0.0	152.70204305648804	1.0000059604644775
15	99.7983820438385	pulse	0	t		13.0	2.5	/experiments/knapen_AOT/AOT_stimuli/rescaled_final/0348_rv.mp4	0.0	153.2855670452118	
15	100.21486401557922	movie	1		242	13.0	2.5	/experiments/knapen_AOT/AOT_stimuli/rescaled_final/0348_rv.mp4	0.0	153.70204901695251	2.5005781650543213
15	101.39869403839111	pulse	1	t		13.0	2.5	/experiments/knapen_AOT/AOT_stimuli/rescaled_final/0348_rv.mp4	0.0	154.8858790397644	
15	102.71544218063354	fix_post	2		12	13.0	2.5	/experiments/knapen_AOT/AOT_stimuli/rescaled_final/0348_rv.mp4	0.0	156.20262718200684	0.09982085227966309
16	102.81526303291321	fix_pre	0		120	14.0	2.5	/experiments/knapen_AOT/AOT_stimuli/rescaled_final/0981_rv.mp4	0.0	156.3024480342865	1.0002169609069824
16	102.99885106086731	pulse	0	t		14.0	2.5	/experiments/knapen_AOT/AOT_stimuli/rescaled_final/0981_rv.mp4	0.0	156.4860360622406	
16	103.81547999382019	movie	1		242	14.0	2.5	/experiments/knapen_AOT/AOT_stimuli/rescaled_final/0981_rv.mp4	0.0	157.30266499519348	2.5004360675811768
16	104.59905695915222	pulse	1	t		14.0	2.5	/experiments/knapen_AOT/AOT_stimuli/rescaled_final/0981_rv.mp4	0.0	158.0862419605255	
16	106.19929504394531	pulse	1	t		14.0	2.5	/experiments/knapen_AOT/AOT_stimuli/rescaled_final/0981_rv.mp4	0.0	159.6864800453186	
16	106.31591606140137	fix_post	2		12	14.0	2.5	/experiments/knapen_AOT/AOT_stimuli/rescaled_final/0981_rv.mp4	0.0	159.80310106277466	0.09989094734191895
17	106.41580700874329	fix_pre	0		120	15.0	2.5	/experiments/knapen_AOT/AOT_stimuli/rescaled_final/0732_rv.mp4	0.0	159.90299201011658	1.0001230239868164
17	107.4159300327301	movie	1		243	15.0	2.5	/experiments/knapen_AOT/AOT_stimuli/rescaled_final/0732_rv.mp4	0.0	160.9031150341034	2.4920520782470703
17	107.80075001716614	pulse	1	t		15.0	2.5	/experiments/knapen_AOT/AOT_stimuli/rescaled_final/0732_rv.mp4	0.0	161.28793501853943	
17	109.39975094795227	pulse	1	t		15.0	2.5	/experiments/knapen_AOT/AOT_stimuli/rescaled_final/0732_rv.mp4	0.0	162.88693594932556	
17	109.90798211097717	fix_post	2		12	15.0	2.5	/experiments/knapen_AOT/AOT_stimuli/rescaled_final/0732_rv.mp4	0.0	163.39516711235046	0.10001301765441895
18	110.00799512863159	fix_pre	0		120	16.0	2.5	/experiments/knapen_AOT/AOT_stimuli/rescaled_final/1998_fw.mp4	0.0	163.49518013000488	1.000152826309204
18	111.00004816055298	pulse	0	t		16.0	2.5	/experiments/knapen_AOT/AOT_stimuli/rescaled_final/1998_fw.mp4	0.0	164.48723316192627	
18	111.0081479549408	movie	1		243	16.0	2.5	/experiments/knapen_AOT/AOT_stimuli/rescaled_final/1998_fw.mp4	0.0	164.4953329563141	2.508714199066162
18	112.60099506378174	pulse	1	t		16.0	2.5	/experiments/knapen_AOT/AOT_stimuli/rescaled_final/1998_fw.mp4	0.0	166.08818006515503	
18	113.51686215400696	fix_post	2		12	16.0	2.5	/experiments/knapen_AOT/AOT_stimuli/rescaled_final/1998_fw.mp4	0.0	167.00404715538025	0.09999799728393555
19	113.6168601512909	fix_pre	0		120	17.0	2.5	/experiments/knapen_AOT/AOT_stimuli/rescaled_final/0058_rv.mp4	0.0	167.10404515266418	1.0001428127288818
19	114.20057201385498	pulse	0	t		17.0	2.5	/experiments/knapen_AOT/AOT_stimuli/rescaled_final/0058_rv.mp4	0.0	167.68775701522827	
19	114.61700296401978	movie	1		244	17.0	2.5	/experiments/knapen_AOT/AOT_stimuli/rescaled_final/0058_rv.mp4	0.0	168.10418796539307	2.5003931522369385
19	115.80080103874207	pulse	1	t		17.0	2.5	/experiments/knapen_AOT/AOT_stimuli/rescaled_final/0058_rv.mp4	0.0	169.28798604011536	
19	117.11739611625671	fix_post	2		12	17.0	2.5	/experiments/knapen_AOT/AOT_stimuli/rescaled_final/0058_rv.mp4	0.0	170.60458111763	0.10008597373962402
20	117.21748208999634	fix_pre	0		120	18.0	2.5	/experiments/knapen_AOT/AOT_stimuli/rescaled_final/1930_rv.mp4	0.0	170.70466709136963	1.0000560283660889
20	117.40097212791443	pulse	0	t		18.0	2.5	/experiments/knapen_AOT/AOT_stimuli/rescaled_final/1930_rv.mp4	0.0	170.88815712928772	
20	118.21753811836243	movie	1		243	18.0	2.5	/experiments/knapen_AOT/AOT_stimuli/rescaled_final/1930_rv.mp4	0.0	171.70472311973572	2.5004918575286865
20	119.00114703178406	pulse	1	t		18.0	2.5	/experiments/knapen_AOT/AOT_stimuli/rescaled_final/1930_rv.mp4	0.0	172.48833203315735	
20	120.60130095481873	pulse	1	t		18.0	2.5	/experiments/knapen_AOT/AOT_stimuli/rescaled_final/1930_rv.mp4	0.0	174.08848595619202	
20	120.71802997589111	fix_post	2		12	18.0	2.5	/experiments/knapen_AOT/AOT_stimuli/rescaled_final/1930_rv.mp4	0.0	174.2052149772644	0.09989500045776367
21	120.81792497634888	fix_pre	0		120	19.0	2.5	/experiments/knapen_AOT/AOT_stimuli/rescaled_final/0925_rv.mp4	0.0	174.30510997772217	1.0001699924468994
21	121.81809496879578	movie	1		242	19.0	2.5	/experiments/knapen_AOT/AOT_stimuli/rescaled_final/0925_rv.mp4	0.0	175.30527997016907	2.492115020751953
21	122.20214605331421	pulse	1	t		19.0	2.5	/experiments/knapen_AOT/AOT_stimuli/rescaled_final/0925_rv.mp4	0.0	175.6893310546875	
21	123.80204105377197	pulse	1	t		19.0	2.5	/experiments/knapen_AOT/AOT_stimuli/rescaled_final/0925_rv.mp4	0.0	177.28922605514526	
21	124.31020998954773	fix_post	2		12	19.0	2.5	/experiments/knapen_AOT/AOT_stimuli/rescaled_final/0925_rv.mp4	0.0	177.79739499092102	0.09994816780090332
22	124.41015815734863	fix_pre	0		120	20.0	2.5	blank	1.0	177.89734315872192	1.000140905380249
22	125.40212512016296	pulse	0	t		20.0	2.5	blank	1.0	178.88931012153625	
22	125.41029906272888	movie	1		301	20.0	2.5	blank	1.0	178.89748406410217	2.5086910724639893
22	127.00239109992981	pulse	1	t		20.0	2.5	blank	1.0	180.4895761013031	
22	127.91899013519287	fix_post	2		12	20.0	2.5	blank	1.0	181.40617513656616	0.10000896453857422
23	128.01899909973145	fix_pre	0		120	21.0	2.5	/experiments/knapen_AOT/AOT_stimuli/rescaled_final/0627_fw.mp4	0.0	181.50618410110474	1.000182867050171
23	128.60273098945618	pulse	0	t		21.0	2.5	/experiments/knapen_AOT/AOT_stimuli/rescaled_final/0627_fw.mp4	0.0	182.08991599082947	
23	129.01918196678162	movie	1		243	21.0	2.5	/experiments/knapen_AOT/AOT_stimuli/rescaled_final/0627_fw.mp4	0.0	182.5063669681549	2.500370979309082
23	130.1956729888916	pulse	1	t		21.0	2.5	/experiments/knapen_AOT/AOT_stimuli/rescaled_final/0627_fw.mp4	0.0	183.6828579902649	
23	131.5195529460907	fix_post	2		12	21.0	2.5	/experiments/knapen_AOT/AOT_stimuli/rescaled_final/0627_fw.mp4	0.0	185.006737947464	0.10004615783691406
24	131.6195991039276	fix_pre	0		120	22.0	2.5	/experiments/knapen_AOT/AOT_stimuli/rescaled_final/2052_rv.mp4	0.0	185.1067841053009	1.0001239776611328
24	131.79577898979187	pulse	0	t		22.0	2.5	/experiments/knapen_AOT/AOT_stimuli/rescaled_final/2052_rv.mp4	0.0	185.28296399116516	
24	132.61972308158875	movie	1		243	22.0	2.5	/experiments/knapen_AOT/AOT_stimuli/rescaled_final/2052_rv.mp4	0.0	186.10690808296204	2.5004470348358154
24	133.3960189819336	pulse	1	t		22.0	2.5	/experiments/knapen_AOT/AOT_stimuli/rescaled_final/2052_rv.mp4	0.0	186.88320398330688	
24	135.00331211090088	pulse	1	t		22.0	2.5	/experiments/knapen_AOT/AOT_stimuli/rescaled_final/2052_rv.mp4	0.0	188.49049711227417	
24	135.12017011642456	fix_post	2		12	22.0	2.5	/experiments/knapen_AOT/AOT_stimuli/rescaled_final/2052_rv.mp4	0.0	188.60735511779785	0.0999460220336914
25	135.22011613845825	fix_pre	0		119	23.0	2.5	/experiments/knapen_AOT/AOT_stimuli/rescaled_final/0924_rv.mp4	0.0	188.70730113983154	0.9918019771575928
25	136.21191811561584	movie	1		243	23.0	2.5	/experiments/knapen_AOT/AOT_stimuli/rescaled_final/0924_rv.mp4	0.0	189.69910311698914	2.500464916229248
25	136.59599804878235	pulse	1	t		23.0	2.5	/experiments/knapen_AOT/AOT_stimuli/rescaled_final/0924_rv.mp4	0.0	190.08318305015564	
25	138.19567608833313	pulse	1	t		23.0	2.5	/experiments/knapen_AOT/AOT_stimuli/rescaled_final/0924_rv.mp4	0.0	191.68286108970642	
25	138.7123830318451	fix_post	2		12	23.0	2.5	/experiments/knapen_AOT/AOT_stimuli/rescaled_final/0924_rv.mp4	0.0	192.19956803321838	0.10005307197570801
26	138.8124361038208	fix_pre	0		119	24.0	2.5	/experiments/knapen_AOT/AOT_stimuli/rescaled_final/0481_fw.mp4	0.0	192.2996211051941	0.9916479587554932
26	139.79610514640808	pulse	0	t		24.0	2.5	/experiments/knapen_AOT/AOT_stimuli/rescaled_final/0481_fw.mp4	0.0	193.28329014778137	
26	139.8040840625763	movie	1		245	24.0	2.5	/experiments/knapen_AOT/AOT_stimuli/rescaled_final/0481_fw.mp4	0.0	193.29126906394958	2.508763074874878
26	141.3973331451416	pulse	1	t		24.0	2.5	/experiments/knapen_AOT/AOT_stimuli/rescaled_final/0481_fw.mp4	0.0	194.8845181465149	
26	142.31284713745117	fix_post	2		12	24.0	2.5	/experiments/knapen_AOT/AOT_stimuli/rescaled_final/0481_fw.mp4	0.0	195.80003213882446	0.10004997253417969
27	142.41289710998535	fix_pre	0		120	25.0	2.5	/experiments/knapen_AOT/AOT_stimuli/rescaled_final/1131_rv.mp4	0.0	195.90008211135864	1.0000920295715332
27	142.99652409553528	pulse	0	t		25.0	2.5	/experiments/knapen_AOT/AOT_stimuli/rescaled_final/1131_rv.mp4	0.0	196.48370909690857	
27	143.41298913955688	movie	1		243	25.0	2.5	/experiments/knapen_AOT/AOT_stimuli/rescaled_final/1131_rv.mp4	0.0	196.90017414093018	2.5005359649658203
27	144.59679698944092	pulse	1	t		25.0	2.5	/experiments/knapen_AOT/AOT_stimuli/rescaled_final/1131_rv.mp4	0.0	198.0839819908142	
27	145.9135251045227	fix_post	2		12	25.0	2.5	/experiments/knapen_AOT/AOT_stimuli/rescaled_final/1131_rv.mp4	0.0	199.400710105896	0.0998849868774414
28	146.01341009140015	fix_pre	0		120	26.0	2.5	blank	1.0	199.50059509277344	1.00016188621521
28	146.1969029903412	pulse	0	t		26.0	2.5	blank	1.0	199.68408799171448	
28	147.01357197761536	movie	1		300	26.0	2.5	blank	1.0	200.50075697898865	2.5003139972686768
28	147.79715204238892	pulse	1	t		26.0	2.5	blank	1.0	201.2843370437622	
28	149.39736700057983	pulse	1	t		26.0	2.5	blank	1.0	202.88455200195312	
28	149.51388597488403	fix_post	2		12	26.0	2.5	blank	1.0	203.00107097625732	0.10001897811889648
29	149.61390495300293	fix_pre	0		118	27.0	2.5	/experiments/knapen_AOT/AOT_stimuli/rescaled_final/1816_fw.mp4	0.0	203.10108995437622	1.0002081394195557
29	150.61411309242249	movie	1		242	27.0	2.5	/experiments/knapen_AOT/AOT_stimuli/rescaled_final/1816_fw.mp4	0.0	204.10129809379578	2.491990089416504
29	150.9980731010437	pulse	1	t		27.0	2.5	/experiments/knapen_AOT/AOT_stimuli/rescaled_final/1816_fw.mp4	0.0	204.485258102417	
29	152.5979721546173	pulse	1	t		27.0	2.5	/experiments/knapen_AOT/AOT_stimuli/rescaled_final/1816_fw.mp4	0.0	206.0851571559906	
29	153.106103181839	fix_post	2		12	27.0	2.5	/experiments/knapen_AOT/AOT_stimuli/rescaled_final/1816_fw.mp4	0.0	206.59328818321228	0.10003495216369629
30	153.20613813400269	fix_pre	0		120	28.0	2.5	/experiments/knapen_AOT/AOT_stimuli/rescaled_final/0577_rv.mp4	0.0	206.69332313537598	1.0002310276031494
30	154.19808316230774	pulse	0	t		28.0	2.5	/experiments/knapen_AOT/AOT_stimuli/rescaled_final/0577_rv.mp4	0.0	207.68526816368103	
30	154.20636916160583	movie	1		243	28.0	2.5	/experiments/knapen_AOT/AOT_stimuli/rescaled_final/0577_rv.mp4	0.0	207.69355416297913	2.5086069107055664
30	155.79896116256714	pulse	1	t		28.0	2.5	/experiments/knapen_AOT/AOT_stimuli/rescaled_final/0577_rv.mp4	0.0	209.28614616394043	
30	156.7149760723114	fix_post	2		12	28.0	2.5	/experiments/knapen_AOT/AOT_stimuli/rescaled_final/0577_rv.mp4	0.0	210.2021610736847	0.10002899169921875
31	156.81500506401062	fix_pre	0		120	29.0	2.5	/experiments/knapen_AOT/AOT_stimuli/rescaled_final/1113_fw.mp4	0.0	210.3021900653839	1.0001471042633057
31	157.3985731601715	pulse	0	t		29.0	2.5	/experiments/knapen_AOT/AOT_stimuli/rescaled_final/1113_fw.mp4	0.0	210.8857581615448	
31	157.81515216827393	movie	1		242	29.0	2.5	/experiments/knapen_AOT/AOT_stimuli/rescaled_final/1113_fw.mp4	0.0	211.30233716964722	2.5003228187561035
31	158.99900007247925	pulse	1	t		29.0	2.5	/experiments/knapen_AOT/AOT_stimuli/rescaled_final/1113_fw.mp4	0.0	212.48618507385254	
31	160.31547498703003	fix_post	2		12	29.0	2.5	/experiments/knapen_AOT/AOT_stimuli/rescaled_final/1113_fw.mp4	0.0	213.80265998840332	0.10003113746643066
32	160.41550612449646	fix_pre	0		120	30.0	2.5	/experiments/knapen_AOT/AOT_stimuli/rescaled_final/1768_rv.mp4	0.0	213.90269112586975	1.0001959800720215
32	160.5991849899292	pulse	0	t		30.0	2.5	/experiments/knapen_AOT/AOT_stimuli/rescaled_final/1768_rv.mp4	0.0	214.0863699913025	
32	161.41570210456848	movie	1		242	30.0	2.5	/experiments/knapen_AOT/AOT_stimuli/rescaled_final/1768_rv.mp4	0.0	214.90288710594177	2.5003750324249268
32	162.19939804077148	pulse	1	t		30.0	2.5	/experiments/knapen_AOT/AOT_stimuli/rescaled_final/1768_rv.mp4	0.0	215.68658304214478	
32	163.7995159626007	pulse	1	t		30.0	2.5	/experiments/knapen_AOT/AOT_stimuli/rescaled_final/1768_rv.mp4	0.0	217.286700963974	
32	163.9160771369934	fix_post	2		12	30.0	2.5	/experiments/knapen_AOT/AOT_stimuli/rescaled_final/1768_rv.mp4	0.0	217.4032621383667	0.09999799728393555
33	164.01607513427734	fix_pre	0		120	31.0	2.5	/experiments/knapen_AOT/AOT_stimuli/rescaled_final/1148_fw.mp4	0.0	217.50326013565063	1.0001349449157715
33	165.01621007919312	movie	1		241	31.0	2.5	/experiments/knapen_AOT/AOT_stimuli/rescaled_final/1148_fw.mp4	0.0	218.5033950805664	2.4921350479125977
33	165.400563955307	pulse	1	t		31.0	2.5	/experiments/knapen_AOT/AOT_stimuli/rescaled_final/1148_fw.mp4	0.0	218.8877489566803	
33	167.00008416175842	pulse	1	t		31.0	2.5	/experiments/knapen_AOT/AOT_stimuli/rescaled_final/1148_fw.mp4	0.0	220.4872691631317	
33	167.5083451271057	fix_post	2		12	31.0	2.5	/experiments/knapen_AOT/AOT_stimuli/rescaled_final/1148_fw.mp4	0.0	220.995530128479	0.10002899169921875
34	167.60837411880493	fix_pre	0		120	32.0	2.5	/experiments/knapen_AOT/AOT_stimuli/rescaled_final/1841_fw.mp4	0.0	221.09555912017822	1.00010085105896
34	168.6002480983734	pulse	0	t		32.0	2.5	/experiments/knapen_AOT/AOT_stimuli/rescaled_final/1841_fw.mp4	0.0	222.0874330997467	
34	168.6084749698639	movie	1		244	32.0	2.5	/experiments/knapen_AOT/AOT_stimuli/rescaled_final/1841_fw.mp4	0.0	222.09565997123718	2.508632183074951
34	170.20120310783386	pulse	1	t		32.0	2.5	/experiments/knapen_AOT/AOT_stimuli/rescaled_final/1841_fw.mp4	0.0	223.68838810920715	
34	171.11710715293884	fix_post	2		12	32.0	2.5	/experiments/knapen_AOT/AOT_stimuli/rescaled_final/1841_fw.mp4	0.0	224.60429215431213	0.1000969409942627
35	171.2172040939331	fix_pre	0		120	33.0	2.5	/experiments/knapen_AOT/AOT_stimuli/rescaled_final/0319_fw.mp4	0.0	224.7043890953064	1.0000889301300049
35	171.80079007148743	pulse	0	t		33.0	2.5	/experiments/knapen_AOT/AOT_stimuli/rescaled_final/0319_fw.mp4	0.0	225.28797507286072	
35	172.2172930240631	movie	1		242	33.0	2.5	/experiments/knapen_AOT/AOT_stimuli/rescaled_final/0319_fw.mp4	0.0	225.7044780254364	2.500455141067505
35	173.40107202529907	pulse	1	t		33.0	2.5	/experiments/knapen_AOT/AOT_stimuli/rescaled_final/0319_fw.mp4	0.0	226.88825702667236	
35	174.71774816513062	fix_post	2		12	33.0	2.5	/experiments/knapen_AOT/AOT_stimuli/rescaled_final/0319_fw.mp4	0.0	228.2049331665039	0.0999298095703125
36	174.81767797470093	fix_pre	0		120	34.0	2.5	/experiments/knapen_AOT/AOT_stimuli/rescaled_final/0058_fw.mp4	0.0	228.30486297607422	1.0001981258392334
36	175.00119495391846	pulse	0	t		34.0	2.5	/experiments/knapen_AOT/AOT_stimuli/rescaled_final/0058_fw.mp4	0.0	228.48837995529175	
36	175.81787610054016	movie	1		245	34.0	2.5	/experiments/knapen_AOT/AOT_stimuli/rescaled_final/0058_fw.mp4	0.0	229.30506110191345	2.5002920627593994
36	176.60157108306885	pulse	1	t		34.0	2.5	/experiments/knapen_AOT/AOT_stimuli/rescaled_final/0058_fw.mp4	0.0	230.08875608444214	
36	178.20183396339417	pulse	1	t		34.0	2.5	/experiments/knapen_AOT/AOT_stimuli/rescaled_final/0058_fw.mp4	0.0	231.68901896476746	
36	178.31816816329956	fix_post	2		12	34.0	2.5	/experiments/knapen_AOT/AOT_stimuli/rescaled_final/0058_fw.mp4	0.0	231.80535316467285	0.10013985633850098
37	178.41830801963806	fix_pre	0		120	35.0	2.5	blank	1.0	231.90549302101135	1.0000619888305664
37	179.41837000846863	movie	1		299	35.0	2.5	blank	1.0	232.90555500984192	2.4920451641082764
37	179.80187606811523	pulse	1	t		35.0	2.5	blank	1.0	233.28906106948853	
37	181.40211701393127	pulse	1	t		35.0	2.5	blank	1.0	234.88930201530457	
37	181.9104151725769	fix_post	2		12	35.0	2.5	blank	1.0	235.3976001739502	0.10007786750793457
38	182.01049304008484	fix_pre	0		120	36.0	2.5	/experiments/knapen_AOT/AOT_stimuli/rescaled_final/0920_fw.mp4	0.0	235.49767804145813	1.000133991241455
38	183.00242114067078	pulse	0	t		36.0	2.5	/experiments/knapen_AOT/AOT_stimuli/rescaled_final/0920_fw.mp4	0.0	236.48960614204407	
38	183.0106270313263	movie	1		243	36.0	2.5	/experiments/knapen_AOT/AOT_stimuli/rescaled_final/0920_fw.mp4	0.0	236.49781203269958	2.5086960792541504
38	184.60394310951233	pulse	1	t		36.0	2.5	/experiments/knapen_AOT/AOT_stimuli/rescaled_final/0920_fw.mp4	0.0	238.09112811088562	
38	185.51932311058044	fix_post	2		12	36.0	2.5	/experiments/knapen_AOT/AOT_stimuli/rescaled_final/0920_fw.mp4	0.0	239.00650811195374	0.09995102882385254
39	185.6192741394043	fix_pre	0		120	37.0	2.5	/experiments/knapen_AOT/AOT_stimuli/rescaled_final/0262_rv.mp4	0.0	239.1064591407776	1.0001578330993652
39	186.20287704467773	pulse	0	t		37.0	2.5	/experiments/knapen_AOT/AOT_stimuli/rescaled_final/0262_rv.mp4	0.0	239.69006204605103	
39	186.61943197250366	movie	1		246	37.0	2.5	/experiments/knapen_AOT/AOT_stimuli/rescaled_final/0262_rv.mp4	0.0	240.10661697387695	2.500364065170288
39	187.80312395095825	pulse	1	t		37.0	2.5	/experiments/knapen_AOT/AOT_stimuli/rescaled_final/0262_rv.mp4	0.0	241.29030895233154	
39	189.11979603767395	fix_post	2		12	37.0	2.5	/experiments/knapen_AOT/AOT_stimuli/rescaled_final/0262_rv.mp4	0.0	242.60698103904724	0.10006308555603027
40	189.21985912322998	fix_pre	0		120	38.0	2.5	/experiments/knapen_AOT/AOT_stimuli/rescaled_final/0605_fw.mp4	0.0	242.70704412460327	1.0001158714294434
40	189.3959710597992	pulse	0	t		38.0	2.5	/experiments/knapen_AOT/AOT_stimuli/rescaled_final/0605_fw.mp4	0.0	242.88315606117249	
40	190.21997499465942	movie	1		242	38.0	2.5	/experiments/knapen_AOT/AOT_stimuli/rescaled_final/0605_fw.mp4	0.0	243.70715999603271	2.500455141067505
40	190.9962019920349	pulse	1	t		38.0	2.5	/experiments/knapen_AOT/AOT_stimuli/rescaled_final/0605_fw.mp4	0.0	244.4833869934082	
40	192.60370707511902	pulse	1	t		38.0	2.5	/experiments/knapen_AOT/AOT_stimuli/rescaled_final/0605_fw.mp4	0.0	246.0908920764923	
40	192.72043013572693	fix_post	2		12	38.0	2.5	/experiments/knapen_AOT/AOT_stimuli/rescaled_final/0605_fw.mp4	0.0	246.20761513710022	0.0999288558959961
41	192.82035899162292	fix_pre	0		120	39.0	2.5	/experiments/knapen_AOT/AOT_stimuli/rescaled_final/0894_rv.mp4	0.0	246.30754399299622	1.0001859664916992
41	193.82054495811462	movie	1		241	39.0	2.5	/experiments/knapen_AOT/AOT_stimuli/rescaled_final/0894_rv.mp4	0.0	247.30772995948792	2.4921770095825195
41	194.2048089504242	pulse	1	t		39.0	2.5	/experiments/knapen_AOT/AOT_stimuli/rescaled_final/0894_rv.mp4	0.0	247.69199395179749	
41	195.79696011543274	pulse	1	t		39.0	2.5	/experiments/knapen_AOT/AOT_stimuli/rescaled_final/0894_rv.mp4	0.0	249.28414511680603	
41	196.31272196769714	fix_post	2		12	39.0	2.5	/experiments/knapen_AOT/AOT_stimuli/rescaled_final/0894_rv.mp4	0.0	249.79990696907043	0.0998539924621582
42	196.4125759601593	fix_pre	0		119	40.0	2.5	blank	1.0	249.8997609615326	0.991828203201294
42	197.39614415168762	pulse	0	t		40.0	2.5	blank	1.0	250.8833291530609	
42	197.4044041633606	movie	1		301	40.0	2.5	blank	1.0	250.8915891647339	2.508673906326294
42	198.99639415740967	pulse	1	t		40.0	2.5	blank	1.0	252.48357915878296	
42	199.9130780696869	fix_post	2		12	40.0	2.5	blank	1.0	253.40026307106018	0.10001802444458008
43	200.01309609413147	fix_pre	0		120	41.0	2.5	/experiments/knapen_AOT/AOT_stimuli/rescaled_final/0541_fw.mp4	0.0	253.50028109550476	1.0001599788665771
43	200.59674310684204	pulse	0	t		41.0	2.5	/experiments/knapen_AOT/AOT_stimuli/rescaled_final/0541_fw.mp4	0.0	254.08392810821533	
43	201.01325607299805	movie	1		244	41.0	2.5	/experiments/knapen_AOT/AOT_stimuli/rescaled_final/0541_fw.mp4	0.0	254.50044107437134	2.50039005279541
43	202.19703698158264	pulse	1	t		41.0	2.5	/experiments/knapen_AOT/AOT_stimuli/rescaled_final/0541_fw.mp4	0.0	255.68422198295593	
43	203.51364612579346	fix_post	2		12	41.0	2.5	/experiments/knapen_AOT/AOT_stimuli/rescaled_final/0541_fw.mp4	0.0	257.00083112716675	0.10001301765441895
44	203.61365914344788	fix_pre	0		120	42.0	2.5	/experiments/knapen_AOT/AOT_stimuli/rescaled_final/0666_rv.mp4	0.0	257.10084414482117	1.000147819519043
44	203.79712510108948	pulse	0	t		42.0	2.5	/experiments/knapen_AOT/AOT_stimuli/rescaled_final/0666_rv.mp4	0.0	257.28431010246277	
44	204.61380696296692	movie	1		242	42.0	2.5	/experiments/knapen_AOT/AOT_stimuli/rescaled_final/0666_rv.mp4	0.0	258.1009919643402	2.500415086746216
44	205.3974940776825	pulse	1	t		42.0	2.5	/experiments/knapen_AOT/AOT_stimuli/rescaled_final/0666_rv.mp4	0.0	258.8846790790558	
44	206.99765706062317	pulse	1	t		42.0	2.5	/experiments/knapen_AOT/AOT_stimuli/rescaled_final/0666_rv.mp4	0.0	260.48484206199646	
44	207.11422204971313	fix_post	2		12	42.0	2.5	/experiments/knapen_AOT/AOT_stimuli/rescaled_final/0666_rv.mp4	0.0	260.6014070510864	0.1000070571899414
45	207.21422910690308	fix_pre	0		119	43.0	2.5	/experiments/knapen_AOT/AOT_stimuli/rescaled_final/0872_rv.mp4	0.0	260.70141410827637	0.9917590618133545
45	208.20598816871643	movie	1		243	43.0	2.5	/experiments/knapen_AOT/AOT_stimuli/rescaled_final/0872_rv.mp4	0.0	261.6931731700897	2.500504970550537
45	208.59808611869812	pulse	1	t		43.0	2.5	/experiments/knapen_AOT/AOT_stimuli/rescaled_final/0872_rv.mp4	0.0	262.0852711200714	
45	210.19812202453613	pulse	1	t		43.0	2.5	/experiments/knapen_AOT/AOT_stimuli/rescaled_final/0872_rv.mp4	0.0	263.6853070259094	
45	210.70649313926697	fix_post	2		12	43.0	2.5	/experiments/knapen_AOT/AOT_stimuli/rescaled_final/0872_rv.mp4	0.0	264.19367814064026	0.09992694854736328
46	210.80642008781433	fix_pre	0		117	44.0	2.5	/experiments/knapen_AOT/AOT_stimuli/rescaled_final/0041_fw.mp4	0.0	264.2936050891876	1.0001239776611328
46	211.79841303825378	pulse	0	t		44.0	2.5	/experiments/knapen_AOT/AOT_stimuli/rescaled_final/0041_fw.mp4	0.0	265.2855980396271	
46	211.80654406547546	movie	1		247	44.0	2.5	/experiments/knapen_AOT/AOT_stimuli/rescaled_final/0041_fw.mp4	0.0	265.29372906684875	2.508737087249756
46	213.39985299110413	pulse	1	t		44.0	2.5	/experiments/knapen_AOT/AOT_stimuli/rescaled_final/0041_fw.mp4	0.0	266.8870379924774	
46	214.31528115272522	fix_post	2		12	44.0	2.5	/experiments/knapen_AOT/AOT_stimuli/rescaled_final/0041_fw.mp4	0.0	267.8024661540985	0.10007500648498535
47	214.4153561592102	fix_pre	0		120	45.0	2.5	/experiments/knapen_AOT/AOT_stimuli/rescaled_final/1064_rv.mp4	0.0	267.9025411605835	1.0000689029693604
47	214.99895215034485	pulse	0	t		45.0	2.5	/experiments/knapen_AOT/AOT_stimuli/rescaled_final/1064_rv.mp4	0.0	268.48613715171814	
47	215.41542506217957	movie	1		243	45.0	2.5	/experiments/knapen_AOT/AOT_stimuli/rescaled_final/1064_rv.mp4	0.0	268.90261006355286	2.500577926635742
47	216.5991871356964	pulse	1	t		45.0	2.5	/experiments/knapen_AOT/AOT_stimuli/rescaled_final/1064_rv.mp4	0.0	270.0863721370697	
47	217.9160029888153	fix_post	2		12	45.0	2.5	/experiments/knapen_AOT/AOT_stimuli/rescaled_final/1064_rv.mp4	0.0	271.4031879901886	0.09983706474304199
48	218.01584005355835	fix_pre	0		120	46.0	2.5	/experiments/knapen_AOT/AOT_stimuli/rescaled_final/1503_rv.mp4	0.0	271.50302505493164	1.000108003616333
48	218.1992950439453	pulse	0	t		46.0	2.5	/experiments/knapen_AOT/AOT_stimuli/rescaled_final/1503_rv.mp4	0.0	271.6864800453186	
48	219.01594805717468	movie	1		243	46.0	2.5	/experiments/knapen_AOT/AOT_stimuli/rescaled_final/1503_rv.mp4	0.0	272.503133058548	2.500519037246704
48	219.79984307289124	pulse	1	t		46.0	2.5	/experiments/knapen_AOT/AOT_stimuli/rescaled_final/1503_rv.mp4	0.0	273.2870280742645	
48	221.39985418319702	pulse	1	t		46.0	2.5	/experiments/knapen_AOT/AOT_stimuli/rescaled_final/1503_rv.mp4	0.0	274.8870391845703	
48	221.5164670944214	fix_post	2		12	46.0	2.5	/experiments/knapen_AOT/AOT_stimuli/rescaled_final/1503_rv.mp4	0.0	275.0036520957947	0.09989595413208008
49	221.61636304855347	fix_pre	0		120	47.0	2.5	/experiments/knapen_AOT/AOT_stimuli/rescaled_final/0123_rv.mp4	0.0	275.10354804992676	1.000175952911377
49	222.61653900146484	movie	1		242	47.0	2.5	/experiments/knapen_AOT/AOT_stimuli/rescaled_final/0123_rv.mp4	0.0	276.10372400283813	2.4920401573181152
49	223.0011270046234	pulse	1	t		47.0	2.5	/experiments/knapen_AOT/AOT_stimuli/rescaled_final/0123_rv.mp4	0.0	276.4883120059967	
49	224.6002640724182	pulse	1	t		47.0	2.5	/experiments/knapen_AOT/AOT_stimuli/rescaled_final/0123_rv.mp4	0.0	278.0874490737915	
49	225.10857915878296	fix_post	2		12	47.0	2.5	/experiments/knapen_AOT/AOT_stimuli/rescaled_final/0123_rv.mp4	0.0	278.59576416015625	0.09998583793640137
50	225.20856499671936	fix_pre	0		120	48.0	2.5	/experiments/knapen_AOT/AOT_stimuli/rescaled_final/1843_rv.mp4	0.0	278.69574999809265	1.0001120567321777
50	226.2005660533905	pulse	0	t		48.0	2.5	/experiments/knapen_AOT/AOT_stimuli/rescaled_final/1843_rv.mp4	0.0	279.6877510547638	
50	226.20867705345154	movie	1		244	48.0	2.5	/experiments/knapen_AOT/AOT_stimuli/rescaled_final/1843_rv.mp4	0.0	279.69586205482483	2.508726119995117
50	227.8049819469452	pulse	1	t		48.0	2.5	/experiments/knapen_AOT/AOT_stimuli/rescaled_final/1843_rv.mp4	0.0	281.2921669483185	
50	228.71740317344666	fix_post	2		12	48.0	2.5	/experiments/knapen_AOT/AOT_stimuli/rescaled_final/1843_rv.mp4	0.0	282.20458817481995	0.10002493858337402
51	228.81742811203003	fix_pre	0		120	49.0	2.5	blank	1.0	282.3046131134033	1.0001959800720215
51	229.40098094940186	pulse	0	t		49.0	2.5	blank	1.0	282.88816595077515	
51	229.81762409210205	movie	1		300	49.0	2.5	blank	1.0	283.30480909347534	2.5002849102020264
51	231.0012230873108	pulse	1	t		49.0	2.5	blank	1.0	284.4884080886841	
51	232.31790900230408	fix_post	2		12	49.0	2.5	blank	1.0	285.80509400367737	0.10001516342163086
52	232.4179241657257	fix_pre	0		120	50.0	2.5	/experiments/knapen_AOT/AOT_stimuli/rescaled_final/0640_rv.mp4	0.0	285.905109167099	1.0001718997955322
52	232.60162496566772	pulse	0	t		50.0	2.5	/experiments/knapen_AOT/AOT_stimuli/rescaled_final/0640_rv.mp4	0.0	286.088809967041	
52	233.41809606552124	movie	1		242	50.0	2.5	/experiments/knapen_AOT/AOT_stimuli/rescaled_final/0640_rv.mp4	0.0	286.90528106689453	2.5005431175231934
52	234.20183110237122	pulse	1	t		50.0	2.5	/experiments/knapen_AOT/AOT_stimuli/rescaled_final/0640_rv.mp4	0.0	287.6890161037445	
52	235.80190110206604	pulse	1	t		50.0	2.5	/experiments/knapen_AOT/AOT_stimuli/rescaled_final/0640_rv.mp4	0.0	289.28908610343933	
52	235.91863918304443	fix_post	2		12	50.0	2.5	/experiments/knapen_AOT/AOT_stimuli/rescaled_final/0640_rv.mp4	0.0	289.4058241844177	0.0998678207397461
53	236.01850700378418	fix_pre	0		120	51.0	2.5	/experiments/knapen_AOT/AOT_stimuli/rescaled_final/0270_rv.mp4	0.0	289.50569200515747	1.0001251697540283
53	237.0186321735382	movie	1		241	51.0	2.5	/experiments/knapen_AOT/AOT_stimuli/rescaled_final/0270_rv.mp4	0.0	290.5058171749115	2.492126941680908
53	237.4034960269928	pulse	1	t		51.0	2.5	/experiments/knapen_AOT/AOT_stimuli/rescaled_final/0270_rv.mp4	0.0	290.8906810283661	
53	239.0025839805603	pulse	1	t		51.0	2.5	/experiments/knapen_AOT/AOT_stimuli/rescaled_final/0270_rv.mp4	0.0	292.4897689819336	
53	239.51075911521912	fix_post	2		12	51.0	2.5	/experiments/knapen_AOT/AOT_stimuli/rescaled_final/0270_rv.mp4	0.0	292.9979441165924	0.09997105598449707
54	239.6107301712036	fix_pre	0		120	52.0	2.5	/experiments/knapen_AOT/AOT_stimuli/rescaled_final/1518_fw.mp4	0.0	293.0979151725769	1.0001158714294434
54	240.60281610488892	pulse	0	t		52.0	2.5	/experiments/knapen_AOT/AOT_stimuli/rescaled_final/1518_fw.mp4	0.0	294.0900011062622	
54	240.61084604263306	movie	1		243	52.0	2.5	/experiments/knapen_AOT/AOT_stimuli/rescaled_final/1518_fw.mp4	0.0	294.09803104400635	2.5087130069732666
54	242.20343112945557	pulse	1	t		52.0	2.5	/experiments/knapen_AOT/AOT_stimuli/rescaled_final/1518_fw.mp4	0.0	295.69061613082886	
54	243.11955904960632	fix_post	2		12	52.0	2.5	/experiments/knapen_AOT/AOT_stimuli/rescaled_final/1518_fw.mp4	0.0	296.6067440509796	0.09999799728393555
55	243.21955704689026	fix_pre	0		120	53.0	2.5	/experiments/knapen_AOT/AOT_stimuli/rescaled_final/1811_rv.mp4	0.0	296.70674204826355	1.0001530647277832
55	243.795734167099	pulse	0	t		53.0	2.5	/experiments/knapen_AOT/AOT_stimuli/rescaled_final/1811_rv.mp4	0.0	297.2829191684723	
55	244.21971011161804	movie	1		243	53.0	2.5	/experiments/knapen_AOT/AOT_stimuli/rescaled_final/1811_rv.mp4	0.0	297.70689511299133	2.500354051589966
55	245.39564895629883	pulse	1	t		53.0	2.5	/experiments/knapen_AOT/AOT_stimuli/rescaled_final/1811_rv.mp4	0.0	298.8828339576721	
55	246.720064163208	fix_post	2		12	53.0	2.5	/experiments/knapen_AOT/AOT_stimuli/rescaled_final/1811_rv.mp4	0.0	300.2072491645813	0.10002279281616211
56	246.82008695602417	fix_pre	0		120	54.0	2.5	blank	1.0	300.30727195739746	1.0001440048217773
56	246.99606895446777	pulse	0	t		54.0	2.5	blank	1.0	300.48325395584106	
56	247.82023096084595	movie	1		300	54.0	2.5	blank	1.0	301.30741596221924	2.5004470348358154
56	248.59630417823792	pulse	1	t		54.0	2.5	blank	1.0	302.0834891796112	
56	250.1958920955658	pulse	1	t		54.0	2.5	blank	1.0	303.6830770969391	
56	250.32067799568176	fix_post	2		12	54.0	2.5	blank	1.0	303.80786299705505	0.09998607635498047
57	250.42066407203674	fix_pre	0		120	55.0	2.5	/experiments/knapen_AOT/AOT_stimuli/rescaled_final/0051_rv.mp4	0.0	303.90784907341003	1.0001239776611328
57	251.42078804969788	movie	1		241	55.0	2.5	/experiments/knapen_AOT/AOT_stimuli/rescaled_final/0051_rv.mp4	0.0	304.90797305107117	2.492192029953003
57	251.7960090637207	pulse	1	t		55.0	2.5	/experiments/knapen_AOT/AOT_stimuli/rescaled_final/0051_rv.mp4	0.0	305.283194065094	
57	253.3963589668274	pulse	1	t		55.0	2.5	/experiments/knapen_AOT/AOT_stimuli/rescaled_final/0051_rv.mp4	0.0	306.8835439682007	
57	253.91298007965088	fix_post	2		12	55.0	2.5	/experiments/knapen_AOT/AOT_stimuli/rescaled_final/0051_rv.mp4	0.0	307.40016508102417	0.09990596771240234
58	254.01288604736328	fix_pre	0		119	56.0	2.5	/experiments/knapen_AOT/AOT_stimuli/rescaled_final/1391_fw.mp4	0.0	307.5000710487366	0.9917240142822266
58	254.99664211273193	pulse	0	t		56.0	2.5	/experiments/knapen_AOT/AOT_stimuli/rescaled_final/1391_fw.mp4	0.0	308.4838271141052	
58	255.0046100616455	movie	1		243	56.0	2.5	/experiments/knapen_AOT/AOT_stimuli/rescaled_final/1391_fw.mp4	0.0	308.4917950630188	2.508734941482544
58	256.59748697280884	pulse	1	t		56.0	2.5	/experiments/knapen_AOT/AOT_stimuli/rescaled_final/1391_fw.mp4	0.0	310.08467197418213	
58	257.51334500312805	fix_post	2		12	56.0	2.5	/experiments/knapen_AOT/AOT_stimuli/rescaled_final/1391_fw.mp4	0.0	311.00053000450134	0.10007810592651367
59	257.61342310905457	fix_pre	0		120	57.0	2.5	/experiments/knapen_AOT/AOT_stimuli/rescaled_final/0556_fw.mp4	0.0	311.10060811042786	1.0001120567321777
59	258.19709610939026	pulse	0	t		57.0	2.5	/experiments/knapen_AOT/AOT_stimuli/rescaled_final/0556_fw.mp4	0.0	311.68428111076355	
59	258.61353516578674	movie	1		243	57.0	2.5	/experiments/knapen_AOT/AOT_stimuli/rescaled_final/0556_fw.mp4	0.0	312.10072016716003	2.5002849102020264
59	259.7972810268402	pulse	1	t		57.0	2.5	/experiments/knapen_AOT/AOT_stimuli/rescaled_final/0556_fw.mp4	0.0	313.2844660282135	
59	261.11382007598877	fix_post	2		12	57.0	2.5	/experiments/knapen_AOT/AOT_stimuli/rescaled_final/0556_fw.mp4	0.0	314.60100507736206	0.10010504722595215
60	261.2139251232147	fix_pre	0		120	58.0	2.5	/experiments/knapen_AOT/AOT_stimuli/rescaled_final/0461_fw.mp4	0.0	314.701110124588	1.0001349449157715
60	261.3975269794464	pulse	0	t		58.0	2.5	/experiments/knapen_AOT/AOT_stimuli/rescaled_final/0461_fw.mp4	0.0	314.8847119808197	
60	262.2140600681305	movie	1		243	58.0	2.5	/experiments/knapen_AOT/AOT_stimuli/rescaled_final/0461_fw.mp4	0.0	315.7012450695038	2.500432014465332
60	262.9977550506592	pulse	1	t		58.0	2.5	/experiments/knapen_AOT/AOT_stimuli/rescaled_final/0461_fw.mp4	0.0	316.48494005203247	
60	264.59791111946106	pulse	1	t		58.0	2.5	/experiments/knapen_AOT/AOT_stimuli/rescaled_final/0461_fw.mp4	0.0	318.08509612083435	
60	264.7144920825958	fix_post	2		12	58.0	2.5	/experiments/knapen_AOT/AOT_stimuli/rescaled_final/0461_fw.mp4	0.0	318.2016770839691	0.09991288185119629
61	264.814404964447	fix_pre	0		120	59.0	2.5	/experiments/knapen_AOT/AOT_stimuli/rescaled_final/0981_fw.mp4	0.0	318.3015899658203	1.0002200603485107
61	265.81462502479553	movie	1		242	59.0	2.5	/experiments/knapen_AOT/AOT_stimuli/rescaled_final/0981_fw.mp4	0.0	319.3018100261688	2.4920430183410645
61	266.1987900733948	pulse	1	t		59.0	2.5	/experiments/knapen_AOT/AOT_stimuli/rescaled_final/0981_fw.mp4	0.0	319.68597507476807	
61	267.7985100746155	pulse	1	t		59.0	2.5	/experiments/knapen_AOT/AOT_stimuli/rescaled_final/0981_fw.mp4	0.0	321.28569507598877	
61	268.3066680431366	fix_post	2		12	59.0	2.5	/experiments/knapen_AOT/AOT_stimuli/rescaled_final/0981_fw.mp4	0.0	321.7938530445099	0.09997296333312988
62	268.4066410064697	fix_pre	0		120	60.0	2.5	/experiments/knapen_AOT/AOT_stimuli/rescaled_final/0893_rv.mp4	0.0	321.893826007843	1.0001530647277832
62	269.39869809150696	pulse	0	t		60.0	2.5	/experiments/knapen_AOT/AOT_stimuli/rescaled_final/0893_rv.mp4	0.0	322.88588309288025	
62	269.4067940711975	movie	1		243	60.0	2.5	/experiments/knapen_AOT/AOT_stimuli/rescaled_final/0893_rv.mp4	0.0	322.8939790725708	2.5086801052093506
62	271.0008189678192	pulse	1	t		60.0	2.5	/experiments/knapen_AOT/AOT_stimuli/rescaled_final/0893_rv.mp4	0.0	324.4880039691925	
62	271.91547417640686	fix_post	2		12	60.0	2.5	/experiments/knapen_AOT/AOT_stimuli/rescaled_final/0893_rv.mp4	0.0	325.40265917778015	0.1001129150390625
63	272.0155870914459	fix_pre	0		120	61.0	2.5	/experiments/knapen_AOT/AOT_stimuli/rescaled_final/1518_fw.mp4	0.0	325.5027720928192	1.0000848770141602
63	272.59908294677734	pulse	0	t		61.0	2.5	/experiments/knapen_AOT/AOT_stimuli/rescaled_final/1518_fw.mp4	0.0	326.08626794815063	
63	273.0156719684601	movie	1		242	61.0	2.5	/experiments/knapen_AOT/AOT_stimuli/rescaled_final/1518_fw.mp4	0.0	326.5028569698334	2.5003440380096436
63	274.19946813583374	pulse	1	t		61.0	2.5	/experiments/knapen_AOT/AOT_stimuli/rescaled_final/1518_fw.mp4	0.0	327.68665313720703	
63	275.5160160064697	fix_post	2		12	61.0	2.5	/experiments/knapen_AOT/AOT_stimuli/rescaled_final/1518_fw.mp4	0.0	329.003201007843	0.10005402565002441
64	275.61607003211975	fix_pre	0		120	62.0	2.5	blank	1.0	329.10325503349304	1.000114917755127
64	275.7997281551361	pulse	0	t		62.0	2.5	blank	1.0	329.2869131565094	
64	276.6161849498749	movie	1		300	62.0	2.5	blank	1.0	330.10336995124817	2.5003762245178223
64	277.39989495277405	pulse	1	t		62.0	2.5	blank	1.0	330.88707995414734	
64	279.000097990036	pulse	1	t		62.0	2.5	blank	1.0	332.4872829914093	
64	279.1165611743927	fix_post	2		12	62.0	2.5	blank	1.0	332.603746175766	0.10007286071777344
65	279.2166340351105	fix_pre	0		120	63.0	2.5	/experiments/knapen_AOT/AOT_stimuli/rescaled_final/0924_fw.mp4	0.0	332.70381903648376	1.000972032546997
65	280.21760606765747	movie	1		239	63.0	2.5	/experiments/knapen_AOT/AOT_stimuli/rescaled_final/0924_fw.mp4	0.0	333.70479106903076	2.4912569522857666
65	280.6011390686035	pulse	1	t		63.0	2.5	/experiments/knapen_AOT/AOT_stimuli/rescaled_final/0924_fw.mp4	0.0	334.0883240699768	
65	282.20071601867676	pulse	1	t		63.0	2.5	/experiments/knapen_AOT/AOT_stimuli/rescaled_final/0924_fw.mp4	0.0	335.68790102005005	
65	282.70886301994324	fix_post	2		12	63.0	2.5	/experiments/knapen_AOT/AOT_stimuli/rescaled_final/0924_fw.mp4	0.0	336.1960480213165	0.09996199607849121
66	282.80882501602173	fix_pre	0		120	64.0	2.5	/experiments/knapen_AOT/AOT_stimuli/rescaled_final/0815_fw.mp4	0.0	336.296010017395	1.0002760887145996
66	283.80092096328735	pulse	0	t		64.0	2.5	/experiments/knapen_AOT/AOT_stimuli/rescaled_final/0815_fw.mp4	0.0	337.28810596466064	
66	283.8091011047363	movie	1		243	64.0	2.5	/experiments/knapen_AOT/AOT_stimuli/rescaled_final/0815_fw.mp4	0.0	337.2962861061096	2.508610963821411
66	285.40235114097595	pulse	1	t		64.0	2.5	/experiments/knapen_AOT/AOT_stimuli/rescaled_final/0815_fw.mp4	0.0	338.88953614234924	
66	286.31771206855774	fix_post	2		12	64.0	2.5	/experiments/knapen_AOT/AOT_stimuli/rescaled_final/0815_fw.mp4	0.0	339.80489706993103	0.09999895095825195
67	286.417711019516	fix_pre	0		120	65.0	2.5	/experiments/knapen_AOT/AOT_stimuli/rescaled_final/1909_fw.mp4	0.0	339.9048960208893	1.0001001358032227
67	287.0012321472168	pulse	0	t		65.0	2.5	/experiments/knapen_AOT/AOT_stimuli/rescaled_final/1909_fw.mp4	0.0	340.4884171485901	
67	287.4178111553192	movie	1		243	65.0	2.5	/experiments/knapen_AOT/AOT_stimuli/rescaled_final/1909_fw.mp4	0.0	340.9049961566925	2.5004899501800537
67	288.59780716896057	pulse	1	t		65.0	2.5	/experiments/knapen_AOT/AOT_stimuli/rescaled_final/1909_fw.mp4	0.0	342.08499217033386	
67	289.91830110549927	fix_post	2		12	65.0	2.5	/experiments/knapen_AOT/AOT_stimuli/rescaled_final/1909_fw.mp4	0.0	343.40548610687256	0.09986495971679688
68	290.01816606521606	fix_pre	0		120	66.0	2.5	/experiments/knapen_AOT/AOT_stimuli/rescaled_final/1715_rv.mp4	0.0	343.50535106658936	1.0002670288085938
68	290.2018599510193	pulse	0	t		66.0	2.5	/experiments/knapen_AOT/AOT_stimuli/rescaled_final/1715_rv.mp4	0.0	343.6890449523926	
68	291.01843309402466	movie	1		245	66.0	2.5	/experiments/knapen_AOT/AOT_stimuli/rescaled_final/1715_rv.mp4	0.0	344.50561809539795	2.500309944152832
68	291.8020529747009	pulse	1	t		66.0	2.5	/experiments/knapen_AOT/AOT_stimuli/rescaled_final/1715_rv.mp4	0.0	345.2892379760742	
68	293.40219616889954	pulse	1	t		66.0	2.5	/experiments/knapen_AOT/AOT_stimuli/rescaled_final/1715_rv.mp4	0.0	346.8893811702728	
68	293.5187430381775	fix_post	2		12	66.0	2.5	/experiments/knapen_AOT/AOT_stimuli/rescaled_final/1715_rv.mp4	0.0	347.0059280395508	0.1000220775604248
69	293.6187651157379	fix_pre	0		120	67.0	2.5	/experiments/knapen_AOT/AOT_stimuli/rescaled_final/0270_rv.mp4	0.0	347.1059501171112	1.0001399517059326
69	294.61890506744385	movie	1		241	67.0	2.5	/experiments/knapen_AOT/AOT_stimuli/rescaled_final/0270_rv.mp4	0.0	348.10609006881714	2.4920051097869873
69	295.00294399261475	pulse	1	t		67.0	2.5	/experiments/knapen_AOT/AOT_stimuli/rescaled_final/0270_rv.mp4	0.0	348.49012899398804	
69	296.60283613204956	pulse	1	t		67.0	2.5	/experiments/knapen_AOT/AOT_stimuli/rescaled_final/0270_rv.mp4	0.0	350.09002113342285	
69	297.11091017723083	fix_post	2		12	67.0	2.5	/experiments/knapen_AOT/AOT_stimuli/rescaled_final/0270_rv.mp4	0.0	350.5980951786041	0.10003089904785156
70	297.2109410762787	fix_pre	0		120	68.0	2.5	blank	1.0	350.698126077652	1.0001580715179443
70	298.1955280303955	pulse	0	t		68.0	2.5	blank	1.0	351.6827130317688	
70	298.21109914779663	movie	1		301	68.0	2.5	blank	1.0	351.6982841491699	2.508697032928467
70	299.7959940433502	pulse	1	t		68.0	2.5	blank	1.0	353.2831790447235	
70	300.7197961807251	fix_post	2		12	68.0	2.5	blank	1.0	354.2069811820984	0.10005879402160645
71	300.8198549747467	fix_pre	0		120	69.0	2.5	/experiments/knapen_AOT/AOT_stimuli/rescaled_final/1811_fw.mp4	0.0	354.30703997612	1.0001111030578613
71	301.3960621356964	pulse	0	t		69.0	2.5	/experiments/knapen_AOT/AOT_stimuli/rescaled_final/1811_fw.mp4	0.0	354.8832471370697	
71	301.81996607780457	movie	1		243	69.0	2.5	/experiments/knapen_AOT/AOT_stimuli/rescaled_final/1811_fw.mp4	0.0	355.30715107917786	2.500351905822754
71	302.99654817581177	pulse	1	t		69.0	2.5	/experiments/knapen_AOT/AOT_stimuli/rescaled_final/1811_fw.mp4	0.0	356.48373317718506	
71	304.3203179836273	fix_post	2		12	69.0	2.5	/experiments/knapen_AOT/AOT_stimuli/rescaled_final/1811_fw.mp4	0.0	357.8075029850006	0.10010313987731934
72	304.42042112350464	fix_pre	0		120	70.0	2.5	/experiments/knapen_AOT/AOT_stimuli/rescaled_final/1427_fw.mp4	0.0	357.90760612487793	1.0001070499420166
72	304.595468044281	pulse	0	t		70.0	2.5	/experiments/knapen_AOT/AOT_stimuli/rescaled_final/1427_fw.mp4	0.0	358.0826530456543	
72	305.42052817344666	movie	1		247	70.0	2.5	/experiments/knapen_AOT/AOT_stimuli/rescaled_final/1427_fw.mp4	0.0	358.90771317481995	2.5003538131713867
72	306.19571900367737	pulse	1	t		70.0	2.5	/experiments/knapen_AOT/AOT_stimuli/rescaled_final/1427_fw.mp4	0.0	359.68290400505066	
72	307.79603004455566	pulse	1	t		70.0	2.5	/experiments/knapen_AOT/AOT_stimuli/rescaled_final/1427_fw.mp4	0.0	361.28321504592896	
72	307.92088198661804	fix_post	2		12	70.0	2.5	/experiments/knapen_AOT/AOT_stimuli/rescaled_final/1427_fw.mp4	0.0	361.40806698799133	0.1000211238861084
73	308.02090311050415	fix_pre	0		119	71.0	2.5	/experiments/knapen_AOT/AOT_stimuli/rescaled_final/1472_fw.mp4	0.0	361.50808811187744	0.99180006980896
73	309.0127031803131	movie	1		243	71.0	2.5	/experiments/knapen_AOT/AOT_stimuli/rescaled_final/1472_fw.mp4	0.0	362.4998881816864	2.500361919403076
73	309.397164106369	pulse	1	t		71.0	2.5	/experiments/knapen_AOT/AOT_stimuli/rescaled_final/1472_fw.mp4	0.0	362.8843491077423	
73	310.9965441226959	pulse	1	t		71.0	2.5	/experiments/knapen_AOT/AOT_stimuli/rescaled_final/1472_fw.mp4	0.0	364.4837291240692	
73	311.5130650997162	fix_post	2		12	71.0	2.5	/experiments/knapen_AOT/AOT_stimuli/rescaled_final/1472_fw.mp4	0.0	365.0002501010895	0.10000991821289062
74	311.6130750179291	fix_pre	0		119	72.0	2.5	/experiments/knapen_AOT/AOT_stimuli/rescaled_final/1669_rv.mp4	0.0	365.10026001930237	0.9918270111083984
74	312.59676003456116	pulse	0	t		72.0	2.5	/experiments/knapen_AOT/AOT_stimuli/rescaled_final/1669_rv.mp4	0.0	366.08394503593445	
74	312.6049020290375	movie	1		244	72.0	2.5	/experiments/knapen_AOT/AOT_stimuli/rescaled_final/1669_rv.mp4	0.0	366.09208703041077	2.5086491107940674
74	314.1976490020752	pulse	1	t		72.0	2.5	/experiments/knapen_AOT/AOT_stimuli/rescaled_final/1669_rv.mp4	0.0	367.6848340034485	
74	315.11355113983154	fix_post	2		12	72.0	2.5	/experiments/knapen_AOT/AOT_stimuli/rescaled_final/1669_rv.mp4	0.0	368.60073614120483	0.10007596015930176
75	315.21362709999084	fix_pre	0		120	73.0	2.5	/experiments/knapen_AOT/AOT_stimuli/rescaled_final/0219_fw.mp4	0.0	368.70081210136414	1.0002038478851318
75	315.79725313186646	pulse	0	t		73.0	2.5	/experiments/knapen_AOT/AOT_stimuli/rescaled_final/0219_fw.mp4	0.0	369.28443813323975	
75	316.213830947876	movie	1		243	73.0	2.5	/experiments/knapen_AOT/AOT_stimuli/rescaled_final/0219_fw.mp4	0.0	369.70101594924927	2.500523090362549
75	317.3976261615753	pulse	1	t		73.0	2.5	/experiments/knapen_AOT/AOT_stimuli/rescaled_final/0219_fw.mp4	0.0	370.8848111629486	
75	318.7143540382385	fix_post	2		12	73.0	2.5	/experiments/knapen_AOT/AOT_stimuli/rescaled_final/0219_fw.mp4	0.0	372.2015390396118	0.09987497329711914
76	318.81422901153564	fix_pre	0		120	74.0	2.5	/experiments/knapen_AOT/AOT_stimuli/rescaled_final/0941_rv.mp4	0.0	372.30141401290894	1.0001530647277832
76	318.9978621006012	pulse	0	t		74.0	2.5	/experiments/knapen_AOT/AOT_stimuli/rescaled_final/0941_rv.mp4	0.0	372.4850471019745	
76	319.8143820762634	movie	1		244	74.0	2.5	/experiments/knapen_AOT/AOT_stimuli/rescaled_final/0941_rv.mp4	0.0	373.3015670776367	2.5003039836883545
76	320.5980291366577	pulse	1	t		74.0	2.5	/experiments/knapen_AOT/AOT_stimuli/rescaled_final/0941_rv.mp4	0.0	374.085214138031	
76	322.19824600219727	pulse	1	t		74.0	2.5	/experiments/knapen_AOT/AOT_stimuli/rescaled_final/0941_rv.mp4	0.0	375.68543100357056	
76	322.3146860599518	fix_post	2		12	74.0	2.5	/experiments/knapen_AOT/AOT_stimuli/rescaled_final/0941_rv.mp4	0.0	375.8018710613251	0.10007405281066895
77	322.41476011276245	fix_pre	0		120	75.0	2.5	/experiments/knapen_AOT/AOT_stimuli/rescaled_final/1309_rv.mp4	0.0	375.90194511413574	1.0000889301300049
77	323.41484904289246	movie	1		242	75.0	2.5	/experiments/knapen_AOT/AOT_stimuli/rescaled_final/1309_rv.mp4	0.0	376.90203404426575	2.492150068283081
77	323.79968094825745	pulse	1	t		75.0	2.5	/experiments/knapen_AOT/AOT_stimuli/rescaled_final/1309_rv.mp4	0.0	377.28686594963074	
77	325.3987720012665	pulse	1	t		75.0	2.5	/experiments/knapen_AOT/AOT_stimuli/rescaled_final/1309_rv.mp4	0.0	378.88595700263977	
77	325.90699911117554	fix_post	2		12	75.0	2.5	/experiments/knapen_AOT/AOT_stimuli/rescaled_final/1309_rv.mp4	0.0	379.3941841125488	0.09994006156921387
78	326.00693917274475	fix_pre	0		120	76.0	2.5	blank	1.0	379.49412417411804	1.0001277923583984
78	326.9990701675415	pulse	0	t		76.0	2.5	blank	1.0	380.4862551689148	
78	327.00706696510315	movie	1		301	76.0	2.5	blank	1.0	380.49425196647644	2.5087180137634277
78	328.59916615486145	pulse	1	t		76.0	2.5	blank	1.0	382.08635115623474	
78	329.5157849788666	fix_post	2		12	76.0	2.5	blank	1.0	383.00296998023987	0.09998703002929688
79	329.6157720088959	fix_pre	0		120	77.0	2.5	/experiments/knapen_AOT/AOT_stimuli/rescaled_final/1724_fw.mp4	0.0	383.10295701026917	1.0001490116119385
79	330.1994700431824	pulse	0	t		77.0	2.5	/experiments/knapen_AOT/AOT_stimuli/rescaled_final/1724_fw.mp4	0.0	383.68665504455566	
79	330.6159210205078	movie	1		243	77.0	2.5	/experiments/knapen_AOT/AOT_stimuli/rescaled_final/1724_fw.mp4	0.0	384.1031060218811	2.5003740787506104
79	331.7997291088104	pulse	1	t		77.0	2.5	/experiments/knapen_AOT/AOT_stimuli/rescaled_final/1724_fw.mp4	0.0	385.2869141101837	
79	333.1162950992584	fix_post	2		12	77.0	2.5	/experiments/knapen_AOT/AOT_stimuli/rescaled_final/1724_fw.mp4	0.0	386.6034801006317	0.10003185272216797
80	333.2163269519806	fix_pre	0		120	78.0	2.5	/experiments/knapen_AOT/AOT_stimuli/rescaled_final/1479_rv.mp4	0.0	386.7035119533539	1.0001580715179443
80	333.3999571800232	pulse	0	t		78.0	2.5	/experiments/knapen_AOT/AOT_stimuli/rescaled_final/1479_rv.mp4	0.0	386.8871421813965	
80	334.21648502349854	movie	1		242	78.0	2.5	/experiments/knapen_AOT/AOT_stimuli/rescaled_final/1479_rv.mp4	0.0	387.7036700248718	2.500498056411743
80	335.0001611709595	pulse	1	t		78.0	2.5	/experiments/knapen_AOT/AOT_stimuli/rescaled_final/1479_rv.mp4	0.0	388.48734617233276	
80	336.600417137146	pulse	1	t		78.0	2.5	/experiments/knapen_AOT/AOT_stimuli/rescaled_final/1479_rv.mp4	0.0	390.0876021385193	
80	336.7169830799103	fix_post	2		12	78.0	2.5	/experiments/knapen_AOT/AOT_stimuli/rescaled_final/1479_rv.mp4	0.0	390.20416808128357	0.0998690128326416
81	336.8168520927429	fix_pre	0		120	79.0	2.5	/experiments/knapen_AOT/AOT_stimuli/rescaled_final/2052_fw.mp4	0.0	390.3040370941162	1.0001230239868164
81	337.81697511672974	movie	1		242	79.0	2.5	/experiments/knapen_AOT/AOT_stimuli/rescaled_final/2052_fw.mp4	0.0	391.304160118103	2.4920849800109863
81	338.2011260986328	pulse	1	t		79.0	2.5	/experiments/knapen_AOT/AOT_stimuli/rescaled_final/2052_fw.mp4	0.0	391.6883111000061	
81	339.8008680343628	pulse	1	t		79.0	2.5	/experiments/knapen_AOT/AOT_stimuli/rescaled_final/2052_fw.mp4	0.0	393.2880530357361	
81	340.3090600967407	fix_post	2		12	79.0	2.5	/experiments/knapen_AOT/AOT_stimuli/rescaled_final/2052_fw.mp4	0.0	393.796245098114	0.09997892379760742
82	340.40903902053833	fix_pre	0		120	80.0	2.5	/experiments/knapen_AOT/AOT_stimuli/rescaled_final/2058_rv.mp4	0.0	393.8962240219116	1.000157117843628
82	341.4010970592499	pulse	0	t		80.0	2.5	/experiments/knapen_AOT/AOT_stimuli/rescaled_final/2058_rv.mp4	0.0	394.88828206062317	
82	341.40919613838196	movie	1		243	80.0	2.5	/experiments/knapen_AOT/AOT_stimuli/rescaled_final/2058_rv.mp4	0.0	394.89638113975525	2.5087168216705322
82	343.0023910999298	pulse	1	t		80.0	2.5	/experiments/knapen_AOT/AOT_stimuli/rescaled_final/2058_rv.mp4	0.0	396.4895761013031	
82	343.9179129600525	fix_post	2		12	80.0	2.5	/experiments/knapen_AOT/AOT_stimuli/rescaled_final/2058_rv.mp4	0.0	397.4050979614258	0.09999299049377441
83	344.01790595054626	fix_pre	0		117	81.0	2.5	/experiments/knapen_AOT/AOT_stimuli/rescaled_final/1999_rv.mp4	0.0	397.50509095191956	1.0001811981201172
83	344.60161113739014	pulse	0	t		81.0	2.5	/experiments/knapen_AOT/AOT_stimuli/rescaled_final/1999_rv.mp4	0.0	398.0887961387634	
83	345.0180871486664	movie	1		242	81.0	2.5	/experiments/knapen_AOT/AOT_stimuli/rescaled_final/1999_rv.mp4	0.0	398.5052721500397	2.5005099773406982
83	346.20194911956787	pulse	1	t		81.0	2.5	/experiments/knapen_AOT/AOT_stimuli/rescaled_final/1999_rv.mp4	0.0	399.68913412094116	
83	347.5185971260071	fix_post	2		12	81.0	2.5	/experiments/knapen_AOT/AOT_stimuli/rescaled_final/1999_rv.mp4	0.0	401.00578212738037	0.0999000072479248
84	347.618497133255	fix_pre	0		120	82.0	2.5	/experiments/knapen_AOT/AOT_stimuli/rescaled_final/0920_rv.mp4	0.0	401.1056821346283	1.0001368522644043
84	347.8020541667938	pulse	0	t		82.0	2.5	/experiments/knapen_AOT/AOT_stimuli/rescaled_final/0920_rv.mp4	0.0	401.2892391681671	
84	348.6186339855194	movie	1		243	82.0	2.5	/experiments/knapen_AOT/AOT_stimuli/rescaled_final/0920_rv.mp4	0.0	402.1058189868927	2.500307083129883
84	349.40220499038696	pulse	1	t		82.0	2.5	/experiments/knapen_AOT/AOT_stimuli/rescaled_final/0920_rv.mp4	0.0	402.88938999176025	
84	351.00242495536804	pulse	1	t		82.0	2.5	/experiments/knapen_AOT/AOT_stimuli/rescaled_final/0920_rv.mp4	0.0	404.48960995674133	
84	351.1189410686493	fix_post	2		12	82.0	2.5	/experiments/knapen_AOT/AOT_stimuli/rescaled_final/0920_rv.mp4	0.0	404.6061260700226	0.10007500648498535
85	351.2190160751343	fix_pre	0		120	83.0	2.5	blank	1.0	404.70620107650757	1.0001220703125
85	352.2191381454468	movie	1		299	83.0	2.5	blank	1.0	405.70632314682007	2.492043972015381
85	352.6027159690857	pulse	1	t		83.0	2.5	blank	1.0	406.089900970459	
85	354.2029950618744	pulse	1	t		83.0	2.5	blank	1.0	407.6901800632477	
85	354.71118211746216	fix_post	2		12	83.0	2.5	blank	1.0	408.19836711883545	0.10003495216369629
87	354.81121706962585	stim	0		1716					408.29840207099915	14.302206039428711
87	355.80325412750244	pulse	0	t						409.29043912887573	
87	357.3960659503937	pulse	0	t						410.88325095176697	
87	358.9962329864502	pulse	0	t						412.4834179878235	
87	360.59659695625305	pulse	0	t						414.08378195762634	
87	362.19669699668884	pulse	0	t						415.68388199806213	
87	363.79600715637207	pulse	0	t						417.28319215774536	
87	365.396183013916	pulse	0	t						418.8833680152893	
87	366.99657797813416	pulse	0	t						420.48376297950745	
87	368.59683418273926	pulse	0	t						422.08401918411255	
