trial_nr	onset	event_type	phase	response	nr_frames	movie_index	movie_duration	movie_file	blank	onset_abs	duration
0	0.1497178077697754	stim	0		10					52.74237871170044	0.08315873146057129
0	0.22501444816589355	response	0	space						52.81767535209656	
1	0.23287653923034668	stim	0		4730					52.82553744316101	39.434022665023804
1	39.650479555130005	pulse	0	t						92.24314045906067	
1	39.66689920425415	stim	1		1714					92.25956010818481	14.299068689346313
1	41.24765586853027	pulse	1	t						93.84031677246094	
1	42.84790563583374	pulse	1	t						95.4405665397644	
1	44.44812893867493	pulse	1	t						97.04078984260559	
1	46.048304080963135	pulse	1	t						98.6409649848938	
1	47.64852046966553	pulse	1	t						100.24118137359619	
1	49.248756408691406	pulse	1	t						101.84141731262207	
1	50.84910845756531	pulse	1	t						103.44176936149597	
1	52.44932436943054	pulse	1	t						105.0419852733612	
2	53.965967893600464	fix_pre	0		11	0.0	2.5	/experiments/knapen_AOT/AOT_stimuli/rescaled_final/0783_rv.mp4	0.0	106.55862879753113	0.11673474311828613
2	54.04951572418213	pulse	0	t		0.0	2.5	/experiments/knapen_AOT/AOT_stimuli/rescaled_final/0783_rv.mp4	0.0	106.6421766281128	
2	54.08270263671875	movie	1		295	0.0	2.5	/experiments/knapen_AOT/AOT_stimuli/rescaled_final/0783_rv.mp4	0.0	106.67536354064941	2.483646869659424
2	55.64573550224304	pulse	1	t		0.0	2.5	/experiments/knapen_AOT/AOT_stimuli/rescaled_final/0783_rv.mp4	0.0	108.2383964061737	
2	56.566349506378174	fix_post	2		12	0.0	2.5	/experiments/knapen_AOT/AOT_stimuli/rescaled_final/0783_rv.mp4	0.0	109.15901041030884	0.10001540184020996
3	56.666364908218384	fix_pre	0		120	1.0	2.5	/experiments/knapen_AOT/AOT_stimuli/rescaled_final/1822_rv.mp4	0.0	109.25902581214905	1.0085129737854004
3	57.24995994567871	pulse	0	t		1.0	2.5	/experiments/knapen_AOT/AOT_stimuli/rescaled_final/1822_rv.mp4	0.0	109.84262084960938	
3	57.674877882003784	movie	1		289	1.0	2.5	/experiments/knapen_AOT/AOT_stimuli/rescaled_final/1822_rv.mp4	0.0	110.26753878593445	2.492042064666748
3	58.84753775596619	pulse	1	t		1.0	2.5	/experiments/knapen_AOT/AOT_stimuli/rescaled_final/1822_rv.mp4	0.0	111.44019865989685	
3	60.16691994667053	fix_post	2		12	1.0	2.5	/experiments/knapen_AOT/AOT_stimuli/rescaled_final/1822_rv.mp4	0.0	112.7595808506012	0.10010981559753418
4	60.267029762268066	fix_pre	0		120	2.0	2.5	/experiments/knapen_AOT/AOT_stimuli/rescaled_final/1108_fw.mp4	0.0	112.85969066619873	1.008373498916626
4	60.45058083534241	pulse	0	t		2.0	2.5	/experiments/knapen_AOT/AOT_stimuli/rescaled_final/1108_fw.mp4	0.0	113.04324173927307	
4	61.27540326118469	movie	1		290	2.0	2.5	/experiments/knapen_AOT/AOT_stimuli/rescaled_final/1108_fw.mp4	0.0	113.86806416511536	2.492034673690796
4	62.046168088912964	pulse	1	t		2.0	2.5	/experiments/knapen_AOT/AOT_stimuli/rescaled_final/1108_fw.mp4	0.0	114.63882899284363	
4	63.65135359764099	pulse	1	t		2.0	2.5	/experiments/knapen_AOT/AOT_stimuli/rescaled_final/1108_fw.mp4	0.0	116.24401450157166	
4	63.76743793487549	fix_post	2		12	2.0	2.5	/experiments/knapen_AOT/AOT_stimuli/rescaled_final/1108_fw.mp4	0.0	116.36009883880615	0.10000276565551758
5	63.867440700531006	fix_pre	0		120	3.0	2.5	/experiments/knapen_AOT/AOT_stimuli/rescaled_final/0386_fw.mp4	0.0	116.46010160446167	1.0085675716400146
5	64.87600827217102	movie	1		297	3.0	2.5	/experiments/knapen_AOT/AOT_stimuli/rescaled_final/0386_fw.mp4	0.0	117.46866917610168	2.4919605255126953
5	65.24884104728699	pulse	1	t		3.0	2.5	/experiments/knapen_AOT/AOT_stimuli/rescaled_final/0386_fw.mp4	0.0	117.84150195121765	
5	66.84687304496765	pulse	1	t		3.0	2.5	/experiments/knapen_AOT/AOT_stimuli/rescaled_final/0386_fw.mp4	0.0	119.43953394889832	
5	67.36796879768372	fix_post	2		12	3.0	2.5	/experiments/knapen_AOT/AOT_stimuli/rescaled_final/0386_fw.mp4	0.0	119.96062970161438	0.10003280639648438
6	67.4680016040802	fix_pre	0		119	4.0	2.5	/experiments/knapen_AOT/AOT_stimuli/rescaled_final/1478_rv.mp4	0.0	120.06066250801086	1.000180959701538
6	68.4517297744751	pulse	0	t		4.0	2.5	/experiments/knapen_AOT/AOT_stimuli/rescaled_final/1478_rv.mp4	0.0	121.04439067840576	
6	68.46818256378174	movie	1		299	4.0	2.5	/experiments/knapen_AOT/AOT_stimuli/rescaled_final/1478_rv.mp4	0.0	121.0608434677124	2.5003437995910645
6	70.04381203651428	pulse	1	t		4.0	2.5	/experiments/knapen_AOT/AOT_stimuli/rescaled_final/1478_rv.mp4	0.0	122.63647294044495	
6	70.9685263633728	fix_post	2		12	4.0	2.5	/experiments/knapen_AOT/AOT_stimuli/rescaled_final/1478_rv.mp4	0.0	123.56118726730347	0.10006380081176758
7	71.06859016418457	fix_pre	0		120	5.0	2.5	blank	1.0	123.66125106811523	1.0001230239868164
7	71.64383959770203	pulse	0	t		5.0	2.5	blank	1.0	124.23650050163269	
7	72.06871318817139	movie	1		300	5.0	2.5	blank	1.0	124.66137409210205	2.5003621578216553
7	73.244145154953	pulse	1	t		5.0	2.5	blank	1.0	125.83680605888367	
7	74.56907534599304	fix_post	2		12	5.0	2.5	blank	1.0	127.1617362499237	0.10005617141723633
8	74.66913151741028	fix_pre	0		120	6.0	2.5	/experiments/knapen_AOT/AOT_stimuli/rescaled_final/1877_rv.mp4	0.0	127.26179242134094	1.0084457397460938
8	74.84434700012207	pulse	0	t		6.0	2.5	/experiments/knapen_AOT/AOT_stimuli/rescaled_final/1877_rv.mp4	0.0	127.43700790405273	
8	75.67757725715637	movie	1		264	6.0	2.5	/experiments/knapen_AOT/AOT_stimuli/rescaled_final/1877_rv.mp4	0.0	128.27023816108704	2.492140293121338
8	76.44457411766052	pulse	1	t		6.0	2.5	/experiments/knapen_AOT/AOT_stimuli/rescaled_final/1877_rv.mp4	0.0	129.0372350215912	
8	78.04452395439148	pulse	1	t		6.0	2.5	/experiments/knapen_AOT/AOT_stimuli/rescaled_final/1877_rv.mp4	0.0	130.63718485832214	
8	78.16971755027771	fix_post	2		12	6.0	2.5	/experiments/knapen_AOT/AOT_stimuli/rescaled_final/1877_rv.mp4	0.0	130.76237845420837	0.0999290943145752
9	78.26964664459229	fix_pre	0		120	7.0	2.5	/experiments/knapen_AOT/AOT_stimuli/rescaled_final/0821_rv.mp4	0.0	130.86230754852295	1.0085105895996094
9	79.2781572341919	movie	1		263	7.0	2.5	/experiments/knapen_AOT/AOT_stimuli/rescaled_final/0821_rv.mp4	0.0	131.87081813812256	2.4920098781585693
9	79.64508199691772	pulse	1	t		7.0	2.5	/experiments/knapen_AOT/AOT_stimuli/rescaled_final/0821_rv.mp4	0.0	132.2377429008484	
9	81.24566078186035	pulse	1	t		7.0	2.5	/experiments/knapen_AOT/AOT_stimuli/rescaled_final/0821_rv.mp4	0.0	133.83832168579102	
9	81.77016711235046	fix_post	2		12	7.0	2.5	/experiments/knapen_AOT/AOT_stimuli/rescaled_final/0821_rv.mp4	0.0	134.36282801628113	0.10002899169921875
10	81.87019610404968	fix_pre	0		118	8.0	2.5	/experiments/knapen_AOT/AOT_stimuli/rescaled_final/1265_rv.mp4	0.0	134.46285700798035	0.9918920993804932
10	82.84557151794434	pulse	0	t		8.0	2.5	/experiments/knapen_AOT/AOT_stimuli/rescaled_final/1265_rv.mp4	0.0	135.438232421875	
10	82.86208820343018	movie	1		275	8.0	2.5	/experiments/knapen_AOT/AOT_stimuli/rescaled_final/1265_rv.mp4	0.0	135.45474910736084	2.5003087520599365
10	84.44510912895203	pulse	1	t		8.0	2.5	/experiments/knapen_AOT/AOT_stimuli/rescaled_final/1265_rv.mp4	0.0	137.0377700328827	
10	85.36239695549011	fix_post	2		12	8.0	2.5	/experiments/knapen_AOT/AOT_stimuli/rescaled_final/1265_rv.mp4	0.0	137.95505785942078	0.10002636909484863
11	85.46242332458496	fix_pre	0		120	9.0	2.5	/experiments/knapen_AOT/AOT_stimuli/rescaled_final/0005_fw.mp4	0.0	138.05508422851562	1.0084762573242188
11	86.0460844039917	pulse	0	t		9.0	2.5	/experiments/knapen_AOT/AOT_stimuli/rescaled_final/0005_fw.mp4	0.0	138.63874530792236	
11	86.47089958190918	movie	1		277	9.0	2.5	/experiments/knapen_AOT/AOT_stimuli/rescaled_final/0005_fw.mp4	0.0	139.06356048583984	2.492065668106079
11	87.64415073394775	pulse	1	t		9.0	2.5	/experiments/knapen_AOT/AOT_stimuli/rescaled_final/0005_fw.mp4	0.0	140.23681163787842	
11	88.96296525001526	fix_post	2		12	9.0	2.5	/experiments/knapen_AOT/AOT_stimuli/rescaled_final/0005_fw.mp4	0.0	141.55562615394592	0.09999632835388184
12	89.06296157836914	fix_pre	0		120	10.0	2.5	/experiments/knapen_AOT/AOT_stimuli/rescaled_final/1509_fw.mp4	0.0	141.6556224822998	1.0084564685821533
12	89.24673199653625	pulse	0	t		10.0	2.5	/experiments/knapen_AOT/AOT_stimuli/rescaled_final/1509_fw.mp4	0.0	141.83939290046692	
12	90.0714180469513	movie	1		270	10.0	2.5	/experiments/knapen_AOT/AOT_stimuli/rescaled_final/1509_fw.mp4	0.0	142.66407895088196	2.4920542240142822
12	90.84758496284485	pulse	1	t		10.0	2.5	/experiments/knapen_AOT/AOT_stimuli/rescaled_final/1509_fw.mp4	0.0	143.4402458667755	
12	92.44491624832153	pulse	1	t		10.0	2.5	/experiments/knapen_AOT/AOT_stimuli/rescaled_final/1509_fw.mp4	0.0	145.0375771522522	
12	92.56347227096558	fix_post	2		12	10.0	2.5	/experiments/knapen_AOT/AOT_stimuli/rescaled_final/1509_fw.mp4	0.0	145.15613317489624	0.10002350807189941
13	92.66349577903748	fix_pre	0		120	11.0	2.5	/experiments/knapen_AOT/AOT_stimuli/rescaled_final/0625_rv.mp4	0.0	145.25615668296814	1.0084872245788574
13	93.67198300361633	movie	1		268	11.0	2.5	/experiments/knapen_AOT/AOT_stimuli/rescaled_final/0625_rv.mp4	0.0	146.264643907547	2.492060661315918
13	94.04722762107849	pulse	1	t		11.0	2.5	/experiments/knapen_AOT/AOT_stimuli/rescaled_final/0625_rv.mp4	0.0	146.63988852500916	
13	95.64543437957764	pulse	1	t		11.0	2.5	/experiments/knapen_AOT/AOT_stimuli/rescaled_final/0625_rv.mp4	0.0	148.2380952835083	
13	96.16404366493225	fix_post	2		12	11.0	2.5	/experiments/knapen_AOT/AOT_stimuli/rescaled_final/0625_rv.mp4	0.0	148.75670456886292	0.09998297691345215
14	96.2640266418457	fix_pre	0		119	12.0	2.5	blank	1.0	148.85668754577637	0.9918344020843506
14	97.24773144721985	pulse	0	t		12.0	2.5	blank	1.0	149.8403923511505	
14	97.25586104393005	movie	1		301	12.0	2.5	blank	1.0	149.84852194786072	2.5086913108825684
14	98.84796023368835	pulse	1	t		12.0	2.5	blank	1.0	151.44062113761902	
14	99.76455235481262	fix_post	2		12	12.0	2.5	blank	1.0	152.3572132587433	0.10006928443908691
15	99.86462163925171	fix_pre	0		120	13.0	2.5	/experiments/knapen_AOT/AOT_stimuli/rescaled_final/0209_fw.mp4	0.0	152.45728254318237	1.0084445476531982
15	100.44820857048035	pulse	0	t		13.0	2.5	/experiments/knapen_AOT/AOT_stimuli/rescaled_final/0209_fw.mp4	0.0	153.040869474411	
15	100.87306618690491	movie	1		286	13.0	2.5	/experiments/knapen_AOT/AOT_stimuli/rescaled_final/0209_fw.mp4	0.0	153.46572709083557	2.4920358657836914
15	102.04687118530273	pulse	1	t		13.0	2.5	/experiments/knapen_AOT/AOT_stimuli/rescaled_final/0209_fw.mp4	0.0	154.6395320892334	
15	103.3651020526886	fix_post	2		12	13.0	2.5	/experiments/knapen_AOT/AOT_stimuli/rescaled_final/0209_fw.mp4	0.0	155.95776295661926	0.10000991821289062
16	103.46511197090149	fix_pre	0		120	14.0	2.5	/experiments/knapen_AOT/AOT_stimuli/rescaled_final/0129_fw.mp4	0.0	156.05777287483215	1.008470058441162
16	103.64865756034851	pulse	0	t		14.0	2.5	/experiments/knapen_AOT/AOT_stimuli/rescaled_final/0129_fw.mp4	0.0	156.24131846427917	
16	104.47358202934265	movie	1		293	14.0	2.5	/experiments/knapen_AOT/AOT_stimuli/rescaled_final/0129_fw.mp4	0.0	157.06624293327332	2.492069721221924
16	105.24668407440186	pulse	1	t		14.0	2.5	/experiments/knapen_AOT/AOT_stimuli/rescaled_final/0129_fw.mp4	0.0	157.83934497833252	
16	106.84745740890503	pulse	1	t		14.0	2.5	/experiments/knapen_AOT/AOT_stimuli/rescaled_final/0129_fw.mp4	0.0	159.4401183128357	
16	106.96565175056458	fix_post	2		12	14.0	2.5	/experiments/knapen_AOT/AOT_stimuli/rescaled_final/0129_fw.mp4	0.0	159.55831265449524	0.10001373291015625
17	107.06566548347473	fix_pre	0		120	15.0	2.5	/experiments/knapen_AOT/AOT_stimuli/rescaled_final/1995_rv.mp4	0.0	159.6583263874054	1.0084998607635498
17	108.07416534423828	movie	1		277	15.0	2.5	/experiments/knapen_AOT/AOT_stimuli/rescaled_final/1995_rv.mp4	0.0	160.66682624816895	2.4920339584350586
17	108.44788360595703	pulse	1	t		15.0	2.5	/experiments/knapen_AOT/AOT_stimuli/rescaled_final/1995_rv.mp4	0.0	161.0405445098877	
17	110.04734396934509	pulse	1	t		15.0	2.5	/experiments/knapen_AOT/AOT_stimuli/rescaled_final/1995_rv.mp4	0.0	162.64000487327576	
17	110.56619930267334	fix_post	2		12	15.0	2.5	/experiments/knapen_AOT/AOT_stimuli/rescaled_final/1995_rv.mp4	0.0	163.158860206604	0.10003447532653809
18	110.66623377799988	fix_pre	0		119	16.0	2.5	/experiments/knapen_AOT/AOT_stimuli/rescaled_final/1401_fw.mp4	0.0	163.25889468193054	1.0001251697540283
18	111.6501681804657	pulse	0	t		16.0	2.5	/experiments/knapen_AOT/AOT_stimuli/rescaled_final/1401_fw.mp4	0.0	164.24282908439636	
18	111.6663589477539	movie	1		281	16.0	2.5	/experiments/knapen_AOT/AOT_stimuli/rescaled_final/1401_fw.mp4	0.0	164.25901985168457	2.5003745555877686
18	113.24868321418762	pulse	1	t		16.0	2.5	/experiments/knapen_AOT/AOT_stimuli/rescaled_final/1401_fw.mp4	0.0	165.8413441181183	
18	114.16673350334167	fix_post	2		12	16.0	2.5	/experiments/knapen_AOT/AOT_stimuli/rescaled_final/1401_fw.mp4	0.0	166.75939440727234	0.10001349449157715
19	114.26674699783325	fix_pre	0		120	17.0	2.5	/experiments/knapen_AOT/AOT_stimuli/rescaled_final/2129_fw.mp4	0.0	166.85940790176392	1.008512020111084
19	114.85034918785095	pulse	0	t		17.0	2.5	/experiments/knapen_AOT/AOT_stimuli/rescaled_final/2129_fw.mp4	0.0	167.44301009178162	
19	115.27525901794434	movie	1		282	17.0	2.5	/experiments/knapen_AOT/AOT_stimuli/rescaled_final/2129_fw.mp4	0.0	167.867919921875	2.492001533508301
19	116.44876790046692	pulse	1	t		17.0	2.5	/experiments/knapen_AOT/AOT_stimuli/rescaled_final/2129_fw.mp4	0.0	169.04142880439758	
19	117.76726055145264	fix_post	2		12	17.0	2.5	/experiments/knapen_AOT/AOT_stimuli/rescaled_final/2129_fw.mp4	0.0	170.3599214553833	0.10001873970031738
20	117.86727929115295	fix_pre	0		120	18.0	2.5	/experiments/knapen_AOT/AOT_stimuli/rescaled_final/2009_fw.mp4	0.0	170.45994019508362	1.0085406303405762
20	118.05089497566223	pulse	0	t		18.0	2.5	/experiments/knapen_AOT/AOT_stimuli/rescaled_final/2009_fw.mp4	0.0	170.6435558795929	
20	118.87581992149353	movie	1		270	18.0	2.5	/experiments/knapen_AOT/AOT_stimuli/rescaled_final/2009_fw.mp4	0.0	171.4684808254242	2.492008686065674
20	119.65162420272827	pulse	1	t		18.0	2.5	/experiments/knapen_AOT/AOT_stimuli/rescaled_final/2009_fw.mp4	0.0	172.24428510665894	
20	121.24332618713379	pulse	1	t		18.0	2.5	/experiments/knapen_AOT/AOT_stimuli/rescaled_final/2009_fw.mp4	0.0	173.83598709106445	
20	121.3678286075592	fix_post	2		12	18.0	2.5	/experiments/knapen_AOT/AOT_stimuli/rescaled_final/2009_fw.mp4	0.0	173.96048951148987	0.10004091262817383
21	121.46786952018738	fix_pre	0		120	19.0	2.5	blank	1.0	174.06053042411804	1.000112771987915
21	122.4679822921753	movie	1		300	19.0	2.5	blank	1.0	175.06064319610596	2.500491142272949
21	122.84335827827454	pulse	1	t		19.0	2.5	blank	1.0	175.4360191822052	
21	124.44375658035278	pulse	1	t		19.0	2.5	blank	1.0	177.03641748428345	
21	124.96847343444824	fix_post	2		12	19.0	2.5	blank	1.0	177.5611343383789	0.09995651245117188
22	125.06842994689941	fix_pre	0		118	20.0	2.5	/experiments/knapen_AOT/AOT_stimuli/rescaled_final/1070_fw.mp4	0.0	177.66109085083008	0.9918138980865479
22	126.04383087158203	pulse	0	t		20.0	2.5	/experiments/knapen_AOT/AOT_stimuli/rescaled_final/1070_fw.mp4	0.0	178.6364917755127	
22	126.06024384498596	movie	1		269	20.0	2.5	/experiments/knapen_AOT/AOT_stimuli/rescaled_final/1070_fw.mp4	0.0	178.65290474891663	2.5003128051757812
22	127.64419841766357	pulse	1	t		20.0	2.5	/experiments/knapen_AOT/AOT_stimuli/rescaled_final/1070_fw.mp4	0.0	180.23685932159424	
22	128.56055665016174	fix_post	2		12	20.0	2.5	/experiments/knapen_AOT/AOT_stimuli/rescaled_final/1070_fw.mp4	0.0	181.1532175540924	0.1000375747680664
23	128.6605942249298	fix_pre	0		120	21.0	2.5	/experiments/knapen_AOT/AOT_stimuli/rescaled_final/1751_fw.mp4	0.0	181.25325512886047	1.008479356765747
23	129.24428606033325	pulse	0	t		21.0	2.5	/experiments/knapen_AOT/AOT_stimuli/rescaled_final/1751_fw.mp4	0.0	181.83694696426392	
23	129.66907358169556	movie	1		275	21.0	2.5	/experiments/knapen_AOT/AOT_stimuli/rescaled_final/1751_fw.mp4	0.0	182.26173448562622	2.492039442062378
23	130.84453225135803	pulse	1	t		21.0	2.5	/experiments/knapen_AOT/AOT_stimuli/rescaled_final/1751_fw.mp4	0.0	183.4371931552887	
23	132.16111302375793	fix_post	2		12	21.0	2.5	/experiments/knapen_AOT/AOT_stimuli/rescaled_final/1751_fw.mp4	0.0	184.7537739276886	0.10001134872436523
24	132.2611243724823	fix_pre	0		120	22.0	2.5	/experiments/knapen_AOT/AOT_stimuli/rescaled_final/1509_rv.mp4	0.0	184.85378527641296	1.0085954666137695
24	132.444721698761	pulse	0	t		22.0	2.5	/experiments/knapen_AOT/AOT_stimuli/rescaled_final/1509_rv.mp4	0.0	185.03738260269165	
24	133.26971983909607	movie	1		269	22.0	2.5	/experiments/knapen_AOT/AOT_stimuli/rescaled_final/1509_rv.mp4	0.0	185.86238074302673	2.492011308670044
24	134.0450189113617	pulse	1	t		22.0	2.5	/experiments/knapen_AOT/AOT_stimuli/rescaled_final/1509_rv.mp4	0.0	186.63767981529236	
24	135.6455864906311	pulse	1	t		22.0	2.5	/experiments/knapen_AOT/AOT_stimuli/rescaled_final/1509_rv.mp4	0.0	188.23824739456177	
24	135.7617311477661	fix_post	2		12	22.0	2.5	/experiments/knapen_AOT/AOT_stimuli/rescaled_final/1509_rv.mp4	0.0	188.35439205169678	0.09993982315063477
25	135.86167097091675	fix_pre	0		120	23.0	2.5	/experiments/knapen_AOT/AOT_stimuli/rescaled_final/2009_rv.mp4	0.0	188.4543318748474	1.0084798336029053
25	136.87015080451965	movie	1		271	23.0	2.5	/experiments/knapen_AOT/AOT_stimuli/rescaled_final/2009_rv.mp4	0.0	189.46281170845032	2.4920341968536377
25	137.24373054504395	pulse	1	t		23.0	2.5	/experiments/knapen_AOT/AOT_stimuli/rescaled_final/2009_rv.mp4	0.0	189.8363914489746	
25	138.84371972084045	pulse	1	t		23.0	2.5	/experiments/knapen_AOT/AOT_stimuli/rescaled_final/2009_rv.mp4	0.0	191.43638062477112	
25	139.3621850013733	fix_post	2		12	23.0	2.5	/experiments/knapen_AOT/AOT_stimuli/rescaled_final/2009_rv.mp4	0.0	191.95484590530396	0.10007643699645996
26	139.46226143836975	fix_pre	0		119	24.0	2.5	/experiments/knapen_AOT/AOT_stimuli/rescaled_final/1358_fw.mp4	0.0	192.05492234230042	1.0001602172851562
26	140.44593048095703	pulse	0	t		24.0	2.5	/experiments/knapen_AOT/AOT_stimuli/rescaled_final/1358_fw.mp4	0.0	193.0385913848877	
26	140.4624216556549	movie	1		268	24.0	2.5	/experiments/knapen_AOT/AOT_stimuli/rescaled_final/1358_fw.mp4	0.0	193.05508255958557	2.5003719329833984
26	142.046156167984	pulse	1	t		24.0	2.5	/experiments/knapen_AOT/AOT_stimuli/rescaled_final/1358_fw.mp4	0.0	194.63881707191467	
26	142.9627935886383	fix_post	2		12	24.0	2.5	/experiments/knapen_AOT/AOT_stimuli/rescaled_final/1358_fw.mp4	0.0	195.55545449256897	0.10008692741394043
27	143.06288051605225	fix_pre	0		120	25.0	2.5	/experiments/knapen_AOT/AOT_stimuli/rescaled_final/0766_fw.mp4	0.0	195.6555414199829	1.0083949565887451
27	143.64650750160217	pulse	0	t		25.0	2.5	/experiments/knapen_AOT/AOT_stimuli/rescaled_final/0766_fw.mp4	0.0	196.23916840553284	
27	144.071275472641	movie	1		272	25.0	2.5	/experiments/knapen_AOT/AOT_stimuli/rescaled_final/0766_fw.mp4	0.0	196.66393637657166	2.4920108318328857
27	145.24526119232178	pulse	1	t		25.0	2.5	/experiments/knapen_AOT/AOT_stimuli/rescaled_final/0766_fw.mp4	0.0	197.83792209625244	
27	146.56328630447388	fix_post	2		12	25.0	2.5	/experiments/knapen_AOT/AOT_stimuli/rescaled_final/0766_fw.mp4	0.0	199.15594720840454	0.10003066062927246
28	146.66331696510315	fix_pre	0		120	26.0	2.5	/experiments/knapen_AOT/AOT_stimuli/rescaled_final/0507_fw.mp4	0.0	199.2559778690338	1.0084946155548096
28	146.84683537483215	pulse	0	t		26.0	2.5	/experiments/knapen_AOT/AOT_stimuli/rescaled_final/0507_fw.mp4	0.0	199.43949627876282	
28	147.67181158065796	movie	1		272	26.0	2.5	/experiments/knapen_AOT/AOT_stimuli/rescaled_final/0507_fw.mp4	0.0	200.26447248458862	2.4920217990875244
28	148.4452269077301	pulse	1	t		26.0	2.5	/experiments/knapen_AOT/AOT_stimuli/rescaled_final/0507_fw.mp4	0.0	201.03788781166077	
28	150.0458700656891	pulse	1	t		26.0	2.5	/experiments/knapen_AOT/AOT_stimuli/rescaled_final/0507_fw.mp4	0.0	202.63853096961975	
28	150.16383337974548	fix_post	2		12	26.0	2.5	/experiments/knapen_AOT/AOT_stimuli/rescaled_final/0507_fw.mp4	0.0	202.75649428367615	0.10001921653747559
29	150.26385259628296	fix_pre	0		120	27.0	2.5	/experiments/knapen_AOT/AOT_stimuli/rescaled_final/0690_fw.mp4	0.0	202.85651350021362	1.0086126327514648
29	151.27246522903442	movie	1		269	27.0	2.5	/experiments/knapen_AOT/AOT_stimuli/rescaled_final/0690_fw.mp4	0.0	203.8651261329651	2.49189829826355
29	151.64775395393372	pulse	1	t		27.0	2.5	/experiments/knapen_AOT/AOT_stimuli/rescaled_final/0690_fw.mp4	0.0	204.24041485786438	
29	153.24687933921814	pulse	1	t		27.0	2.5	/experiments/knapen_AOT/AOT_stimuli/rescaled_final/0690_fw.mp4	0.0	205.8395402431488	
29	153.76436352729797	fix_post	2		12	27.0	2.5	/experiments/knapen_AOT/AOT_stimuli/rescaled_final/0690_fw.mp4	0.0	206.35702443122864	0.10002303123474121
30	153.86438655853271	fix_pre	0		119	28.0	2.5	blank	1.0	206.45704746246338	0.9918529987335205
30	154.84808683395386	pulse	0	t		28.0	2.5	blank	1.0	207.44074773788452	
30	154.85623955726624	movie	1		301	28.0	2.5	blank	1.0	207.4489004611969	2.508687973022461
30	156.44841861724854	pulse	1	t		28.0	2.5	blank	1.0	209.0410795211792	
30	157.3649275302887	fix_post	2		12	28.0	2.5	blank	1.0	209.95758843421936	0.10002565383911133
31	157.4649531841278	fix_pre	0		120	29.0	2.5	/experiments/knapen_AOT/AOT_stimuli/rescaled_final/1915_rv.mp4	0.0	210.05761408805847	1.0084550380706787
31	158.04866194725037	pulse	0	t		29.0	2.5	/experiments/knapen_AOT/AOT_stimuli/rescaled_final/1915_rv.mp4	0.0	210.64132285118103	
31	158.4734082221985	movie	1		283	29.0	2.5	/experiments/knapen_AOT/AOT_stimuli/rescaled_final/1915_rv.mp4	0.0	211.06606912612915	2.4920578002929688
31	159.6473741531372	pulse	1	t		29.0	2.5	/experiments/knapen_AOT/AOT_stimuli/rescaled_final/1915_rv.mp4	0.0	212.24003505706787	
31	160.96546602249146	fix_post	2		12	29.0	2.5	/experiments/knapen_AOT/AOT_stimuli/rescaled_final/1915_rv.mp4	0.0	213.55812692642212	0.10000085830688477
32	161.06546688079834	fix_pre	0		120	30.0	2.5	/experiments/knapen_AOT/AOT_stimuli/rescaled_final/1902_fw.mp4	0.0	213.658127784729	1.0084991455078125
32	161.24919939041138	pulse	0	t		30.0	2.5	/experiments/knapen_AOT/AOT_stimuli/rescaled_final/1902_fw.mp4	0.0	213.84186029434204	
32	162.07396602630615	movie	1		263	30.0	2.5	/experiments/knapen_AOT/AOT_stimuli/rescaled_final/1902_fw.mp4	0.0	214.66662693023682	2.492020606994629
32	162.84944653511047	pulse	1	t		30.0	2.5	/experiments/knapen_AOT/AOT_stimuli/rescaled_final/1902_fw.mp4	0.0	215.44210743904114	
32	164.4476363658905	pulse	1	t		30.0	2.5	/experiments/knapen_AOT/AOT_stimuli/rescaled_final/1902_fw.mp4	0.0	217.04029726982117	
32	164.56598663330078	fix_post	2		12	30.0	2.5	/experiments/knapen_AOT/AOT_stimuli/rescaled_final/1902_fw.mp4	0.0	217.15864753723145	0.1000521183013916
33	164.66603875160217	fix_pre	0		120	31.0	2.5	/experiments/knapen_AOT/AOT_stimuli/rescaled_final/2067_fw.mp4	0.0	217.25869965553284	1.008448839187622
33	165.6744875907898	movie	1		274	31.0	2.5	/experiments/knapen_AOT/AOT_stimuli/rescaled_final/2067_fw.mp4	0.0	218.26714849472046	2.492068290710449
33	166.0490107536316	pulse	1	t		31.0	2.5	/experiments/knapen_AOT/AOT_stimuli/rescaled_final/2067_fw.mp4	0.0	218.64167165756226	
33	167.64802050590515	pulse	1	t		31.0	2.5	/experiments/knapen_AOT/AOT_stimuli/rescaled_final/2067_fw.mp4	0.0	220.24068140983582	
33	168.16655588150024	fix_post	2		12	31.0	2.5	/experiments/knapen_AOT/AOT_stimuli/rescaled_final/2067_fw.mp4	0.0	220.7592167854309	0.10007524490356445
34	168.2666311264038	fix_pre	0		119	32.0	2.5	/experiments/knapen_AOT/AOT_stimuli/rescaled_final/0739_fw.mp4	0.0	220.85929203033447	1.000082015991211
34	169.25039863586426	pulse	0	t		32.0	2.5	/experiments/knapen_AOT/AOT_stimuli/rescaled_final/0739_fw.mp4	0.0	221.84305953979492	
34	169.26671314239502	movie	1		282	32.0	2.5	/experiments/knapen_AOT/AOT_stimuli/rescaled_final/0739_fw.mp4	0.0	221.85937404632568	2.5004050731658936
34	170.84868121147156	pulse	1	t		32.0	2.5	/experiments/knapen_AOT/AOT_stimuli/rescaled_final/0739_fw.mp4	0.0	223.44134211540222	
34	171.7671182155609	fix_post	2		12	32.0	2.5	/experiments/knapen_AOT/AOT_stimuli/rescaled_final/0739_fw.mp4	0.0	224.35977911949158	0.10004496574401855
35	171.86716318130493	fix_pre	0		120	33.0	2.5	/experiments/knapen_AOT/AOT_stimuli/rescaled_final/1040_fw.mp4	0.0	224.4598240852356	1.0084173679351807
35	172.4507257938385	pulse	0	t		33.0	2.5	/experiments/knapen_AOT/AOT_stimuli/rescaled_final/1040_fw.mp4	0.0	225.04338669776917	
35	172.8755805492401	movie	1		268	33.0	2.5	/experiments/knapen_AOT/AOT_stimuli/rescaled_final/1040_fw.mp4	0.0	225.46824145317078	2.4922354221343994
35	174.0489583015442	pulse	1	t		33.0	2.5	/experiments/knapen_AOT/AOT_stimuli/rescaled_final/1040_fw.mp4	0.0	226.64161920547485	
35	175.3678159713745	fix_post	2		12	33.0	2.5	/experiments/knapen_AOT/AOT_stimuli/rescaled_final/1040_fw.mp4	0.0	227.96047687530518	0.09981918334960938
36	175.46763515472412	fix_pre	0		120	34.0	2.5	blank	1.0	228.06029605865479	1.000159740447998
36	175.64376020431519	pulse	0	t		34.0	2.5	blank	1.0	228.23642110824585	
36	176.46779489517212	movie	1		300	34.0	2.5	blank	1.0	229.06045579910278	2.5004775524139404
36	177.24381828308105	pulse	1	t		34.0	2.5	blank	1.0	229.83647918701172	
36	178.8436803817749	pulse	1	t		34.0	2.5	blank	1.0	231.43634128570557	
36	178.96827244758606	fix_post	2		12	34.0	2.5	blank	1.0	231.56093335151672	0.09991240501403809
37	179.0681848526001	fix_pre	0		120	35.0	2.5	/experiments/knapen_AOT/AOT_stimuli/rescaled_final/1634_rv.mp4	0.0	231.66084575653076	1.0085489749908447
37	180.07673382759094	movie	1		265	35.0	2.5	/experiments/knapen_AOT/AOT_stimuli/rescaled_final/1634_rv.mp4	0.0	232.6693947315216	2.492002487182617
37	180.44375014305115	pulse	1	t		35.0	2.5	/experiments/knapen_AOT/AOT_stimuli/rescaled_final/1634_rv.mp4	0.0	233.0364110469818	
37	182.0522916316986	pulse	1	t		35.0	2.5	/experiments/knapen_AOT/AOT_stimuli/rescaled_final/1634_rv.mp4	0.0	234.64495253562927	
37	182.56873631477356	fix_post	2		12	35.0	2.5	/experiments/knapen_AOT/AOT_stimuli/rescaled_final/1634_rv.mp4	0.0	235.16139721870422	0.10004615783691406
38	182.66878247261047	fix_pre	0		118	36.0	2.5	/experiments/knapen_AOT/AOT_stimuli/rescaled_final/0903_rv.mp4	0.0	235.26144337654114	0.9918816089630127
38	183.64432454109192	pulse	0	t		36.0	2.5	/experiments/knapen_AOT/AOT_stimuli/rescaled_final/0903_rv.mp4	0.0	236.23698544502258	
38	183.6606640815735	movie	1		275	36.0	2.5	/experiments/knapen_AOT/AOT_stimuli/rescaled_final/0903_rv.mp4	0.0	236.25332498550415	2.5002753734588623
38	185.24439692497253	pulse	1	t		36.0	2.5	/experiments/knapen_AOT/AOT_stimuli/rescaled_final/0903_rv.mp4	0.0	237.8370578289032	
38	186.16093945503235	fix_post	2		12	36.0	2.5	/experiments/knapen_AOT/AOT_stimuli/rescaled_final/0903_rv.mp4	0.0	238.753600358963	0.1001431941986084
39	186.26108264923096	fix_pre	0		120	37.0	2.5	/experiments/knapen_AOT/AOT_stimuli/rescaled_final/0858_fw.mp4	0.0	238.85374355316162	1.0083427429199219
39	186.84455394744873	pulse	0	t		37.0	2.5	/experiments/knapen_AOT/AOT_stimuli/rescaled_final/0858_fw.mp4	0.0	239.4372148513794	
39	187.26942539215088	movie	1		278	37.0	2.5	/experiments/knapen_AOT/AOT_stimuli/rescaled_final/0858_fw.mp4	0.0	239.86208629608154	2.4922902584075928
39	188.44492483139038	pulse	1	t		37.0	2.5	/experiments/knapen_AOT/AOT_stimuli/rescaled_final/0858_fw.mp4	0.0	241.03758573532104	
39	189.76171565055847	fix_post	2		12	37.0	2.5	/experiments/knapen_AOT/AOT_stimuli/rescaled_final/0858_fw.mp4	0.0	242.35437655448914	0.09980201721191406
40	189.86151766777039	fix_pre	0		120	38.0	2.5	/experiments/knapen_AOT/AOT_stimuli/rescaled_final/2061_fw.mp4	0.0	242.45417857170105	1.0085663795471191
40	190.04519867897034	pulse	0	t		38.0	2.5	/experiments/knapen_AOT/AOT_stimuli/rescaled_final/2061_fw.mp4	0.0	242.637859582901	
40	190.8700840473175	movie	1		274	38.0	2.5	/experiments/knapen_AOT/AOT_stimuli/rescaled_final/2061_fw.mp4	0.0	243.46274495124817	2.4919183254241943
40	191.64480137825012	pulse	1	t		38.0	2.5	/experiments/knapen_AOT/AOT_stimuli/rescaled_final/2061_fw.mp4	0.0	244.2374622821808	
40	193.24448585510254	pulse	1	t		38.0	2.5	/experiments/knapen_AOT/AOT_stimuli/rescaled_final/2061_fw.mp4	0.0	245.8371467590332	
40	193.3620023727417	fix_post	2		12	38.0	2.5	/experiments/knapen_AOT/AOT_stimuli/rescaled_final/2061_fw.mp4	0.0	245.95466327667236	0.10002493858337402
41	193.46202731132507	fix_pre	0		120	39.0	2.5	/experiments/knapen_AOT/AOT_stimuli/rescaled_final/0441_rv.mp4	0.0	246.05468821525574	1.0085163116455078
41	194.47054362297058	movie	1		262	39.0	2.5	/experiments/knapen_AOT/AOT_stimuli/rescaled_final/0441_rv.mp4	0.0	247.06320452690125	2.49200701713562
41	194.84440684318542	pulse	1	t		39.0	2.5	/experiments/knapen_AOT/AOT_stimuli/rescaled_final/0441_rv.mp4	0.0	247.4370677471161	
41	196.4447536468506	pulse	1	t		39.0	2.5	/experiments/knapen_AOT/AOT_stimuli/rescaled_final/0441_rv.mp4	0.0	249.03741455078125	
41	196.9625506401062	fix_post	2		12	39.0	2.5	/experiments/knapen_AOT/AOT_stimuli/rescaled_final/0441_rv.mp4	0.0	249.55521154403687	0.10001182556152344
42	197.06256246566772	fix_pre	0		119	40.0	2.5	/experiments/knapen_AOT/AOT_stimuli/rescaled_final/0195_rv.mp4	0.0	249.6552233695984	1.000182867050171
42	198.04644656181335	pulse	0	t		40.0	2.5	/experiments/knapen_AOT/AOT_stimuli/rescaled_final/0195_rv.mp4	0.0	250.63910746574402	
42	198.0627453327179	movie	1		263	40.0	2.5	/experiments/knapen_AOT/AOT_stimuli/rescaled_final/0195_rv.mp4	0.0	250.65540623664856	2.500356674194336
42	199.64575457572937	pulse	1	t		40.0	2.5	/experiments/knapen_AOT/AOT_stimuli/rescaled_final/0195_rv.mp4	0.0	252.23841547966003	
42	200.56310200691223	fix_post	2		12	40.0	2.5	/experiments/knapen_AOT/AOT_stimuli/rescaled_final/0195_rv.mp4	0.0	253.1557629108429	0.10001540184020996
43	200.66311740875244	fix_pre	0		120	41.0	2.5	/experiments/knapen_AOT/AOT_stimuli/rescaled_final/1139_rv.mp4	0.0	253.2557783126831	1.0084774494171143
43	201.24671602249146	pulse	0	t		41.0	2.5	/experiments/knapen_AOT/AOT_stimuli/rescaled_final/1139_rv.mp4	0.0	253.83937692642212	
43	201.67159485816956	movie	1		269	41.0	2.5	/experiments/knapen_AOT/AOT_stimuli/rescaled_final/1139_rv.mp4	0.0	254.26425576210022	2.492032051086426
43	202.84531784057617	pulse	1	t		41.0	2.5	/experiments/knapen_AOT/AOT_stimuli/rescaled_final/1139_rv.mp4	0.0	255.43797874450684	
43	204.16362690925598	fix_post	2		12	41.0	2.5	/experiments/knapen_AOT/AOT_stimuli/rescaled_final/1139_rv.mp4	0.0	256.75628781318665	0.10004663467407227
44	204.26367354393005	fix_pre	0		120	42.0	2.5	blank	1.0	256.8563344478607	1.000148057937622
44	204.4472508430481	pulse	0	t		42.0	2.5	blank	1.0	257.03991174697876	
44	205.26382160186768	movie	1		300	42.0	2.5	blank	1.0	257.85648250579834	2.500340223312378
44	206.04747557640076	pulse	1	t		42.0	2.5	blank	1.0	258.6401364803314	
44	207.6476538181305	pulse	1	t		42.0	2.5	blank	1.0	260.24031472206116	
44	207.76416182518005	fix_post	2		12	42.0	2.5	blank	1.0	260.3568227291107	0.10003972053527832
45	207.86420154571533	fix_pre	0		120	43.0	2.5	/experiments/knapen_AOT/AOT_stimuli/rescaled_final/0350_rv.mp4	0.0	260.456862449646	1.0085017681121826
45	208.87270331382751	movie	1		276	43.0	2.5	/experiments/knapen_AOT/AOT_stimuli/rescaled_final/0350_rv.mp4	0.0	261.4653642177582	2.492011785507202
45	209.2463653087616	pulse	1	t		43.0	2.5	/experiments/knapen_AOT/AOT_stimuli/rescaled_final/0350_rv.mp4	0.0	261.83902621269226	
45	210.8474178314209	pulse	1	t		43.0	2.5	/experiments/knapen_AOT/AOT_stimuli/rescaled_final/0350_rv.mp4	0.0	263.44007873535156	
45	211.36471509933472	fix_post	2		12	43.0	2.5	/experiments/knapen_AOT/AOT_stimuli/rescaled_final/0350_rv.mp4	0.0	263.9573760032654	0.10001516342163086
46	211.46473026275635	fix_pre	0		119	44.0	2.5	/experiments/knapen_AOT/AOT_stimuli/rescaled_final/0404_fw.mp4	0.0	264.057391166687	1.000175952911377
46	212.44853353500366	pulse	0	t		44.0	2.5	/experiments/knapen_AOT/AOT_stimuli/rescaled_final/0404_fw.mp4	0.0	265.0411944389343	
46	212.46490621566772	movie	1		269	44.0	2.5	/experiments/knapen_AOT/AOT_stimuli/rescaled_final/0404_fw.mp4	0.0	265.0575671195984	2.500391721725464
46	214.048259973526	pulse	1	t		44.0	2.5	/experiments/knapen_AOT/AOT_stimuli/rescaled_final/0404_fw.mp4	0.0	266.64092087745667	
46	214.9652979373932	fix_post	2		12	44.0	2.5	/experiments/knapen_AOT/AOT_stimuli/rescaled_final/0404_fw.mp4	0.0	267.55795884132385	0.09997177124023438
47	215.06526970863342	fix_pre	0		120	45.0	2.5	/experiments/knapen_AOT/AOT_stimuli/rescaled_final/0806_rv.mp4	0.0	267.6579306125641	1.0085766315460205
47	215.6489143371582	pulse	0	t		45.0	2.5	/experiments/knapen_AOT/AOT_stimuli/rescaled_final/0806_rv.mp4	0.0	268.24157524108887	
47	216.07384634017944	movie	1		281	45.0	2.5	/experiments/knapen_AOT/AOT_stimuli/rescaled_final/0806_rv.mp4	0.0	268.6665072441101	2.492014169692993
47	217.2491376399994	pulse	1	t		45.0	2.5	/experiments/knapen_AOT/AOT_stimuli/rescaled_final/0806_rv.mp4	0.0	269.84179854393005	
47	218.56586050987244	fix_post	2		12	45.0	2.5	/experiments/knapen_AOT/AOT_stimuli/rescaled_final/0806_rv.mp4	0.0	271.1585214138031	0.09996438026428223
48	218.66582489013672	fix_pre	0		120	46.0	2.5	/experiments/knapen_AOT/AOT_stimuli/rescaled_final/0317_fw.mp4	0.0	271.2584857940674	1.0084993839263916
48	218.84937262535095	pulse	0	t		46.0	2.5	/experiments/knapen_AOT/AOT_stimuli/rescaled_final/0317_fw.mp4	0.0	271.4420335292816	
48	219.6743242740631	movie	1		261	46.0	2.5	/experiments/knapen_AOT/AOT_stimuli/rescaled_final/0317_fw.mp4	0.0	272.2669851779938	2.4920198917388916
48	220.48235416412354	pulse	1	t		46.0	2.5	/experiments/knapen_AOT/AOT_stimuli/rescaled_final/0317_fw.mp4	0.0	273.0750150680542	
48	222.04760932922363	pulse	1	t		46.0	2.5	/experiments/knapen_AOT/AOT_stimuli/rescaled_final/0317_fw.mp4	0.0	274.6402702331543	
48	222.166344165802	fix_post	2		12	46.0	2.5	/experiments/knapen_AOT/AOT_stimuli/rescaled_final/0317_fw.mp4	0.0	274.75900506973267	0.10003113746643066
49	222.26637530326843	fix_pre	0		120	47.0	2.5	/experiments/knapen_AOT/AOT_stimuli/rescaled_final/0001_fw.mp4	0.0	274.8590362071991	1.0085248947143555
49	223.2749001979828	movie	1		285	47.0	2.5	/experiments/knapen_AOT/AOT_stimuli/rescaled_final/0001_fw.mp4	0.0	275.86756110191345	2.4919919967651367
49	223.6481192111969	pulse	1	t		47.0	2.5	/experiments/knapen_AOT/AOT_stimuli/rescaled_final/0001_fw.mp4	0.0	276.24078011512756	
49	225.2480115890503	pulse	1	t		47.0	2.5	/experiments/knapen_AOT/AOT_stimuli/rescaled_final/0001_fw.mp4	0.0	277.84067249298096	
49	225.76689219474792	fix_post	2		12	47.0	2.5	/experiments/knapen_AOT/AOT_stimuli/rescaled_final/0001_fw.mp4	0.0	278.3595530986786	0.10004806518554688
50	225.86694025993347	fix_pre	0		119	48.0	2.5	/experiments/knapen_AOT/AOT_stimuli/rescaled_final/0457_fw.mp4	0.0	278.45960116386414	1.0001120567321777
50	226.85069751739502	pulse	0	t		48.0	2.5	/experiments/knapen_AOT/AOT_stimuli/rescaled_final/0457_fw.mp4	0.0	279.4433584213257	
50	226.86705231666565	movie	1		283	48.0	2.5	/experiments/knapen_AOT/AOT_stimuli/rescaled_final/0457_fw.mp4	0.0	279.4597132205963	2.500419855117798
50	228.44907188415527	pulse	1	t		48.0	2.5	/experiments/knapen_AOT/AOT_stimuli/rescaled_final/0457_fw.mp4	0.0	281.04173278808594	
50	229.36747217178345	fix_post	2		12	48.0	2.5	/experiments/knapen_AOT/AOT_stimuli/rescaled_final/0457_fw.mp4	0.0	281.9601330757141	0.09998011589050293
51	229.46745228767395	fix_pre	0		120	49.0	2.5	blank	1.0	282.0601131916046	1.0002331733703613
51	230.05120611190796	pulse	0	t		49.0	2.5	blank	1.0	282.6438670158386	
51	230.4676854610443	movie	1		300	49.0	2.5	blank	1.0	283.060346364975	2.5002822875976562
51	231.65137314796448	pulse	1	t		49.0	2.5	blank	1.0	284.24403405189514	
51	232.96796774864197	fix_post	2		12	49.0	2.5	blank	1.0	285.56062865257263	0.10002326965332031
52	233.0679910182953	fix_pre	0		120	50.0	2.5	/experiments/knapen_AOT/AOT_stimuli/rescaled_final/2067_rv.mp4	0.0	285.66065192222595	1.008512258529663
52	233.24458384513855	pulse	0	t		50.0	2.5	/experiments/knapen_AOT/AOT_stimuli/rescaled_final/2067_rv.mp4	0.0	285.8372447490692	
52	234.07650327682495	movie	1		279	50.0	2.5	/experiments/knapen_AOT/AOT_stimuli/rescaled_final/2067_rv.mp4	0.0	286.6691641807556	2.4920222759246826
52	234.85193729400635	pulse	1	t		50.0	2.5	/experiments/knapen_AOT/AOT_stimuli/rescaled_final/2067_rv.mp4	0.0	287.444598197937	
52	236.4501497745514	pulse	1	t		50.0	2.5	/experiments/knapen_AOT/AOT_stimuli/rescaled_final/2067_rv.mp4	0.0	289.04281067848206	
52	236.56852555274963	fix_post	2		12	50.0	2.5	/experiments/knapen_AOT/AOT_stimuli/rescaled_final/2067_rv.mp4	0.0	289.1611864566803	0.10006046295166016
53	236.6685860157013	fix_pre	0		120	51.0	2.5	/experiments/knapen_AOT/AOT_stimuli/rescaled_final/0457_fw.mp4	0.0	289.26124691963196	1.008434534072876
53	237.67702054977417	movie	1		280	51.0	2.5	/experiments/knapen_AOT/AOT_stimuli/rescaled_final/0457_fw.mp4	0.0	290.26968145370483	2.4920363426208496
53	238.04420924186707	pulse	1	t		51.0	2.5	/experiments/knapen_AOT/AOT_stimuli/rescaled_final/0457_fw.mp4	0.0	290.63687014579773	
53	239.64420795440674	pulse	1	t		51.0	2.5	/experiments/knapen_AOT/AOT_stimuli/rescaled_final/0457_fw.mp4	0.0	292.2368688583374	
53	240.16905689239502	fix_post	2		12	51.0	2.5	/experiments/knapen_AOT/AOT_stimuli/rescaled_final/0457_fw.mp4	0.0	292.7617177963257	0.10000967979431152
54	240.26906657218933	fix_pre	0		118	52.0	2.5	/experiments/knapen_AOT/AOT_stimuli/rescaled_final/1548_rv.mp4	0.0	292.86172747612	0.9918510913848877
54	241.24449825286865	pulse	0	t		52.0	2.5	/experiments/knapen_AOT/AOT_stimuli/rescaled_final/1548_rv.mp4	0.0	293.8371591567993	
54	241.26091766357422	movie	1		271	52.0	2.5	/experiments/knapen_AOT/AOT_stimuli/rescaled_final/1548_rv.mp4	0.0	293.8535785675049	2.5005271434783936
54	242.8448383808136	pulse	1	t		52.0	2.5	/experiments/knapen_AOT/AOT_stimuli/rescaled_final/1548_rv.mp4	0.0	295.43749928474426	
54	243.7614448070526	fix_post	2		12	52.0	2.5	/experiments/knapen_AOT/AOT_stimuli/rescaled_final/1548_rv.mp4	0.0	296.3541057109833	0.0998528003692627
55	243.86129760742188	fix_pre	0		120	53.0	2.5	/experiments/knapen_AOT/AOT_stimuli/rescaled_final/1374_fw.mp4	0.0	296.45395851135254	1.0084865093231201
55	244.44493556022644	pulse	0	t		53.0	2.5	/experiments/knapen_AOT/AOT_stimuli/rescaled_final/1374_fw.mp4	0.0	297.0375964641571	
55	244.869784116745	movie	1		286	53.0	2.5	/experiments/knapen_AOT/AOT_stimuli/rescaled_final/1374_fw.mp4	0.0	297.46244502067566	2.4920668601989746
55	246.04539132118225	pulse	1	t		53.0	2.5	/experiments/knapen_AOT/AOT_stimuli/rescaled_final/1374_fw.mp4	0.0	298.6380522251129	
55	247.36185097694397	fix_post	2		12	53.0	2.5	/experiments/knapen_AOT/AOT_stimuli/rescaled_final/1374_fw.mp4	0.0	299.95451188087463	0.10001063346862793
56	247.4618616104126	fix_pre	0		120	54.0	2.5	/experiments/knapen_AOT/AOT_stimuli/rescaled_final/1862_fw.mp4	0.0	300.05452251434326	1.0084507465362549
56	247.64539170265198	pulse	0	t		54.0	2.5	/experiments/knapen_AOT/AOT_stimuli/rescaled_final/1862_fw.mp4	0.0	300.23805260658264	
56	248.47031235694885	movie	1		285	54.0	2.5	/experiments/knapen_AOT/AOT_stimuli/rescaled_final/1862_fw.mp4	0.0	301.0629732608795	2.4920477867126465
56	249.2457094192505	pulse	1	t		54.0	2.5	/experiments/knapen_AOT/AOT_stimuli/rescaled_final/1862_fw.mp4	0.0	301.83837032318115	
56	250.8443739414215	pulse	1	t		54.0	2.5	/experiments/knapen_AOT/AOT_stimuli/rescaled_final/1862_fw.mp4	0.0	303.4370348453522	
56	250.9623601436615	fix_post	2		12	54.0	2.5	/experiments/knapen_AOT/AOT_stimuli/rescaled_final/1862_fw.mp4	0.0	303.55502104759216	0.10002923011779785
57	251.0623893737793	fix_pre	0		120	55.0	2.5	/experiments/knapen_AOT/AOT_stimuli/rescaled_final/0350_rv.mp4	0.0	303.65505027770996	1.0085008144378662
57	252.07089018821716	movie	1		263	55.0	2.5	/experiments/knapen_AOT/AOT_stimuli/rescaled_final/0350_rv.mp4	0.0	304.6635510921478	2.492025852203369
57	252.44646883010864	pulse	1	t		55.0	2.5	/experiments/knapen_AOT/AOT_stimuli/rescaled_final/0350_rv.mp4	0.0	305.0391297340393	
57	254.04665780067444	pulse	1	t		55.0	2.5	/experiments/knapen_AOT/AOT_stimuli/rescaled_final/0350_rv.mp4	0.0	306.6393187046051	
57	254.56291604042053	fix_post	2		12	55.0	2.5	/experiments/knapen_AOT/AOT_stimuli/rescaled_final/0350_rv.mp4	0.0	307.1555769443512	0.10000896453857422
58	254.6629250049591	fix_pre	0		119	56.0	2.5	blank	1.0	307.25558590888977	0.9917798042297363
58	255.6465790271759	pulse	0	t		56.0	2.5	blank	1.0	308.23923993110657	
58	255.65470480918884	movie	1		301	56.0	2.5	blank	1.0	308.2473657131195	2.508737325668335
58	257.24683594703674	pulse	1	t		56.0	2.5	blank	1.0	309.8394968509674	
58	258.1634421348572	fix_post	2		12	56.0	2.5	blank	1.0	310.75610303878784	0.1000509262084961
59	258.2634930610657	fix_pre	0		120	57.0	2.5	/experiments/knapen_AOT/AOT_stimuli/rescaled_final/1116_rv.mp4	0.0	310.85615396499634	1.0084378719329834
59	258.8471188545227	pulse	0	t		57.0	2.5	/experiments/knapen_AOT/AOT_stimuli/rescaled_final/1116_rv.mp4	0.0	311.43977975845337	
59	259.27193093299866	movie	1		281	57.0	2.5	/experiments/knapen_AOT/AOT_stimuli/rescaled_final/1116_rv.mp4	0.0	311.8645918369293	2.492091178894043
59	260.4458041191101	pulse	1	t		57.0	2.5	/experiments/knapen_AOT/AOT_stimuli/rescaled_final/1116_rv.mp4	0.0	313.03846502304077	
59	261.7640221118927	fix_post	2		12	57.0	2.5	/experiments/knapen_AOT/AOT_stimuli/rescaled_final/1116_rv.mp4	0.0	314.35668301582336	0.09997916221618652
60	261.8640012741089	fix_pre	0		120	58.0	2.5	/experiments/knapen_AOT/AOT_stimuli/rescaled_final/1265_rv.mp4	0.0	314.45666217803955	1.0084967613220215
60	262.0475730895996	pulse	0	t		58.0	2.5	/experiments/knapen_AOT/AOT_stimuli/rescaled_final/1265_rv.mp4	0.0	314.6402339935303	
60	262.8724980354309	movie	1		286	58.0	2.5	/experiments/knapen_AOT/AOT_stimuli/rescaled_final/1265_rv.mp4	0.0	315.4651589393616	2.492018699645996
60	263.6460483074188	pulse	1	t		58.0	2.5	/experiments/knapen_AOT/AOT_stimuli/rescaled_final/1265_rv.mp4	0.0	316.2387092113495	
60	265.24626421928406	pulse	1	t		58.0	2.5	/experiments/knapen_AOT/AOT_stimuli/rescaled_final/1265_rv.mp4	0.0	317.8389251232147	
60	265.3645167350769	fix_post	2		12	58.0	2.5	/experiments/knapen_AOT/AOT_stimuli/rescaled_final/1265_rv.mp4	0.0	317.95717763900757	0.10002684593200684
61	265.4645435810089	fix_pre	0		120	59.0	2.5	/experiments/knapen_AOT/AOT_stimuli/rescaled_final/2129_rv.mp4	0.0	318.0572044849396	1.0084922313690186
61	266.47303581237793	movie	1		268	59.0	2.5	/experiments/knapen_AOT/AOT_stimuli/rescaled_final/2129_rv.mp4	0.0	319.0656967163086	2.4920663833618164
61	266.84654712677	pulse	1	t		59.0	2.5	/experiments/knapen_AOT/AOT_stimuli/rescaled_final/2129_rv.mp4	0.0	319.4392080307007	
61	268.4462585449219	pulse	1	t		59.0	2.5	/experiments/knapen_AOT/AOT_stimuli/rescaled_final/2129_rv.mp4	0.0	321.03891944885254	
61	268.96510219573975	fix_post	2		12	59.0	2.5	/experiments/knapen_AOT/AOT_stimuli/rescaled_final/2129_rv.mp4	0.0	321.5577630996704	0.09996604919433594
62	269.0650682449341	fix_pre	0		119	60.0	2.5	/experiments/knapen_AOT/AOT_stimuli/rescaled_final/0105_fw.mp4	0.0	321.65772914886475	1.00028395652771
62	270.04886269569397	pulse	0	t		60.0	2.5	/experiments/knapen_AOT/AOT_stimuli/rescaled_final/0105_fw.mp4	0.0	322.64152359962463	
62	270.0653522014618	movie	1		290	60.0	2.5	/experiments/knapen_AOT/AOT_stimuli/rescaled_final/0105_fw.mp4	0.0	322.65801310539246	2.5002729892730713
62	271.64750480651855	pulse	1	t		60.0	2.5	/experiments/knapen_AOT/AOT_stimuli/rescaled_final/0105_fw.mp4	0.0	324.2401657104492	
62	272.56562519073486	fix_post	2		12	60.0	2.5	/experiments/knapen_AOT/AOT_stimuli/rescaled_final/0105_fw.mp4	0.0	325.1582860946655	0.10004401206970215
63	272.66566920280457	fix_pre	0		120	61.0	2.5	blank	1.0	325.25833010673523	1.000154733657837
63	273.2493031024933	pulse	0	t		61.0	2.5	blank	1.0	325.84196400642395	
63	273.6658239364624	movie	1		300	61.0	2.5	blank	1.0	326.25848484039307	2.5003135204315186
63	274.84953117370605	pulse	1	t		61.0	2.5	blank	1.0	327.4421920776367	
63	276.1661374568939	fix_post	2		12	61.0	2.5	blank	1.0	328.7587983608246	0.1000528335571289
64	276.26619029045105	fix_pre	0		120	62.0	2.5	/experiments/knapen_AOT/AOT_stimuli/rescaled_final/0741_fw.mp4	0.0	328.8588511943817	1.0084514617919922
64	276.4499144554138	pulse	0	t		62.0	2.5	/experiments/knapen_AOT/AOT_stimuli/rescaled_final/0741_fw.mp4	0.0	329.0425753593445	
64	277.27464175224304	movie	1		276	62.0	2.5	/experiments/knapen_AOT/AOT_stimuli/rescaled_final/0741_fw.mp4	0.0	329.8673026561737	2.492321729660034
64	278.0502943992615	pulse	1	t		62.0	2.5	/experiments/knapen_AOT/AOT_stimuli/rescaled_final/0741_fw.mp4	0.0	330.64295530319214	
64	279.6505706310272	pulse	1	t		62.0	2.5	/experiments/knapen_AOT/AOT_stimuli/rescaled_final/0741_fw.mp4	0.0	332.2432315349579	
64	279.7669634819031	fix_post	2		12	62.0	2.5	/experiments/knapen_AOT/AOT_stimuli/rescaled_final/0741_fw.mp4	0.0	332.35962438583374	0.09977054595947266
65	279.86673402786255	fix_pre	0		120	63.0	2.5	/experiments/knapen_AOT/AOT_stimuli/rescaled_final/0898_fw.mp4	0.0	332.4593949317932	1.0085039138793945
65	280.87523794174194	movie	1		272	63.0	2.5	/experiments/knapen_AOT/AOT_stimuli/rescaled_final/0898_fw.mp4	0.0	333.4678988456726	2.4919891357421875
65	281.2489724159241	pulse	1	t		63.0	2.5	/experiments/knapen_AOT/AOT_stimuli/rescaled_final/0898_fw.mp4	0.0	333.84163331985474	
65	282.84916973114014	pulse	1	t		63.0	2.5	/experiments/knapen_AOT/AOT_stimuli/rescaled_final/0898_fw.mp4	0.0	335.4418306350708	
65	283.36722707748413	fix_post	2		12	63.0	2.5	/experiments/knapen_AOT/AOT_stimuli/rescaled_final/0898_fw.mp4	0.0	335.9598879814148	0.1001591682434082
66	283.46738624572754	fix_pre	0		119	64.0	2.5	/experiments/knapen_AOT/AOT_stimuli/rescaled_final/0926_rv.mp4	0.0	336.0600471496582	1.000150442123413
66	284.443487405777	pulse	0	t		64.0	2.5	/experiments/knapen_AOT/AOT_stimuli/rescaled_final/0926_rv.mp4	0.0	337.03614830970764	
66	284.46753668785095	movie	1		282	64.0	2.5	/experiments/knapen_AOT/AOT_stimuli/rescaled_final/0926_rv.mp4	0.0	337.0601975917816	2.500253200531006
66	286.0496737957001	pulse	1	t		64.0	2.5	/experiments/knapen_AOT/AOT_stimuli/rescaled_final/0926_rv.mp4	0.0	338.64233469963074	
66	286.96778988838196	fix_post	2		12	64.0	2.5	/experiments/knapen_AOT/AOT_stimuli/rescaled_final/0926_rv.mp4	0.0	339.5604507923126	0.1000068187713623
67	287.0677967071533	fix_pre	0		120	65.0	2.5	/experiments/knapen_AOT/AOT_stimuli/rescaled_final/1414_rv.mp4	0.0	339.660457611084	1.0085091590881348
67	287.6440920829773	pulse	0	t		65.0	2.5	/experiments/knapen_AOT/AOT_stimuli/rescaled_final/1414_rv.mp4	0.0	340.23675298690796	
67	288.07630586624146	movie	1		266	65.0	2.5	/experiments/knapen_AOT/AOT_stimuli/rescaled_final/1414_rv.mp4	0.0	340.6689667701721	2.4920074939727783
67	289.24366569519043	pulse	1	t		65.0	2.5	/experiments/knapen_AOT/AOT_stimuli/rescaled_final/1414_rv.mp4	0.0	341.8363265991211	
67	290.56831336021423	fix_post	2		12	65.0	2.5	/experiments/knapen_AOT/AOT_stimuli/rescaled_final/1414_rv.mp4	0.0	343.1609742641449	0.10008621215820312
68	290.66839957237244	fix_pre	0		120	66.0	2.5	/experiments/knapen_AOT/AOT_stimuli/rescaled_final/1812_rv.mp4	0.0	343.2610604763031	1.0084490776062012
68	290.8439943790436	pulse	0	t		66.0	2.5	/experiments/knapen_AOT/AOT_stimuli/rescaled_final/1812_rv.mp4	0.0	343.43665528297424	
68	291.67684864997864	movie	1		270	66.0	2.5	/experiments/knapen_AOT/AOT_stimuli/rescaled_final/1812_rv.mp4	0.0	344.2695095539093	2.492079973220825
68	292.4438247680664	pulse	1	t		66.0	2.5	/experiments/knapen_AOT/AOT_stimuli/rescaled_final/1812_rv.mp4	0.0	345.03648567199707	
68	294.04394125938416	pulse	1	t		66.0	2.5	/experiments/knapen_AOT/AOT_stimuli/rescaled_final/1812_rv.mp4	0.0	346.6366021633148	
68	294.16892862319946	fix_post	2		12	66.0	2.5	/experiments/knapen_AOT/AOT_stimuli/rescaled_final/1812_rv.mp4	0.0	346.7615895271301	0.09994840621948242
69	294.26887702941895	fix_pre	0		120	67.0	2.5	/experiments/knapen_AOT/AOT_stimuli/rescaled_final/1905_fw.mp4	0.0	346.8615379333496	1.0085256099700928
69	295.27740263938904	movie	1		280	67.0	2.5	/experiments/knapen_AOT/AOT_stimuli/rescaled_final/1905_fw.mp4	0.0	347.8700635433197	2.491997241973877
69	295.64448857307434	pulse	1	t		67.0	2.5	/experiments/knapen_AOT/AOT_stimuli/rescaled_final/1905_fw.mp4	0.0	348.237149477005	
69	297.244841337204	pulse	1	t		67.0	2.5	/experiments/knapen_AOT/AOT_stimuli/rescaled_final/1905_fw.mp4	0.0	349.83750224113464	
69	297.7693998813629	fix_post	2		12	67.0	2.5	/experiments/knapen_AOT/AOT_stimuli/rescaled_final/1905_fw.mp4	0.0	350.3620607852936	0.100006103515625
70	297.86940598487854	fix_pre	0		118	68.0	2.5	blank	1.0	350.4620668888092	0.9835023880004883
70	298.8447949886322	pulse	0	t		68.0	2.5	blank	1.0	351.43745589256287	
70	298.852908372879	movie	1		301	68.0	2.5	blank	1.0	351.4455692768097	2.508702039718628
70	300.4451632499695	pulse	1	t		68.0	2.5	blank	1.0	353.03782415390015	
70	301.36161041259766	fix_post	2		12	68.0	2.5	blank	1.0	353.9542713165283	0.10001111030578613
71	301.46162152290344	fix_pre	0		120	69.0	2.5	/experiments/knapen_AOT/AOT_stimuli/rescaled_final/1780_rv.mp4	0.0	354.0542824268341	1.008521318435669
71	302.04528403282166	pulse	0	t		69.0	2.5	/experiments/knapen_AOT/AOT_stimuli/rescaled_final/1780_rv.mp4	0.0	354.6379449367523	
71	302.4701428413391	movie	1		276	69.0	2.5	/experiments/knapen_AOT/AOT_stimuli/rescaled_final/1780_rv.mp4	0.0	355.0628037452698	2.4920644760131836
71	303.64568567276	pulse	1	t		69.0	2.5	/experiments/knapen_AOT/AOT_stimuli/rescaled_final/1780_rv.mp4	0.0	356.2383465766907	
71	304.9622073173523	fix_post	2		12	69.0	2.5	/experiments/knapen_AOT/AOT_stimuli/rescaled_final/1780_rv.mp4	0.0	357.55486822128296	0.10004520416259766
72	305.0622525215149	fix_pre	0		120	70.0	2.5	/experiments/knapen_AOT/AOT_stimuli/rescaled_final/1548_rv.mp4	0.0	357.65491342544556	1.008392572402954
72	305.2457330226898	pulse	0	t		70.0	2.5	/experiments/knapen_AOT/AOT_stimuli/rescaled_final/1548_rv.mp4	0.0	357.8383939266205	
72	306.07064509391785	movie	1		273	70.0	2.5	/experiments/knapen_AOT/AOT_stimuli/rescaled_final/1548_rv.mp4	0.0	358.6633059978485	2.492082118988037
72	306.84740138053894	pulse	1	t		70.0	2.5	/experiments/knapen_AOT/AOT_stimuli/rescaled_final/1548_rv.mp4	0.0	359.4400622844696	
72	308.44556999206543	pulse	1	t		70.0	2.5	/experiments/knapen_AOT/AOT_stimuli/rescaled_final/1548_rv.mp4	0.0	361.0382308959961	
72	308.5627272129059	fix_post	2		12	70.0	2.5	/experiments/knapen_AOT/AOT_stimuli/rescaled_final/1548_rv.mp4	0.0	361.15538811683655	0.09997916221618652
73	308.66270637512207	fix_pre	0		120	71.0	2.5	/experiments/knapen_AOT/AOT_stimuli/rescaled_final/1319_fw.mp4	0.0	361.25536727905273	1.0085349082946777
73	309.67124128341675	movie	1		264	71.0	2.5	/experiments/knapen_AOT/AOT_stimuli/rescaled_final/1319_fw.mp4	0.0	362.2639021873474	2.4919865131378174
73	310.04452872276306	pulse	1	t		71.0	2.5	/experiments/knapen_AOT/AOT_stimuli/rescaled_final/1319_fw.mp4	0.0	362.6371896266937	
73	311.6445116996765	pulse	1	t		71.0	2.5	/experiments/knapen_AOT/AOT_stimuli/rescaled_final/1319_fw.mp4	0.0	364.2371726036072	
73	312.16322779655457	fix_post	2		12	71.0	2.5	/experiments/knapen_AOT/AOT_stimuli/rescaled_final/1319_fw.mp4	0.0	364.75588870048523	0.10009098052978516
74	312.26331877708435	fix_pre	0		119	72.0	2.5	/experiments/knapen_AOT/AOT_stimuli/rescaled_final/0195_fw.mp4	0.0	364.855979681015	1.000068187713623
74	313.24703645706177	pulse	0	t		72.0	2.5	/experiments/knapen_AOT/AOT_stimuli/rescaled_final/0195_fw.mp4	0.0	365.83969736099243	
74	313.263386964798	movie	1		280	72.0	2.5	/experiments/knapen_AOT/AOT_stimuli/rescaled_final/0195_fw.mp4	0.0	365.85604786872864	2.5003929138183594
74	314.84550619125366	pulse	1	t		72.0	2.5	/experiments/knapen_AOT/AOT_stimuli/rescaled_final/0195_fw.mp4	0.0	367.4381670951843	
74	315.76377987861633	fix_post	2		12	72.0	2.5	/experiments/knapen_AOT/AOT_stimuli/rescaled_final/0195_fw.mp4	0.0	368.356440782547	0.10001754760742188
75	315.86379742622375	fix_pre	0		120	73.0	2.5	/experiments/knapen_AOT/AOT_stimuli/rescaled_final/1693_rv.mp4	0.0	368.4564583301544	1.0085327625274658
75	316.44746828079224	pulse	0	t		73.0	2.5	/experiments/knapen_AOT/AOT_stimuli/rescaled_final/1693_rv.mp4	0.0	369.0401291847229	
75	316.8723301887512	movie	1		283	73.0	2.5	/experiments/knapen_AOT/AOT_stimuli/rescaled_final/1693_rv.mp4	0.0	369.4649910926819	2.4922261238098145
75	318.0455687046051	pulse	1	t		73.0	2.5	/experiments/knapen_AOT/AOT_stimuli/rescaled_final/1693_rv.mp4	0.0	370.63822960853577	
75	319.36455631256104	fix_post	2		12	73.0	2.5	/experiments/knapen_AOT/AOT_stimuli/rescaled_final/1693_rv.mp4	0.0	371.9572172164917	0.09982562065124512
76	319.4643819332123	fix_pre	0		120	74.0	2.5	/experiments/knapen_AOT/AOT_stimuli/rescaled_final/1358_fw.mp4	0.0	372.05704283714294	1.0084562301635742
76	319.6479411125183	pulse	0	t		74.0	2.5	/experiments/knapen_AOT/AOT_stimuli/rescaled_final/1358_fw.mp4	0.0	372.240602016449	
76	320.47283816337585	movie	1		279	74.0	2.5	/experiments/knapen_AOT/AOT_stimuli/rescaled_final/1358_fw.mp4	0.0	373.0654990673065	2.492056369781494
76	321.2463994026184	pulse	1	t		74.0	2.5	/experiments/knapen_AOT/AOT_stimuli/rescaled_final/1358_fw.mp4	0.0	373.8390603065491	
76	322.84643840789795	pulse	1	t		74.0	2.5	/experiments/knapen_AOT/AOT_stimuli/rescaled_final/1358_fw.mp4	0.0	375.4390993118286	
76	322.96489453315735	fix_post	2		12	74.0	2.5	/experiments/knapen_AOT/AOT_stimuli/rescaled_final/1358_fw.mp4	0.0	375.557555437088	0.10000872611999512
77	323.06490325927734	fix_pre	0		120	75.0	2.5	/experiments/knapen_AOT/AOT_stimuli/rescaled_final/2137_fw.mp4	0.0	375.657564163208	1.008484125137329
77	324.0733873844147	movie	1		284	75.0	2.5	/experiments/knapen_AOT/AOT_stimuli/rescaled_final/2137_fw.mp4	0.0	376.66604828834534	2.49202299118042
77	324.44701170921326	pulse	1	t		75.0	2.5	/experiments/knapen_AOT/AOT_stimuli/rescaled_final/2137_fw.mp4	0.0	377.0396726131439	
77	326.04796957969666	pulse	1	t		75.0	2.5	/experiments/knapen_AOT/AOT_stimuli/rescaled_final/2137_fw.mp4	0.0	378.6406304836273	
77	326.5654103755951	fix_post	2		12	75.0	2.5	/experiments/knapen_AOT/AOT_stimuli/rescaled_final/2137_fw.mp4	0.0	379.15807127952576	0.09998464584350586
78	326.6653950214386	fix_pre	0		119	76.0	2.5	blank	1.0	379.25805592536926	0.9918339252471924
78	327.64911007881165	pulse	0	t		76.0	2.5	blank	1.0	380.2417709827423	
78	327.6572289466858	movie	1		301	76.0	2.5	blank	1.0	380.24988985061646	2.5087273120880127
78	329.24936175346375	pulse	1	t		76.0	2.5	blank	1.0	381.8420226573944	
78	330.1659562587738	fix_post	2		12	76.0	2.5	blank	1.0	382.75861716270447	0.10001373291015625
79	330.26596999168396	fix_pre	0		120	77.0	2.5	/experiments/knapen_AOT/AOT_stimuli/rescaled_final/0162_rv.mp4	0.0	382.8586308956146	1.008507490158081
79	330.849657535553	pulse	0	t		77.0	2.5	/experiments/knapen_AOT/AOT_stimuli/rescaled_final/0162_rv.mp4	0.0	383.44231843948364	
79	331.27447748184204	movie	1		268	77.0	2.5	/experiments/knapen_AOT/AOT_stimuli/rescaled_final/0162_rv.mp4	0.0	383.8671383857727	2.492250680923462
79	332.44769978523254	pulse	1	t		77.0	2.5	/experiments/knapen_AOT/AOT_stimuli/rescaled_final/0162_rv.mp4	0.0	385.0403606891632	
79	333.7667281627655	fix_post	2		12	77.0	2.5	/experiments/knapen_AOT/AOT_stimuli/rescaled_final/0162_rv.mp4	0.0	386.35938906669617	0.09985136985778809
80	333.8665795326233	fix_pre	0		120	78.0	2.5	/experiments/knapen_AOT/AOT_stimuli/rescaled_final/0395_rv.mp4	0.0	386.45924043655396	1.0084445476531982
80	334.05043840408325	pulse	0	t		78.0	2.5	/experiments/knapen_AOT/AOT_stimuli/rescaled_final/0395_rv.mp4	0.0	386.6430993080139	
80	334.8750240802765	movie	1		275	78.0	2.5	/experiments/knapen_AOT/AOT_stimuli/rescaled_final/0395_rv.mp4	0.0	387.46768498420715	2.492009401321411
80	335.6501672267914	pulse	1	t		78.0	2.5	/experiments/knapen_AOT/AOT_stimuli/rescaled_final/0395_rv.mp4	0.0	388.24282813072205	
80	337.24844884872437	pulse	1	t		78.0	2.5	/experiments/knapen_AOT/AOT_stimuli/rescaled_final/0395_rv.mp4	0.0	389.84110975265503	
80	337.3670334815979	fix_post	2		12	78.0	2.5	/experiments/knapen_AOT/AOT_stimuli/rescaled_final/0395_rv.mp4	0.0	389.95969438552856	0.10003662109375
81	337.46707010269165	fix_pre	0		120	79.0	2.5	/experiments/knapen_AOT/AOT_stimuli/rescaled_final/1116_fw.mp4	0.0	390.0597310066223	1.0084724426269531
81	338.4755425453186	movie	1		269	79.0	2.5	/experiments/knapen_AOT/AOT_stimuli/rescaled_final/1116_fw.mp4	0.0	391.06820344924927	2.492018222808838
81	338.85046887397766	pulse	1	t		79.0	2.5	/experiments/knapen_AOT/AOT_stimuli/rescaled_final/1116_fw.mp4	0.0	391.4431297779083	
81	340.44924759864807	pulse	1	t		79.0	2.5	/experiments/knapen_AOT/AOT_stimuli/rescaled_final/1116_fw.mp4	0.0	393.04190850257874	
81	340.96756076812744	fix_post	2		12	79.0	2.5	/experiments/knapen_AOT/AOT_stimuli/rescaled_final/1116_fw.mp4	0.0	393.5602216720581	0.10009574890136719
82	341.0676565170288	fix_pre	0		119	80.0	2.5	/experiments/knapen_AOT/AOT_stimuli/rescaled_final/1703_fw.mp4	0.0	393.6603174209595	1.0001230239868164
82	342.0515441894531	pulse	0	t		80.0	2.5	/experiments/knapen_AOT/AOT_stimuli/rescaled_final/1703_fw.mp4	0.0	394.6442050933838	
82	342.0677795410156	movie	1		272	80.0	2.5	/experiments/knapen_AOT/AOT_stimuli/rescaled_final/1703_fw.mp4	0.0	394.6604404449463	2.500335693359375
82	343.6497218608856	pulse	1	t		80.0	2.5	/experiments/knapen_AOT/AOT_stimuli/rescaled_final/1703_fw.mp4	0.0	396.2423827648163	
82	344.568115234375	fix_post	2		12	80.0	2.5	/experiments/knapen_AOT/AOT_stimuli/rescaled_final/1703_fw.mp4	0.0	397.16077613830566	0.1000208854675293
83	344.66813611984253	fix_pre	0		120	81.0	2.5	/experiments/knapen_AOT/AOT_stimuli/rescaled_final/0677_fw.mp4	0.0	397.2607970237732	1.0085947513580322
83	345.2447712421417	pulse	0	t		81.0	2.5	/experiments/knapen_AOT/AOT_stimuli/rescaled_final/0677_fw.mp4	0.0	397.8374321460724	
83	345.67673087120056	movie	1		279	81.0	2.5	/experiments/knapen_AOT/AOT_stimuli/rescaled_final/0677_fw.mp4	0.0	398.2693917751312	2.4919285774230957
83	346.8439061641693	pulse	1	t		81.0	2.5	/experiments/knapen_AOT/AOT_stimuli/rescaled_final/0677_fw.mp4	0.0	399.4365670681	
83	348.16865944862366	fix_post	2		12	81.0	2.5	/experiments/knapen_AOT/AOT_stimuli/rescaled_final/0677_fw.mp4	0.0	400.7613203525543	0.10007429122924805
84	348.2687337398529	fix_pre	0		120	82.0	2.5	/experiments/knapen_AOT/AOT_stimuli/rescaled_final/0012_rv.mp4	0.0	400.86139464378357	1.0084338188171387
84	348.4439835548401	pulse	0	t		82.0	2.5	/experiments/knapen_AOT/AOT_stimuli/rescaled_final/0012_rv.mp4	0.0	401.03664445877075	
84	349.27716755867004	movie	1		269	82.0	2.5	/experiments/knapen_AOT/AOT_stimuli/rescaled_final/0012_rv.mp4	0.0	401.8698284626007	2.4920341968536377
84	350.04419589042664	pulse	1	t		82.0	2.5	/experiments/knapen_AOT/AOT_stimuli/rescaled_final/0012_rv.mp4	0.0	402.6368567943573	
84	351.6443724632263	pulse	1	t		82.0	2.5	/experiments/knapen_AOT/AOT_stimuli/rescaled_final/0012_rv.mp4	0.0	404.237033367157	
84	351.7692017555237	fix_post	2		12	82.0	2.5	/experiments/knapen_AOT/AOT_stimuli/rescaled_final/0012_rv.mp4	0.0	404.36186265945435	0.10001397132873535
85	351.8692157268524	fix_pre	0		120	83.0	2.5	blank	1.0	404.4618766307831	1.0002102851867676
85	352.8694260120392	movie	1		300	83.0	2.5	blank	1.0	405.46208691596985	2.500338077545166
85	353.2446708679199	pulse	1	t		83.0	2.5	blank	1.0	405.8373317718506	
85	354.8448944091797	pulse	1	t		83.0	2.5	blank	1.0	407.43755531311035	
85	355.36976408958435	fix_post	2		12	83.0	2.5	blank	1.0	407.962424993515	0.1250934600830078
87	355.49485754966736	stim	0		1713					408.087518453598	14.277069807052612
87	356.44523668289185	pulse	0	t						409.0378975868225	
87	358.0453782081604	pulse	0	t						410.63803911209106	
87	359.64563274383545	pulse	0	t						412.2382936477661	
87	361.24589109420776	pulse	0	t						413.8385519981384	
87	362.8461022377014	pulse	0	t						415.4387631416321	
87	364.44636249542236	pulse	0	t						417.039023399353	
87	366.0466113090515	pulse	0	t						418.6392722129822	
87	367.6469442844391	pulse	0	t						420.23960518836975	
87	369.24704694747925	pulse	0	t						421.8397078514099	
