trial_nr	onset	event_type	phase	response	nr_frames	movie_index	movie_duration	movie_file	blank	onset_abs	duration
0	0.20819091796875	stim	0		6					49.32773184776306	0.0499570369720459
0	0.2502608299255371	response	0	space						49.36980175971985	
1	0.2581479549407959	stim	0		4751					49.37768888473511	39.60635185241699
1	39.8546929359436	pulse	0	t						88.97423386573792	
1	39.86449980735779	stim	1		1715					88.9840407371521	14.301707029342651
1	41.447911977767944	pulse	1	t						90.56745290756226	
1	43.048168897628784	pulse	1	t						92.1677098274231	
1	44.64836502075195	pulse	1	t						93.76790595054626	
1	46.248502016067505	pulse	1	t						95.36804294586182	
1	47.84880185127258	pulse	1	t						96.9683427810669	
1	49.4490168094635	pulse	1	t						98.56855773925781	
1	51.04927182197571	pulse	1	t						100.16881275177002	
1	52.64946794509888	pulse	1	t						101.76900887489319	
2	54.16620683670044	fix_pre	0		11	0.0	2.5	/experiments/knapen_AOT/AOT_stimuli/rescaled_final/1435_rv.mp4	0.0	103.28574776649475	0.09171795845031738
2	54.24977684020996	pulse	0	t		0.0	2.5	/experiments/knapen_AOT/AOT_stimuli/rescaled_final/1435_rv.mp4	0.0	103.36931777000427	
2	54.25792479515076	movie	1		242	0.0	2.5	/experiments/knapen_AOT/AOT_stimuli/rescaled_final/1435_rv.mp4	0.0	103.37746572494507	2.508679151535034
2	55.85031795501709	pulse	1	t		0.0	2.5	/experiments/knapen_AOT/AOT_stimuli/rescaled_final/1435_rv.mp4	0.0	104.9698588848114	
2	56.76660394668579	fix_post	2		12	0.0	2.5	/experiments/knapen_AOT/AOT_stimuli/rescaled_final/1435_rv.mp4	0.0	105.8861448764801	0.10002899169921875
3	56.86663293838501	fix_pre	0		120	1.0	2.5	/experiments/knapen_AOT/AOT_stimuli/rescaled_final/1889_fw.mp4	0.0	105.98617386817932	1.0001230239868164
3	57.45032596588135	pulse	0	t		1.0	2.5	/experiments/knapen_AOT/AOT_stimuli/rescaled_final/1889_fw.mp4	0.0	106.56986689567566	
3	57.866755962371826	movie	1		243	1.0	2.5	/experiments/knapen_AOT/AOT_stimuli/rescaled_final/1889_fw.mp4	0.0	106.98629689216614	2.500417947769165
3	59.050628900527954	pulse	1	t		1.0	2.5	/experiments/knapen_AOT/AOT_stimuli/rescaled_final/1889_fw.mp4	0.0	108.17016983032227	
3	60.36717391014099	fix_post	2		12	1.0	2.5	/experiments/knapen_AOT/AOT_stimuli/rescaled_final/1889_fw.mp4	0.0	109.4867148399353	0.09998893737792969
4	60.46716284751892	fix_pre	0		120	2.0	2.5	/experiments/knapen_AOT/AOT_stimuli/rescaled_final/1640_fw.mp4	0.0	109.58670377731323	1.0001561641693115
4	60.65079879760742	pulse	0	t		2.0	2.5	/experiments/knapen_AOT/AOT_stimuli/rescaled_final/1640_fw.mp4	0.0	109.77033972740173	
4	61.46731901168823	movie	1		242	2.0	2.5	/experiments/knapen_AOT/AOT_stimuli/rescaled_final/1640_fw.mp4	0.0	110.58685994148254	2.50049090385437
4	62.250977993011475	pulse	1	t		2.0	2.5	/experiments/knapen_AOT/AOT_stimuli/rescaled_final/1640_fw.mp4	0.0	111.37051892280579	
4	63.851059913635254	pulse	1	t		2.0	2.5	/experiments/knapen_AOT/AOT_stimuli/rescaled_final/1640_fw.mp4	0.0	112.97060084342957	
4	63.9678099155426	fix_post	2		12	2.0	2.5	/experiments/knapen_AOT/AOT_stimuli/rescaled_final/1640_fw.mp4	0.0	113.08735084533691	0.09988689422607422
5	64.06769680976868	fix_pre	0		120	3.0	2.5	/experiments/knapen_AOT/AOT_stimuli/rescaled_final/0226_rv.mp4	0.0	113.18723773956299	1.0001721382141113
5	65.06786894798279	movie	1		242	3.0	2.5	/experiments/knapen_AOT/AOT_stimuli/rescaled_final/0226_rv.mp4	0.0	114.1874098777771	2.492079973220825
5	65.45192694664001	pulse	1	t		3.0	2.5	/experiments/knapen_AOT/AOT_stimuli/rescaled_final/0226_rv.mp4	0.0	114.57146787643433	
5	67.04437780380249	pulse	1	t		3.0	2.5	/experiments/knapen_AOT/AOT_stimuli/rescaled_final/0226_rv.mp4	0.0	116.1639187335968	
5	67.55994892120361	fix_post	2		12	3.0	2.5	/experiments/knapen_AOT/AOT_stimuli/rescaled_final/0226_rv.mp4	0.0	116.67948985099792	0.10002493858337402
6	67.65997385978699	fix_pre	0		120	4.0	2.5	/experiments/knapen_AOT/AOT_stimuli/rescaled_final/0396_fw.mp4	0.0	116.7795147895813	1.000115156173706
6	68.64439702033997	pulse	0	t		4.0	2.5	/experiments/knapen_AOT/AOT_stimuli/rescaled_final/0396_fw.mp4	0.0	117.76393795013428	
6	68.6600890159607	movie	1		244	4.0	2.5	/experiments/knapen_AOT/AOT_stimuli/rescaled_final/0396_fw.mp4	0.0	117.779629945755	2.508657932281494
6	70.25271797180176	pulse	1	t		4.0	2.5	/experiments/knapen_AOT/AOT_stimuli/rescaled_final/0396_fw.mp4	0.0	119.37225890159607	
6	71.16874694824219	fix_post	2		12	4.0	2.5	/experiments/knapen_AOT/AOT_stimuli/rescaled_final/0396_fw.mp4	0.0	120.2882878780365	0.10003399848937988
7	71.26878094673157	fix_pre	0		120	5.0	2.5	/experiments/knapen_AOT/AOT_stimuli/rescaled_final/0928_rv.mp4	0.0	120.38832187652588	1.0002188682556152
7	71.84485483169556	pulse	0	t		5.0	2.5	/experiments/knapen_AOT/AOT_stimuli/rescaled_final/0928_rv.mp4	0.0	120.96439576148987	
7	72.26899981498718	movie	1		242	5.0	2.5	/experiments/knapen_AOT/AOT_stimuli/rescaled_final/0928_rv.mp4	0.0	121.3885407447815	2.5003371238708496
7	73.44494581222534	pulse	1	t		5.0	2.5	/experiments/knapen_AOT/AOT_stimuli/rescaled_final/0928_rv.mp4	0.0	122.56448674201965	
7	74.76933693885803	fix_post	2		12	5.0	2.5	/experiments/knapen_AOT/AOT_stimuli/rescaled_final/0928_rv.mp4	0.0	123.88887786865234	0.09994006156921387
8	74.86927700042725	fix_pre	0		120	6.0	2.5	blank	1.0	123.98881793022156	1.0002329349517822
8	75.04447197914124	pulse	0	t		6.0	2.5	blank	1.0	124.16401290893555	
8	75.86950993537903	movie	1		300	6.0	2.5	blank	1.0	124.98905086517334	2.500356912612915
8	76.64480495452881	pulse	1	t		6.0	2.5	blank	1.0	125.76434588432312	
8	78.245041847229	pulse	1	t		6.0	2.5	blank	1.0	127.36458277702332	
8	78.36986684799194	fix_post	2		12	6.0	2.5	blank	1.0	127.48940777778625	0.10000014305114746
9	78.46986699104309	fix_pre	0		120	7.0	2.5	/experiments/knapen_AOT/AOT_stimuli/rescaled_final/0458_rv.mp4	0.0	127.5894079208374	1.0000789165496826
9	79.46994590759277	movie	1		242	7.0	2.5	/experiments/knapen_AOT/AOT_stimuli/rescaled_final/0458_rv.mp4	0.0	128.58948683738708	2.492171049118042
9	79.84527778625488	pulse	1	t		7.0	2.5	/experiments/knapen_AOT/AOT_stimuli/rescaled_final/0458_rv.mp4	0.0	128.9648187160492	
9	81.44552302360535	pulse	1	t		7.0	2.5	/experiments/knapen_AOT/AOT_stimuli/rescaled_final/0458_rv.mp4	0.0	130.56506395339966	
9	81.96211695671082	fix_post	2		12	7.0	2.5	/experiments/knapen_AOT/AOT_stimuli/rescaled_final/0458_rv.mp4	0.0	131.08165788650513	0.1000058650970459
10	82.06212282180786	fix_pre	0		119	8.0	2.5	/experiments/knapen_AOT/AOT_stimuli/rescaled_final/1435_fw.mp4	0.0	131.18166375160217	0.9917900562286377
10	83.04580593109131	pulse	0	t		8.0	2.5	/experiments/knapen_AOT/AOT_stimuli/rescaled_final/1435_fw.mp4	0.0	132.16534686088562	
10	83.0539128780365	movie	1		243	8.0	2.5	/experiments/knapen_AOT/AOT_stimuli/rescaled_final/1435_fw.mp4	0.0	132.1734538078308	2.5086960792541504
10	84.64712190628052	pulse	1	t		8.0	2.5	/experiments/knapen_AOT/AOT_stimuli/rescaled_final/1435_fw.mp4	0.0	133.76666283607483	
10	85.56260895729065	fix_post	2		12	8.0	2.5	/experiments/knapen_AOT/AOT_stimuli/rescaled_final/1435_fw.mp4	0.0	134.68214988708496	0.10000801086425781
11	85.66261696815491	fix_pre	0		120	9.0	2.5	/experiments/knapen_AOT/AOT_stimuli/rescaled_final/1027_rv.mp4	0.0	134.78215789794922	1.000093936920166
11	86.24616384506226	pulse	0	t		9.0	2.5	/experiments/knapen_AOT/AOT_stimuli/rescaled_final/1027_rv.mp4	0.0	135.36570477485657	
11	86.66271090507507	movie	1		243	9.0	2.5	/experiments/knapen_AOT/AOT_stimuli/rescaled_final/1027_rv.mp4	0.0	135.78225183486938	2.5004870891571045
11	87.84650683403015	pulse	1	t		9.0	2.5	/experiments/knapen_AOT/AOT_stimuli/rescaled_final/1027_rv.mp4	0.0	136.96604776382446	
11	89.16319799423218	fix_post	2		12	9.0	2.5	/experiments/knapen_AOT/AOT_stimuli/rescaled_final/1027_rv.mp4	0.0	138.2827389240265	0.09997987747192383
12	89.2631778717041	fix_pre	0		120	10.0	2.5	/experiments/knapen_AOT/AOT_stimuli/rescaled_final/0192_rv.mp4	0.0	138.3827188014984	1.0000770092010498
12	89.44669890403748	pulse	0	t		10.0	2.5	/experiments/knapen_AOT/AOT_stimuli/rescaled_final/0192_rv.mp4	0.0	138.5662398338318	
12	90.26325488090515	movie	1		244	10.0	2.5	/experiments/knapen_AOT/AOT_stimuli/rescaled_final/0192_rv.mp4	0.0	139.38279581069946	2.5004191398620605
12	91.04704999923706	pulse	1	t		10.0	2.5	/experiments/knapen_AOT/AOT_stimuli/rescaled_final/0192_rv.mp4	0.0	140.16659092903137	
12	92.64705181121826	pulse	1	t		10.0	2.5	/experiments/knapen_AOT/AOT_stimuli/rescaled_final/0192_rv.mp4	0.0	141.76659274101257	
12	92.76367402076721	fix_post	2		12	10.0	2.5	/experiments/knapen_AOT/AOT_stimuli/rescaled_final/0192_rv.mp4	0.0	141.88321495056152	0.0999457836151123
13	92.86361980438232	fix_pre	0		120	11.0	2.5	/experiments/knapen_AOT/AOT_stimuli/rescaled_final/1338_rv.mp4	0.0	141.98316073417664	1.0001611709594727
13	93.8637809753418	movie	1		241	11.0	2.5	/experiments/knapen_AOT/AOT_stimuli/rescaled_final/1338_rv.mp4	0.0	142.9833219051361	2.492215871810913
13	94.25179195404053	pulse	1	t		11.0	2.5	/experiments/knapen_AOT/AOT_stimuli/rescaled_final/1338_rv.mp4	0.0	143.37133288383484	
13	95.84767699241638	pulse	1	t		11.0	2.5	/experiments/knapen_AOT/AOT_stimuli/rescaled_final/1338_rv.mp4	0.0	144.9672179222107	
13	96.35599684715271	fix_post	2		12	11.0	2.5	/experiments/knapen_AOT/AOT_stimuli/rescaled_final/1338_rv.mp4	0.0	145.47553777694702	0.09988117218017578
14	96.45587801933289	fix_pre	0		120	12.0	2.5	blank	1.0	145.5754189491272	1.0001308917999268
14	97.4479649066925	pulse	0	t		12.0	2.5	blank	1.0	146.56750583648682	
14	97.45600891113281	movie	1		301	12.0	2.5	blank	1.0	146.57554984092712	2.508747100830078
14	99.04826784133911	pulse	1	t		12.0	2.5	blank	1.0	148.16780877113342	
14	99.96475601196289	fix_post	2		12	12.0	2.5	blank	1.0	149.0842969417572	0.10004401206970215
15	100.06480002403259	fix_pre	0		120	13.0	2.5	/experiments/knapen_AOT/AOT_stimuli/rescaled_final/0549_fw.mp4	0.0	149.1843409538269	1.0000858306884766
15	100.64834499359131	pulse	0	t		13.0	2.5	/experiments/knapen_AOT/AOT_stimuli/rescaled_final/0549_fw.mp4	0.0	149.76788592338562	
15	101.06488585472107	movie	1		242	13.0	2.5	/experiments/knapen_AOT/AOT_stimuli/rescaled_final/0549_fw.mp4	0.0	150.18442678451538	2.500380039215088
15	102.24866700172424	pulse	1	t		13.0	2.5	/experiments/knapen_AOT/AOT_stimuli/rescaled_final/0549_fw.mp4	0.0	151.36820793151855	
15	103.56526589393616	fix_post	2		12	13.0	2.5	/experiments/knapen_AOT/AOT_stimuli/rescaled_final/0549_fw.mp4	0.0	152.68480682373047	0.10004591941833496
16	103.66531181335449	fix_pre	0		120	14.0	2.5	/experiments/knapen_AOT/AOT_stimuli/rescaled_final/1419_rv.mp4	0.0	152.7848527431488	1.000171184539795
16	103.84892201423645	pulse	0	t		14.0	2.5	/experiments/knapen_AOT/AOT_stimuli/rescaled_final/1419_rv.mp4	0.0	152.96846294403076	
16	104.66548299789429	movie	1		243	14.0	2.5	/experiments/knapen_AOT/AOT_stimuli/rescaled_final/1419_rv.mp4	0.0	153.7850239276886	2.500492811203003
16	105.449147939682	pulse	1	t		14.0	2.5	/experiments/knapen_AOT/AOT_stimuli/rescaled_final/1419_rv.mp4	0.0	154.56868886947632	
16	107.04925680160522	pulse	1	t		14.0	2.5	/experiments/knapen_AOT/AOT_stimuli/rescaled_final/1419_rv.mp4	0.0	156.16879773139954	
16	107.16597580909729	fix_post	2		9	14.0	2.5	/experiments/knapen_AOT/AOT_stimuli/rescaled_final/1419_rv.mp4	0.0	156.2855167388916	0.09987115859985352
17	107.26584696769714	fix_pre	0		120	15.0	2.5	/experiments/knapen_AOT/AOT_stimuli/rescaled_final/1195_fw.mp4	0.0	156.38538789749146	1.0000560283660889
17	108.26590299606323	movie	1		242	15.0	2.5	/experiments/knapen_AOT/AOT_stimuli/rescaled_final/1195_fw.mp4	0.0	157.38544392585754	2.492269992828369
17	108.65389394760132	pulse	1	t		15.0	2.5	/experiments/knapen_AOT/AOT_stimuli/rescaled_final/1195_fw.mp4	0.0	157.77343487739563	
17	110.24972486495972	pulse	1	t		15.0	2.5	/experiments/knapen_AOT/AOT_stimuli/rescaled_final/1195_fw.mp4	0.0	159.36926579475403	
17	110.7581729888916	fix_post	2		12	15.0	2.5	/experiments/knapen_AOT/AOT_stimuli/rescaled_final/1195_fw.mp4	0.0	159.8777139186859	0.09987902641296387
18	110.85805201530457	fix_pre	0		120	16.0	2.5	/experiments/knapen_AOT/AOT_stimuli/rescaled_final/1037_fw.mp4	0.0	159.97759294509888	1.0000898838043213
18	111.85011982917786	pulse	0	t		16.0	2.5	/experiments/knapen_AOT/AOT_stimuli/rescaled_final/1037_fw.mp4	0.0	160.96966075897217	
18	111.85814189910889	movie	1		244	16.0	2.5	/experiments/knapen_AOT/AOT_stimuli/rescaled_final/1037_fw.mp4	0.0	160.9776828289032	2.508795976638794
18	113.45428800582886	pulse	1	t		16.0	2.5	/experiments/knapen_AOT/AOT_stimuli/rescaled_final/1037_fw.mp4	0.0	162.57382893562317	
18	114.36693787574768	fix_post	2		12	16.0	2.5	/experiments/knapen_AOT/AOT_stimuli/rescaled_final/1037_fw.mp4	0.0	163.486478805542	0.09998512268066406
19	114.46692299842834	fix_pre	0		120	17.0	2.5	/experiments/knapen_AOT/AOT_stimuli/rescaled_final/0479_fw.mp4	0.0	163.58646392822266	1.000093936920166
19	115.05041790008545	pulse	0	t		17.0	2.5	/experiments/knapen_AOT/AOT_stimuli/rescaled_final/0479_fw.mp4	0.0	164.16995882987976	
19	115.46701693534851	movie	1		242	17.0	2.5	/experiments/knapen_AOT/AOT_stimuli/rescaled_final/0479_fw.mp4	0.0	164.58655786514282	2.5004019737243652
19	116.65079593658447	pulse	1	t		17.0	2.5	/experiments/knapen_AOT/AOT_stimuli/rescaled_final/0479_fw.mp4	0.0	165.77033686637878	
19	117.96741890907288	fix_post	2		12	17.0	2.5	/experiments/knapen_AOT/AOT_stimuli/rescaled_final/0479_fw.mp4	0.0	167.0869598388672	0.10011792182922363
20	118.0675368309021	fix_pre	0		120	18.0	2.5	/experiments/knapen_AOT/AOT_stimuli/rescaled_final/0366_rv.mp4	0.0	167.1870777606964	1.0000519752502441
20	118.25093984603882	pulse	0	t		18.0	2.5	/experiments/knapen_AOT/AOT_stimuli/rescaled_final/0366_rv.mp4	0.0	167.37048077583313	
20	119.06758880615234	movie	1		242	18.0	2.5	/experiments/knapen_AOT/AOT_stimuli/rescaled_final/0366_rv.mp4	0.0	168.18712973594666	2.500498056411743
20	119.85129284858704	pulse	1	t		18.0	2.5	/experiments/knapen_AOT/AOT_stimuli/rescaled_final/0366_rv.mp4	0.0	168.97083377838135	
20	121.45131301879883	pulse	1	t		18.0	2.5	/experiments/knapen_AOT/AOT_stimuli/rescaled_final/0366_rv.mp4	0.0	170.57085394859314	
20	121.56808686256409	fix_post	2		12	18.0	2.5	/experiments/knapen_AOT/AOT_stimuli/rescaled_final/0366_rv.mp4	0.0	170.6876277923584	0.09988808631896973
21	121.66797494888306	fix_pre	0		120	19.0	2.5	blank	1.0	170.78751587867737	1.0000998973846436
21	122.6680748462677	movie	1		299	19.0	2.5	blank	1.0	171.787615776062	2.4921419620513916
21	123.05172896385193	pulse	1	t		19.0	2.5	blank	1.0	172.17126989364624	
21	124.65198493003845	pulse	1	t		19.0	2.5	blank	1.0	173.77152585983276	
21	125.16021680831909	fix_post	2		12	19.0	2.5	blank	1.0	174.2797577381134	0.09993505477905273
22	125.26015186309814	fix_pre	0		120	20.0	2.5	/experiments/knapen_AOT/AOT_stimuli/rescaled_final/2111_rv.mp4	0.0	174.37969279289246	1.000169038772583
22	126.25225400924683	pulse	0	t		20.0	2.5	/experiments/knapen_AOT/AOT_stimuli/rescaled_final/2111_rv.mp4	0.0	175.37179493904114	
22	126.26032090187073	movie	1		244	20.0	2.5	/experiments/knapen_AOT/AOT_stimuli/rescaled_final/2111_rv.mp4	0.0	175.37986183166504	2.5087170600891113
22	127.85294485092163	pulse	1	t		20.0	2.5	/experiments/knapen_AOT/AOT_stimuli/rescaled_final/2111_rv.mp4	0.0	176.97248578071594	
22	128.76903796195984	fix_post	2		12	20.0	2.5	/experiments/knapen_AOT/AOT_stimuli/rescaled_final/2111_rv.mp4	0.0	177.88857889175415	0.10004186630249023
23	128.86907982826233	fix_pre	0		120	21.0	2.5	/experiments/knapen_AOT/AOT_stimuli/rescaled_final/1420_fw.mp4	0.0	177.98862075805664	1.000133991241455
23	129.4452028274536	pulse	0	t		21.0	2.5	/experiments/knapen_AOT/AOT_stimuli/rescaled_final/1420_fw.mp4	0.0	178.56474375724792	
23	129.86921381950378	movie	1		243	21.0	2.5	/experiments/knapen_AOT/AOT_stimuli/rescaled_final/1420_fw.mp4	0.0	178.9887547492981	2.5004310607910156
23	131.0489649772644	pulse	1	t		21.0	2.5	/experiments/knapen_AOT/AOT_stimuli/rescaled_final/1420_fw.mp4	0.0	180.16850590705872	
23	132.3696448802948	fix_post	2		12	21.0	2.5	/experiments/knapen_AOT/AOT_stimuli/rescaled_final/1420_fw.mp4	0.0	181.4891858100891	0.09996414184570312
24	132.4696090221405	fix_pre	0		120	22.0	2.5	/experiments/knapen_AOT/AOT_stimuli/rescaled_final/0098_fw.mp4	0.0	181.58914995193481	1.0000967979431152
24	132.64484095573425	pulse	0	t		22.0	2.5	/experiments/knapen_AOT/AOT_stimuli/rescaled_final/0098_fw.mp4	0.0	181.76438188552856	
24	133.46970582008362	movie	1		244	22.0	2.5	/experiments/knapen_AOT/AOT_stimuli/rescaled_final/0098_fw.mp4	0.0	182.58924674987793	2.500373125076294
24	134.24513483047485	pulse	1	t		22.0	2.5	/experiments/knapen_AOT/AOT_stimuli/rescaled_final/0098_fw.mp4	0.0	183.36467576026917	
24	135.845312833786	pulse	1	t		22.0	2.5	/experiments/knapen_AOT/AOT_stimuli/rescaled_final/0098_fw.mp4	0.0	184.96485376358032	
24	135.9700789451599	fix_post	2		12	22.0	2.5	/experiments/knapen_AOT/AOT_stimuli/rescaled_final/0098_fw.mp4	0.0	185.08961987495422	0.10005807876586914
25	136.07013702392578	fix_pre	0		120	23.0	2.5	/experiments/knapen_AOT/AOT_stimuli/rescaled_final/0467_rv.mp4	0.0	185.1896779537201	1.0001049041748047
25	137.0702419281006	movie	1		242	23.0	2.5	/experiments/knapen_AOT/AOT_stimuli/rescaled_final/0467_rv.mp4	0.0	186.1897828578949	2.4920949935913086
25	137.4454448223114	pulse	1	t		23.0	2.5	/experiments/knapen_AOT/AOT_stimuli/rescaled_final/0467_rv.mp4	0.0	186.5649857521057	
25	139.04577779769897	pulse	1	t		23.0	2.5	/experiments/knapen_AOT/AOT_stimuli/rescaled_final/0467_rv.mp4	0.0	188.1653187274933	
25	139.5623369216919	fix_post	2		12	23.0	2.5	/experiments/knapen_AOT/AOT_stimuli/rescaled_final/0467_rv.mp4	0.0	188.6818778514862	0.09995198249816895
26	139.66228890419006	fix_pre	0		119	24.0	2.5	/experiments/knapen_AOT/AOT_stimuli/rescaled_final/1029_fw.mp4	0.0	188.78182983398438	0.991818904876709
26	140.64597988128662	pulse	0	t		24.0	2.5	/experiments/knapen_AOT/AOT_stimuli/rescaled_final/1029_fw.mp4	0.0	189.76552081108093	
26	140.65410780906677	movie	1		243	24.0	2.5	/experiments/knapen_AOT/AOT_stimuli/rescaled_final/1029_fw.mp4	0.0	189.77364873886108	2.5087690353393555
26	142.24675488471985	pulse	1	t		24.0	2.5	/experiments/knapen_AOT/AOT_stimuli/rescaled_final/1029_fw.mp4	0.0	191.36629581451416	
26	143.16287684440613	fix_post	2		12	24.0	2.5	/experiments/knapen_AOT/AOT_stimuli/rescaled_final/1029_fw.mp4	0.0	192.28241777420044	0.0999751091003418
27	143.26285195350647	fix_pre	0		120	25.0	2.5	/experiments/knapen_AOT/AOT_stimuli/rescaled_final/0862_fw.mp4	0.0	192.38239288330078	1.000175952911377
27	143.8464539051056	pulse	0	t		25.0	2.5	/experiments/knapen_AOT/AOT_stimuli/rescaled_final/0862_fw.mp4	0.0	192.9659948348999	
27	144.26302790641785	movie	1		242	25.0	2.5	/experiments/knapen_AOT/AOT_stimuli/rescaled_final/0862_fw.mp4	0.0	193.38256883621216	2.5004239082336426
27	145.4468309879303	pulse	1	t		25.0	2.5	/experiments/knapen_AOT/AOT_stimuli/rescaled_final/0862_fw.mp4	0.0	194.5663719177246	
27	146.7634518146515	fix_post	2		12	25.0	2.5	/experiments/knapen_AOT/AOT_stimuli/rescaled_final/0862_fw.mp4	0.0	195.8829927444458	0.0999000072479248
28	146.8633518218994	fix_pre	0		120	26.0	2.5	blank	1.0	195.98289275169373	1.000154972076416
28	147.04694199562073	pulse	0	t		26.0	2.5	blank	1.0	196.16648292541504	
28	147.86350679397583	movie	1		300	26.0	2.5	blank	1.0	196.98304772377014	2.5004141330718994
28	148.64718294143677	pulse	1	t		26.0	2.5	blank	1.0	197.76672387123108	
28	150.2473340034485	pulse	1	t		26.0	2.5	blank	1.0	199.3668749332428	
28	150.36392092704773	fix_post	2		12	26.0	2.5	blank	1.0	199.48346185684204	0.09998607635498047
29	150.4639070034027	fix_pre	0		120	27.0	2.5	/experiments/knapen_AOT/AOT_stimuli/rescaled_final/0501_rv.mp4	0.0	199.58344793319702	1.0001728534698486
29	151.46407985687256	movie	1		241	27.0	2.5	/experiments/knapen_AOT/AOT_stimuli/rescaled_final/0501_rv.mp4	0.0	200.58362078666687	2.492172956466675
29	151.84837198257446	pulse	1	t		27.0	2.5	/experiments/knapen_AOT/AOT_stimuli/rescaled_final/0501_rv.mp4	0.0	200.96791291236877	
29	153.44790482521057	pulse	1	t		27.0	2.5	/experiments/knapen_AOT/AOT_stimuli/rescaled_final/0501_rv.mp4	0.0	202.56744575500488	
29	153.95625281333923	fix_post	2		12	27.0	2.5	/experiments/knapen_AOT/AOT_stimuli/rescaled_final/0501_rv.mp4	0.0	203.07579374313354	0.0999290943145752
30	154.0561819076538	fix_pre	0		120	28.0	2.5	/experiments/knapen_AOT/AOT_stimuli/rescaled_final/0225_rv.mp4	0.0	203.17572283744812	1.0000500679016113
30	155.0481150150299	pulse	0	t		28.0	2.5	/experiments/knapen_AOT/AOT_stimuli/rescaled_final/0225_rv.mp4	0.0	204.16765594482422	
30	155.05623197555542	movie	1		243	28.0	2.5	/experiments/knapen_AOT/AOT_stimuli/rescaled_final/0225_rv.mp4	0.0	204.17577290534973	2.5088050365448
30	156.64889478683472	pulse	1	t		28.0	2.5	/experiments/knapen_AOT/AOT_stimuli/rescaled_final/0225_rv.mp4	0.0	205.76843571662903	
30	157.56503701210022	fix_post	2		12	28.0	2.5	/experiments/knapen_AOT/AOT_stimuli/rescaled_final/0225_rv.mp4	0.0	206.68457794189453	0.09998083114624023
31	157.66501784324646	fix_pre	0		120	29.0	2.5	/experiments/knapen_AOT/AOT_stimuli/rescaled_final/1640_rv.mp4	0.0	206.78455877304077	1.0001180171966553
31	158.24860787391663	pulse	0	t		29.0	2.5	/experiments/knapen_AOT/AOT_stimuli/rescaled_final/1640_rv.mp4	0.0	207.36814880371094	
31	158.66513586044312	movie	1		242	29.0	2.5	/experiments/knapen_AOT/AOT_stimuli/rescaled_final/1640_rv.mp4	0.0	207.78467679023743	2.500540018081665
31	159.84905099868774	pulse	1	t		29.0	2.5	/experiments/knapen_AOT/AOT_stimuli/rescaled_final/1640_rv.mp4	0.0	208.96859192848206	
31	161.16567587852478	fix_post	2		12	29.0	2.5	/experiments/knapen_AOT/AOT_stimuli/rescaled_final/1640_rv.mp4	0.0	210.2852168083191	0.099884033203125
32	161.2655599117279	fix_pre	0		120	30.0	2.5	/experiments/knapen_AOT/AOT_stimuli/rescaled_final/0275_fw.mp4	0.0	210.38510084152222	1.0001270771026611
32	161.44908690452576	pulse	0	t		30.0	2.5	/experiments/knapen_AOT/AOT_stimuli/rescaled_final/0275_fw.mp4	0.0	210.56862783432007	
32	162.26568698883057	movie	1		242	30.0	2.5	/experiments/knapen_AOT/AOT_stimuli/rescaled_final/0275_fw.mp4	0.0	211.38522791862488	2.500480890274048
32	163.04933500289917	pulse	1	t		30.0	2.5	/experiments/knapen_AOT/AOT_stimuli/rescaled_final/0275_fw.mp4	0.0	212.16887593269348	
32	164.65028190612793	pulse	1	t		30.0	2.5	/experiments/knapen_AOT/AOT_stimuli/rescaled_final/0275_fw.mp4	0.0	213.76982283592224	
32	164.76616787910461	fix_post	2		12	30.0	2.5	/experiments/knapen_AOT/AOT_stimuli/rescaled_final/0275_fw.mp4	0.0	213.88570880889893	0.0999300479888916
33	164.8660979270935	fix_pre	0		119	31.0	2.5	/experiments/knapen_AOT/AOT_stimuli/rescaled_final/1589_fw.mp4	0.0	213.98563885688782	0.9917950630187988
33	165.8578929901123	movie	1		242	31.0	2.5	/experiments/knapen_AOT/AOT_stimuli/rescaled_final/1589_fw.mp4	0.0	214.97743391990662	2.5149359703063965
33	166.2499659061432	pulse	1	t		31.0	2.5	/experiments/knapen_AOT/AOT_stimuli/rescaled_final/1589_fw.mp4	0.0	215.3695068359375	
33	167.8500428199768	pulse	1	t		31.0	2.5	/experiments/knapen_AOT/AOT_stimuli/rescaled_final/1589_fw.mp4	0.0	216.96958374977112	
33	168.3728289604187	fix_post	2		10	31.0	2.5	/experiments/knapen_AOT/AOT_stimuli/rescaled_final/1589_fw.mp4	0.0	217.492369890213	0.08542990684509277
34	168.4582588672638	fix_pre	0		117	32.0	2.5	/experiments/knapen_AOT/AOT_stimuli/rescaled_final/0838_rv.mp4	0.0	217.5777997970581	1.0001399517059326
34	169.45024490356445	pulse	0	t		32.0	2.5	/experiments/knapen_AOT/AOT_stimuli/rescaled_final/0838_rv.mp4	0.0	218.56978583335876	
34	169.45839881896973	movie	1		243	32.0	2.5	/experiments/knapen_AOT/AOT_stimuli/rescaled_final/0838_rv.mp4	0.0	218.57793974876404	2.508751153945923
34	171.05129289627075	pulse	1	t		32.0	2.5	/experiments/knapen_AOT/AOT_stimuli/rescaled_final/0838_rv.mp4	0.0	220.17083382606506	
34	171.96714997291565	fix_post	2		12	32.0	2.5	/experiments/knapen_AOT/AOT_stimuli/rescaled_final/0838_rv.mp4	0.0	221.08669090270996	0.0999758243560791
35	172.06712579727173	fix_pre	0		120	33.0	2.5	/experiments/knapen_AOT/AOT_stimuli/rescaled_final/0487_fw.mp4	0.0	221.18666672706604	1.000150203704834
35	172.65085291862488	pulse	0	t		33.0	2.5	/experiments/knapen_AOT/AOT_stimuli/rescaled_final/0487_fw.mp4	0.0	221.7703938484192	
35	173.06727600097656	movie	1		244	33.0	2.5	/experiments/knapen_AOT/AOT_stimuli/rescaled_final/0487_fw.mp4	0.0	222.18681693077087	2.5004940032958984
35	174.24756479263306	pulse	1	t		33.0	2.5	/experiments/knapen_AOT/AOT_stimuli/rescaled_final/0487_fw.mp4	0.0	223.36710572242737	
35	175.56777000427246	fix_post	2		12	33.0	2.5	/experiments/knapen_AOT/AOT_stimuli/rescaled_final/0487_fw.mp4	0.0	224.68731093406677	0.09992694854736328
36	175.66769695281982	fix_pre	0		120	34.0	2.5	blank	1.0	224.78723788261414	1.0001349449157715
36	175.85124683380127	pulse	0	t		34.0	2.5	blank	1.0	224.97078776359558	
36	176.6678318977356	movie	1		300	34.0	2.5	blank	1.0	225.7873728275299	2.5003390312194824
36	177.45137691497803	pulse	1	t		34.0	2.5	blank	1.0	226.57091784477234	
36	179.05174279212952	pulse	1	t		34.0	2.5	blank	1.0	228.17128372192383	
36	179.16817092895508	fix_post	2		12	34.0	2.5	blank	1.0	228.2877118587494	0.10002589225769043
37	179.26819682121277	fix_pre	0		120	35.0	2.5	/experiments/knapen_AOT/AOT_stimuli/rescaled_final/0247_rv.mp4	0.0	228.38773775100708	1.0001959800720215
37	180.2683928012848	movie	1		242	35.0	2.5	/experiments/knapen_AOT/AOT_stimuli/rescaled_final/0247_rv.mp4	0.0	229.3879337310791	2.492061138153076
37	180.65222096443176	pulse	1	t		35.0	2.5	/experiments/knapen_AOT/AOT_stimuli/rescaled_final/0247_rv.mp4	0.0	229.77176189422607	
37	182.24487900733948	pulse	1	t		35.0	2.5	/experiments/knapen_AOT/AOT_stimuli/rescaled_final/0247_rv.mp4	0.0	231.3644199371338	
37	182.76045393943787	fix_post	2		12	35.0	2.5	/experiments/knapen_AOT/AOT_stimuli/rescaled_final/0247_rv.mp4	0.0	231.87999486923218	0.09996891021728516
38	182.86042284965515	fix_pre	0		120	36.0	2.5	/experiments/knapen_AOT/AOT_stimuli/rescaled_final/1063_rv.mp4	0.0	231.97996377944946	1.0001709461212158
38	183.84492683410645	pulse	0	t		36.0	2.5	/experiments/knapen_AOT/AOT_stimuli/rescaled_final/1063_rv.mp4	0.0	232.96446776390076	
38	183.86059379577637	movie	1		244	36.0	2.5	/experiments/knapen_AOT/AOT_stimuli/rescaled_final/1063_rv.mp4	0.0	232.98013472557068	2.508655071258545
38	185.45323586463928	pulse	1	t		36.0	2.5	/experiments/knapen_AOT/AOT_stimuli/rescaled_final/1063_rv.mp4	0.0	234.5727767944336	
38	186.3692488670349	fix_post	2		12	36.0	2.5	/experiments/knapen_AOT/AOT_stimuli/rescaled_final/1063_rv.mp4	0.0	235.48878979682922	0.10001206398010254
39	186.46926093101501	fix_pre	0		120	37.0	2.5	/experiments/knapen_AOT/AOT_stimuli/rescaled_final/0207_rv.mp4	0.0	235.58880186080933	1.0001709461212158
39	187.04524183273315	pulse	0	t		37.0	2.5	/experiments/knapen_AOT/AOT_stimuli/rescaled_final/0207_rv.mp4	0.0	236.16478276252747	
39	187.46943187713623	movie	1		242	37.0	2.5	/experiments/knapen_AOT/AOT_stimuli/rescaled_final/0207_rv.mp4	0.0	236.58897280693054	2.5005300045013428
39	188.64524793624878	pulse	1	t		37.0	2.5	/experiments/knapen_AOT/AOT_stimuli/rescaled_final/0207_rv.mp4	0.0	237.7647888660431	
39	189.96996188163757	fix_post	2		12	37.0	2.5	/experiments/knapen_AOT/AOT_stimuli/rescaled_final/0207_rv.mp4	0.0	239.08950281143188	0.09989500045776367
40	190.06985688209534	fix_pre	0		120	38.0	2.5	/experiments/knapen_AOT/AOT_stimuli/rescaled_final/0353_fw.mp4	0.0	239.18939781188965	1.0001111030578613
40	190.24497985839844	pulse	0	t		38.0	2.5	/experiments/knapen_AOT/AOT_stimuli/rescaled_final/0353_fw.mp4	0.0	239.36452078819275	
40	191.0699679851532	movie	1		243	38.0	2.5	/experiments/knapen_AOT/AOT_stimuli/rescaled_final/0353_fw.mp4	0.0	240.1895089149475	2.492074966430664
40	191.8452010154724	pulse	1	t		38.0	2.5	/experiments/knapen_AOT/AOT_stimuli/rescaled_final/0353_fw.mp4	0.0	240.96474194526672	
40	193.445494890213	pulse	1	t		38.0	2.5	/experiments/knapen_AOT/AOT_stimuli/rescaled_final/0353_fw.mp4	0.0	242.56503582000732	
40	193.56204295158386	fix_post	2		12	38.0	2.5	/experiments/knapen_AOT/AOT_stimuli/rescaled_final/0353_fw.mp4	0.0	242.68158388137817	0.10001993179321289
41	193.66206288337708	fix_pre	0		120	39.0	2.5	/experiments/knapen_AOT/AOT_stimuli/rescaled_final/0778_fw.mp4	0.0	242.7816038131714	1.0001389980316162
41	194.6622018814087	movie	1		243	39.0	2.5	/experiments/knapen_AOT/AOT_stimuli/rescaled_final/0778_fw.mp4	0.0	243.781742811203	2.500443935394287
41	195.04694485664368	pulse	1	t		39.0	2.5	/experiments/knapen_AOT/AOT_stimuli/rescaled_final/0778_fw.mp4	0.0	244.166485786438	
41	196.64610195159912	pulse	1	t		39.0	2.5	/experiments/knapen_AOT/AOT_stimuli/rescaled_final/0778_fw.mp4	0.0	245.76564288139343	
41	197.16264581680298	fix_post	2		12	39.0	2.5	/experiments/knapen_AOT/AOT_stimuli/rescaled_final/0778_fw.mp4	0.0	246.2821867465973	0.09990406036376953
42	197.26254987716675	fix_pre	0		119	40.0	2.5	blank	1.0	246.38209080696106	0.9917819499969482
42	198.2462739944458	pulse	0	t		40.0	2.5	blank	1.0	247.3658149242401	
42	198.2543318271637	movie	1		301	40.0	2.5	blank	1.0	247.373872756958	2.508758068084717
42	199.8464059829712	pulse	1	t		40.0	2.5	blank	1.0	248.9659469127655	
42	200.7630898952484	fix_post	2		12	40.0	2.5	blank	1.0	249.88263082504272	0.10003209114074707
43	200.86312198638916	fix_pre	0		120	41.0	2.5	/experiments/knapen_AOT/AOT_stimuli/rescaled_final/0975_fw.mp4	0.0	249.98266291618347	1.000093936920166
43	201.44678497314453	pulse	0	t		41.0	2.5	/experiments/knapen_AOT/AOT_stimuli/rescaled_final/0975_fw.mp4	0.0	250.56632590293884	
43	201.86321592330933	movie	1		242	41.0	2.5	/experiments/knapen_AOT/AOT_stimuli/rescaled_final/0975_fw.mp4	0.0	250.98275685310364	2.5005300045013428
43	203.04711985588074	pulse	1	t		41.0	2.5	/experiments/knapen_AOT/AOT_stimuli/rescaled_final/0975_fw.mp4	0.0	252.16666078567505	
43	204.36374592781067	fix_post	2		12	41.0	2.5	/experiments/knapen_AOT/AOT_stimuli/rescaled_final/0975_fw.mp4	0.0	253.48328685760498	0.09988903999328613
44	204.46363496780396	fix_pre	0		120	42.0	2.5	/experiments/knapen_AOT/AOT_stimuli/rescaled_final/0192_rv.mp4	0.0	253.58317589759827	1.0002210140228271
44	204.64733600616455	pulse	0	t		42.0	2.5	/experiments/knapen_AOT/AOT_stimuli/rescaled_final/0192_rv.mp4	0.0	253.76687693595886	
44	205.46385598182678	movie	1		244	42.0	2.5	/experiments/knapen_AOT/AOT_stimuli/rescaled_final/0192_rv.mp4	0.0	254.5833969116211	2.5003228187561035
44	206.24745082855225	pulse	1	t		42.0	2.5	/experiments/knapen_AOT/AOT_stimuli/rescaled_final/0192_rv.mp4	0.0	255.36699175834656	
44	207.84769701957703	pulse	1	t		42.0	2.5	/experiments/knapen_AOT/AOT_stimuli/rescaled_final/0192_rv.mp4	0.0	256.96723794937134	
44	207.96417880058289	fix_post	2		12	42.0	2.5	/experiments/knapen_AOT/AOT_stimuli/rescaled_final/0192_rv.mp4	0.0	257.0837197303772	0.09999418258666992
45	208.06417298316956	fix_pre	0		119	43.0	2.5	/experiments/knapen_AOT/AOT_stimuli/rescaled_final/1709_rv.mp4	0.0	257.18371391296387	0.9918220043182373
45	209.0559949874878	movie	1		242	43.0	2.5	/experiments/knapen_AOT/AOT_stimuli/rescaled_final/1709_rv.mp4	0.0	258.1755359172821	2.5004358291625977
45	209.4480288028717	pulse	1	t		43.0	2.5	/experiments/knapen_AOT/AOT_stimuli/rescaled_final/1709_rv.mp4	0.0	258.567569732666	
45	211.04824090003967	pulse	1	t		43.0	2.5	/experiments/knapen_AOT/AOT_stimuli/rescaled_final/1709_rv.mp4	0.0	260.167781829834	
45	211.5564308166504	fix_post	2		12	43.0	2.5	/experiments/knapen_AOT/AOT_stimuli/rescaled_final/1709_rv.mp4	0.0	260.6759717464447	0.09991002082824707
46	211.65634083747864	fix_pre	0		120	44.0	2.5	/experiments/knapen_AOT/AOT_stimuli/rescaled_final/0489_rv.mp4	0.0	260.77588176727295	1.0002169609069824
46	212.6484489440918	pulse	0	t		44.0	2.5	/experiments/knapen_AOT/AOT_stimuli/rescaled_final/0489_rv.mp4	0.0	261.7679898738861	
46	212.65655779838562	movie	1		244	44.0	2.5	/experiments/knapen_AOT/AOT_stimuli/rescaled_final/0489_rv.mp4	0.0	261.77609872817993	2.5086450576782227
46	214.24918794631958	pulse	1	t		44.0	2.5	/experiments/knapen_AOT/AOT_stimuli/rescaled_final/0489_rv.mp4	0.0	263.3687288761139	
46	215.16520285606384	fix_post	2		12	44.0	2.5	/experiments/knapen_AOT/AOT_stimuli/rescaled_final/0489_rv.mp4	0.0	264.28474378585815	0.10006403923034668
47	215.2652668952942	fix_pre	0		120	45.0	2.5	/experiments/knapen_AOT/AOT_stimuli/rescaled_final/0716_fw.mp4	0.0	264.3848078250885	1.000143051147461
47	215.84895086288452	pulse	0	t		45.0	2.5	/experiments/knapen_AOT/AOT_stimuli/rescaled_final/0716_fw.mp4	0.0	264.96849179267883	
47	216.26540994644165	movie	1		242	45.0	2.5	/experiments/knapen_AOT/AOT_stimuli/rescaled_final/0716_fw.mp4	0.0	265.38495087623596	2.500493049621582
47	217.44929385185242	pulse	1	t		45.0	2.5	/experiments/knapen_AOT/AOT_stimuli/rescaled_final/0716_fw.mp4	0.0	266.56883478164673	
47	218.76590299606323	fix_post	2		12	45.0	2.5	/experiments/knapen_AOT/AOT_stimuli/rescaled_final/0716_fw.mp4	0.0	267.88544392585754	0.09991288185119629
48	218.86581587791443	fix_pre	0		120	46.0	2.5	/experiments/knapen_AOT/AOT_stimuli/rescaled_final/1983_rv.mp4	0.0	267.98535680770874	1.0001099109649658
48	219.04934287071228	pulse	0	t		46.0	2.5	/experiments/knapen_AOT/AOT_stimuli/rescaled_final/1983_rv.mp4	0.0	268.1688838005066	
48	219.8659257888794	movie	1		246	46.0	2.5	/experiments/knapen_AOT/AOT_stimuli/rescaled_final/1983_rv.mp4	0.0	268.9854667186737	2.500397205352783
48	220.64956998825073	pulse	1	t		46.0	2.5	/experiments/knapen_AOT/AOT_stimuli/rescaled_final/1983_rv.mp4	0.0	269.76911091804504	
48	222.24997782707214	pulse	1	t		46.0	2.5	/experiments/knapen_AOT/AOT_stimuli/rescaled_final/1983_rv.mp4	0.0	271.36951875686646	
48	222.36632299423218	fix_post	2		12	46.0	2.5	/experiments/knapen_AOT/AOT_stimuli/rescaled_final/1983_rv.mp4	0.0	271.4858639240265	0.09998202323913574
49	222.4663050174713	fix_pre	0		120	47.0	2.5	blank	1.0	271.5858459472656	1.0001399517059326
49	223.46644496917725	movie	1		299	47.0	2.5	blank	1.0	272.58598589897156	2.4920480251312256
49	223.85010290145874	pulse	1	t		47.0	2.5	blank	1.0	272.96964383125305	
49	225.45030689239502	pulse	1	t		47.0	2.5	blank	1.0	274.56984782218933	
49	225.95849299430847	fix_post	2		12	47.0	2.5	blank	1.0	275.0780339241028	0.1000368595123291
50	226.0585298538208	fix_pre	0		120	48.0	2.5	/experiments/knapen_AOT/AOT_stimuli/rescaled_final/0103_fw.mp4	0.0	275.1780707836151	1.0002360343933105
50	227.0504629611969	pulse	0	t		48.0	2.5	/experiments/knapen_AOT/AOT_stimuli/rescaled_final/0103_fw.mp4	0.0	276.1700038909912	
50	227.0587658882141	movie	1		243	48.0	2.5	/experiments/knapen_AOT/AOT_stimuli/rescaled_final/0103_fw.mp4	0.0	276.1783068180084	2.508592128753662
50	228.65514087677002	pulse	1	t		48.0	2.5	/experiments/knapen_AOT/AOT_stimuli/rescaled_final/0103_fw.mp4	0.0	277.77468180656433	
50	229.56735801696777	fix_post	2		12	48.0	2.5	/experiments/knapen_AOT/AOT_stimuli/rescaled_final/0103_fw.mp4	0.0	278.6868989467621	0.10002589225769043
51	229.66738390922546	fix_pre	0		117	49.0	2.5	/experiments/knapen_AOT/AOT_stimuli/rescaled_final/0235_fw.mp4	0.0	278.7869248390198	1.0001180171966553
51	230.2509708404541	pulse	0	t		49.0	2.5	/experiments/knapen_AOT/AOT_stimuli/rescaled_final/0235_fw.mp4	0.0	279.3705117702484	
51	230.66750192642212	movie	1		244	49.0	2.5	/experiments/knapen_AOT/AOT_stimuli/rescaled_final/0235_fw.mp4	0.0	279.78704285621643	2.500391960144043
51	231.84698700904846	pulse	1	t		49.0	2.5	/experiments/knapen_AOT/AOT_stimuli/rescaled_final/0235_fw.mp4	0.0	280.9665279388428	
51	233.16789388656616	fix_post	2		12	49.0	2.5	/experiments/knapen_AOT/AOT_stimuli/rescaled_final/0235_fw.mp4	0.0	282.2874348163605	0.10008096694946289
52	233.26797485351562	fix_pre	0		120	50.0	2.5	/experiments/knapen_AOT/AOT_stimuli/rescaled_final/0208_rv.mp4	0.0	282.38751578330994	1.0001051425933838
52	233.45146489143372	pulse	0	t		50.0	2.5	/experiments/knapen_AOT/AOT_stimuli/rescaled_final/0208_rv.mp4	0.0	282.571005821228	
52	234.268079996109	movie	1		243	50.0	2.5	/experiments/knapen_AOT/AOT_stimuli/rescaled_final/0208_rv.mp4	0.0	283.3876209259033	2.5004498958587646
52	235.0443069934845	pulse	1	t		50.0	2.5	/experiments/knapen_AOT/AOT_stimuli/rescaled_final/0208_rv.mp4	0.0	284.1638479232788	
52	236.65192580223083	pulse	1	t		50.0	2.5	/experiments/knapen_AOT/AOT_stimuli/rescaled_final/0208_rv.mp4	0.0	285.77146673202515	
52	236.76852989196777	fix_post	2		12	50.0	2.5	/experiments/knapen_AOT/AOT_stimuli/rescaled_final/0208_rv.mp4	0.0	285.8880708217621	0.09998297691345215
53	236.86851286888123	fix_pre	0		119	51.0	2.5	/experiments/knapen_AOT/AOT_stimuli/rescaled_final/0868_fw.mp4	0.0	285.98805379867554	0.9917490482330322
53	237.86026191711426	movie	1		243	51.0	2.5	/experiments/knapen_AOT/AOT_stimuli/rescaled_final/0868_fw.mp4	0.0	286.97980284690857	2.5004708766937256
53	238.24445486068726	pulse	1	t		51.0	2.5	/experiments/knapen_AOT/AOT_stimuli/rescaled_final/0868_fw.mp4	0.0	287.36399579048157	
53	239.8450539112091	pulse	1	t		51.0	2.5	/experiments/knapen_AOT/AOT_stimuli/rescaled_final/0868_fw.mp4	0.0	288.9645948410034	
53	240.36073279380798	fix_post	2		12	51.0	2.5	/experiments/knapen_AOT/AOT_stimuli/rescaled_final/0868_fw.mp4	0.0	289.4802737236023	0.09993314743041992
54	240.4606659412384	fix_pre	0		120	52.0	2.5	/experiments/knapen_AOT/AOT_stimuli/rescaled_final/0651_rv.mp4	0.0	289.5802068710327	1.0002079010009766
54	241.4451048374176	pulse	0	t		52.0	2.5	/experiments/knapen_AOT/AOT_stimuli/rescaled_final/0651_rv.mp4	0.0	290.5646457672119	
54	241.46087384223938	movie	1		243	52.0	2.5	/experiments/knapen_AOT/AOT_stimuli/rescaled_final/0651_rv.mp4	0.0	290.5804147720337	2.508664131164551
54	243.04452896118164	pulse	1	t		52.0	2.5	/experiments/knapen_AOT/AOT_stimuli/rescaled_final/0651_rv.mp4	0.0	292.16406989097595	
54	243.96953797340393	fix_post	2		12	52.0	2.5	/experiments/knapen_AOT/AOT_stimuli/rescaled_final/0651_rv.mp4	0.0	293.08907890319824	0.10004997253417969
55	244.0695879459381	fix_pre	0		120	53.0	2.5	/experiments/knapen_AOT/AOT_stimuli/rescaled_final/1889_fw.mp4	0.0	293.1891288757324	1.0001089572906494
55	244.64476585388184	pulse	0	t		53.0	2.5	/experiments/knapen_AOT/AOT_stimuli/rescaled_final/1889_fw.mp4	0.0	293.76430678367615	
55	245.06969690322876	movie	1		243	53.0	2.5	/experiments/knapen_AOT/AOT_stimuli/rescaled_final/1889_fw.mp4	0.0	294.18923783302307	2.500396966934204
55	246.24614191055298	pulse	1	t		53.0	2.5	/experiments/knapen_AOT/AOT_stimuli/rescaled_final/1889_fw.mp4	0.0	295.3656828403473	
55	247.57009387016296	fix_post	2		12	53.0	2.5	/experiments/knapen_AOT/AOT_stimuli/rescaled_final/1889_fw.mp4	0.0	296.6896347999573	0.10005307197570801
56	247.67014694213867	fix_pre	0		120	54.0	2.5	/experiments/knapen_AOT/AOT_stimuli/rescaled_final/2174_rv.mp4	0.0	296.789687871933	1.0000660419464111
56	247.84530401229858	pulse	0	t		54.0	2.5	/experiments/knapen_AOT/AOT_stimuli/rescaled_final/2174_rv.mp4	0.0	296.9648449420929	
56	248.67021298408508	movie	1		243	54.0	2.5	/experiments/knapen_AOT/AOT_stimuli/rescaled_final/2174_rv.mp4	0.0	297.7897539138794	2.5004968643188477
56	249.44548392295837	pulse	1	t		54.0	2.5	/experiments/knapen_AOT/AOT_stimuli/rescaled_final/2174_rv.mp4	0.0	298.5650248527527	
56	251.0457808971405	pulse	1	t		54.0	2.5	/experiments/knapen_AOT/AOT_stimuli/rescaled_final/2174_rv.mp4	0.0	300.1653218269348	
56	251.17070984840393	fix_post	2		12	54.0	2.5	/experiments/knapen_AOT/AOT_stimuli/rescaled_final/2174_rv.mp4	0.0	300.29025077819824	0.09989809989929199
57	251.27060794830322	fix_pre	0		119	55.0	2.5	blank	1.0	300.39014887809753	0.9918110370635986
57	252.26241898536682	movie	1		300	55.0	2.5	blank	1.0	301.38195991516113	2.500398874282837
57	252.64597296714783	pulse	1	t		55.0	2.5	blank	1.0	301.76551389694214	
57	254.24622297286987	pulse	1	t		55.0	2.5	blank	1.0	303.3657639026642	
57	254.76281785964966	fix_post	2		12	55.0	2.5	blank	1.0	303.88235878944397	0.10000205039978027
58	254.86281991004944	fix_pre	0		119	56.0	2.5	/experiments/knapen_AOT/AOT_stimuli/rescaled_final/2134_fw.mp4	0.0	303.98236083984375	0.9917960166931152
58	255.84642100334167	pulse	0	t		56.0	2.5	/experiments/knapen_AOT/AOT_stimuli/rescaled_final/2134_fw.mp4	0.0	304.965961933136	
58	255.85461592674255	movie	1		244	56.0	2.5	/experiments/knapen_AOT/AOT_stimuli/rescaled_final/2134_fw.mp4	0.0	304.97415685653687	2.508708953857422
58	257.44735884666443	pulse	1	t		56.0	2.5	/experiments/knapen_AOT/AOT_stimuli/rescaled_final/2134_fw.mp4	0.0	306.56689977645874	
58	258.3633248806	fix_post	2		12	56.0	2.5	/experiments/knapen_AOT/AOT_stimuli/rescaled_final/2134_fw.mp4	0.0	307.4828658103943	0.0999901294708252
59	258.4633150100708	fix_pre	0		120	57.0	2.5	/experiments/knapen_AOT/AOT_stimuli/rescaled_final/0176_fw.mp4	0.0	307.5828559398651	1.00016188621521
59	259.0469319820404	pulse	0	t		57.0	2.5	/experiments/knapen_AOT/AOT_stimuli/rescaled_final/0176_fw.mp4	0.0	308.1664729118347	
59	259.463476896286	movie	1		242	57.0	2.5	/experiments/knapen_AOT/AOT_stimuli/rescaled_final/0176_fw.mp4	0.0	308.5830178260803	2.500499963760376
59	260.6472239494324	pulse	1	t		57.0	2.5	/experiments/knapen_AOT/AOT_stimuli/rescaled_final/0176_fw.mp4	0.0	309.7667648792267	
59	261.9639768600464	fix_post	2		12	57.0	2.5	/experiments/knapen_AOT/AOT_stimuli/rescaled_final/0176_fw.mp4	0.0	311.0835177898407	0.09989213943481445
60	262.0638689994812	fix_pre	0		120	58.0	2.5	/experiments/knapen_AOT/AOT_stimuli/rescaled_final/1713_rv.mp4	0.0	311.1834099292755	1.0001699924468994
60	262.2473769187927	pulse	0	t		58.0	2.5	/experiments/knapen_AOT/AOT_stimuli/rescaled_final/1713_rv.mp4	0.0	311.36691784858704	
60	263.0640389919281	movie	1		243	58.0	2.5	/experiments/knapen_AOT/AOT_stimuli/rescaled_final/1713_rv.mp4	0.0	312.1835799217224	2.5003678798675537
60	263.84793186187744	pulse	1	t		58.0	2.5	/experiments/knapen_AOT/AOT_stimuli/rescaled_final/1713_rv.mp4	0.0	312.96747279167175	
60	265.447646856308	pulse	1	t		58.0	2.5	/experiments/knapen_AOT/AOT_stimuli/rescaled_final/1713_rv.mp4	0.0	314.5671877861023	
60	265.56440687179565	fix_post	2		12	58.0	2.5	/experiments/knapen_AOT/AOT_stimuli/rescaled_final/1713_rv.mp4	0.0	314.68394780158997	0.10009312629699707
61	265.66449999809265	fix_pre	0		120	59.0	2.5	/experiments/knapen_AOT/AOT_stimuli/rescaled_final/0032_fw.mp4	0.0	314.78404092788696	1.0000958442687988
61	266.66459584236145	movie	1		242	59.0	2.5	/experiments/knapen_AOT/AOT_stimuli/rescaled_final/0032_fw.mp4	0.0	315.78413677215576	2.492166042327881
61	267.0486698150635	pulse	1	t		59.0	2.5	/experiments/knapen_AOT/AOT_stimuli/rescaled_final/0032_fw.mp4	0.0	316.1682107448578	
61	268.64831590652466	pulse	1	t		59.0	2.5	/experiments/knapen_AOT/AOT_stimuli/rescaled_final/0032_fw.mp4	0.0	317.76785683631897	
61	269.15676188468933	fix_post	2		12	59.0	2.5	/experiments/knapen_AOT/AOT_stimuli/rescaled_final/0032_fw.mp4	0.0	318.27630281448364	0.099822998046875
62	269.2565848827362	fix_pre	0		120	60.0	2.5	/experiments/knapen_AOT/AOT_stimuli/rescaled_final/0392_rv.mp4	0.0	318.3761258125305	1.000204086303711
62	270.24855184555054	pulse	0	t		60.0	2.5	/experiments/knapen_AOT/AOT_stimuli/rescaled_final/0392_rv.mp4	0.0	319.36809277534485	
62	270.2567889690399	movie	1		243	60.0	2.5	/experiments/knapen_AOT/AOT_stimuli/rescaled_final/0392_rv.mp4	0.0	319.37632989883423	2.508678913116455
62	271.8494780063629	pulse	1	t		60.0	2.5	/experiments/knapen_AOT/AOT_stimuli/rescaled_final/0392_rv.mp4	0.0	320.9690189361572	
62	272.7654678821564	fix_post	2		12	60.0	2.5	/experiments/knapen_AOT/AOT_stimuli/rescaled_final/0392_rv.mp4	0.0	321.8850088119507	0.10005402565002441
63	272.8655219078064	fix_pre	0		120	61.0	2.5	/experiments/knapen_AOT/AOT_stimuli/rescaled_final/1320_rv.mp4	0.0	321.9850628376007	1.000108003616333
63	273.44916892051697	pulse	0	t		61.0	2.5	/experiments/knapen_AOT/AOT_stimuli/rescaled_final/1320_rv.mp4	0.0	322.5687098503113	
63	273.86562991142273	movie	1		243	61.0	2.5	/experiments/knapen_AOT/AOT_stimuli/rescaled_final/1320_rv.mp4	0.0	322.98517084121704	2.5005428791046143
63	275.04532980918884	pulse	1	t		61.0	2.5	/experiments/knapen_AOT/AOT_stimuli/rescaled_final/1320_rv.mp4	0.0	324.16487073898315	
63	276.36617279052734	fix_post	2		12	61.0	2.5	/experiments/knapen_AOT/AOT_stimuli/rescaled_final/1320_rv.mp4	0.0	325.48571372032166	0.09988021850585938
64	276.4660530090332	fix_pre	0		120	62.0	2.5	blank	1.0	325.5855939388275	1.0001709461212158
64	276.6496160030365	pulse	0	t		62.0	2.5	blank	1.0	325.7691569328308	
64	277.4662239551544	movie	1		300	62.0	2.5	blank	1.0	326.58576488494873	2.5003018379211426
64	278.2499577999115	pulse	1	t		62.0	2.5	blank	1.0	327.3694987297058	
64	279.8501579761505	pulse	1	t		62.0	2.5	blank	1.0	328.9696989059448	
64	279.96652579307556	fix_post	2		12	62.0	2.5	blank	1.0	329.0860667228699	0.10011720657348633
65	280.06664299964905	fix_pre	0		120	63.0	2.5	/experiments/knapen_AOT/AOT_stimuli/rescaled_final/0260_rv.mp4	0.0	329.18618392944336	1.0000879764556885
65	281.06673097610474	movie	1		243	63.0	2.5	/experiments/knapen_AOT/AOT_stimuli/rescaled_final/0260_rv.mp4	0.0	330.18627190589905	2.4920289516448975
65	281.45132994651794	pulse	1	t		63.0	2.5	/experiments/knapen_AOT/AOT_stimuli/rescaled_final/0260_rv.mp4	0.0	330.57087087631226	
65	283.0505909919739	pulse	1	t		63.0	2.5	/experiments/knapen_AOT/AOT_stimuli/rescaled_final/0260_rv.mp4	0.0	332.1701319217682	
65	283.55875992774963	fix_post	2		12	63.0	2.5	/experiments/knapen_AOT/AOT_stimuli/rescaled_final/0260_rv.mp4	0.0	332.67830085754395	0.10006308555603027
66	283.65882301330566	fix_pre	0		120	64.0	2.5	/experiments/knapen_AOT/AOT_stimuli/rescaled_final/1970_rv.mp4	0.0	332.7783639431	1.0001897811889648
66	284.65084886550903	pulse	0	t		64.0	2.5	/experiments/knapen_AOT/AOT_stimuli/rescaled_final/1970_rv.mp4	0.0	333.77038979530334	
66	284.65901279449463	movie	1		244	64.0	2.5	/experiments/knapen_AOT/AOT_stimuli/rescaled_final/1970_rv.mp4	0.0	333.77855372428894	2.5086050033569336
66	286.25489592552185	pulse	1	t		64.0	2.5	/experiments/knapen_AOT/AOT_stimuli/rescaled_final/1970_rv.mp4	0.0	335.37443685531616	
66	287.16761779785156	fix_post	2		12	64.0	2.5	/experiments/knapen_AOT/AOT_stimuli/rescaled_final/1970_rv.mp4	0.0	336.2871587276459	0.10005402565002441
67	287.2676718235016	fix_pre	0		120	65.0	2.5	/experiments/knapen_AOT/AOT_stimuli/rescaled_final/0093_rv.mp4	0.0	336.3872127532959	1.0001111030578613
67	287.8512740135193	pulse	0	t		65.0	2.5	/experiments/knapen_AOT/AOT_stimuli/rescaled_final/0093_rv.mp4	0.0	336.9708149433136	
67	288.26778292655945	movie	1		243	65.0	2.5	/experiments/knapen_AOT/AOT_stimuli/rescaled_final/0093_rv.mp4	0.0	337.38732385635376	2.5003650188446045
67	289.4515058994293	pulse	1	t		65.0	2.5	/experiments/knapen_AOT/AOT_stimuli/rescaled_final/0093_rv.mp4	0.0	338.57104682922363	
67	290.76814794540405	fix_post	2		9	65.0	2.5	/experiments/knapen_AOT/AOT_stimuli/rescaled_final/0093_rv.mp4	0.0	339.88768887519836	0.10001802444458008
68	290.86816596984863	fix_pre	0		120	66.0	2.5	/experiments/knapen_AOT/AOT_stimuli/rescaled_final/0208_fw.mp4	0.0	339.98770689964294	1.0001769065856934
68	291.0519440174103	pulse	0	t		66.0	2.5	/experiments/knapen_AOT/AOT_stimuli/rescaled_final/0208_fw.mp4	0.0	340.1714849472046	
68	291.8683428764343	movie	1		244	66.0	2.5	/experiments/knapen_AOT/AOT_stimuli/rescaled_final/0208_fw.mp4	0.0	340.98788380622864	2.5003819465637207
68	292.65202498435974	pulse	1	t		66.0	2.5	/experiments/knapen_AOT/AOT_stimuli/rescaled_final/0208_fw.mp4	0.0	341.77156591415405	
68	294.2521798610687	pulse	1	t		66.0	2.5	/experiments/knapen_AOT/AOT_stimuli/rescaled_final/0208_fw.mp4	0.0	343.37172079086304	
68	294.36872482299805	fix_post	2		12	66.0	2.5	/experiments/knapen_AOT/AOT_stimuli/rescaled_final/0208_fw.mp4	0.0	343.48826575279236	0.100006103515625
69	294.4687309265137	fix_pre	0		120	67.0	2.5	/experiments/knapen_AOT/AOT_stimuli/rescaled_final/1282_rv.mp4	0.0	343.588271856308	1.0001909732818604
69	295.46892189979553	movie	1		242	67.0	2.5	/experiments/knapen_AOT/AOT_stimuli/rescaled_final/1282_rv.mp4	0.0	344.58846282958984	2.4919919967651367
69	295.8537449836731	pulse	1	t		67.0	2.5	/experiments/knapen_AOT/AOT_stimuli/rescaled_final/1282_rv.mp4	0.0	344.9732859134674	
69	297.44545102119446	pulse	1	t		67.0	2.5	/experiments/knapen_AOT/AOT_stimuli/rescaled_final/1282_rv.mp4	0.0	346.56499195098877	
69	297.96091389656067	fix_post	2		12	67.0	2.5	/experiments/knapen_AOT/AOT_stimuli/rescaled_final/1282_rv.mp4	0.0	347.080454826355	0.1000680923461914
70	298.06098198890686	fix_pre	0		120	68.0	2.5	blank	1.0	347.1805229187012	1.0002098083496094
70	299.0454559326172	pulse	0	t		68.0	2.5	blank	1.0	348.1649968624115	
70	299.06119179725647	movie	1		301	68.0	2.5	blank	1.0	348.1807327270508	2.50862717628479
70	300.64567494392395	pulse	1	t		68.0	2.5	blank	1.0	349.76521587371826	
70	301.56981897354126	fix_post	2		12	68.0	2.5	blank	1.0	350.68935990333557	0.0999460220336914
71	301.66976499557495	fix_pre	0		120	69.0	2.5	/experiments/knapen_AOT/AOT_stimuli/rescaled_final/0719_fw.mp4	0.0	350.78930592536926	1.0001678466796875
71	302.245808839798	pulse	0	t		69.0	2.5	/experiments/knapen_AOT/AOT_stimuli/rescaled_final/0719_fw.mp4	0.0	351.3653497695923	
71	302.66993284225464	movie	1		243	69.0	2.5	/experiments/knapen_AOT/AOT_stimuli/rescaled_final/0719_fw.mp4	0.0	351.78947377204895	2.5004351139068604
71	303.8458158969879	pulse	1	t		69.0	2.5	/experiments/knapen_AOT/AOT_stimuli/rescaled_final/0719_fw.mp4	0.0	352.9653568267822	
71	305.1703679561615	fix_post	2		12	69.0	2.5	/experiments/knapen_AOT/AOT_stimuli/rescaled_final/0719_fw.mp4	0.0	354.2899088859558	0.09994697570800781
72	305.2703149318695	fix_pre	0		120	70.0	2.5	/experiments/knapen_AOT/AOT_stimuli/rescaled_final/1718_rv.mp4	0.0	354.3898558616638	1.000204086303711
72	305.44548201560974	pulse	0	t		70.0	2.5	/experiments/knapen_AOT/AOT_stimuli/rescaled_final/1718_rv.mp4	0.0	354.56502294540405	
72	306.2705190181732	movie	1		243	70.0	2.5	/experiments/knapen_AOT/AOT_stimuli/rescaled_final/1718_rv.mp4	0.0	355.39005994796753	2.5003228187561035
72	307.04576802253723	pulse	1	t		70.0	2.5	/experiments/knapen_AOT/AOT_stimuli/rescaled_final/1718_rv.mp4	0.0	356.16530895233154	
72	308.64608788490295	pulse	1	t		70.0	2.5	/experiments/knapen_AOT/AOT_stimuli/rescaled_final/1718_rv.mp4	0.0	357.76562881469727	
72	308.7708418369293	fix_post	2		12	70.0	2.5	/experiments/knapen_AOT/AOT_stimuli/rescaled_final/1718_rv.mp4	0.0	357.89038276672363	0.1000680923461914
73	308.8709099292755	fix_pre	0		120	71.0	2.5	/experiments/knapen_AOT/AOT_stimuli/rescaled_final/0133_fw.mp4	0.0	357.9904508590698	1.000082015991211
73	309.8709919452667	movie	1		241	71.0	2.5	/experiments/knapen_AOT/AOT_stimuli/rescaled_final/0133_fw.mp4	0.0	358.99053287506104	2.4921929836273193
73	310.24621987342834	pulse	1	t		71.0	2.5	/experiments/knapen_AOT/AOT_stimuli/rescaled_final/0133_fw.mp4	0.0	359.36576080322266	
73	311.84658098220825	pulse	1	t		71.0	2.5	/experiments/knapen_AOT/AOT_stimuli/rescaled_final/0133_fw.mp4	0.0	360.96612191200256	
73	312.36318492889404	fix_post	2		12	71.0	2.5	/experiments/knapen_AOT/AOT_stimuli/rescaled_final/0133_fw.mp4	0.0	361.48272585868835	0.09985709190368652
74	312.46304202079773	fix_pre	0		119	72.0	2.5	/experiments/knapen_AOT/AOT_stimuli/rescaled_final/0559_fw.mp4	0.0	361.58258295059204	0.9918339252471924
74	313.4467468261719	pulse	0	t		72.0	2.5	/experiments/knapen_AOT/AOT_stimuli/rescaled_final/0559_fw.mp4	0.0	362.5662877559662	
74	313.4548759460449	movie	1		243	72.0	2.5	/experiments/knapen_AOT/AOT_stimuli/rescaled_final/0559_fw.mp4	0.0	362.57441687583923	2.508765935897827
74	315.04818987846375	pulse	1	t		72.0	2.5	/experiments/knapen_AOT/AOT_stimuli/rescaled_final/0559_fw.mp4	0.0	364.16773080825806	
74	315.96364188194275	fix_post	2		12	72.0	2.5	/experiments/knapen_AOT/AOT_stimuli/rescaled_final/0559_fw.mp4	0.0	365.08318281173706	0.09999203681945801
75	316.0636339187622	fix_pre	0		120	73.0	2.5	/experiments/knapen_AOT/AOT_stimuli/rescaled_final/0820_fw.mp4	0.0	365.1831748485565	1.0001399517059326
75	316.6473197937012	pulse	0	t		73.0	2.5	/experiments/knapen_AOT/AOT_stimuli/rescaled_final/0820_fw.mp4	0.0	365.7668607234955	
75	317.06377387046814	movie	1		242	73.0	2.5	/experiments/knapen_AOT/AOT_stimuli/rescaled_final/0820_fw.mp4	0.0	366.18331480026245	2.5004589557647705
75	318.24745202064514	pulse	1	t		73.0	2.5	/experiments/knapen_AOT/AOT_stimuli/rescaled_final/0820_fw.mp4	0.0	367.36699295043945	
75	319.5642328262329	fix_post	2		12	73.0	2.5	/experiments/knapen_AOT/AOT_stimuli/rescaled_final/0820_fw.mp4	0.0	368.6837737560272	0.09998011589050293
76	319.6642129421234	fix_pre	0		120	74.0	2.5	/experiments/knapen_AOT/AOT_stimuli/rescaled_final/0805_rv.mp4	0.0	368.7837538719177	1.0000619888305664
76	319.847687959671	pulse	0	t		74.0	2.5	/experiments/knapen_AOT/AOT_stimuli/rescaled_final/0805_rv.mp4	0.0	368.96722888946533	
76	320.664274930954	movie	1		243	74.0	2.5	/experiments/knapen_AOT/AOT_stimuli/rescaled_final/0805_rv.mp4	0.0	369.7838158607483	2.5005030632019043
76	321.44791197776794	pulse	1	t		74.0	2.5	/experiments/knapen_AOT/AOT_stimuli/rescaled_final/0805_rv.mp4	0.0	370.56745290756226	
76	323.0482409000397	pulse	1	t		74.0	2.5	/experiments/knapen_AOT/AOT_stimuli/rescaled_final/0805_rv.mp4	0.0	372.167781829834	
76	323.1647779941559	fix_post	2		12	74.0	2.5	/experiments/knapen_AOT/AOT_stimuli/rescaled_final/0805_rv.mp4	0.0	372.2843189239502	0.0999298095703125
77	323.2647078037262	fix_pre	0		120	75.0	2.5	/experiments/knapen_AOT/AOT_stimuli/rescaled_final/0141_rv.mp4	0.0	372.3842487335205	1.0000901222229004
77	324.2647979259491	movie	1		242	75.0	2.5	/experiments/knapen_AOT/AOT_stimuli/rescaled_final/0141_rv.mp4	0.0	373.3843388557434	2.4920129776000977
77	324.6497709751129	pulse	1	t		75.0	2.5	/experiments/knapen_AOT/AOT_stimuli/rescaled_final/0141_rv.mp4	0.0	373.7693119049072	
77	326.24861001968384	pulse	1	t		75.0	2.5	/experiments/knapen_AOT/AOT_stimuli/rescaled_final/0141_rv.mp4	0.0	375.36815094947815	
77	326.7568109035492	fix_post	2		12	75.0	2.5	/experiments/knapen_AOT/AOT_stimuli/rescaled_final/0141_rv.mp4	0.0	375.8763518333435	0.10015201568603516
78	326.85696291923523	fix_pre	0		120	76.0	2.5	/experiments/knapen_AOT/AOT_stimuli/rescaled_final/1828_rv.mp4	0.0	375.97650384902954	1.000114917755127
78	327.84891295433044	pulse	0	t		76.0	2.5	/experiments/knapen_AOT/AOT_stimuli/rescaled_final/1828_rv.mp4	0.0	376.96845388412476	
78	327.85707783699036	movie	1		244	76.0	2.5	/experiments/knapen_AOT/AOT_stimuli/rescaled_final/1828_rv.mp4	0.0	376.97661876678467	2.5086660385131836
78	329.45058393478394	pulse	1	t		76.0	2.5	/experiments/knapen_AOT/AOT_stimuli/rescaled_final/1828_rv.mp4	0.0	378.57012486457825	
78	330.36574387550354	fix_post	2		12	76.0	2.5	/experiments/knapen_AOT/AOT_stimuli/rescaled_final/1828_rv.mp4	0.0	379.48528480529785	0.10003995895385742
79	330.4657838344574	fix_pre	0		120	77.0	2.5	blank	1.0	379.5853247642517	1.000110149383545
79	331.04938292503357	pulse	0	t		77.0	2.5	blank	1.0	380.1689238548279	
79	331.46589398384094	movie	1		300	77.0	2.5	blank	1.0	380.58543491363525	2.5003600120544434
79	332.64959383010864	pulse	1	t		77.0	2.5	blank	1.0	381.76913475990295	
79	333.9662539958954	fix_post	2		12	77.0	2.5	blank	1.0	383.0857949256897	0.09999799728393555
80	334.0662519931793	fix_pre	0		120	78.0	2.5	/experiments/knapen_AOT/AOT_stimuli/rescaled_final/1211_rv.mp4	0.0	383.18579292297363	1.0002429485321045
80	334.2498137950897	pulse	0	t		78.0	2.5	/experiments/knapen_AOT/AOT_stimuli/rescaled_final/1211_rv.mp4	0.0	383.36935472488403	
80	335.0664949417114	movie	1		243	78.0	2.5	/experiments/knapen_AOT/AOT_stimuli/rescaled_final/1211_rv.mp4	0.0	384.18603587150574	2.5003769397735596
80	335.8501629829407	pulse	1	t		78.0	2.5	/experiments/knapen_AOT/AOT_stimuli/rescaled_final/1211_rv.mp4	0.0	384.969703912735	
80	337.4502069950104	pulse	1	t		78.0	2.5	/experiments/knapen_AOT/AOT_stimuli/rescaled_final/1211_rv.mp4	0.0	386.5697479248047	
80	337.566871881485	fix_post	2		12	78.0	2.5	/experiments/knapen_AOT/AOT_stimuli/rescaled_final/1211_rv.mp4	0.0	386.6864128112793	0.09995794296264648
81	337.66682982444763	fix_pre	0		120	79.0	2.5	/experiments/knapen_AOT/AOT_stimuli/rescaled_final/0247_fw.mp4	0.0	386.78637075424194	1.0001521110534668
81	338.6669819355011	movie	1		242	79.0	2.5	/experiments/knapen_AOT/AOT_stimuli/rescaled_final/0247_fw.mp4	0.0	387.7865228652954	2.492110013961792
81	339.05193185806274	pulse	1	t		79.0	2.5	/experiments/knapen_AOT/AOT_stimuli/rescaled_final/0247_fw.mp4	0.0	388.17147278785706	
81	340.6508870124817	pulse	1	t		79.0	2.5	/experiments/knapen_AOT/AOT_stimuli/rescaled_final/0247_fw.mp4	0.0	389.770427942276	
81	341.1590919494629	fix_post	2		12	79.0	2.5	/experiments/knapen_AOT/AOT_stimuli/rescaled_final/0247_fw.mp4	0.0	390.2786328792572	0.09994292259216309
82	341.25903487205505	fix_pre	0		120	80.0	2.5	/experiments/knapen_AOT/AOT_stimuli/rescaled_final/2152_fw.mp4	0.0	390.37857580184937	1.0001189708709717
82	342.2510869503021	pulse	0	t		80.0	2.5	/experiments/knapen_AOT/AOT_stimuli/rescaled_final/2152_fw.mp4	0.0	391.37062788009644	
82	342.259153842926	movie	1		243	80.0	2.5	/experiments/knapen_AOT/AOT_stimuli/rescaled_final/2152_fw.mp4	0.0	391.37869477272034	2.5087380409240723
82	343.85258984565735	pulse	1	t		80.0	2.5	/experiments/knapen_AOT/AOT_stimuli/rescaled_final/2152_fw.mp4	0.0	392.97213077545166	
82	344.7678918838501	fix_post	2		12	80.0	2.5	/experiments/knapen_AOT/AOT_stimuli/rescaled_final/2152_fw.mp4	0.0	393.8874328136444	0.09999895095825195
83	344.86789083480835	fix_pre	0		120	81.0	2.5	/experiments/knapen_AOT/AOT_stimuli/rescaled_final/2134_fw.mp4	0.0	393.98743176460266	1.0001499652862549
83	345.4514548778534	pulse	0	t		81.0	2.5	/experiments/knapen_AOT/AOT_stimuli/rescaled_final/2134_fw.mp4	0.0	394.5709958076477	
83	345.8680408000946	movie	1		243	81.0	2.5	/experiments/knapen_AOT/AOT_stimuli/rescaled_final/2134_fw.mp4	0.0	394.9875817298889	2.5004701614379883
83	347.0518319606781	pulse	1	t		81.0	2.5	/experiments/knapen_AOT/AOT_stimuli/rescaled_final/2134_fw.mp4	0.0	396.1713728904724	
83	348.3685109615326	fix_post	2		12	81.0	2.5	/experiments/knapen_AOT/AOT_stimuli/rescaled_final/2134_fw.mp4	0.0	397.4880518913269	0.09992790222167969
84	348.4684388637543	fix_pre	0		117	82.0	2.5	/experiments/knapen_AOT/AOT_stimuli/rescaled_final/0487_rv.mp4	0.0	397.5879797935486	1.0001680850982666
84	348.65200996398926	pulse	0	t		82.0	2.5	/experiments/knapen_AOT/AOT_stimuli/rescaled_final/0487_rv.mp4	0.0	397.77155089378357	
84	349.46860694885254	movie	1		244	82.0	2.5	/experiments/knapen_AOT/AOT_stimuli/rescaled_final/0487_rv.mp4	0.0	398.58814787864685	2.500309944152832
84	350.2447648048401	pulse	1	t		82.0	2.5	/experiments/knapen_AOT/AOT_stimuli/rescaled_final/0487_rv.mp4	0.0	399.3643057346344	
84	351.85267901420593	pulse	1	t		82.0	2.5	/experiments/knapen_AOT/AOT_stimuli/rescaled_final/0487_rv.mp4	0.0	400.97221994400024	
84	351.96891689300537	fix_post	2		12	82.0	2.5	/experiments/knapen_AOT/AOT_stimuli/rescaled_final/0487_rv.mp4	0.0	401.0884578227997	0.10003900527954102
85	352.0689558982849	fix_pre	0		120	83.0	2.5	blank	1.0	401.1884968280792	1.0001580715179443
85	353.06911396980286	movie	1		299	83.0	2.5	blank	1.0	402.18865489959717	2.492015838623047
85	353.44516682624817	pulse	1	t		83.0	2.5	blank	1.0	402.5647077560425	
85	355.04538798332214	pulse	1	t		83.0	2.5	blank	1.0	404.16492891311646	
85	355.5611298084259	fix_post	2		12	83.0	2.5	blank	1.0	404.6806707382202	0.1000211238861084
87	355.661150932312	stim	0		1716					404.7806918621063	14.302119970321655
87	356.64497590065	pulse	0	t						405.76451683044434	
87	358.24497985839844	pulse	0	t						407.36452078819275	
87	359.84521484375	pulse	0	t						408.9647557735443	
87	361.4455180168152	pulse	0	t						410.5650589466095	
87	363.0458228588104	pulse	0	t						412.16536378860474	
87	364.646036863327	pulse	0	t						413.76557779312134	
87	366.2462148666382	pulse	0	t						415.3657557964325	
87	367.8464047908783	pulse	0	t						416.9659457206726	
87	369.4467589855194	pulse	0	t						418.5662999153137	
