trial_nr	onset	event_type	phase	response	nr_frames	movie_index	movie_duration	movie_file	blank	onset_abs	duration
0	0.1583549976348877	stim	0		131					24.465423107147217	1.0916428565979004
0	1.24202299118042	response	0	space						25.54909110069275	
1	1.249997854232788	stim	0		12654					25.557065963745117	105.44948315620422
1	106.69272899627686	pulse	0	t						130.99979710578918	
1	106.69948101043701	stim	1		1717					131.00654911994934	14.308390855789185
1	108.29142189025879	pulse	1	t						132.59848999977112	
1	109.8913140296936	pulse	1	t						134.19838213920593	
1	111.4913158416748	pulse	1	t						135.79838395118713	
1	113.0913188457489	pulse	1	t						137.39838695526123	
1	114.6912989616394	pulse	1	t						138.99836707115173	
1	116.2912950515747	pulse	1	t						140.59836316108704	
1	117.89134192466736	pulse	1	t						142.1984100341797	
1	119.49140095710754	pulse	1	t						143.79846906661987	
2	121.0078718662262	fix_pre	0		11	0.0	2.5	/experiments/AOT/AOT_stimuli/rescaled_final/1463_rv.mp4	0.0	145.31493997573853	0.09159612655639648
2	121.0912709236145	pulse	0	t		0.0	2.5	/experiments/AOT/AOT_stimuli/rescaled_final/1463_rv.mp4	0.0	145.39833903312683	
2	121.09946799278259	movie	1		241	0.0	2.5	/experiments/AOT/AOT_stimuli/rescaled_final/1463_rv.mp4	0.0	145.40653610229492	2.508370876312256
2	122.6910560131073	pulse	1	t		0.0	2.5	/experiments/AOT/AOT_stimuli/rescaled_final/1463_rv.mp4	0.0	146.99812412261963	
2	123.60783886909485	fix_post	2		12	0.0	2.5	/experiments/AOT/AOT_stimuli/rescaled_final/1463_rv.mp4	0.0	147.91490697860718	0.10002708435058594
3	123.70786595344543	fix_pre	0		120	1.0	2.5	/experiments/AOT/AOT_stimuli/rescaled_final/1316_fw.mp4	0.0	148.01493406295776	0.999891996383667
3	124.29131484031677	pulse	0	t		1.0	2.5	/experiments/AOT/AOT_stimuli/rescaled_final/1316_fw.mp4	0.0	148.5983829498291	
3	124.7077579498291	movie	1		243	1.0	2.5	/experiments/AOT/AOT_stimuli/rescaled_final/1316_fw.mp4	0.0	149.01482605934143	2.5000269412994385
3	125.89138388633728	pulse	1	t		1.0	2.5	/experiments/AOT/AOT_stimuli/rescaled_final/1316_fw.mp4	0.0	150.1984519958496	
3	127.20778489112854	fix_post	2		12	1.0	2.5	/experiments/AOT/AOT_stimuli/rescaled_final/1316_fw.mp4	0.0	151.51485300064087	0.09996914863586426
4	127.3077540397644	fix_pre	0		118	2.0	2.5	/experiments/AOT/AOT_stimuli/rescaled_final/1992_fw.mp4	0.0	151.61482214927673	1.0000219345092773
4	127.4912269115448	pulse	0	t		2.0	2.5	/experiments/AOT/AOT_stimuli/rescaled_final/1992_fw.mp4	0.0	151.79829502105713	
4	128.30777597427368	movie	1		244	2.0	2.5	/experiments/AOT/AOT_stimuli/rescaled_final/1992_fw.mp4	0.0	152.614844083786	2.4999568462371826
4	129.09126091003418	pulse	1	t		2.0	2.5	/experiments/AOT/AOT_stimuli/rescaled_final/1992_fw.mp4	0.0	153.3983290195465	
4	130.6896460056305	pulse	1	t		2.0	2.5	/experiments/AOT/AOT_stimuli/rescaled_final/1992_fw.mp4	0.0	154.99671411514282	
4	130.80773282051086	fix_post	2		12	2.0	2.5	/experiments/AOT/AOT_stimuli/rescaled_final/1992_fw.mp4	0.0	155.1148009300232	0.10003018379211426
5	130.90776300430298	fix_pre	0		120	3.0	2.5	/experiments/AOT/AOT_stimuli/rescaled_final/1663_rv.mp4	0.0	155.2148311138153	1.0000100135803223
5	131.9077730178833	movie	1		243	3.0	2.5	/experiments/AOT/AOT_stimuli/rescaled_final/1663_rv.mp4	0.0	156.21484112739563	2.4995269775390625
5	132.29120588302612	pulse	1	t		3.0	2.5	/experiments/AOT/AOT_stimuli/rescaled_final/1663_rv.mp4	0.0	156.59827399253845	
5	133.89124298095703	pulse	1	t		3.0	2.5	/experiments/AOT/AOT_stimuli/rescaled_final/1663_rv.mp4	0.0	158.19831109046936	
5	134.40729999542236	fix_post	2		12	3.0	2.5	/experiments/AOT/AOT_stimuli/rescaled_final/1663_rv.mp4	0.0	158.7143681049347	0.10053491592407227
6	134.50783491134644	fix_pre	0		119	4.0	2.5	/experiments/AOT/AOT_stimuli/rescaled_final/0221_fw.mp4	0.0	158.81490302085876	0.9915211200714111
6	135.49125695228577	pulse	0	t		4.0	2.5	/experiments/AOT/AOT_stimuli/rescaled_final/0221_fw.mp4	0.0	159.7983250617981	
6	135.49935603141785	movie	1		244	4.0	2.5	/experiments/AOT/AOT_stimuli/rescaled_final/0221_fw.mp4	0.0	159.80642414093018	2.5083489418029785
6	137.09131598472595	pulse	1	t		4.0	2.5	/experiments/AOT/AOT_stimuli/rescaled_final/0221_fw.mp4	0.0	161.39838409423828	
6	138.00770497322083	fix_post	2		12	4.0	2.5	/experiments/AOT/AOT_stimuli/rescaled_final/0221_fw.mp4	0.0	162.31477308273315	0.09993505477905273
7	138.10764002799988	fix_pre	0		120	5.0	2.5	blank	1.0	162.4147081375122	1.000067949295044
7	138.6911919116974	pulse	0	t		5.0	2.5	blank	1.0	162.99826002120972	
7	139.10770797729492	movie	1		300	5.0	2.5	blank	1.0	163.41477608680725	2.500040054321289
7	140.29127192497253	pulse	1	t		5.0	2.5	blank	1.0	164.59834003448486	
7	141.6077480316162	fix_post	2		12	5.0	2.5	blank	1.0	165.91481614112854	0.09987401962280273
8	141.707622051239	fix_pre	0		120	6.0	2.5	/experiments/AOT/AOT_stimuli/rescaled_final/0791_rv.mp4	0.0	166.01469016075134	1.0000989437103271
8	141.89126992225647	pulse	0	t		6.0	2.5	/experiments/AOT/AOT_stimuli/rescaled_final/0791_rv.mp4	0.0	166.1983380317688	
8	142.70772099494934	movie	1		244	6.0	2.5	/experiments/AOT/AOT_stimuli/rescaled_final/0791_rv.mp4	0.0	167.01478910446167	2.4996490478515625
8	143.49077701568604	pulse	1	t		6.0	2.5	/experiments/AOT/AOT_stimuli/rescaled_final/0791_rv.mp4	0.0	167.79784512519836	
8	145.08999800682068	pulse	1	t		6.0	2.5	/experiments/AOT/AOT_stimuli/rescaled_final/0791_rv.mp4	0.0	169.397066116333	
8	145.2073700428009	fix_post	2		12	6.0	2.5	/experiments/AOT/AOT_stimuli/rescaled_final/0791_rv.mp4	0.0	169.51443815231323	0.10010290145874023
9	145.30747294425964	fix_pre	0		120	7.0	2.5	/experiments/AOT/AOT_stimuli/rescaled_final/0557_rv.mp4	0.0	169.61454105377197	1.0001130104064941
9	146.30758595466614	movie	1		244	7.0	2.5	/experiments/AOT/AOT_stimuli/rescaled_final/0557_rv.mp4	0.0	170.61465406417847	2.500108003616333
9	146.6906599998474	pulse	1	t		7.0	2.5	/experiments/AOT/AOT_stimuli/rescaled_final/0557_rv.mp4	0.0	170.99772810935974	
9	148.29113388061523	pulse	1	t		7.0	2.5	/experiments/AOT/AOT_stimuli/rescaled_final/0557_rv.mp4	0.0	172.59820199012756	
9	148.80769395828247	fix_post	2		12	7.0	2.5	/experiments/AOT/AOT_stimuli/rescaled_final/0557_rv.mp4	0.0	173.1147620677948	0.09998393058776855
10	148.90767788887024	fix_pre	0		119	8.0	2.5	/experiments/AOT/AOT_stimuli/rescaled_final/1284_fw.mp4	0.0	173.21474599838257	0.9916329383850098
10	149.89120292663574	pulse	0	t		8.0	2.5	/experiments/AOT/AOT_stimuli/rescaled_final/1284_fw.mp4	0.0	174.19827103614807	
10	149.89931082725525	movie	1		245	8.0	2.5	/experiments/AOT/AOT_stimuli/rescaled_final/1284_fw.mp4	0.0	174.20637893676758	2.5082671642303467
10	151.490375995636	pulse	1	t		8.0	2.5	/experiments/AOT/AOT_stimuli/rescaled_final/1284_fw.mp4	0.0	175.79744410514832	
10	152.4075779914856	fix_post	2		12	8.0	2.5	/experiments/AOT/AOT_stimuli/rescaled_final/1284_fw.mp4	0.0	176.71464610099792	0.10003185272216797
11	152.50760984420776	fix_pre	0		120	9.0	2.5	/experiments/AOT/AOT_stimuli/rescaled_final/0266_fw.mp4	0.0	176.8146779537201	1.0000481605529785
11	153.09108686447144	pulse	0	t		9.0	2.5	/experiments/AOT/AOT_stimuli/rescaled_final/0266_fw.mp4	0.0	177.39815497398376	
11	153.50765800476074	movie	1		244	9.0	2.5	/experiments/AOT/AOT_stimuli/rescaled_final/0266_fw.mp4	0.0	177.81472611427307	2.500030994415283
11	154.6911289691925	pulse	1	t		9.0	2.5	/experiments/AOT/AOT_stimuli/rescaled_final/0266_fw.mp4	0.0	178.99819707870483	
11	156.00768899917603	fix_post	2		12	9.0	2.5	/experiments/AOT/AOT_stimuli/rescaled_final/0266_fw.mp4	0.0	180.31475710868835	0.09989595413208008
12	156.1075849533081	fix_pre	0		120	10.0	2.5	/experiments/AOT/AOT_stimuli/rescaled_final/1903_rv.mp4	0.0	180.41465306282043	1.0000600814819336
12	156.29109597206116	pulse	0	t		10.0	2.5	/experiments/AOT/AOT_stimuli/rescaled_final/1903_rv.mp4	0.0	180.5981640815735	
12	157.10764503479004	movie	1		244	10.0	2.5	/experiments/AOT/AOT_stimuli/rescaled_final/1903_rv.mp4	0.0	181.41471314430237	2.4999468326568604
12	157.8911030292511	pulse	1	t		10.0	2.5	/experiments/AOT/AOT_stimuli/rescaled_final/1903_rv.mp4	0.0	182.19817113876343	
12	159.48960995674133	pulse	1	t		10.0	2.5	/experiments/AOT/AOT_stimuli/rescaled_final/1903_rv.mp4	0.0	183.79667806625366	
12	159.6075918674469	fix_post	2		12	10.0	2.5	/experiments/AOT/AOT_stimuli/rescaled_final/1903_rv.mp4	0.0	183.91465997695923	0.10000300407409668
13	159.707594871521	fix_pre	0		120	11.0	2.5	/experiments/AOT/AOT_stimuli/rescaled_final/1463_fw.mp4	0.0	184.01466298103333	0.9999639987945557
13	160.70755887031555	movie	1		247	11.0	2.5	/experiments/AOT/AOT_stimuli/rescaled_final/1463_fw.mp4	0.0	185.01462697982788	2.5000741481781006
13	161.09068489074707	pulse	1	t		11.0	2.5	/experiments/AOT/AOT_stimuli/rescaled_final/1463_fw.mp4	0.0	185.3977530002594	
13	162.69107604026794	pulse	1	t		11.0	2.5	/experiments/AOT/AOT_stimuli/rescaled_final/1463_fw.mp4	0.0	186.99814414978027	
13	163.20763301849365	fix_post	2		12	11.0	2.5	/experiments/AOT/AOT_stimuli/rescaled_final/1463_fw.mp4	0.0	187.51470112800598	0.09992384910583496
14	163.3075568675995	fix_pre	0		119	12.0	2.5	/experiments/AOT/AOT_stimuli/rescaled_final/0052_fw.mp4	0.0	187.61462497711182	0.991631031036377
14	164.29114389419556	pulse	0	t		12.0	2.5	/experiments/AOT/AOT_stimuli/rescaled_final/0052_fw.mp4	0.0	188.59821200370789	
14	164.29918789863586	movie	1		248	12.0	2.5	/experiments/AOT/AOT_stimuli/rescaled_final/0052_fw.mp4	0.0	188.6062560081482	2.5084540843963623
14	165.8907070159912	pulse	1	t		12.0	2.5	/experiments/AOT/AOT_stimuli/rescaled_final/0052_fw.mp4	0.0	190.19777512550354	
14	166.80764198303223	fix_post	2		12	12.0	2.5	/experiments/AOT/AOT_stimuli/rescaled_final/0052_fw.mp4	0.0	191.11471009254456	0.09991192817687988
15	166.9075539112091	fix_pre	0		120	13.0	2.5	/experiments/AOT/AOT_stimuli/rescaled_final/2150_rv.mp4	0.0	191.21462202072144	1.0000100135803223
15	167.49102091789246	pulse	0	t		13.0	2.5	/experiments/AOT/AOT_stimuli/rescaled_final/2150_rv.mp4	0.0	191.79808902740479	
15	167.90756392478943	movie	1		244	13.0	2.5	/experiments/AOT/AOT_stimuli/rescaled_final/2150_rv.mp4	0.0	192.21463203430176	2.4999871253967285
15	169.0910940170288	pulse	1	t		13.0	2.5	/experiments/AOT/AOT_stimuli/rescaled_final/2150_rv.mp4	0.0	193.39816212654114	
15	170.40755105018616	fix_post	2		12	13.0	2.5	/experiments/AOT/AOT_stimuli/rescaled_final/2150_rv.mp4	0.0	194.7146191596985	0.10000491142272949
16	170.5075559616089	fix_pre	0		120	14.0	2.5	blank	1.0	194.81462407112122	0.9999499320983887
16	170.69104099273682	pulse	0	t		14.0	2.5	blank	1.0	194.99810910224915	
16	171.50750589370728	movie	1		300	14.0	2.5	blank	1.0	195.8145740032196	2.5000030994415283
16	172.29097390174866	pulse	1	t		14.0	2.5	blank	1.0	196.598042011261	
16	173.89106583595276	pulse	1	t		14.0	2.5	blank	1.0	198.1981339454651	
16	174.0075089931488	fix_post	2		12	14.0	2.5	blank	1.0	198.31457710266113	0.09997797012329102
17	174.1074869632721	fix_pre	0		120	15.0	2.5	/experiments/AOT/AOT_stimuli/rescaled_final/1751_rv.mp4	0.0	198.41455507278442	1.00006103515625
17	175.10754799842834	movie	1		243	15.0	2.5	/experiments/AOT/AOT_stimuli/rescaled_final/1751_rv.mp4	0.0	199.41461610794067	2.4999899864196777
17	175.49076795578003	pulse	1	t		15.0	2.5	/experiments/AOT/AOT_stimuli/rescaled_final/1751_rv.mp4	0.0	199.79783606529236	
17	177.0908968448639	pulse	1	t		15.0	2.5	/experiments/AOT/AOT_stimuli/rescaled_final/1751_rv.mp4	0.0	201.39796495437622	
17	177.60753798484802	fix_post	2		12	15.0	2.5	/experiments/AOT/AOT_stimuli/rescaled_final/1751_rv.mp4	0.0	201.91460609436035	0.09990787506103516
18	177.70744585990906	fix_pre	0		119	16.0	2.5	/experiments/AOT/AOT_stimuli/rescaled_final/0791_fw.mp4	0.0	202.0145139694214	0.9917449951171875
18	178.69102597236633	pulse	0	t		16.0	2.5	/experiments/AOT/AOT_stimuli/rescaled_final/0791_fw.mp4	0.0	202.99809408187866	
18	178.69919085502625	movie	1		245	16.0	2.5	/experiments/AOT/AOT_stimuli/rescaled_final/0791_fw.mp4	0.0	203.00625896453857	2.5083231925964355
18	180.2907419204712	pulse	1	t		16.0	2.5	/experiments/AOT/AOT_stimuli/rescaled_final/0791_fw.mp4	0.0	204.59781002998352	
18	181.20751404762268	fix_post	2		12	16.0	2.5	/experiments/AOT/AOT_stimuli/rescaled_final/0791_fw.mp4	0.0	205.514582157135	0.0998837947845459
19	181.30739784240723	fix_pre	0		120	17.0	2.5	/experiments/AOT/AOT_stimuli/rescaled_final/0985_fw.mp4	0.0	205.61446595191956	1.000108003616333
19	181.8910539150238	pulse	0	t		17.0	2.5	/experiments/AOT/AOT_stimuli/rescaled_final/0985_fw.mp4	0.0	206.19812202453613	
19	182.30750584602356	movie	1		246	17.0	2.5	/experiments/AOT/AOT_stimuli/rescaled_final/0985_fw.mp4	0.0	206.6145739555359	2.499917984008789
19	183.49105286598206	pulse	1	t		17.0	2.5	/experiments/AOT/AOT_stimuli/rescaled_final/0985_fw.mp4	0.0	207.79812097549438	
19	184.80742383003235	fix_post	2		12	17.0	2.5	/experiments/AOT/AOT_stimuli/rescaled_final/0985_fw.mp4	0.0	209.11449193954468	0.09998416900634766
20	184.9074079990387	fix_pre	0		120	18.0	2.5	/experiments/AOT/AOT_stimuli/rescaled_final/0073_fw.mp4	0.0	209.21447610855103	1.0000369548797607
20	185.09098386764526	pulse	0	t		18.0	2.5	/experiments/AOT/AOT_stimuli/rescaled_final/0073_fw.mp4	0.0	209.3980519771576	
20	185.90744495391846	movie	1		245	18.0	2.5	/experiments/AOT/AOT_stimuli/rescaled_final/0073_fw.mp4	0.0	210.2145130634308	2.500066041946411
20	186.69088697433472	pulse	1	t		18.0	2.5	/experiments/AOT/AOT_stimuli/rescaled_final/0073_fw.mp4	0.0	210.99795508384705	
20	188.28946900367737	pulse	1	t		18.0	2.5	/experiments/AOT/AOT_stimuli/rescaled_final/0073_fw.mp4	0.0	212.5965371131897	
20	188.40751099586487	fix_post	2		12	18.0	2.5	/experiments/AOT/AOT_stimuli/rescaled_final/0073_fw.mp4	0.0	212.7145791053772	0.09997701644897461
21	188.50748801231384	fix_pre	0		120	19.0	2.5	/experiments/AOT/AOT_stimuli/rescaled_final/0045_fw.mp4	0.0	212.81455612182617	1.0000028610229492
21	189.5074908733368	movie	1		244	19.0	2.5	/experiments/AOT/AOT_stimuli/rescaled_final/0045_fw.mp4	0.0	213.81455898284912	2.499907970428467
21	189.89045596122742	pulse	1	t		19.0	2.5	/experiments/AOT/AOT_stimuli/rescaled_final/0045_fw.mp4	0.0	214.19752407073975	
21	191.49096488952637	pulse	1	t		19.0	2.5	/experiments/AOT/AOT_stimuli/rescaled_final/0045_fw.mp4	0.0	215.7980329990387	
21	192.00739884376526	fix_post	2		12	19.0	2.5	/experiments/AOT/AOT_stimuli/rescaled_final/0045_fw.mp4	0.0	216.3144669532776	0.1000051498413086
22	192.10740399360657	fix_pre	0		119	20.0	2.5	blank	1.0	216.4144721031189	0.991689920425415
22	193.09091997146606	pulse	0	t		20.0	2.5	blank	1.0	217.3979880809784	
22	193.09909391403198	movie	1		301	20.0	2.5	blank	1.0	217.4061620235443	2.5083069801330566
22	194.69093704223633	pulse	1	t		20.0	2.5	blank	1.0	218.99800515174866	
22	195.60740089416504	fix_post	2		12	20.0	2.5	blank	1.0	219.91446900367737	0.10001707077026367
23	195.7074179649353	fix_pre	0		120	21.0	2.5	/experiments/AOT/AOT_stimuli/rescaled_final/2145_rv.mp4	0.0	220.01448607444763	1.0000419616699219
23	196.29104495048523	pulse	0	t		21.0	2.5	/experiments/AOT/AOT_stimuli/rescaled_final/2145_rv.mp4	0.0	220.59811305999756	
23	196.70745992660522	movie	1		245	21.0	2.5	/experiments/AOT/AOT_stimuli/rescaled_final/2145_rv.mp4	0.0	221.01452803611755	2.4994919300079346
23	197.89090394973755	pulse	1	t		21.0	2.5	/experiments/AOT/AOT_stimuli/rescaled_final/2145_rv.mp4	0.0	222.19797205924988	
23	199.20695185661316	fix_post	2		12	21.0	2.5	/experiments/AOT/AOT_stimuli/rescaled_final/2145_rv.mp4	0.0	223.5140199661255	0.10008597373962402
24	199.30703783035278	fix_pre	0		120	22.0	2.5	/experiments/AOT/AOT_stimuli/rescaled_final/1240_fw.mp4	0.0	223.6141059398651	1.0000081062316895
24	199.49052691459656	pulse	0	t		22.0	2.5	/experiments/AOT/AOT_stimuli/rescaled_final/1240_fw.mp4	0.0	223.7975950241089	
24	200.30704593658447	movie	1		244	22.0	2.5	/experiments/AOT/AOT_stimuli/rescaled_final/1240_fw.mp4	0.0	224.6141140460968	2.500391960144043
24	201.09103298187256	pulse	1	t		22.0	2.5	/experiments/AOT/AOT_stimuli/rescaled_final/1240_fw.mp4	0.0	225.3981010913849	
24	202.68947887420654	pulse	1	t		22.0	2.5	/experiments/AOT/AOT_stimuli/rescaled_final/1240_fw.mp4	0.0	226.99654698371887	
24	202.80743789672852	fix_post	2		12	22.0	2.5	/experiments/AOT/AOT_stimuli/rescaled_final/1240_fw.mp4	0.0	227.11450600624084	0.10000300407409668
25	202.9074409008026	fix_pre	0		120	23.0	2.5	/experiments/AOT/AOT_stimuli/rescaled_final/0763_rv.mp4	0.0	227.21450901031494	0.9999561309814453
25	203.90739703178406	movie	1		246	23.0	2.5	/experiments/AOT/AOT_stimuli/rescaled_final/0763_rv.mp4	0.0	228.2144651412964	2.4999239444732666
25	204.29176783561707	pulse	1	t		23.0	2.5	/experiments/AOT/AOT_stimuli/rescaled_final/0763_rv.mp4	0.0	228.5988359451294	
25	205.8908989429474	pulse	1	t		23.0	2.5	/experiments/AOT/AOT_stimuli/rescaled_final/0763_rv.mp4	0.0	230.19796705245972	
25	206.40732097625732	fix_post	2		12	23.0	2.5	/experiments/AOT/AOT_stimuli/rescaled_final/0763_rv.mp4	0.0	230.71438908576965	0.10011601448059082
26	206.50743699073792	fix_pre	0		119	24.0	2.5	/experiments/AOT/AOT_stimuli/rescaled_final/0143_rv.mp4	0.0	230.81450510025024	0.9915268421173096
26	207.49083304405212	pulse	0	t		24.0	2.5	/experiments/AOT/AOT_stimuli/rescaled_final/0143_rv.mp4	0.0	231.79790115356445	
26	207.49896383285522	movie	1		247	24.0	2.5	/experiments/AOT/AOT_stimuli/rescaled_final/0143_rv.mp4	0.0	231.80603194236755	2.5083980560302734
26	209.09042596817017	pulse	1	t		24.0	2.5	/experiments/AOT/AOT_stimuli/rescaled_final/0143_rv.mp4	0.0	233.3974940776825	
26	210.0073618888855	fix_post	2		12	24.0	2.5	/experiments/AOT/AOT_stimuli/rescaled_final/0143_rv.mp4	0.0	234.31442999839783	0.09993696212768555
27	210.10729885101318	fix_pre	0		120	25.0	2.5	/experiments/AOT/AOT_stimuli/rescaled_final/1773_fw.mp4	0.0	234.4143669605255	1.0000290870666504
27	210.69074392318726	pulse	0	t		25.0	2.5	/experiments/AOT/AOT_stimuli/rescaled_final/1773_fw.mp4	0.0	234.99781203269958	
27	211.10732793807983	movie	1		246	25.0	2.5	/experiments/AOT/AOT_stimuli/rescaled_final/1773_fw.mp4	0.0	235.41439604759216	2.4999868869781494
27	212.2908229827881	pulse	1	t		25.0	2.5	/experiments/AOT/AOT_stimuli/rescaled_final/1773_fw.mp4	0.0	236.59789109230042	
27	213.60731482505798	fix_post	2		12	25.0	2.5	/experiments/AOT/AOT_stimuli/rescaled_final/1773_fw.mp4	0.0	237.9143829345703	0.1000370979309082
28	213.7073519229889	fix_pre	0		120	26.0	2.5	/experiments/AOT/AOT_stimuli/rescaled_final/1129_fw.mp4	0.0	238.01442003250122	1.0000030994415283
28	213.8907380104065	pulse	0	t		26.0	2.5	/experiments/AOT/AOT_stimuli/rescaled_final/1129_fw.mp4	0.0	238.19780611991882	
28	214.70735502243042	movie	1		244	26.0	2.5	/experiments/AOT/AOT_stimuli/rescaled_final/1129_fw.mp4	0.0	239.01442313194275	2.50002384185791
28	215.49073386192322	pulse	1	t		26.0	2.5	/experiments/AOT/AOT_stimuli/rescaled_final/1129_fw.mp4	0.0	239.79780197143555	
28	217.08973383903503	pulse	1	t		26.0	2.5	/experiments/AOT/AOT_stimuli/rescaled_final/1129_fw.mp4	0.0	241.39680194854736	
28	217.20737886428833	fix_post	2		12	26.0	2.5	/experiments/AOT/AOT_stimuli/rescaled_final/1129_fw.mp4	0.0	241.51444697380066	0.09995412826538086
29	217.3073329925537	fix_pre	0		120	27.0	2.5	/experiments/AOT/AOT_stimuli/rescaled_final/1992_rv.mp4	0.0	241.61440110206604	0.9999868869781494
29	218.30731987953186	movie	1		244	27.0	2.5	/experiments/AOT/AOT_stimuli/rescaled_final/1992_rv.mp4	0.0	242.6143879890442	2.5000531673431396
29	218.6911120414734	pulse	1	t		27.0	2.5	/experiments/AOT/AOT_stimuli/rescaled_final/1992_rv.mp4	0.0	242.99818015098572	
29	220.29077100753784	pulse	1	t		27.0	2.5	/experiments/AOT/AOT_stimuli/rescaled_final/1992_rv.mp4	0.0	244.59783911705017	
29	220.807373046875	fix_post	2		12	27.0	2.5	/experiments/AOT/AOT_stimuli/rescaled_final/1992_rv.mp4	0.0	245.11444115638733	0.09990692138671875
30	220.90727996826172	fix_pre	0		119	28.0	2.5	blank	1.0	245.21434807777405	0.9916849136352539
30	221.89077997207642	pulse	0	t		28.0	2.5	blank	1.0	246.19784808158875	
30	221.89896488189697	movie	1		301	28.0	2.5	blank	1.0	246.2060329914093	2.5084030628204346
30	223.49083304405212	pulse	1	t		28.0	2.5	blank	1.0	247.79790115356445	
30	224.4073679447174	fix_post	2		12	28.0	2.5	blank	1.0	248.71443605422974	0.10000491142272949
31	224.50737285614014	fix_pre	0		120	29.0	2.5	/experiments/AOT/AOT_stimuli/rescaled_final/1292_rv.mp4	0.0	248.81444096565247	1.000020980834961
31	225.09077787399292	pulse	0	t		29.0	2.5	/experiments/AOT/AOT_stimuli/rescaled_final/1292_rv.mp4	0.0	249.39784598350525	
31	225.5073938369751	movie	1		247	29.0	2.5	/experiments/AOT/AOT_stimuli/rescaled_final/1292_rv.mp4	0.0	249.81446194648743	2.4998881816864014
31	226.69081091880798	pulse	1	t		29.0	2.5	/experiments/AOT/AOT_stimuli/rescaled_final/1292_rv.mp4	0.0	250.9978790283203	
31	228.0072820186615	fix_post	2		12	29.0	2.5	/experiments/AOT/AOT_stimuli/rescaled_final/1292_rv.mp4	0.0	252.31435012817383	0.10005784034729004
32	228.1073398590088	fix_pre	0		120	30.0	2.5	/experiments/AOT/AOT_stimuli/rescaled_final/2105_fw.mp4	0.0	252.41440796852112	0.9998860359191895
32	228.29081296920776	pulse	0	t		30.0	2.5	/experiments/AOT/AOT_stimuli/rescaled_final/2105_fw.mp4	0.0	252.5978810787201	
32	229.10722589492798	movie	1		244	30.0	2.5	/experiments/AOT/AOT_stimuli/rescaled_final/2105_fw.mp4	0.0	253.4142940044403	2.5000851154327393
32	229.89083099365234	pulse	1	t		30.0	2.5	/experiments/AOT/AOT_stimuli/rescaled_final/2105_fw.mp4	0.0	254.19789910316467	
32	231.4892020225525	pulse	1	t		30.0	2.5	/experiments/AOT/AOT_stimuli/rescaled_final/2105_fw.mp4	0.0	255.79627013206482	
32	231.60731101036072	fix_post	2		12	30.0	2.5	/experiments/AOT/AOT_stimuli/rescaled_final/2105_fw.mp4	0.0	255.91437911987305	0.09993791580200195
33	231.70724892616272	fix_pre	0		120	31.0	2.5	/experiments/AOT/AOT_stimuli/rescaled_final/1659_fw.mp4	0.0	256.01431703567505	1.0000560283660889
33	232.7073049545288	movie	1		245	31.0	2.5	/experiments/AOT/AOT_stimuli/rescaled_final/1659_fw.mp4	0.0	257.01437306404114	2.5000319480895996
33	233.09041094779968	pulse	1	t		31.0	2.5	/experiments/AOT/AOT_stimuli/rescaled_final/1659_fw.mp4	0.0	257.397479057312	
33	234.69074201583862	pulse	1	t		31.0	2.5	/experiments/AOT/AOT_stimuli/rescaled_final/1659_fw.mp4	0.0	258.99781012535095	
33	235.2073369026184	fix_post	2		12	31.0	2.5	/experiments/AOT/AOT_stimuli/rescaled_final/1659_fw.mp4	0.0	259.51440501213074	0.0999600887298584
34	235.30729699134827	fix_pre	0		119	32.0	2.5	/experiments/AOT/AOT_stimuli/rescaled_final/1516_rv.mp4	0.0	259.6143651008606	0.9915719032287598
34	236.2907099723816	pulse	0	t		32.0	2.5	/experiments/AOT/AOT_stimuli/rescaled_final/1516_rv.mp4	0.0	260.5977780818939	
34	236.29886889457703	movie	1		246	32.0	2.5	/experiments/AOT/AOT_stimuli/rescaled_final/1516_rv.mp4	0.0	260.60593700408936	2.508397102355957
34	237.89012098312378	pulse	1	t		32.0	2.5	/experiments/AOT/AOT_stimuli/rescaled_final/1516_rv.mp4	0.0	262.1971890926361	
34	238.80726599693298	fix_post	2		12	32.0	2.5	/experiments/AOT/AOT_stimuli/rescaled_final/1516_rv.mp4	0.0	263.1143341064453	0.10003399848937988
35	238.90729999542236	fix_pre	0		120	33.0	2.5	/experiments/AOT/AOT_stimuli/rescaled_final/0907_rv.mp4	0.0	263.2143681049347	0.9999878406524658
35	239.49075889587402	pulse	0	t		33.0	2.5	/experiments/AOT/AOT_stimuli/rescaled_final/0907_rv.mp4	0.0	263.79782700538635	
35	239.90728783607483	movie	1		245	33.0	2.5	/experiments/AOT/AOT_stimuli/rescaled_final/0907_rv.mp4	0.0	264.21435594558716	2.499983072280884
35	241.09082198143005	pulse	1	t		33.0	2.5	/experiments/AOT/AOT_stimuli/rescaled_final/0907_rv.mp4	0.0	265.3978900909424	
35	242.4072709083557	fix_post	2		12	33.0	2.5	/experiments/AOT/AOT_stimuli/rescaled_final/0907_rv.mp4	0.0	266.71433901786804	0.09987902641296387
36	242.50714993476868	fix_pre	0		120	34.0	2.5	/experiments/AOT/AOT_stimuli/rescaled_final/1231_fw.mp4	0.0	266.814218044281	1.0000920295715332
36	242.690682888031	pulse	0	t		34.0	2.5	/experiments/AOT/AOT_stimuli/rescaled_final/1231_fw.mp4	0.0	266.99775099754333	
36	243.5072419643402	movie	1		243	34.0	2.5	/experiments/AOT/AOT_stimuli/rescaled_final/1231_fw.mp4	0.0	267.81431007385254	2.500016927719116
36	244.2906789779663	pulse	1	t		34.0	2.5	/experiments/AOT/AOT_stimuli/rescaled_final/1231_fw.mp4	0.0	268.59774708747864	
36	245.88972902297974	pulse	1	t		34.0	2.5	/experiments/AOT/AOT_stimuli/rescaled_final/1231_fw.mp4	0.0	270.19679713249207	
36	246.00725889205933	fix_post	2		12	34.0	2.5	/experiments/AOT/AOT_stimuli/rescaled_final/1231_fw.mp4	0.0	270.31432700157166	0.0999460220336914
37	246.10720491409302	fix_pre	0		120	35.0	2.5	blank	1.0	270.41427302360535	1.0000619888305664
37	247.10726690292358	movie	1		300	35.0	2.5	blank	1.0	271.4143350124359	2.4998691082000732
37	247.4907009601593	pulse	1	t		35.0	2.5	blank	1.0	271.79776906967163	
37	249.09060287475586	pulse	1	t		35.0	2.5	blank	1.0	273.3976709842682	
37	249.60713601112366	fix_post	2		12	35.0	2.5	blank	1.0	273.914204120636	0.10007286071777344
38	249.70720887184143	fix_pre	0		119	36.0	2.5	/experiments/AOT/AOT_stimuli/rescaled_final/1446_fw.mp4	0.0	274.01427698135376	0.9916441440582275
38	250.69069600105286	pulse	0	t		36.0	2.5	/experiments/AOT/AOT_stimuli/rescaled_final/1446_fw.mp4	0.0	274.9977641105652	
38	250.69885301589966	movie	1		244	36.0	2.5	/experiments/AOT/AOT_stimuli/rescaled_final/1446_fw.mp4	0.0	275.005921125412	2.5082390308380127
38	252.2908639907837	pulse	1	t		36.0	2.5	/experiments/AOT/AOT_stimuli/rescaled_final/1446_fw.mp4	0.0	276.597932100296	
38	253.20709204673767	fix_post	2		12	36.0	2.5	/experiments/AOT/AOT_stimuli/rescaled_final/1446_fw.mp4	0.0	277.51416015625	0.10010790824890137
39	253.30719995498657	fix_pre	0		120	37.0	2.5	/experiments/AOT/AOT_stimuli/rescaled_final/2127_rv.mp4	0.0	277.6142680644989	0.9994690418243408
39	253.8906569480896	pulse	0	t		37.0	2.5	/experiments/AOT/AOT_stimuli/rescaled_final/2127_rv.mp4	0.0	278.19772505760193	
39	254.3066689968109	movie	1		248	37.0	2.5	/experiments/AOT/AOT_stimuli/rescaled_final/2127_rv.mp4	0.0	278.61373710632324	2.5002009868621826
39	255.49023389816284	pulse	1	t		37.0	2.5	/experiments/AOT/AOT_stimuli/rescaled_final/2127_rv.mp4	0.0	279.79730200767517	
39	256.8068699836731	fix_post	2		12	37.0	2.5	/experiments/AOT/AOT_stimuli/rescaled_final/2127_rv.mp4	0.0	281.1139380931854	0.10002303123474121
40	256.90689301490784	fix_pre	0		120	38.0	2.5	/experiments/AOT/AOT_stimuli/rescaled_final/2071_rv.mp4	0.0	281.21396112442017	1.000135898590088
40	257.0903639793396	pulse	0	t		38.0	2.5	/experiments/AOT/AOT_stimuli/rescaled_final/2071_rv.mp4	0.0	281.39743208885193	
40	257.9070289134979	movie	1		243	38.0	2.5	/experiments/AOT/AOT_stimuli/rescaled_final/2071_rv.mp4	0.0	282.21409702301025	2.500066041946411
40	258.69060492515564	pulse	1	t		38.0	2.5	/experiments/AOT/AOT_stimuli/rescaled_final/2071_rv.mp4	0.0	282.99767303466797	
40	260.28871989250183	pulse	1	t		38.0	2.5	/experiments/AOT/AOT_stimuli/rescaled_final/2071_rv.mp4	0.0	284.59578800201416	
40	260.40709495544434	fix_post	2		12	38.0	2.5	/experiments/AOT/AOT_stimuli/rescaled_final/2071_rv.mp4	0.0	284.71416306495667	0.10001492500305176
41	260.5071098804474	fix_pre	0		120	39.0	2.5	/experiments/AOT/AOT_stimuli/rescaled_final/0931_rv.mp4	0.0	284.8141779899597	0.9999909400939941
41	261.5071008205414	movie	1		245	39.0	2.5	/experiments/AOT/AOT_stimuli/rescaled_final/0931_rv.mp4	0.0	285.8141689300537	2.499993085861206
41	261.8905038833618	pulse	1	t		39.0	2.5	/experiments/AOT/AOT_stimuli/rescaled_final/0931_rv.mp4	0.0	286.19757199287415	
41	263.49054288864136	pulse	1	t		39.0	2.5	/experiments/AOT/AOT_stimuli/rescaled_final/0931_rv.mp4	0.0	287.7976109981537	
41	264.0070939064026	fix_post	2		12	39.0	2.5	/experiments/AOT/AOT_stimuli/rescaled_final/0931_rv.mp4	0.0	288.3141620159149	0.10000395774841309
42	264.107097864151	fix_pre	0		119	40.0	2.5	blank	1.0	288.41416597366333	0.9916551113128662
42	265.0905530452728	pulse	0	t		40.0	2.5	blank	1.0	289.39762115478516	
42	265.09875297546387	movie	1		301	40.0	2.5	blank	1.0	289.4058210849762	2.5083060264587402
42	266.6905708312988	pulse	1	t		40.0	2.5	blank	1.0	290.99763894081116	
42	267.6070590019226	fix_post	2		12	40.0	2.5	blank	1.0	291.91412711143494	0.1000208854675293
43	267.70707988739014	fix_pre	0		120	41.0	2.5	/experiments/AOT/AOT_stimuli/rescaled_final/0837_rv.mp4	0.0	292.01414799690247	0.9999840259552002
43	268.2905738353729	pulse	0	t		41.0	2.5	/experiments/AOT/AOT_stimuli/rescaled_final/0837_rv.mp4	0.0	292.59764194488525	
43	268.70706391334534	movie	1		245	41.0	2.5	/experiments/AOT/AOT_stimuli/rescaled_final/0837_rv.mp4	0.0	293.01413202285767	2.499925136566162
43	269.89058685302734	pulse	1	t		41.0	2.5	/experiments/AOT/AOT_stimuli/rescaled_final/0837_rv.mp4	0.0	294.1976549625397	
43	271.2069890499115	fix_post	2		12	41.0	2.5	/experiments/AOT/AOT_stimuli/rescaled_final/0837_rv.mp4	0.0	295.5140571594238	0.10000896453857422
44	271.3069980144501	fix_pre	0		120	42.0	2.5	/experiments/AOT/AOT_stimuli/rescaled_final/1357_fw.mp4	0.0	295.6140661239624	1.0000278949737549
44	271.49056792259216	pulse	0	t		42.0	2.5	/experiments/AOT/AOT_stimuli/rescaled_final/1357_fw.mp4	0.0	295.7976360321045	
44	272.3070259094238	movie	1		245	42.0	2.5	/experiments/AOT/AOT_stimuli/rescaled_final/1357_fw.mp4	0.0	296.61409401893616	2.5000059604644775
44	273.0904920101166	pulse	1	t		42.0	2.5	/experiments/AOT/AOT_stimuli/rescaled_final/1357_fw.mp4	0.0	297.3975601196289	
44	274.68976402282715	pulse	1	t		42.0	2.5	/experiments/AOT/AOT_stimuli/rescaled_final/1357_fw.mp4	0.0	298.9968321323395	
44	274.8070318698883	fix_post	2		12	42.0	2.5	/experiments/AOT/AOT_stimuli/rescaled_final/1357_fw.mp4	0.0	299.11409997940063	0.0999600887298584
45	274.90699195861816	fix_pre	0		120	43.0	2.5	/experiments/AOT/AOT_stimuli/rescaled_final/0238_fw.mp4	0.0	299.2140600681305	0.9999949932098389
45	275.906986951828	movie	1		245	43.0	2.5	/experiments/AOT/AOT_stimuli/rescaled_final/0238_fw.mp4	0.0	300.21405506134033	2.5000529289245605
45	276.29031801223755	pulse	1	t		43.0	2.5	/experiments/AOT/AOT_stimuli/rescaled_final/0238_fw.mp4	0.0	300.5973861217499	
45	277.8905019760132	pulse	1	t		43.0	2.5	/experiments/AOT/AOT_stimuli/rescaled_final/0238_fw.mp4	0.0	302.1975700855255	
45	278.40703988075256	fix_post	2		12	43.0	2.5	/experiments/AOT/AOT_stimuli/rescaled_final/0238_fw.mp4	0.0	302.7141079902649	0.10000801086425781
46	278.5070478916168	fix_pre	0		119	44.0	2.5	/experiments/AOT/AOT_stimuli/rescaled_final/1860_rv.mp4	0.0	302.81411600112915	0.9915900230407715
46	279.49056482315063	pulse	0	t		44.0	2.5	/experiments/AOT/AOT_stimuli/rescaled_final/1860_rv.mp4	0.0	303.79763293266296	
46	279.4986379146576	movie	1		247	44.0	2.5	/experiments/AOT/AOT_stimuli/rescaled_final/1860_rv.mp4	0.0	303.8057060241699	2.508362054824829
46	281.0903949737549	pulse	1	t		44.0	2.5	/experiments/AOT/AOT_stimuli/rescaled_final/1860_rv.mp4	0.0	305.3974630832672	
46	282.0069999694824	fix_post	2		12	44.0	2.5	/experiments/AOT/AOT_stimuli/rescaled_final/1860_rv.mp4	0.0	306.31406807899475	0.09999394416809082
47	282.1069939136505	fix_pre	0		120	45.0	2.5	/experiments/AOT/AOT_stimuli/rescaled_final/0743_fw.mp4	0.0	306.41406202316284	0.9999809265136719
47	282.6905138492584	pulse	0	t		45.0	2.5	/experiments/AOT/AOT_stimuli/rescaled_final/0743_fw.mp4	0.0	306.99758195877075	
47	283.1069748401642	movie	1		245	45.0	2.5	/experiments/AOT/AOT_stimuli/rescaled_final/0743_fw.mp4	0.0	307.4140429496765	2.5000710487365723
47	284.29045391082764	pulse	1	t		45.0	2.5	/experiments/AOT/AOT_stimuli/rescaled_final/0743_fw.mp4	0.0	308.59752202033997	
47	285.60704588890076	fix_post	2		12	45.0	2.5	/experiments/AOT/AOT_stimuli/rescaled_final/0743_fw.mp4	0.0	309.9141139984131	0.09995603561401367
48	285.70700192451477	fix_pre	0		120	46.0	2.5	/experiments/AOT/AOT_stimuli/rescaled_final/0461_fw.mp4	0.0	310.0140700340271	1.0000090599060059
48	285.8904700279236	pulse	0	t		46.0	2.5	/experiments/AOT/AOT_stimuli/rescaled_final/0461_fw.mp4	0.0	310.1975381374359	
48	286.7070109844208	movie	1		243	46.0	2.5	/experiments/AOT/AOT_stimuli/rescaled_final/0461_fw.mp4	0.0	311.0140790939331	2.4999098777770996
48	287.4904248714447	pulse	1	t		46.0	2.5	/experiments/AOT/AOT_stimuli/rescaled_final/0461_fw.mp4	0.0	311.79749298095703	
48	289.0891878604889	pulse	1	t		46.0	2.5	/experiments/AOT/AOT_stimuli/rescaled_final/0461_fw.mp4	0.0	313.3962559700012	
48	289.2069208621979	fix_post	2		12	46.0	2.5	/experiments/AOT/AOT_stimuli/rescaled_final/0461_fw.mp4	0.0	313.5139889717102	0.10008502006530762
49	289.3070058822632	fix_pre	0		120	47.0	2.5	blank	1.0	313.6140739917755	0.9998619556427002
49	290.3068678379059	movie	1		300	47.0	2.5	blank	1.0	314.6139359474182	2.50004506111145
49	290.69041204452515	pulse	1	t		47.0	2.5	blank	1.0	314.9974801540375	
49	292.2904930114746	pulse	1	t		47.0	2.5	blank	1.0	316.59756112098694	
49	292.80691289901733	fix_post	2		12	47.0	2.5	blank	1.0	317.11398100852966	0.09998703002929688
50	292.90689992904663	fix_pre	0		119	48.0	2.5	/experiments/AOT/AOT_stimuli/rescaled_final/1469_fw.mp4	0.0	317.21396803855896	0.9916629791259766
50	293.890496969223	pulse	0	t		48.0	2.5	/experiments/AOT/AOT_stimuli/rescaled_final/1469_fw.mp4	0.0	318.19756507873535	
50	293.8985629081726	movie	1		246	48.0	2.5	/experiments/AOT/AOT_stimuli/rescaled_final/1469_fw.mp4	0.0	318.20563101768494	2.5084290504455566
50	295.48997592926025	pulse	1	t		48.0	2.5	/experiments/AOT/AOT_stimuli/rescaled_final/1469_fw.mp4	0.0	319.7970440387726	
50	296.40699195861816	fix_post	2		12	48.0	2.5	/experiments/AOT/AOT_stimuli/rescaled_final/1469_fw.mp4	0.0	320.7140600681305	0.09988093376159668
51	296.50687289237976	fix_pre	0		120	49.0	2.5	/experiments/AOT/AOT_stimuli/rescaled_final/1645_fw.mp4	0.0	320.8139410018921	1.0001001358032227
51	297.0903830528259	pulse	0	t		49.0	2.5	/experiments/AOT/AOT_stimuli/rescaled_final/1645_fw.mp4	0.0	321.39745116233826	
51	297.506973028183	movie	1		246	49.0	2.5	/experiments/AOT/AOT_stimuli/rescaled_final/1645_fw.mp4	0.0	321.8140411376953	2.4999728202819824
51	298.69052386283875	pulse	1	t		49.0	2.5	/experiments/AOT/AOT_stimuli/rescaled_final/1645_fw.mp4	0.0	322.9975919723511	
51	300.00694584846497	fix_post	2		12	49.0	2.5	/experiments/AOT/AOT_stimuli/rescaled_final/1645_fw.mp4	0.0	324.3140139579773	0.10005998611450195
52	300.10700583457947	fix_pre	0		120	50.0	2.5	/experiments/AOT/AOT_stimuli/rescaled_final/0119_fw.mp4	0.0	324.4140739440918	0.9999330043792725
52	300.290452003479	pulse	0	t		50.0	2.5	/experiments/AOT/AOT_stimuli/rescaled_final/0119_fw.mp4	0.0	324.59752011299133	
52	301.10693883895874	movie	1		243	50.0	2.5	/experiments/AOT/AOT_stimuli/rescaled_final/0119_fw.mp4	0.0	325.41400694847107	2.499951124191284
52	301.890389919281	pulse	1	t		50.0	2.5	/experiments/AOT/AOT_stimuli/rescaled_final/0119_fw.mp4	0.0	326.19745802879333	
52	303.4890019893646	pulse	1	t		50.0	2.5	/experiments/AOT/AOT_stimuli/rescaled_final/0119_fw.mp4	0.0	327.79607009887695	
52	303.60688996315	fix_post	2		12	50.0	2.5	/experiments/AOT/AOT_stimuli/rescaled_final/0119_fw.mp4	0.0	327.91395807266235	0.10001087188720703
53	303.70690083503723	fix_pre	0		120	51.0	2.5	/experiments/AOT/AOT_stimuli/rescaled_final/1502_rv.mp4	0.0	328.01396894454956	1.000068187713623
53	304.70696902275085	movie	1		245	51.0	2.5	/experiments/AOT/AOT_stimuli/rescaled_final/1502_rv.mp4	0.0	329.0140371322632	2.499976873397827
53	305.0914509296417	pulse	1	t		51.0	2.5	/experiments/AOT/AOT_stimuli/rescaled_final/1502_rv.mp4	0.0	329.39851903915405	
53	306.69034600257874	pulse	1	t		51.0	2.5	/experiments/AOT/AOT_stimuli/rescaled_final/1502_rv.mp4	0.0	330.99741411209106	
53	307.2069458961487	fix_post	2		12	51.0	2.5	/experiments/AOT/AOT_stimuli/rescaled_final/1502_rv.mp4	0.0	331.514014005661	0.09997892379760742
54	307.3069248199463	fix_pre	0		119	52.0	2.5	/experiments/AOT/AOT_stimuli/rescaled_final/1903_fw.mp4	0.0	331.6139929294586	0.9917092323303223
54	308.2904028892517	pulse	0	t		52.0	2.5	/experiments/AOT/AOT_stimuli/rescaled_final/1903_fw.mp4	0.0	332.59747099876404	
54	308.2986340522766	movie	1		246	52.0	2.5	/experiments/AOT/AOT_stimuli/rescaled_final/1903_fw.mp4	0.0	332.60570216178894	2.508330821990967
54	309.89045095443726	pulse	1	t		52.0	2.5	/experiments/AOT/AOT_stimuli/rescaled_final/1903_fw.mp4	0.0	334.1975190639496	
54	310.8069648742676	fix_post	2		12	52.0	2.5	/experiments/AOT/AOT_stimuli/rescaled_final/1903_fw.mp4	0.0	335.1140329837799	0.09949111938476562
55	310.90645599365234	fix_pre	0		120	53.0	2.5	/experiments/AOT/AOT_stimuli/rescaled_final/1615_fw.mp4	0.0	335.2135241031647	1.0000929832458496
55	311.48995304107666	pulse	0	t		53.0	2.5	/experiments/AOT/AOT_stimuli/rescaled_final/1615_fw.mp4	0.0	335.797021150589	
55	311.9065489768982	movie	1		245	53.0	2.5	/experiments/AOT/AOT_stimuli/rescaled_final/1615_fw.mp4	0.0	336.2136170864105	2.500380039215088
55	313.0902030467987	pulse	1	t		53.0	2.5	/experiments/AOT/AOT_stimuli/rescaled_final/1615_fw.mp4	0.0	337.39727115631104	
55	314.4069290161133	fix_post	2		12	53.0	2.5	/experiments/AOT/AOT_stimuli/rescaled_final/1615_fw.mp4	0.0	338.7139971256256	0.10007095336914062
56	314.5069999694824	fix_pre	0		120	54.0	2.5	/experiments/AOT/AOT_stimuli/rescaled_final/1684_fw.mp4	0.0	338.81406807899475	0.9999039173126221
56	314.6904399394989	pulse	0	t		54.0	2.5	/experiments/AOT/AOT_stimuli/rescaled_final/1684_fw.mp4	0.0	338.99750804901123	
56	315.50690388679504	movie	1		243	54.0	2.5	/experiments/AOT/AOT_stimuli/rescaled_final/1684_fw.mp4	0.0	339.8139719963074	2.4999749660491943
56	316.29031682014465	pulse	1	t		54.0	2.5	/experiments/AOT/AOT_stimuli/rescaled_final/1684_fw.mp4	0.0	340.597384929657	
56	317.8889088630676	pulse	1	t		54.0	2.5	/experiments/AOT/AOT_stimuli/rescaled_final/1684_fw.mp4	0.0	342.19597697257996	
56	318.00687885284424	fix_post	2		12	54.0	2.5	/experiments/AOT/AOT_stimuli/rescaled_final/1684_fw.mp4	0.0	342.31394696235657	0.10001611709594727
57	318.1068949699402	fix_pre	0		120	55.0	2.5	blank	1.0	342.4139630794525	0.9999690055847168
57	319.1068639755249	movie	1		300	55.0	2.5	blank	1.0	343.41393208503723	2.4999849796295166
57	319.49034905433655	pulse	1	t		55.0	2.5	blank	1.0	343.7974171638489	
57	321.0903289318085	pulse	1	t		55.0	2.5	blank	1.0	345.3973970413208	
57	321.6068489551544	fix_post	2		12	55.0	2.5	blank	1.0	345.91391706466675	0.09999203681945801
58	321.7068409919739	fix_pre	0		119	56.0	2.5	/experiments/AOT/AOT_stimuli/rescaled_final/0341_rv.mp4	0.0	346.0139091014862	0.9915909767150879
58	322.690309047699	pulse	0	t		56.0	2.5	/experiments/AOT/AOT_stimuli/rescaled_final/0341_rv.mp4	0.0	346.9973771572113	
58	322.69843196868896	movie	1		246	56.0	2.5	/experiments/AOT/AOT_stimuli/rescaled_final/0341_rv.mp4	0.0	347.0055000782013	2.5083189010620117
58	324.2898988723755	pulse	1	t		56.0	2.5	/experiments/AOT/AOT_stimuli/rescaled_final/0341_rv.mp4	0.0	348.5969669818878	
58	325.206750869751	fix_post	2		12	56.0	2.5	/experiments/AOT/AOT_stimuli/rescaled_final/0341_rv.mp4	0.0	349.5138189792633	0.09999513626098633
59	325.30674600601196	fix_pre	0		120	57.0	2.5	/experiments/AOT/AOT_stimuli/rescaled_final/0624_rv.mp4	0.0	349.6138141155243	1.000006914138794
59	325.8902790546417	pulse	0	t		57.0	2.5	/experiments/AOT/AOT_stimuli/rescaled_final/0624_rv.mp4	0.0	350.19734716415405	
59	326.30675292015076	movie	1		244	57.0	2.5	/experiments/AOT/AOT_stimuli/rescaled_final/0624_rv.mp4	0.0	350.6138210296631	2.500044107437134
59	327.49034094810486	pulse	1	t		57.0	2.5	/experiments/AOT/AOT_stimuli/rescaled_final/0624_rv.mp4	0.0	351.7974090576172	
59	328.8067970275879	fix_post	2		12	57.0	2.5	/experiments/AOT/AOT_stimuli/rescaled_final/0624_rv.mp4	0.0	353.1138651371002	0.09994888305664062
60	328.90674591064453	fix_pre	0		120	58.0	2.5	/experiments/AOT/AOT_stimuli/rescaled_final/2119_fw.mp4	0.0	353.21381402015686	1.0000081062316895
60	329.09020495414734	pulse	0	t		58.0	2.5	/experiments/AOT/AOT_stimuli/rescaled_final/2119_fw.mp4	0.0	353.39727306365967	
60	329.9067540168762	movie	1		249	58.0	2.5	/experiments/AOT/AOT_stimuli/rescaled_final/2119_fw.mp4	0.0	354.21382212638855	2.4999568462371826
60	330.690269947052	pulse	1	t		58.0	2.5	/experiments/AOT/AOT_stimuli/rescaled_final/2119_fw.mp4	0.0	354.99733805656433	
60	332.2903368473053	pulse	1	t		58.0	2.5	/experiments/AOT/AOT_stimuli/rescaled_final/2119_fw.mp4	0.0	356.5974049568176	
60	332.4067108631134	fix_post	2		12	58.0	2.5	/experiments/AOT/AOT_stimuli/rescaled_final/2119_fw.mp4	0.0	356.71377897262573	0.10002303123474121
61	332.50673389434814	fix_pre	0		120	59.0	2.5	/experiments/AOT/AOT_stimuli/rescaled_final/1317_fw.mp4	0.0	356.8138020038605	1.0000450611114502
61	333.5067789554596	movie	1		245	59.0	2.5	/experiments/AOT/AOT_stimuli/rescaled_final/1317_fw.mp4	0.0	357.8138470649719	2.500041961669922
61	333.8899829387665	pulse	1	t		59.0	2.5	/experiments/AOT/AOT_stimuli/rescaled_final/1317_fw.mp4	0.0	358.1970510482788	
61	335.4902319908142	pulse	1	t		59.0	2.5	/experiments/AOT/AOT_stimuli/rescaled_final/1317_fw.mp4	0.0	359.79730010032654	
61	336.0068209171295	fix_post	2		12	59.0	2.5	/experiments/AOT/AOT_stimuli/rescaled_final/1317_fw.mp4	0.0	360.31388902664185	0.09997892379760742
62	336.1067998409271	fix_pre	0		119	60.0	2.5	/experiments/AOT/AOT_stimuli/rescaled_final/1802_fw.mp4	0.0	360.41386795043945	0.9916269779205322
62	337.0901999473572	pulse	0	t		60.0	2.5	/experiments/AOT/AOT_stimuli/rescaled_final/1802_fw.mp4	0.0	361.3972680568695	
62	337.09842681884766	movie	1		244	60.0	2.5	/experiments/AOT/AOT_stimuli/rescaled_final/1802_fw.mp4	0.0	361.40549492836	2.508305072784424
62	338.6899309158325	pulse	1	t		60.0	2.5	/experiments/AOT/AOT_stimuli/rescaled_final/1802_fw.mp4	0.0	362.99699902534485	
62	339.6067318916321	fix_post	2		12	60.0	2.5	/experiments/AOT/AOT_stimuli/rescaled_final/1802_fw.mp4	0.0	363.9138000011444	0.09998703002929688
63	339.7067189216614	fix_pre	0		120	61.0	2.5	blank	1.0	364.0137870311737	1.000035047531128
63	340.2901518344879	pulse	0	t		61.0	2.5	blank	1.0	364.59721994400024	
63	340.7067539691925	movie	1		300	61.0	2.5	blank	1.0	365.01382207870483	2.5000860691070557
63	341.8902380466461	pulse	1	t		61.0	2.5	blank	1.0	366.19730615615845	
63	343.20684003829956	fix_post	2		12	61.0	2.5	blank	1.0	367.5139081478119	0.09999895095825195
64	343.3068389892578	fix_pre	0		120	62.0	2.5	/experiments/AOT/AOT_stimuli/rescaled_final/1891_fw.mp4	0.0	367.61390709877014	0.999953031539917
64	343.4902169704437	pulse	0	t		62.0	2.5	/experiments/AOT/AOT_stimuli/rescaled_final/1891_fw.mp4	0.0	367.79728507995605	
64	344.30679202079773	movie	1		244	62.0	2.5	/experiments/AOT/AOT_stimuli/rescaled_final/1891_fw.mp4	0.0	368.61386013031006	2.49993896484375
64	345.09012389183044	pulse	1	t		62.0	2.5	/experiments/AOT/AOT_stimuli/rescaled_final/1891_fw.mp4	0.0	369.3971920013428	
64	346.6887710094452	pulse	1	t		62.0	2.5	/experiments/AOT/AOT_stimuli/rescaled_final/1891_fw.mp4	0.0	370.9958391189575	
64	346.8067309856415	fix_post	2		12	62.0	2.5	/experiments/AOT/AOT_stimuli/rescaled_final/1891_fw.mp4	0.0	371.1137990951538	0.09994101524353027
65	346.906672000885	fix_pre	0		120	63.0	2.5	/experiments/AOT/AOT_stimuli/rescaled_final/2038_fw.mp4	0.0	371.21374011039734	1.0000379085540771
65	347.9067099094391	movie	1		247	63.0	2.5	/experiments/AOT/AOT_stimuli/rescaled_final/2038_fw.mp4	0.0	372.2137780189514	2.5000550746917725
65	348.29083800315857	pulse	1	t		63.0	2.5	/experiments/AOT/AOT_stimuli/rescaled_final/2038_fw.mp4	0.0	372.5979061126709	
65	349.89007687568665	pulse	1	t		63.0	2.5	/experiments/AOT/AOT_stimuli/rescaled_final/2038_fw.mp4	0.0	374.197144985199	
65	350.40676498413086	fix_post	2		12	63.0	2.5	/experiments/AOT/AOT_stimuli/rescaled_final/2038_fw.mp4	0.0	374.7138330936432	0.10013794898986816
66	350.5069029331207	fix_pre	0		119	64.0	2.5	/experiments/AOT/AOT_stimuli/rescaled_final/0548_fw.mp4	0.0	374.81397104263306	0.9914839267730713
66	351.49019289016724	pulse	0	t		64.0	2.5	/experiments/AOT/AOT_stimuli/rescaled_final/0548_fw.mp4	0.0	375.79726099967957	
66	351.4983868598938	movie	1		246	64.0	2.5	/experiments/AOT/AOT_stimuli/rescaled_final/0548_fw.mp4	0.0	375.8054549694061	2.508277177810669
66	353.0898690223694	pulse	1	t		64.0	2.5	/experiments/AOT/AOT_stimuli/rescaled_final/0548_fw.mp4	0.0	377.3969371318817	
66	354.00666403770447	fix_post	2		12	64.0	2.5	/experiments/AOT/AOT_stimuli/rescaled_final/0548_fw.mp4	0.0	378.3137321472168	0.09996795654296875
67	354.10663199424744	fix_pre	0		120	65.0	2.5	/experiments/AOT/AOT_stimuli/rescaled_final/0853_fw.mp4	0.0	378.41370010375977	1.0000779628753662
67	354.6901259422302	pulse	0	t		65.0	2.5	/experiments/AOT/AOT_stimuli/rescaled_final/0853_fw.mp4	0.0	378.99719405174255	
67	355.1067099571228	movie	1		243	65.0	2.5	/experiments/AOT/AOT_stimuli/rescaled_final/0853_fw.mp4	0.0	379.41377806663513	2.499898910522461
67	356.2901759147644	pulse	1	t		65.0	2.5	/experiments/AOT/AOT_stimuli/rescaled_final/0853_fw.mp4	0.0	380.59724402427673	
67	357.60660886764526	fix_post	2		12	65.0	2.5	/experiments/AOT/AOT_stimuli/rescaled_final/0853_fw.mp4	0.0	381.9136769771576	0.10009098052978516
68	357.70669984817505	fix_pre	0		120	66.0	2.5	/experiments/AOT/AOT_stimuli/rescaled_final/0985_rv.mp4	0.0	382.0137679576874	0.9998881816864014
68	357.8901460170746	pulse	0	t		66.0	2.5	/experiments/AOT/AOT_stimuli/rescaled_final/0985_rv.mp4	0.0	382.1972141265869	
68	358.70658802986145	movie	1		244	66.0	2.5	/experiments/AOT/AOT_stimuli/rescaled_final/0985_rv.mp4	0.0	383.0136561393738	2.5000979900360107
68	359.49011397361755	pulse	1	t		66.0	2.5	/experiments/AOT/AOT_stimuli/rescaled_final/0985_rv.mp4	0.0	383.7971820831299	
68	361.0884828567505	pulse	1	t		66.0	2.5	/experiments/AOT/AOT_stimuli/rescaled_final/0985_rv.mp4	0.0	385.3955509662628	
68	361.20668601989746	fix_post	2		12	66.0	2.5	/experiments/AOT/AOT_stimuli/rescaled_final/0985_rv.mp4	0.0	385.5137541294098	0.0999908447265625
69	361.306676864624	fix_pre	0		120	67.0	2.5	/experiments/AOT/AOT_stimuli/rescaled_final/0461_rv.mp4	0.0	385.61374497413635	1.0000030994415283
69	362.30667996406555	movie	1		244	67.0	2.5	/experiments/AOT/AOT_stimuli/rescaled_final/0461_rv.mp4	0.0	386.6137480735779	2.4998998641967773
69	362.6912000179291	pulse	1	t		67.0	2.5	/experiments/AOT/AOT_stimuli/rescaled_final/0461_rv.mp4	0.0	386.9982681274414	
69	364.2899799346924	pulse	1	t		67.0	2.5	/experiments/AOT/AOT_stimuli/rescaled_final/0461_rv.mp4	0.0	388.5970480442047	
69	364.80657982826233	fix_post	2		12	67.0	2.5	/experiments/AOT/AOT_stimuli/rescaled_final/0461_rv.mp4	0.0	389.11364793777466	0.10008001327514648
70	364.9066598415375	fix_pre	0		119	68.0	2.5	/experiments/AOT/AOT_stimuli/rescaled_final/1280_rv.mp4	0.0	389.2137279510498	0.99167799949646
70	365.8901538848877	pulse	0	t		68.0	2.5	/experiments/AOT/AOT_stimuli/rescaled_final/1280_rv.mp4	0.0	390.1972219944	
70	365.89833784103394	movie	1		247	68.0	2.5	/experiments/AOT/AOT_stimuli/rescaled_final/1280_rv.mp4	0.0	390.20540595054626	2.5080599784851074
70	367.48925495147705	pulse	1	t		68.0	2.5	/experiments/AOT/AOT_stimuli/rescaled_final/1280_rv.mp4	0.0	391.7963230609894	
70	368.40639781951904	fix_post	2		12	68.0	2.5	/experiments/AOT/AOT_stimuli/rescaled_final/1280_rv.mp4	0.0	392.7134659290314	0.09994816780090332
71	368.50634598731995	fix_pre	0		120	69.0	2.5	blank	1.0	392.8134140968323	1.0006518363952637
71	369.0899338722229	pulse	0	t		69.0	2.5	blank	1.0	393.39700198173523	
71	369.5069978237152	movie	1		300	69.0	2.5	blank	1.0	393.81406593322754	2.499577045440674
71	370.69000601768494	pulse	1	t		69.0	2.5	blank	1.0	394.99707412719727	
71	372.0065748691559	fix_post	2		12	69.0	2.5	blank	1.0	396.3136429786682	0.10007214546203613
72	372.1066470146179	fix_pre	0		120	70.0	2.5	/experiments/AOT/AOT_stimuli/rescaled_final/1125_fw.mp4	0.0	396.41371512413025	0.999953031539917
72	372.29005885124207	pulse	0	t		70.0	2.5	/experiments/AOT/AOT_stimuli/rescaled_final/1125_fw.mp4	0.0	396.5971269607544	
72	373.10660004615784	movie	1		245	70.0	2.5	/experiments/AOT/AOT_stimuli/rescaled_final/1125_fw.mp4	0.0	397.41366815567017	2.4999449253082275
72	373.89006185531616	pulse	1	t		70.0	2.5	/experiments/AOT/AOT_stimuli/rescaled_final/1125_fw.mp4	0.0	398.1971299648285	
72	375.48864483833313	pulse	1	t		70.0	2.5	/experiments/AOT/AOT_stimuli/rescaled_final/1125_fw.mp4	0.0	399.79571294784546	
72	375.60654497146606	fix_post	2		12	70.0	2.5	/experiments/AOT/AOT_stimuli/rescaled_final/1125_fw.mp4	0.0	399.9136130809784	0.10002803802490234
73	375.70657300949097	fix_pre	0		120	71.0	2.5	/experiments/AOT/AOT_stimuli/rescaled_final/0639_rv.mp4	0.0	400.0136411190033	0.9999918937683105
73	376.7065649032593	movie	1		244	71.0	2.5	/experiments/AOT/AOT_stimuli/rescaled_final/0639_rv.mp4	0.0	401.0136330127716	2.4999239444732666
73	377.0897309780121	pulse	1	t		71.0	2.5	/experiments/AOT/AOT_stimuli/rescaled_final/0639_rv.mp4	0.0	401.3967990875244	
73	378.68999695777893	pulse	1	t		71.0	2.5	/experiments/AOT/AOT_stimuli/rescaled_final/0639_rv.mp4	0.0	402.99706506729126	
73	379.20648884773254	fix_post	2		12	71.0	2.5	/experiments/AOT/AOT_stimuli/rescaled_final/0639_rv.mp4	0.0	403.5135569572449	0.10004520416259766
74	379.30653405189514	fix_pre	0		119	72.0	2.5	/experiments/AOT/AOT_stimuli/rescaled_final/1432_rv.mp4	0.0	403.61360216140747	0.9917008876800537
74	380.2899880409241	pulse	0	t		72.0	2.5	/experiments/AOT/AOT_stimuli/rescaled_final/1432_rv.mp4	0.0	404.5970561504364	
74	380.2982349395752	movie	1		245	72.0	2.5	/experiments/AOT/AOT_stimuli/rescaled_final/1432_rv.mp4	0.0	404.6053030490875	2.508316993713379
74	381.88968205451965	pulse	1	t		72.0	2.5	/experiments/AOT/AOT_stimuli/rescaled_final/1432_rv.mp4	0.0	406.196750164032	
74	382.8065519332886	fix_post	2		12	72.0	2.5	/experiments/AOT/AOT_stimuli/rescaled_final/1432_rv.mp4	0.0	407.1136200428009	0.09992599487304688
75	382.9064779281616	fix_pre	0		120	73.0	2.5	/experiments/AOT/AOT_stimuli/rescaled_final/0931_fw.mp4	0.0	407.21354603767395	1.000108003616333
75	383.48995304107666	pulse	0	t		73.0	2.5	/experiments/AOT/AOT_stimuli/rescaled_final/0931_fw.mp4	0.0	407.797021150589	
75	383.90658593177795	movie	1		244	73.0	2.5	/experiments/AOT/AOT_stimuli/rescaled_final/0931_fw.mp4	0.0	408.2136540412903	2.5000250339508057
75	385.090078830719	pulse	1	t		73.0	2.5	/experiments/AOT/AOT_stimuli/rescaled_final/0931_fw.mp4	0.0	409.3971469402313	
75	386.40661096572876	fix_post	2		12	73.0	2.5	/experiments/AOT/AOT_stimuli/rescaled_final/0931_fw.mp4	0.0	410.7136790752411	0.09994387626647949
76	386.50655484199524	fix_pre	0		120	74.0	2.5	/experiments/AOT/AOT_stimuli/rescaled_final/0907_rv.mp4	0.0	410.81362295150757	1.0000131130218506
76	386.68998098373413	pulse	0	t		74.0	2.5	/experiments/AOT/AOT_stimuli/rescaled_final/0907_rv.mp4	0.0	410.99704909324646	
76	387.5065679550171	movie	1		246	74.0	2.5	/experiments/AOT/AOT_stimuli/rescaled_final/0907_rv.mp4	0.0	411.8136360645294	2.4999349117279053
76	388.28996896743774	pulse	1	t		74.0	2.5	/experiments/AOT/AOT_stimuli/rescaled_final/0907_rv.mp4	0.0	412.5970370769501	
76	389.88854002952576	pulse	1	t		74.0	2.5	/experiments/AOT/AOT_stimuli/rescaled_final/0907_rv.mp4	0.0	414.1956081390381	
76	390.006502866745	fix_post	2		12	74.0	2.5	/experiments/AOT/AOT_stimuli/rescaled_final/0907_rv.mp4	0.0	414.3135709762573	0.10001611709594727
77	390.10651898384094	fix_pre	0		120	75.0	2.5	blank	1.0	414.41358709335327	0.9999659061431885
77	391.10648488998413	movie	1		300	75.0	2.5	blank	1.0	415.41355299949646	2.4999499320983887
77	391.48995184898376	pulse	1	t		75.0	2.5	blank	1.0	415.7970199584961	
77	393.08998799324036	pulse	1	t		75.0	2.5	blank	1.0	417.3970561027527	
77	393.6064348220825	fix_post	2		12	75.0	2.5	blank	1.0	417.91350293159485	0.10005307197570801
78	393.7064878940582	fix_pre	0		119	76.0	2.5	/experiments/AOT/AOT_stimuli/rescaled_final/0652_rv.mp4	0.0	418.01355600357056	0.9916419982910156
78	394.6899700164795	pulse	0	t		76.0	2.5	/experiments/AOT/AOT_stimuli/rescaled_final/0652_rv.mp4	0.0	418.9970381259918	
78	394.69812989234924	movie	1		244	76.0	2.5	/experiments/AOT/AOT_stimuli/rescaled_final/0652_rv.mp4	0.0	419.0051980018616	2.5083210468292236
78	396.2894048690796	pulse	1	t		76.0	2.5	/experiments/AOT/AOT_stimuli/rescaled_final/0652_rv.mp4	0.0	420.5964729785919	
78	397.20645093917847	fix_post	2		12	76.0	2.5	/experiments/AOT/AOT_stimuli/rescaled_final/0652_rv.mp4	0.0	421.5135190486908	0.10009288787841797
79	397.3065438270569	fix_pre	0		120	77.0	2.5	/experiments/AOT/AOT_stimuli/rescaled_final/1231_rv.mp4	0.0	421.6136119365692	0.9998960494995117
79	397.8899848461151	pulse	0	t		77.0	2.5	/experiments/AOT/AOT_stimuli/rescaled_final/1231_rv.mp4	0.0	422.19705295562744	
79	398.3064398765564	movie	1		243	77.0	2.5	/experiments/AOT/AOT_stimuli/rescaled_final/1231_rv.mp4	0.0	422.6135079860687	2.500035047531128
79	399.4900369644165	pulse	1	t		77.0	2.5	/experiments/AOT/AOT_stimuli/rescaled_final/1231_rv.mp4	0.0	423.79710507392883	
79	400.8064749240875	fix_post	2		12	77.0	2.5	/experiments/AOT/AOT_stimuli/rescaled_final/1231_rv.mp4	0.0	425.11354303359985	0.09998011589050293
80	400.906455039978	fix_pre	0		120	78.0	2.5	/experiments/AOT/AOT_stimuli/rescaled_final/1939_fw.mp4	0.0	425.21352314949036	0.9999690055847168
80	401.0899648666382	pulse	0	t		78.0	2.5	/experiments/AOT/AOT_stimuli/rescaled_final/1939_fw.mp4	0.0	425.3970329761505	
80	401.90642404556274	movie	1		243	78.0	2.5	/experiments/AOT/AOT_stimuli/rescaled_final/1939_fw.mp4	0.0	426.2134921550751	2.5000438690185547
80	402.6899938583374	pulse	1	t		78.0	2.5	/experiments/AOT/AOT_stimuli/rescaled_final/1939_fw.mp4	0.0	426.99706196784973	
80	404.28853583335876	pulse	1	t		78.0	2.5	/experiments/AOT/AOT_stimuli/rescaled_final/1939_fw.mp4	0.0	428.5956039428711	
80	404.4064679145813	fix_post	2		12	78.0	2.5	/experiments/AOT/AOT_stimuli/rescaled_final/1939_fw.mp4	0.0	428.7135360240936	0.09999608993530273
81	404.5064640045166	fix_pre	0		120	79.0	2.5	/experiments/AOT/AOT_stimuli/rescaled_final/1603_rv.mp4	0.0	428.81353211402893	0.9999580383300781
81	405.5064220428467	movie	1		244	79.0	2.5	/experiments/AOT/AOT_stimuli/rescaled_final/1603_rv.mp4	0.0	429.813490152359	2.499964952468872
81	405.8896129131317	pulse	1	t		79.0	2.5	/experiments/AOT/AOT_stimuli/rescaled_final/1603_rv.mp4	0.0	430.19668102264404	
81	407.4899778366089	pulse	1	t		79.0	2.5	/experiments/AOT/AOT_stimuli/rescaled_final/1603_rv.mp4	0.0	431.7970459461212	
81	408.00638699531555	fix_post	2		12	79.0	2.5	/experiments/AOT/AOT_stimuli/rescaled_final/1603_rv.mp4	0.0	432.3134551048279	0.09996700286865234
82	408.1063539981842	fix_pre	0		119	80.0	2.5	/experiments/AOT/AOT_stimuli/rescaled_final/1317_fw.mp4	0.0	432.41342210769653	0.9917619228363037
82	409.089998960495	pulse	0	t		80.0	2.5	/experiments/AOT/AOT_stimuli/rescaled_final/1317_fw.mp4	0.0	433.3970670700073	
82	409.0981159210205	movie	1		247	80.0	2.5	/experiments/AOT/AOT_stimuli/rescaled_final/1317_fw.mp4	0.0	433.40518403053284	2.5082409381866455
82	410.6895158290863	pulse	1	t		80.0	2.5	/experiments/AOT/AOT_stimuli/rescaled_final/1317_fw.mp4	0.0	434.99658393859863	
82	411.60635685920715	fix_post	2		12	80.0	2.5	/experiments/AOT/AOT_stimuli/rescaled_final/1317_fw.mp4	0.0	435.9134249687195	0.10004210472106934
83	411.7063989639282	fix_pre	0		120	81.0	2.5	/experiments/AOT/AOT_stimuli/rescaled_final/0743_fw.mp4	0.0	436.01346707344055	1.0000360012054443
83	412.28992795944214	pulse	0	t		81.0	2.5	/experiments/AOT/AOT_stimuli/rescaled_final/0743_fw.mp4	0.0	436.59699606895447	
83	412.70643496513367	movie	1		245	81.0	2.5	/experiments/AOT/AOT_stimuli/rescaled_final/0743_fw.mp4	0.0	437.013503074646	2.500020980834961
83	413.8899338245392	pulse	1	t		81.0	2.5	/experiments/AOT/AOT_stimuli/rescaled_final/0743_fw.mp4	0.0	438.1970019340515	
83	415.2064559459686	fix_post	2		12	81.0	2.5	/experiments/AOT/AOT_stimuli/rescaled_final/0743_fw.mp4	0.0	439.51352405548096	0.09997892379760742
84	415.30643486976624	fix_pre	0		120	82.0	2.5	blank	1.0	439.61350297927856	1.000002145767212
84	415.48982787132263	pulse	0	t		82.0	2.5	blank	1.0	439.79689598083496	
84	416.30643701553345	movie	1		300	82.0	2.5	blank	1.0	440.6135051250458	2.500048875808716
84	417.08985900878906	pulse	1	t		82.0	2.5	blank	1.0	441.3969271183014	
84	418.68982195854187	pulse	1	t		82.0	2.5	blank	1.0	442.9968900680542	
84	418.80648589134216	fix_post	2		12	82.0	2.5	blank	1.0	443.1135540008545	0.09993100166320801
85	418.90641689300537	fix_pre	0		120	83.0	2.5	/experiments/AOT/AOT_stimuli/rescaled_final/1292_rv.mp4	0.0	443.2134850025177	0.9998741149902344
85	419.9062910079956	movie	1		247	83.0	2.5	/experiments/AOT/AOT_stimuli/rescaled_final/1292_rv.mp4	0.0	444.21335911750793	2.5001380443573
85	420.28979301452637	pulse	1	t		83.0	2.5	/experiments/AOT/AOT_stimuli/rescaled_final/1292_rv.mp4	0.0	444.5968611240387	
85	421.8897650241852	pulse	1	t		83.0	2.5	/experiments/AOT/AOT_stimuli/rescaled_final/1292_rv.mp4	0.0	446.1968331336975	
85	422.4064290523529	fix_post	2		12	83.0	2.5	/experiments/AOT/AOT_stimuli/rescaled_final/1292_rv.mp4	0.0	446.71349716186523	0.10003995895385742
87	422.50646901130676	stim	0		1716					446.8135371208191	14.299815893173218
87	423.4894828796387	pulse	0	t						447.796550989151	
87	425.08960700035095	pulse	0	t						449.3966751098633	
87	426.6897978782654	pulse	0	t						450.9968659877777	
87	428.2898259162903	pulse	0	t						452.5968940258026	
87	429.8897850513458	pulse	0	t						454.19685316085815	
87	431.4896910190582	pulse	0	t						455.79675912857056	
87	433.08966302871704	pulse	0	t						457.39673113822937	
87	434.6896929740906	pulse	0	t						458.9967610836029	
87	436.2897119522095	pulse	0	t						460.5967800617218	
