trial_nr	onset	event_type	phase	response	nr_frames	movie_index	movie_duration	movie_file	blank	onset_abs	duration
0	0.20836305618286133	stim	0		57					41.512890100479126	0.4749140739440918
0	0.6752400398254395	response	0	space						41.979767084121704	
1	0.6832771301269531	stim	0		4592					41.98780417442322	38.29221200942993
1	38.94535803794861	pulse	0	t						80.24988508224487	
1	38.975489139556885	stim	1		1716					80.28001618385315	14.299026012420654
1	40.54024004936218	pulse	1	t						81.84476709365845	
1	42.14051795005798	pulse	1	t						83.44504499435425	
1	43.74063205718994	pulse	1	t						85.0451591014862	
1	45.34087109565735	pulse	1	t						86.64539813995361	
1	46.94031000137329	pulse	1	t						88.24483704566956	
1	48.540574073791504	pulse	1	t						89.84510111808777	
1	50.14081001281738	pulse	1	t						91.44533705711365	
1	51.74095797538757	pulse	1	t						93.04548501968384	
2	53.27451515197754	fix_pre	0		9	0.0	2.5	/experiments/knapen_AOT/AOT_stimuli/rescaled_final/0157_rv.mp4	0.0	94.5790421962738	0.07493185997009277
2	53.34145498275757	pulse	0	t		0.0	2.5	/experiments/knapen_AOT/AOT_stimuli/rescaled_final/0157_rv.mp4	0.0	94.64598202705383	
2	53.34944701194763	movie	1		242	0.0	2.5	/experiments/knapen_AOT/AOT_stimuli/rescaled_final/0157_rv.mp4	0.0	94.6539740562439	2.5087950229644775
2	54.942177057266235	pulse	1	t		0.0	2.5	/experiments/knapen_AOT/AOT_stimuli/rescaled_final/0157_rv.mp4	0.0	96.2467041015625	
2	55.85824203491211	fix_post	2		12	0.0	2.5	/experiments/knapen_AOT/AOT_stimuli/rescaled_final/0157_rv.mp4	0.0	97.16276907920837	0.09997296333312988
3	55.95821499824524	fix_pre	0		120	1.0	2.5	/experiments/knapen_AOT/AOT_stimuli/rescaled_final/2027_rv.mp4	0.0	97.2627420425415	1.000195026397705
3	56.541784048080444	pulse	0	t		1.0	2.5	/experiments/knapen_AOT/AOT_stimuli/rescaled_final/2027_rv.mp4	0.0	97.84631109237671	
3	56.958410024642944	movie	1		242	1.0	2.5	/experiments/knapen_AOT/AOT_stimuli/rescaled_final/2027_rv.mp4	0.0	98.26293706893921	2.500523090362549
3	58.142050981521606	pulse	1	t		1.0	2.5	/experiments/knapen_AOT/AOT_stimuli/rescaled_final/2027_rv.mp4	0.0	99.44657802581787	
3	59.45893311500549	fix_post	2		12	1.0	2.5	/experiments/knapen_AOT/AOT_stimuli/rescaled_final/2027_rv.mp4	0.0	100.76346015930176	0.09983205795288086
4	59.558765172958374	fix_pre	0		120	2.0	2.5	/experiments/knapen_AOT/AOT_stimuli/rescaled_final/1201_fw.mp4	0.0	100.86329221725464	1.000091791152954
4	59.74237394332886	pulse	0	t		2.0	2.5	/experiments/knapen_AOT/AOT_stimuli/rescaled_final/1201_fw.mp4	0.0	101.04690098762512	
4	60.55885696411133	movie	1		243	2.0	2.5	/experiments/knapen_AOT/AOT_stimuli/rescaled_final/1201_fw.mp4	0.0	101.86338400840759	2.500613212585449
4	61.34259915351868	pulse	1	t		2.0	2.5	/experiments/knapen_AOT/AOT_stimuli/rescaled_final/1201_fw.mp4	0.0	102.64712619781494	
4	62.94269514083862	pulse	1	t		2.0	2.5	/experiments/knapen_AOT/AOT_stimuli/rescaled_final/1201_fw.mp4	0.0	104.24722218513489	
4	63.05947017669678	fix_post	2		12	2.0	2.5	/experiments/knapen_AOT/AOT_stimuli/rescaled_final/1201_fw.mp4	0.0	104.36399722099304	0.09984493255615234
5	63.15931510925293	fix_pre	0		120	3.0	2.5	/experiments/knapen_AOT/AOT_stimuli/rescaled_final/0093_rv.mp4	0.0	104.4638421535492	1.0001449584960938
5	64.15946006774902	movie	1		242	3.0	2.5	/experiments/knapen_AOT/AOT_stimuli/rescaled_final/0093_rv.mp4	0.0	105.46398711204529	2.492042064666748
5	64.54715514183044	pulse	1	t		3.0	2.5	/experiments/knapen_AOT/AOT_stimuli/rescaled_final/0093_rv.mp4	0.0	105.85168218612671	
5	66.1432249546051	pulse	1	t		3.0	2.5	/experiments/knapen_AOT/AOT_stimuli/rescaled_final/0093_rv.mp4	0.0	107.44775199890137	
5	66.65150213241577	fix_post	2		12	3.0	2.5	/experiments/knapen_AOT/AOT_stimuli/rescaled_final/0093_rv.mp4	0.0	107.95602917671204	0.10001993179321289
6	66.75152206420898	fix_pre	0		120	4.0	2.5	/experiments/knapen_AOT/AOT_stimuli/rescaled_final/0028_rv.mp4	0.0	108.05604910850525	1.0000920295715332
6	67.74357414245605	pulse	0	t		4.0	2.5	/experiments/knapen_AOT/AOT_stimuli/rescaled_final/0028_rv.mp4	0.0	109.04810118675232	
6	67.75161409378052	movie	1		243	4.0	2.5	/experiments/knapen_AOT/AOT_stimuli/rescaled_final/0028_rv.mp4	0.0	109.05614113807678	2.5087480545043945
6	69.345134973526	pulse	1	t		4.0	2.5	/experiments/knapen_AOT/AOT_stimuli/rescaled_final/0028_rv.mp4	0.0	110.64966201782227	
6	70.26036214828491	fix_post	2		12	4.0	2.5	/experiments/knapen_AOT/AOT_stimuli/rescaled_final/0028_rv.mp4	0.0	111.56488919258118	0.10004186630249023
7	70.3604040145874	fix_pre	0		120	5.0	2.5	blank	1.0	111.66493105888367	1.0001111030578613
7	70.94395804405212	pulse	0	t		5.0	2.5	blank	1.0	112.24848508834839	
7	71.36051511764526	movie	1		300	5.0	2.5	blank	1.0	112.66504216194153	2.5003609657287598
7	72.5441529750824	pulse	1	t		5.0	2.5	blank	1.0	113.84868001937866	
7	73.86087608337402	fix_post	2		12	5.0	2.5	blank	1.0	115.16540312767029	0.09999608993530273
8	73.96087217330933	fix_pre	0		120	6.0	2.5	/experiments/knapen_AOT/AOT_stimuli/rescaled_final/1188_rv.mp4	0.0	115.26539921760559	1.000147819519043
8	74.1444160938263	pulse	0	t		6.0	2.5	/experiments/knapen_AOT/AOT_stimuli/rescaled_final/1188_rv.mp4	0.0	115.44894313812256	
8	74.96101999282837	movie	1		243	6.0	2.5	/experiments/knapen_AOT/AOT_stimuli/rescaled_final/1188_rv.mp4	0.0	116.26554703712463	2.500493049621582
8	75.74478197097778	pulse	1	t		6.0	2.5	/experiments/knapen_AOT/AOT_stimuli/rescaled_final/1188_rv.mp4	0.0	117.04930901527405	
8	77.34479904174805	pulse	1	t		6.0	2.5	/experiments/knapen_AOT/AOT_stimuli/rescaled_final/1188_rv.mp4	0.0	118.64932608604431	
8	77.46151304244995	fix_post	2		12	6.0	2.5	/experiments/knapen_AOT/AOT_stimuli/rescaled_final/1188_rv.mp4	0.0	118.76604008674622	0.09994912147521973
9	77.56146216392517	fix_pre	0		120	7.0	2.5	/experiments/knapen_AOT/AOT_stimuli/rescaled_final/1930_fw.mp4	0.0	118.86598920822144	1.000152826309204
9	78.56161499023438	movie	1		242	7.0	2.5	/experiments/knapen_AOT/AOT_stimuli/rescaled_final/1930_fw.mp4	0.0	119.86614203453064	2.4921720027923584
9	78.94647717475891	pulse	1	t		7.0	2.5	/experiments/knapen_AOT/AOT_stimuli/rescaled_final/1930_fw.mp4	0.0	120.25100421905518	
9	80.54533100128174	pulse	1	t		7.0	2.5	/experiments/knapen_AOT/AOT_stimuli/rescaled_final/1930_fw.mp4	0.0	121.849858045578	
9	81.05378699302673	fix_post	2		12	7.0	2.5	/experiments/knapen_AOT/AOT_stimuli/rescaled_final/1930_fw.mp4	0.0	122.358314037323	0.09986996650695801
10	81.15365695953369	fix_pre	0		120	8.0	2.5	/experiments/knapen_AOT/AOT_stimuli/rescaled_final/1017_fw.mp4	0.0	122.45818400382996	1.0000929832458496
10	82.14572811126709	pulse	0	t		8.0	2.5	/experiments/knapen_AOT/AOT_stimuli/rescaled_final/1017_fw.mp4	0.0	123.45025515556335	
10	82.15374994277954	movie	1		245	8.0	2.5	/experiments/knapen_AOT/AOT_stimuli/rescaled_final/1017_fw.mp4	0.0	123.4582769870758	2.508730173110962
10	83.75035214424133	pulse	1	t		8.0	2.5	/experiments/knapen_AOT/AOT_stimuli/rescaled_final/1017_fw.mp4	0.0	125.0548791885376	
10	84.6624801158905	fix_post	2		12	8.0	2.5	/experiments/knapen_AOT/AOT_stimuli/rescaled_final/1017_fw.mp4	0.0	125.96700716018677	0.10005402565002441
11	84.76253414154053	fix_pre	0		120	9.0	2.5	/experiments/knapen_AOT/AOT_stimuli/rescaled_final/0698_fw.mp4	0.0	126.06706118583679	1.0000889301300049
11	85.34604215621948	pulse	0	t		9.0	2.5	/experiments/knapen_AOT/AOT_stimuli/rescaled_final/0698_fw.mp4	0.0	126.65056920051575	
11	85.76262307167053	movie	1		243	9.0	2.5	/experiments/knapen_AOT/AOT_stimuli/rescaled_final/0698_fw.mp4	0.0	127.0671501159668	2.500464916229248
11	86.94635510444641	pulse	1	t		9.0	2.5	/experiments/knapen_AOT/AOT_stimuli/rescaled_final/0698_fw.mp4	0.0	128.25088214874268	
11	88.26308798789978	fix_post	2		12	9.0	2.5	/experiments/knapen_AOT/AOT_stimuli/rescaled_final/0698_fw.mp4	0.0	129.56761503219604	0.09993195533752441
12	88.3630199432373	fix_pre	0		120	10.0	2.5	/experiments/knapen_AOT/AOT_stimuli/rescaled_final/0596_rv.mp4	0.0	129.66754698753357	1.0001790523529053
12	88.5465760231018	pulse	0	t		10.0	2.5	/experiments/knapen_AOT/AOT_stimuli/rescaled_final/0596_rv.mp4	0.0	129.85110306739807	
12	89.36319899559021	movie	1		243	10.0	2.5	/experiments/knapen_AOT/AOT_stimuli/rescaled_final/0596_rv.mp4	0.0	130.66772603988647	2.500540018081665
12	90.1468141078949	pulse	1	t		10.0	2.5	/experiments/knapen_AOT/AOT_stimuli/rescaled_final/0596_rv.mp4	0.0	131.45134115219116	
12	91.74705195426941	pulse	1	t		10.0	2.5	/experiments/knapen_AOT/AOT_stimuli/rescaled_final/0596_rv.mp4	0.0	133.05157899856567	
12	91.86373901367188	fix_post	2		10	10.0	2.5	/experiments/knapen_AOT/AOT_stimuli/rescaled_final/0596_rv.mp4	0.0	133.16826605796814	0.0998849868774414
13	91.96362400054932	fix_pre	0		120	11.0	2.5	/experiments/knapen_AOT/AOT_stimuli/rescaled_final/0666_rv.mp4	0.0	133.26815104484558	1.000133991241455
13	92.96375799179077	movie	1		241	11.0	2.5	/experiments/knapen_AOT/AOT_stimuli/rescaled_final/0666_rv.mp4	0.0	134.26828503608704	2.492110013961792
13	93.34799003601074	pulse	1	t		11.0	2.5	/experiments/knapen_AOT/AOT_stimuli/rescaled_final/0666_rv.mp4	0.0	134.652517080307	
13	94.94749712944031	pulse	1	t		11.0	2.5	/experiments/knapen_AOT/AOT_stimuli/rescaled_final/0666_rv.mp4	0.0	136.25202417373657	
13	95.45586800575256	fix_post	2		12	11.0	2.5	/experiments/knapen_AOT/AOT_stimuli/rescaled_final/0666_rv.mp4	0.0	136.76039505004883	0.0998990535736084
14	95.55576705932617	fix_pre	0		120	12.0	2.5	/experiments/knapen_AOT/AOT_stimuli/rescaled_final/1773_rv.mp4	0.0	136.86029410362244	1.0001099109649658
14	96.54786109924316	pulse	0	t		12.0	2.5	/experiments/knapen_AOT/AOT_stimuli/rescaled_final/1773_rv.mp4	0.0	137.85238814353943	
14	96.55587697029114	movie	1		243	12.0	2.5	/experiments/knapen_AOT/AOT_stimuli/rescaled_final/1773_rv.mp4	0.0	137.8604040145874	2.508815050125122
14	98.14884305000305	pulse	1	t		12.0	2.5	/experiments/knapen_AOT/AOT_stimuli/rescaled_final/1773_rv.mp4	0.0	139.45337009429932	
14	99.06469202041626	fix_post	2		12	12.0	2.5	/experiments/knapen_AOT/AOT_stimuli/rescaled_final/1773_rv.mp4	0.0	140.36921906471252	0.09998297691345215
15	99.16467499732971	fix_pre	0		120	13.0	2.5	blank	1.0	140.46920204162598	1.0001461505889893
15	99.74083209037781	pulse	0	t		13.0	2.5	blank	1.0	141.04535913467407	
15	100.1648211479187	movie	1		300	13.0	2.5	blank	1.0	141.46934819221497	2.5003468990325928
15	101.3411340713501	pulse	1	t		13.0	2.5	blank	1.0	142.64566111564636	
15	102.6651680469513	fix_post	2		12	13.0	2.5	blank	1.0	143.96969509124756	0.10001993179321289
16	102.7651879787445	fix_pre	0		120	14.0	2.5	/experiments/knapen_AOT/AOT_stimuli/rescaled_final/1866_rv.mp4	0.0	144.06971502304077	1.0001380443572998
16	102.94133305549622	pulse	0	t		14.0	2.5	/experiments/knapen_AOT/AOT_stimuli/rescaled_final/1866_rv.mp4	0.0	144.24586009979248	
16	103.7653260231018	movie	1		243	14.0	2.5	/experiments/knapen_AOT/AOT_stimuli/rescaled_final/1866_rv.mp4	0.0	145.06985306739807	2.500572919845581
16	104.54153800010681	pulse	1	t		14.0	2.5	/experiments/knapen_AOT/AOT_stimuli/rescaled_final/1866_rv.mp4	0.0	145.84606504440308	
16	106.14115810394287	pulse	1	t		14.0	2.5	/experiments/knapen_AOT/AOT_stimuli/rescaled_final/1866_rv.mp4	0.0	147.44568514823914	
16	106.26589894294739	fix_post	2		12	14.0	2.5	/experiments/knapen_AOT/AOT_stimuli/rescaled_final/1866_rv.mp4	0.0	147.57042598724365	0.09982800483703613
17	106.36572694778442	fix_pre	0		120	15.0	2.5	/experiments/knapen_AOT/AOT_stimuli/rescaled_final/0526_fw.mp4	0.0	147.6702539920807	1.000115156173706
17	107.36584210395813	movie	1		242	15.0	2.5	/experiments/knapen_AOT/AOT_stimuli/rescaled_final/0526_fw.mp4	0.0	148.6703691482544	2.492100954055786
17	107.74126601219177	pulse	1	t		15.0	2.5	/experiments/knapen_AOT/AOT_stimuli/rescaled_final/0526_fw.mp4	0.0	149.04579305648804	
17	109.34138202667236	pulse	1	t		15.0	2.5	/experiments/knapen_AOT/AOT_stimuli/rescaled_final/0526_fw.mp4	0.0	150.64590907096863	
17	109.85794305801392	fix_post	2		12	15.0	2.5	/experiments/knapen_AOT/AOT_stimuli/rescaled_final/0526_fw.mp4	0.0	151.16247010231018	0.09995698928833008
18	109.95790004730225	fix_pre	0		119	16.0	2.5	/experiments/knapen_AOT/AOT_stimuli/rescaled_final/1851_rv.mp4	0.0	151.2624270915985	0.9919290542602539
18	110.94153308868408	pulse	0	t		16.0	2.5	/experiments/knapen_AOT/AOT_stimuli/rescaled_final/1851_rv.mp4	0.0	152.24606013298035	
18	110.9498291015625	movie	1		244	16.0	2.5	/experiments/knapen_AOT/AOT_stimuli/rescaled_final/1851_rv.mp4	0.0	152.25435614585876	2.508664846420288
18	112.54245805740356	pulse	1	t		16.0	2.5	/experiments/knapen_AOT/AOT_stimuli/rescaled_final/1851_rv.mp4	0.0	153.84698510169983	
18	113.45849394798279	fix_post	2		12	16.0	2.5	/experiments/knapen_AOT/AOT_stimuli/rescaled_final/1851_rv.mp4	0.0	154.76302099227905	0.09993219375610352
19	113.55842614173889	fix_pre	0		120	17.0	2.5	/experiments/knapen_AOT/AOT_stimuli/rescaled_final/1319_fw.mp4	0.0	154.86295318603516	1.0001869201660156
19	114.14205598831177	pulse	0	t		17.0	2.5	/experiments/knapen_AOT/AOT_stimuli/rescaled_final/1319_fw.mp4	0.0	155.44658303260803	
19	114.55861306190491	movie	1		244	17.0	2.5	/experiments/knapen_AOT/AOT_stimuli/rescaled_final/1319_fw.mp4	0.0	155.86314010620117	2.5004260540008545
19	115.74245810508728	pulse	1	t		17.0	2.5	/experiments/knapen_AOT/AOT_stimuli/rescaled_final/1319_fw.mp4	0.0	157.04698514938354	
19	117.05903911590576	fix_post	2		12	17.0	2.5	/experiments/knapen_AOT/AOT_stimuli/rescaled_final/1319_fw.mp4	0.0	158.36356616020203	0.09994888305664062
20	117.1589879989624	fix_pre	0		120	18.0	2.5	/experiments/knapen_AOT/AOT_stimuli/rescaled_final/0526_rv.mp4	0.0	158.46351504325867	1.0001940727233887
20	117.34254312515259	pulse	0	t		18.0	2.5	/experiments/knapen_AOT/AOT_stimuli/rescaled_final/0526_rv.mp4	0.0	158.64707016944885	
20	118.15918207168579	movie	1		243	18.0	2.5	/experiments/knapen_AOT/AOT_stimuli/rescaled_final/0526_rv.mp4	0.0	159.46370911598206	2.5003600120544434
20	118.9427580833435	pulse	1	t		18.0	2.5	/experiments/knapen_AOT/AOT_stimuli/rescaled_final/0526_rv.mp4	0.0	160.24728512763977	
20	120.54322695732117	pulse	1	t		18.0	2.5	/experiments/knapen_AOT/AOT_stimuli/rescaled_final/0526_rv.mp4	0.0	161.84775400161743	
20	120.65954208374023	fix_post	2		12	18.0	2.5	/experiments/knapen_AOT/AOT_stimuli/rescaled_final/0526_rv.mp4	0.0	161.9640691280365	0.09995698928833008
21	120.75949907302856	fix_pre	0		120	19.0	2.5	/experiments/knapen_AOT/AOT_stimuli/rescaled_final/2123_rv.mp4	0.0	162.06402611732483	1.0001800060272217
21	121.75967907905579	movie	1		241	19.0	2.5	/experiments/knapen_AOT/AOT_stimuli/rescaled_final/2123_rv.mp4	0.0	163.06420612335205	2.4921000003814697
21	122.14391207695007	pulse	1	t		19.0	2.5	/experiments/knapen_AOT/AOT_stimuli/rescaled_final/2123_rv.mp4	0.0	163.44843912124634	
21	123.74360513687134	pulse	1	t		19.0	2.5	/experiments/knapen_AOT/AOT_stimuli/rescaled_final/2123_rv.mp4	0.0	165.0481321811676	
21	124.25177907943726	fix_post	2		12	19.0	2.5	/experiments/knapen_AOT/AOT_stimuli/rescaled_final/2123_rv.mp4	0.0	165.55630612373352	0.09996509552001953
22	124.35174417495728	fix_pre	0		120	20.0	2.5	/experiments/knapen_AOT/AOT_stimuli/rescaled_final/2099_fw.mp4	0.0	165.65627121925354	1.0001418590545654
22	125.34368395805359	pulse	0	t		20.0	2.5	/experiments/knapen_AOT/AOT_stimuli/rescaled_final/2099_fw.mp4	0.0	166.64821100234985	
22	125.35188603401184	movie	1		244	20.0	2.5	/experiments/knapen_AOT/AOT_stimuli/rescaled_final/2099_fw.mp4	0.0	166.6564130783081	2.508678913116455
22	126.94453310966492	pulse	1	t		20.0	2.5	/experiments/knapen_AOT/AOT_stimuli/rescaled_final/2099_fw.mp4	0.0	168.24906015396118	
22	127.8605649471283	fix_post	2		12	20.0	2.5	/experiments/knapen_AOT/AOT_stimuli/rescaled_final/2099_fw.mp4	0.0	169.16509199142456	0.10003399848937988
23	127.96059894561768	fix_pre	0		120	21.0	2.5	blank	1.0	169.26512598991394	1.0001370906829834
23	128.54431200027466	pulse	0	t		21.0	2.5	blank	1.0	169.84883904457092	
23	128.96073603630066	movie	1		300	21.0	2.5	blank	1.0	170.26526308059692	2.5004560947418213
23	130.14455795288086	pulse	1	t		21.0	2.5	blank	1.0	171.44908499717712	
23	131.46119213104248	fix_post	2		12	21.0	2.5	blank	1.0	172.76571917533875	0.09999299049377441
24	131.56118512153625	fix_pre	0		120	22.0	2.5	/experiments/knapen_AOT/AOT_stimuli/rescaled_final/0380_fw.mp4	0.0	172.86571216583252	1.0001440048217773
24	131.74473404884338	pulse	0	t		22.0	2.5	/experiments/knapen_AOT/AOT_stimuli/rescaled_final/0380_fw.mp4	0.0	173.04926109313965	
24	132.56132912635803	movie	1		242	22.0	2.5	/experiments/knapen_AOT/AOT_stimuli/rescaled_final/0380_fw.mp4	0.0	173.8658561706543	2.50050687789917
24	133.34488201141357	pulse	1	t		22.0	2.5	/experiments/knapen_AOT/AOT_stimuli/rescaled_final/0380_fw.mp4	0.0	174.64940905570984	
24	134.94638800621033	pulse	1	t		22.0	2.5	/experiments/knapen_AOT/AOT_stimuli/rescaled_final/0380_fw.mp4	0.0	176.2509150505066	
24	135.0618360042572	fix_post	2		12	22.0	2.5	/experiments/knapen_AOT/AOT_stimuli/rescaled_final/0380_fw.mp4	0.0	176.36636304855347	0.0998539924621582
25	135.16168999671936	fix_pre	0		119	23.0	2.5	/experiments/knapen_AOT/AOT_stimuli/rescaled_final/0299_rv.mp4	0.0	176.46621704101562	0.9918551445007324
25	136.1535451412201	movie	1		243	23.0	2.5	/experiments/knapen_AOT/AOT_stimuli/rescaled_final/0299_rv.mp4	0.0	177.45807218551636	2.5003929138183594
25	136.54559707641602	pulse	1	t		23.0	2.5	/experiments/knapen_AOT/AOT_stimuli/rescaled_final/0299_rv.mp4	0.0	177.85012412071228	
25	138.145751953125	pulse	1	t		23.0	2.5	/experiments/knapen_AOT/AOT_stimuli/rescaled_final/0299_rv.mp4	0.0	179.45027899742126	
25	138.65393805503845	fix_post	2		12	23.0	2.5	/experiments/knapen_AOT/AOT_stimuli/rescaled_final/0299_rv.mp4	0.0	179.95846509933472	0.09994101524353027
26	138.75387907028198	fix_pre	0		120	24.0	2.5	/experiments/knapen_AOT/AOT_stimuli/rescaled_final/0605_fw.mp4	0.0	180.05840611457825	1.0001790523529053
26	139.7458839416504	pulse	0	t		24.0	2.5	/experiments/knapen_AOT/AOT_stimuli/rescaled_final/0605_fw.mp4	0.0	181.05041098594666	
26	139.7540581226349	movie	1		243	24.0	2.5	/experiments/knapen_AOT/AOT_stimuli/rescaled_final/0605_fw.mp4	0.0	181.05858516693115	2.50872802734375
26	141.34677815437317	pulse	1	t		24.0	2.5	/experiments/knapen_AOT/AOT_stimuli/rescaled_final/0605_fw.mp4	0.0	182.65130519866943	
26	142.26278614997864	fix_post	2		12	24.0	2.5	/experiments/knapen_AOT/AOT_stimuli/rescaled_final/0605_fw.mp4	0.0	183.5673131942749	0.09997701644897461
27	142.3627631664276	fix_pre	0		120	25.0	2.5	/experiments/knapen_AOT/AOT_stimuli/rescaled_final/1019_fw.mp4	0.0	183.66729021072388	1.000119924545288
27	142.9465069770813	pulse	0	t		25.0	2.5	/experiments/knapen_AOT/AOT_stimuli/rescaled_final/1019_fw.mp4	0.0	184.25103402137756	
27	143.3628830909729	movie	1		244	25.0	2.5	/experiments/knapen_AOT/AOT_stimuli/rescaled_final/1019_fw.mp4	0.0	184.66741013526917	2.500455856323242
27	144.54668998718262	pulse	1	t		25.0	2.5	/experiments/knapen_AOT/AOT_stimuli/rescaled_final/1019_fw.mp4	0.0	185.85121703147888	
27	145.86333894729614	fix_post	2		12	25.0	2.5	/experiments/knapen_AOT/AOT_stimuli/rescaled_final/1019_fw.mp4	0.0	187.1678659915924	0.09998822212219238
28	145.96332716941833	fix_pre	0		120	26.0	2.5	blank	1.0	187.2678542137146	1.000152826309204
28	146.1468951702118	pulse	0	t		26.0	2.5	blank	1.0	187.45142221450806	
28	146.96347999572754	movie	1		300	26.0	2.5	blank	1.0	188.2680070400238	2.5003230571746826
28	147.74701809883118	pulse	1	t		26.0	2.5	blank	1.0	189.05154514312744	
28	149.3473219871521	pulse	1	t		26.0	2.5	blank	1.0	190.65184903144836	
28	149.46380305290222	fix_post	2		12	26.0	2.5	blank	1.0	190.7683300971985	0.10000205039978027
29	149.563805103302	fix_pre	0		119	27.0	2.5	/experiments/knapen_AOT/AOT_stimuli/rescaled_final/0128_rv.mp4	0.0	190.86833214759827	0.9918758869171143
29	150.55568099021912	movie	1		242	27.0	2.5	/experiments/knapen_AOT/AOT_stimuli/rescaled_final/0128_rv.mp4	0.0	191.86020803451538	2.517580986022949
29	150.94774913787842	pulse	1	t		27.0	2.5	/experiments/knapen_AOT/AOT_stimuli/rescaled_final/0128_rv.mp4	0.0	192.25227618217468	
29	152.54050207138062	pulse	1	t		27.0	2.5	/experiments/knapen_AOT/AOT_stimuli/rescaled_final/0128_rv.mp4	0.0	193.84502911567688	
29	153.07326197624207	fix_post	2		10	27.0	2.5	/experiments/knapen_AOT/AOT_stimuli/rescaled_final/0128_rv.mp4	0.0	194.37778902053833	0.0827791690826416
30	153.1560411453247	fix_pre	0		120	28.0	2.5	/experiments/knapen_AOT/AOT_stimuli/rescaled_final/1684_fw.mp4	0.0	194.46056818962097	1.0002028942108154
30	154.14057111740112	pulse	0	t		28.0	2.5	/experiments/knapen_AOT/AOT_stimuli/rescaled_final/1684_fw.mp4	0.0	195.4450981616974	
30	154.15624403953552	movie	1		244	28.0	2.5	/experiments/knapen_AOT/AOT_stimuli/rescaled_final/1684_fw.mp4	0.0	195.4607710838318	2.508660078048706
30	155.74966716766357	pulse	1	t		28.0	2.5	/experiments/knapen_AOT/AOT_stimuli/rescaled_final/1684_fw.mp4	0.0	197.05419421195984	
30	156.66490411758423	fix_post	2		12	28.0	2.5	/experiments/knapen_AOT/AOT_stimuli/rescaled_final/1684_fw.mp4	0.0	197.9694311618805	0.09997296333312988
31	156.76487708091736	fix_pre	0		120	29.0	2.5	/experiments/knapen_AOT/AOT_stimuli/rescaled_final/0298_rv.mp4	0.0	198.06940412521362	1.000169038772583
31	157.34107995033264	pulse	0	t		29.0	2.5	/experiments/knapen_AOT/AOT_stimuli/rescaled_final/0298_rv.mp4	0.0	198.6456069946289	
31	157.76504611968994	movie	1		242	29.0	2.5	/experiments/knapen_AOT/AOT_stimuli/rescaled_final/0298_rv.mp4	0.0	199.0695731639862	2.5005860328674316
31	158.94076204299927	pulse	1	t		29.0	2.5	/experiments/knapen_AOT/AOT_stimuli/rescaled_final/0298_rv.mp4	0.0	200.24528908729553	
31	160.26563215255737	fix_post	2		12	29.0	2.5	/experiments/knapen_AOT/AOT_stimuli/rescaled_final/0298_rv.mp4	0.0	201.57015919685364	0.09980988502502441
32	160.3654420375824	fix_pre	0		120	30.0	2.5	/experiments/knapen_AOT/AOT_stimuli/rescaled_final/1822_fw.mp4	0.0	201.66996908187866	1.0002081394195557
32	160.54085516929626	pulse	0	t		30.0	2.5	/experiments/knapen_AOT/AOT_stimuli/rescaled_final/1822_fw.mp4	0.0	201.84538221359253	
32	161.36565017700195	movie	1		241	30.0	2.5	/experiments/knapen_AOT/AOT_stimuli/rescaled_final/1822_fw.mp4	0.0	202.67017722129822	2.4921059608459473
32	162.14084315299988	pulse	1	t		30.0	2.5	/experiments/knapen_AOT/AOT_stimuli/rescaled_final/1822_fw.mp4	0.0	203.44537019729614	
32	163.74104595184326	pulse	1	t		30.0	2.5	/experiments/knapen_AOT/AOT_stimuli/rescaled_final/1822_fw.mp4	0.0	205.04557299613953	
32	163.8577561378479	fix_post	2		12	30.0	2.5	/experiments/knapen_AOT/AOT_stimuli/rescaled_final/1822_fw.mp4	0.0	205.16228318214417	0.09988188743591309
33	163.9576380252838	fix_pre	0		120	31.0	2.5	/experiments/knapen_AOT/AOT_stimuli/rescaled_final/1930_rv.mp4	0.0	205.26216506958008	1.000157117843628
33	164.95779514312744	movie	1		243	31.0	2.5	/experiments/knapen_AOT/AOT_stimuli/rescaled_final/1930_rv.mp4	0.0	206.2623221874237	2.5005548000335693
33	165.34184312820435	pulse	1	t		31.0	2.5	/experiments/knapen_AOT/AOT_stimuli/rescaled_final/1930_rv.mp4	0.0	206.6463701725006	
33	166.9417769908905	pulse	1	t		31.0	2.5	/experiments/knapen_AOT/AOT_stimuli/rescaled_final/1930_rv.mp4	0.0	208.24630403518677	
33	167.458349943161	fix_post	2		12	31.0	2.5	/experiments/knapen_AOT/AOT_stimuli/rescaled_final/1930_rv.mp4	0.0	208.76287698745728	0.09983205795288086
34	167.5581820011139	fix_pre	0		119	32.0	2.5	/experiments/knapen_AOT/AOT_stimuli/rescaled_final/1084_fw.mp4	0.0	208.86270904541016	0.9917910099029541
34	168.54194808006287	pulse	0	t		32.0	2.5	/experiments/knapen_AOT/AOT_stimuli/rescaled_final/1084_fw.mp4	0.0	209.84647512435913	
34	168.54997301101685	movie	1		244	32.0	2.5	/experiments/knapen_AOT/AOT_stimuli/rescaled_final/1084_fw.mp4	0.0	209.8545000553131	2.5088181495666504
34	170.14650917053223	pulse	1	t		32.0	2.5	/experiments/knapen_AOT/AOT_stimuli/rescaled_final/1084_fw.mp4	0.0	211.4510362148285	
34	171.0587911605835	fix_post	2		12	32.0	2.5	/experiments/knapen_AOT/AOT_stimuli/rescaled_final/1084_fw.mp4	0.0	212.36331820487976	0.0999908447265625
35	171.15878200531006	fix_pre	0		120	33.0	2.5	/experiments/knapen_AOT/AOT_stimuli/rescaled_final/2060_rv.mp4	0.0	212.46330904960632	1.0001029968261719
35	171.74228405952454	pulse	0	t		33.0	2.5	/experiments/knapen_AOT/AOT_stimuli/rescaled_final/2060_rv.mp4	0.0	213.0468111038208	
35	172.15888500213623	movie	1		242	33.0	2.5	/experiments/knapen_AOT/AOT_stimuli/rescaled_final/2060_rv.mp4	0.0	213.4634120464325	2.5004489421844482
35	173.34271502494812	pulse	1	t		33.0	2.5	/experiments/knapen_AOT/AOT_stimuli/rescaled_final/2060_rv.mp4	0.0	214.64724206924438	
35	174.65933394432068	fix_post	2		12	33.0	2.5	/experiments/knapen_AOT/AOT_stimuli/rescaled_final/2060_rv.mp4	0.0	215.96386098861694	0.09996604919433594
36	174.75929999351501	fix_pre	0		120	34.0	2.5	/experiments/knapen_AOT/AOT_stimuli/rescaled_final/0445_rv.mp4	0.0	216.06382703781128	1.0002110004425049
36	174.942969083786	pulse	0	t		34.0	2.5	/experiments/knapen_AOT/AOT_stimuli/rescaled_final/0445_rv.mp4	0.0	216.24749612808228	
36	175.75951099395752	movie	1		242	34.0	2.5	/experiments/knapen_AOT/AOT_stimuli/rescaled_final/0445_rv.mp4	0.0	217.06403803825378	2.5004520416259766
36	176.5430829524994	pulse	1	t		34.0	2.5	/experiments/knapen_AOT/AOT_stimuli/rescaled_final/0445_rv.mp4	0.0	217.84760999679565	
36	178.1431760787964	pulse	1	t		34.0	2.5	/experiments/knapen_AOT/AOT_stimuli/rescaled_final/0445_rv.mp4	0.0	219.44770312309265	
36	178.2599630355835	fix_post	2		12	34.0	2.5	/experiments/knapen_AOT/AOT_stimuli/rescaled_final/0445_rv.mp4	0.0	219.56449007987976	0.09981894493103027
37	178.35978198051453	fix_pre	0		120	35.0	2.5	blank	1.0	219.6643090248108	1.000162124633789
37	179.35994410514832	movie	1		299	35.0	2.5	blank	1.0	220.66447114944458	2.4920408725738525
37	179.74355506896973	pulse	1	t		35.0	2.5	blank	1.0	221.048082113266	
37	181.34385704994202	pulse	1	t		35.0	2.5	blank	1.0	222.64838409423828	
37	181.85198497772217	fix_post	2		12	35.0	2.5	blank	1.0	223.15651202201843	0.10005617141723633
38	181.9520411491394	fix_pre	0		120	36.0	2.5	/experiments/knapen_AOT/AOT_stimuli/rescaled_final/0664_rv.mp4	0.0	223.25656819343567	1.0001399517059326
38	182.9440460205078	pulse	0	t		36.0	2.5	/experiments/knapen_AOT/AOT_stimuli/rescaled_final/0664_rv.mp4	0.0	224.24857306480408	
38	182.95218110084534	movie	1		243	36.0	2.5	/experiments/knapen_AOT/AOT_stimuli/rescaled_final/0664_rv.mp4	0.0	224.2567081451416	2.508749008178711
38	184.54815196990967	pulse	1	t		36.0	2.5	/experiments/knapen_AOT/AOT_stimuli/rescaled_final/0664_rv.mp4	0.0	225.85267901420593	
38	185.46093010902405	fix_post	2		12	36.0	2.5	/experiments/knapen_AOT/AOT_stimuli/rescaled_final/0664_rv.mp4	0.0	226.7654571533203	0.09993791580200195
39	185.56086802482605	fix_pre	0		120	37.0	2.5	/experiments/knapen_AOT/AOT_stimuli/rescaled_final/1505_fw.mp4	0.0	226.86539506912231	1.000133991241455
39	186.14451217651367	pulse	0	t		37.0	2.5	/experiments/knapen_AOT/AOT_stimuli/rescaled_final/1505_fw.mp4	0.0	227.44903922080994	
39	186.5610020160675	movie	1		243	37.0	2.5	/experiments/knapen_AOT/AOT_stimuli/rescaled_final/1505_fw.mp4	0.0	227.86552906036377	2.500375986099243
39	187.74484705924988	pulse	1	t		37.0	2.5	/experiments/knapen_AOT/AOT_stimuli/rescaled_final/1505_fw.mp4	0.0	229.04937410354614	
39	189.06137800216675	fix_post	2		12	37.0	2.5	/experiments/knapen_AOT/AOT_stimuli/rescaled_final/1505_fw.mp4	0.0	230.365905046463	0.10002613067626953
40	189.16140413284302	fix_pre	0		120	38.0	2.5	/experiments/knapen_AOT/AOT_stimuli/rescaled_final/0179_fw.mp4	0.0	230.46593117713928	1.000269889831543
40	189.34489703178406	pulse	0	t		38.0	2.5	/experiments/knapen_AOT/AOT_stimuli/rescaled_final/0179_fw.mp4	0.0	230.64942407608032	
40	190.16167402267456	movie	1		242	38.0	2.5	/experiments/knapen_AOT/AOT_stimuli/rescaled_final/0179_fw.mp4	0.0	231.46620106697083	2.500368118286133
40	190.94515204429626	pulse	1	t		38.0	2.5	/experiments/knapen_AOT/AOT_stimuli/rescaled_final/0179_fw.mp4	0.0	232.24967908859253	
40	192.54529094696045	pulse	1	t		38.0	2.5	/experiments/knapen_AOT/AOT_stimuli/rescaled_final/0179_fw.mp4	0.0	233.8498179912567	
40	192.6620421409607	fix_post	2		12	38.0	2.5	/experiments/knapen_AOT/AOT_stimuli/rescaled_final/0179_fw.mp4	0.0	233.96656918525696	0.0999000072479248
41	192.76194214820862	fix_pre	0		120	39.0	2.5	/experiments/knapen_AOT/AOT_stimuli/rescaled_final/1065_fw.mp4	0.0	234.06646919250488	1.000257968902588
41	193.7622001171112	movie	1		242	39.0	2.5	/experiments/knapen_AOT/AOT_stimuli/rescaled_final/1065_fw.mp4	0.0	235.06672716140747	2.492136001586914
41	194.1464581489563	pulse	1	t		39.0	2.5	/experiments/knapen_AOT/AOT_stimuli/rescaled_final/1065_fw.mp4	0.0	235.45098519325256	
41	195.74595403671265	pulse	1	t		39.0	2.5	/experiments/knapen_AOT/AOT_stimuli/rescaled_final/1065_fw.mp4	0.0	237.0504810810089	
41	196.25433611869812	fix_post	2		12	39.0	2.5	/experiments/knapen_AOT/AOT_stimuli/rescaled_final/1065_fw.mp4	0.0	237.55886316299438	0.09984493255615234
42	196.35418105125427	fix_pre	0		120	40.0	2.5	/experiments/knapen_AOT/AOT_stimuli/rescaled_final/0081_rv.mp4	0.0	237.65870809555054	1.000108003616333
42	197.34609508514404	pulse	0	t		40.0	2.5	/experiments/knapen_AOT/AOT_stimuli/rescaled_final/0081_rv.mp4	0.0	238.6506221294403	
42	197.3542890548706	movie	1		243	40.0	2.5	/experiments/knapen_AOT/AOT_stimuli/rescaled_final/0081_rv.mp4	0.0	238.65881609916687	2.508744955062866
42	198.9469699859619	pulse	1	t		40.0	2.5	/experiments/knapen_AOT/AOT_stimuli/rescaled_final/0081_rv.mp4	0.0	240.25149703025818	
42	199.86303400993347	fix_post	2		12	40.0	2.5	/experiments/knapen_AOT/AOT_stimuli/rescaled_final/0081_rv.mp4	0.0	241.16756105422974	0.09995603561401367
43	199.96299004554749	fix_pre	0		120	41.0	2.5	/experiments/knapen_AOT/AOT_stimuli/rescaled_final/1697_rv.mp4	0.0	241.26751708984375	1.000227928161621
43	200.54663515090942	pulse	0	t		41.0	2.5	/experiments/knapen_AOT/AOT_stimuli/rescaled_final/1697_rv.mp4	0.0	241.8511621952057	
43	200.9632179737091	movie	1		242	41.0	2.5	/experiments/knapen_AOT/AOT_stimuli/rescaled_final/1697_rv.mp4	0.0	242.26774501800537	2.5004329681396484
43	202.14693307876587	pulse	1	t		41.0	2.5	/experiments/knapen_AOT/AOT_stimuli/rescaled_final/1697_rv.mp4	0.0	243.45146012306213	
43	203.46365094184875	fix_post	2		12	41.0	2.5	/experiments/knapen_AOT/AOT_stimuli/rescaled_final/1697_rv.mp4	0.0	244.76817798614502	0.09990215301513672
44	203.5635530948639	fix_pre	0		120	42.0	2.5	blank	1.0	244.86808013916016	1.0002169609069824
44	203.74709796905518	pulse	0	t		42.0	2.5	blank	1.0	245.05162501335144	
44	204.56377005577087	movie	1		300	42.0	2.5	blank	1.0	245.86829710006714	2.5003321170806885
44	205.34745907783508	pulse	1	t		42.0	2.5	blank	1.0	246.65198612213135	
44	206.94759011268616	pulse	1	t		42.0	2.5	blank	1.0	248.25211715698242	
44	207.06410217285156	fix_post	2		12	42.0	2.5	blank	1.0	248.36862921714783	0.10009479522705078
45	207.1641969680786	fix_pre	0		120	43.0	2.5	/experiments/knapen_AOT/AOT_stimuli/rescaled_final/1982_rv.mp4	0.0	248.46872401237488	1.000089168548584
45	208.1642861366272	movie	1		241	43.0	2.5	/experiments/knapen_AOT/AOT_stimuli/rescaled_final/1982_rv.mp4	0.0	249.46881318092346	2.492110013961792
45	208.5483980178833	pulse	1	t		43.0	2.5	/experiments/knapen_AOT/AOT_stimuli/rescaled_final/1982_rv.mp4	0.0	249.85292506217957	
45	210.14807415008545	pulse	1	t		43.0	2.5	/experiments/knapen_AOT/AOT_stimuli/rescaled_final/1982_rv.mp4	0.0	251.4526011943817	
45	210.656396150589	fix_post	2		12	43.0	2.5	/experiments/knapen_AOT/AOT_stimuli/rescaled_final/1982_rv.mp4	0.0	251.96092319488525	0.0999138355255127
46	210.7563099861145	fix_pre	0		120	44.0	2.5	/experiments/knapen_AOT/AOT_stimuli/rescaled_final/0948_fw.mp4	0.0	252.06083703041077	1.0001239776611328
46	211.74838399887085	pulse	0	t		44.0	2.5	/experiments/knapen_AOT/AOT_stimuli/rescaled_final/0948_fw.mp4	0.0	253.05291104316711	
46	211.75643396377563	movie	1		243	44.0	2.5	/experiments/knapen_AOT/AOT_stimuli/rescaled_final/0948_fw.mp4	0.0	253.0609610080719	2.508833169937134
46	213.34985899925232	pulse	1	t		44.0	2.5	/experiments/knapen_AOT/AOT_stimuli/rescaled_final/0948_fw.mp4	0.0	254.65438604354858	
46	214.26526713371277	fix_post	2		12	44.0	2.5	/experiments/knapen_AOT/AOT_stimuli/rescaled_final/0948_fw.mp4	0.0	255.56979417800903	0.09992790222167969
47	214.36519503593445	fix_pre	0		120	45.0	2.5	/experiments/knapen_AOT/AOT_stimuli/rescaled_final/1615_fw.mp4	0.0	255.6697220802307	1.0001211166381836
47	214.9413239955902	pulse	0	t		45.0	2.5	/experiments/knapen_AOT/AOT_stimuli/rescaled_final/1615_fw.mp4	0.0	256.2458510398865	
47	215.36531615257263	movie	1		239	45.0	2.5	/experiments/knapen_AOT/AOT_stimuli/rescaled_final/1615_fw.mp4	0.0	256.6698431968689	2.5003550052642822
47	216.5490620136261	pulse	1	t		45.0	2.5	/experiments/knapen_AOT/AOT_stimuli/rescaled_final/1615_fw.mp4	0.0	257.85358905792236	
47	217.8656711578369	fix_post	2		12	45.0	2.5	/experiments/knapen_AOT/AOT_stimuli/rescaled_final/1615_fw.mp4	0.0	259.1701982021332	0.10001087188720703
48	217.96568202972412	fix_pre	0		120	46.0	2.5	/experiments/knapen_AOT/AOT_stimuli/rescaled_final/0836_rv.mp4	0.0	259.2702090740204	1.0001411437988281
48	218.1408989429474	pulse	0	t		46.0	2.5	/experiments/knapen_AOT/AOT_stimuli/rescaled_final/0836_rv.mp4	0.0	259.44542598724365	
48	218.96582317352295	movie	1		242	46.0	2.5	/experiments/knapen_AOT/AOT_stimuli/rescaled_final/0836_rv.mp4	0.0	260.2703502178192	2.500562906265259
48	219.741112947464	pulse	1	t		46.0	2.5	/experiments/knapen_AOT/AOT_stimuli/rescaled_final/0836_rv.mp4	0.0	261.04563999176025	
48	221.34151101112366	pulse	1	t		46.0	2.5	/experiments/knapen_AOT/AOT_stimuli/rescaled_final/0836_rv.mp4	0.0	262.6460380554199	
48	221.4663860797882	fix_post	2		12	46.0	2.5	/experiments/knapen_AOT/AOT_stimuli/rescaled_final/0836_rv.mp4	0.0	262.7709131240845	0.09989500045776367
49	221.56628108024597	fix_pre	0		120	47.0	2.5	/experiments/knapen_AOT/AOT_stimuli/rescaled_final/0608_fw.mp4	0.0	262.87080812454224	1.0000810623168945
49	222.56636214256287	movie	1		241	47.0	2.5	/experiments/knapen_AOT/AOT_stimuli/rescaled_final/0608_fw.mp4	0.0	263.87088918685913	2.4921858310699463
49	222.94172716140747	pulse	1	t		47.0	2.5	/experiments/knapen_AOT/AOT_stimuli/rescaled_final/0608_fw.mp4	0.0	264.24625420570374	
49	224.54187607765198	pulse	1	t		47.0	2.5	/experiments/knapen_AOT/AOT_stimuli/rescaled_final/0608_fw.mp4	0.0	265.84640312194824	
49	225.0585479736328	fix_post	2		12	47.0	2.5	/experiments/knapen_AOT/AOT_stimuli/rescaled_final/0608_fw.mp4	0.0	266.3630750179291	0.09996318817138672
50	225.1585111618042	fix_pre	0		119	48.0	2.5	blank	1.0	266.46303820610046	0.9918270111083984
50	226.14206194877625	pulse	0	t		48.0	2.5	blank	1.0	267.4465889930725	
50	226.1503381729126	movie	1		301	48.0	2.5	blank	1.0	267.45486521720886	2.5086488723754883
50	227.74246907234192	pulse	1	t		48.0	2.5	blank	1.0	269.0469961166382	
50	228.6589870452881	fix_post	2		12	48.0	2.5	blank	1.0	269.96351408958435	0.09999608993530273
51	228.7589831352234	fix_pre	0		120	49.0	2.5	/experiments/knapen_AOT/AOT_stimuli/rescaled_final/1516_fw.mp4	0.0	270.06351017951965	1.0001769065856934
51	229.34255504608154	pulse	0	t		49.0	2.5	/experiments/knapen_AOT/AOT_stimuli/rescaled_final/1516_fw.mp4	0.0	270.6470820903778	
51	229.75916004180908	movie	1		243	49.0	2.5	/experiments/knapen_AOT/AOT_stimuli/rescaled_final/1516_fw.mp4	0.0	271.06368708610535	2.5004069805145264
51	230.9428961277008	pulse	1	t		49.0	2.5	/experiments/knapen_AOT/AOT_stimuli/rescaled_final/1516_fw.mp4	0.0	272.24742317199707	
51	232.2595670223236	fix_post	2		12	49.0	2.5	/experiments/knapen_AOT/AOT_stimuli/rescaled_final/1516_fw.mp4	0.0	273.5640940666199	0.09998011589050293
52	232.3595471382141	fix_pre	0		120	50.0	2.5	/experiments/knapen_AOT/AOT_stimuli/rescaled_final/0999_rv.mp4	0.0	273.6640741825104	1.0001418590545654
52	232.5430109500885	pulse	0	t		50.0	2.5	/experiments/knapen_AOT/AOT_stimuli/rescaled_final/0999_rv.mp4	0.0	273.84753799438477	
52	233.35968899726868	movie	1		243	50.0	2.5	/experiments/knapen_AOT/AOT_stimuli/rescaled_final/0999_rv.mp4	0.0	274.66421604156494	2.5005600452423096
52	234.14339113235474	pulse	1	t		50.0	2.5	/experiments/knapen_AOT/AOT_stimuli/rescaled_final/0999_rv.mp4	0.0	275.447918176651	
52	235.7433681488037	pulse	1	t		50.0	2.5	/experiments/knapen_AOT/AOT_stimuli/rescaled_final/0999_rv.mp4	0.0	277.0478951931	
52	235.860249042511	fix_post	2		12	50.0	2.5	/experiments/knapen_AOT/AOT_stimuli/rescaled_final/0999_rv.mp4	0.0	277.16477608680725	0.09992790222167969
53	235.96017694473267	fix_pre	0		119	51.0	2.5	/experiments/knapen_AOT/AOT_stimuli/rescaled_final/0338_rv.mp4	0.0	277.26470398902893	0.9916732311248779
53	236.95185017585754	movie	1		243	51.0	2.5	/experiments/knapen_AOT/AOT_stimuli/rescaled_final/0338_rv.mp4	0.0	278.2563772201538	2.5004208087921143
53	237.3438379764557	pulse	1	t		51.0	2.5	/experiments/knapen_AOT/AOT_stimuli/rescaled_final/0338_rv.mp4	0.0	278.64836502075195	
53	238.94397711753845	pulse	1	t		51.0	2.5	/experiments/knapen_AOT/AOT_stimuli/rescaled_final/0338_rv.mp4	0.0	280.2485041618347	
53	239.45227098464966	fix_post	2		12	51.0	2.5	/experiments/knapen_AOT/AOT_stimuli/rescaled_final/0338_rv.mp4	0.0	280.7567980289459	0.09999299049377441
54	239.55226397514343	fix_pre	0		120	52.0	2.5	/experiments/knapen_AOT/AOT_stimuli/rescaled_final/1929_rv.mp4	0.0	280.8567910194397	1.0001389980316162
54	240.5442340373993	pulse	0	t		52.0	2.5	/experiments/knapen_AOT/AOT_stimuli/rescaled_final/1929_rv.mp4	0.0	281.84876108169556	
54	240.55240297317505	movie	1		245	52.0	2.5	/experiments/knapen_AOT/AOT_stimuli/rescaled_final/1929_rv.mp4	0.0	281.8569300174713	2.5087599754333496
54	242.14499616622925	pulse	1	t		52.0	2.5	/experiments/knapen_AOT/AOT_stimuli/rescaled_final/1929_rv.mp4	0.0	283.4495232105255	
54	243.0611629486084	fix_post	2		12	52.0	2.5	/experiments/knapen_AOT/AOT_stimuli/rescaled_final/1929_rv.mp4	0.0	284.36568999290466	0.10001921653747559
55	243.16118216514587	fix_pre	0		120	53.0	2.5	/experiments/knapen_AOT/AOT_stimuli/rescaled_final/0179_rv.mp4	0.0	284.46570920944214	1.0001308917999268
55	243.7448480129242	pulse	0	t		53.0	2.5	/experiments/knapen_AOT/AOT_stimuli/rescaled_final/0179_rv.mp4	0.0	285.04937505722046	
55	244.1613130569458	movie	1		242	53.0	2.5	/experiments/knapen_AOT/AOT_stimuli/rescaled_final/0179_rv.mp4	0.0	285.46584010124207	2.500559091567993
55	245.3450620174408	pulse	1	t		53.0	2.5	/experiments/knapen_AOT/AOT_stimuli/rescaled_final/0179_rv.mp4	0.0	286.64958906173706	
55	246.6618721485138	fix_post	2		12	53.0	2.5	/experiments/knapen_AOT/AOT_stimuli/rescaled_final/0179_rv.mp4	0.0	287.96639919281006	0.09984183311462402
56	246.76171398162842	fix_pre	0		120	54.0	2.5	/experiments/knapen_AOT/AOT_stimuli/rescaled_final/1651_rv.mp4	0.0	288.0662410259247	1.000089168548584
56	246.9452769756317	pulse	0	t		54.0	2.5	/experiments/knapen_AOT/AOT_stimuli/rescaled_final/1651_rv.mp4	0.0	288.249804019928	
56	247.761803150177	movie	1		242	54.0	2.5	/experiments/knapen_AOT/AOT_stimuli/rescaled_final/1651_rv.mp4	0.0	289.06633019447327	2.5005710124969482
56	248.54552507400513	pulse	1	t		54.0	2.5	/experiments/knapen_AOT/AOT_stimuli/rescaled_final/1651_rv.mp4	0.0	289.8500521183014	
56	250.14691495895386	pulse	1	t		54.0	2.5	/experiments/knapen_AOT/AOT_stimuli/rescaled_final/1651_rv.mp4	0.0	291.4514420032501	
56	250.26237416267395	fix_post	2		12	54.0	2.5	/experiments/knapen_AOT/AOT_stimuli/rescaled_final/1651_rv.mp4	0.0	291.5669012069702	0.09988999366760254
57	250.36226415634155	fix_pre	0		120	55.0	2.5	/experiments/knapen_AOT/AOT_stimuli/rescaled_final/1224_fw.mp4	0.0	291.6667912006378	1.0001168251037598
57	251.3623809814453	movie	1		242	55.0	2.5	/experiments/knapen_AOT/AOT_stimuli/rescaled_final/1224_fw.mp4	0.0	292.6669080257416	2.492194175720215
57	251.7462980747223	pulse	1	t		55.0	2.5	/experiments/knapen_AOT/AOT_stimuli/rescaled_final/1224_fw.mp4	0.0	293.05082511901855	
57	253.3461480140686	pulse	1	t		55.0	2.5	/experiments/knapen_AOT/AOT_stimuli/rescaled_final/1224_fw.mp4	0.0	294.65067505836487	
57	253.85457515716553	fix_post	2		12	55.0	2.5	/experiments/knapen_AOT/AOT_stimuli/rescaled_final/1224_fw.mp4	0.0	295.1591022014618	0.09989595413208008
58	253.9544711112976	fix_pre	0		120	56.0	2.5	blank	1.0	295.2589981555939	1.0000438690185547
58	254.94651198387146	pulse	0	t		56.0	2.5	blank	1.0	296.2510390281677	
58	254.95451498031616	movie	1		301	56.0	2.5	blank	1.0	296.2590420246124	2.50886607170105
58	256.546688079834	pulse	1	t		56.0	2.5	blank	1.0	297.85121512413025	
58	257.4633810520172	fix_post	2		12	56.0	2.5	blank	1.0	298.7679080963135	0.09998607635498047
59	257.5633671283722	fix_pre	0		120	57.0	2.5	/experiments/knapen_AOT/AOT_stimuli/rescaled_final/0836_fw.mp4	0.0	298.86789417266846	1.0001490116119385
59	258.1469931602478	pulse	0	t		57.0	2.5	/experiments/knapen_AOT/AOT_stimuli/rescaled_final/0836_fw.mp4	0.0	299.45152020454407	
59	258.56351613998413	movie	1		242	57.0	2.5	/experiments/knapen_AOT/AOT_stimuli/rescaled_final/0836_fw.mp4	0.0	299.8680431842804	2.5004019737243652
59	259.7471811771393	pulse	1	t		57.0	2.5	/experiments/knapen_AOT/AOT_stimuli/rescaled_final/0836_fw.mp4	0.0	301.05170822143555	
59	261.0639181137085	fix_post	2		12	57.0	2.5	/experiments/knapen_AOT/AOT_stimuli/rescaled_final/0836_fw.mp4	0.0	302.36844515800476	0.09989190101623535
60	261.16381001472473	fix_pre	0		120	58.0	2.5	/experiments/knapen_AOT/AOT_stimuli/rescaled_final/1122_rv.mp4	0.0	302.468337059021	1.0001370906829834
60	261.34740805625916	pulse	0	t		58.0	2.5	/experiments/knapen_AOT/AOT_stimuli/rescaled_final/1122_rv.mp4	0.0	302.6519351005554	
60	262.1639471054077	movie	1		243	58.0	2.5	/experiments/knapen_AOT/AOT_stimuli/rescaled_final/1122_rv.mp4	0.0	303.468474149704	2.5005719661712646
60	262.94768500328064	pulse	1	t		58.0	2.5	/experiments/knapen_AOT/AOT_stimuli/rescaled_final/1122_rv.mp4	0.0	304.2522120475769	
60	264.54775309562683	pulse	1	t		58.0	2.5	/experiments/knapen_AOT/AOT_stimuli/rescaled_final/1122_rv.mp4	0.0	305.8522801399231	
60	264.664519071579	fix_post	2		12	58.0	2.5	/experiments/knapen_AOT/AOT_stimuli/rescaled_final/1122_rv.mp4	0.0	305.96904611587524	0.0998990535736084
61	264.7644181251526	fix_pre	0		120	59.0	2.5	/experiments/knapen_AOT/AOT_stimuli/rescaled_final/0307_rv.mp4	0.0	306.06894516944885	1.0001208782196045
61	265.7645390033722	movie	1		241	59.0	2.5	/experiments/knapen_AOT/AOT_stimuli/rescaled_final/0307_rv.mp4	0.0	307.06906604766846	2.4922120571136475
61	266.1493310928345	pulse	1	t		59.0	2.5	/experiments/knapen_AOT/AOT_stimuli/rescaled_final/0307_rv.mp4	0.0	307.45385813713074	
61	267.7410640716553	pulse	1	t		59.0	2.5	/experiments/knapen_AOT/AOT_stimuli/rescaled_final/0307_rv.mp4	0.0	309.04559111595154	
61	268.25675106048584	fix_post	2		12	59.0	2.5	/experiments/knapen_AOT/AOT_stimuli/rescaled_final/0307_rv.mp4	0.0	309.5612781047821	0.0998539924621582
62	268.356605052948	fix_pre	0		120	60.0	2.5	/experiments/knapen_AOT/AOT_stimuli/rescaled_final/2044_rv.mp4	0.0	309.66113209724426	1.0001130104064941
62	269.3410439491272	pulse	0	t		60.0	2.5	/experiments/knapen_AOT/AOT_stimuli/rescaled_final/2044_rv.mp4	0.0	310.64557099342346	
62	269.3567180633545	movie	1		244	60.0	2.5	/experiments/knapen_AOT/AOT_stimuli/rescaled_final/2044_rv.mp4	0.0	310.66124510765076	2.508876085281372
62	270.95355796813965	pulse	1	t		60.0	2.5	/experiments/knapen_AOT/AOT_stimuli/rescaled_final/2044_rv.mp4	0.0	312.2580850124359	
62	271.86559414863586	fix_post	2		12	60.0	2.5	/experiments/knapen_AOT/AOT_stimuli/rescaled_final/2044_rv.mp4	0.0	313.17012119293213	0.09990096092224121
63	271.9654951095581	fix_pre	0		120	61.0	2.5	/experiments/knapen_AOT/AOT_stimuli/rescaled_final/0797_fw.mp4	0.0	313.27002215385437	1.000135898590088
63	272.5415771007538	pulse	0	t		61.0	2.5	/experiments/knapen_AOT/AOT_stimuli/rescaled_final/0797_fw.mp4	0.0	313.84610414505005	
63	272.9656310081482	movie	1		243	61.0	2.5	/experiments/knapen_AOT/AOT_stimuli/rescaled_final/0797_fw.mp4	0.0	314.27015805244446	2.5003950595855713
63	274.1416630744934	pulse	1	t		61.0	2.5	/experiments/knapen_AOT/AOT_stimuli/rescaled_final/0797_fw.mp4	0.0	315.4461901187897	
63	275.46602606773376	fix_post	2		12	61.0	2.5	/experiments/knapen_AOT/AOT_stimuli/rescaled_final/0797_fw.mp4	0.0	316.77055311203003	0.09998488426208496
64	275.56601095199585	fix_pre	0		120	62.0	2.5	blank	1.0	316.8705379962921	1.000101089477539
64	275.7412600517273	pulse	0	t		62.0	2.5	blank	1.0	317.04578709602356	
64	276.5661120414734	movie	1		298	62.0	2.5	blank	1.0	317.87063908576965	2.5004100799560547
64	277.3413701057434	pulse	1	t		62.0	2.5	blank	1.0	318.6458971500397	
64	278.94167494773865	pulse	1	t		62.0	2.5	blank	1.0	320.2462019920349	
64	279.06652212142944	fix_post	2		12	62.0	2.5	blank	1.0	320.3710491657257	0.09999990463256836
65	279.166522026062	fix_pre	0		120	63.0	2.5	/experiments/knapen_AOT/AOT_stimuli/rescaled_final/0496_rv.mp4	0.0	320.4710490703583	1.0001721382141113
65	280.1666941642761	movie	1		242	63.0	2.5	/experiments/knapen_AOT/AOT_stimuli/rescaled_final/0496_rv.mp4	0.0	321.4712212085724	2.4922118186950684
65	280.5419280529022	pulse	1	t		63.0	2.5	/experiments/knapen_AOT/AOT_stimuli/rescaled_final/0496_rv.mp4	0.0	321.8464550971985	
65	282.1421949863434	pulse	1	t		63.0	2.5	/experiments/knapen_AOT/AOT_stimuli/rescaled_final/0496_rv.mp4	0.0	323.44672203063965	
65	282.6589059829712	fix_post	2		12	63.0	2.5	/experiments/knapen_AOT/AOT_stimuli/rescaled_final/0496_rv.mp4	0.0	323.96343302726746	0.09984517097473145
66	282.7587511539459	fix_pre	0		119	64.0	2.5	/experiments/knapen_AOT/AOT_stimuli/rescaled_final/0520_rv.mp4	0.0	324.0632781982422	0.9918529987335205
66	283.74240899086	pulse	0	t		64.0	2.5	/experiments/knapen_AOT/AOT_stimuli/rescaled_final/0520_rv.mp4	0.0	325.04693603515625	
66	283.75060415267944	movie	1		244	64.0	2.5	/experiments/knapen_AOT/AOT_stimuli/rescaled_final/0520_rv.mp4	0.0	325.0551311969757	2.5087099075317383
66	285.3441381454468	pulse	1	t		64.0	2.5	/experiments/knapen_AOT/AOT_stimuli/rescaled_final/0520_rv.mp4	0.0	326.64866518974304	
66	286.2593140602112	fix_post	2		12	64.0	2.5	/experiments/knapen_AOT/AOT_stimuli/rescaled_final/0520_rv.mp4	0.0	327.56384110450745	0.09999299049377441
67	286.35930705070496	fix_pre	0		120	65.0	2.5	/experiments/knapen_AOT/AOT_stimuli/rescaled_final/1836_rv.mp4	0.0	327.6638340950012	1.0001220703125
67	286.9429349899292	pulse	0	t		65.0	2.5	/experiments/knapen_AOT/AOT_stimuli/rescaled_final/1836_rv.mp4	0.0	328.24746203422546	
67	287.35942912101746	movie	1		242	65.0	2.5	/experiments/knapen_AOT/AOT_stimuli/rescaled_final/1836_rv.mp4	0.0	328.6639561653137	2.5004239082336426
67	288.54316115379333	pulse	1	t		65.0	2.5	/experiments/knapen_AOT/AOT_stimuli/rescaled_final/1836_rv.mp4	0.0	329.8476881980896	
67	289.8598530292511	fix_post	2		12	65.0	2.5	/experiments/knapen_AOT/AOT_stimuli/rescaled_final/1836_rv.mp4	0.0	331.16438007354736	0.09993696212768555
68	289.9597899913788	fix_pre	0		120	66.0	2.5	/experiments/knapen_AOT/AOT_stimuli/rescaled_final/1120_fw.mp4	0.0	331.26431703567505	1.0001261234283447
68	290.14335107803345	pulse	0	t		66.0	2.5	/experiments/knapen_AOT/AOT_stimuli/rescaled_final/1120_fw.mp4	0.0	331.4478781223297	
68	290.95991611480713	movie	1		243	66.0	2.5	/experiments/knapen_AOT/AOT_stimuli/rescaled_final/1120_fw.mp4	0.0	332.2644431591034	2.5004220008850098
68	291.7435760498047	pulse	1	t		66.0	2.5	/experiments/knapen_AOT/AOT_stimuli/rescaled_final/1120_fw.mp4	0.0	333.04810309410095	
68	293.3438160419464	pulse	1	t		66.0	2.5	/experiments/knapen_AOT/AOT_stimuli/rescaled_final/1120_fw.mp4	0.0	334.6483430862427	
68	293.46033811569214	fix_post	2		12	66.0	2.5	/experiments/knapen_AOT/AOT_stimuli/rescaled_final/1120_fw.mp4	0.0	334.7648651599884	0.10002589225769043
69	293.56036400794983	fix_pre	0		120	67.0	2.5	/experiments/knapen_AOT/AOT_stimuli/rescaled_final/1381_fw.mp4	0.0	334.8648910522461	1.0001239776611328
69	294.56048798561096	movie	1		242	67.0	2.5	/experiments/knapen_AOT/AOT_stimuli/rescaled_final/1381_fw.mp4	0.0	335.8650150299072	2.4921560287475586
69	294.9446120262146	pulse	1	t		67.0	2.5	/experiments/knapen_AOT/AOT_stimuli/rescaled_final/1381_fw.mp4	0.0	336.24913907051086	
69	296.54449701309204	pulse	1	t		67.0	2.5	/experiments/knapen_AOT/AOT_stimuli/rescaled_final/1381_fw.mp4	0.0	337.8490240573883	
69	297.0526440143585	fix_post	2		12	67.0	2.5	/experiments/knapen_AOT/AOT_stimuli/rescaled_final/1381_fw.mp4	0.0	338.3571710586548	0.09989809989929199
70	297.1525421142578	fix_pre	0		120	68.0	2.5	/experiments/knapen_AOT/AOT_stimuli/rescaled_final/1336_fw.mp4	0.0	338.4570691585541	1.000169038772583
70	298.1445691585541	pulse	0	t		68.0	2.5	/experiments/knapen_AOT/AOT_stimuli/rescaled_final/1336_fw.mp4	0.0	339.44909620285034	
70	298.1527111530304	movie	1		244	68.0	2.5	/experiments/knapen_AOT/AOT_stimuli/rescaled_final/1336_fw.mp4	0.0	339.45723819732666	2.508725881576538
70	299.74598813056946	pulse	1	t		68.0	2.5	/experiments/knapen_AOT/AOT_stimuli/rescaled_final/1336_fw.mp4	0.0	341.0505151748657	
70	300.66143703460693	fix_post	2		12	68.0	2.5	/experiments/knapen_AOT/AOT_stimuli/rescaled_final/1336_fw.mp4	0.0	341.9659640789032	0.09998011589050293
71	300.76141715049744	fix_pre	0		120	69.0	2.5	blank	1.0	342.0659441947937	1.0001277923583984
71	301.34497714042664	pulse	0	t		69.0	2.5	blank	1.0	342.6495041847229	
71	301.76154494285583	movie	1		300	69.0	2.5	blank	1.0	343.0660719871521	2.5004160404205322
71	302.9452450275421	pulse	1	t		69.0	2.5	blank	1.0	344.2497720718384	
71	304.26196098327637	fix_post	2		12	69.0	2.5	blank	1.0	345.56648802757263	0.10001206398010254
72	304.36197304725647	fix_pre	0		120	70.0	2.5	/experiments/knapen_AOT/AOT_stimuli/rescaled_final/1014_rv.mp4	0.0	345.66650009155273	1.0001060962677002
72	304.54552817344666	pulse	0	t		70.0	2.5	/experiments/knapen_AOT/AOT_stimuli/rescaled_final/1014_rv.mp4	0.0	345.8500552177429	
72	305.36207914352417	movie	1		242	70.0	2.5	/experiments/knapen_AOT/AOT_stimuli/rescaled_final/1014_rv.mp4	0.0	346.66660618782043	2.500548839569092
72	306.14579606056213	pulse	1	t		70.0	2.5	/experiments/knapen_AOT/AOT_stimuli/rescaled_final/1014_rv.mp4	0.0	347.4503231048584	
72	307.7458231449127	pulse	1	t		70.0	2.5	/experiments/knapen_AOT/AOT_stimuli/rescaled_final/1014_rv.mp4	0.0	349.050350189209	
72	307.86262798309326	fix_post	2		12	70.0	2.5	/experiments/knapen_AOT/AOT_stimuli/rescaled_final/1014_rv.mp4	0.0	349.1671550273895	0.09992218017578125
73	307.96255016326904	fix_pre	0		120	71.0	2.5	/experiments/knapen_AOT/AOT_stimuli/rescaled_final/1761_rv.mp4	0.0	349.2670772075653	1.0001018047332764
73	308.9626519680023	movie	1		242	71.0	2.5	/experiments/knapen_AOT/AOT_stimuli/rescaled_final/1761_rv.mp4	0.0	350.2671790122986	2.492042064666748
73	309.34710907936096	pulse	1	t		71.0	2.5	/experiments/knapen_AOT/AOT_stimuli/rescaled_final/1761_rv.mp4	0.0	350.6516361236572	
73	310.9465579986572	pulse	1	t		71.0	2.5	/experiments/knapen_AOT/AOT_stimuli/rescaled_final/1761_rv.mp4	0.0	352.2510850429535	
73	311.45469403266907	fix_post	2		12	71.0	2.5	/experiments/knapen_AOT/AOT_stimuli/rescaled_final/1761_rv.mp4	0.0	352.75922107696533	0.10008907318115234
74	311.5547831058502	fix_pre	0		120	72.0	2.5	/experiments/knapen_AOT/AOT_stimuli/rescaled_final/1087_rv.mp4	0.0	352.8593101501465	1.0000169277191162
74	312.54675912857056	pulse	0	t		72.0	2.5	/experiments/knapen_AOT/AOT_stimuli/rescaled_final/1087_rv.mp4	0.0	353.8512861728668	
74	312.55480003356934	movie	1		244	72.0	2.5	/experiments/knapen_AOT/AOT_stimuli/rescaled_final/1087_rv.mp4	0.0	353.8593270778656	2.5088210105895996
74	314.15100502967834	pulse	1	t		72.0	2.5	/experiments/knapen_AOT/AOT_stimuli/rescaled_final/1087_rv.mp4	0.0	355.4555320739746	
74	315.06362104415894	fix_post	2		12	72.0	2.5	/experiments/knapen_AOT/AOT_stimuli/rescaled_final/1087_rv.mp4	0.0	356.3681480884552	0.0999140739440918
75	315.163535118103	fix_pre	0		120	73.0	2.5	/experiments/knapen_AOT/AOT_stimuli/rescaled_final/2027_rv.mp4	0.0	356.4680621623993	1.0001590251922607
75	315.74712800979614	pulse	0	t		73.0	2.5	/experiments/knapen_AOT/AOT_stimuli/rescaled_final/2027_rv.mp4	0.0	357.0516550540924	
75	316.1636941432953	movie	1		242	73.0	2.5	/experiments/knapen_AOT/AOT_stimuli/rescaled_final/2027_rv.mp4	0.0	357.46822118759155	2.5004379749298096
75	317.3475601673126	pulse	1	t		73.0	2.5	/experiments/knapen_AOT/AOT_stimuli/rescaled_final/2027_rv.mp4	0.0	358.6520872116089	
75	318.6641321182251	fix_post	2		12	73.0	2.5	/experiments/knapen_AOT/AOT_stimuli/rescaled_final/2027_rv.mp4	0.0	359.96865916252136	0.10005402565002441
76	318.7641861438751	fix_pre	0		120	74.0	2.5	/experiments/knapen_AOT/AOT_stimuli/rescaled_final/1471_fw.mp4	0.0	360.0687131881714	1.0000989437103271
76	318.9477210044861	pulse	0	t		74.0	2.5	/experiments/knapen_AOT/AOT_stimuli/rescaled_final/1471_fw.mp4	0.0	360.25224804878235	
76	319.76428508758545	movie	1		243	74.0	2.5	/experiments/knapen_AOT/AOT_stimuli/rescaled_final/1471_fw.mp4	0.0	361.0688121318817	2.5004889965057373
76	320.5405261516571	pulse	1	t		74.0	2.5	/experiments/knapen_AOT/AOT_stimuli/rescaled_final/1471_fw.mp4	0.0	361.84505319595337	
76	322.1488971710205	pulse	1	t		74.0	2.5	/experiments/knapen_AOT/AOT_stimuli/rescaled_final/1471_fw.mp4	0.0	363.4534242153168	
76	322.2647740840912	fix_post	2		12	74.0	2.5	/experiments/knapen_AOT/AOT_stimuli/rescaled_final/1471_fw.mp4	0.0	363.56930112838745	0.09987497329711914
77	322.3646490573883	fix_pre	0		120	75.0	2.5	blank	1.0	363.66917610168457	1.000093936920166
77	323.3647429943085	movie	1		299	75.0	2.5	blank	1.0	364.66927003860474	2.4920380115509033
77	323.7408139705658	pulse	1	t		75.0	2.5	blank	1.0	365.04534101486206	
77	325.3411409854889	pulse	1	t		75.0	2.5	blank	1.0	366.64566802978516	
77	325.8567810058594	fix_post	2		12	75.0	2.5	blank	1.0	367.16130805015564	0.10001897811889648
78	325.95679998397827	fix_pre	0		120	76.0	2.5	/experiments/knapen_AOT/AOT_stimuli/rescaled_final/2038_rv.mp4	0.0	367.26132702827454	1.0001499652862549
78	326.9414131641388	pulse	0	t		76.0	2.5	/experiments/knapen_AOT/AOT_stimuli/rescaled_final/2038_rv.mp4	0.0	368.24594020843506	
78	326.9569499492645	movie	1		246	76.0	2.5	/experiments/knapen_AOT/AOT_stimuli/rescaled_final/2038_rv.mp4	0.0	368.2614769935608	2.5087690353393555
78	328.5408079624176	pulse	1	t		76.0	2.5	/experiments/knapen_AOT/AOT_stimuli/rescaled_final/2038_rv.mp4	0.0	369.84533500671387	
78	329.4657189846039	fix_post	2		12	76.0	2.5	/experiments/knapen_AOT/AOT_stimuli/rescaled_final/2038_rv.mp4	0.0	370.77024602890015	0.10001397132873535
79	329.5657329559326	fix_pre	0		120	77.0	2.5	/experiments/knapen_AOT/AOT_stimuli/rescaled_final/1866_rv.mp4	0.0	370.8702600002289	1.0000910758972168
79	330.1409239768982	pulse	0	t		77.0	2.5	/experiments/knapen_AOT/AOT_stimuli/rescaled_final/1866_rv.mp4	0.0	371.44545102119446	
79	330.56582403182983	movie	1		244	77.0	2.5	/experiments/knapen_AOT/AOT_stimuli/rescaled_final/1866_rv.mp4	0.0	371.8703510761261	2.5004770755767822
79	331.7416751384735	pulse	1	t		77.0	2.5	/experiments/knapen_AOT/AOT_stimuli/rescaled_final/1866_rv.mp4	0.0	373.0462021827698	
79	333.0663011074066	fix_post	2		12	77.0	2.5	/experiments/knapen_AOT/AOT_stimuli/rescaled_final/1866_rv.mp4	0.0	374.3708281517029	0.09998583793640137
80	333.166286945343	fix_pre	0		120	78.0	2.5	/experiments/knapen_AOT/AOT_stimuli/rescaled_final/1514_fw.mp4	0.0	374.4708139896393	1.0000731945037842
80	333.341500043869	pulse	0	t		78.0	2.5	/experiments/knapen_AOT/AOT_stimuli/rescaled_final/1514_fw.mp4	0.0	374.6460270881653	
80	334.1663601398468	movie	1		242	78.0	2.5	/experiments/knapen_AOT/AOT_stimuli/rescaled_final/1514_fw.mp4	0.0	375.47088718414307	2.5005760192871094
80	334.9417541027069	pulse	1	t		78.0	2.5	/experiments/knapen_AOT/AOT_stimuli/rescaled_final/1514_fw.mp4	0.0	376.2462811470032	
80	336.54196095466614	pulse	1	t		78.0	2.5	/experiments/knapen_AOT/AOT_stimuli/rescaled_final/1514_fw.mp4	0.0	377.8464879989624	
80	336.6669361591339	fix_post	2		12	78.0	2.5	/experiments/knapen_AOT/AOT_stimuli/rescaled_final/1514_fw.mp4	0.0	377.9714632034302	0.09982490539550781
81	336.7667610645294	fix_pre	0		116	79.0	2.5	/experiments/knapen_AOT/AOT_stimuli/rescaled_final/1746_rv.mp4	0.0	378.0712881088257	0.9918770790100098
81	337.75863814353943	movie	1		243	79.0	2.5	/experiments/knapen_AOT/AOT_stimuli/rescaled_final/1746_rv.mp4	0.0	379.0631651878357	2.500286817550659
81	338.142685174942	pulse	1	t		79.0	2.5	/experiments/knapen_AOT/AOT_stimuli/rescaled_final/1746_rv.mp4	0.0	379.4472122192383	
81	339.74245595932007	pulse	1	t		79.0	2.5	/experiments/knapen_AOT/AOT_stimuli/rescaled_final/1746_rv.mp4	0.0	381.04698300361633	
81	340.2589249610901	fix_post	2		12	79.0	2.5	/experiments/knapen_AOT/AOT_stimuli/rescaled_final/1746_rv.mp4	0.0	381.56345200538635	0.10005307197570801
82	340.3589780330658	fix_pre	0		119	80.0	2.5	/experiments/knapen_AOT/AOT_stimuli/rescaled_final/2099_fw.mp4	0.0	381.66350507736206	0.9917919635772705
82	341.34272813796997	pulse	0	t		80.0	2.5	/experiments/knapen_AOT/AOT_stimuli/rescaled_final/2099_fw.mp4	0.0	382.64725518226624	
82	341.35076999664307	movie	1		244	80.0	2.5	/experiments/knapen_AOT/AOT_stimuli/rescaled_final/2099_fw.mp4	0.0	382.65529704093933	2.5087461471557617
82	342.9435091018677	pulse	1	t		80.0	2.5	/experiments/knapen_AOT/AOT_stimuli/rescaled_final/2099_fw.mp4	0.0	384.24803614616394	
82	343.8595161437988	fix_post	2		12	80.0	2.5	/experiments/knapen_AOT/AOT_stimuli/rescaled_final/2099_fw.mp4	0.0	385.1640431880951	0.10002398490905762
83	343.9595401287079	fix_pre	0		120	81.0	2.5	/experiments/knapen_AOT/AOT_stimuli/rescaled_final/0036_rv.mp4	0.0	385.26406717300415	1.0001578330993652
83	344.54309010505676	pulse	0	t		81.0	2.5	/experiments/knapen_AOT/AOT_stimuli/rescaled_final/0036_rv.mp4	0.0	385.847617149353	
83	344.95969796180725	movie	1		242	81.0	2.5	/experiments/knapen_AOT/AOT_stimuli/rescaled_final/0036_rv.mp4	0.0	386.2642250061035	2.5005011558532715
83	346.1434700489044	pulse	1	t		81.0	2.5	/experiments/knapen_AOT/AOT_stimuli/rescaled_final/0036_rv.mp4	0.0	387.4479970932007	
83	347.4601991176605	fix_post	2		12	81.0	2.5	/experiments/knapen_AOT/AOT_stimuli/rescaled_final/0036_rv.mp4	0.0	388.7647261619568	0.09985899925231934
84	347.56005811691284	fix_pre	0		120	82.0	2.5	blank	1.0	388.8645851612091	1.0001628398895264
84	347.74370217323303	pulse	0	t		82.0	2.5	blank	1.0	389.0482292175293	
84	348.56022095680237	movie	1		300	82.0	2.5	blank	1.0	389.86474800109863	2.500352144241333
84	349.3438160419464	pulse	1	t		82.0	2.5	blank	1.0	390.6483430862427	
84	350.94404101371765	pulse	1	t		82.0	2.5	blank	1.0	392.2485680580139	
84	351.0605731010437	fix_post	2		12	82.0	2.5	blank	1.0	392.36510014533997	0.10004997253417969
85	351.1606230735779	fix_pre	0		120	83.0	2.5	/experiments/knapen_AOT/AOT_stimuli/rescaled_final/0036_fw.mp4	0.0	392.46515011787415	1.0001120567321777
85	352.16073513031006	movie	1		242	83.0	2.5	/experiments/knapen_AOT/AOT_stimuli/rescaled_final/0036_fw.mp4	0.0	393.4652621746063	2.4920589923858643
85	352.54842710494995	pulse	1	t		83.0	2.5	/experiments/knapen_AOT/AOT_stimuli/rescaled_final/0036_fw.mp4	0.0	393.8529541492462	
85	354.1446659564972	pulse	1	t		83.0	2.5	/experiments/knapen_AOT/AOT_stimuli/rescaled_final/0036_fw.mp4	0.0	395.44919300079346	
85	354.6527941226959	fix_post	2		12	83.0	2.5	/experiments/knapen_AOT/AOT_stimuli/rescaled_final/0036_fw.mp4	0.0	395.9573211669922	0.10002493858337402
87	354.7528190612793	stim	0		1716					396.05734610557556	14.30211591720581
87	355.74495697021484	pulse	0	t						397.0494840145111	
87	357.3449561595917	pulse	0	t						398.64948320388794	
87	358.9452540874481	pulse	0	t						400.2497811317444	
87	360.5454740524292	pulse	0	t						401.85000109672546	
87	362.14582204818726	pulse	0	t						403.4503490924835	
87	363.7459580898285	pulse	0	t						405.05048513412476	
87	365.346204996109	pulse	0	t						406.6507320404053	
87	366.9464421272278	pulse	0	t						408.25096917152405	
87	368.546667098999	pulse	0	t						409.8511941432953	
