trial_nr	onset	event_type	phase	response	nr_frames	movie_index	movie_duration	movie_file	blank	onset_abs	duration
0	0.20816278457641602	stim	0		55					23.89487600326538	0.45836615562438965
0	0.6583518981933594	response	0	space						24.345065116882324	
1	0.6665289402008057	stim	0		4071					24.35324215888977	33.94968605041504
1	34.58671689033508	pulse	0	t						58.27343010902405	
1	34.616214990615845	stim	1		1716					58.30292820930481	14.299154996871948
1	36.18109679222107	pulse	1	t						59.867810010910034	
1	37.78055286407471	pulse	1	t						61.46726608276367	
1	39.38069176673889	pulse	1	t						63.067404985427856	
1	40.98105597496033	pulse	1	t						64.66776919364929	
1	42.581225872039795	pulse	1	t						66.26793909072876	
1	44.18148398399353	pulse	1	t						67.8681972026825	
1	45.781715869903564	pulse	1	t						69.46842908859253	
1	47.381945848464966	pulse	1	t						71.06865906715393	
2	48.91536998748779	fix_pre	0		9	0.0	2.5	/experiments/knapen_AOT/AOT_stimuli/rescaled_final/1109_fw.mp4	0.0	72.60208320617676	0.07498788833618164
2	48.98225784301758	pulse	0	t		0.0	2.5	/experiments/knapen_AOT/AOT_stimuli/rescaled_final/1109_fw.mp4	0.0	72.66897106170654	
2	48.990357875823975	movie	1		243	0.0	2.5	/experiments/knapen_AOT/AOT_stimuli/rescaled_final/1109_fw.mp4	0.0	72.67707109451294	2.508794069290161
2	50.58714580535889	pulse	1	t		0.0	2.5	/experiments/knapen_AOT/AOT_stimuli/rescaled_final/1109_fw.mp4	0.0	74.27385902404785	
2	51.499151945114136	fix_post	2		12	0.0	2.5	/experiments/knapen_AOT/AOT_stimuli/rescaled_final/1109_fw.mp4	0.0	75.1858651638031	0.10000205039978027
3	51.599153995513916	fix_pre	0		120	1.0	2.5	/experiments/knapen_AOT/AOT_stimuli/rescaled_final/0045_rv.mp4	0.0	75.28586721420288	1.0000967979431152
3	52.18270492553711	pulse	0	t		1.0	2.5	/experiments/knapen_AOT/AOT_stimuli/rescaled_final/0045_rv.mp4	0.0	75.86941814422607	
3	52.59925079345703	movie	1		243	1.0	2.5	/experiments/knapen_AOT/AOT_stimuli/rescaled_final/0045_rv.mp4	0.0	76.285964012146	2.5003671646118164
3	53.78306698799133	pulse	1	t		1.0	2.5	/experiments/knapen_AOT/AOT_stimuli/rescaled_final/0045_rv.mp4	0.0	77.4697802066803	
3	55.09961795806885	fix_post	2		12	1.0	2.5	/experiments/knapen_AOT/AOT_stimuli/rescaled_final/0045_rv.mp4	0.0	78.78633117675781	0.10004401206970215
4	55.19966197013855	fix_pre	0		120	2.0	2.5	/experiments/knapen_AOT/AOT_stimuli/rescaled_final/1819_rv.mp4	0.0	78.88637518882751	1.0001230239868164
4	55.383206844329834	pulse	0	t		2.0	2.5	/experiments/knapen_AOT/AOT_stimuli/rescaled_final/1819_rv.mp4	0.0	79.0699200630188	
4	56.199784994125366	movie	1		244	2.0	2.5	/experiments/knapen_AOT/AOT_stimuli/rescaled_final/1819_rv.mp4	0.0	79.88649821281433	2.50038480758667
4	56.98345184326172	pulse	1	t		2.0	2.5	/experiments/knapen_AOT/AOT_stimuli/rescaled_final/1819_rv.mp4	0.0	80.67016506195068	
4	58.58367896080017	pulse	1	t		2.0	2.5	/experiments/knapen_AOT/AOT_stimuli/rescaled_final/1819_rv.mp4	0.0	82.27039217948914	
4	58.700169801712036	fix_post	2		12	2.0	2.5	/experiments/knapen_AOT/AOT_stimuli/rescaled_final/1819_rv.mp4	0.0	82.386883020401	0.10000300407409668
5	58.80017280578613	fix_pre	0		120	3.0	2.5	/experiments/knapen_AOT/AOT_stimuli/rescaled_final/2000_rv.mp4	0.0	82.4868860244751	1.0001881122589111
5	59.800360918045044	movie	1		243	3.0	2.5	/experiments/knapen_AOT/AOT_stimuli/rescaled_final/2000_rv.mp4	0.0	83.48707413673401	2.49200701713562
5	60.18544578552246	pulse	1	t		3.0	2.5	/experiments/knapen_AOT/AOT_stimuli/rescaled_final/2000_rv.mp4	0.0	83.87215900421143	
5	61.78417181968689	pulse	1	t		3.0	2.5	/experiments/knapen_AOT/AOT_stimuli/rescaled_final/2000_rv.mp4	0.0	85.47088503837585	
5	62.292367935180664	fix_post	2		12	3.0	2.5	/experiments/knapen_AOT/AOT_stimuli/rescaled_final/2000_rv.mp4	0.0	85.97908115386963	0.10009002685546875
6	62.39245796203613	fix_pre	0		120	4.0	2.5	/experiments/knapen_AOT/AOT_stimuli/rescaled_final/1977_fw.mp4	0.0	86.0791711807251	1.0000848770141602
6	63.38443684577942	pulse	0	t		4.0	2.5	/experiments/knapen_AOT/AOT_stimuli/rescaled_final/1977_fw.mp4	0.0	87.07115006446838	
6	63.39254283905029	movie	1		245	4.0	2.5	/experiments/knapen_AOT/AOT_stimuli/rescaled_final/1977_fw.mp4	0.0	87.07925605773926	2.508681058883667
6	64.98537278175354	pulse	1	t		4.0	2.5	/experiments/knapen_AOT/AOT_stimuli/rescaled_final/1977_fw.mp4	0.0	88.6720860004425	
6	65.90122389793396	fix_post	2		12	4.0	2.5	/experiments/knapen_AOT/AOT_stimuli/rescaled_final/1977_fw.mp4	0.0	89.58793711662292	0.1000359058380127
7	66.00125980377197	fix_pre	0		120	5.0	2.5	blank	1.0	89.68797302246094	1.000180959701538
7	66.58486080169678	pulse	0	t		5.0	2.5	blank	1.0	90.27157402038574	
7	67.00144076347351	movie	1		300	5.0	2.5	blank	1.0	90.68815398216248	2.5003550052642822
7	68.18514084815979	pulse	1	t		5.0	2.5	blank	1.0	91.87185406684875	
7	69.5017957687378	fix_post	2		12	5.0	2.5	blank	1.0	93.18850898742676	0.09997701644897461
8	69.60177278518677	fix_pre	0		120	6.0	2.5	/experiments/knapen_AOT/AOT_stimuli/rescaled_final/0082_rv.mp4	0.0	93.28848600387573	1.00018310546875
8	69.78530383110046	pulse	0	t		6.0	2.5	/experiments/knapen_AOT/AOT_stimuli/rescaled_final/0082_rv.mp4	0.0	93.47201704978943	
8	70.60195589065552	movie	1		244	6.0	2.5	/experiments/knapen_AOT/AOT_stimuli/rescaled_final/0082_rv.mp4	0.0	94.28866910934448	2.5003349781036377
8	71.38564491271973	pulse	1	t		6.0	2.5	/experiments/knapen_AOT/AOT_stimuli/rescaled_final/0082_rv.mp4	0.0	95.07235813140869	
8	72.98599982261658	pulse	1	t		6.0	2.5	/experiments/knapen_AOT/AOT_stimuli/rescaled_final/0082_rv.mp4	0.0	96.67271304130554	
8	73.10229086875916	fix_post	2		12	6.0	2.5	/experiments/knapen_AOT/AOT_stimuli/rescaled_final/0082_rv.mp4	0.0	96.78900408744812	0.10012006759643555
9	73.20241093635559	fix_pre	0		120	7.0	2.5	/experiments/knapen_AOT/AOT_stimuli/rescaled_final/0568_rv.mp4	0.0	96.88912415504456	1.0000848770141602
9	74.20249581336975	movie	1		242	7.0	2.5	/experiments/knapen_AOT/AOT_stimuli/rescaled_final/0568_rv.mp4	0.0	97.88920903205872	2.492014169692993
9	74.58756399154663	pulse	1	t		7.0	2.5	/experiments/knapen_AOT/AOT_stimuli/rescaled_final/0568_rv.mp4	0.0	98.2742772102356	
9	76.18628287315369	pulse	1	t		7.0	2.5	/experiments/knapen_AOT/AOT_stimuli/rescaled_final/0568_rv.mp4	0.0	99.87299609184265	
9	76.69450998306274	fix_post	2		12	7.0	2.5	/experiments/knapen_AOT/AOT_stimuli/rescaled_final/0568_rv.mp4	0.0	100.38122320175171	0.09999394416809082
10	76.79450392723083	fix_pre	0		120	8.0	2.5	/experiments/knapen_AOT/AOT_stimuli/rescaled_final/0330_rv.mp4	0.0	100.4812171459198	1.000175952911377
10	77.78655195236206	pulse	0	t		8.0	2.5	/experiments/knapen_AOT/AOT_stimuli/rescaled_final/0330_rv.mp4	0.0	101.47326517105103	
10	77.79467988014221	movie	1		244	8.0	2.5	/experiments/knapen_AOT/AOT_stimuli/rescaled_final/0330_rv.mp4	0.0	101.48139309883118	2.5087289810180664
10	79.38737082481384	pulse	1	t		8.0	2.5	/experiments/knapen_AOT/AOT_stimuli/rescaled_final/0330_rv.mp4	0.0	103.07408404350281	
10	80.30340886116028	fix_post	2		12	8.0	2.5	/experiments/knapen_AOT/AOT_stimuli/rescaled_final/0330_rv.mp4	0.0	103.99012207984924	0.10005497932434082
11	80.40346384048462	fix_pre	0		120	9.0	2.5	/experiments/knapen_AOT/AOT_stimuli/rescaled_final/0497_fw.mp4	0.0	104.09017705917358	1.000087022781372
11	80.98696684837341	pulse	0	t		9.0	2.5	/experiments/knapen_AOT/AOT_stimuli/rescaled_final/0497_fw.mp4	0.0	104.67368006706238	
11	81.40355086326599	movie	1		244	9.0	2.5	/experiments/knapen_AOT/AOT_stimuli/rescaled_final/0497_fw.mp4	0.0	105.09026408195496	2.5018320083618164
11	82.58735799789429	pulse	1	t		9.0	2.5	/experiments/knapen_AOT/AOT_stimuli/rescaled_final/0497_fw.mp4	0.0	106.27407121658325	
11	83.90538287162781	fix_post	2		10	9.0	2.5	/experiments/knapen_AOT/AOT_stimuli/rescaled_final/0497_fw.mp4	0.0	107.59209609031677	0.09856104850769043
12	84.0039439201355	fix_pre	0		120	10.0	2.5	/experiments/knapen_AOT/AOT_stimuli/rescaled_final/2164_fw.mp4	0.0	107.69065713882446	1.0001599788665771
12	84.18756294250488	pulse	0	t		10.0	2.5	/experiments/knapen_AOT/AOT_stimuli/rescaled_final/2164_fw.mp4	0.0	107.87427616119385	
12	85.00410389900208	movie	1		243	10.0	2.5	/experiments/knapen_AOT/AOT_stimuli/rescaled_final/2164_fw.mp4	0.0	108.69081711769104	2.500415086746216
12	85.78033590316772	pulse	1	t		10.0	2.5	/experiments/knapen_AOT/AOT_stimuli/rescaled_final/2164_fw.mp4	0.0	109.46704912185669	
12	87.38794994354248	pulse	1	t		10.0	2.5	/experiments/knapen_AOT/AOT_stimuli/rescaled_final/2164_fw.mp4	0.0	111.07466316223145	
12	87.50451898574829	fix_post	2		12	10.0	2.5	/experiments/knapen_AOT/AOT_stimuli/rescaled_final/2164_fw.mp4	0.0	111.19123220443726	0.09998488426208496
13	87.60450387001038	fix_pre	0		120	11.0	2.5	/experiments/knapen_AOT/AOT_stimuli/rescaled_final/0537_rv.mp4	0.0	111.29121708869934	1.000135898590088
13	88.60463976860046	movie	1		243	11.0	2.5	/experiments/knapen_AOT/AOT_stimuli/rescaled_final/0537_rv.mp4	0.0	112.29135298728943	2.4920291900634766
13	88.9896309375763	pulse	1	t		11.0	2.5	/experiments/knapen_AOT/AOT_stimuli/rescaled_final/0537_rv.mp4	0.0	112.67634415626526	
13	90.58107995986938	pulse	1	t		11.0	2.5	/experiments/knapen_AOT/AOT_stimuli/rescaled_final/0537_rv.mp4	0.0	114.26779317855835	
13	91.09666895866394	fix_post	2		12	11.0	2.5	/experiments/knapen_AOT/AOT_stimuli/rescaled_final/0537_rv.mp4	0.0	114.7833821773529	0.09997987747192383
14	91.19664883613586	fix_pre	0		119	12.0	2.5	/experiments/knapen_AOT/AOT_stimuli/rescaled_final/0095_fw.mp4	0.0	114.88336205482483	0.9918510913848877
14	92.18029880523682	pulse	0	t		12.0	2.5	/experiments/knapen_AOT/AOT_stimuli/rescaled_final/0095_fw.mp4	0.0	115.86701202392578	
14	92.18849992752075	movie	1		246	12.0	2.5	/experiments/knapen_AOT/AOT_stimuli/rescaled_final/0095_fw.mp4	0.0	115.87521314620972	2.5086898803710938
14	93.78520798683167	pulse	1	t		12.0	2.5	/experiments/knapen_AOT/AOT_stimuli/rescaled_final/0095_fw.mp4	0.0	117.47192120552063	
14	94.69718980789185	fix_post	2		12	12.0	2.5	/experiments/knapen_AOT/AOT_stimuli/rescaled_final/0095_fw.mp4	0.0	118.38390302658081	0.10002708435058594
15	94.79721689224243	fix_pre	0		120	13.0	2.5	/experiments/knapen_AOT/AOT_stimuli/rescaled_final/0300_fw.mp4	0.0	118.4839301109314	1.000140905380249
15	95.38093400001526	pulse	0	t		13.0	2.5	/experiments/knapen_AOT/AOT_stimuli/rescaled_final/0300_fw.mp4	0.0	119.06764721870422	
15	95.79735779762268	movie	1		245	13.0	2.5	/experiments/knapen_AOT/AOT_stimuli/rescaled_final/0300_fw.mp4	0.0	119.48407101631165	2.5004169940948486
15	96.98122096061707	pulse	1	t		13.0	2.5	/experiments/knapen_AOT/AOT_stimuli/rescaled_final/0300_fw.mp4	0.0	120.66793417930603	
15	98.29777479171753	fix_post	2		12	13.0	2.5	/experiments/knapen_AOT/AOT_stimuli/rescaled_final/0300_fw.mp4	0.0	121.9844880104065	0.0999751091003418
16	98.39774990081787	fix_pre	0		120	14.0	2.5	blank	1.0	122.08446311950684	1.000154972076416
16	98.58126783370972	pulse	0	t		14.0	2.5	blank	1.0	122.26798105239868	
16	99.39790487289429	movie	1		300	14.0	2.5	blank	1.0	123.08461809158325	2.5003819465637207
16	100.1815619468689	pulse	1	t		14.0	2.5	blank	1.0	123.86827516555786	
16	101.78175783157349	pulse	1	t		14.0	2.5	blank	1.0	125.46847105026245	
16	101.89828681945801	fix_post	2		12	14.0	2.5	blank	1.0	125.58500003814697	0.10000014305114746
17	101.99828696250916	fix_pre	0		119	15.0	2.5	/experiments/knapen_AOT/AOT_stimuli/rescaled_final/0745_rv.mp4	0.0	125.68500018119812	0.9918019771575928
17	102.99008893966675	movie	1		245	15.0	2.5	/experiments/knapen_AOT/AOT_stimuli/rescaled_final/0745_rv.mp4	0.0	126.67680215835571	2.500443935394287
17	103.3821017742157	pulse	1	t		15.0	2.5	/experiments/knapen_AOT/AOT_stimuli/rescaled_final/0745_rv.mp4	0.0	127.06881499290466	
17	104.98221397399902	pulse	1	t		15.0	2.5	/experiments/knapen_AOT/AOT_stimuli/rescaled_final/0745_rv.mp4	0.0	128.668927192688	
17	105.49053287506104	fix_post	2		12	15.0	2.5	/experiments/knapen_AOT/AOT_stimuli/rescaled_final/0745_rv.mp4	0.0	129.17724609375	0.09997296333312988
18	105.59050583839417	fix_pre	0		120	16.0	2.5	/experiments/knapen_AOT/AOT_stimuli/rescaled_final/0056_fw.mp4	0.0	129.27721905708313	1.0001389980316162
18	106.58264589309692	pulse	0	t		16.0	2.5	/experiments/knapen_AOT/AOT_stimuli/rescaled_final/0056_fw.mp4	0.0	130.2693591117859	
18	106.59064483642578	movie	1		247	16.0	2.5	/experiments/knapen_AOT/AOT_stimuli/rescaled_final/0056_fw.mp4	0.0	130.27735805511475	2.5087010860443115
18	108.18656897544861	pulse	1	t		16.0	2.5	/experiments/knapen_AOT/AOT_stimuli/rescaled_final/0056_fw.mp4	0.0	131.87328219413757	
18	109.09934592247009	fix_post	2		12	16.0	2.5	/experiments/knapen_AOT/AOT_stimuli/rescaled_final/0056_fw.mp4	0.0	132.78605914115906	0.10005784034729004
19	109.19940376281738	fix_pre	0		120	17.0	2.5	/experiments/knapen_AOT/AOT_stimuli/rescaled_final/1382_fw.mp4	0.0	132.88611698150635	1.0001220703125
19	109.78298497200012	pulse	0	t		17.0	2.5	/experiments/knapen_AOT/AOT_stimuli/rescaled_final/1382_fw.mp4	0.0	133.4696981906891	
19	110.19952583312988	movie	1		244	17.0	2.5	/experiments/knapen_AOT/AOT_stimuli/rescaled_final/1382_fw.mp4	0.0	133.88623905181885	2.5003509521484375
19	111.3832619190216	pulse	1	t		17.0	2.5	/experiments/knapen_AOT/AOT_stimuli/rescaled_final/1382_fw.mp4	0.0	135.06997513771057	
19	112.69987678527832	fix_post	2		12	17.0	2.5	/experiments/knapen_AOT/AOT_stimuli/rescaled_final/1382_fw.mp4	0.0	136.38659000396729	0.1000521183013916
20	112.79992890357971	fix_pre	0		120	18.0	2.5	/experiments/knapen_AOT/AOT_stimuli/rescaled_final/1440_rv.mp4	0.0	136.48664212226868	1.0001220703125
20	112.98351693153381	pulse	0	t		18.0	2.5	/experiments/knapen_AOT/AOT_stimuli/rescaled_final/1440_rv.mp4	0.0	136.67023015022278	
20	113.80005097389221	movie	1		244	18.0	2.5	/experiments/knapen_AOT/AOT_stimuli/rescaled_final/1440_rv.mp4	0.0	137.48676419258118	2.5003979206085205
20	114.58374881744385	pulse	1	t		18.0	2.5	/experiments/knapen_AOT/AOT_stimuli/rescaled_final/1440_rv.mp4	0.0	138.2704620361328	
20	116.1836907863617	pulse	1	t		18.0	2.5	/experiments/knapen_AOT/AOT_stimuli/rescaled_final/1440_rv.mp4	0.0	139.87040400505066	
20	116.30044889450073	fix_post	2		12	18.0	2.5	/experiments/knapen_AOT/AOT_stimuli/rescaled_final/1440_rv.mp4	0.0	139.9871621131897	0.10006499290466309
21	116.4005138874054	fix_pre	0		120	19.0	2.5	blank	1.0	140.08722710609436	1.0000920295715332
21	117.40060591697693	movie	1		300	19.0	2.5	blank	1.0	141.0873191356659	2.5003719329833984
21	117.78416085243225	pulse	1	t		19.0	2.5	blank	1.0	141.47087407112122	
21	119.38432788848877	pulse	1	t		19.0	2.5	blank	1.0	143.07104110717773	
21	119.90097784996033	fix_post	2		12	19.0	2.5	blank	1.0	143.5876910686493	0.10000896453857422
22	120.0009868144989	fix_pre	0		119	20.0	2.5	/experiments/knapen_AOT/AOT_stimuli/rescaled_final/0300_rv.mp4	0.0	143.68770003318787	0.9918100833892822
22	120.98478484153748	pulse	0	t		20.0	2.5	/experiments/knapen_AOT/AOT_stimuli/rescaled_final/0300_rv.mp4	0.0	144.67149806022644	
22	120.99279689788818	movie	1		246	20.0	2.5	/experiments/knapen_AOT/AOT_stimuli/rescaled_final/0300_rv.mp4	0.0	144.67951011657715	2.508697032928467
22	122.58533382415771	pulse	1	t		20.0	2.5	/experiments/knapen_AOT/AOT_stimuli/rescaled_final/0300_rv.mp4	0.0	146.27204704284668	
22	123.50149393081665	fix_post	2		12	20.0	2.5	/experiments/knapen_AOT/AOT_stimuli/rescaled_final/0300_rv.mp4	0.0	147.18820714950562	0.10002303123474121
23	123.60151696205139	fix_pre	0		120	21.0	2.5	/experiments/knapen_AOT/AOT_stimuli/rescaled_final/2037_fw.mp4	0.0	147.28823018074036	1.0001490116119385
23	124.18515992164612	pulse	0	t		21.0	2.5	/experiments/knapen_AOT/AOT_stimuli/rescaled_final/2037_fw.mp4	0.0	147.87187314033508	
23	124.60166597366333	movie	1		244	21.0	2.5	/experiments/knapen_AOT/AOT_stimuli/rescaled_final/2037_fw.mp4	0.0	148.2883791923523	2.5003719329833984
23	125.78541398048401	pulse	1	t		21.0	2.5	/experiments/knapen_AOT/AOT_stimuli/rescaled_final/2037_fw.mp4	0.0	149.47212719917297	
23	127.10203790664673	fix_post	2		12	21.0	2.5	/experiments/knapen_AOT/AOT_stimuli/rescaled_final/2037_fw.mp4	0.0	150.7887511253357	0.10000896453857422
24	127.2020468711853	fix_pre	0		120	22.0	2.5	/experiments/knapen_AOT/AOT_stimuli/rescaled_final/0635_fw.mp4	0.0	150.88876008987427	1.0001540184020996
24	127.38559985160828	pulse	0	t		22.0	2.5	/experiments/knapen_AOT/AOT_stimuli/rescaled_final/0635_fw.mp4	0.0	151.07231307029724	
24	128.2022008895874	movie	1		244	22.0	2.5	/experiments/knapen_AOT/AOT_stimuli/rescaled_final/0635_fw.mp4	0.0	151.88891410827637	2.5003979206085205
24	128.98597979545593	pulse	1	t		22.0	2.5	/experiments/knapen_AOT/AOT_stimuli/rescaled_final/0635_fw.mp4	0.0	152.6726930141449	
24	130.58610081672668	pulse	1	t		22.0	2.5	/experiments/knapen_AOT/AOT_stimuli/rescaled_final/0635_fw.mp4	0.0	154.27281403541565	
24	130.70259881019592	fix_post	2		12	22.0	2.5	/experiments/knapen_AOT/AOT_stimuli/rescaled_final/0635_fw.mp4	0.0	154.3893120288849	0.10003113746643066
25	130.80262994766235	fix_pre	0		120	23.0	2.5	/experiments/knapen_AOT/AOT_stimuli/rescaled_final/1212_fw.mp4	0.0	154.48934316635132	1.000105857849121
25	131.80273580551147	movie	1		242	23.0	2.5	/experiments/knapen_AOT/AOT_stimuli/rescaled_final/1212_fw.mp4	0.0	155.48944902420044	2.4920480251312256
25	132.18702578544617	pulse	1	t		23.0	2.5	/experiments/knapen_AOT/AOT_stimuli/rescaled_final/1212_fw.mp4	0.0	155.87373900413513	
25	133.78662395477295	pulse	1	t		23.0	2.5	/experiments/knapen_AOT/AOT_stimuli/rescaled_final/1212_fw.mp4	0.0	157.4733371734619	
25	134.2947838306427	fix_post	2		12	23.0	2.5	/experiments/knapen_AOT/AOT_stimuli/rescaled_final/1212_fw.mp4	0.0	157.98149704933167	0.09999895095825195
26	134.39478278160095	fix_pre	0		120	24.0	2.5	/experiments/knapen_AOT/AOT_stimuli/rescaled_final/1090_rv.mp4	0.0	158.08149600028992	1.0001931190490723
26	135.38685989379883	pulse	0	t		24.0	2.5	/experiments/knapen_AOT/AOT_stimuli/rescaled_final/1090_rv.mp4	0.0	159.0735731124878	
26	135.39497590065002	movie	1		245	24.0	2.5	/experiments/knapen_AOT/AOT_stimuli/rescaled_final/1090_rv.mp4	0.0	159.081689119339	2.5086820125579834
26	136.9915828704834	pulse	1	t		24.0	2.5	/experiments/knapen_AOT/AOT_stimuli/rescaled_final/1090_rv.mp4	0.0	160.67829608917236	
26	137.903657913208	fix_post	2		12	24.0	2.5	/experiments/knapen_AOT/AOT_stimuli/rescaled_final/1090_rv.mp4	0.0	161.59037113189697	0.1000368595123291
27	138.00369477272034	fix_pre	0		120	25.0	2.5	/experiments/knapen_AOT/AOT_stimuli/rescaled_final/0463_rv.mp4	0.0	161.6904079914093	1.0001070499420166
27	138.5872838497162	pulse	0	t		25.0	2.5	/experiments/knapen_AOT/AOT_stimuli/rescaled_final/0463_rv.mp4	0.0	162.27399706840515	
27	139.00380182266235	movie	1		243	25.0	2.5	/experiments/knapen_AOT/AOT_stimuli/rescaled_final/0463_rv.mp4	0.0	162.69051504135132	2.5004069805145264
27	140.18077778816223	pulse	1	t		25.0	2.5	/experiments/knapen_AOT/AOT_stimuli/rescaled_final/0463_rv.mp4	0.0	163.8674910068512	
27	141.50420880317688	fix_post	2		12	25.0	2.5	/experiments/knapen_AOT/AOT_stimuli/rescaled_final/0463_rv.mp4	0.0	165.19092202186584	0.10002303123474121
28	141.60423183441162	fix_pre	0		120	26.0	2.5	/experiments/knapen_AOT/AOT_stimuli/rescaled_final/0343_fw.mp4	0.0	165.2909450531006	1.0008630752563477
28	141.78777599334717	pulse	0	t		26.0	2.5	/experiments/knapen_AOT/AOT_stimuli/rescaled_final/0343_fw.mp4	0.0	165.47448921203613	
28	142.60509490966797	movie	1		240	26.0	2.5	/experiments/knapen_AOT/AOT_stimuli/rescaled_final/0343_fw.mp4	0.0	166.29180812835693	2.4996578693389893
28	143.38809490203857	pulse	1	t		26.0	2.5	/experiments/knapen_AOT/AOT_stimuli/rescaled_final/0343_fw.mp4	0.0	167.07480812072754	
28	144.98809695243835	pulse	1	t		26.0	2.5	/experiments/knapen_AOT/AOT_stimuli/rescaled_final/0343_fw.mp4	0.0	168.67481017112732	
28	145.10475277900696	fix_post	2		12	26.0	2.5	/experiments/knapen_AOT/AOT_stimuli/rescaled_final/0343_fw.mp4	0.0	168.79146599769592	0.09997105598449707
29	145.20472383499146	fix_pre	0		120	27.0	2.5	blank	1.0	168.89143705368042	1.0001909732818604
29	146.20491480827332	movie	1		299	27.0	2.5	blank	1.0	169.89162802696228	2.4920620918273926
29	146.58094787597656	pulse	1	t		27.0	2.5	blank	1.0	170.26766109466553	
29	148.18128776550293	pulse	1	t		27.0	2.5	blank	1.0	171.8680009841919	
29	148.6969769001007	fix_post	2		12	27.0	2.5	blank	1.0	172.38369011878967	0.09996700286865234
30	148.79694390296936	fix_pre	0		120	28.0	2.5	/experiments/knapen_AOT/AOT_stimuli/rescaled_final/0292_rv.mp4	0.0	172.48365712165833	1.0001490116119385
30	149.78149676322937	pulse	0	t		28.0	2.5	/experiments/knapen_AOT/AOT_stimuli/rescaled_final/0292_rv.mp4	0.0	173.46820998191833	
30	149.7970929145813	movie	1		245	28.0	2.5	/experiments/knapen_AOT/AOT_stimuli/rescaled_final/0292_rv.mp4	0.0	173.48380613327026	2.508697986602783
30	151.3810269832611	pulse	1	t		28.0	2.5	/experiments/knapen_AOT/AOT_stimuli/rescaled_final/0292_rv.mp4	0.0	175.06774020195007	
30	152.30579090118408	fix_post	2		12	28.0	2.5	/experiments/knapen_AOT/AOT_stimuli/rescaled_final/0292_rv.mp4	0.0	175.99250411987305	0.10000896453857422
31	152.40579986572266	fix_pre	0		120	29.0	2.5	/experiments/knapen_AOT/AOT_stimuli/rescaled_final/0898_rv.mp4	0.0	176.09251308441162	1.0001800060272217
31	152.9810438156128	pulse	0	t		29.0	2.5	/experiments/knapen_AOT/AOT_stimuli/rescaled_final/0898_rv.mp4	0.0	176.66775703430176	
31	153.40597987174988	movie	1		243	29.0	2.5	/experiments/knapen_AOT/AOT_stimuli/rescaled_final/0898_rv.mp4	0.0	177.09269309043884	2.5003440380096436
31	154.5826449394226	pulse	1	t		29.0	2.5	/experiments/knapen_AOT/AOT_stimuli/rescaled_final/0898_rv.mp4	0.0	178.26935815811157	
31	155.90632390975952	fix_post	2		12	29.0	2.5	/experiments/knapen_AOT/AOT_stimuli/rescaled_final/0898_rv.mp4	0.0	179.5930371284485	0.10003805160522461
32	156.00636196136475	fix_pre	0		120	30.0	2.5	/experiments/knapen_AOT/AOT_stimuli/rescaled_final/0767_rv.mp4	0.0	179.6930751800537	1.0001509189605713
32	156.1816189289093	pulse	0	t		30.0	2.5	/experiments/knapen_AOT/AOT_stimuli/rescaled_final/0767_rv.mp4	0.0	179.86833214759827	
32	157.00651288032532	movie	1		245	30.0	2.5	/experiments/knapen_AOT/AOT_stimuli/rescaled_final/0767_rv.mp4	0.0	180.69322609901428	2.500364065170288
32	157.78184294700623	pulse	1	t		30.0	2.5	/experiments/knapen_AOT/AOT_stimuli/rescaled_final/0767_rv.mp4	0.0	181.4685561656952	
32	159.38210678100586	pulse	1	t		30.0	2.5	/experiments/knapen_AOT/AOT_stimuli/rescaled_final/0767_rv.mp4	0.0	183.06881999969482	
32	159.5068769454956	fix_post	2		12	30.0	2.5	/experiments/knapen_AOT/AOT_stimuli/rescaled_final/0767_rv.mp4	0.0	183.19359016418457	0.10009384155273438
33	159.60697078704834	fix_pre	0		119	31.0	2.5	/experiments/knapen_AOT/AOT_stimuli/rescaled_final/1509_fw.mp4	0.0	183.2936840057373	0.9917581081390381
33	160.59872889518738	movie	1		245	31.0	2.5	/experiments/knapen_AOT/AOT_stimuli/rescaled_final/1509_fw.mp4	0.0	184.28544211387634	2.5003750324249268
33	160.98695588111877	pulse	1	t		31.0	2.5	/experiments/knapen_AOT/AOT_stimuli/rescaled_final/1509_fw.mp4	0.0	184.67366909980774	
33	162.58257579803467	pulse	1	t		31.0	2.5	/experiments/knapen_AOT/AOT_stimuli/rescaled_final/1509_fw.mp4	0.0	186.26928901672363	
33	163.0991039276123	fix_post	2		12	31.0	2.5	/experiments/knapen_AOT/AOT_stimuli/rescaled_final/1509_fw.mp4	0.0	186.78581714630127	0.10000205039978027
34	163.19910597801208	fix_pre	0		119	32.0	2.5	/experiments/knapen_AOT/AOT_stimuli/rescaled_final/1951_rv.mp4	0.0	186.88581919670105	0.9918148517608643
34	164.1828317642212	pulse	0	t		32.0	2.5	/experiments/knapen_AOT/AOT_stimuli/rescaled_final/1951_rv.mp4	0.0	187.86954498291016	
34	164.19092082977295	movie	1		244	32.0	2.5	/experiments/knapen_AOT/AOT_stimuli/rescaled_final/1951_rv.mp4	0.0	187.8776340484619	2.5087311267852783
34	165.78448581695557	pulse	1	t		32.0	2.5	/experiments/knapen_AOT/AOT_stimuli/rescaled_final/1951_rv.mp4	0.0	189.47119903564453	
34	166.69965195655823	fix_post	2		12	32.0	2.5	/experiments/knapen_AOT/AOT_stimuli/rescaled_final/1951_rv.mp4	0.0	190.3863651752472	0.09997701644897461
35	166.7996289730072	fix_pre	0		120	33.0	2.5	blank	1.0	190.48634219169617	1.00016188621521
35	167.38322377204895	pulse	0	t		33.0	2.5	blank	1.0	191.06993699073792	
35	167.7997908592224	movie	1		300	33.0	2.5	blank	1.0	191.48650407791138	2.5003960132598877
35	168.98360681533813	pulse	1	t		33.0	2.5	blank	1.0	192.6703200340271	
35	170.3001868724823	fix_post	2		12	33.0	2.5	blank	1.0	193.98690009117126	0.09997892379760742
36	170.4001657962799	fix_pre	0		120	34.0	2.5	/experiments/knapen_AOT/AOT_stimuli/rescaled_final/0745_fw.mp4	0.0	194.08687901496887	1.0001611709594727
36	170.5837368965149	pulse	0	t		34.0	2.5	/experiments/knapen_AOT/AOT_stimuli/rescaled_final/0745_fw.mp4	0.0	194.27045011520386	
36	171.40032696723938	movie	1		246	34.0	2.5	/experiments/knapen_AOT/AOT_stimuli/rescaled_final/0745_fw.mp4	0.0	195.08704018592834	2.5003578662872314
36	172.18396186828613	pulse	1	t		34.0	2.5	/experiments/knapen_AOT/AOT_stimuli/rescaled_final/0745_fw.mp4	0.0	195.8706750869751	
36	173.78438091278076	pulse	1	t		34.0	2.5	/experiments/knapen_AOT/AOT_stimuli/rescaled_final/0745_fw.mp4	0.0	197.47109413146973	
36	173.9006848335266	fix_post	2		12	34.0	2.5	/experiments/knapen_AOT/AOT_stimuli/rescaled_final/0745_fw.mp4	0.0	197.58739805221558	0.10007095336914062
37	174.00075578689575	fix_pre	0		120	35.0	2.5	/experiments/knapen_AOT/AOT_stimuli/rescaled_final/0451_rv.mp4	0.0	197.68746900558472	1.0001699924468994
37	175.00092577934265	movie	1		242	35.0	2.5	/experiments/knapen_AOT/AOT_stimuli/rescaled_final/0451_rv.mp4	0.0	198.68763899803162	2.491995096206665
37	175.38498091697693	pulse	1	t		35.0	2.5	/experiments/knapen_AOT/AOT_stimuli/rescaled_final/0451_rv.mp4	0.0	199.0716941356659	
37	176.98478388786316	pulse	1	t		35.0	2.5	/experiments/knapen_AOT/AOT_stimuli/rescaled_final/0451_rv.mp4	0.0	200.67149710655212	
37	177.49292087554932	fix_post	2		12	35.0	2.5	/experiments/knapen_AOT/AOT_stimuli/rescaled_final/0451_rv.mp4	0.0	201.17963409423828	0.09998703002929688
38	177.5929079055786	fix_pre	0		120	36.0	2.5	/experiments/knapen_AOT/AOT_stimuli/rescaled_final/0768_rv.mp4	0.0	201.27962112426758	1.000143051147461
38	178.584951877594	pulse	0	t		36.0	2.5	/experiments/knapen_AOT/AOT_stimuli/rescaled_final/0768_rv.mp4	0.0	202.27166509628296	
38	178.59305095672607	movie	1		246	36.0	2.5	/experiments/knapen_AOT/AOT_stimuli/rescaled_final/0768_rv.mp4	0.0	202.27976417541504	2.5087499618530273
38	180.18576192855835	pulse	1	t		36.0	2.5	/experiments/knapen_AOT/AOT_stimuli/rescaled_final/0768_rv.mp4	0.0	203.87247514724731	
38	181.1018009185791	fix_post	2		12	36.0	2.5	/experiments/knapen_AOT/AOT_stimuli/rescaled_final/0768_rv.mp4	0.0	204.78851413726807	0.10002398490905762
39	181.20182490348816	fix_pre	0		120	37.0	2.5	/experiments/knapen_AOT/AOT_stimuli/rescaled_final/1509_fw.mp4	0.0	204.88853812217712	1.000143051147461
39	181.7854208946228	pulse	0	t		37.0	2.5	/experiments/knapen_AOT/AOT_stimuli/rescaled_final/1509_fw.mp4	0.0	205.47213411331177	
39	182.20196795463562	movie	1		246	37.0	2.5	/experiments/knapen_AOT/AOT_stimuli/rescaled_final/1509_fw.mp4	0.0	205.88868117332458	2.5003418922424316
39	183.38589787483215	pulse	1	t		37.0	2.5	/experiments/knapen_AOT/AOT_stimuli/rescaled_final/1509_fw.mp4	0.0	207.07261109352112	
39	184.70230984687805	fix_post	2		12	37.0	2.5	/experiments/knapen_AOT/AOT_stimuli/rescaled_final/1509_fw.mp4	0.0	208.38902306556702	0.10002899169921875
40	184.80233883857727	fix_pre	0		120	38.0	2.5	/experiments/knapen_AOT/AOT_stimuli/rescaled_final/2035_fw.mp4	0.0	208.48905205726624	1.0001649856567383
40	184.9858968257904	pulse	0	t		38.0	2.5	/experiments/knapen_AOT/AOT_stimuli/rescaled_final/2035_fw.mp4	0.0	208.67261004447937	
40	185.802503824234	movie	1		244	38.0	2.5	/experiments/knapen_AOT/AOT_stimuli/rescaled_final/2035_fw.mp4	0.0	209.48921704292297	2.5004210472106934
40	186.5861098766327	pulse	1	t		38.0	2.5	/experiments/knapen_AOT/AOT_stimuli/rescaled_final/2035_fw.mp4	0.0	210.27282309532166	
40	188.1862359046936	pulse	1	t		38.0	2.5	/experiments/knapen_AOT/AOT_stimuli/rescaled_final/2035_fw.mp4	0.0	211.87294912338257	
40	188.3029248714447	fix_post	2		12	38.0	2.5	/experiments/knapen_AOT/AOT_stimuli/rescaled_final/2035_fw.mp4	0.0	211.98963809013367	0.09992194175720215
41	188.4028468132019	fix_pre	0		120	39.0	2.5	/experiments/knapen_AOT/AOT_stimuli/rescaled_final/1089_fw.mp4	0.0	212.08956003189087	1.0001561641693115
41	189.40300297737122	movie	1		244	39.0	2.5	/experiments/knapen_AOT/AOT_stimuli/rescaled_final/1089_fw.mp4	0.0	213.08971619606018	2.492025852203369
41	189.78703689575195	pulse	1	t		39.0	2.5	/experiments/knapen_AOT/AOT_stimuli/rescaled_final/1089_fw.mp4	0.0	213.47375011444092	
41	191.38693189620972	pulse	1	t		39.0	2.5	/experiments/knapen_AOT/AOT_stimuli/rescaled_final/1089_fw.mp4	0.0	215.07364511489868	
41	191.89502882957458	fix_post	2		12	39.0	2.5	/experiments/knapen_AOT/AOT_stimuli/rescaled_final/1089_fw.mp4	0.0	215.58174204826355	0.10002994537353516
42	191.99505877494812	fix_pre	0		120	40.0	2.5	/experiments/knapen_AOT/AOT_stimuli/rescaled_final/0639_rv.mp4	0.0	215.68177199363708	1.0001451969146729
42	192.98714685440063	pulse	0	t		40.0	2.5	/experiments/knapen_AOT/AOT_stimuli/rescaled_final/0639_rv.mp4	0.0	216.6738600730896	
42	192.9952039718628	movie	1		245	40.0	2.5	/experiments/knapen_AOT/AOT_stimuli/rescaled_final/0639_rv.mp4	0.0	216.68191719055176	2.5087199211120605
42	194.59130096435547	pulse	1	t		40.0	2.5	/experiments/knapen_AOT/AOT_stimuli/rescaled_final/0639_rv.mp4	0.0	218.27801418304443	
42	195.50392389297485	fix_post	2		12	40.0	2.5	/experiments/knapen_AOT/AOT_stimuli/rescaled_final/0639_rv.mp4	0.0	219.19063711166382	0.10001587867736816
43	195.60393977165222	fix_pre	0		120	41.0	2.5	/experiments/knapen_AOT/AOT_stimuli/rescaled_final/0557_rv.mp4	0.0	219.2906529903412	1.0001351833343506
43	196.1876528263092	pulse	0	t		41.0	2.5	/experiments/knapen_AOT/AOT_stimuli/rescaled_final/0557_rv.mp4	0.0	219.87436604499817	
43	196.60407495498657	movie	1		244	41.0	2.5	/experiments/knapen_AOT/AOT_stimuli/rescaled_final/0557_rv.mp4	0.0	220.29078817367554	2.5003859996795654
43	197.78796076774597	pulse	1	t		41.0	2.5	/experiments/knapen_AOT/AOT_stimuli/rescaled_final/0557_rv.mp4	0.0	221.47467398643494	
43	199.10446095466614	fix_post	2		12	41.0	2.5	/experiments/knapen_AOT/AOT_stimuli/rescaled_final/0557_rv.mp4	0.0	222.7911741733551	0.10002589225769043
44	199.20448684692383	fix_pre	0		120	42.0	2.5	blank	1.0	222.8912000656128	1.0001800060272217
44	199.3806209564209	pulse	0	t		42.0	2.5	blank	1.0	223.06733417510986	
44	200.20466685295105	movie	1		300	42.0	2.5	blank	1.0	223.89138007164001	2.5003421306610107
44	200.98085498809814	pulse	1	t		42.0	2.5	blank	1.0	224.6675682067871	
44	202.58098888397217	pulse	1	t		42.0	2.5	blank	1.0	226.26770210266113	
44	202.70500898361206	fix_post	2		12	42.0	2.5	blank	1.0	226.39172220230103	0.09998583793640137
45	202.80499482154846	fix_pre	0		120	43.0	2.5	/experiments/knapen_AOT/AOT_stimuli/rescaled_final/0941_rv.mp4	0.0	226.49170804023743	1.0005731582641602
45	203.80556797981262	movie	1		241	43.0	2.5	/experiments/knapen_AOT/AOT_stimuli/rescaled_final/0941_rv.mp4	0.0	227.4922811985016	2.4916248321533203
45	204.1897668838501	pulse	1	t		43.0	2.5	/experiments/knapen_AOT/AOT_stimuli/rescaled_final/0941_rv.mp4	0.0	227.87648010253906	
45	205.78079080581665	pulse	1	t		43.0	2.5	/experiments/knapen_AOT/AOT_stimuli/rescaled_final/0941_rv.mp4	0.0	229.46750402450562	
45	206.29719281196594	fix_post	2		12	43.0	2.5	/experiments/knapen_AOT/AOT_stimuli/rescaled_final/0941_rv.mp4	0.0	229.9839060306549	0.09999299049377441
46	206.39718580245972	fix_pre	0		119	44.0	2.5	/experiments/knapen_AOT/AOT_stimuli/rescaled_final/0008_rv.mp4	0.0	230.08389902114868	0.9918341636657715
46	207.38084483146667	pulse	0	t		44.0	2.5	/experiments/knapen_AOT/AOT_stimuli/rescaled_final/0008_rv.mp4	0.0	231.06755805015564	
46	207.3890199661255	movie	1		244	44.0	2.5	/experiments/knapen_AOT/AOT_stimuli/rescaled_final/0008_rv.mp4	0.0	231.07573318481445	2.5086939334869385
46	208.98167395591736	pulse	1	t		44.0	2.5	/experiments/knapen_AOT/AOT_stimuli/rescaled_final/0008_rv.mp4	0.0	232.66838717460632	
46	209.89771389961243	fix_post	2		12	44.0	2.5	/experiments/knapen_AOT/AOT_stimuli/rescaled_final/0008_rv.mp4	0.0	233.5844271183014	0.10008001327514648
47	209.99779391288757	fix_pre	0		120	45.0	2.5	/experiments/knapen_AOT/AOT_stimuli/rescaled_final/0132_rv.mp4	0.0	233.68450713157654	1.0001139640808105
47	210.5812919139862	pulse	0	t		45.0	2.5	/experiments/knapen_AOT/AOT_stimuli/rescaled_final/0132_rv.mp4	0.0	234.26800513267517	
47	210.99790787696838	movie	1		244	45.0	2.5	/experiments/knapen_AOT/AOT_stimuli/rescaled_final/0132_rv.mp4	0.0	234.68462109565735	2.500382900238037
47	212.18169283866882	pulse	1	t		45.0	2.5	/experiments/knapen_AOT/AOT_stimuli/rescaled_final/0132_rv.mp4	0.0	235.8684060573578	
47	213.49829077720642	fix_post	2		12	45.0	2.5	/experiments/knapen_AOT/AOT_stimuli/rescaled_final/0132_rv.mp4	0.0	237.18500399589539	0.10001206398010254
48	213.59830284118652	fix_pre	0		120	46.0	2.5	/experiments/knapen_AOT/AOT_stimuli/rescaled_final/1107_fw.mp4	0.0	237.2850160598755	1.0001790523529053
48	213.78192687034607	pulse	0	t		46.0	2.5	/experiments/knapen_AOT/AOT_stimuli/rescaled_final/1107_fw.mp4	0.0	237.46864008903503	
48	214.59848189353943	movie	1		244	46.0	2.5	/experiments/knapen_AOT/AOT_stimuli/rescaled_final/1107_fw.mp4	0.0	238.2851951122284	2.500319004058838
48	215.38214993476868	pulse	1	t		46.0	2.5	/experiments/knapen_AOT/AOT_stimuli/rescaled_final/1107_fw.mp4	0.0	239.06886315345764	
48	216.9823489189148	pulse	1	t		46.0	2.5	/experiments/knapen_AOT/AOT_stimuli/rescaled_final/1107_fw.mp4	0.0	240.66906213760376	
48	217.09880089759827	fix_post	2		12	46.0	2.5	/experiments/knapen_AOT/AOT_stimuli/rescaled_final/1107_fw.mp4	0.0	240.78551411628723	0.10005593299865723
49	217.19885683059692	fix_pre	0		119	47.0	2.5	blank	1.0	240.8855700492859	0.9917881488800049
49	218.19064497947693	movie	1		300	47.0	2.5	blank	1.0	241.8773581981659	2.5003650188446045
49	218.5825698375702	pulse	1	t		47.0	2.5	blank	1.0	242.26928305625916	
49	220.18290185928345	pulse	1	t		47.0	2.5	blank	1.0	243.8696150779724	
49	220.69100999832153	fix_post	2		12	47.0	2.5	blank	1.0	244.3777232170105	0.10001897811889648
50	220.79102897644043	fix_pre	0		120	48.0	2.5	/experiments/knapen_AOT/AOT_stimuli/rescaled_final/1125_rv.mp4	0.0	244.4777421951294	1.0001468658447266
50	221.78315091133118	pulse	0	t		48.0	2.5	/experiments/knapen_AOT/AOT_stimuli/rescaled_final/1125_rv.mp4	0.0	245.46986413002014	
50	221.79117584228516	movie	1		246	48.0	2.5	/experiments/knapen_AOT/AOT_stimuli/rescaled_final/1125_rv.mp4	0.0	245.47788906097412	2.5087239742279053
50	223.38728880882263	pulse	1	t		48.0	2.5	/experiments/knapen_AOT/AOT_stimuli/rescaled_final/1125_rv.mp4	0.0	247.0740020275116	
50	224.29989981651306	fix_post	2		12	48.0	2.5	/experiments/knapen_AOT/AOT_stimuli/rescaled_final/1125_rv.mp4	0.0	247.98661303520203	0.10001802444458008
51	224.39991784095764	fix_pre	0		120	49.0	2.5	/experiments/knapen_AOT/AOT_stimuli/rescaled_final/0873_rv.mp4	0.0	248.0866310596466	1.0001239776611328
51	224.98345184326172	pulse	0	t		49.0	2.5	/experiments/knapen_AOT/AOT_stimuli/rescaled_final/0873_rv.mp4	0.0	248.67016506195068	
51	225.40004181861877	movie	1		244	49.0	2.5	/experiments/knapen_AOT/AOT_stimuli/rescaled_final/0873_rv.mp4	0.0	249.08675503730774	2.5003609657287598
51	226.58396196365356	pulse	1	t		49.0	2.5	/experiments/knapen_AOT/AOT_stimuli/rescaled_final/0873_rv.mp4	0.0	250.27067518234253	
51	227.90040278434753	fix_post	2		12	49.0	2.5	/experiments/knapen_AOT/AOT_stimuli/rescaled_final/0873_rv.mp4	0.0	251.5871160030365	0.10002613067626953
52	228.0004289150238	fix_pre	0		120	50.0	2.5	/experiments/knapen_AOT/AOT_stimuli/rescaled_final/0331_rv.mp4	0.0	251.68714213371277	1.0001640319824219
52	228.18409180641174	pulse	0	t		50.0	2.5	/experiments/knapen_AOT/AOT_stimuli/rescaled_final/0331_rv.mp4	0.0	251.8708050251007	
52	229.00059294700623	movie	1		243	50.0	2.5	/experiments/knapen_AOT/AOT_stimuli/rescaled_final/0331_rv.mp4	0.0	252.6873061656952	2.5003669261932373
52	229.78423190116882	pulse	1	t		50.0	2.5	/experiments/knapen_AOT/AOT_stimuli/rescaled_final/0331_rv.mp4	0.0	253.4709451198578	
52	231.38442587852478	pulse	1	t		50.0	2.5	/experiments/knapen_AOT/AOT_stimuli/rescaled_final/0331_rv.mp4	0.0	255.07113909721375	
52	231.50095987319946	fix_post	2		12	50.0	2.5	/experiments/knapen_AOT/AOT_stimuli/rescaled_final/0331_rv.mp4	0.0	255.18767309188843	0.10000491142272949
53	231.6009647846222	fix_pre	0		120	51.0	2.5	/experiments/knapen_AOT/AOT_stimuli/rescaled_final/0350_fw.mp4	0.0	255.28767800331116	1.0001440048217773
53	232.60110878944397	movie	1		242	51.0	2.5	/experiments/knapen_AOT/AOT_stimuli/rescaled_final/0350_fw.mp4	0.0	256.28782200813293	2.4920461177825928
53	232.98535084724426	pulse	1	t		51.0	2.5	/experiments/knapen_AOT/AOT_stimuli/rescaled_final/0350_fw.mp4	0.0	256.6720640659332	
53	234.58500289916992	pulse	1	t		51.0	2.5	/experiments/knapen_AOT/AOT_stimuli/rescaled_final/0350_fw.mp4	0.0	258.2717161178589	
53	235.09315490722656	fix_post	2		12	51.0	2.5	/experiments/knapen_AOT/AOT_stimuli/rescaled_final/0350_fw.mp4	0.0	258.7798681259155	0.10002899169921875
54	235.19318389892578	fix_pre	0		120	52.0	2.5	/experiments/knapen_AOT/AOT_stimuli/rescaled_final/0992_rv.mp4	0.0	258.87989711761475	1.0001249313354492
54	236.18520784378052	pulse	0	t		52.0	2.5	/experiments/knapen_AOT/AOT_stimuli/rescaled_final/0992_rv.mp4	0.0	259.8719210624695	
54	236.19330883026123	movie	1		245	52.0	2.5	/experiments/knapen_AOT/AOT_stimuli/rescaled_final/0992_rv.mp4	0.0	259.8800220489502	2.5087201595306396
54	237.7896327972412	pulse	1	t		52.0	2.5	/experiments/knapen_AOT/AOT_stimuli/rescaled_final/0992_rv.mp4	0.0	261.4763460159302	
54	238.70202898979187	fix_post	2		12	52.0	2.5	/experiments/knapen_AOT/AOT_stimuli/rescaled_final/0992_rv.mp4	0.0	262.38874220848083	0.1000208854675293
55	238.8020498752594	fix_pre	0		120	53.0	2.5	/experiments/knapen_AOT/AOT_stimuli/rescaled_final/1554_rv.mp4	0.0	262.48876309394836	1.000157117843628
55	239.38570284843445	pulse	0	t		53.0	2.5	/experiments/knapen_AOT/AOT_stimuli/rescaled_final/1554_rv.mp4	0.0	263.0724160671234	
55	239.80220699310303	movie	1		244	53.0	2.5	/experiments/knapen_AOT/AOT_stimuli/rescaled_final/1554_rv.mp4	0.0	263.488920211792	2.500356912612915
55	240.9859778881073	pulse	1	t		53.0	2.5	/experiments/knapen_AOT/AOT_stimuli/rescaled_final/1554_rv.mp4	0.0	264.67269110679626	
55	242.30256390571594	fix_post	2		12	53.0	2.5	/experiments/knapen_AOT/AOT_stimuli/rescaled_final/1554_rv.mp4	0.0	265.9892771244049	0.10000395774841309
56	242.40256786346436	fix_pre	0		120	54.0	2.5	/experiments/knapen_AOT/AOT_stimuli/rescaled_final/0008_rv.mp4	0.0	266.0892810821533	1.000204086303711
56	242.58617091178894	pulse	0	t		54.0	2.5	/experiments/knapen_AOT/AOT_stimuli/rescaled_final/0008_rv.mp4	0.0	266.2728841304779	
56	243.40277194976807	movie	1		243	54.0	2.5	/experiments/knapen_AOT/AOT_stimuli/rescaled_final/0008_rv.mp4	0.0	267.08948516845703	2.500337839126587
56	244.1864538192749	pulse	1	t		54.0	2.5	/experiments/knapen_AOT/AOT_stimuli/rescaled_final/0008_rv.mp4	0.0	267.87316703796387	
56	245.78659081459045	pulse	1	t		54.0	2.5	/experiments/knapen_AOT/AOT_stimuli/rescaled_final/0008_rv.mp4	0.0	269.4733040332794	
56	245.90310978889465	fix_post	2		12	54.0	2.5	/experiments/knapen_AOT/AOT_stimuli/rescaled_final/0008_rv.mp4	0.0	269.5898230075836	0.1000521183013916
57	246.00316190719604	fix_pre	0		120	55.0	2.5	blank	1.0	269.689875125885	1.0001049041748047
57	247.00326681137085	movie	1		299	55.0	2.5	blank	1.0	270.6899800300598	2.4920780658721924
57	247.386864900589	pulse	1	t		55.0	2.5	blank	1.0	271.07357811927795	
57	248.98708987236023	pulse	1	t		55.0	2.5	blank	1.0	272.6738030910492	
57	249.49534487724304	fix_post	2		12	55.0	2.5	blank	1.0	273.182058095932	0.09997892379760742
58	249.59532380104065	fix_pre	0		120	56.0	2.5	/experiments/knapen_AOT/AOT_stimuli/rescaled_final/0417_rv.mp4	0.0	273.2820370197296	1.000133991241455
58	250.587308883667	pulse	0	t		56.0	2.5	/experiments/knapen_AOT/AOT_stimuli/rescaled_final/0417_rv.mp4	0.0	274.27402210235596	
58	250.5954577922821	movie	1		245	56.0	2.5	/experiments/knapen_AOT/AOT_stimuli/rescaled_final/0417_rv.mp4	0.0	274.28217101097107	2.5087380409240723
58	252.18822693824768	pulse	1	t		56.0	2.5	/experiments/knapen_AOT/AOT_stimuli/rescaled_final/0417_rv.mp4	0.0	275.87494015693665	
58	253.10419583320618	fix_post	2		12	56.0	2.5	/experiments/knapen_AOT/AOT_stimuli/rescaled_final/0417_rv.mp4	0.0	276.79090905189514	0.10003995895385742
59	253.20423579216003	fix_pre	0		120	57.0	2.5	/experiments/knapen_AOT/AOT_stimuli/rescaled_final/0577_rv.mp4	0.0	276.890949010849	1.000108003616333
59	253.78779888153076	pulse	0	t		57.0	2.5	/experiments/knapen_AOT/AOT_stimuli/rescaled_final/0577_rv.mp4	0.0	277.4745121002197	
59	254.20434379577637	movie	1		243	57.0	2.5	/experiments/knapen_AOT/AOT_stimuli/rescaled_final/0577_rv.mp4	0.0	277.89105701446533	2.500408172607422
59	255.38812589645386	pulse	1	t		57.0	2.5	/experiments/knapen_AOT/AOT_stimuli/rescaled_final/0577_rv.mp4	0.0	279.0748391151428	
59	256.7047519683838	fix_post	2		12	57.0	2.5	/experiments/knapen_AOT/AOT_stimuli/rescaled_final/0577_rv.mp4	0.0	280.39146518707275	0.0999908447265625
60	256.80474281311035	fix_pre	0		120	58.0	2.5	/experiments/knapen_AOT/AOT_stimuli/rescaled_final/1352_fw.mp4	0.0	280.4914560317993	1.0001120567321777
60	256.98824977874756	pulse	0	t		58.0	2.5	/experiments/knapen_AOT/AOT_stimuli/rescaled_final/1352_fw.mp4	0.0	280.6749629974365	
60	257.80485486984253	movie	1		243	58.0	2.5	/experiments/knapen_AOT/AOT_stimuli/rescaled_final/1352_fw.mp4	0.0	281.4915680885315	2.5004611015319824
60	258.58861780166626	pulse	1	t		58.0	2.5	/experiments/knapen_AOT/AOT_stimuli/rescaled_final/1352_fw.mp4	0.0	282.2753310203552	
60	260.1889169216156	pulse	1	t		58.0	2.5	/experiments/knapen_AOT/AOT_stimuli/rescaled_final/1352_fw.mp4	0.0	283.87563014030457	
60	260.3053159713745	fix_post	2		12	58.0	2.5	/experiments/knapen_AOT/AOT_stimuli/rescaled_final/1352_fw.mp4	0.0	283.9920291900635	0.09994888305664062
61	260.40526485443115	fix_pre	0		120	59.0	2.5	/experiments/knapen_AOT/AOT_stimuli/rescaled_final/2024_fw.mp4	0.0	284.0919780731201	1.000162124633789
61	261.40542697906494	movie	1		244	59.0	2.5	/experiments/knapen_AOT/AOT_stimuli/rescaled_final/2024_fw.mp4	0.0	285.0921401977539	2.4920639991760254
61	261.7896559238434	pulse	1	t		59.0	2.5	/experiments/knapen_AOT/AOT_stimuli/rescaled_final/2024_fw.mp4	0.0	285.47636914253235	
61	263.38196778297424	pulse	1	t		59.0	2.5	/experiments/knapen_AOT/AOT_stimuli/rescaled_final/2024_fw.mp4	0.0	287.0686810016632	
61	263.89749097824097	fix_post	2		12	59.0	2.5	/experiments/knapen_AOT/AOT_stimuli/rescaled_final/2024_fw.mp4	0.0	287.58420419692993	0.0999608039855957
62	263.99745178222656	fix_pre	0		120	60.0	2.5	/experiments/knapen_AOT/AOT_stimuli/rescaled_final/1692_rv.mp4	0.0	287.6841650009155	1.000190019607544
62	264.9818868637085	pulse	0	t		60.0	2.5	/experiments/knapen_AOT/AOT_stimuli/rescaled_final/1692_rv.mp4	0.0	288.66860008239746	
62	264.9976418018341	movie	1		241	60.0	2.5	/experiments/knapen_AOT/AOT_stimuli/rescaled_final/1692_rv.mp4	0.0	288.68435502052307	2.5087101459503174
62	266.5814938545227	pulse	1	t		60.0	2.5	/experiments/knapen_AOT/AOT_stimuli/rescaled_final/1692_rv.mp4	0.0	290.26820707321167	
62	267.5063519477844	fix_post	2		12	60.0	2.5	/experiments/knapen_AOT/AOT_stimuli/rescaled_final/1692_rv.mp4	0.0	291.1930651664734	0.09999489784240723
63	267.60634684562683	fix_pre	0		120	61.0	2.5	/experiments/knapen_AOT/AOT_stimuli/rescaled_final/0886_fw.mp4	0.0	291.2930600643158	1.0002119541168213
63	268.18166399002075	pulse	0	t		61.0	2.5	/experiments/knapen_AOT/AOT_stimuli/rescaled_final/0886_fw.mp4	0.0	291.8683772087097	
63	268.60655879974365	movie	1		244	61.0	2.5	/experiments/knapen_AOT/AOT_stimuli/rescaled_final/0886_fw.mp4	0.0	292.2932720184326	2.5003700256347656
63	269.7825348377228	pulse	1	t		61.0	2.5	/experiments/knapen_AOT/AOT_stimuli/rescaled_final/0886_fw.mp4	0.0	293.46924805641174	
63	271.1069288253784	fix_post	2		12	61.0	2.5	/experiments/knapen_AOT/AOT_stimuli/rescaled_final/0886_fw.mp4	0.0	294.7936420440674	0.10000395774841309
64	271.20693278312683	fix_pre	0		120	62.0	2.5	blank	1.0	294.8936460018158	1.0001051425933838
64	271.38208198547363	pulse	0	t		62.0	2.5	blank	1.0	295.0687952041626	
64	272.2070379257202	movie	1		300	62.0	2.5	blank	1.0	295.8937511444092	2.500393867492676
64	272.9823188781738	pulse	1	t		62.0	2.5	blank	1.0	296.6690320968628	
64	274.58260679244995	pulse	1	t		62.0	2.5	blank	1.0	298.2693200111389	
64	274.7074317932129	fix_post	2		12	62.0	2.5	blank	1.0	298.39414501190186	0.09998703002929688
65	274.8074188232422	fix_pre	0		120	63.0	2.5	/experiments/knapen_AOT/AOT_stimuli/rescaled_final/0392_fw.mp4	0.0	298.49413204193115	1.0001499652862549
65	275.80756878852844	movie	1		242	63.0	2.5	/experiments/knapen_AOT/AOT_stimuli/rescaled_final/0392_fw.mp4	0.0	299.4942820072174	2.4920010566711426
65	276.18286180496216	pulse	1	t		63.0	2.5	/experiments/knapen_AOT/AOT_stimuli/rescaled_final/0392_fw.mp4	0.0	299.8695750236511	
65	277.78311586380005	pulse	1	t		63.0	2.5	/experiments/knapen_AOT/AOT_stimuli/rescaled_final/0392_fw.mp4	0.0	301.469829082489	
65	278.2995698451996	fix_post	2		12	63.0	2.5	/experiments/knapen_AOT/AOT_stimuli/rescaled_final/0392_fw.mp4	0.0	301.98628306388855	0.10010004043579102
66	278.3996698856354	fix_pre	0		119	64.0	2.5	/experiments/knapen_AOT/AOT_stimuli/rescaled_final/1999_rv.mp4	0.0	302.08638310432434	0.9917910099029541
66	279.38329887390137	pulse	0	t		64.0	2.5	/experiments/knapen_AOT/AOT_stimuli/rescaled_final/1999_rv.mp4	0.0	303.07001209259033	
66	279.39146089553833	movie	1		245	64.0	2.5	/experiments/knapen_AOT/AOT_stimuli/rescaled_final/1999_rv.mp4	0.0	303.0781741142273	2.508681058883667
66	280.98397994041443	pulse	1	t		64.0	2.5	/experiments/knapen_AOT/AOT_stimuli/rescaled_final/1999_rv.mp4	0.0	304.6706931591034	
66	281.900141954422	fix_post	2		12	64.0	2.5	/experiments/knapen_AOT/AOT_stimuli/rescaled_final/1999_rv.mp4	0.0	305.58685517311096	0.10000181198120117
67	282.0001437664032	fix_pre	0		120	65.0	2.5	/experiments/knapen_AOT/AOT_stimuli/rescaled_final/0934_fw.mp4	0.0	305.68685698509216	1.0001871585845947
67	282.58389496803284	pulse	0	t		65.0	2.5	/experiments/knapen_AOT/AOT_stimuli/rescaled_final/0934_fw.mp4	0.0	306.2706081867218	
67	283.0003309249878	movie	1		243	65.0	2.5	/experiments/knapen_AOT/AOT_stimuli/rescaled_final/0934_fw.mp4	0.0	306.68704414367676	2.5003809928894043
67	284.1841468811035	pulse	1	t		65.0	2.5	/experiments/knapen_AOT/AOT_stimuli/rescaled_final/0934_fw.mp4	0.0	307.8708600997925	
67	285.5007119178772	fix_post	2		12	65.0	2.5	/experiments/knapen_AOT/AOT_stimuli/rescaled_final/0934_fw.mp4	0.0	309.18742513656616	0.10001492500305176
68	285.60072684288025	fix_pre	0		120	66.0	2.5	/experiments/knapen_AOT/AOT_stimuli/rescaled_final/1512_rv.mp4	0.0	309.2874400615692	1.000143051147461
68	285.78420996665955	pulse	0	t		66.0	2.5	/experiments/knapen_AOT/AOT_stimuli/rescaled_final/1512_rv.mp4	0.0	309.4709231853485	
68	286.6008698940277	movie	1		246	66.0	2.5	/experiments/knapen_AOT/AOT_stimuli/rescaled_final/1512_rv.mp4	0.0	310.2875831127167	2.5003390312194824
68	287.38461899757385	pulse	1	t		66.0	2.5	/experiments/knapen_AOT/AOT_stimuli/rescaled_final/1512_rv.mp4	0.0	311.0713322162628	
68	288.9848427772522	pulse	1	t		66.0	2.5	/experiments/knapen_AOT/AOT_stimuli/rescaled_final/1512_rv.mp4	0.0	312.67155599594116	
68	289.1012089252472	fix_post	2		12	66.0	2.5	/experiments/knapen_AOT/AOT_stimuli/rescaled_final/1512_rv.mp4	0.0	312.78792214393616	0.10001897811889648
69	289.2012279033661	fix_pre	0		119	67.0	2.5	/experiments/knapen_AOT/AOT_stimuli/rescaled_final/0815_fw.mp4	0.0	312.88794112205505	0.9918310642242432
69	290.19305896759033	movie	1		243	67.0	2.5	/experiments/knapen_AOT/AOT_stimuli/rescaled_final/0815_fw.mp4	0.0	313.8797721862793	2.500349998474121
69	290.58505392074585	pulse	1	t		67.0	2.5	/experiments/knapen_AOT/AOT_stimuli/rescaled_final/0815_fw.mp4	0.0	314.2717671394348	
69	292.1851918697357	pulse	1	t		67.0	2.5	/experiments/knapen_AOT/AOT_stimuli/rescaled_final/0815_fw.mp4	0.0	315.8719050884247	
69	292.69340896606445	fix_post	2		12	67.0	2.5	/experiments/knapen_AOT/AOT_stimuli/rescaled_final/0815_fw.mp4	0.0	316.3801221847534	0.10001802444458008
70	292.79342699050903	fix_pre	0		120	68.0	2.5	/experiments/knapen_AOT/AOT_stimuli/rescaled_final/1502_fw.mp4	0.0	316.480140209198	1.000173807144165
70	293.7854218482971	pulse	0	t		68.0	2.5	/experiments/knapen_AOT/AOT_stimuli/rescaled_final/1502_fw.mp4	0.0	317.4721350669861	
70	293.7936007976532	movie	1		249	68.0	2.5	/experiments/knapen_AOT/AOT_stimuli/rescaled_final/1502_fw.mp4	0.0	317.48031401634216	2.5086841583251953
70	295.386314868927	pulse	1	t		68.0	2.5	/experiments/knapen_AOT/AOT_stimuli/rescaled_final/1502_fw.mp4	0.0	319.07302808761597	
70	296.3022849559784	fix_post	2		12	68.0	2.5	/experiments/knapen_AOT/AOT_stimuli/rescaled_final/1502_fw.mp4	0.0	319.98899817466736	0.10006999969482422
71	296.4023549556732	fix_pre	0		120	69.0	2.5	/experiments/knapen_AOT/AOT_stimuli/rescaled_final/0350_rv.mp4	0.0	320.0890681743622	1.0000929832458496
71	296.9861009120941	pulse	0	t		69.0	2.5	/experiments/knapen_AOT/AOT_stimuli/rescaled_final/0350_rv.mp4	0.0	320.6728141307831	
71	297.40244793891907	movie	1		245	69.0	2.5	/experiments/knapen_AOT/AOT_stimuli/rescaled_final/0350_rv.mp4	0.0	321.08916115760803	2.5004079341888428
71	298.58626890182495	pulse	1	t		69.0	2.5	/experiments/knapen_AOT/AOT_stimuli/rescaled_final/0350_rv.mp4	0.0	322.2729821205139	
71	299.9028558731079	fix_post	2		12	69.0	2.5	/experiments/knapen_AOT/AOT_stimuli/rescaled_final/0350_rv.mp4	0.0	323.5895690917969	0.10001707077026367
72	300.0028729438782	fix_pre	0		120	70.0	2.5	blank	1.0	323.68958616256714	1.0001318454742432
72	300.18640780448914	pulse	0	t		70.0	2.5	blank	1.0	323.8731210231781	
72	301.0030047893524	movie	1		300	70.0	2.5	blank	1.0	324.6897180080414	2.500373125076294
72	301.7867088317871	pulse	1	t		70.0	2.5	blank	1.0	325.4734220504761	
72	303.3868908882141	pulse	1	t		70.0	2.5	blank	1.0	327.0736041069031	
72	303.5033779144287	fix_post	2		12	70.0	2.5	blank	1.0	327.1900911331177	0.10000205039978027
73	303.6033799648285	fix_pre	0		119	71.0	2.5	/experiments/knapen_AOT/AOT_stimuli/rescaled_final/1109_rv.mp4	0.0	327.29009318351746	0.9918158054351807
73	304.5951957702637	movie	1		244	71.0	2.5	/experiments/knapen_AOT/AOT_stimuli/rescaled_final/1109_rv.mp4	0.0	328.28190898895264	2.5003960132598877
73	304.98726177215576	pulse	1	t		71.0	2.5	/experiments/knapen_AOT/AOT_stimuli/rescaled_final/1109_rv.mp4	0.0	328.6739749908447	
73	306.587299823761	pulse	1	t		71.0	2.5	/experiments/knapen_AOT/AOT_stimuli/rescaled_final/1109_rv.mp4	0.0	330.27401304244995	
73	307.09559178352356	fix_post	2		12	71.0	2.5	/experiments/knapen_AOT/AOT_stimuli/rescaled_final/1109_rv.mp4	0.0	330.7823050022125	0.10000920295715332
74	307.1956009864807	fix_pre	0		120	72.0	2.5	/experiments/knapen_AOT/AOT_stimuli/rescaled_final/0739_rv.mp4	0.0	330.8823142051697	1.0001888275146484
74	308.1876437664032	pulse	0	t		72.0	2.5	/experiments/knapen_AOT/AOT_stimuli/rescaled_final/0739_rv.mp4	0.0	331.87435698509216	
74	308.19578981399536	movie	1		246	72.0	2.5	/experiments/knapen_AOT/AOT_stimuli/rescaled_final/0739_rv.mp4	0.0	331.8825030326843	2.508713960647583
74	309.78859782218933	pulse	1	t		72.0	2.5	/experiments/knapen_AOT/AOT_stimuli/rescaled_final/0739_rv.mp4	0.0	333.4753110408783	
74	310.70450377464294	fix_post	2		12	72.0	2.5	/experiments/knapen_AOT/AOT_stimuli/rescaled_final/0739_rv.mp4	0.0	334.3912169933319	0.0999300479888916
75	310.80443382263184	fix_pre	0		120	73.0	2.5	/experiments/knapen_AOT/AOT_stimuli/rescaled_final/0919_rv.mp4	0.0	334.4911470413208	1.0002391338348389
75	311.3882668018341	pulse	0	t		73.0	2.5	/experiments/knapen_AOT/AOT_stimuli/rescaled_final/0919_rv.mp4	0.0	335.07498002052307	
75	311.8046729564667	movie	1		244	73.0	2.5	/experiments/knapen_AOT/AOT_stimuli/rescaled_final/0919_rv.mp4	0.0	335.49138617515564	2.500321865081787
75	312.98451590538025	pulse	1	t		73.0	2.5	/experiments/knapen_AOT/AOT_stimuli/rescaled_final/0919_rv.mp4	0.0	336.6712291240692	
75	314.30499482154846	fix_post	2		12	73.0	2.5	/experiments/knapen_AOT/AOT_stimuli/rescaled_final/0919_rv.mp4	0.0	337.9917080402374	0.09999203681945801
76	314.4049868583679	fix_pre	0		120	74.0	2.5	/experiments/knapen_AOT/AOT_stimuli/rescaled_final/0331_fw.mp4	0.0	338.0917000770569	1.0001640319824219
76	314.5811388492584	pulse	0	t		74.0	2.5	/experiments/knapen_AOT/AOT_stimuli/rescaled_final/0331_fw.mp4	0.0	338.2678520679474	
76	315.40515089035034	movie	1		244	74.0	2.5	/experiments/knapen_AOT/AOT_stimuli/rescaled_final/0331_fw.mp4	0.0	339.0918641090393	2.500370979309082
76	316.18134093284607	pulse	1	t		74.0	2.5	/experiments/knapen_AOT/AOT_stimuli/rescaled_final/0331_fw.mp4	0.0	339.86805415153503	
76	317.78915882110596	pulse	1	t		74.0	2.5	/experiments/knapen_AOT/AOT_stimuli/rescaled_final/0331_fw.mp4	0.0	341.4758720397949	
76	317.9055218696594	fix_post	2		12	74.0	2.5	/experiments/knapen_AOT/AOT_stimuli/rescaled_final/0331_fw.mp4	0.0	341.5922350883484	0.10007309913635254
77	318.0055949687958	fix_pre	0		120	75.0	2.5	/experiments/knapen_AOT/AOT_stimuli/rescaled_final/0004_rv.mp4	0.0	341.69230818748474	1.0001428127288818
77	319.00573778152466	movie	1		243	75.0	2.5	/experiments/knapen_AOT/AOT_stimuli/rescaled_final/0004_rv.mp4	0.0	342.6924510002136	2.491981029510498
77	319.39031195640564	pulse	1	t		75.0	2.5	/experiments/knapen_AOT/AOT_stimuli/rescaled_final/0004_rv.mp4	0.0	343.0770251750946	
77	320.9813108444214	pulse	1	t		75.0	2.5	/experiments/knapen_AOT/AOT_stimuli/rescaled_final/0004_rv.mp4	0.0	344.66802406311035	
77	321.49771881103516	fix_post	2		12	75.0	2.5	/experiments/knapen_AOT/AOT_stimuli/rescaled_final/0004_rv.mp4	0.0	345.1844320297241	0.10004496574401855
78	321.5977637767792	fix_pre	0		119	76.0	2.5	/experiments/knapen_AOT/AOT_stimuli/rescaled_final/2173_rv.mp4	0.0	345.28447699546814	0.9917981624603271
78	322.5813457965851	pulse	0	t		76.0	2.5	/experiments/knapen_AOT/AOT_stimuli/rescaled_final/2173_rv.mp4	0.0	346.26805901527405	
78	322.5895619392395	movie	1		247	76.0	2.5	/experiments/knapen_AOT/AOT_stimuli/rescaled_final/2173_rv.mp4	0.0	346.27627515792847	2.508744955062866
78	324.18226289749146	pulse	1	t		76.0	2.5	/experiments/knapen_AOT/AOT_stimuli/rescaled_final/2173_rv.mp4	0.0	347.8689761161804	
78	325.09830689430237	fix_post	2		12	76.0	2.5	/experiments/knapen_AOT/AOT_stimuli/rescaled_final/2173_rv.mp4	0.0	348.78502011299133	0.09997200965881348
79	325.1982789039612	fix_pre	0		117	77.0	2.5	blank	1.0	348.88499212265015	1.0001630783081055
79	325.78186678886414	pulse	0	t		77.0	2.5	blank	1.0	349.4685800075531	
79	326.1984419822693	movie	1		300	77.0	2.5	blank	1.0	349.88515520095825	2.500372886657715
79	327.38216280937195	pulse	1	t		77.0	2.5	blank	1.0	351.0688760280609	
79	328.698814868927	fix_post	2		12	77.0	2.5	blank	1.0	352.38552808761597	0.10007500648498535
80	328.798889875412	fix_pre	0		120	78.0	2.5	/experiments/knapen_AOT/AOT_stimuli/rescaled_final/1596_rv.mp4	0.0	352.48560309410095	1.0000739097595215
80	328.9823579788208	pulse	0	t		78.0	2.5	/experiments/knapen_AOT/AOT_stimuli/rescaled_final/1596_rv.mp4	0.0	352.66907119750977	
80	329.7989637851715	movie	1		245	78.0	2.5	/experiments/knapen_AOT/AOT_stimuli/rescaled_final/1596_rv.mp4	0.0	353.4856770038605	2.500369071960449
80	330.5825788974762	pulse	1	t		78.0	2.5	/experiments/knapen_AOT/AOT_stimuli/rescaled_final/1596_rv.mp4	0.0	354.26929211616516	
80	332.1828408241272	pulse	1	t		78.0	2.5	/experiments/knapen_AOT/AOT_stimuli/rescaled_final/1596_rv.mp4	0.0	355.86955404281616	
80	332.29933285713196	fix_post	2		12	78.0	2.5	/experiments/knapen_AOT/AOT_stimuli/rescaled_final/1596_rv.mp4	0.0	355.9860460758209	0.09999513626098633
81	332.39932799339294	fix_pre	0		120	79.0	2.5	/experiments/knapen_AOT/AOT_stimuli/rescaled_final/1596_fw.mp4	0.0	356.0860412120819	1.0001699924468994
81	333.39949798583984	movie	1		244	79.0	2.5	/experiments/knapen_AOT/AOT_stimuli/rescaled_final/1596_fw.mp4	0.0	357.0862112045288	2.4920198917388916
81	333.78444600105286	pulse	1	t		79.0	2.5	/experiments/knapen_AOT/AOT_stimuli/rescaled_final/1596_fw.mp4	0.0	357.4711592197418	
81	335.38329577445984	pulse	1	t		79.0	2.5	/experiments/knapen_AOT/AOT_stimuli/rescaled_final/1596_fw.mp4	0.0	359.0700089931488	
81	335.89151787757874	fix_post	2		12	79.0	2.5	/experiments/knapen_AOT/AOT_stimuli/rescaled_final/1596_fw.mp4	0.0	359.5782310962677	0.10001492500305176
82	335.9915328025818	fix_pre	0		120	80.0	2.5	/experiments/knapen_AOT/AOT_stimuli/rescaled_final/0684_rv.mp4	0.0	359.67824602127075	1.0001590251922607
82	336.98361587524414	pulse	0	t		80.0	2.5	/experiments/knapen_AOT/AOT_stimuli/rescaled_final/0684_rv.mp4	0.0	360.6703290939331	
82	336.99169182777405	movie	1		244	80.0	2.5	/experiments/knapen_AOT/AOT_stimuli/rescaled_final/0684_rv.mp4	0.0	360.678405046463	2.5087051391601562
82	338.5843029022217	pulse	1	t		80.0	2.5	/experiments/knapen_AOT/AOT_stimuli/rescaled_final/0684_rv.mp4	0.0	362.27101612091064	
82	339.5003969669342	fix_post	2		12	80.0	2.5	/experiments/knapen_AOT/AOT_stimuli/rescaled_final/0684_rv.mp4	0.0	363.18711018562317	0.10001182556152344
83	339.6004087924957	fix_pre	0		120	81.0	2.5	/experiments/knapen_AOT/AOT_stimuli/rescaled_final/0409_fw.mp4	0.0	363.2871220111847	1.0001871585845947
83	340.18411087989807	pulse	0	t		81.0	2.5	/experiments/knapen_AOT/AOT_stimuli/rescaled_final/0409_fw.mp4	0.0	363.87082409858704	
83	340.6005959510803	movie	1		245	81.0	2.5	/experiments/knapen_AOT/AOT_stimuli/rescaled_final/0409_fw.mp4	0.0	364.2873091697693	2.5003788471221924
83	341.78437089920044	pulse	1	t		81.0	2.5	/experiments/knapen_AOT/AOT_stimuli/rescaled_final/0409_fw.mp4	0.0	365.4710841178894	
83	343.1009747982025	fix_post	2		12	81.0	2.5	/experiments/knapen_AOT/AOT_stimuli/rescaled_final/0409_fw.mp4	0.0	366.7876880168915	0.09998297691345215
84	343.20095777511597	fix_pre	0		120	82.0	2.5	/experiments/knapen_AOT/AOT_stimuli/rescaled_final/1354_rv.mp4	0.0	366.88767099380493	1.0001749992370605
84	343.38462591171265	pulse	0	t		82.0	2.5	/experiments/knapen_AOT/AOT_stimuli/rescaled_final/1354_rv.mp4	0.0	367.0713391304016	
84	344.201132774353	movie	1		243	82.0	2.5	/experiments/knapen_AOT/AOT_stimuli/rescaled_final/1354_rv.mp4	0.0	367.887845993042	2.5003411769866943
84	344.9847388267517	pulse	1	t		82.0	2.5	/experiments/knapen_AOT/AOT_stimuli/rescaled_final/1354_rv.mp4	0.0	368.6714520454407	
84	346.58523893356323	pulse	1	t		82.0	2.5	/experiments/knapen_AOT/AOT_stimuli/rescaled_final/1354_rv.mp4	0.0	370.2719521522522	
84	346.7014739513397	fix_post	2		12	82.0	2.5	/experiments/knapen_AOT/AOT_stimuli/rescaled_final/1354_rv.mp4	0.0	370.3881871700287	0.09999203681945801
85	346.8014659881592	fix_pre	0		120	83.0	2.5	blank	1.0	370.48817920684814	1.0001928806304932
85	347.8016588687897	movie	1		299	83.0	2.5	blank	1.0	371.48837208747864	2.492027997970581
85	348.1853578090668	pulse	1	t		83.0	2.5	blank	1.0	371.87207102775574	
85	349.78552985191345	pulse	1	t		83.0	2.5	blank	1.0	373.4722430706024	
85	350.29368686676025	fix_post	2		12	83.0	2.5	blank	1.0	373.9804000854492	0.10001611709594727
87	350.3937029838562	stim	0		1716					374.08041620254517	14.302218914031982
87	351.38582587242126	pulse	0	t						375.07253909111023	
87	352.9859528541565	pulse	0	t						376.67266607284546	
87	354.58613991737366	pulse	0	t						378.2728531360626	
87	356.18641781806946	pulse	0	t						379.8731310367584	
87	357.786682844162	pulse	0	t						381.47339606285095	
87	359.3868999481201	pulse	0	t						383.0736131668091	
87	360.98710894584656	pulse	0	t						384.6738221645355	
87	362.5873758792877	pulse	0	t						386.2740890979767	
87	364.187668800354	pulse	0	t						387.87438201904297	
