trial_nr	onset	event_type	phase	response	nr_frames	movie_index	movie_duration	movie_file	blank	onset_abs	duration
0	0.175032377243042	stim	0		1					16.371973752975464	0.00822305679321289
0	0.17763876914978027	response	0	space						16.374580144882202	
1	0.18325543403625488	stim	0		4695					16.380196809768677	39.14351534843445
1	39.311983823776245	pulse	0	t						55.50892519950867	
1	39.3267707824707	stim	1		1714					55.523712158203125	14.297761678695679
1	40.90620994567871	pulse	1	t						57.10315132141113	
1	42.50640940666199	pulse	1	t						58.70335078239441	
1	44.10666346549988	pulse	1	t						60.3036048412323	
1	45.707133769989014	pulse	1	t						61.904075145721436	
1	47.30713367462158	pulse	1	t						63.504075050354004	
1	48.90736198425293	pulse	1	t						65.10430335998535	
1	50.50759172439575	pulse	1	t						66.70453310012817	
1	52.10783791542053	pulse	1	t						68.30477929115295	
2	53.62453246116638	fix_pre	0		11	0.0	2.5	/experiments/Knapen_AOT/AOT_stimuli/rescaled_final/2133_rv.mp4	0.0	69.8214738368988	0.10840749740600586
2	53.70816493034363	pulse	0	t		0.0	2.5	/experiments/Knapen_AOT/AOT_stimuli/rescaled_final/2133_rv.mp4	0.0	69.90510630607605	
2	53.73293995857239	movie	1		293	0.0	2.5	/experiments/Knapen_AOT/AOT_stimuli/rescaled_final/2133_rv.mp4	0.0	69.92988133430481	2.4920177459716797
2	55.30679941177368	pulse	1	t		0.0	2.5	/experiments/Knapen_AOT/AOT_stimuli/rescaled_final/2133_rv.mp4	0.0	71.5037407875061	
2	56.22495770454407	fix_post	2		12	0.0	2.5	/experiments/Knapen_AOT/AOT_stimuli/rescaled_final/2133_rv.mp4	0.0	72.42189908027649	0.10004734992980957
3	56.32500505447388	fix_pre	0		120	1.0	2.5	/experiments/Knapen_AOT/AOT_stimuli/rescaled_final/1687_fw.mp4	0.0	72.5219464302063	1.0084235668182373
3	56.908581018447876	pulse	0	t		1.0	2.5	/experiments/Knapen_AOT/AOT_stimuli/rescaled_final/1687_fw.mp4	0.0	73.1055223941803	
3	57.333428621292114	movie	1		284	1.0	2.5	/experiments/Knapen_AOT/AOT_stimuli/rescaled_final/1687_fw.mp4	0.0	73.53036999702454	2.4920272827148438
3	58.50746297836304	pulse	1	t		1.0	2.5	/experiments/Knapen_AOT/AOT_stimuli/rescaled_final/1687_fw.mp4	0.0	74.70440435409546	
3	59.82545590400696	fix_post	2		12	1.0	2.5	/experiments/Knapen_AOT/AOT_stimuli/rescaled_final/1687_fw.mp4	0.0	76.02239727973938	0.10005307197570801
4	59.925508975982666	fix_pre	0		120	2.0	2.5	/experiments/Knapen_AOT/AOT_stimuli/rescaled_final/1684_fw.mp4	0.0	76.12245035171509	1.0085172653198242
4	60.10904145240784	pulse	0	t		2.0	2.5	/experiments/Knapen_AOT/AOT_stimuli/rescaled_final/1684_fw.mp4	0.0	76.30598282814026	
4	60.93402624130249	movie	1		281	2.0	2.5	/experiments/Knapen_AOT/AOT_stimuli/rescaled_final/1684_fw.mp4	0.0	77.13096761703491	2.492055654525757
4	61.70718193054199	pulse	1	t		2.0	2.5	/experiments/Knapen_AOT/AOT_stimuli/rescaled_final/1684_fw.mp4	0.0	77.90412330627441	
4	63.30734300613403	pulse	1	t		2.0	2.5	/experiments/Knapen_AOT/AOT_stimuli/rescaled_final/1684_fw.mp4	0.0	79.50428438186646	
4	63.42608189582825	fix_post	2		12	2.0	2.5	/experiments/Knapen_AOT/AOT_stimuli/rescaled_final/1684_fw.mp4	0.0	79.62302327156067	0.09994840621948242
5	63.52603030204773	fix_pre	0		120	3.0	2.5	/experiments/Knapen_AOT/AOT_stimuli/rescaled_final/0878_rv.mp4	0.0	79.72297167778015	1.008476972579956
5	64.53450727462769	movie	1		288	3.0	2.5	/experiments/Knapen_AOT/AOT_stimuli/rescaled_final/0878_rv.mp4	0.0	80.73144865036011	2.492046356201172
5	64.90840005874634	pulse	1	t		3.0	2.5	/experiments/Knapen_AOT/AOT_stimuli/rescaled_final/0878_rv.mp4	0.0	81.10534143447876	
5	66.50788378715515	pulse	1	t		3.0	2.5	/experiments/Knapen_AOT/AOT_stimuli/rescaled_final/0878_rv.mp4	0.0	82.70482516288757	
5	67.02655363082886	fix_post	2		12	3.0	2.5	/experiments/Knapen_AOT/AOT_stimuli/rescaled_final/0878_rv.mp4	0.0	83.22349500656128	0.10006356239318848
6	67.12661719322205	fix_pre	0		119	4.0	2.5	/experiments/Knapen_AOT/AOT_stimuli/rescaled_final/0487_fw.mp4	0.0	83.32355856895447	1.0001559257507324
6	68.11023592948914	pulse	0	t		4.0	2.5	/experiments/Knapen_AOT/AOT_stimuli/rescaled_final/0487_fw.mp4	0.0	84.30717730522156	
6	68.12677311897278	movie	1		279	4.0	2.5	/experiments/Knapen_AOT/AOT_stimuli/rescaled_final/0487_fw.mp4	0.0	84.3237144947052	2.500326156616211
6	69.709317445755	pulse	1	t		4.0	2.5	/experiments/Knapen_AOT/AOT_stimuli/rescaled_final/0487_fw.mp4	0.0	85.90625882148743	
6	70.62709927558899	fix_post	2		12	4.0	2.5	/experiments/Knapen_AOT/AOT_stimuli/rescaled_final/0487_fw.mp4	0.0	86.82404065132141	0.10003089904785156
7	70.72713017463684	fix_pre	0		120	5.0	2.5	/experiments/Knapen_AOT/AOT_stimuli/rescaled_final/0553_rv.mp4	0.0	86.92407155036926	1.0085194110870361
7	71.31083393096924	pulse	0	t		5.0	2.5	/experiments/Knapen_AOT/AOT_stimuli/rescaled_final/0553_rv.mp4	0.0	87.50777530670166	
7	71.73564958572388	movie	1		288	5.0	2.5	/experiments/Knapen_AOT/AOT_stimuli/rescaled_final/0553_rv.mp4	0.0	87.9325909614563	2.4919850826263428
7	72.90903759002686	pulse	1	t		5.0	2.5	/experiments/Knapen_AOT/AOT_stimuli/rescaled_final/0553_rv.mp4	0.0	89.10597896575928	
7	74.22763466835022	fix_post	2		12	5.0	2.5	/experiments/Knapen_AOT/AOT_stimuli/rescaled_final/0553_rv.mp4	0.0	90.42457604408264	0.10005021095275879
8	74.32768487930298	fix_pre	0		120	6.0	2.5	/experiments/Knapen_AOT/AOT_stimuli/rescaled_final/2048_rv.mp4	0.0	90.5246262550354	1.0085008144378662
8	74.51149559020996	pulse	0	t		6.0	2.5	/experiments/Knapen_AOT/AOT_stimuli/rescaled_final/2048_rv.mp4	0.0	90.70843696594238	
8	75.33618569374084	movie	1		284	6.0	2.5	/experiments/Knapen_AOT/AOT_stimuli/rescaled_final/2048_rv.mp4	0.0	91.53312706947327	2.50032377243042
8	76.10930323600769	pulse	1	t		6.0	2.5	/experiments/Knapen_AOT/AOT_stimuli/rescaled_final/2048_rv.mp4	0.0	92.30624461174011	
8	77.71124243736267	pulse	1	t		6.0	2.5	/experiments/Knapen_AOT/AOT_stimuli/rescaled_final/2048_rv.mp4	0.0	93.90818381309509	
8	77.83650946617126	fix_post	2		11	6.0	2.5	/experiments/Knapen_AOT/AOT_stimuli/rescaled_final/2048_rv.mp4	0.0	94.03345084190369	0.09169960021972656
9	77.92820906639099	fix_pre	0		120	7.0	2.5	blank	1.0	94.12515044212341	1.0001213550567627
9	78.92833042144775	movie	1		300	7.0	2.5	blank	1.0	95.12527179718018	2.5003645420074463
9	79.31244730949402	pulse	1	t		7.0	2.5	blank	1.0	95.50938868522644	
9	80.9123272895813	pulse	1	t		7.0	2.5	blank	1.0	97.10926866531372	
9	81.4286949634552	fix_post	2		12	7.0	2.5	blank	1.0	97.62563633918762	0.10007143020629883
10	81.5287663936615	fix_pre	0		119	8.0	2.5	/experiments/Knapen_AOT/AOT_stimuli/rescaled_final/0571_fw.mp4	0.0	97.72570776939392	1.0001113414764404
10	82.51242065429688	pulse	0	t		8.0	2.5	/experiments/Knapen_AOT/AOT_stimuli/rescaled_final/0571_fw.mp4	0.0	98.7093620300293	
10	82.52887773513794	movie	1		290	8.0	2.5	/experiments/Knapen_AOT/AOT_stimuli/rescaled_final/0571_fw.mp4	0.0	98.72581911087036	2.5004146099090576
10	84.11079907417297	pulse	1	t		8.0	2.5	/experiments/Knapen_AOT/AOT_stimuli/rescaled_final/0571_fw.mp4	0.0	100.3077404499054	
10	85.029292345047	fix_post	2		12	8.0	2.5	/experiments/Knapen_AOT/AOT_stimuli/rescaled_final/0571_fw.mp4	0.0	101.22623372077942	0.09997892379760742
11	85.1292712688446	fix_pre	0		120	9.0	2.5	/experiments/Knapen_AOT/AOT_stimuli/rescaled_final/1938_rv.mp4	0.0	101.32621264457703	1.0084874629974365
11	85.71297907829285	pulse	0	t		9.0	2.5	/experiments/Knapen_AOT/AOT_stimuli/rescaled_final/1938_rv.mp4	0.0	101.90992045402527	
11	86.13775873184204	movie	1		276	9.0	2.5	/experiments/Knapen_AOT/AOT_stimuli/rescaled_final/1938_rv.mp4	0.0	102.33470010757446	2.4920589923858643
11	87.31133317947388	pulse	1	t		9.0	2.5	/experiments/Knapen_AOT/AOT_stimuli/rescaled_final/1938_rv.mp4	0.0	103.5082745552063	
11	88.6298177242279	fix_post	2		12	9.0	2.5	/experiments/Knapen_AOT/AOT_stimuli/rescaled_final/1938_rv.mp4	0.0	104.82675909996033	0.1000068187713623
12	88.72982454299927	fix_pre	0		120	10.0	2.5	/experiments/Knapen_AOT/AOT_stimuli/rescaled_final/2139_fw.mp4	0.0	104.92676591873169	1.0084943771362305
12	88.91337990760803	pulse	0	t		10.0	2.5	/experiments/Knapen_AOT/AOT_stimuli/rescaled_final/2139_fw.mp4	0.0	105.11032128334045	
12	89.7383189201355	movie	1		294	10.0	2.5	/experiments/Knapen_AOT/AOT_stimuli/rescaled_final/2139_fw.mp4	0.0	105.93526029586792	2.4919958114624023
12	90.51127290725708	pulse	1	t		10.0	2.5	/experiments/Knapen_AOT/AOT_stimuli/rescaled_final/2139_fw.mp4	0.0	106.7082142829895	
12	92.10932469367981	pulse	1	t		10.0	2.5	/experiments/Knapen_AOT/AOT_stimuli/rescaled_final/2139_fw.mp4	0.0	108.30626606941223	
12	92.2303147315979	fix_post	2		12	10.0	2.5	/experiments/Knapen_AOT/AOT_stimuli/rescaled_final/2139_fw.mp4	0.0	108.42725610733032	0.10001397132873535
13	92.33032870292664	fix_pre	0		120	11.0	2.5	/experiments/Knapen_AOT/AOT_stimuli/rescaled_final/1847_fw.mp4	0.0	108.52727007865906	1.0085608959197998
13	93.33888959884644	movie	1		294	11.0	2.5	/experiments/Knapen_AOT/AOT_stimuli/rescaled_final/1847_fw.mp4	0.0	109.53583097457886	2.491995096206665
13	93.70596265792847	pulse	1	t		11.0	2.5	/experiments/Knapen_AOT/AOT_stimuli/rescaled_final/1847_fw.mp4	0.0	109.90290403366089	
13	95.30603384971619	pulse	1	t		11.0	2.5	/experiments/Knapen_AOT/AOT_stimuli/rescaled_final/1847_fw.mp4	0.0	111.50297522544861	
13	95.8308846950531	fix_post	2		12	11.0	2.5	/experiments/Knapen_AOT/AOT_stimuli/rescaled_final/1847_fw.mp4	0.0	112.02782607078552	0.10001039505004883
14	95.93089509010315	fix_pre	0		118	12.0	2.5	/experiments/Knapen_AOT/AOT_stimuli/rescaled_final/0217_rv.mp4	0.0	112.12783646583557	0.9917984008789062
14	96.90620589256287	pulse	0	t		12.0	2.5	/experiments/Knapen_AOT/AOT_stimuli/rescaled_final/0217_rv.mp4	0.0	113.10314726829529	
14	96.92269349098206	movie	1		294	12.0	2.5	/experiments/Knapen_AOT/AOT_stimuli/rescaled_final/0217_rv.mp4	0.0	113.11963486671448	2.5003554821014404
14	98.50642466545105	pulse	1	t		12.0	2.5	/experiments/Knapen_AOT/AOT_stimuli/rescaled_final/0217_rv.mp4	0.0	114.70336604118347	
14	99.4230489730835	fix_post	2		12	12.0	2.5	/experiments/Knapen_AOT/AOT_stimuli/rescaled_final/0217_rv.mp4	0.0	115.61999034881592	0.10001802444458008
15	99.52306699752808	fix_pre	0		120	13.0	2.5	blank	1.0	115.7200083732605	1.0001752376556396
15	100.10665798187256	pulse	0	t		13.0	2.5	blank	1.0	116.30359935760498	
15	100.52324223518372	movie	1		300	13.0	2.5	blank	1.0	116.72018361091614	2.500379800796509
15	101.7069022655487	pulse	1	t		13.0	2.5	blank	1.0	117.90384364128113	
15	103.02362203598022	fix_post	2		12	13.0	2.5	blank	1.0	119.22056341171265	0.10002470016479492
16	103.12364673614502	fix_pre	0		120	14.0	2.5	/experiments/Knapen_AOT/AOT_stimuli/rescaled_final/0082_rv.mp4	0.0	119.32058811187744	1.0085172653198242
16	103.30716562271118	pulse	0	t		14.0	2.5	/experiments/Knapen_AOT/AOT_stimuli/rescaled_final/0082_rv.mp4	0.0	119.5041069984436	
16	104.13216400146484	movie	1		282	14.0	2.5	/experiments/Knapen_AOT/AOT_stimuli/rescaled_final/0082_rv.mp4	0.0	120.32910537719727	2.492035388946533
16	104.9074239730835	pulse	1	t		14.0	2.5	/experiments/Knapen_AOT/AOT_stimuli/rescaled_final/0082_rv.mp4	0.0	121.10436534881592	
16	106.50652527809143	pulse	1	t		14.0	2.5	/experiments/Knapen_AOT/AOT_stimuli/rescaled_final/0082_rv.mp4	0.0	122.70346665382385	
16	106.62419939041138	fix_post	2		12	14.0	2.5	/experiments/Knapen_AOT/AOT_stimuli/rescaled_final/0082_rv.mp4	0.0	122.8211407661438	0.1000678539276123
17	106.72426724433899	fix_pre	0		120	15.0	2.5	/experiments/Knapen_AOT/AOT_stimuli/rescaled_final/1743_fw.mp4	0.0	122.92120862007141	1.0084137916564941
17	107.73268103599548	movie	1		288	15.0	2.5	/experiments/Knapen_AOT/AOT_stimuli/rescaled_final/1743_fw.mp4	0.0	123.9296224117279	2.4837148189544678
17	108.10633707046509	pulse	1	t		15.0	2.5	/experiments/Knapen_AOT/AOT_stimuli/rescaled_final/1743_fw.mp4	0.0	124.30327844619751	
17	109.70622658729553	pulse	1	t		15.0	2.5	/experiments/Knapen_AOT/AOT_stimuli/rescaled_final/1743_fw.mp4	0.0	125.90316796302795	
17	110.21639585494995	fix_post	2		12	15.0	2.5	/experiments/Knapen_AOT/AOT_stimuli/rescaled_final/1743_fw.mp4	0.0	126.41333723068237	0.10000801086425781
18	110.31640386581421	fix_pre	0		120	16.0	2.5	/experiments/Knapen_AOT/AOT_stimuli/rescaled_final/0994_rv.mp4	0.0	126.51334524154663	1.0084865093231201
18	111.30841732025146	pulse	0	t		16.0	2.5	/experiments/Knapen_AOT/AOT_stimuli/rescaled_final/0994_rv.mp4	0.0	127.50535869598389	
18	111.32489037513733	movie	1		280	16.0	2.5	/experiments/Knapen_AOT/AOT_stimuli/rescaled_final/0994_rv.mp4	0.0	127.52183175086975	2.5003983974456787
18	112.90701150894165	pulse	1	t		16.0	2.5	/experiments/Knapen_AOT/AOT_stimuli/rescaled_final/0994_rv.mp4	0.0	129.10395288467407	
18	113.82528877258301	fix_post	2		12	16.0	2.5	/experiments/Knapen_AOT/AOT_stimuli/rescaled_final/0994_rv.mp4	0.0	130.02223014831543	0.1000368595123291
19	113.92532563209534	fix_pre	0		120	17.0	2.5	/experiments/Knapen_AOT/AOT_stimuli/rescaled_final/2052_fw.mp4	0.0	130.12226700782776	1.0084314346313477
19	114.50888061523438	pulse	0	t		17.0	2.5	/experiments/Knapen_AOT/AOT_stimuli/rescaled_final/2052_fw.mp4	0.0	130.7058219909668	
19	114.93375706672668	movie	1		272	17.0	2.5	/experiments/Knapen_AOT/AOT_stimuli/rescaled_final/2052_fw.mp4	0.0	131.1306984424591	2.4920294284820557
19	116.10724139213562	pulse	1	t		17.0	2.5	/experiments/Knapen_AOT/AOT_stimuli/rescaled_final/2052_fw.mp4	0.0	132.30418276786804	
19	117.42578649520874	fix_post	2		12	17.0	2.5	/experiments/Knapen_AOT/AOT_stimuli/rescaled_final/2052_fw.mp4	0.0	133.62272787094116	0.10002565383911133
20	117.52581214904785	fix_pre	0		120	18.0	2.5	/experiments/Knapen_AOT/AOT_stimuli/rescaled_final/2099_rv.mp4	0.0	133.72275352478027	1.0085208415985107
20	117.70935034751892	pulse	0	t		18.0	2.5	/experiments/Knapen_AOT/AOT_stimuli/rescaled_final/2099_rv.mp4	0.0	133.90629172325134	
20	118.53433299064636	movie	1		283	18.0	2.5	/experiments/Knapen_AOT/AOT_stimuli/rescaled_final/2099_rv.mp4	0.0	134.73127436637878	2.4920244216918945
20	119.30749130249023	pulse	1	t		18.0	2.5	/experiments/Knapen_AOT/AOT_stimuli/rescaled_final/2099_rv.mp4	0.0	135.50443267822266	
20	120.90789890289307	pulse	1	t		18.0	2.5	/experiments/Knapen_AOT/AOT_stimuli/rescaled_final/2099_rv.mp4	0.0	137.1048402786255	
20	121.02635741233826	fix_post	2		12	18.0	2.5	/experiments/Knapen_AOT/AOT_stimuli/rescaled_final/2099_rv.mp4	0.0	137.22329878807068	0.10001897811889648
21	121.12637639045715	fix_pre	0		120	19.0	2.5	/experiments/Knapen_AOT/AOT_stimuli/rescaled_final/0483_rv.mp4	0.0	137.32331776618958	1.008498191833496
21	122.13487458229065	movie	1		284	19.0	2.5	/experiments/Knapen_AOT/AOT_stimuli/rescaled_final/0483_rv.mp4	0.0	138.33181595802307	2.4920802116394043
21	122.50844931602478	pulse	1	t		19.0	2.5	/experiments/Knapen_AOT/AOT_stimuli/rescaled_final/0483_rv.mp4	0.0	138.7053906917572	
21	124.10801196098328	pulse	1	t		19.0	2.5	/experiments/Knapen_AOT/AOT_stimuli/rescaled_final/0483_rv.mp4	0.0	140.3049533367157	
21	124.62695479393005	fix_post	2		12	19.0	2.5	/experiments/Knapen_AOT/AOT_stimuli/rescaled_final/0483_rv.mp4	0.0	140.82389616966248	0.09993934631347656
22	124.72689414024353	fix_pre	0		119	20.0	2.5	/experiments/Knapen_AOT/AOT_stimuli/rescaled_final/1115_fw.mp4	0.0	140.92383551597595	1.0001544952392578
22	125.71056509017944	pulse	0	t		20.0	2.5	/experiments/Knapen_AOT/AOT_stimuli/rescaled_final/1115_fw.mp4	0.0	141.90750646591187	
22	125.72704863548279	movie	1		292	20.0	2.5	/experiments/Knapen_AOT/AOT_stimuli/rescaled_final/1115_fw.mp4	0.0	141.9239900112152	2.5003883838653564
22	127.30920124053955	pulse	1	t		20.0	2.5	/experiments/Knapen_AOT/AOT_stimuli/rescaled_final/1115_fw.mp4	0.0	143.50614261627197	
22	128.22743701934814	fix_post	2		12	20.0	2.5	/experiments/Knapen_AOT/AOT_stimuli/rescaled_final/1115_fw.mp4	0.0	144.42437839508057	0.09999942779541016
23	128.32743644714355	fix_pre	0		120	21.0	2.5	blank	1.0	144.52437782287598	1.0001389980316162
23	128.911030292511	pulse	0	t		21.0	2.5	blank	1.0	145.1079716682434	
23	129.32757544517517	movie	1		300	21.0	2.5	blank	1.0	145.5245168209076	2.50038743019104
23	130.51152110099792	pulse	1	t		21.0	2.5	blank	1.0	146.70846247673035	
23	131.8279628753662	fix_post	2		12	21.0	2.5	blank	1.0	148.02490425109863	0.10000967979431152
24	131.92797255516052	fix_pre	0		120	22.0	2.5	/experiments/Knapen_AOT/AOT_stimuli/rescaled_final/0864_fw.mp4	0.0	148.12491393089294	1.0085222721099854
24	132.1115186214447	pulse	0	t		22.0	2.5	/experiments/Knapen_AOT/AOT_stimuli/rescaled_final/0864_fw.mp4	0.0	148.30845999717712	
24	132.9364948272705	movie	1		280	22.0	2.5	/experiments/Knapen_AOT/AOT_stimuli/rescaled_final/0864_fw.mp4	0.0	149.13343620300293	2.4920036792755127
24	133.71126461029053	pulse	1	t		22.0	2.5	/experiments/Knapen_AOT/AOT_stimuli/rescaled_final/0864_fw.mp4	0.0	149.90820598602295	
24	135.30984568595886	pulse	1	t		22.0	2.5	/experiments/Knapen_AOT/AOT_stimuli/rescaled_final/0864_fw.mp4	0.0	151.50678706169128	
24	135.42849850654602	fix_post	2		12	22.0	2.5	/experiments/Knapen_AOT/AOT_stimuli/rescaled_final/0864_fw.mp4	0.0	151.62543988227844	0.10002326965332031
25	135.52852177619934	fix_pre	0		120	23.0	2.5	/experiments/Knapen_AOT/AOT_stimuli/rescaled_final/1254_fw.mp4	0.0	151.72546315193176	1.0084898471832275
25	136.53701162338257	movie	1		277	23.0	2.5	/experiments/Knapen_AOT/AOT_stimuli/rescaled_final/1254_fw.mp4	0.0	152.733952999115	2.4920380115509033
25	136.9109809398651	pulse	1	t		23.0	2.5	/experiments/Knapen_AOT/AOT_stimuli/rescaled_final/1254_fw.mp4	0.0	153.10792231559753	
25	138.51018714904785	pulse	1	t		23.0	2.5	/experiments/Knapen_AOT/AOT_stimuli/rescaled_final/1254_fw.mp4	0.0	154.70712852478027	
25	139.02904963493347	fix_post	2		12	23.0	2.5	/experiments/Knapen_AOT/AOT_stimuli/rescaled_final/1254_fw.mp4	0.0	155.2259910106659	0.09999656677246094
26	139.12904620170593	fix_pre	0		119	24.0	2.5	/experiments/Knapen_AOT/AOT_stimuli/rescaled_final/0448_fw.mp4	0.0	155.32598757743835	1.0001847743988037
26	140.1126835346222	pulse	0	t		24.0	2.5	/experiments/Knapen_AOT/AOT_stimuli/rescaled_final/0448_fw.mp4	0.0	156.30962491035461	
26	140.12923097610474	movie	1		278	24.0	2.5	/experiments/Knapen_AOT/AOT_stimuli/rescaled_final/0448_fw.mp4	0.0	156.32617235183716	2.5003578662872314
26	141.71119260787964	pulse	1	t		24.0	2.5	/experiments/Knapen_AOT/AOT_stimuli/rescaled_final/0448_fw.mp4	0.0	157.90813398361206	
26	142.62958884239197	fix_post	2		12	24.0	2.5	/experiments/Knapen_AOT/AOT_stimuli/rescaled_final/0448_fw.mp4	0.0	158.8265302181244	0.10001897811889648
27	142.72960782051086	fix_pre	0		120	25.0	2.5	/experiments/Knapen_AOT/AOT_stimuli/rescaled_final/0491_rv.mp4	0.0	158.9265491962433	1.008484125137329
27	143.31319999694824	pulse	0	t		25.0	2.5	/experiments/Knapen_AOT/AOT_stimuli/rescaled_final/0491_rv.mp4	0.0	159.51014137268066	
27	143.7380919456482	movie	1		284	25.0	2.5	/experiments/Knapen_AOT/AOT_stimuli/rescaled_final/0491_rv.mp4	0.0	159.93503332138062	2.492032289505005
27	144.91278624534607	pulse	1	t		25.0	2.5	/experiments/Knapen_AOT/AOT_stimuli/rescaled_final/0491_rv.mp4	0.0	161.1097276210785	
27	146.2301242351532	fix_post	2		12	25.0	2.5	/experiments/Knapen_AOT/AOT_stimuli/rescaled_final/0491_rv.mp4	0.0	162.42706561088562	0.10003900527954102
28	146.33016324043274	fix_pre	0		120	26.0	2.5	blank	1.0	162.52710461616516	1.0001540184020996
28	146.5136833190918	pulse	0	t		26.0	2.5	blank	1.0	162.71062469482422	
28	147.33031725883484	movie	1		300	26.0	2.5	blank	1.0	163.52725863456726	2.5003767013549805
28	148.11396193504333	pulse	1	t		26.0	2.5	blank	1.0	164.31090331077576	
28	149.70687437057495	pulse	1	t		26.0	2.5	blank	1.0	165.90381574630737	
28	149.83069396018982	fix_post	2		12	26.0	2.5	blank	1.0	166.02763533592224	0.0999913215637207
29	149.93068528175354	fix_pre	0		120	27.0	2.5	/experiments/Knapen_AOT/AOT_stimuli/rescaled_final/1185_rv.mp4	0.0	166.12762665748596	1.0085210800170898
29	150.93920636177063	movie	1		288	27.0	2.5	/experiments/Knapen_AOT/AOT_stimuli/rescaled_final/1185_rv.mp4	0.0	167.13614773750305	2.4920032024383545
29	151.31300592422485	pulse	1	t		27.0	2.5	/experiments/Knapen_AOT/AOT_stimuli/rescaled_final/1185_rv.mp4	0.0	167.50994729995728	
29	152.9066243171692	pulse	1	t		27.0	2.5	/experiments/Knapen_AOT/AOT_stimuli/rescaled_final/1185_rv.mp4	0.0	169.1035656929016	
29	153.43120956420898	fix_post	2		12	27.0	2.5	/experiments/Knapen_AOT/AOT_stimuli/rescaled_final/1185_rv.mp4	0.0	169.6281509399414	0.10003137588500977
30	153.531240940094	fix_pre	0		118	28.0	2.5	/experiments/Knapen_AOT/AOT_stimuli/rescaled_final/1423_fw.mp4	0.0	169.72818231582642	0.9917829036712646
30	154.50662064552307	pulse	0	t		28.0	2.5	/experiments/Knapen_AOT/AOT_stimuli/rescaled_final/1423_fw.mp4	0.0	170.7035620212555	
30	154.52302384376526	movie	1		271	28.0	2.5	/experiments/Knapen_AOT/AOT_stimuli/rescaled_final/1423_fw.mp4	0.0	170.71996521949768	2.5003652572631836
30	156.1072759628296	pulse	1	t		28.0	2.5	/experiments/Knapen_AOT/AOT_stimuli/rescaled_final/1423_fw.mp4	0.0	172.304217338562	
30	157.02338910102844	fix_post	2		12	28.0	2.5	/experiments/Knapen_AOT/AOT_stimuli/rescaled_final/1423_fw.mp4	0.0	173.22033047676086	0.10003113746643066
31	157.12342023849487	fix_pre	0		120	29.0	2.5	/experiments/Knapen_AOT/AOT_stimuli/rescaled_final/2093_fw.mp4	0.0	173.3203616142273	1.0085670948028564
31	157.70702290534973	pulse	0	t		29.0	2.5	/experiments/Knapen_AOT/AOT_stimuli/rescaled_final/2093_fw.mp4	0.0	173.90396428108215	
31	158.13198733329773	movie	1		284	29.0	2.5	/experiments/Knapen_AOT/AOT_stimuli/rescaled_final/2093_fw.mp4	0.0	174.32892870903015	2.492154121398926
31	159.3075852394104	pulse	1	t		29.0	2.5	/experiments/Knapen_AOT/AOT_stimuli/rescaled_final/2093_fw.mp4	0.0	175.50452661514282	
31	160.62414145469666	fix_post	2		12	29.0	2.5	/experiments/Knapen_AOT/AOT_stimuli/rescaled_final/2093_fw.mp4	0.0	176.82108283042908	0.0998237133026123
32	160.72396516799927	fix_pre	0		120	30.0	2.5	/experiments/Knapen_AOT/AOT_stimuli/rescaled_final/2016_rv.mp4	0.0	176.9209065437317	1.0085229873657227
32	160.90755438804626	pulse	0	t		30.0	2.5	/experiments/Knapen_AOT/AOT_stimuli/rescaled_final/2016_rv.mp4	0.0	177.1044957637787	
32	161.732488155365	movie	1		271	30.0	2.5	/experiments/Knapen_AOT/AOT_stimuli/rescaled_final/2016_rv.mp4	0.0	177.9294295310974	2.4920074939727783
32	162.5079436302185	pulse	1	t		30.0	2.5	/experiments/Knapen_AOT/AOT_stimuli/rescaled_final/2016_rv.mp4	0.0	178.70488500595093	
32	164.108327627182	pulse	1	t		30.0	2.5	/experiments/Knapen_AOT/AOT_stimuli/rescaled_final/2016_rv.mp4	0.0	180.30526900291443	
32	164.22449564933777	fix_post	2		12	30.0	2.5	/experiments/Knapen_AOT/AOT_stimuli/rescaled_final/2016_rv.mp4	0.0	180.4214370250702	0.100006103515625
33	164.3245017528534	fix_pre	0		120	31.0	2.5	/experiments/Knapen_AOT/AOT_stimuli/rescaled_final/1184_rv.mp4	0.0	180.52144312858582	1.0085194110870361
33	165.33302116394043	movie	1		288	31.0	2.5	/experiments/Knapen_AOT/AOT_stimuli/rescaled_final/1184_rv.mp4	0.0	181.52996253967285	2.492051839828491
33	165.70670771598816	pulse	1	t		31.0	2.5	/experiments/Knapen_AOT/AOT_stimuli/rescaled_final/1184_rv.mp4	0.0	181.90364909172058	
33	167.30862879753113	pulse	1	t		31.0	2.5	/experiments/Knapen_AOT/AOT_stimuli/rescaled_final/1184_rv.mp4	0.0	183.50557017326355	
33	167.82507300376892	fix_post	2		12	31.0	2.5	/experiments/Knapen_AOT/AOT_stimuli/rescaled_final/1184_rv.mp4	0.0	184.02201437950134	0.10001611709594727
34	167.92508912086487	fix_pre	0		119	32.0	2.5	/experiments/Knapen_AOT/AOT_stimuli/rescaled_final/0550_rv.mp4	0.0	184.1220304965973	1.00014066696167
34	168.90874409675598	pulse	0	t		32.0	2.5	/experiments/Knapen_AOT/AOT_stimuli/rescaled_final/0550_rv.mp4	0.0	185.1056854724884	
34	168.92522978782654	movie	1		288	32.0	2.5	/experiments/Knapen_AOT/AOT_stimuli/rescaled_final/0550_rv.mp4	0.0	185.12217116355896	2.500349521636963
34	170.50730895996094	pulse	1	t		32.0	2.5	/experiments/Knapen_AOT/AOT_stimuli/rescaled_final/0550_rv.mp4	0.0	186.70425033569336	
34	171.4255793094635	fix_post	2		12	32.0	2.5	/experiments/Knapen_AOT/AOT_stimuli/rescaled_final/0550_rv.mp4	0.0	187.62252068519592	0.1000213623046875
35	171.5256006717682	fix_pre	0		120	33.0	2.5	blank	1.0	187.7225420475006	1.0001540184020996
35	172.1091969013214	pulse	0	t		33.0	2.5	blank	1.0	188.30613827705383	
35	172.5257546901703	movie	1		300	33.0	2.5	blank	1.0	188.7226960659027	2.500375509262085
35	173.7095456123352	pulse	1	t		33.0	2.5	blank	1.0	189.90648698806763	
35	175.02613019943237	fix_post	2		12	33.0	2.5	blank	1.0	191.2230715751648	0.10002565383911133
36	175.12615585327148	fix_pre	0		120	34.0	2.5	/experiments/Knapen_AOT/AOT_stimuli/rescaled_final/1303_fw.mp4	0.0	191.3230972290039	1.0085608959197998
36	175.30969500541687	pulse	0	t		34.0	2.5	/experiments/Knapen_AOT/AOT_stimuli/rescaled_final/1303_fw.mp4	0.0	191.5066363811493	
36	176.13471674919128	movie	1		292	34.0	2.5	/experiments/Knapen_AOT/AOT_stimuli/rescaled_final/1303_fw.mp4	0.0	192.3316581249237	2.491934299468994
36	176.90797924995422	pulse	1	t		34.0	2.5	/experiments/Knapen_AOT/AOT_stimuli/rescaled_final/1303_fw.mp4	0.0	193.10492062568665	
36	178.50572419166565	pulse	1	t		34.0	2.5	/experiments/Knapen_AOT/AOT_stimuli/rescaled_final/1303_fw.mp4	0.0	194.70266556739807	
36	178.62665104866028	fix_post	2		12	34.0	2.5	/experiments/Knapen_AOT/AOT_stimuli/rescaled_final/1303_fw.mp4	0.0	194.8235924243927	0.10000276565551758
37	178.7266538143158	fix_pre	0		120	35.0	2.5	/experiments/Knapen_AOT/AOT_stimuli/rescaled_final/1266_rv.mp4	0.0	194.92359519004822	1.0085289478302002
37	179.735182762146	movie	1		296	35.0	2.5	/experiments/Knapen_AOT/AOT_stimuli/rescaled_final/1266_rv.mp4	0.0	195.93212413787842	2.4920036792755127
37	180.10846376419067	pulse	1	t		35.0	2.5	/experiments/Knapen_AOT/AOT_stimuli/rescaled_final/1266_rv.mp4	0.0	196.3054051399231	
37	181.70617866516113	pulse	1	t		35.0	2.5	/experiments/Knapen_AOT/AOT_stimuli/rescaled_final/1266_rv.mp4	0.0	197.90312004089355	
37	182.2271864414215	fix_post	2		12	35.0	2.5	/experiments/Knapen_AOT/AOT_stimuli/rescaled_final/1266_rv.mp4	0.0	198.42412781715393	0.10002422332763672
38	182.32721066474915	fix_pre	0		119	36.0	2.5	/experiments/Knapen_AOT/AOT_stimuli/rescaled_final/0381_fw.mp4	0.0	198.52415204048157	1.0003101825714111
38	183.31090259552002	pulse	0	t		36.0	2.5	/experiments/Knapen_AOT/AOT_stimuli/rescaled_final/0381_fw.mp4	0.0	199.50784397125244	
38	183.32752084732056	movie	1		296	36.0	2.5	/experiments/Knapen_AOT/AOT_stimuli/rescaled_final/0381_fw.mp4	0.0	199.52446222305298	2.500197649002075
38	184.90697360038757	pulse	1	t		36.0	2.5	/experiments/Knapen_AOT/AOT_stimuli/rescaled_final/0381_fw.mp4	0.0	201.10391497612	
38	185.82771849632263	fix_post	2		12	36.0	2.5	/experiments/Knapen_AOT/AOT_stimuli/rescaled_final/0381_fw.mp4	0.0	202.02465987205505	0.10002565383911133
39	185.92774415016174	fix_pre	0		120	37.0	2.5	/experiments/Knapen_AOT/AOT_stimuli/rescaled_final/0818_rv.mp4	0.0	202.12468552589417	1.0085270404815674
39	186.51140928268433	pulse	0	t		37.0	2.5	/experiments/Knapen_AOT/AOT_stimuli/rescaled_final/0818_rv.mp4	0.0	202.70835065841675	
39	186.9362711906433	movie	1		296	37.0	2.5	/experiments/Knapen_AOT/AOT_stimuli/rescaled_final/0818_rv.mp4	0.0	203.13321256637573	2.4920103549957275
39	188.10896635055542	pulse	1	t		37.0	2.5	/experiments/Knapen_AOT/AOT_stimuli/rescaled_final/0818_rv.mp4	0.0	204.30590772628784	
39	189.42828154563904	fix_post	2		12	37.0	2.5	/experiments/Knapen_AOT/AOT_stimuli/rescaled_final/0818_rv.mp4	0.0	205.62522292137146	0.10003232955932617
40	189.52831387519836	fix_pre	0		120	38.0	2.5	/experiments/Knapen_AOT/AOT_stimuli/rescaled_final/0201_fw.mp4	0.0	205.7252552509308	1.008493185043335
40	189.71185159683228	pulse	0	t		38.0	2.5	/experiments/Knapen_AOT/AOT_stimuli/rescaled_final/0201_fw.mp4	0.0	205.9087929725647	
40	190.5368070602417	movie	1		289	38.0	2.5	/experiments/Knapen_AOT/AOT_stimuli/rescaled_final/0201_fw.mp4	0.0	206.73374843597412	2.492030620574951
40	191.31001734733582	pulse	1	t		38.0	2.5	/experiments/Knapen_AOT/AOT_stimuli/rescaled_final/0201_fw.mp4	0.0	207.50695872306824	
40	192.9103560447693	pulse	1	t		38.0	2.5	/experiments/Knapen_AOT/AOT_stimuli/rescaled_final/0201_fw.mp4	0.0	209.1072974205017	
40	193.02883768081665	fix_post	2		12	38.0	2.5	/experiments/Knapen_AOT/AOT_stimuli/rescaled_final/0201_fw.mp4	0.0	209.22577905654907	0.09999704360961914
41	193.12883472442627	fix_pre	0		120	39.0	2.5	/experiments/Knapen_AOT/AOT_stimuli/rescaled_final/1551_rv.mp4	0.0	209.3257761001587	1.0085055828094482
41	194.13734030723572	movie	1		281	39.0	2.5	/experiments/Knapen_AOT/AOT_stimuli/rescaled_final/1551_rv.mp4	0.0	210.33428168296814	2.492016553878784
41	194.51075911521912	pulse	1	t		39.0	2.5	/experiments/Knapen_AOT/AOT_stimuli/rescaled_final/1551_rv.mp4	0.0	210.70770049095154	
41	196.1107816696167	pulse	1	t		39.0	2.5	/experiments/Knapen_AOT/AOT_stimuli/rescaled_final/1551_rv.mp4	0.0	212.30772304534912	
41	196.6293568611145	fix_post	2		12	39.0	2.5	/experiments/Knapen_AOT/AOT_stimuli/rescaled_final/1551_rv.mp4	0.0	212.82629823684692	0.10003256797790527
42	196.7293894290924	fix_pre	0		119	40.0	2.5	/experiments/Knapen_AOT/AOT_stimuli/rescaled_final/0517_rv.mp4	0.0	212.92633080482483	1.0001630783081055
42	197.71311569213867	pulse	0	t		40.0	2.5	/experiments/Knapen_AOT/AOT_stimuli/rescaled_final/0517_rv.mp4	0.0	213.9100570678711	
42	197.7295525074005	movie	1		276	40.0	2.5	/experiments/Knapen_AOT/AOT_stimuli/rescaled_final/0517_rv.mp4	0.0	213.92649388313293	2.500417470932007
42	199.31159114837646	pulse	1	t		40.0	2.5	/experiments/Knapen_AOT/AOT_stimuli/rescaled_final/0517_rv.mp4	0.0	215.5085325241089	
42	200.22996997833252	fix_post	2		12	40.0	2.5	/experiments/Knapen_AOT/AOT_stimuli/rescaled_final/0517_rv.mp4	0.0	216.42691135406494	0.09995412826538086
43	200.3299241065979	fix_pre	0		120	41.0	2.5	/experiments/Knapen_AOT/AOT_stimuli/rescaled_final/2051_fw.mp4	0.0	216.52686548233032	1.0085031986236572
43	200.90588426589966	pulse	0	t		41.0	2.5	/experiments/Knapen_AOT/AOT_stimuli/rescaled_final/2051_fw.mp4	0.0	217.10282564163208	
43	201.33842730522156	movie	1		283	41.0	2.5	/experiments/Knapen_AOT/AOT_stimuli/rescaled_final/2051_fw.mp4	0.0	217.53536868095398	2.500361204147339
43	202.51294040679932	pulse	1	t		41.0	2.5	/experiments/Knapen_AOT/AOT_stimuli/rescaled_final/2051_fw.mp4	0.0	218.70988178253174	
43	203.8387885093689	fix_post	2		11	41.0	2.5	/experiments/Knapen_AOT/AOT_stimuli/rescaled_final/2051_fw.mp4	0.0	220.03572988510132	0.09169125556945801
44	203.93047976493835	fix_pre	0		120	42.0	2.5	blank	1.0	220.12742114067078	1.0001416206359863
44	204.1059763431549	pulse	0	t		42.0	2.5	blank	1.0	220.30291771888733	
44	204.93062138557434	movie	1		300	42.0	2.5	blank	1.0	221.12756276130676	2.500389814376831
44	205.70603680610657	pulse	1	t		42.0	2.5	blank	1.0	221.902978181839	
44	207.30615639686584	pulse	1	t		42.0	2.5	blank	1.0	223.50309777259827	
44	207.43101119995117	fix_post	2		12	42.0	2.5	blank	1.0	223.6279525756836	0.09999847412109375
45	207.53100967407227	fix_pre	0		120	43.0	2.5	/experiments/Knapen_AOT/AOT_stimuli/rescaled_final/1113_fw.mp4	0.0	223.7279510498047	1.0085132122039795
45	208.53952288627625	movie	1		276	43.0	2.5	/experiments/Knapen_AOT/AOT_stimuli/rescaled_final/1113_fw.mp4	0.0	224.73646426200867	2.492011070251465
45	208.90667939186096	pulse	1	t		43.0	2.5	/experiments/Knapen_AOT/AOT_stimuli/rescaled_final/1113_fw.mp4	0.0	225.10362076759338	
45	210.50673174858093	pulse	1	t		43.0	2.5	/experiments/Knapen_AOT/AOT_stimuli/rescaled_final/1113_fw.mp4	0.0	226.70367312431335	
45	211.0315339565277	fix_post	2		12	43.0	2.5	/experiments/Knapen_AOT/AOT_stimuli/rescaled_final/1113_fw.mp4	0.0	227.22847533226013	0.1000370979309082
46	211.13157105445862	fix_pre	0		118	44.0	2.5	/experiments/Knapen_AOT/AOT_stimuli/rescaled_final/0703_fw.mp4	0.0	227.32851243019104	1.0001840591430664
46	212.10684967041016	pulse	0	t		44.0	2.5	/experiments/Knapen_AOT/AOT_stimuli/rescaled_final/0703_fw.mp4	0.0	228.30379104614258	
46	212.13175511360168	movie	1		290	44.0	2.5	/experiments/Knapen_AOT/AOT_stimuli/rescaled_final/0703_fw.mp4	0.0	228.3286964893341	2.4920105934143066
46	213.7071352005005	pulse	1	t		44.0	2.5	/experiments/Knapen_AOT/AOT_stimuli/rescaled_final/0703_fw.mp4	0.0	229.9040765762329	
46	214.623765707016	fix_post	2		12	44.0	2.5	/experiments/Knapen_AOT/AOT_stimuli/rescaled_final/0703_fw.mp4	0.0	230.8207070827484	0.09997200965881348
47	214.7237377166748	fix_pre	0		120	45.0	2.5	/experiments/Knapen_AOT/AOT_stimuli/rescaled_final/1470_fw.mp4	0.0	230.92067909240723	1.0086290836334229
47	215.30743384361267	pulse	0	t		45.0	2.5	/experiments/Knapen_AOT/AOT_stimuli/rescaled_final/1470_fw.mp4	0.0	231.5043752193451	
47	215.73236680030823	movie	1		263	45.0	2.5	/experiments/Knapen_AOT/AOT_stimuli/rescaled_final/1470_fw.mp4	0.0	231.92930817604065	2.525311231613159
47	216.90764164924622	pulse	1	t		45.0	2.5	/experiments/Knapen_AOT/AOT_stimuli/rescaled_final/1470_fw.mp4	0.0	233.10458302497864	
47	218.2576780319214	fix_post	2		8	45.0	2.5	/experiments/Knapen_AOT/AOT_stimuli/rescaled_final/1470_fw.mp4	0.0	234.4546194076538	0.06662321090698242
48	218.32430124282837	fix_pre	0		120	46.0	2.5	/experiments/Knapen_AOT/AOT_stimuli/rescaled_final/1010_fw.mp4	0.0	234.5212426185608	1.0084834098815918
48	218.50793194770813	pulse	0	t		46.0	2.5	/experiments/Knapen_AOT/AOT_stimuli/rescaled_final/1010_fw.mp4	0.0	234.70487332344055	
48	219.33278465270996	movie	1		280	46.0	2.5	/experiments/Knapen_AOT/AOT_stimuli/rescaled_final/1010_fw.mp4	0.0	235.52972602844238	2.4920337200164795
48	220.1083710193634	pulse	1	t		46.0	2.5	/experiments/Knapen_AOT/AOT_stimuli/rescaled_final/1010_fw.mp4	0.0	236.30531239509583	
48	221.70642471313477	pulse	1	t		46.0	2.5	/experiments/Knapen_AOT/AOT_stimuli/rescaled_final/1010_fw.mp4	0.0	237.9033660888672	
48	221.82481837272644	fix_post	2		12	46.0	2.5	/experiments/Knapen_AOT/AOT_stimuli/rescaled_final/1010_fw.mp4	0.0	238.02175974845886	0.10001564025878906
49	221.92483401298523	fix_pre	0		120	47.0	2.5	/experiments/Knapen_AOT/AOT_stimuli/rescaled_final/2172_fw.mp4	0.0	238.12177538871765	1.0085341930389404
49	222.93336820602417	movie	1		264	47.0	2.5	/experiments/Knapen_AOT/AOT_stimuli/rescaled_final/2172_fw.mp4	0.0	239.1303095817566	2.491989850997925
49	223.3076457977295	pulse	1	t		47.0	2.5	/experiments/Knapen_AOT/AOT_stimuli/rescaled_final/2172_fw.mp4	0.0	239.5045871734619	
49	224.90681862831116	pulse	1	t		47.0	2.5	/experiments/Knapen_AOT/AOT_stimuli/rescaled_final/2172_fw.mp4	0.0	241.10376000404358	
49	225.4253580570221	fix_post	2		12	47.0	2.5	/experiments/Knapen_AOT/AOT_stimuli/rescaled_final/2172_fw.mp4	0.0	241.62229943275452	0.1000211238861084
50	225.5253791809082	fix_pre	0		119	48.0	2.5	blank	1.0	241.72232055664062	0.9917681217193604
50	226.5090868473053	pulse	0	t		48.0	2.5	blank	1.0	242.70602822303772	
50	226.51714730262756	movie	1		301	48.0	2.5	blank	1.0	242.71408867835999	2.5087523460388184
50	228.1093590259552	pulse	1	t		48.0	2.5	blank	1.0	244.30630040168762	
50	229.02589964866638	fix_post	2		12	48.0	2.5	blank	1.0	245.2228410243988	0.1000218391418457
51	229.12592148780823	fix_pre	0		120	49.0	2.5	/experiments/Knapen_AOT/AOT_stimuli/rescaled_final/2034_fw.mp4	0.0	245.32286286354065	1.0085058212280273
51	229.7096710205078	pulse	0	t		49.0	2.5	/experiments/Knapen_AOT/AOT_stimuli/rescaled_final/2034_fw.mp4	0.0	245.90661239624023	
51	230.13442730903625	movie	1		269	49.0	2.5	/experiments/Knapen_AOT/AOT_stimuli/rescaled_final/2034_fw.mp4	0.0	246.33136868476868	2.492065191268921
51	231.30855870246887	pulse	1	t		49.0	2.5	/experiments/Knapen_AOT/AOT_stimuli/rescaled_final/2034_fw.mp4	0.0	247.5055000782013	
51	232.62649250030518	fix_post	2		12	49.0	2.5	/experiments/Knapen_AOT/AOT_stimuli/rescaled_final/2034_fw.mp4	0.0	248.8234338760376	0.1000211238861084
52	232.72651362419128	fix_pre	0		120	50.0	2.5	/experiments/Knapen_AOT/AOT_stimuli/rescaled_final/0984_rv.mp4	0.0	248.9234549999237	1.0084874629974365
52	232.91019916534424	pulse	0	t		50.0	2.5	/experiments/Knapen_AOT/AOT_stimuli/rescaled_final/0984_rv.mp4	0.0	249.10714054107666	
52	233.73500108718872	movie	1		284	50.0	2.5	/experiments/Knapen_AOT/AOT_stimuli/rescaled_final/0984_rv.mp4	0.0	249.93194246292114	2.4920315742492676
52	234.50851583480835	pulse	1	t		50.0	2.5	/experiments/Knapen_AOT/AOT_stimuli/rescaled_final/0984_rv.mp4	0.0	250.70545721054077	
52	236.10867547988892	pulse	1	t		50.0	2.5	/experiments/Knapen_AOT/AOT_stimuli/rescaled_final/0984_rv.mp4	0.0	252.30561685562134	
52	236.227032661438	fix_post	2		12	50.0	2.5	/experiments/Knapen_AOT/AOT_stimuli/rescaled_final/0984_rv.mp4	0.0	252.4239740371704	0.09999823570251465
53	236.3270308971405	fix_pre	0		120	51.0	2.5	/experiments/Knapen_AOT/AOT_stimuli/rescaled_final/0010_rv.mp4	0.0	252.52397227287292	1.008481740951538
53	237.33551263809204	movie	1		291	51.0	2.5	/experiments/Knapen_AOT/AOT_stimuli/rescaled_final/0010_rv.mp4	0.0	253.53245401382446	2.4920761585235596
53	237.7092764377594	pulse	1	t		51.0	2.5	/experiments/Knapen_AOT/AOT_stimuli/rescaled_final/0010_rv.mp4	0.0	253.90621781349182	
53	239.30893278121948	pulse	1	t		51.0	2.5	/experiments/Knapen_AOT/AOT_stimuli/rescaled_final/0010_rv.mp4	0.0	255.5058741569519	
53	239.8275887966156	fix_post	2		12	51.0	2.5	/experiments/Knapen_AOT/AOT_stimuli/rescaled_final/0010_rv.mp4	0.0	256.024530172348	0.10009527206420898
54	239.9276840686798	fix_pre	0		119	52.0	2.5	/experiments/Knapen_AOT/AOT_stimuli/rescaled_final/1572_rv.mp4	0.0	256.12462544441223	1.0000240802764893
54	240.91129231452942	pulse	0	t		52.0	2.5	/experiments/Knapen_AOT/AOT_stimuli/rescaled_final/1572_rv.mp4	0.0	257.10823369026184	
54	240.9277081489563	movie	1		290	52.0	2.5	/experiments/Knapen_AOT/AOT_stimuli/rescaled_final/1572_rv.mp4	0.0	257.1246495246887	2.5003485679626465
54	242.50993585586548	pulse	1	t		52.0	2.5	/experiments/Knapen_AOT/AOT_stimuli/rescaled_final/1572_rv.mp4	0.0	258.7068772315979	
54	243.42805671691895	fix_post	2		12	52.0	2.5	/experiments/Knapen_AOT/AOT_stimuli/rescaled_final/1572_rv.mp4	0.0	259.62499809265137	0.10002684593200684
55	243.52808356285095	fix_pre	0		120	53.0	2.5	/experiments/Knapen_AOT/AOT_stimuli/rescaled_final/1818_rv.mp4	0.0	259.7250249385834	1.008542537689209
55	244.1117000579834	pulse	0	t		53.0	2.5	/experiments/Knapen_AOT/AOT_stimuli/rescaled_final/1818_rv.mp4	0.0	260.3086414337158	
55	244.53662610054016	movie	1		274	53.0	2.5	/experiments/Knapen_AOT/AOT_stimuli/rescaled_final/1818_rv.mp4	0.0	260.7335674762726	2.4919803142547607
55	245.7102918624878	pulse	1	t		53.0	2.5	/experiments/Knapen_AOT/AOT_stimuli/rescaled_final/1818_rv.mp4	0.0	261.9072332382202	
55	247.02860641479492	fix_post	2		12	53.0	2.5	/experiments/Knapen_AOT/AOT_stimuli/rescaled_final/1818_rv.mp4	0.0	263.22554779052734	0.10004067420959473
56	247.12864708900452	fix_pre	0		120	54.0	2.5	blank	1.0	263.32558846473694	1.0001606941223145
56	247.31219959259033	pulse	0	t		54.0	2.5	blank	1.0	263.50914096832275	
56	248.12880778312683	movie	1		300	54.0	2.5	blank	1.0	264.32574915885925	2.5003368854522705
56	248.9124677181244	pulse	1	t		54.0	2.5	blank	1.0	265.1094090938568	
56	250.5127124786377	pulse	1	t		54.0	2.5	blank	1.0	266.7096538543701	
56	250.6291446685791	fix_post	2		12	54.0	2.5	blank	1.0	266.8260860443115	0.10015153884887695
57	250.72929620742798	fix_pre	0		120	55.0	2.5	/experiments/Knapen_AOT/AOT_stimuli/rescaled_final/0410_rv.mp4	0.0	266.9262375831604	1.0083496570587158
57	251.7376458644867	movie	1		278	55.0	2.5	/experiments/Knapen_AOT/AOT_stimuli/rescaled_final/0410_rv.mp4	0.0	267.9345872402191	2.492065191268921
57	252.1116931438446	pulse	1	t		55.0	2.5	/experiments/Knapen_AOT/AOT_stimuli/rescaled_final/0410_rv.mp4	0.0	268.308634519577	
57	253.71134567260742	pulse	1	t		55.0	2.5	/experiments/Knapen_AOT/AOT_stimuli/rescaled_final/0410_rv.mp4	0.0	269.90828704833984	
57	254.22971105575562	fix_post	2		12	55.0	2.5	/experiments/Knapen_AOT/AOT_stimuli/rescaled_final/0410_rv.mp4	0.0	270.42665243148804	0.10022234916687012
58	254.32993340492249	fix_pre	0		119	56.0	2.5	/experiments/Knapen_AOT/AOT_stimuli/rescaled_final/0392_rv.mp4	0.0	270.5268747806549	0.9999265670776367
58	255.3063657283783	pulse	0	t		56.0	2.5	/experiments/Knapen_AOT/AOT_stimuli/rescaled_final/0392_rv.mp4	0.0	271.5033071041107	
58	255.32985997200012	movie	1		273	56.0	2.5	/experiments/Knapen_AOT/AOT_stimuli/rescaled_final/0392_rv.mp4	0.0	271.52680134773254	2.5004122257232666
58	256.91240882873535	pulse	1	t		56.0	2.5	/experiments/Knapen_AOT/AOT_stimuli/rescaled_final/0392_rv.mp4	0.0	273.1093502044678	
58	257.8302721977234	fix_post	2		12	56.0	2.5	/experiments/Knapen_AOT/AOT_stimuli/rescaled_final/0392_rv.mp4	0.0	274.0272135734558	0.10000348091125488
59	257.93027567863464	fix_pre	0		120	57.0	2.5	/experiments/Knapen_AOT/AOT_stimuli/rescaled_final/0583_rv.mp4	0.0	274.12721705436707	1.0084900856018066
59	258.50643706321716	pulse	0	t		57.0	2.5	/experiments/Knapen_AOT/AOT_stimuli/rescaled_final/0583_rv.mp4	0.0	274.7033784389496	
59	258.93876576423645	movie	1		266	57.0	2.5	/experiments/Knapen_AOT/AOT_stimuli/rescaled_final/0583_rv.mp4	0.0	275.1357071399689	2.500516891479492
59	260.1119728088379	pulse	1	t		57.0	2.5	/experiments/Knapen_AOT/AOT_stimuli/rescaled_final/0583_rv.mp4	0.0	276.3089141845703	
59	261.43928265571594	fix_post	2		11	57.0	2.5	/experiments/Knapen_AOT/AOT_stimuli/rescaled_final/0583_rv.mp4	0.0	277.63622403144836	0.09151124954223633
60	261.5307939052582	fix_pre	0		120	58.0	2.5	/experiments/Knapen_AOT/AOT_stimuli/rescaled_final/1603_rv.mp4	0.0	277.7277352809906	1.0085079669952393
60	261.7064461708069	pulse	0	t		58.0	2.5	/experiments/Knapen_AOT/AOT_stimuli/rescaled_final/1603_rv.mp4	0.0	277.9033875465393	
60	262.5393018722534	movie	1		283	58.0	2.5	/experiments/Knapen_AOT/AOT_stimuli/rescaled_final/1603_rv.mp4	0.0	278.73624324798584	2.492011070251465
60	263.3067264556885	pulse	1	t		58.0	2.5	/experiments/Knapen_AOT/AOT_stimuli/rescaled_final/1603_rv.mp4	0.0	279.5036678314209	
60	264.9067385196686	pulse	1	t		58.0	2.5	/experiments/Knapen_AOT/AOT_stimuli/rescaled_final/1603_rv.mp4	0.0	281.103679895401	
60	265.0313129425049	fix_post	2		12	58.0	2.5	/experiments/Knapen_AOT/AOT_stimuli/rescaled_final/1603_rv.mp4	0.0	281.2282543182373	0.10007643699645996
61	265.13138937950134	fix_pre	0		120	59.0	2.5	/experiments/Knapen_AOT/AOT_stimuli/rescaled_final/1572_fw.mp4	0.0	281.32833075523376	1.008455514907837
61	266.1398448944092	movie	1		284	59.0	2.5	/experiments/Knapen_AOT/AOT_stimuli/rescaled_final/1572_fw.mp4	0.0	282.3367862701416	2.4920718669891357
61	266.50636100769043	pulse	1	t		59.0	2.5	/experiments/Knapen_AOT/AOT_stimuli/rescaled_final/1572_fw.mp4	0.0	282.70330238342285	
61	268.1070077419281	pulse	1	t		59.0	2.5	/experiments/Knapen_AOT/AOT_stimuli/rescaled_final/1572_fw.mp4	0.0	284.3039491176605	
61	268.6319167613983	fix_post	2		12	59.0	2.5	/experiments/Knapen_AOT/AOT_stimuli/rescaled_final/1572_fw.mp4	0.0	284.82885813713074	0.09995055198669434
62	268.731867313385	fix_pre	0		118	60.0	2.5	/experiments/Knapen_AOT/AOT_stimuli/rescaled_final/2173_rv.mp4	0.0	284.92880868911743	0.9918396472930908
62	269.707373380661	pulse	0	t		60.0	2.5	/experiments/Knapen_AOT/AOT_stimuli/rescaled_final/2173_rv.mp4	0.0	285.90431475639343	
62	269.7237069606781	movie	1		291	60.0	2.5	/experiments/Knapen_AOT/AOT_stimuli/rescaled_final/2173_rv.mp4	0.0	285.9206483364105	2.5003628730773926
62	271.30749344825745	pulse	1	t		60.0	2.5	/experiments/Knapen_AOT/AOT_stimuli/rescaled_final/2173_rv.mp4	0.0	287.50443482398987	
62	272.2240698337555	fix_post	2		12	60.0	2.5	/experiments/Knapen_AOT/AOT_stimuli/rescaled_final/2173_rv.mp4	0.0	288.4210112094879	0.1000053882598877
63	272.3240752220154	fix_pre	0		120	61.0	2.5	blank	1.0	288.5210165977478	1.0002260208129883
63	272.90776324272156	pulse	0	t		61.0	2.5	blank	1.0	289.104704618454	
63	273.32430124282837	movie	1		300	61.0	2.5	blank	1.0	289.5212426185608	2.5002999305725098
63	274.50801491737366	pulse	1	t		61.0	2.5	blank	1.0	290.7049562931061	
63	275.8246011734009	fix_post	2		11	61.0	2.5	blank	1.0	292.0215425491333	0.10001254081726074
64	275.92461371421814	fix_pre	0		120	62.0	2.5	/experiments/Knapen_AOT/AOT_stimuli/rescaled_final/1938_rv.mp4	0.0	292.12155508995056	1.0085251331329346
64	276.10820055007935	pulse	0	t		62.0	2.5	/experiments/Knapen_AOT/AOT_stimuli/rescaled_final/1938_rv.mp4	0.0	292.30514192581177	
64	276.9331388473511	movie	1		285	62.0	2.5	/experiments/Knapen_AOT/AOT_stimuli/rescaled_final/1938_rv.mp4	0.0	293.1300802230835	2.492095947265625
64	277.7074239253998	pulse	1	t		62.0	2.5	/experiments/Knapen_AOT/AOT_stimuli/rescaled_final/1938_rv.mp4	0.0	293.9043653011322	
64	279.30663895606995	pulse	1	t		62.0	2.5	/experiments/Knapen_AOT/AOT_stimuli/rescaled_final/1938_rv.mp4	0.0	295.50358033180237	
64	279.4252347946167	fix_post	2		12	62.0	2.5	/experiments/Knapen_AOT/AOT_stimuli/rescaled_final/1938_rv.mp4	0.0	295.6221761703491	0.09998035430908203
65	279.5252151489258	fix_pre	0		120	63.0	2.5	/experiments/Knapen_AOT/AOT_stimuli/rescaled_final/1155_fw.mp4	0.0	295.7221565246582	1.0084660053253174
65	280.5336811542511	movie	1		286	63.0	2.5	/experiments/Knapen_AOT/AOT_stimuli/rescaled_final/1155_fw.mp4	0.0	296.7306225299835	2.4920084476470947
65	280.90727043151855	pulse	1	t		63.0	2.5	/experiments/Knapen_AOT/AOT_stimuli/rescaled_final/1155_fw.mp4	0.0	297.104211807251	
65	282.5079252719879	pulse	1	t		63.0	2.5	/experiments/Knapen_AOT/AOT_stimuli/rescaled_final/1155_fw.mp4	0.0	298.70486664772034	
65	283.0256896018982	fix_post	2		12	63.0	2.5	/experiments/Knapen_AOT/AOT_stimuli/rescaled_final/1155_fw.mp4	0.0	299.2226309776306	0.10009217262268066
66	283.1257817745209	fix_pre	0		119	64.0	2.5	/experiments/Knapen_AOT/AOT_stimuli/rescaled_final/0448_fw.mp4	0.0	299.3227231502533	1.0001461505889893
66	284.10942101478577	pulse	0	t		64.0	2.5	/experiments/Knapen_AOT/AOT_stimuli/rescaled_final/0448_fw.mp4	0.0	300.3063623905182	
66	284.12592792510986	movie	1		284	64.0	2.5	/experiments/Knapen_AOT/AOT_stimuli/rescaled_final/0448_fw.mp4	0.0	300.3228693008423	2.5004231929779053
66	285.7079961299896	pulse	1	t		64.0	2.5	/experiments/Knapen_AOT/AOT_stimuli/rescaled_final/0448_fw.mp4	0.0	301.90493750572205	
66	286.62635111808777	fix_post	2		11	64.0	2.5	/experiments/Knapen_AOT/AOT_stimuli/rescaled_final/0448_fw.mp4	0.0	302.8232924938202	0.09995675086975098
67	286.7263078689575	fix_pre	0		120	65.0	2.5	/experiments/Knapen_AOT/AOT_stimuli/rescaled_final/0876_rv.mp4	0.0	302.92324924468994	1.0084443092346191
67	287.3100140094757	pulse	0	t		65.0	2.5	/experiments/Knapen_AOT/AOT_stimuli/rescaled_final/0876_rv.mp4	0.0	303.50695538520813	
67	287.73475217819214	movie	1		284	65.0	2.5	/experiments/Knapen_AOT/AOT_stimuli/rescaled_final/0876_rv.mp4	0.0	303.93169355392456	2.492027521133423
67	288.9085650444031	pulse	1	t		65.0	2.5	/experiments/Knapen_AOT/AOT_stimuli/rescaled_final/0876_rv.mp4	0.0	305.1055064201355	
67	290.22677969932556	fix_post	2		12	65.0	2.5	/experiments/Knapen_AOT/AOT_stimuli/rescaled_final/0876_rv.mp4	0.0	306.423721075058	0.10000491142272949
68	290.3267846107483	fix_pre	0		120	66.0	2.5	/experiments/Knapen_AOT/AOT_stimuli/rescaled_final/1644_fw.mp4	0.0	306.5237259864807	1.008479118347168
68	290.51038551330566	pulse	0	t		66.0	2.5	/experiments/Knapen_AOT/AOT_stimuli/rescaled_final/1644_fw.mp4	0.0	306.7073268890381	
68	291.33526372909546	movie	1		285	66.0	2.5	/experiments/Knapen_AOT/AOT_stimuli/rescaled_final/1644_fw.mp4	0.0	307.5322051048279	2.492062568664551
68	292.1087267398834	pulse	1	t		66.0	2.5	/experiments/Knapen_AOT/AOT_stimuli/rescaled_final/1644_fw.mp4	0.0	308.30566811561584	
68	293.70902466773987	pulse	1	t		66.0	2.5	/experiments/Knapen_AOT/AOT_stimuli/rescaled_final/1644_fw.mp4	0.0	309.9059660434723	
68	293.82732629776	fix_post	2		12	66.0	2.5	/experiments/Knapen_AOT/AOT_stimuli/rescaled_final/1644_fw.mp4	0.0	310.02426767349243	0.1000213623046875
69	293.9273476600647	fix_pre	0		120	67.0	2.5	/experiments/Knapen_AOT/AOT_stimuli/rescaled_final/2074_rv.mp4	0.0	310.1242890357971	1.0084915161132812
69	294.935839176178	movie	1		286	67.0	2.5	/experiments/Knapen_AOT/AOT_stimuli/rescaled_final/2074_rv.mp4	0.0	311.1327805519104	2.492018222808838
69	295.3099114894867	pulse	1	t		67.0	2.5	/experiments/Knapen_AOT/AOT_stimuli/rescaled_final/2074_rv.mp4	0.0	311.5068528652191	
69	296.90925216674805	pulse	1	t		67.0	2.5	/experiments/Knapen_AOT/AOT_stimuli/rescaled_final/2074_rv.mp4	0.0	313.10619354248047	
69	297.4278573989868	fix_post	2		12	67.0	2.5	/experiments/Knapen_AOT/AOT_stimuli/rescaled_final/2074_rv.mp4	0.0	313.62479877471924	0.10001301765441895
70	297.52787041664124	fix_pre	0		119	68.0	2.5	blank	1.0	313.72481179237366	0.9918344020843506
70	298.5115818977356	pulse	0	t		68.0	2.5	blank	1.0	314.708523273468	
70	298.5197048187256	movie	1		301	68.0	2.5	blank	1.0	314.716646194458	2.5087733268737793
70	300.11182594299316	pulse	1	t		68.0	2.5	blank	1.0	316.3087673187256	
70	301.02847814559937	fix_post	2		12	68.0	2.5	blank	1.0	317.2254195213318	0.09999394416809082
71	301.12847208976746	fix_pre	0		120	69.0	2.5	/experiments/Knapen_AOT/AOT_stimuli/rescaled_final/2098_rv.mp4	0.0	317.3254134654999	1.008432149887085
71	301.7121834754944	pulse	0	t		69.0	2.5	/experiments/Knapen_AOT/AOT_stimuli/rescaled_final/2098_rv.mp4	0.0	317.9091248512268	
71	302.13690423965454	movie	1		284	69.0	2.5	/experiments/Knapen_AOT/AOT_stimuli/rescaled_final/2098_rv.mp4	0.0	318.33384561538696	2.492035150527954
71	303.31145882606506	pulse	1	t		69.0	2.5	/experiments/Knapen_AOT/AOT_stimuli/rescaled_final/2098_rv.mp4	0.0	319.5084002017975	
71	304.6289393901825	fix_post	2		12	69.0	2.5	/experiments/Knapen_AOT/AOT_stimuli/rescaled_final/2098_rv.mp4	0.0	320.8258807659149	0.10001683235168457
72	304.7289562225342	fix_pre	0		120	70.0	2.5	/experiments/Knapen_AOT/AOT_stimuli/rescaled_final/1572_fw.mp4	0.0	320.9258975982666	1.0085241794586182
72	304.9127776622772	pulse	0	t		70.0	2.5	/experiments/Knapen_AOT/AOT_stimuli/rescaled_final/1572_fw.mp4	0.0	321.10971903800964	
72	305.7374804019928	movie	1		274	70.0	2.5	/experiments/Knapen_AOT/AOT_stimuli/rescaled_final/1572_fw.mp4	0.0	321.9344217777252	2.49202299118042
72	306.5129601955414	pulse	1	t		70.0	2.5	/experiments/Knapen_AOT/AOT_stimuli/rescaled_final/1572_fw.mp4	0.0	322.7099015712738	
72	308.1110577583313	pulse	1	t		70.0	2.5	/experiments/Knapen_AOT/AOT_stimuli/rescaled_final/1572_fw.mp4	0.0	324.3079991340637	
72	308.2295033931732	fix_post	2		12	70.0	2.5	/experiments/Knapen_AOT/AOT_stimuli/rescaled_final/1572_fw.mp4	0.0	324.42644476890564	0.10000085830688477
73	308.3295042514801	fix_pre	0		120	71.0	2.5	/experiments/Knapen_AOT/AOT_stimuli/rescaled_final/1241_fw.mp4	0.0	324.5264456272125	1.0084705352783203
73	309.3379747867584	movie	1		273	71.0	2.5	/experiments/Knapen_AOT/AOT_stimuli/rescaled_final/1241_fw.mp4	0.0	325.53491616249084	2.4920663833618164
73	309.7114465236664	pulse	1	t		71.0	2.5	/experiments/Knapen_AOT/AOT_stimuli/rescaled_final/1241_fw.mp4	0.0	325.9083878993988	
73	311.3112299442291	pulse	1	t		71.0	2.5	/experiments/Knapen_AOT/AOT_stimuli/rescaled_final/1241_fw.mp4	0.0	327.50817131996155	
73	311.83004117012024	fix_post	2		12	71.0	2.5	/experiments/Knapen_AOT/AOT_stimuli/rescaled_final/1241_fw.mp4	0.0	328.02698254585266	0.09997940063476562
74	311.930020570755	fix_pre	0		119	72.0	2.5	/experiments/Knapen_AOT/AOT_stimuli/rescaled_final/1115_fw.mp4	0.0	328.1269619464874	1.000199317932129
74	312.9067726135254	pulse	0	t		72.0	2.5	/experiments/Knapen_AOT/AOT_stimuli/rescaled_final/1115_fw.mp4	0.0	329.1037139892578	
74	312.93021988868713	movie	1		287	72.0	2.5	/experiments/Knapen_AOT/AOT_stimuli/rescaled_final/1115_fw.mp4	0.0	329.12716126441956	2.5003745555877686
74	314.51296067237854	pulse	1	t		72.0	2.5	/experiments/Knapen_AOT/AOT_stimuli/rescaled_final/1115_fw.mp4	0.0	330.70990204811096	
74	315.4305944442749	fix_post	2		12	72.0	2.5	/experiments/Knapen_AOT/AOT_stimuli/rescaled_final/1115_fw.mp4	0.0	331.6275358200073	0.09999251365661621
75	315.5305869579315	fix_pre	0		120	73.0	2.5	/experiments/Knapen_AOT/AOT_stimuli/rescaled_final/1423_fw.mp4	0.0	331.72752833366394	1.008500576019287
75	316.1142747402191	pulse	0	t		73.0	2.5	/experiments/Knapen_AOT/AOT_stimuli/rescaled_final/1423_fw.mp4	0.0	332.31121611595154	
75	316.5390875339508	movie	1		289	73.0	2.5	/experiments/Knapen_AOT/AOT_stimuli/rescaled_final/1423_fw.mp4	0.0	332.7360289096832	2.4920170307159424
75	317.71332931518555	pulse	1	t		73.0	2.5	/experiments/Knapen_AOT/AOT_stimuli/rescaled_final/1423_fw.mp4	0.0	333.91027069091797	
75	319.03110456466675	fix_post	2		12	73.0	2.5	/experiments/Knapen_AOT/AOT_stimuli/rescaled_final/1423_fw.mp4	0.0	335.22804594039917	0.10007143020629883
76	319.13117599487305	fix_pre	0		120	74.0	2.5	/experiments/Knapen_AOT/AOT_stimuli/rescaled_final/0273_fw.mp4	0.0	335.32811737060547	1.0084614753723145
76	319.3067989349365	pulse	0	t		74.0	2.5	/experiments/Knapen_AOT/AOT_stimuli/rescaled_final/0273_fw.mp4	0.0	335.50374031066895	
76	320.13963747024536	movie	1		272	74.0	2.5	/experiments/Knapen_AOT/AOT_stimuli/rescaled_final/0273_fw.mp4	0.0	336.3365788459778	2.492004632949829
76	320.9072289466858	pulse	1	t		74.0	2.5	/experiments/Knapen_AOT/AOT_stimuli/rescaled_final/0273_fw.mp4	0.0	337.1041703224182	
76	322.5069651603699	pulse	1	t		74.0	2.5	/experiments/Knapen_AOT/AOT_stimuli/rescaled_final/0273_fw.mp4	0.0	338.7039065361023	
76	322.6316421031952	fix_post	2		12	74.0	2.5	/experiments/Knapen_AOT/AOT_stimuli/rescaled_final/0273_fw.mp4	0.0	338.8285834789276	0.10002350807189941
77	322.7316656112671	fix_pre	0		120	75.0	2.5	blank	1.0	338.9286069869995	1.000150203704834
77	323.7318158149719	movie	1		300	75.0	2.5	blank	1.0	339.92875719070435	2.500380516052246
77	324.1073317527771	pulse	1	t		75.0	2.5	blank	1.0	340.3042731285095	
77	325.7073426246643	pulse	1	t		75.0	2.5	blank	1.0	341.90428400039673	
77	326.23219633102417	fix_post	2		12	75.0	2.5	blank	1.0	342.4291377067566	0.10009932518005371
78	326.3322956562042	fix_pre	0		118	76.0	2.5	/experiments/Knapen_AOT/AOT_stimuli/rescaled_final/1984_fw.mp4	0.0	342.52923703193665	0.9917283058166504
78	327.3075783252716	pulse	0	t		76.0	2.5	/experiments/Knapen_AOT/AOT_stimuli/rescaled_final/1984_fw.mp4	0.0	343.504519701004	
78	327.3240239620209	movie	1		275	76.0	2.5	/experiments/Knapen_AOT/AOT_stimuli/rescaled_final/1984_fw.mp4	0.0	343.5209653377533	2.5003695487976074
78	328.9074637889862	pulse	1	t		76.0	2.5	/experiments/Knapen_AOT/AOT_stimuli/rescaled_final/1984_fw.mp4	0.0	345.1044051647186	
78	329.8243935108185	fix_post	2		12	76.0	2.5	/experiments/Knapen_AOT/AOT_stimuli/rescaled_final/1984_fw.mp4	0.0	346.0213348865509	0.10005021095275879
79	329.92444372177124	fix_pre	0		120	77.0	2.5	/experiments/Knapen_AOT/AOT_stimuli/rescaled_final/2048_fw.mp4	0.0	346.12138509750366	1.0084939002990723
79	330.5080575942993	pulse	0	t		77.0	2.5	/experiments/Knapen_AOT/AOT_stimuli/rescaled_final/2048_fw.mp4	0.0	346.70499897003174	
79	330.9329376220703	movie	1		271	77.0	2.5	/experiments/Knapen_AOT/AOT_stimuli/rescaled_final/2048_fw.mp4	0.0	347.12987899780273	2.49198842048645
79	332.10833501815796	pulse	1	t		77.0	2.5	/experiments/Knapen_AOT/AOT_stimuli/rescaled_final/2048_fw.mp4	0.0	348.3052763938904	
79	333.42492604255676	fix_post	2		12	77.0	2.5	/experiments/Knapen_AOT/AOT_stimuli/rescaled_final/2048_fw.mp4	0.0	349.6218674182892	0.10002946853637695
80	333.52495551109314	fix_pre	0		119	78.0	2.5	/experiments/Knapen_AOT/AOT_stimuli/rescaled_final/1897_fw.mp4	0.0	349.72189688682556	1.0084867477416992
80	333.7086012363434	pulse	0	t		78.0	2.5	/experiments/Knapen_AOT/AOT_stimuli/rescaled_final/1897_fw.mp4	0.0	349.9055426120758	
80	334.53344225883484	movie	1		280	78.0	2.5	/experiments/Knapen_AOT/AOT_stimuli/rescaled_final/1897_fw.mp4	0.0	350.73038363456726	2.492011785507202
80	335.30695247650146	pulse	1	t		78.0	2.5	/experiments/Knapen_AOT/AOT_stimuli/rescaled_final/1897_fw.mp4	0.0	351.5038938522339	
80	336.906911611557	pulse	1	t		78.0	2.5	/experiments/Knapen_AOT/AOT_stimuli/rescaled_final/1897_fw.mp4	0.0	353.10385298728943	
80	337.02545404434204	fix_post	2		12	78.0	2.5	/experiments/Knapen_AOT/AOT_stimuli/rescaled_final/1897_fw.mp4	0.0	353.22239542007446	0.10002756118774414
81	337.1254816055298	fix_pre	0		120	79.0	2.5	/experiments/Knapen_AOT/AOT_stimuli/rescaled_final/0462_rv.mp4	0.0	353.3224229812622	1.008568286895752
81	338.13404989242554	movie	1		274	79.0	2.5	/experiments/Knapen_AOT/AOT_stimuli/rescaled_final/0462_rv.mp4	0.0	354.33099126815796	2.4920365810394287
81	338.50735783576965	pulse	1	t		79.0	2.5	/experiments/Knapen_AOT/AOT_stimuli/rescaled_final/0462_rv.mp4	0.0	354.7042992115021	
81	340.1091277599335	pulse	1	t		79.0	2.5	/experiments/Knapen_AOT/AOT_stimuli/rescaled_final/0462_rv.mp4	0.0	356.3060691356659	
81	340.62608647346497	fix_post	2		12	79.0	2.5	/experiments/Knapen_AOT/AOT_stimuli/rescaled_final/0462_rv.mp4	0.0	356.8230278491974	0.09993696212768555
82	340.72602343559265	fix_pre	0		119	80.0	2.5	/experiments/Knapen_AOT/AOT_stimuli/rescaled_final/0183_rv.mp4	0.0	356.9229648113251	1.0001776218414307
82	341.7096960544586	pulse	0	t		80.0	2.5	/experiments/Knapen_AOT/AOT_stimuli/rescaled_final/0183_rv.mp4	0.0	357.90663743019104	
82	341.7262010574341	movie	1		275	80.0	2.5	/experiments/Knapen_AOT/AOT_stimuli/rescaled_final/0183_rv.mp4	0.0	357.9231424331665	2.5003573894500732
82	343.30838656425476	pulse	1	t		80.0	2.5	/experiments/Knapen_AOT/AOT_stimuli/rescaled_final/0183_rv.mp4	0.0	359.5053279399872	
82	344.22655844688416	fix_post	2		12	80.0	2.5	/experiments/Knapen_AOT/AOT_stimuli/rescaled_final/0183_rv.mp4	0.0	360.4234998226166	0.10000824928283691
83	344.326566696167	fix_pre	0		120	81.0	2.5	/experiments/Knapen_AOT/AOT_stimuli/rescaled_final/0846_fw.mp4	0.0	360.5235080718994	1.008596420288086
83	344.91058349609375	pulse	0	t		81.0	2.5	/experiments/Knapen_AOT/AOT_stimuli/rescaled_final/0846_fw.mp4	0.0	361.1075248718262	
83	345.3351631164551	movie	1		289	81.0	2.5	/experiments/Knapen_AOT/AOT_stimuli/rescaled_final/0846_fw.mp4	0.0	361.5321044921875	2.491940498352051
83	346.50913667678833	pulse	1	t		81.0	2.5	/experiments/Knapen_AOT/AOT_stimuli/rescaled_final/0846_fw.mp4	0.0	362.70607805252075	
83	347.82710361480713	fix_post	2		12	81.0	2.5	/experiments/Knapen_AOT/AOT_stimuli/rescaled_final/0846_fw.mp4	0.0	364.02404499053955	0.10004305839538574
84	347.9271466732025	fix_pre	0		120	82.0	2.5	/experiments/Knapen_AOT/AOT_stimuli/rescaled_final/0850_rv.mp4	0.0	364.12408804893494	1.0084292888641357
84	348.1106426715851	pulse	0	t		82.0	2.5	/experiments/Knapen_AOT/AOT_stimuli/rescaled_final/0850_rv.mp4	0.0	364.3075840473175	
84	348.93557596206665	movie	1		281	82.0	2.5	/experiments/Knapen_AOT/AOT_stimuli/rescaled_final/0850_rv.mp4	0.0	365.1325173377991	2.492072105407715
84	349.70895743370056	pulse	1	t		82.0	2.5	/experiments/Knapen_AOT/AOT_stimuli/rescaled_final/0850_rv.mp4	0.0	365.905898809433	
84	351.30918169021606	pulse	1	t		82.0	2.5	/experiments/Knapen_AOT/AOT_stimuli/rescaled_final/0850_rv.mp4	0.0	367.5061230659485	
84	351.42764806747437	fix_post	2		12	82.0	2.5	/experiments/Knapen_AOT/AOT_stimuli/rescaled_final/0850_rv.mp4	0.0	367.6245894432068	0.09999656677246094
85	351.5276446342468	fix_pre	0		120	83.0	2.5	blank	1.0	367.72458600997925	1.0001468658447266
85	352.52779150009155	movie	1		300	83.0	2.5	blank	1.0	368.724732875824	2.5004162788391113
85	352.9114079475403	pulse	1	t		83.0	2.5	blank	1.0	369.1083493232727	
85	354.51166820526123	pulse	1	t		83.0	2.5	blank	1.0	370.70860958099365	
85	355.02820777893066	fix_post	2		12	83.0	2.5	blank	1.0	371.2251491546631	0.09998393058776855
87	355.12819170951843	stim	0		1715					371.32513308525085	14.293862581253052
87	356.11186599731445	pulse	0	t						372.3088073730469	
87	357.71216654777527	pulse	0	t						373.9091079235077	
87	359.3127055168152	pulse	0	t						375.5096468925476	
87	360.91259360313416	pulse	0	t						377.1095349788666	
87	362.5128662586212	pulse	0	t						378.70980763435364	
87	364.1134979724884	pulse	0	t						380.3104393482208	
87	365.7069134712219	pulse	0	t						381.90385484695435	
87	367.3136215209961	pulse	0	t						383.5105628967285	
87	368.9060525894165	pulse	0	t						385.1029939651489	
