trial_nr	onset	event_type	phase	response	nr_frames	movie_index	movie_duration	movie_file	blank	onset_abs	duration
0	0.20823001861572266	stim	0		2					75.52586698532104	0.01672196388244629
0	0.21678709983825684	response	0	space						75.53442406654358	
1	0.22495198249816895	stim	0		2965					75.54258894920349	24.723016023635864
1	24.93821692466736	pulse	0	t						100.25585389137268	
1	24.947968006134033	stim	1		1716					100.26560497283936	14.307765007019043
1	26.52905297279358	pulse	1	t						101.8466899394989	
1	28.12915301322937	pulse	1	t						103.44678997993469	
1	29.729347944259644	pulse	1	t						105.04698491096497	
1	31.329698085784912	pulse	1	t						106.64733505249023	
1	32.930015087127686	pulse	1	t						108.24765205383301	
1	34.53017807006836	pulse	1	t						109.84781503677368	
1	36.130297899246216	pulse	1	t						111.44793486595154	
1	37.73068308830261	pulse	1	t						113.04832005500793	
2	39.255733013153076	fix_pre	0		10	0.0	2.5	/experiments/knapen_AOT/AOT_stimuli/rescaled_final/0053_rv.mp4	0.0	114.5733699798584	0.08326292037963867
2	39.330939054489136	pulse	0	t		0.0	2.5	/experiments/knapen_AOT/AOT_stimuli/rescaled_final/0053_rv.mp4	0.0	114.64857602119446	
2	39.338995933532715	movie	1		242	0.0	2.5	/experiments/knapen_AOT/AOT_stimuli/rescaled_final/0053_rv.mp4	0.0	114.65663290023804	2.508754014968872
2	40.932414054870605	pulse	1	t		0.0	2.5	/experiments/knapen_AOT/AOT_stimuli/rescaled_final/0053_rv.mp4	0.0	116.25005102157593	
2	41.84774994850159	fix_post	2		12	0.0	2.5	/experiments/knapen_AOT/AOT_stimuli/rescaled_final/0053_rv.mp4	0.0	117.16538691520691	0.09997701644897461
3	41.94772696495056	fix_pre	0		120	1.0	2.5	/experiments/knapen_AOT/AOT_stimuli/rescaled_final/1057_fw.mp4	0.0	117.26536393165588	1.0001389980316162
3	42.53132891654968	pulse	0	t		1.0	2.5	/experiments/knapen_AOT/AOT_stimuli/rescaled_final/1057_fw.mp4	0.0	117.848965883255	
3	42.94786596298218	movie	1		242	1.0	2.5	/experiments/knapen_AOT/AOT_stimuli/rescaled_final/1057_fw.mp4	0.0	118.2655029296875	2.5003979206085205
3	44.1316978931427	pulse	1	t		1.0	2.5	/experiments/knapen_AOT/AOT_stimuli/rescaled_final/1057_fw.mp4	0.0	119.44933485984802	
3	45.4482638835907	fix_post	2		12	1.0	2.5	/experiments/knapen_AOT/AOT_stimuli/rescaled_final/1057_fw.mp4	0.0	120.76590085029602	0.09998822212219238
4	45.54825210571289	fix_pre	0		120	2.0	2.5	/experiments/knapen_AOT/AOT_stimuli/rescaled_final/2050_fw.mp4	0.0	120.86588907241821	1.0002238750457764
4	45.7318799495697	pulse	0	t		2.0	2.5	/experiments/knapen_AOT/AOT_stimuli/rescaled_final/2050_fw.mp4	0.0	121.04951691627502	
4	46.54847598075867	movie	1		242	2.0	2.5	/experiments/knapen_AOT/AOT_stimuli/rescaled_final/2050_fw.mp4	0.0	121.86611294746399	2.5004429817199707
4	47.33212208747864	pulse	1	t		2.0	2.5	/experiments/knapen_AOT/AOT_stimuli/rescaled_final/2050_fw.mp4	0.0	122.64975905418396	
4	48.93207597732544	pulse	1	t		2.0	2.5	/experiments/knapen_AOT/AOT_stimuli/rescaled_final/2050_fw.mp4	0.0	124.24971294403076	
4	49.04891896247864	fix_post	2		12	2.0	2.5	/experiments/knapen_AOT/AOT_stimuli/rescaled_final/2050_fw.mp4	0.0	124.36655592918396	0.09993314743041992
5	49.14885210990906	fix_pre	0		120	3.0	2.5	/experiments/knapen_AOT/AOT_stimuli/rescaled_final/1241_rv.mp4	0.0	124.46648907661438	1.0000808238983154
5	50.14893293380737	movie	1		242	3.0	2.5	/experiments/knapen_AOT/AOT_stimuli/rescaled_final/1241_rv.mp4	0.0	125.4665699005127	2.492125988006592
5	50.533013105392456	pulse	1	t		3.0	2.5	/experiments/knapen_AOT/AOT_stimuli/rescaled_final/1241_rv.mp4	0.0	125.85065007209778	
5	52.132896900177	pulse	1	t		3.0	2.5	/experiments/knapen_AOT/AOT_stimuli/rescaled_final/1241_rv.mp4	0.0	127.45053386688232	
5	52.641058921813965	fix_post	2		12	3.0	2.5	/experiments/knapen_AOT/AOT_stimuli/rescaled_final/1241_rv.mp4	0.0	127.95869588851929	0.09999608993530273
6	52.74105501174927	fix_pre	0		120	4.0	2.5	/experiments/knapen_AOT/AOT_stimuli/rescaled_final/1757_fw.mp4	0.0	128.0586919784546	1.0000810623168945
6	53.73312997817993	pulse	0	t		4.0	2.5	/experiments/knapen_AOT/AOT_stimuli/rescaled_final/1757_fw.mp4	0.0	129.05076694488525	
6	53.74113607406616	movie	1		243	4.0	2.5	/experiments/knapen_AOT/AOT_stimuli/rescaled_final/1757_fw.mp4	0.0	129.05877304077148	2.508715867996216
6	55.3342399597168	pulse	1	t		4.0	2.5	/experiments/knapen_AOT/AOT_stimuli/rescaled_final/1757_fw.mp4	0.0	130.65187692642212	
6	56.24985194206238	fix_post	2		12	4.0	2.5	/experiments/knapen_AOT/AOT_stimuli/rescaled_final/1757_fw.mp4	0.0	131.5674889087677	0.10006308555603027
7	56.34991502761841	fix_pre	0		120	5.0	2.5	blank	1.0	131.66755199432373	1.0000829696655273
7	56.93349599838257	pulse	0	t		5.0	2.5	blank	1.0	132.2511329650879	
7	57.349997997283936	movie	1		300	5.0	2.5	blank	1.0	132.66763496398926	2.500385046005249
7	58.53379702568054	pulse	1	t		5.0	2.5	blank	1.0	133.85143399238586	
7	59.850383043289185	fix_post	2		12	5.0	2.5	blank	1.0	135.1680200099945	0.10003089904785156
8	59.950413942337036	fix_pre	0		120	6.0	2.5	/experiments/knapen_AOT/AOT_stimuli/rescaled_final/0196_fw.mp4	0.0	135.26805090904236	1.0001399517059326
8	60.13400197029114	pulse	0	t		6.0	2.5	/experiments/knapen_AOT/AOT_stimuli/rescaled_final/0196_fw.mp4	0.0	135.45163893699646	
8	60.95055389404297	movie	1		242	6.0	2.5	/experiments/knapen_AOT/AOT_stimuli/rescaled_final/0196_fw.mp4	0.0	136.2681908607483	2.500549077987671
8	61.73425889015198	pulse	1	t		6.0	2.5	/experiments/knapen_AOT/AOT_stimuli/rescaled_final/0196_fw.mp4	0.0	137.0518958568573	
8	63.33440899848938	pulse	1	t		6.0	2.5	/experiments/knapen_AOT/AOT_stimuli/rescaled_final/0196_fw.mp4	0.0	138.6520459651947	
8	63.45110297203064	fix_post	2		12	6.0	2.5	/experiments/knapen_AOT/AOT_stimuli/rescaled_final/0196_fw.mp4	0.0	138.76873993873596	0.09985208511352539
9	63.550955057144165	fix_pre	0		120	7.0	2.5	/experiments/knapen_AOT/AOT_stimuli/rescaled_final/0728_rv.mp4	0.0	138.8685920238495	1.000121831893921
9	64.55107688903809	movie	1		241	7.0	2.5	/experiments/knapen_AOT/AOT_stimuli/rescaled_final/0728_rv.mp4	0.0	139.8687138557434	2.4920921325683594
9	64.93590593338013	pulse	1	t		7.0	2.5	/experiments/knapen_AOT/AOT_stimuli/rescaled_final/0728_rv.mp4	0.0	140.25354290008545	
9	66.5275559425354	pulse	1	t		7.0	2.5	/experiments/knapen_AOT/AOT_stimuli/rescaled_final/0728_rv.mp4	0.0	141.84519290924072	
9	67.04316902160645	fix_post	2		12	7.0	2.5	/experiments/knapen_AOT/AOT_stimuli/rescaled_final/0728_rv.mp4	0.0	142.36080598831177	0.09996604919433594
10	67.14313507080078	fix_pre	0		120	8.0	2.5	/experiments/knapen_AOT/AOT_stimuli/rescaled_final/0181_fw.mp4	0.0	142.4607720375061	1.0001468658447266
10	68.12778496742249	pulse	0	t		8.0	2.5	/experiments/knapen_AOT/AOT_stimuli/rescaled_final/0181_fw.mp4	0.0	143.4454219341278	
10	68.14328193664551	movie	1		245	8.0	2.5	/experiments/knapen_AOT/AOT_stimuli/rescaled_final/0181_fw.mp4	0.0	143.46091890335083	2.5087029933929443
10	69.73983788490295	pulse	1	t		8.0	2.5	/experiments/knapen_AOT/AOT_stimuli/rescaled_final/0181_fw.mp4	0.0	145.05747485160828	
10	70.65198493003845	fix_post	2		12	8.0	2.5	/experiments/knapen_AOT/AOT_stimuli/rescaled_final/0181_fw.mp4	0.0	145.96962189674377	0.1000370979309082
11	70.75202202796936	fix_pre	0		120	9.0	2.5	/experiments/knapen_AOT/AOT_stimuli/rescaled_final/1822_rv.mp4	0.0	146.06965899467468	1.0001499652862549
11	71.3274929523468	pulse	0	t		9.0	2.5	/experiments/knapen_AOT/AOT_stimuli/rescaled_final/1822_rv.mp4	0.0	146.64512991905212	
11	71.75217199325562	movie	1		242	9.0	2.5	/experiments/knapen_AOT/AOT_stimuli/rescaled_final/1822_rv.mp4	0.0	147.06980895996094	2.500472068786621
11	72.92820310592651	pulse	1	t		9.0	2.5	/experiments/knapen_AOT/AOT_stimuli/rescaled_final/1822_rv.mp4	0.0	148.24584007263184	
11	74.25264406204224	fix_post	2		12	9.0	2.5	/experiments/knapen_AOT/AOT_stimuli/rescaled_final/1822_rv.mp4	0.0	149.57028102874756	0.09988999366760254
12	74.35253405570984	fix_pre	0		120	10.0	2.5	/experiments/knapen_AOT/AOT_stimuli/rescaled_final/1804_fw.mp4	0.0	149.67017102241516	1.0002338886260986
12	74.52772307395935	pulse	0	t		10.0	2.5	/experiments/knapen_AOT/AOT_stimuli/rescaled_final/1804_fw.mp4	0.0	149.84536004066467	
12	75.35276794433594	movie	1		245	10.0	2.5	/experiments/knapen_AOT/AOT_stimuli/rescaled_final/1804_fw.mp4	0.0	150.67040491104126	2.50032901763916
12	76.12817788124084	pulse	1	t		10.0	2.5	/experiments/knapen_AOT/AOT_stimuli/rescaled_final/1804_fw.mp4	0.0	151.44581484794617	
12	77.72828388214111	pulse	1	t		10.0	2.5	/experiments/knapen_AOT/AOT_stimuli/rescaled_final/1804_fw.mp4	0.0	153.04592084884644	
12	77.8530969619751	fix_post	2		12	10.0	2.5	/experiments/knapen_AOT/AOT_stimuli/rescaled_final/1804_fw.mp4	0.0	153.17073392868042	0.09996604919433594
13	77.95306301116943	fix_pre	0		119	11.0	2.5	/experiments/knapen_AOT/AOT_stimuli/rescaled_final/0502_rv.mp4	0.0	153.27069997787476	0.9918150901794434
13	78.94487810134888	movie	1		242	11.0	2.5	/experiments/knapen_AOT/AOT_stimuli/rescaled_final/0502_rv.mp4	0.0	154.2625150680542	2.5004630088806152
13	79.32914710044861	pulse	1	t		11.0	2.5	/experiments/knapen_AOT/AOT_stimuli/rescaled_final/0502_rv.mp4	0.0	154.64678406715393	
13	80.92886805534363	pulse	1	t		11.0	2.5	/experiments/knapen_AOT/AOT_stimuli/rescaled_final/0502_rv.mp4	0.0	156.24650502204895	
13	81.44534111022949	fix_post	2		12	11.0	2.5	/experiments/knapen_AOT/AOT_stimuli/rescaled_final/0502_rv.mp4	0.0	156.76297807693481	0.09995293617248535
14	81.54529404640198	fix_pre	0		119	12.0	2.5	/experiments/knapen_AOT/AOT_stimuli/rescaled_final/1701_rv.mp4	0.0	156.8629310131073	0.9918479919433594
14	82.52896189689636	pulse	0	t		12.0	2.5	/experiments/knapen_AOT/AOT_stimuli/rescaled_final/1701_rv.mp4	0.0	157.84659886360168	
14	82.53714203834534	movie	1		244	12.0	2.5	/experiments/knapen_AOT/AOT_stimuli/rescaled_final/1701_rv.mp4	0.0	157.85477900505066	2.5086169242858887
14	84.13393211364746	pulse	1	t		12.0	2.5	/experiments/knapen_AOT/AOT_stimuli/rescaled_final/1701_rv.mp4	0.0	159.45156908035278	
14	85.04575896263123	fix_post	2		12	12.0	2.5	/experiments/knapen_AOT/AOT_stimuli/rescaled_final/1701_rv.mp4	0.0	160.36339592933655	0.10015392303466797
15	85.1459128856659	fix_pre	0		120	13.0	2.5	blank	1.0	160.46354985237122	1.0000941753387451
15	85.72939205169678	pulse	0	t		13.0	2.5	blank	1.0	161.0470290184021	
15	86.14600706100464	movie	1		300	13.0	2.5	blank	1.0	161.46364402770996	2.5003340244293213
15	87.32980608940125	pulse	1	t		13.0	2.5	blank	1.0	162.64744305610657	
15	88.64634108543396	fix_post	2		12	13.0	2.5	blank	1.0	163.96397805213928	0.10000300407409668
16	88.74634408950806	fix_pre	0		120	14.0	2.5	/experiments/knapen_AOT/AOT_stimuli/rescaled_final/1819_rv.mp4	0.0	164.06398105621338	1.0001540184020996
16	88.92989706993103	pulse	0	t		14.0	2.5	/experiments/knapen_AOT/AOT_stimuli/rescaled_final/1819_rv.mp4	0.0	164.24753403663635	
16	89.74649810791016	movie	1		243	14.0	2.5	/experiments/knapen_AOT/AOT_stimuli/rescaled_final/1819_rv.mp4	0.0	165.06413507461548	2.5004899501800537
16	90.53022694587708	pulse	1	t		14.0	2.5	/experiments/knapen_AOT/AOT_stimuli/rescaled_final/1819_rv.mp4	0.0	165.8478639125824	
16	92.13045907020569	pulse	1	t		14.0	2.5	/experiments/knapen_AOT/AOT_stimuli/rescaled_final/1819_rv.mp4	0.0	167.448096036911	
16	92.24698805809021	fix_post	2		12	14.0	2.5	/experiments/knapen_AOT/AOT_stimuli/rescaled_final/1819_rv.mp4	0.0	167.56462502479553	0.09989500045776367
17	92.34688305854797	fix_pre	0		119	15.0	2.5	/experiments/knapen_AOT/AOT_stimuli/rescaled_final/0244_fw.mp4	0.0	167.6645200252533	0.9918868541717529
17	93.33876991271973	movie	1		240	15.0	2.5	/experiments/knapen_AOT/AOT_stimuli/rescaled_final/0244_fw.mp4	0.0	168.65640687942505	2.500357151031494
17	93.73082089424133	pulse	1	t		15.0	2.5	/experiments/knapen_AOT/AOT_stimuli/rescaled_final/0244_fw.mp4	0.0	169.04845786094666	
17	95.330815076828	pulse	1	t		15.0	2.5	/experiments/knapen_AOT/AOT_stimuli/rescaled_final/0244_fw.mp4	0.0	170.64845204353333	
17	95.83912706375122	fix_post	2		12	15.0	2.5	/experiments/knapen_AOT/AOT_stimuli/rescaled_final/0244_fw.mp4	0.0	171.15676403045654	0.09997081756591797
18	95.93909788131714	fix_pre	0		120	16.0	2.5	/experiments/knapen_AOT/AOT_stimuli/rescaled_final/0539_fw.mp4	0.0	171.25673484802246	1.0001170635223389
18	96.93109798431396	pulse	0	t		16.0	2.5	/experiments/knapen_AOT/AOT_stimuli/rescaled_final/0539_fw.mp4	0.0	172.2487349510193	
18	96.93921494483948	movie	1		244	16.0	2.5	/experiments/knapen_AOT/AOT_stimuli/rescaled_final/0539_fw.mp4	0.0	172.2568519115448	2.508729934692383
18	98.53206491470337	pulse	1	t		16.0	2.5	/experiments/knapen_AOT/AOT_stimuli/rescaled_final/0539_fw.mp4	0.0	173.8497018814087	
18	99.44794487953186	fix_post	2		12	16.0	2.5	/experiments/knapen_AOT/AOT_stimuli/rescaled_final/0539_fw.mp4	0.0	174.76558184623718	0.10001707077026367
19	99.54796195030212	fix_pre	0		120	17.0	2.5	/experiments/knapen_AOT/AOT_stimuli/rescaled_final/0934_rv.mp4	0.0	174.86559891700745	1.0001630783081055
19	100.13163590431213	pulse	0	t		17.0	2.5	/experiments/knapen_AOT/AOT_stimuli/rescaled_final/0934_rv.mp4	0.0	175.44927287101746	
19	100.54812502861023	movie	1		242	17.0	2.5	/experiments/knapen_AOT/AOT_stimuli/rescaled_final/0934_rv.mp4	0.0	175.86576199531555	2.5005440711975098
19	101.73201704025269	pulse	1	t		17.0	2.5	/experiments/knapen_AOT/AOT_stimuli/rescaled_final/0934_rv.mp4	0.0	177.049654006958	
19	103.04866909980774	fix_post	2		12	17.0	2.5	/experiments/knapen_AOT/AOT_stimuli/rescaled_final/0934_rv.mp4	0.0	178.36630606651306	0.09986281394958496
20	103.14853191375732	fix_pre	0		120	18.0	2.5	/experiments/knapen_AOT/AOT_stimuli/rescaled_final/0196_rv.mp4	0.0	178.46616888046265	1.0001130104064941
20	103.33205199241638	pulse	0	t		18.0	2.5	/experiments/knapen_AOT/AOT_stimuli/rescaled_final/0196_rv.mp4	0.0	178.6496889591217	
20	104.14864492416382	movie	1		242	18.0	2.5	/experiments/knapen_AOT/AOT_stimuli/rescaled_final/0196_rv.mp4	0.0	179.46628189086914	2.5004940032958984
20	104.9323399066925	pulse	1	t		18.0	2.5	/experiments/knapen_AOT/AOT_stimuli/rescaled_final/0196_rv.mp4	0.0	180.24997687339783	
20	106.53253889083862	pulse	1	t		18.0	2.5	/experiments/knapen_AOT/AOT_stimuli/rescaled_final/0196_rv.mp4	0.0	181.85017585754395	
20	106.64913892745972	fix_post	2		12	18.0	2.5	/experiments/knapen_AOT/AOT_stimuli/rescaled_final/0196_rv.mp4	0.0	181.96677589416504	0.09991312026977539
21	106.74905204772949	fix_pre	0		119	19.0	2.5	/experiments/knapen_AOT/AOT_stimuli/rescaled_final/1587_fw.mp4	0.0	182.06668901443481	0.9918148517608643
21	107.74086689949036	movie	1		244	19.0	2.5	/experiments/knapen_AOT/AOT_stimuli/rescaled_final/1587_fw.mp4	0.0	183.05850386619568	2.500357151031494
21	108.13299298286438	pulse	1	t		19.0	2.5	/experiments/knapen_AOT/AOT_stimuli/rescaled_final/1587_fw.mp4	0.0	183.4506299495697	
21	109.7330949306488	pulse	1	t		19.0	2.5	/experiments/knapen_AOT/AOT_stimuli/rescaled_final/1587_fw.mp4	0.0	185.05073189735413	
21	110.24122405052185	fix_post	2		12	19.0	2.5	/experiments/knapen_AOT/AOT_stimuli/rescaled_final/1587_fw.mp4	0.0	185.55886101722717	0.10004901885986328
22	110.34127306938171	fix_pre	0		120	20.0	2.5	blank	1.0	185.65891003608704	1.000187873840332
22	111.33321189880371	pulse	0	t		20.0	2.5	blank	1.0	186.65084886550903	
22	111.34146094322205	movie	1		301	20.0	2.5	blank	1.0	186.65909790992737	2.5086450576782227
22	112.93350195884705	pulse	1	t		20.0	2.5	blank	1.0	188.25113892555237	
22	113.85010600090027	fix_post	2		12	20.0	2.5	blank	1.0	189.1677429676056	0.10003089904785156
23	113.95013689994812	fix_pre	0		120	21.0	2.5	/experiments/knapen_AOT/AOT_stimuli/rescaled_final/0576_rv.mp4	0.0	189.26777386665344	1.0001201629638672
23	114.53377294540405	pulse	0	t		21.0	2.5	/experiments/knapen_AOT/AOT_stimuli/rescaled_final/0576_rv.mp4	0.0	189.85140991210938	
23	114.95025706291199	movie	1		244	21.0	2.5	/experiments/knapen_AOT/AOT_stimuli/rescaled_final/0576_rv.mp4	0.0	190.2678940296173	2.500356912612915
23	116.13409900665283	pulse	1	t		21.0	2.5	/experiments/knapen_AOT/AOT_stimuli/rescaled_final/0576_rv.mp4	0.0	191.45173597335815	
23	117.4506139755249	fix_post	2		12	21.0	2.5	/experiments/knapen_AOT/AOT_stimuli/rescaled_final/0576_rv.mp4	0.0	192.76825094223022	0.10003209114074707
24	117.55064606666565	fix_pre	0		120	22.0	2.5	/experiments/knapen_AOT/AOT_stimuli/rescaled_final/0580_fw.mp4	0.0	192.86828303337097	1.0001590251922607
24	117.73419404029846	pulse	0	t		22.0	2.5	/experiments/knapen_AOT/AOT_stimuli/rescaled_final/0580_fw.mp4	0.0	193.05183100700378	
24	118.55080509185791	movie	1		242	22.0	2.5	/experiments/knapen_AOT/AOT_stimuli/rescaled_final/0580_fw.mp4	0.0	193.86844205856323	2.5004258155822754
24	119.33449101448059	pulse	1	t		22.0	2.5	/experiments/knapen_AOT/AOT_stimuli/rescaled_final/0580_fw.mp4	0.0	194.6521279811859	
24	120.93454694747925	pulse	1	t		22.0	2.5	/experiments/knapen_AOT/AOT_stimuli/rescaled_final/0580_fw.mp4	0.0	196.25218391418457	
24	121.05123090744019	fix_post	2		12	22.0	2.5	/experiments/knapen_AOT/AOT_stimuli/rescaled_final/0580_fw.mp4	0.0	196.3688678741455	0.09995317459106445
25	121.15118408203125	fix_pre	0		120	23.0	2.5	/experiments/knapen_AOT/AOT_stimuli/rescaled_final/0642_rv.mp4	0.0	196.46882104873657	1.0001678466796875
25	122.15135192871094	movie	1		241	23.0	2.5	/experiments/knapen_AOT/AOT_stimuli/rescaled_final/0642_rv.mp4	0.0	197.46898889541626	2.492143154144287
25	122.53610110282898	pulse	1	t		23.0	2.5	/experiments/knapen_AOT/AOT_stimuli/rescaled_final/0642_rv.mp4	0.0	197.8537380695343	
25	124.12777495384216	pulse	1	t		23.0	2.5	/experiments/knapen_AOT/AOT_stimuli/rescaled_final/0642_rv.mp4	0.0	199.44541192054749	
25	124.64349508285522	fix_post	2		12	23.0	2.5	/experiments/knapen_AOT/AOT_stimuli/rescaled_final/0642_rv.mp4	0.0	199.96113204956055	0.09993982315063477
26	124.74343490600586	fix_pre	0		119	24.0	2.5	/experiments/knapen_AOT/AOT_stimuli/rescaled_final/1806_fw.mp4	0.0	200.06107187271118	0.9918081760406494
26	125.72699999809265	pulse	0	t		24.0	2.5	/experiments/knapen_AOT/AOT_stimuli/rescaled_final/1806_fw.mp4	0.0	201.04463696479797	
26	125.73524308204651	movie	1		243	24.0	2.5	/experiments/knapen_AOT/AOT_stimuli/rescaled_final/1806_fw.mp4	0.0	201.05288004875183	2.5086898803710938
26	127.32777190208435	pulse	1	t		24.0	2.5	/experiments/knapen_AOT/AOT_stimuli/rescaled_final/1806_fw.mp4	0.0	202.64540886878967	
26	128.2439329624176	fix_post	2		12	24.0	2.5	/experiments/knapen_AOT/AOT_stimuli/rescaled_final/1806_fw.mp4	0.0	203.56156992912292	0.10002803802490234
27	128.3439610004425	fix_pre	0		120	25.0	2.5	/experiments/knapen_AOT/AOT_stimuli/rescaled_final/0839_fw.mp4	0.0	203.66159796714783	1.0001049041748047
27	128.9275360107422	pulse	0	t		25.0	2.5	/experiments/knapen_AOT/AOT_stimuli/rescaled_final/0839_fw.mp4	0.0	204.2451729774475	
27	129.3440659046173	movie	1		243	25.0	2.5	/experiments/knapen_AOT/AOT_stimuli/rescaled_final/0839_fw.mp4	0.0	204.66170287132263	2.5005290508270264
27	130.52798700332642	pulse	1	t		25.0	2.5	/experiments/knapen_AOT/AOT_stimuli/rescaled_final/0839_fw.mp4	0.0	205.84562397003174	
27	131.84459495544434	fix_post	2		12	25.0	2.5	/experiments/knapen_AOT/AOT_stimuli/rescaled_final/0839_fw.mp4	0.0	207.16223192214966	0.09989094734191895
28	131.94448590278625	fix_pre	0		120	26.0	2.5	/experiments/knapen_AOT/AOT_stimuli/rescaled_final/1814_fw.mp4	0.0	207.26212286949158	1.0001461505889893
28	132.12815189361572	pulse	0	t		26.0	2.5	/experiments/knapen_AOT/AOT_stimuli/rescaled_final/1814_fw.mp4	0.0	207.44578886032104	
28	132.94463205337524	movie	1		243	26.0	2.5	/experiments/knapen_AOT/AOT_stimuli/rescaled_final/1814_fw.mp4	0.0	208.26226902008057	2.500349998474121
28	133.7282431125641	pulse	1	t		26.0	2.5	/experiments/knapen_AOT/AOT_stimuli/rescaled_final/1814_fw.mp4	0.0	209.0458800792694	
28	135.32851195335388	pulse	1	t		26.0	2.5	/experiments/knapen_AOT/AOT_stimuli/rescaled_final/1814_fw.mp4	0.0	210.6461489200592	
28	135.44498205184937	fix_post	2		12	26.0	2.5	/experiments/knapen_AOT/AOT_stimuli/rescaled_final/1814_fw.mp4	0.0	210.7626190185547	0.10010004043579102
29	135.54508209228516	fix_pre	0		119	27.0	2.5	/experiments/knapen_AOT/AOT_stimuli/rescaled_final/1804_fw.mp4	0.0	210.86271905899048	0.9917709827423096
29	136.53685307502747	movie	1		244	27.0	2.5	/experiments/knapen_AOT/AOT_stimuli/rescaled_final/1804_fw.mp4	0.0	211.8544900417328	2.500342845916748
29	136.9288899898529	pulse	1	t		27.0	2.5	/experiments/knapen_AOT/AOT_stimuli/rescaled_final/1804_fw.mp4	0.0	212.24652695655823	
29	138.52913403511047	pulse	1	t		27.0	2.5	/experiments/knapen_AOT/AOT_stimuli/rescaled_final/1804_fw.mp4	0.0	213.8467710018158	
29	139.0371959209442	fix_post	2		12	27.0	2.5	/experiments/knapen_AOT/AOT_stimuli/rescaled_final/1804_fw.mp4	0.0	214.35483288764954	0.09999418258666992
30	139.13719010353088	fix_pre	0		120	28.0	2.5	blank	1.0	214.4548270702362	1.0002257823944092
30	140.12922191619873	pulse	0	t		28.0	2.5	blank	1.0	215.44685888290405	
30	140.1374158859253	movie	1		301	28.0	2.5	blank	1.0	215.45505285263062	2.5086421966552734
30	141.72943997383118	pulse	1	t		28.0	2.5	blank	1.0	217.0470769405365	
30	142.64605808258057	fix_post	2		12	28.0	2.5	blank	1.0	217.9636950492859	0.1000068187713623
31	142.74606490135193	fix_pre	0		120	29.0	2.5	/experiments/knapen_AOT/AOT_stimuli/rescaled_final/2160_fw.mp4	0.0	218.06370186805725	1.0001661777496338
31	143.3297779560089	pulse	0	t		29.0	2.5	/experiments/knapen_AOT/AOT_stimuli/rescaled_final/2160_fw.mp4	0.0	218.64741492271423	
31	143.74623107910156	movie	1		243	29.0	2.5	/experiments/knapen_AOT/AOT_stimuli/rescaled_final/2160_fw.mp4	0.0	219.06386804580688	2.500537872314453
31	144.93014001846313	pulse	1	t		29.0	2.5	/experiments/knapen_AOT/AOT_stimuli/rescaled_final/2160_fw.mp4	0.0	220.24777698516846	
31	146.24676895141602	fix_post	2		12	29.0	2.5	/experiments/knapen_AOT/AOT_stimuli/rescaled_final/2160_fw.mp4	0.0	221.56440591812134	0.09990406036376953
32	146.34667301177979	fix_pre	0		120	30.0	2.5	/experiments/knapen_AOT/AOT_stimuli/rescaled_final/1780_rv.mp4	0.0	221.6643099784851	1.0001039505004883
32	146.53023600578308	pulse	0	t		30.0	2.5	/experiments/knapen_AOT/AOT_stimuli/rescaled_final/1780_rv.mp4	0.0	221.8478729724884	
32	147.34677696228027	movie	1		244	30.0	2.5	/experiments/knapen_AOT/AOT_stimuli/rescaled_final/1780_rv.mp4	0.0	222.6644139289856	2.500347137451172
32	148.13043189048767	pulse	1	t		30.0	2.5	/experiments/knapen_AOT/AOT_stimuli/rescaled_final/1780_rv.mp4	0.0	223.448068857193	
32	149.73065304756165	pulse	1	t		30.0	2.5	/experiments/knapen_AOT/AOT_stimuli/rescaled_final/1780_rv.mp4	0.0	225.04829001426697	
32	149.84712409973145	fix_post	2		12	30.0	2.5	/experiments/knapen_AOT/AOT_stimuli/rescaled_final/1780_rv.mp4	0.0	225.16476106643677	0.10007190704345703
33	149.9471960067749	fix_pre	0		119	31.0	2.5	/experiments/knapen_AOT/AOT_stimuli/rescaled_final/1392_rv.mp4	0.0	225.26483297348022	0.9917919635772705
33	150.93898797035217	movie	1		243	31.0	2.5	/experiments/knapen_AOT/AOT_stimuli/rescaled_final/1392_rv.mp4	0.0	226.2566249370575	2.500515937805176
33	151.33112692832947	pulse	1	t		31.0	2.5	/experiments/knapen_AOT/AOT_stimuli/rescaled_final/1392_rv.mp4	0.0	226.6487638950348	
33	152.9311990737915	pulse	1	t		31.0	2.5	/experiments/knapen_AOT/AOT_stimuli/rescaled_final/1392_rv.mp4	0.0	228.24883604049683	
33	153.43950390815735	fix_post	2		12	31.0	2.5	/experiments/knapen_AOT/AOT_stimuli/rescaled_final/1392_rv.mp4	0.0	228.75714087486267	0.09985518455505371
34	153.5393590927124	fix_pre	0		120	32.0	2.5	/experiments/knapen_AOT/AOT_stimuli/rescaled_final/0220_fw.mp4	0.0	228.85699605941772	1.0001769065856934
34	154.5313320159912	pulse	0	t		32.0	2.5	/experiments/knapen_AOT/AOT_stimuli/rescaled_final/0220_fw.mp4	0.0	229.84896898269653	
34	154.5395359992981	movie	1		241	32.0	2.5	/experiments/knapen_AOT/AOT_stimuli/rescaled_final/0220_fw.mp4	0.0	229.85717296600342	2.520050048828125
34	156.13295602798462	pulse	1	t		32.0	2.5	/experiments/knapen_AOT/AOT_stimuli/rescaled_final/0220_fw.mp4	0.0	231.45059299468994	
34	157.05958604812622	fix_post	2		11	32.0	2.5	/experiments/knapen_AOT/AOT_stimuli/rescaled_final/0220_fw.mp4	0.0	232.37722301483154	0.0886380672454834
35	157.1482241153717	fix_pre	0		120	33.0	2.5	/experiments/knapen_AOT/AOT_stimuli/rescaled_final/0290_fw.mp4	0.0	232.46586108207703	1.0001778602600098
35	157.73194694519043	pulse	0	t		33.0	2.5	/experiments/knapen_AOT/AOT_stimuli/rescaled_final/0290_fw.mp4	0.0	233.04958391189575	
35	158.1484019756317	movie	1		244	33.0	2.5	/experiments/knapen_AOT/AOT_stimuli/rescaled_final/0290_fw.mp4	0.0	233.46603894233704	2.5003349781036377
35	159.3321590423584	pulse	1	t		33.0	2.5	/experiments/knapen_AOT/AOT_stimuli/rescaled_final/0290_fw.mp4	0.0	234.64979600906372	
35	160.64873695373535	fix_post	2		12	33.0	2.5	/experiments/knapen_AOT/AOT_stimuli/rescaled_final/0290_fw.mp4	0.0	235.96637392044067	0.10004496574401855
36	160.74878191947937	fix_pre	0		120	34.0	2.5	/experiments/knapen_AOT/AOT_stimuli/rescaled_final/2032_rv.mp4	0.0	236.0664188861847	1.000110149383545
36	160.93247604370117	pulse	0	t		34.0	2.5	/experiments/knapen_AOT/AOT_stimuli/rescaled_final/2032_rv.mp4	0.0	236.2501130104065	
36	161.74889206886292	movie	1		242	34.0	2.5	/experiments/knapen_AOT/AOT_stimuli/rescaled_final/2032_rv.mp4	0.0	237.06652903556824	2.500458002090454
36	162.53259205818176	pulse	1	t		34.0	2.5	/experiments/knapen_AOT/AOT_stimuli/rescaled_final/2032_rv.mp4	0.0	237.85022902488708	
36	164.13278198242188	pulse	1	t		34.0	2.5	/experiments/knapen_AOT/AOT_stimuli/rescaled_final/2032_rv.mp4	0.0	239.4504189491272	
36	164.24935007095337	fix_post	2		12	34.0	2.5	/experiments/knapen_AOT/AOT_stimuli/rescaled_final/2032_rv.mp4	0.0	239.5669870376587	0.09994697570800781
37	164.34929704666138	fix_pre	0		119	35.0	2.5	blank	1.0	239.6669340133667	0.9918148517608643
37	165.34111189842224	movie	1		300	35.0	2.5	blank	1.0	240.65874886512756	2.500383138656616
37	165.7330620288849	pulse	1	t		35.0	2.5	blank	1.0	241.0506989955902	
37	167.33335900306702	pulse	1	t		35.0	2.5	blank	1.0	242.65099596977234	
37	167.84149503707886	fix_post	2		12	35.0	2.5	blank	1.0	243.15913200378418	0.10005998611450195
38	167.94155502319336	fix_pre	0		120	36.0	2.5	/experiments/knapen_AOT/AOT_stimuli/rescaled_final/0376_fw.mp4	0.0	243.25919198989868	1.0001139640808105
38	168.93358206748962	pulse	0	t		36.0	2.5	/experiments/knapen_AOT/AOT_stimuli/rescaled_final/0376_fw.mp4	0.0	244.25121903419495	
38	168.94166898727417	movie	1		244	36.0	2.5	/experiments/knapen_AOT/AOT_stimuli/rescaled_final/0376_fw.mp4	0.0	244.2593059539795	2.5086939334869385
38	170.5351459980011	pulse	1	t		36.0	2.5	/experiments/knapen_AOT/AOT_stimuli/rescaled_final/0376_fw.mp4	0.0	245.85278296470642	
38	171.4503629207611	fix_post	2		12	36.0	2.5	/experiments/knapen_AOT/AOT_stimuli/rescaled_final/0376_fw.mp4	0.0	246.76799988746643	0.1000511646270752
39	171.55041408538818	fix_pre	0		120	37.0	2.5	/experiments/knapen_AOT/AOT_stimuli/rescaled_final/0696_rv.mp4	0.0	246.8680510520935	1.0000929832458496
39	172.1339991092682	pulse	0	t		37.0	2.5	/experiments/knapen_AOT/AOT_stimuli/rescaled_final/0696_rv.mp4	0.0	247.4516360759735	
39	172.55050706863403	movie	1		242	37.0	2.5	/experiments/knapen_AOT/AOT_stimuli/rescaled_final/0696_rv.mp4	0.0	247.86814403533936	2.500520944595337
39	173.7344160079956	pulse	1	t		37.0	2.5	/experiments/knapen_AOT/AOT_stimuli/rescaled_final/0696_rv.mp4	0.0	249.05205297470093	
39	175.05102801322937	fix_post	2		12	37.0	2.5	/experiments/knapen_AOT/AOT_stimuli/rescaled_final/0696_rv.mp4	0.0	250.3686649799347	0.09993791580200195
40	175.15096592903137	fix_pre	0		120	38.0	2.5	/experiments/knapen_AOT/AOT_stimuli/rescaled_final/0206_fw.mp4	0.0	250.4686028957367	1.0001111030578613
40	175.33444905281067	pulse	0	t		38.0	2.5	/experiments/knapen_AOT/AOT_stimuli/rescaled_final/0206_fw.mp4	0.0	250.652086019516	
40	176.15107703208923	movie	1		242	38.0	2.5	/experiments/knapen_AOT/AOT_stimuli/rescaled_final/0206_fw.mp4	0.0	251.46871399879456	2.500540018081665
40	176.9348120689392	pulse	1	t		38.0	2.5	/experiments/knapen_AOT/AOT_stimuli/rescaled_final/0206_fw.mp4	0.0	252.25244903564453	
40	178.53556609153748	pulse	1	t		38.0	2.5	/experiments/knapen_AOT/AOT_stimuli/rescaled_final/0206_fw.mp4	0.0	253.8532030582428	
40	178.6516170501709	fix_post	2		12	38.0	2.5	/experiments/knapen_AOT/AOT_stimuli/rescaled_final/0206_fw.mp4	0.0	253.96925401687622	0.0998680591583252
41	178.75148510932922	fix_pre	0		119	39.0	2.5	/experiments/knapen_AOT/AOT_stimuli/rescaled_final/0278_fw.mp4	0.0	254.06912207603455	0.9917938709259033
41	179.74327898025513	movie	1		244	39.0	2.5	/experiments/knapen_AOT/AOT_stimuli/rescaled_final/0278_fw.mp4	0.0	255.06091594696045	2.500339984893799
41	180.12774109840393	pulse	1	t		39.0	2.5	/experiments/knapen_AOT/AOT_stimuli/rescaled_final/0278_fw.mp4	0.0	255.44537806510925	
41	181.72808599472046	pulse	1	t		39.0	2.5	/experiments/knapen_AOT/AOT_stimuli/rescaled_final/0278_fw.mp4	0.0	257.0457229614258	
41	182.24361896514893	fix_post	2		12	39.0	2.5	/experiments/knapen_AOT/AOT_stimuli/rescaled_final/0278_fw.mp4	0.0	257.56125593185425	0.10008692741394043
42	182.34370589256287	fix_pre	0		120	40.0	2.5	/experiments/knapen_AOT/AOT_stimuli/rescaled_final/0934_fw.mp4	0.0	257.6613428592682	1.0001192092895508
42	183.32811999320984	pulse	0	t		40.0	2.5	/experiments/knapen_AOT/AOT_stimuli/rescaled_final/0934_fw.mp4	0.0	258.64575695991516	
42	183.34382510185242	movie	1		243	40.0	2.5	/experiments/knapen_AOT/AOT_stimuli/rescaled_final/0934_fw.mp4	0.0	258.66146206855774	2.5087130069732666
42	184.92772793769836	pulse	1	t		40.0	2.5	/experiments/knapen_AOT/AOT_stimuli/rescaled_final/0934_fw.mp4	0.0	260.2453649044037	
42	185.85253810882568	fix_post	2		12	40.0	2.5	/experiments/knapen_AOT/AOT_stimuli/rescaled_final/0934_fw.mp4	0.0	261.170175075531	0.09999489784240723
43	185.9525330066681	fix_pre	0		120	41.0	2.5	/experiments/knapen_AOT/AOT_stimuli/rescaled_final/0140_rv.mp4	0.0	261.2701699733734	1.0001509189605713
43	186.5277829170227	pulse	0	t		41.0	2.5	/experiments/knapen_AOT/AOT_stimuli/rescaled_final/0140_rv.mp4	0.0	261.845419883728	
43	186.95268392562866	movie	1		242	41.0	2.5	/experiments/knapen_AOT/AOT_stimuli/rescaled_final/0140_rv.mp4	0.0	262.270320892334	2.5004501342773438
43	188.12933588027954	pulse	1	t		41.0	2.5	/experiments/knapen_AOT/AOT_stimuli/rescaled_final/0140_rv.mp4	0.0	263.44697284698486	
43	189.453134059906	fix_post	2		12	41.0	2.5	/experiments/knapen_AOT/AOT_stimuli/rescaled_final/0140_rv.mp4	0.0	264.7707710266113	0.09994983673095703
44	189.55308389663696	fix_pre	0		120	42.0	2.5	blank	1.0	264.8707208633423	1.0001370906829834
44	189.72828602790833	pulse	0	t		42.0	2.5	blank	1.0	265.04592299461365	
44	190.55322098731995	movie	1		300	42.0	2.5	blank	1.0	265.87085795402527	2.5003750324249268
44	191.3285779953003	pulse	1	t		42.0	2.5	blank	1.0	266.6462149620056	
44	192.92881298065186	pulse	1	t		42.0	2.5	blank	1.0	268.2464499473572	
44	193.05359601974487	fix_post	2		12	42.0	2.5	blank	1.0	268.3712329864502	0.09999394416809082
45	193.15358996391296	fix_pre	0		120	43.0	2.5	/experiments/knapen_AOT/AOT_stimuli/rescaled_final/1241_fw.mp4	0.0	268.4712269306183	1.0001680850982666
45	194.15375804901123	movie	1		242	43.0	2.5	/experiments/knapen_AOT/AOT_stimuli/rescaled_final/1241_fw.mp4	0.0	269.47139501571655	2.492166042327881
45	194.52902007102966	pulse	1	t		43.0	2.5	/experiments/knapen_AOT/AOT_stimuli/rescaled_final/1241_fw.mp4	0.0	269.846657037735	
45	196.12933111190796	pulse	1	t		43.0	2.5	/experiments/knapen_AOT/AOT_stimuli/rescaled_final/1241_fw.mp4	0.0	271.4469680786133	
45	196.6459240913391	fix_post	2		12	43.0	2.5	/experiments/knapen_AOT/AOT_stimuli/rescaled_final/1241_fw.mp4	0.0	271.96356105804443	0.09989094734191895
46	196.74581503868103	fix_pre	0		119	44.0	2.5	/experiments/knapen_AOT/AOT_stimuli/rescaled_final/1918_rv.mp4	0.0	272.06345200538635	0.9918129444122314
46	197.7294979095459	pulse	0	t		44.0	2.5	/experiments/knapen_AOT/AOT_stimuli/rescaled_final/1918_rv.mp4	0.0	273.0471348762512	
46	197.73762798309326	movie	1		243	44.0	2.5	/experiments/knapen_AOT/AOT_stimuli/rescaled_final/1918_rv.mp4	0.0	273.0552649497986	2.5086770057678223
46	199.33031511306763	pulse	1	t		44.0	2.5	/experiments/knapen_AOT/AOT_stimuli/rescaled_final/1918_rv.mp4	0.0	274.64795207977295	
46	200.24630498886108	fix_post	2		12	44.0	2.5	/experiments/knapen_AOT/AOT_stimuli/rescaled_final/1918_rv.mp4	0.0	275.5639419555664	0.10001301765441895
47	200.3463180065155	fix_pre	0		120	45.0	2.5	/experiments/knapen_AOT/AOT_stimuli/rescaled_final/1886_fw.mp4	0.0	275.6639549732208	1.0001859664916992
47	200.93005299568176	pulse	0	t		45.0	2.5	/experiments/knapen_AOT/AOT_stimuli/rescaled_final/1886_fw.mp4	0.0	276.2476899623871	
47	201.3465039730072	movie	1		242	45.0	2.5	/experiments/knapen_AOT/AOT_stimuli/rescaled_final/1886_fw.mp4	0.0	276.6641409397125	2.5004870891571045
47	202.53025889396667	pulse	1	t		45.0	2.5	/experiments/knapen_AOT/AOT_stimuli/rescaled_final/1886_fw.mp4	0.0	277.847895860672	
47	203.8469910621643	fix_post	2		12	45.0	2.5	/experiments/knapen_AOT/AOT_stimuli/rescaled_final/1886_fw.mp4	0.0	279.16462802886963	0.09993290901184082
48	203.94692397117615	fix_pre	0		120	46.0	2.5	/experiments/knapen_AOT/AOT_stimuli/rescaled_final/0580_rv.mp4	0.0	279.26456093788147	1.0000929832458496
48	204.13043594360352	pulse	0	t		46.0	2.5	/experiments/knapen_AOT/AOT_stimuli/rescaled_final/0580_rv.mp4	0.0	279.44807291030884	
48	204.947016954422	movie	1		242	46.0	2.5	/experiments/knapen_AOT/AOT_stimuli/rescaled_final/0580_rv.mp4	0.0	280.2646539211273	2.500622034072876
48	205.73078608512878	pulse	1	t		46.0	2.5	/experiments/knapen_AOT/AOT_stimuli/rescaled_final/0580_rv.mp4	0.0	281.0484230518341	
48	207.33226203918457	pulse	1	t		46.0	2.5	/experiments/knapen_AOT/AOT_stimuli/rescaled_final/0580_rv.mp4	0.0	282.6498990058899	
48	207.44763898849487	fix_post	2		12	46.0	2.5	/experiments/knapen_AOT/AOT_stimuli/rescaled_final/0580_rv.mp4	0.0	282.7652759552002	0.09978103637695312
49	207.54742002487183	fix_pre	0		119	47.0	2.5	blank	1.0	282.86505699157715	0.9918110370635986
49	208.53923106193542	movie	1		300	47.0	2.5	blank	1.0	283.85686802864075	2.5003819465637207
49	208.93115997314453	pulse	1	t		47.0	2.5	blank	1.0	284.24879693984985	
49	210.53136491775513	pulse	1	t		47.0	2.5	blank	1.0	285.84900188446045	
49	211.03961300849915	fix_post	2		12	47.0	2.5	blank	1.0	286.35724997520447	0.10000300407409668
50	211.13961601257324	fix_pre	0		120	48.0	2.5	/experiments/knapen_AOT/AOT_stimuli/rescaled_final/0196_fw.mp4	0.0	286.45725297927856	1.0001230239868164
50	212.13174295425415	pulse	0	t		48.0	2.5	/experiments/knapen_AOT/AOT_stimuli/rescaled_final/0196_fw.mp4	0.0	287.4493799209595	
50	212.13973903656006	movie	1		243	48.0	2.5	/experiments/knapen_AOT/AOT_stimuli/rescaled_final/0196_fw.mp4	0.0	287.4573760032654	2.508749008178711
50	213.73305702209473	pulse	1	t		48.0	2.5	/experiments/knapen_AOT/AOT_stimuli/rescaled_final/0196_fw.mp4	0.0	289.05069398880005	
50	214.64848804473877	fix_post	2		12	48.0	2.5	/experiments/knapen_AOT/AOT_stimuli/rescaled_final/0196_fw.mp4	0.0	289.9661250114441	0.10003995895385742
51	214.74852800369263	fix_pre	0		120	49.0	2.5	/experiments/knapen_AOT/AOT_stimuli/rescaled_final/0658_fw.mp4	0.0	290.06616497039795	1.0001709461212158
51	215.3321189880371	pulse	0	t		49.0	2.5	/experiments/knapen_AOT/AOT_stimuli/rescaled_final/0658_fw.mp4	0.0	290.64975595474243	
51	215.74869894981384	movie	1		242	49.0	2.5	/experiments/knapen_AOT/AOT_stimuli/rescaled_final/0658_fw.mp4	0.0	291.06633591651917	2.500446081161499
51	216.93244791030884	pulse	1	t		49.0	2.5	/experiments/knapen_AOT/AOT_stimuli/rescaled_final/0658_fw.mp4	0.0	292.25008487701416	
51	218.24914503097534	fix_post	2		12	49.0	2.5	/experiments/knapen_AOT/AOT_stimuli/rescaled_final/0658_fw.mp4	0.0	293.56678199768066	0.099884033203125
52	218.34902906417847	fix_pre	0		120	50.0	2.5	/experiments/knapen_AOT/AOT_stimuli/rescaled_final/1226_fw.mp4	0.0	293.6666660308838	1.0001459121704102
52	218.53263902664185	pulse	0	t		50.0	2.5	/experiments/knapen_AOT/AOT_stimuli/rescaled_final/1226_fw.mp4	0.0	293.85027599334717	
52	219.34917497634888	movie	1		241	50.0	2.5	/experiments/knapen_AOT/AOT_stimuli/rescaled_final/1226_fw.mp4	0.0	294.6668119430542	2.509200096130371
52	220.13291692733765	pulse	1	t		50.0	2.5	/experiments/knapen_AOT/AOT_stimuli/rescaled_final/1226_fw.mp4	0.0	295.45055389404297	
52	221.73302602767944	pulse	1	t		50.0	2.5	/experiments/knapen_AOT/AOT_stimuli/rescaled_final/1226_fw.mp4	0.0	297.05066299438477	
52	221.85837507247925	fix_post	2		11	50.0	2.5	/experiments/knapen_AOT/AOT_stimuli/rescaled_final/1226_fw.mp4	0.0	297.17601203918457	0.09123492240905762
53	221.9496099948883	fix_pre	0		120	51.0	2.5	/experiments/knapen_AOT/AOT_stimuli/rescaled_final/1538_rv.mp4	0.0	297.2672469615936	1.0000910758972168
53	222.94970107078552	movie	1		241	51.0	2.5	/experiments/knapen_AOT/AOT_stimuli/rescaled_final/1538_rv.mp4	0.0	298.26733803749084	2.4922749996185303
53	223.33507704734802	pulse	1	t		51.0	2.5	/experiments/knapen_AOT/AOT_stimuli/rescaled_final/1538_rv.mp4	0.0	298.65271401405334	
53	224.93361711502075	pulse	1	t		51.0	2.5	/experiments/knapen_AOT/AOT_stimuli/rescaled_final/1538_rv.mp4	0.0	300.2512540817261	
53	225.44197607040405	fix_post	2		12	51.0	2.5	/experiments/knapen_AOT/AOT_stimuli/rescaled_final/1538_rv.mp4	0.0	300.7596130371094	0.0998220443725586
54	225.5417981147766	fix_pre	0		120	52.0	2.5	/experiments/knapen_AOT/AOT_stimuli/rescaled_final/0165_fw.mp4	0.0	300.85943508148193	1.0000898838043213
54	226.5338490009308	pulse	0	t		52.0	2.5	/experiments/knapen_AOT/AOT_stimuli/rescaled_final/0165_fw.mp4	0.0	301.8514859676361	
54	226.54188799858093	movie	1		243	52.0	2.5	/experiments/knapen_AOT/AOT_stimuli/rescaled_final/0165_fw.mp4	0.0	301.85952496528625	2.508897066116333
54	228.13472199440002	pulse	1	t		52.0	2.5	/experiments/knapen_AOT/AOT_stimuli/rescaled_final/0165_fw.mp4	0.0	303.45235896110535	
54	229.05078506469727	fix_post	2		12	52.0	2.5	/experiments/knapen_AOT/AOT_stimuli/rescaled_final/0165_fw.mp4	0.0	304.3684220314026	0.09984493255615234
55	229.15062999725342	fix_pre	0		120	53.0	2.5	/experiments/knapen_AOT/AOT_stimuli/rescaled_final/2068_fw.mp4	0.0	304.46826696395874	1.0001230239868164
55	229.73425388336182	pulse	0	t		53.0	2.5	/experiments/knapen_AOT/AOT_stimuli/rescaled_final/2068_fw.mp4	0.0	305.05189085006714	
55	230.15075302124023	movie	1		243	53.0	2.5	/experiments/knapen_AOT/AOT_stimuli/rescaled_final/2068_fw.mp4	0.0	305.46838998794556	2.500398874282837
55	231.33451199531555	pulse	1	t		53.0	2.5	/experiments/knapen_AOT/AOT_stimuli/rescaled_final/2068_fw.mp4	0.0	306.6521489620209	
55	232.65115189552307	fix_post	2		12	53.0	2.5	/experiments/knapen_AOT/AOT_stimuli/rescaled_final/2068_fw.mp4	0.0	307.9687888622284	0.10001206398010254
56	232.75116395950317	fix_pre	0		120	54.0	2.5	/experiments/knapen_AOT/AOT_stimuli/rescaled_final/2176_rv.mp4	0.0	308.0688009262085	1.000157117843628
56	232.92733907699585	pulse	0	t		54.0	2.5	/experiments/knapen_AOT/AOT_stimuli/rescaled_final/2176_rv.mp4	0.0	308.2449760437012	
56	233.7513210773468	movie	1		243	54.0	2.5	/experiments/knapen_AOT/AOT_stimuli/rescaled_final/2176_rv.mp4	0.0	309.0689580440521	2.5005619525909424
56	234.52756595611572	pulse	1	t		54.0	2.5	/experiments/knapen_AOT/AOT_stimuli/rescaled_final/2176_rv.mp4	0.0	309.84520292282104	
56	236.13520407676697	pulse	1	t		54.0	2.5	/experiments/knapen_AOT/AOT_stimuli/rescaled_final/2176_rv.mp4	0.0	311.4528410434723	
56	236.25188302993774	fix_post	2		12	54.0	2.5	/experiments/knapen_AOT/AOT_stimuli/rescaled_final/2176_rv.mp4	0.0	311.56951999664307	0.09987187385559082
57	236.35175490379333	fix_pre	0		120	55.0	2.5	blank	1.0	311.66939187049866	1.0001251697540283
57	237.35188007354736	movie	1		299	55.0	2.5	blank	1.0	312.6695170402527	2.492013931274414
57	237.72798204421997	pulse	1	t		55.0	2.5	blank	1.0	313.0456190109253	
57	239.32732510566711	pulse	1	t		55.0	2.5	blank	1.0	314.64496207237244	
57	239.84389400482178	fix_post	2		12	55.0	2.5	blank	1.0	315.1615309715271	0.10001397132873535
58	239.9439079761505	fix_pre	0		119	56.0	2.5	/experiments/knapen_AOT/AOT_stimuli/rescaled_final/0048_fw.mp4	0.0	315.26154494285583	0.9920210838317871
58	240.92750692367554	pulse	0	t		56.0	2.5	/experiments/knapen_AOT/AOT_stimuli/rescaled_final/0048_fw.mp4	0.0	316.24514389038086	
58	240.9359290599823	movie	1		244	56.0	2.5	/experiments/knapen_AOT/AOT_stimuli/rescaled_final/0048_fw.mp4	0.0	316.2535660266876	2.5085010528564453
58	242.532301902771	pulse	1	t		56.0	2.5	/experiments/knapen_AOT/AOT_stimuli/rescaled_final/0048_fw.mp4	0.0	317.8499388694763	
58	243.44443011283875	fix_post	2		12	56.0	2.5	/experiments/knapen_AOT/AOT_stimuli/rescaled_final/0048_fw.mp4	0.0	318.76206707954407	0.10000991821289062
59	243.54444003105164	fix_pre	0		120	57.0	2.5	/experiments/knapen_AOT/AOT_stimuli/rescaled_final/1091_fw.mp4	0.0	318.86207699775696	1.0001890659332275
59	244.12817406654358	pulse	0	t		57.0	2.5	/experiments/knapen_AOT/AOT_stimuli/rescaled_final/1091_fw.mp4	0.0	319.4458110332489	
59	244.54462909698486	movie	1		243	57.0	2.5	/experiments/knapen_AOT/AOT_stimuli/rescaled_final/1091_fw.mp4	0.0	319.8622660636902	2.5005009174346924
59	245.7284450531006	pulse	1	t		57.0	2.5	/experiments/knapen_AOT/AOT_stimuli/rescaled_final/1091_fw.mp4	0.0	321.0460820198059	
59	247.04513001441956	fix_post	2		12	57.0	2.5	/experiments/knapen_AOT/AOT_stimuli/rescaled_final/1091_fw.mp4	0.0	322.3627669811249	0.09986495971679688
60	247.14499497413635	fix_pre	0		120	58.0	2.5	/experiments/knapen_AOT/AOT_stimuli/rescaled_final/0642_rv.mp4	0.0	322.4626319408417	1.0001440048217773
60	247.32858109474182	pulse	0	t		58.0	2.5	/experiments/knapen_AOT/AOT_stimuli/rescaled_final/0642_rv.mp4	0.0	322.64621806144714	
60	248.14513897895813	movie	1		242	58.0	2.5	/experiments/knapen_AOT/AOT_stimuli/rescaled_final/0642_rv.mp4	0.0	323.46277594566345	2.50040602684021
60	248.92878603935242	pulse	1	t		58.0	2.5	/experiments/knapen_AOT/AOT_stimuli/rescaled_final/0642_rv.mp4	0.0	324.24642300605774	
60	250.52905893325806	pulse	1	t		58.0	2.5	/experiments/knapen_AOT/AOT_stimuli/rescaled_final/0642_rv.mp4	0.0	325.8466958999634	
60	250.64554500579834	fix_post	2		12	58.0	2.5	/experiments/knapen_AOT/AOT_stimuli/rescaled_final/0642_rv.mp4	0.0	325.96318197250366	0.09997296333312988
61	250.74551796913147	fix_pre	0		120	59.0	2.5	/experiments/knapen_AOT/AOT_stimuli/rescaled_final/2085_fw.mp4	0.0	326.0631549358368	1.000175952911377
61	251.74569392204285	movie	1		242	59.0	2.5	/experiments/knapen_AOT/AOT_stimuli/rescaled_final/2085_fw.mp4	0.0	327.06333088874817	2.49214506149292
61	252.134202003479	pulse	1	t		59.0	2.5	/experiments/knapen_AOT/AOT_stimuli/rescaled_final/2085_fw.mp4	0.0	327.4518389701843	
61	253.72952604293823	pulse	1	t		59.0	2.5	/experiments/knapen_AOT/AOT_stimuli/rescaled_final/2085_fw.mp4	0.0	329.04716300964355	
61	254.23783898353577	fix_post	2		12	59.0	2.5	/experiments/knapen_AOT/AOT_stimuli/rescaled_final/2085_fw.mp4	0.0	329.5554759502411	0.0999460220336914
62	254.33778500556946	fix_pre	0		120	60.0	2.5	/experiments/knapen_AOT/AOT_stimuli/rescaled_final/0023_fw.mp4	0.0	329.6554219722748	1.0000989437103271
62	255.3296868801117	pulse	0	t		60.0	2.5	/experiments/knapen_AOT/AOT_stimuli/rescaled_final/0023_fw.mp4	0.0	330.647323846817	
62	255.33788394927979	movie	1		244	60.0	2.5	/experiments/knapen_AOT/AOT_stimuli/rescaled_final/0023_fw.mp4	0.0	330.6555209159851	2.508723020553589
62	256.93071007728577	pulse	1	t		60.0	2.5	/experiments/knapen_AOT/AOT_stimuli/rescaled_final/0023_fw.mp4	0.0	332.2483470439911	
62	257.8466069698334	fix_post	2		12	60.0	2.5	/experiments/knapen_AOT/AOT_stimuli/rescaled_final/0023_fw.mp4	0.0	333.1642439365387	0.09998512268066406
63	257.94659209251404	fix_pre	0		120	61.0	2.5	/experiments/knapen_AOT/AOT_stimuli/rescaled_final/1621_fw.mp4	0.0	333.26422905921936	1.0001418590545654
63	258.53026008605957	pulse	0	t		61.0	2.5	/experiments/knapen_AOT/AOT_stimuli/rescaled_final/1621_fw.mp4	0.0	333.8478970527649	
63	258.9467339515686	movie	1		242	61.0	2.5	/experiments/knapen_AOT/AOT_stimuli/rescaled_final/1621_fw.mp4	0.0	334.2643709182739	2.5004279613494873
63	260.13066601753235	pulse	1	t		61.0	2.5	/experiments/knapen_AOT/AOT_stimuli/rescaled_final/1621_fw.mp4	0.0	335.44830298423767	
63	261.4471619129181	fix_post	2		12	61.0	2.5	/experiments/knapen_AOT/AOT_stimuli/rescaled_final/1621_fw.mp4	0.0	336.7647988796234	0.10001516342163086
64	261.5471770763397	fix_pre	0		120	62.0	2.5	blank	1.0	336.86481404304504	1.0000739097595215
64	261.73072504997253	pulse	0	t		62.0	2.5	blank	1.0	337.04836201667786	
64	262.54725098609924	movie	1		300	62.0	2.5	blank	1.0	337.86488795280457	2.5004379749298096
64	263.3309280872345	pulse	1	t		62.0	2.5	blank	1.0	338.6485650539398	
64	264.9311399459839	pulse	1	t		62.0	2.5	blank	1.0	340.2487769126892	
64	265.04768896102905	fix_post	2		12	62.0	2.5	blank	1.0	340.3653259277344	0.09999895095825195
65	265.1476879119873	fix_pre	0		120	63.0	2.5	/experiments/knapen_AOT/AOT_stimuli/rescaled_final/1604_fw.mp4	0.0	340.4653248786926	1.0001611709594727
65	266.1478490829468	movie	1		241	63.0	2.5	/experiments/knapen_AOT/AOT_stimuli/rescaled_final/1604_fw.mp4	0.0	341.4654860496521	2.4921538829803467
65	266.532203912735	pulse	1	t		63.0	2.5	/experiments/knapen_AOT/AOT_stimuli/rescaled_final/1604_fw.mp4	0.0	341.8498408794403	
65	268.1317648887634	pulse	1	t		63.0	2.5	/experiments/knapen_AOT/AOT_stimuli/rescaled_final/1604_fw.mp4	0.0	343.44940185546875	
65	268.6400029659271	fix_post	2		12	63.0	2.5	/experiments/knapen_AOT/AOT_stimuli/rescaled_final/1604_fw.mp4	0.0	343.95763993263245	0.09988999366760254
66	268.7398929595947	fix_pre	0		120	64.0	2.5	/experiments/knapen_AOT/AOT_stimuli/rescaled_final/0417_rv.mp4	0.0	344.05752992630005	1.000218152999878
66	269.7319118976593	pulse	0	t		64.0	2.5	/experiments/knapen_AOT/AOT_stimuli/rescaled_final/0417_rv.mp4	0.0	345.0495488643646	
66	269.7401111125946	movie	1		244	64.0	2.5	/experiments/knapen_AOT/AOT_stimuli/rescaled_final/0417_rv.mp4	0.0	345.0577480792999	2.5086188316345215
66	271.33365297317505	pulse	1	t		64.0	2.5	/experiments/knapen_AOT/AOT_stimuli/rescaled_final/0417_rv.mp4	0.0	346.65128993988037	
66	272.2487299442291	fix_post	2		12	64.0	2.5	/experiments/knapen_AOT/AOT_stimuli/rescaled_final/0417_rv.mp4	0.0	347.56636691093445	0.10005903244018555
67	272.3487889766693	fix_pre	0		120	65.0	2.5	/experiments/knapen_AOT/AOT_stimuli/rescaled_final/1730_rv.mp4	0.0	347.66642594337463	1.0001540184020996
67	272.93231892585754	pulse	0	t		65.0	2.5	/experiments/knapen_AOT/AOT_stimuli/rescaled_final/1730_rv.mp4	0.0	348.24995589256287	
67	273.3489429950714	movie	1		243	65.0	2.5	/experiments/knapen_AOT/AOT_stimuli/rescaled_final/1730_rv.mp4	0.0	348.66657996177673	2.5003249645233154
67	274.5327880382538	pulse	1	t		65.0	2.5	/experiments/knapen_AOT/AOT_stimuli/rescaled_final/1730_rv.mp4	0.0	349.8504250049591	
67	275.8492679595947	fix_post	2		12	65.0	2.5	/experiments/knapen_AOT/AOT_stimuli/rescaled_final/1730_rv.mp4	0.0	351.16690492630005	0.10000205039978027
68	275.9492700099945	fix_pre	0		120	66.0	2.5	/experiments/knapen_AOT/AOT_stimuli/rescaled_final/1083_fw.mp4	0.0	351.26690697669983	1.0001890659332275
68	276.13286089897156	pulse	0	t		66.0	2.5	/experiments/knapen_AOT/AOT_stimuli/rescaled_final/1083_fw.mp4	0.0	351.4504978656769	
68	276.94945907592773	movie	1		243	66.0	2.5	/experiments/knapen_AOT/AOT_stimuli/rescaled_final/1083_fw.mp4	0.0	352.26709604263306	2.5004239082336426
68	277.73317694664	pulse	1	t		66.0	2.5	/experiments/knapen_AOT/AOT_stimuli/rescaled_final/1083_fw.mp4	0.0	353.05081391334534	
68	279.3330841064453	pulse	1	t		66.0	2.5	/experiments/knapen_AOT/AOT_stimuli/rescaled_final/1083_fw.mp4	0.0	354.65072107315063	
68	279.4498829841614	fix_post	2		12	66.0	2.5	/experiments/knapen_AOT/AOT_stimuli/rescaled_final/1083_fw.mp4	0.0	354.7675199508667	0.09996604919433594
69	279.5498490333557	fix_pre	0		120	67.0	2.5	/experiments/knapen_AOT/AOT_stimuli/rescaled_final/2167_fw.mp4	0.0	354.86748600006104	1.0001170635223389
69	280.54996609687805	movie	1		241	67.0	2.5	/experiments/knapen_AOT/AOT_stimuli/rescaled_final/2167_fw.mp4	0.0	355.8676030635834	2.4921388626098633
69	280.9349091053009	pulse	1	t		67.0	2.5	/experiments/knapen_AOT/AOT_stimuli/rescaled_final/2167_fw.mp4	0.0	356.2525460720062	
69	282.53386402130127	pulse	1	t		67.0	2.5	/experiments/knapen_AOT/AOT_stimuli/rescaled_final/2167_fw.mp4	0.0	357.8515009880066	
69	283.0421049594879	fix_post	2		12	67.0	2.5	/experiments/knapen_AOT/AOT_stimuli/rescaled_final/2167_fw.mp4	0.0	358.35974192619324	0.0999290943145752
70	283.1420340538025	fix_pre	0		120	68.0	2.5	/experiments/knapen_AOT/AOT_stimuli/rescaled_final/0517_rv.mp4	0.0	358.4596710205078	1.000154972076416
70	284.134073972702	pulse	0	t		68.0	2.5	/experiments/knapen_AOT/AOT_stimuli/rescaled_final/0517_rv.mp4	0.0	359.45171093940735	
70	284.1421890258789	movie	1		244	68.0	2.5	/experiments/knapen_AOT/AOT_stimuli/rescaled_final/0517_rv.mp4	0.0	359.45982599258423	2.5087058544158936
70	285.73510003089905	pulse	1	t		68.0	2.5	/experiments/knapen_AOT/AOT_stimuli/rescaled_final/0517_rv.mp4	0.0	361.05273699760437	
70	286.6508948802948	fix_post	2		12	68.0	2.5	/experiments/knapen_AOT/AOT_stimuli/rescaled_final/0517_rv.mp4	0.0	361.9685318470001	0.10001921653747559
71	286.7509140968323	fix_pre	0		120	69.0	2.5	blank	1.0	362.0685510635376	1.0001249313354492
71	287.3346219062805	pulse	0	t		69.0	2.5	blank	1.0	362.65225887298584	
71	287.7510390281677	movie	1		300	69.0	2.5	blank	1.0	363.06867599487305	2.500377893447876
71	288.9348568916321	pulse	1	t		69.0	2.5	blank	1.0	364.2524938583374	
71	290.2514169216156	fix_post	2		12	69.0	2.5	blank	1.0	365.5690538883209	0.10010600090026855
72	290.35152292251587	fix_pre	0		120	70.0	2.5	/experiments/knapen_AOT/AOT_stimuli/rescaled_final/1116_rv.mp4	0.0	365.6691598892212	1.0000841617584229
72	290.53504395484924	pulse	0	t		70.0	2.5	/experiments/knapen_AOT/AOT_stimuli/rescaled_final/1116_rv.mp4	0.0	365.85268092155457	
72	291.3516070842743	movie	1		238	70.0	2.5	/experiments/knapen_AOT/AOT_stimuli/rescaled_final/1116_rv.mp4	0.0	366.6692440509796	2.5004818439483643
72	292.12803196907043	pulse	1	t		70.0	2.5	/experiments/knapen_AOT/AOT_stimuli/rescaled_final/1116_rv.mp4	0.0	367.44566893577576	
72	293.73543405532837	pulse	1	t		70.0	2.5	/experiments/knapen_AOT/AOT_stimuli/rescaled_final/1116_rv.mp4	0.0	369.0530710220337	
72	293.85208892822266	fix_post	2		12	70.0	2.5	/experiments/knapen_AOT/AOT_stimuli/rescaled_final/1116_rv.mp4	0.0	369.169725894928	0.09988903999328613
73	293.95197796821594	fix_pre	0		119	71.0	2.5	/experiments/knapen_AOT/AOT_stimuli/rescaled_final/1753_fw.mp4	0.0	369.26961493492126	0.991847038269043
73	294.943825006485	movie	1		242	71.0	2.5	/experiments/knapen_AOT/AOT_stimuli/rescaled_final/1753_fw.mp4	0.0	370.2614619731903	2.500459909439087
73	295.32835698127747	pulse	1	t		71.0	2.5	/experiments/knapen_AOT/AOT_stimuli/rescaled_final/1753_fw.mp4	0.0	370.6459939479828	
73	296.9286370277405	pulse	1	t		71.0	2.5	/experiments/knapen_AOT/AOT_stimuli/rescaled_final/1753_fw.mp4	0.0	372.2462739944458	
73	297.4442849159241	fix_post	2		12	71.0	2.5	/experiments/knapen_AOT/AOT_stimuli/rescaled_final/1753_fw.mp4	0.0	372.7619218826294	0.09996819496154785
74	297.5442531108856	fix_pre	0		120	72.0	2.5	/experiments/knapen_AOT/AOT_stimuli/rescaled_final/1822_rv.mp4	0.0	372.86189007759094	1.000135898590088
74	298.52864599227905	pulse	0	t		72.0	2.5	/experiments/knapen_AOT/AOT_stimuli/rescaled_final/1822_rv.mp4	0.0	373.8462829589844	
74	298.5443890094757	movie	1		243	72.0	2.5	/experiments/knapen_AOT/AOT_stimuli/rescaled_final/1822_rv.mp4	0.0	373.86202597618103	2.508650064468384
74	300.12820196151733	pulse	1	t		72.0	2.5	/experiments/knapen_AOT/AOT_stimuli/rescaled_final/1822_rv.mp4	0.0	375.44583892822266	
74	301.0530390739441	fix_post	2		12	72.0	2.5	/experiments/knapen_AOT/AOT_stimuli/rescaled_final/1822_rv.mp4	0.0	376.3706760406494	0.10003781318664551
75	301.15307688713074	fix_pre	0		120	73.0	2.5	/experiments/knapen_AOT/AOT_stimuli/rescaled_final/1246_rv.mp4	0.0	376.47071385383606	1.000150203704834
75	301.72826290130615	pulse	0	t		73.0	2.5	/experiments/knapen_AOT/AOT_stimuli/rescaled_final/1246_rv.mp4	0.0	377.0458998680115	
75	302.15322709083557	movie	1		243	73.0	2.5	/experiments/knapen_AOT/AOT_stimuli/rescaled_final/1246_rv.mp4	0.0	377.4708640575409	2.500549793243408
75	303.32973194122314	pulse	1	t		73.0	2.5	/experiments/knapen_AOT/AOT_stimuli/rescaled_final/1246_rv.mp4	0.0	378.64736890792847	
75	304.653776884079	fix_post	2		12	73.0	2.5	/experiments/knapen_AOT/AOT_stimuli/rescaled_final/1246_rv.mp4	0.0	379.9714138507843	0.09977507591247559
76	304.75355195999146	fix_pre	0		120	74.0	2.5	/experiments/knapen_AOT/AOT_stimuli/rescaled_final/1203_fw.mp4	0.0	380.0711889266968	1.0001869201660156
76	304.92889499664307	pulse	0	t		74.0	2.5	/experiments/knapen_AOT/AOT_stimuli/rescaled_final/1203_fw.mp4	0.0	380.2465319633484	
76	305.75373888015747	movie	1		243	74.0	2.5	/experiments/knapen_AOT/AOT_stimuli/rescaled_final/1203_fw.mp4	0.0	381.0713758468628	2.500430107116699
76	306.52917408943176	pulse	1	t		74.0	2.5	/experiments/knapen_AOT/AOT_stimuli/rescaled_final/1203_fw.mp4	0.0	381.8468110561371	
76	308.12927293777466	pulse	1	t		74.0	2.5	/experiments/knapen_AOT/AOT_stimuli/rescaled_final/1203_fw.mp4	0.0	383.44690990448	
76	308.25416898727417	fix_post	2		12	74.0	2.5	/experiments/knapen_AOT/AOT_stimuli/rescaled_final/1203_fw.mp4	0.0	383.5718059539795	0.09993410110473633
77	308.3541030883789	fix_pre	0		119	75.0	2.5	/experiments/knapen_AOT/AOT_stimuli/rescaled_final/0903_fw.mp4	0.0	383.67174005508423	0.991832971572876
77	309.3459360599518	movie	1		244	75.0	2.5	/experiments/knapen_AOT/AOT_stimuli/rescaled_final/0903_fw.mp4	0.0	384.6635730266571	2.5003600120544434
77	309.72991609573364	pulse	1	t		75.0	2.5	/experiments/knapen_AOT/AOT_stimuli/rescaled_final/0903_fw.mp4	0.0	385.04755306243896	
77	311.32975006103516	pulse	1	t		75.0	2.5	/experiments/knapen_AOT/AOT_stimuli/rescaled_final/0903_fw.mp4	0.0	386.6473870277405	
77	311.8462960720062	fix_post	2		12	75.0	2.5	/experiments/knapen_AOT/AOT_stimuli/rescaled_final/0903_fw.mp4	0.0	387.16393303871155	0.10000991821289062
78	311.9463059902191	fix_pre	0		119	76.0	2.5	/experiments/knapen_AOT/AOT_stimuli/rescaled_final/0843_fw.mp4	0.0	387.26394295692444	0.9918630123138428
78	312.9300630092621	pulse	0	t		76.0	2.5	/experiments/knapen_AOT/AOT_stimuli/rescaled_final/0843_fw.mp4	0.0	388.2476999759674	
78	312.93816900253296	movie	1		245	76.0	2.5	/experiments/knapen_AOT/AOT_stimuli/rescaled_final/0843_fw.mp4	0.0	388.2558059692383	2.5086169242858887
78	314.5308849811554	pulse	1	t		76.0	2.5	/experiments/knapen_AOT/AOT_stimuli/rescaled_final/0843_fw.mp4	0.0	389.8485219478607	
78	315.44678592681885	fix_post	2		12	76.0	2.5	/experiments/knapen_AOT/AOT_stimuli/rescaled_final/0843_fw.mp4	0.0	390.76442289352417	0.10005617141723633
79	315.5468420982361	fix_pre	0		120	77.0	2.5	blank	1.0	390.8644790649414	1.0001897811889648
79	316.1304841041565	pulse	0	t		77.0	2.5	blank	1.0	391.4481210708618	
79	316.54703187942505	movie	1		300	77.0	2.5	blank	1.0	391.86466884613037	2.5003621578216553
79	317.73083090782166	pulse	1	t		77.0	2.5	blank	1.0	393.048467874527	
79	319.0473940372467	fix_post	2		12	77.0	2.5	blank	1.0	394.365031003952	0.10013985633850098
80	319.1475338935852	fix_pre	0		120	78.0	2.5	/experiments/knapen_AOT/AOT_stimuli/rescaled_final/1216_fw.mp4	0.0	394.4651708602905	1.0000700950622559
80	319.3310730457306	pulse	0	t		78.0	2.5	/experiments/knapen_AOT/AOT_stimuli/rescaled_final/1216_fw.mp4	0.0	394.6487100124359	
80	320.14760398864746	movie	1		242	78.0	2.5	/experiments/knapen_AOT/AOT_stimuli/rescaled_final/1216_fw.mp4	0.0	395.4652409553528	2.500476121902466
80	320.93123507499695	pulse	1	t		78.0	2.5	/experiments/knapen_AOT/AOT_stimuli/rescaled_final/1216_fw.mp4	0.0	396.24887204170227	
80	322.5314130783081	pulse	1	t		78.0	2.5	/experiments/knapen_AOT/AOT_stimuli/rescaled_final/1216_fw.mp4	0.0	397.8490500450134	
80	322.6480801105499	fix_post	2		12	78.0	2.5	/experiments/knapen_AOT/AOT_stimuli/rescaled_final/1216_fw.mp4	0.0	397.96571707725525	0.09984588623046875
81	322.7479259967804	fix_pre	0		120	79.0	2.5	/experiments/knapen_AOT/AOT_stimuli/rescaled_final/2037_rv.mp4	0.0	398.0655629634857	1.0001640319824219
81	323.7480900287628	movie	1		242	79.0	2.5	/experiments/knapen_AOT/AOT_stimuli/rescaled_final/2037_rv.mp4	0.0	399.06572699546814	2.4920339584350586
81	324.136342048645	pulse	1	t		79.0	2.5	/experiments/knapen_AOT/AOT_stimuli/rescaled_final/2037_rv.mp4	0.0	399.45397901535034	
81	325.7320339679718	pulse	1	t		79.0	2.5	/experiments/knapen_AOT/AOT_stimuli/rescaled_final/2037_rv.mp4	0.0	401.0496709346771	
81	326.2401239871979	fix_post	2		12	79.0	2.5	/experiments/knapen_AOT/AOT_stimuli/rescaled_final/2037_rv.mp4	0.0	401.5577609539032	0.10002493858337402
82	326.34014892578125	fix_pre	0		120	80.0	2.5	/experiments/knapen_AOT/AOT_stimuli/rescaled_final/0023_fw.mp4	0.0	401.6577858924866	1.0001089572906494
82	327.33222699165344	pulse	0	t		80.0	2.5	/experiments/knapen_AOT/AOT_stimuli/rescaled_final/0023_fw.mp4	0.0	402.64986395835876	
82	327.3402578830719	movie	1		245	80.0	2.5	/experiments/knapen_AOT/AOT_stimuli/rescaled_final/0023_fw.mp4	0.0	402.6578948497772	2.508782148361206
82	328.9337248802185	pulse	1	t		80.0	2.5	/experiments/knapen_AOT/AOT_stimuli/rescaled_final/0023_fw.mp4	0.0	404.2513618469238	
82	329.8490400314331	fix_post	2		12	80.0	2.5	/experiments/knapen_AOT/AOT_stimuli/rescaled_final/0023_fw.mp4	0.0	405.1666769981384	0.10000085830688477
83	329.94904088974	fix_pre	0		120	81.0	2.5	/experiments/knapen_AOT/AOT_stimuli/rescaled_final/1482_fw.mp4	0.0	405.2666778564453	1.0001001358032227
83	330.53263998031616	pulse	0	t		81.0	2.5	/experiments/knapen_AOT/AOT_stimuli/rescaled_final/1482_fw.mp4	0.0	405.8502769470215	
83	330.9491410255432	movie	1		242	81.0	2.5	/experiments/knapen_AOT/AOT_stimuli/rescaled_final/1482_fw.mp4	0.0	406.26677799224854	2.5004889965057373
83	332.13303995132446	pulse	1	t		81.0	2.5	/experiments/knapen_AOT/AOT_stimuli/rescaled_final/1482_fw.mp4	0.0	407.4506769180298	
83	333.44963002204895	fix_post	2		12	81.0	2.5	/experiments/knapen_AOT/AOT_stimuli/rescaled_final/1482_fw.mp4	0.0	408.7672669887543	0.09994792938232422
84	333.5495779514313	fix_pre	0		120	82.0	2.5	blank	1.0	408.8672149181366	1.0002169609069824
84	333.7331531047821	pulse	0	t		82.0	2.5	blank	1.0	409.0507900714874	
84	334.54979491233826	movie	1		300	82.0	2.5	blank	1.0	409.8674318790436	2.500277042388916
84	335.3333480358124	pulse	1	t		82.0	2.5	blank	1.0	410.6509850025177	
84	336.9335780143738	pulse	1	t		82.0	2.5	blank	1.0	412.2512149810791	
84	337.0500719547272	fix_post	2		12	82.0	2.5	blank	1.0	412.3677089214325	0.10004401206970215
85	337.1501159667969	fix_pre	0		120	83.0	2.5	/experiments/knapen_AOT/AOT_stimuli/rescaled_final/1773_fw.mp4	0.0	412.4677529335022	1.0001070499420166
85	338.1502230167389	movie	1		242	83.0	2.5	/experiments/knapen_AOT/AOT_stimuli/rescaled_final/1773_fw.mp4	0.0	413.4678599834442	2.4920718669891357
85	338.5344269275665	pulse	1	t		83.0	2.5	/experiments/knapen_AOT/AOT_stimuli/rescaled_final/1773_fw.mp4	0.0	413.85206389427185	
85	340.1341779232025	pulse	1	t		83.0	2.5	/experiments/knapen_AOT/AOT_stimuli/rescaled_final/1773_fw.mp4	0.0	415.45181488990784	
85	340.642294883728	fix_post	2		12	83.0	2.5	/experiments/knapen_AOT/AOT_stimuli/rescaled_final/1773_fw.mp4	0.0	415.95993185043335	0.09999322891235352
87	340.7422881126404	stim	0		1716					416.0599250793457	14.302308797836304
87	341.7343668937683	pulse	0	t						417.05200386047363	
87	343.3345100879669	pulse	0	t						418.65214705467224	
87	344.927453994751	pulse	0	t						420.2450909614563	
87	346.527626991272	pulse	0	t						421.8452639579773	
87	348.12797594070435	pulse	0	t						423.44561290740967	
87	349.72813296318054	pulse	0	t						425.04576992988586	
87	351.32836389541626	pulse	0	t						426.6460008621216	
87	352.92758989334106	pulse	0	t						428.2452268600464	
87	354.52782106399536	pulse	0	t						429.8454580307007	
